# Sensor type: Respeck
# Activity type: Standing
# Activity subtype: Normal
# Subject id: s2106809
# Notes: unprocessed
timestamp,accel_x,accel_y,accel_z,gyro_x,gyro_y,gyro_z
1696254750037,-0.025146484,-0.96466064,0.1149292,4.890625,-2.15625,1.6875
1696254750097,-0.06518555,-0.97735596,0.12322998,0.59375,-3.0,1.96875
1696254750117,-0.039794922,-1.0059204,0.12054443,-0.03125,-0.59375,1.234375
1696254750178,-0.020751953,-0.9849243,0.117126465,-0.953125,-1.640625,-0.21875
1696254750198,-0.020507812,-0.97613525,0.12884521,-1.875,-3.421875,0.40625
1696254750239,-0.04736328,-0.989563,0.14178467,-2.375,-2.96875,0.046875
1696254750299,-0.06567383,-0.9890747,0.14276123,-4.703125,-1.78125,-1.484375
1696254750318,-0.041992188,-1.005188,0.14593506,-6.921875,0.265625,-1.984375
1696254750358,-0.022705078,-0.9678345,0.17523193,-8.46875,-0.171875,-1.203125
1696254750399,-0.041748047,-0.9807739,0.17523193,-7.484375,-1.625,-0.984375
1696254750438,-0.07348633,-0.9768677,0.168396,-5.859375,-2.078125,-1.671875
1696254750478,-0.053466797,-0.98443604,0.16619873,-4.3125,-1.5,-1.359375
1696254750519,-0.026123047,-0.9727173,0.1876831,-4.5625,-1.78125,-0.6875
1696254750559,-0.04736328,-0.97906494,0.18084717,-1.765625,-1.890625,-0.28125
1696254750601,-0.061279297,-0.9649048,0.18890381,-0.421875,-1.546875,-0.1875
1696254750638,-0.06689453,-0.98516846,0.18157959,-0.046875,0.4375,0.109375
1696254750678,-0.053222656,-0.9834595,0.1828003,-0.4375,0.71875,-0.03125
1696254750719,-0.043945312,-0.97491455,0.1876831,-0.75,0.34375,-0.296875
1696254750758,-0.05419922,-0.97906494,0.19012451,-0.96875,-0.03125,-0.3125
1696254750798,-0.061279297,-0.97491455,0.18988037,-1.109375,-0.3125,0.015625
1696254750838,-0.060058594,-0.9849243,0.19134521,-0.15625,-0.28125,-0.015625
1696254750878,-0.05029297,-0.96588135,0.19207764,-0.0625,0.046875,-0.34375
1696254750897,-0.051513672,-0.9729614,0.1906128,0.46875,0.328125,0.390625
1696254750939,-0.06542969,-0.9807739,0.1852417,0.328125,-0.140625,0.046875
1696254750999,-0.056640625,-0.9829712,0.19622803,2.015625,1.015625,0.390625
1696254751020,-0.052734375,-0.9746704,0.18499756,1.109375,-0.453125,0.0
1696254751061,-0.059570312,-0.97369385,0.18695068,0.09375,0.265625,-0.078125
1696254751097,-0.056152344,-0.98223877,0.18865967,0.53125,0.34375,-0.484375
1696254751139,-0.061767578,-0.98687744,0.18792725,0.140625,0.21875,-0.109375
1696254751179,-0.05102539,-0.972229,0.18719482,0.765625,-0.171875,0.125
1696254751218,-0.048339844,-0.97369385,0.19134521,1.390625,0.1875,0.53125
1696254751258,-0.052734375,-0.97735596,0.18670654,1.171875,-0.109375,0.84375
1696254751321,-0.056152344,-0.9795532,0.18182373,1.640625,-0.296875,0.71875
1696254751337,-0.056640625,-0.9690552,0.18109131,1.796875,-0.78125,0.546875
1696254751398,-0.053466797,-0.97442627,0.17669678,0.34375,-1.109375,0.640625
1696254751422,-0.061279297,-0.98516846,0.1798706,1.015625,-0.921875,0.5
1696254751458,-0.051757812,-0.9771118,0.17010498,-0.296875,-0.734375,-0.265625
1696254751499,-0.04711914,-0.97247314,0.16546631,-0.859375,-0.4375,-0.328125
1696254751539,-0.048828125,-0.975647,0.17376709,-0.953125,-1.578125,-0.21875
1696254751580,-0.051757812,-0.9824829,0.1786499,-1.0,-0.84375,-0.28125
1696254751620,-0.052734375,-0.98272705,0.16448975,-1.78125,-1.34375,-0.53125
1696254751658,-0.042236328,-0.97247314,0.17303467,-1.359375,-1.265625,-0.671875
1696254751698,-0.056884766,-0.9771118,0.18475342,-1.828125,-2.203125,-0.640625
1696254751739,-0.064453125,-0.98443604,0.18865967,-0.328125,-0.6875,0.03125
1696254751780,-0.053466797,-0.98101807,0.17425537,0.390625,0.3125,-0.453125
1696254751821,-0.057617188,-0.97320557,0.17327881,0.171875,-0.609375,-0.046875
1696254751860,-0.060302734,-0.98150635,0.17645264,0.453125,-1.390625,0.4375
1696254751898,-0.07006836,-0.9898071,0.18304443,0.203125,-0.40625,-0.03125
1696254751940,-0.060546875,-0.9783325,0.18084717,0.671875,-0.53125,0.375
1696254751980,-0.06542969,-0.9651489,0.1708374,2.03125,-0.84375,-0.25
1696254752041,-0.0703125,-0.98760986,0.17645264,5.0,-0.171875,0.265625
1696254752059,-0.06201172,-0.97735596,0.18157959,2.390625,0.5625,0.265625
1696254752119,-0.0625,-0.96832275,0.15447998,2.59375,0.203125,0.34375
1696254752138,-0.061767578,-0.98760986,0.15057373,2.03125,-1.03125,0.015625
1696254752202,-0.07373047,-0.98101807,0.17132568,2.234375,0.265625,0.65625
1696254752205,-0.06518555,-0.97857666,0.1618042,1.078125,-0.09375,0.3125
1696254752238,-0.0690918,-0.98150635,0.15496826,0.765625,-0.125,-0.15625
1696254752279,-0.060302734,-0.97369385,0.14837646,1.3125,-0.09375,0.015625
1696254752320,-0.05444336,-0.98272705,0.15447998,0.90625,-0.59375,0.171875
1696254752361,-0.061279297,-0.9795532,0.16033936,-0.125,-0.9375,0.21875
1696254752399,-0.07495117,-0.9924927,0.15057373,-1.46875,-1.390625,0.25
1696254752438,-0.064208984,-0.98394775,0.1539917,-0.828125,-0.8125,0.0625
1696254752478,-0.06274414,-0.9837036,0.16204834,0.40625,-0.15625,0.28125
1696254752517,-0.06591797,-0.98223877,0.15325928,-0.421875,-0.640625,0.078125
1696254752558,-0.061279297,-0.97857666,0.15496826,-0.703125,-0.296875,-0.21875
1696254752600,-0.064941406,-0.986145,0.15057373,-0.640625,-0.640625,0.265625
1696254752639,-0.057861328,-0.9841919,0.15667725,-0.21875,-0.609375,0.0
1696254752680,-0.07104492,-0.9834595,0.15203857,-0.03125,-0.59375,-0.296875
1696254752718,-0.06518555,-0.9824829,0.14984131,-1.5,-0.609375,-0.28125
1696254752758,-0.05810547,-0.9800415,0.16082764,-0.46875,0.515625,-0.078125
1696254752801,-0.063964844,-0.9793091,0.15887451,-0.359375,0.015625,-0.0625
1696254752839,-0.064941406,-0.9807739,0.15692139,0.234375,-0.203125,-0.109375
1696254752879,-0.064453125,-0.98101807,0.1539917,0.046875,-0.390625,-0.03125
1696254752919,-0.06591797,-0.98883057,0.16400146,0.609375,0.0,0.296875
1696254752959,-0.06347656,-0.9795532,0.1552124,-0.328125,-0.40625,0.125
1696254752999,-0.0715332,-0.9819946,0.15740967,-0.109375,-0.546875,0.125
1696254753039,-0.07128906,-0.9871216,0.1618042,-0.5625,-0.5,0.015625
1696254753080,-0.06982422,-0.9771118,0.16448975,-1.125,-0.3125,-0.15625
1696254753118,-0.07397461,-0.9837036,0.16033936,-0.84375,-0.34375,-0.21875
1696254753161,-0.07080078,-0.9807739,0.15911865,0.15625,-0.25,0.0625
1696254753202,-0.07006836,-0.9807739,0.16082764,-0.40625,-0.625,0.46875
1696254753259,-0.06616211,-0.9800415,0.16082764,0.125,-0.234375,0.28125
1696254753278,-0.07080078,-0.9805298,0.1593628,-0.015625,-0.359375,0.84375
1696254753322,-0.07006836,-0.9780884,0.1593628,-0.953125,-0.578125,0.1875
1696254753361,-0.076660156,-0.98638916,0.1708374,-0.265625,0.296875,0.3125
1696254753402,-0.072509766,-0.9800415,0.17132568,-0.46875,0.109375,0.109375
1696254753440,-0.060058594,-0.9717407,0.16741943,-0.59375,0.21875,0.140625
1696254753479,-0.06542969,-0.98028564,0.16033936,-0.296875,-0.28125,0.34375
1696254753518,-0.064697266,-0.989563,0.16790771,-0.015625,-0.34375,0.328125
1696254753538,-0.06640625,-0.97857666,0.16156006,-0.203125,0.015625,0.21875
1696254753601,-0.059814453,-0.98272705,0.16107178,0.015625,-0.34375,0.328125
1696254753618,-0.06201172,-0.9788208,0.1618042,0.53125,-0.328125,0.390625
1696254753679,-0.064208984,-0.97906494,0.16522217,-0.46875,-0.46875,0.0625
1696254753720,-0.064941406,-0.9768677,0.15789795,-0.265625,-0.171875,0.0625
1696254753739,-0.06323242,-0.9834595,0.15887451,-0.15625,-0.578125,0.34375
1696254753778,-0.055419922,-0.9793091,0.1605835,0.25,-0.703125,0.34375
1696254753819,-0.07104492,-0.98028564,0.16668701,-0.046875,-0.765625,0.25
1696254753859,-0.072265625,-0.9800415,0.15838623,0.046875,-0.4375,0.265625
1696254753920,-0.06298828,-0.98223877,0.15838623,-0.25,0.015625,0.203125
1696254753936,-0.057373047,-0.9780884,0.15692139,-1.328125,-0.140625,-0.03125
1696254753980,-0.0637207,-0.97662354,0.16571045,-0.203125,0.21875,0.203125
1696254754020,-0.075683594,-0.98321533,0.16278076,-0.203125,0.1875,0.109375
1696254754062,-0.07128906,-0.98638916,0.15863037,0.109375,0.109375,-0.140625
1696254754098,-0.068847656,-0.9873657,0.17181396,0.015625,-0.140625,-0.09375
1696254754139,-0.06689453,-0.9771118,0.17010498,-0.234375,0.0,0.0
1696254754179,-0.06640625,-0.97906494,0.15838623,-0.65625,-0.53125,-0.046875
1696254754219,-0.06274414,-0.98638916,0.1630249,0.1875,-0.5625,0.375
1696254754259,-0.07104492,-0.9829712,0.17254639,-0.203125,-0.953125,0.296875
1696254754302,-0.07299805,-0.98101807,0.16815186,0.09375,-0.359375,0.25
1696254754339,-0.075683594,-0.97662354,0.16253662,0.078125,-0.078125,0.3125
1696254754379,-0.06567383,-0.98028564,0.16986084,0.171875,-0.21875,0.1875
1696254754438,-0.07348633,-0.9768677,0.16864014,-0.515625,-0.171875,0.328125
1696254754458,-0.0690918,-0.9768677,0.16107178,-0.4375,-0.46875,0.328125
1696254754498,-0.06274414,-0.9714966,0.16766357,0.234375,-0.21875,0.328125
1696254754559,-0.05908203,-0.98760986,0.16278076,-0.34375,-0.390625,0.265625
1696254754578,-0.072265625,-0.9866333,0.1630249,-1.65625,-0.6875,-0.1875
1696254754640,-0.07104492,-0.97906494,0.16766357,-0.953125,0.078125,0.296875
1696254754658,-0.055419922,-0.97979736,0.17181396,-1.4375,-0.421875,0.5625
1696254754700,-0.060302734,-0.9866333,0.16937256,-1.5,-0.515625,0.5625
1696254754738,-0.068847656,-0.9780884,0.17352295,-0.59375,-0.1875,0.046875
1696254754778,-0.05859375,-0.9871216,0.1708374,0.171875,-0.5,0.578125
1696254754820,-0.053710938,-0.9758911,0.17230225,-0.84375,-0.71875,0.3125
1696254754838,-0.06567383,-0.9817505,0.17401123,0.5,-0.015625,0.546875
1696254754879,-0.060302734,-0.98272705,0.16668701,-0.21875,-0.921875,0.546875
1696254754919,-0.057617188,-0.9824829,0.17108154,-0.796875,-0.796875,0.34375
1696254754958,-0.05859375,-0.9741821,0.17840576,-0.625,-0.59375,0.625
1696254754999,-0.0703125,-0.97979736,0.16546631,0.484375,-0.21875,0.34375
1696254755039,-0.06738281,-0.98223877,0.17449951,0.453125,-0.34375,0.25
1696254755082,-0.068115234,-0.9854126,0.17547607,-0.078125,-0.296875,0.4375
1696254755120,-0.056640625,-0.9795532,0.17059326,0.484375,0.15625,0.1875
1696254755159,-0.064208984,-0.98321533,0.16864014,-0.578125,-0.390625,0.296875
1696254755199,-0.059570312,-0.9849243,0.17401123,-0.59375,0.015625,0.125
1696254755238,-0.067871094,-0.9819946,0.16986084,0.453125,-0.296875,0.375
1696254755278,-0.056396484,-0.9697876,0.17645264,0.34375,-0.453125,0.484375
1696254755320,-0.064697266,-0.97540283,0.17449951,-0.296875,-0.96875,0.28125
1696254755357,-0.06616211,-0.9763794,0.17938232,-1.734375,-0.65625,0.375
1696254755401,-0.06567383,-0.99102783,0.17596436,-1.078125,-0.75,0.671875
1696254755439,-0.05859375,-0.97320557,0.18157959,-1.46875,-0.953125,0.125
1696254755481,-0.060546875,-0.98272705,0.17279053,-1.875,-0.984375,0.203125
1696254755540,-0.064697266,-0.97540283,0.18157959,-1.484375,-0.96875,0.03125
1696254755557,-0.06665039,-0.9890747,0.18231201,-0.328125,-0.625,0.171875
1696254755598,-0.059814453,-0.9841919,0.18304443,-0.078125,-0.5625,0.71875
1696254755640,-0.06616211,-0.972229,0.18450928,-0.0625,-0.78125,0.453125
1696254755678,-0.06933594,-0.9717407,0.18499756,3.0,-0.328125,0.328125
1696254755719,-0.07055664,-0.9981079,0.17181396,7.0625,-0.984375,0.578125
1696254755765,-0.05126953,-0.98150635,0.16278076,2.03125,-1.125,0.0625
1696254755800,-0.0546875,-0.96539307,0.16497803,1.5625,0.15625,0.171875
1696254755841,-0.052978516,-0.9859009,0.15496826,0.640625,-0.75,0.8125
1696254755879,-0.061523438,-0.97735596,0.16156006,-0.71875,-0.953125,0.6875
1696254755918,-0.059570312,-0.9885864,0.17181396,-0.203125,-0.265625,0.421875
1696254755959,-0.060791016,-0.973938,0.16204834,-0.8125,-0.5,0.546875
1696254755998,-0.05126953,-0.98150635,0.15789795,-0.875,-0.90625,0.5
1696254756039,-0.05444336,-0.9849243,0.1564331,0.09375,-0.9375,0.21875
1696254756079,-0.057128906,-0.97442627,0.16741943,-0.578125,-0.265625,-0.078125
1696254756118,-0.06298828,-0.98101807,0.16278076,-0.40625,-0.390625,-0.046875
1696254756139,-0.05444336,-0.9812622,0.1671753,-0.875,-0.546875,0.078125
1696254756179,-0.053955078,-0.97442627,0.17108154,-0.390625,-0.328125,-0.046875
1696254756219,-0.06542969,-0.9846802,0.17303467,-0.453125,-0.3125,-0.25
1696254756260,-0.056396484,-0.9800415,0.16668701,-0.75,-0.28125,-0.34375
1696254756298,-0.061767578,-0.9800415,0.16522217,-0.15625,-0.046875,-0.4375
1696254756338,-0.06640625,-0.9758911,0.17596436,0.375,-0.515625,-0.375
1696254756379,-0.071777344,-0.98443604,0.16790771,0.65625,-0.203125,-0.640625
1696254756418,-0.06201172,-0.98223877,0.16888428,1.15625,0.90625,-0.296875
1696254756460,-0.056152344,-0.9841919,0.16644287,-0.078125,-0.515625,-0.46875
1696254756500,-0.07543945,-0.9788208,0.16156006,-0.28125,-0.8125,-0.140625
1696254756538,-0.07006836,-0.98028564,0.17401123,-0.359375,-0.4375,-0.046875
1696254756600,-0.06982422,-0.97979736,0.17449951,-0.296875,-0.171875,-0.125
1696254756618,-0.067871094,-0.9714966,0.16448975,-1.546875,-1.03125,-0.109375
1696254756682,-0.06933594,-0.98223877,0.17254639,-0.859375,-1.421875,0.09375
1696254756699,-0.05444336,-0.9805298,0.17449951,1.171875,-0.25,0.265625
1696254756737,-0.06274414,-0.98223877,0.16937256,0.375,-0.421875,0.484375
1696254756779,-0.079833984,-0.97735596,0.16448975,0.453125,-1.140625,0.6875
1696254756816,-0.068115234,-0.98638916,0.15863037,0.6875,-0.515625,0.65625
1696254756856,-0.06689453,-0.9805298,0.16864014,0.3125,-0.40625,0.796875
1696254756897,-0.0690918,-0.9837036,0.16326904,0.953125,-0.171875,0.484375
1696254756938,-0.060302734,-0.98565674,0.15911865,0.203125,-0.078125,0.296875
1696254756977,-0.06591797,-0.98394775,0.15618896,0.265625,-0.421875,0.328125
1696254757017,-0.06591797,-0.98272705,0.16375732,0.40625,0.15625,-0.078125
1696254757059,-0.057128906,-0.97369385,0.1671753,0.125,-0.4375,0.0625
1696254757099,-0.060302734,-0.9805298,0.16448975,-0.671875,-0.65625,0.171875
1696254757139,-0.06713867,-0.9807739,0.16107178,-1.140625,-0.640625,-0.0625
1696254757180,-0.06616211,-0.97784424,0.16815186,0.0625,-0.421875,0.40625
1696254757219,-0.064941406,-0.9817505,0.15887451,0.171875,-1.453125,-0.1875
1696254757260,-0.05810547,-0.9812622,0.15814209,-0.296875,-1.015625,0.0625
1696254757300,-0.06567383,-0.98443604,0.16741943,-0.140625,-0.234375,0.46875
1696254757339,-0.0703125,-0.9812622,0.16790771,0.28125,-0.6875,0.375
1696254757378,-0.068115234,-0.9788208,0.15545654,-1.09375,-0.140625,0.0
1696254757419,-0.060302734,-0.98394775,0.16400146,-0.21875,-0.234375,0.3125
1696254757458,-0.064453125,-0.9819946,0.16473389,-0.8125,-1.265625,0.328125
1696254757478,-0.07128906,-0.97491455,0.16937256,-1.328125,-0.53125,0.078125
1696254757541,-0.072753906,-0.9854126,0.15960693,-0.828125,0.046875,-0.015625
1696254757558,-0.06591797,-0.9859009,0.1749878,-0.578125,0.0,0.21875
1696254757599,-0.064453125,-0.9805298,0.17181396,0.0625,-0.5,0.390625
1696254757638,-0.0690918,-0.97198486,0.17327881,-0.28125,-0.265625,0.078125
1696254757678,-0.07324219,-0.9873657,0.1696167,-0.625,-0.6875,0.34375
1696254757718,-0.06689453,-0.9734497,0.16326904,-0.078125,-0.421875,0.0625
1696254757758,-0.057861328,-0.98565674,0.17010498,0.109375,-0.328125,0.390625
1696254757799,-0.06542969,-0.97198486,0.16107178,-1.046875,-0.78125,0.03125
1696254757839,-0.06591797,-0.9902954,0.17474365,-0.171875,-0.171875,0.484375
1696254757877,-0.07080078,-0.9780884,0.17645264,-1.046875,-0.03125,0.28125
1696254757921,-0.068115234,-0.9795532,0.16937256,-1.09375,-0.6875,-0.03125
1696254757961,-0.060791016,-0.9807739,0.17449951,-0.46875,-0.515625,0.40625
1696254758000,-0.067871094,-0.9837036,0.18060303,-0.1875,-0.625,0.421875
1696254758061,-0.06518555,-0.9714966,0.17132568,-0.640625,-0.53125,0.21875
1696254758078,-0.06640625,-0.9758911,0.17181396,0.515625,0.09375,0.453125
1696254758120,-0.056640625,-0.975647,0.17572021,0.546875,-0.671875,0.421875
1696254758181,-0.06616211,-0.9824829,0.17474365,0.09375,-0.515625,0.15625
1696254758200,-0.060791016,-0.9829712,0.17181396,0.203125,-0.40625,0.03125
1696254758262,-0.05834961,-0.9780884,0.17694092,0.1875,-0.265625,0.21875
1696254758279,-0.06567383,-0.9805298,0.17938232,0.09375,-0.328125,0.203125
1696254758321,-0.061523438,-0.9849243,0.16864014,0.015625,-0.125,0.21875
1696254758361,-0.06689453,-0.97320557,0.17352295,-0.109375,-0.21875,0.078125
1696254758400,-0.059570312,-0.98272705,0.1774292,0.140625,-0.40625,0.109375
1696254758440,-0.064453125,-0.98321533,0.17572021,-0.421875,-0.578125,0.296875
1696254758481,-0.06347656,-0.9795532,0.17156982,-0.96875,-0.671875,0.234375
1696254758520,-0.06713867,-0.9812622,0.17010498,-0.6875,-0.828125,0.203125
1696254758559,-0.0625,-0.986145,0.18792725,0.984375,0.078125,0.390625
1696254758599,-0.059570312,-0.9734497,0.17254639,0.375,-0.421875,0.734375
1696254758639,-0.06201172,-0.97540283,0.17010498,-0.125,-0.375,0.421875
1696254758700,-0.06225586,-0.9819946,0.1696167,-0.859375,-0.5625,0.078125
1696254758719,-0.06298828,-0.98028564,0.18109131,-0.234375,-0.203125,0.671875
1696254758781,-0.06713867,-0.97369385,0.17279053,-0.75,-0.640625,0.046875
1696254758785,-0.06567383,-0.98028564,0.17816162,-0.59375,0.015625,0.03125
1696254758819,-0.061767578,-0.9841919,0.18011475,-1.53125,0.078125,-0.046875
1696254758900,-0.0637207,-0.9807739,0.1774292,-0.828125,-0.25,0.265625
1696254758903,-0.056396484,-0.9678345,0.17572021,-1.609375,-0.765625,-0.03125
1696254758939,-0.06518555,-0.9793091,0.18035889,-1.625,-0.8125,0.171875
1696254758980,-0.06201172,-0.9819946,0.18963623,-2.15625,-0.65625,0.265625
1696254759018,-0.056884766,-0.9727173,0.19354248,-2.734375,-0.453125,0.40625
1696254759059,-0.0703125,-0.9829712,0.18231201,-0.5,-0.75,0.1875
1696254759099,-0.06738281,-0.9805298,0.19158936,-0.484375,-0.265625,0.515625
1696254759138,-0.0637207,-0.9783325,0.1942749,-0.84375,-0.25,0.5
1696254759180,-0.056152344,-0.97613525,0.19354248,-0.90625,-0.328125,0.28125
1696254759218,-0.064697266,-0.9793091,0.18841553,-0.953125,-0.515625,0.265625
1696254759258,-0.061279297,-0.98028564,0.19622803,-0.515625,-0.65625,0.375
1696254759297,-0.061523438,-0.9805298,0.19793701,-1.171875,-0.328125,0.109375
1696254759337,-0.06689453,-0.9807739,0.19451904,-0.78125,-0.625,0.140625
1696254759378,-0.07080078,-0.9727173,0.20013428,-0.1875,-0.6875,0.1875
1696254759419,-0.061767578,-0.9837036,0.19281006,-0.828125,-0.828125,0.125
1696254759459,-0.06298828,-0.9746704,0.20233154,-0.71875,-1.140625,0.296875
1696254759500,-0.072265625,-0.97857666,0.20111084,0.015625,-0.828125,0.140625
1696254759539,-0.05859375,-0.97369385,0.2020874,-0.0625,-0.65625,0.1875
1696254759579,-0.057373047,-0.9776001,0.2086792,-0.40625,-0.875,0.125
1696254759619,-0.061523438,-0.97662354,0.19940186,-0.765625,-1.40625,0.171875
1696254759658,-0.06298828,-0.972229,0.20721436,0.140625,-0.5,0.4375
1696254759721,-0.076171875,-0.96954346,0.1984253,1.640625,-0.59375,0.421875
1696254759739,-0.061279297,-0.97369385,0.19134521,1.0625,-0.484375,0.71875
1696254759780,-0.057617188,-0.9793091,0.20452881,0.890625,-1.203125,0.5625
1696254759821,-0.060058594,-0.97320557,0.1942749,0.640625,-0.921875,0.78125
1696254759860,-0.06298828,-0.9602661,0.19354248,0.5,-0.40625,0.3125
1696254759898,-0.059326172,-0.986145,0.19476318,1.15625,-0.25,0.5625
1696254759939,-0.061523438,-0.97979736,0.19525146,0.5625,-0.46875,0.328125
1696254759978,-0.05908203,-0.9768677,0.19134521,0.3125,-0.890625,0.34375
1696254760019,-0.057373047,-0.97491455,0.18939209,0.984375,-1.15625,0.578125
1696254760100,-0.06323242,-0.973938,0.1918335,0.296875,-1.234375,0.546875
1696254760103,-0.063964844,-0.9763794,0.18743896,0.140625,-1.171875,0.40625
1696254760137,-0.059814453,-0.9734497,0.19281006,0.578125,-0.671875,0.453125
1696254760158,-0.0637207,-0.975647,0.18841553,-0.015625,-1.125,0.296875
1696254760219,-0.063964844,-0.9702759,0.17596436,1.125,-1.046875,-0.078125
1696254760238,-0.063964844,-0.9829712,0.1930542,2.625,-0.484375,0.046875
1696254760300,-0.06567383,-0.9795532,0.18377686,1.03125,-1.015625,0.234375
1696254760340,-0.052246094,-0.9758911,0.17669678,-0.0625,-0.6875,0.078125
1696254760381,-0.0637207,-0.973938,0.18988037,0.359375,-1.296875,0.296875
1696254760398,-0.057861328,-0.97491455,0.17230225,-0.234375,-0.921875,0.140625
1696254760463,-0.056884766,-0.9783325,0.18255615,-0.203125,0.078125,0.1875
1696254760501,-0.06567383,-0.9795532,0.184021,-0.203125,-0.375,0.1875
1696254760518,-0.06298828,-0.97442627,0.17962646,-0.625,-0.1875,0.078125
1696254760559,-0.053710938,-0.9771118,0.18231201,-0.15625,-0.046875,0.203125
1696254760598,-0.064697266,-0.9805298,0.1798706,-0.265625,-0.265625,-0.046875
1696254760639,-0.061767578,-0.9788208,0.18084717,-0.6875,-0.3125,0.078125
1696254760678,-0.053466797,-0.97857666,0.18157959,-0.59375,-0.34375,-0.265625
1696254760719,-0.052490234,-0.97540283,0.18231201,-0.453125,-0.75,0.1875
1696254760759,-0.057861328,-0.97491455,0.18084717,-0.140625,-0.640625,0.0625
1696254760799,-0.061523438,-0.9819946,0.1876831,0.265625,-0.25,0.359375
1696254760840,-0.053466797,-0.9783325,0.17840576,0.609375,-0.453125,0.03125
1696254760900,-0.05493164,-0.9751587,0.18060303,0.46875,0.09375,0.03125
1696254760940,-0.06518555,-0.98101807,0.17474365,0.546875,-0.34375,0.0
1696254760957,-0.06225586,-0.97906494,0.18255615,0.40625,-0.09375,0.125
1696254760998,-0.0703125,-0.97540283,0.18304443,-0.28125,-0.71875,0.078125
1696254761038,-0.06567383,-0.9793091,0.17352295,-0.53125,-0.578125,-0.1875
1696254761080,-0.07006836,-0.98223877,0.18695068,-0.390625,-0.828125,-0.234375
1696254761119,-0.063964844,-0.97735596,0.18572998,-0.140625,-0.796875,-0.1875
1696254761158,-0.06616211,-0.9812622,0.17816162,0.78125,-0.59375,0.015625
1696254761201,-0.068115234,-0.9741821,0.1798706,0.234375,-0.546875,-0.0625
1696254761262,-0.0625,-0.97662354,0.17889404,0.5,-0.3125,0.1875
1696254761280,-0.07006836,-0.9758911,0.17962646,1.25,-0.46875,-0.0625
1696254761320,-0.06689453,-0.9783325,0.1786499,0.515625,-0.65625,0.234375
1696254761362,-0.059814453,-0.9846802,0.17449951,0.28125,-0.078125,-0.15625
1696254761400,-0.07470703,-0.98272705,0.17425537,-0.15625,-0.25,-0.046875
1696254761418,-0.061279297,-0.9768677,0.17938232,0.375,0.359375,0.3125
1696254761459,-0.064697266,-0.97442627,0.17694092,-0.359375,-0.671875,0.03125
1696254761501,-0.072753906,-0.9805298,0.18109131,-0.375,-0.640625,0.09375
1696254761538,-0.060791016,-0.9783325,0.18328857,-1.265625,-0.296875,0.046875
1696254761579,-0.07080078,-0.97857666,0.18084717,-0.71875,-0.453125,0.359375
1696254761618,-0.059326172,-0.98516846,0.18231201,1.09375,-0.5625,0.453125
1696254761661,-0.06567383,-0.9727173,0.17401123,0.015625,-0.28125,0.328125
1696254761699,-0.06982422,-0.9771118,0.17938232,1.09375,-0.6875,0.375
1696254761741,-0.06298828,-0.98883057,0.16912842,0.734375,-0.84375,0.21875
1696254761801,-0.063964844,-0.9783325,0.1852417,-0.703125,-0.703125,0.203125
1696254761817,-0.0703125,-0.9805298,0.18328857,-0.96875,-0.890625,0.015625
1696254761881,-0.06567383,-0.9829712,0.1786499,-0.28125,-0.1875,-0.015625
1696254761898,-0.059814453,-0.9837036,0.18133545,-0.21875,-0.546875,0.109375
1696254761960,-0.06738281,-0.9776001,0.18157959,0.296875,-0.21875,0.171875
1696254761981,-0.072021484,-0.9795532,0.17596436,0.5,-0.484375,0.25
1696254762018,-0.068603516,-0.9771118,0.18255615,0.015625,-0.203125,0.09375
1696254762059,-0.0637207,-0.97613525,0.18206787,0.140625,-0.453125,0.40625
1696254762099,-0.064941406,-0.9817505,0.17889404,0.15625,-0.5,0.25
1696254762139,-0.06616211,-0.98394775,0.18353271,0.328125,-0.421875,0.203125
1696254762180,-0.0690918,-0.972229,0.17352295,0.390625,-0.40625,0.359375
1696254762219,-0.064453125,-0.9776001,0.17474365,0.109375,-0.390625,0.296875
1696254762284,-0.06982422,-0.98272705,0.17694092,0.25,-0.296875,0.375
1696254762298,-0.061279297,-0.98101807,0.17254639,0.359375,-0.390625,0.125
1696254762339,-0.06591797,-0.97857666,0.17303467,0.109375,-0.28125,0.21875
1696254762380,-0.06567383,-0.9807739,0.16693115,-0.78125,-0.6875,-0.375
1696254762418,-0.06201172,-0.9873657,0.17669678,-0.515625,-0.109375,0.28125
1696254762481,-0.06640625,-0.9817505,0.17913818,-0.3125,-0.375,0.078125
1696254762499,-0.06738281,-0.9763794,0.18011475,-0.6875,-0.3125,0.046875
1696254762539,-0.06713867,-0.9817505,0.17718506,-0.75,-0.421875,0.125
1696254762602,-0.07104492,-0.98272705,0.18182373,-0.25,-0.25,0.078125
1696254762616,-0.06640625,-0.9746704,0.18060303,-1.625,-0.65625,-0.0625
1696254762682,-0.06689453,-0.97247314,0.17108154,-0.703125,-1.109375,-0.21875
1696254762698,-0.063964844,-0.98516846,0.18109131,0.65625,-0.4375,0.515625
1696254762719,-0.06762695,-0.97442627,0.18792725,0.34375,-0.375,0.671875
1696254762760,-0.067871094,-0.97857666,0.17181396,0.125,-0.34375,0.46875
1696254762799,-0.061523438,-0.9795532,0.17596436,0.828125,-0.21875,0.34375
1696254762840,-0.06713867,-0.9829712,0.1798706,0.40625,-0.515625,0.421875
1696254762878,-0.06713867,-0.98443604,0.17938232,0.140625,-0.09375,0.390625
1696254762919,-0.06762695,-0.9729614,0.17108154,0.671875,0.734375,0.359375
1696254762961,-0.06689453,-0.9793091,0.17913818,0.453125,-0.34375,0.4375
1696254762999,-0.059570312,-0.9780884,0.18011475,-0.125,-0.71875,0.328125
1696254763040,-0.06518555,-0.9741821,0.17767334,0.046875,-0.84375,0.328125
1696254763079,-0.072265625,-0.98028564,0.17645264,-0.328125,-0.640625,0.171875
1696254763120,-0.064941406,-0.9837036,0.1749878,0.265625,0.203125,0.203125
1696254763157,-0.05883789,-0.9751587,0.1762085,0.4375,-0.328125,0.21875
1696254763199,-0.06933594,-0.97784424,0.1749878,-0.046875,-0.265625,0.25
1696254763240,-0.06640625,-0.9824829,0.18353271,0.21875,-0.296875,0.375
1696254763280,-0.06274414,-0.97735596,0.17327881,0.203125,-0.5,0.390625
1696254763321,-0.064453125,-0.973938,0.17547607,0.78125,-0.109375,0.40625
1696254763361,-0.061279297,-0.9824829,0.17352295,-0.140625,-0.3125,0.125
1696254763399,-0.061035156,-0.98516846,0.17840576,1.125,0.90625,0.859375
1696254763439,-0.060546875,-0.97540283,0.17034912,0.625,-0.46875,0.6875
1696254763479,-0.061035156,-0.97906494,0.1708374,1.671875,0.59375,0.484375
1696254763521,-0.056396484,-0.98638916,0.16473389,1.890625,0.359375,0.734375
1696254763562,-0.053222656,-0.9841919,0.16229248,1.96875,-0.125,1.046875
1696254763598,-0.060791016,-0.9817505,0.16668701,1.375,-0.515625,0.953125
1696254763637,-0.06298828,-0.9807739,0.15545654,0.875,-0.484375,0.453125
1696254763679,-0.053955078,-0.9805298,0.1642456,0.28125,-0.59375,0.703125
1696254763719,-0.055664062,-0.987854,0.15740967,1.09375,-0.515625,0.78125
1696254763759,-0.05517578,-0.987854,0.16448975,-0.421875,-0.09375,0.53125
1696254763799,-0.0637207,-0.98150635,0.16278076,-0.359375,-0.296875,0.578125
1696254763838,-0.051757812,-0.9795532,0.15911865,-1.703125,-1.453125,0.59375
1696254763879,-0.04711914,-0.9788208,0.16448975,-1.453125,-1.484375,-0.109375
1696254763918,-0.045410156,-0.9805298,0.15325928,0.53125,0.203125,0.21875
1696254763959,-0.05419922,-0.98101807,0.15911865,1.25,-1.171875,0.578125
1696254763999,-0.051513672,-0.98321533,0.15496826,3.28125,-0.09375,0.953125
1696254764037,-0.060302734,-0.9812622,0.15887451,1.59375,-0.28125,0.484375
1696254764058,-0.060058594,-0.9788208,0.1515503,1.609375,0.390625,0.453125
1696254764098,-0.048095703,-0.9800415,0.15203857,1.15625,-0.171875,0.21875
1696254764138,-0.052490234,-0.98272705,0.1461792,0.578125,-0.421875,-0.015625
1696254764178,-0.047851562,-0.986145,0.14788818,0.3125,0.5,0.0625
1696254764218,-0.040283203,-0.9841919,0.1539917,0.171875,-0.046875,0.296875
1696254764258,-0.039794922,-0.9800415,0.13494873,0.84375,-0.921875,0.28125
1696254764300,-0.05444336,-0.9873657,0.14813232,0.46875,-1.15625,0.25
1696254764339,-0.06665039,-0.9902954,0.15252686,-1.0,-0.859375,0.125
1696254764378,-0.053710938,-0.97857666,0.14154053,-0.96875,-1.15625,0.109375
1696254764417,-0.048339844,-0.9819946,0.15203857,-1.296875,-1.109375,-0.015625
1696254764479,-0.055419922,-0.9805298,0.15008545,-1.8125,-1.09375,0.203125
1696254764498,-0.0625,-0.9871216,0.14910889,-3.09375,-0.609375,0.1875
1696254764561,-0.05078125,-0.9800415,0.16082764,-2.109375,-0.4375,-0.171875
1696254764578,-0.055419922,-0.9854126,0.16522217,-1.640625,-0.625,-0.125
1696254764618,-0.056152344,-0.97076416,0.16644287,-2.46875,-1.09375,-0.109375
1696254764682,-0.052490234,-0.9841919,0.1696167,-1.046875,-0.515625,0.0
1696254764698,-0.06665039,-0.98394775,0.1671753,-1.0625,-0.734375,-0.03125
1696254764744,-0.06616211,-0.9741821,0.1749878,-1.265625,-0.40625,-0.0625
1696254764779,-0.056884766,-0.972229,0.17132568,0.28125,-0.21875,0.109375
1696254764841,-0.059570312,-0.9793091,0.17889404,2.109375,0.171875,0.28125
1696254764880,-0.06713867,-0.9824829,0.16204834,5.203125,-0.171875,0.765625
1696254764897,-0.052001953,-0.9841919,0.1383667,2.40625,0.0,0.625
1696254764938,-0.053710938,-0.9627075,0.16033936,1.515625,-0.125,0.65625
1696254764978,-0.057373047,-0.99224854,0.1473999,0.84375,-0.765625,0.203125
1696254765019,-0.052246094,-0.97125244,0.15838623,-0.90625,-1.203125,-0.375
1696254765058,-0.06347656,-0.9819946,0.15863037,0.359375,-0.15625,0.1875
1696254765098,-0.056396484,-0.98883057,0.14959717,-0.25,0.171875,0.265625
1696254765139,-0.055908203,-0.97540283,0.14788818,0.765625,0.3125,0.15625
1696254765180,-0.060058594,-0.9812622,0.1486206,-0.15625,0.40625,-0.265625
1696254765240,-0.05810547,-0.9902954,0.16790771,-0.75,0.34375,0.25
1696254765282,-0.05419922,-0.9795532,0.14788818,-0.03125,-0.53125,-0.296875
1696254765319,-0.049804688,-0.98028564,0.14910889,0.34375,0.140625,-0.1875
1696254765338,-0.049072266,-0.98394775,0.15570068,0.34375,-0.28125,0.28125
1696254765359,-0.059570312,-0.9920044,0.15179443,0.140625,0.0,0.40625
1696254765397,-0.060546875,-0.98150635,0.1515503,0.046875,-0.359375,0.0
1696254765438,-0.057373047,-0.98150635,0.15228271,0.703125,-0.203125,0.453125
1696254765478,-0.055908203,-0.9834595,0.14715576,1.171875,-0.3125,0.125
1696254765520,-0.052001953,-0.97979736,0.15203857,0.828125,-0.5625,0.0625
1696254765559,-0.05493164,-0.9837036,0.14544678,1.015625,-0.40625,0.546875
1696254765600,-0.049804688,-0.9795532,0.14276123,-0.3125,-0.53125,0.03125
1696254765641,-0.048095703,-0.97979736,0.14910889,-0.578125,-1.0,0.421875
1696254765680,-0.050048828,-0.9805298,0.14593506,0.28125,-1.53125,0.5
1696254765719,-0.04736328,-0.9981079,0.14227295,0.125,0.265625,-0.125
1696254765759,-0.061279297,-0.9741821,0.15374756,0.171875,-0.046875,-0.234375
1696254765800,-0.05883789,-0.9834595,0.14715576,0.140625,-0.125,-0.53125
1696254765839,-0.052490234,-0.9824829,0.13812256,-0.421875,0.03125,-0.484375
1696254765879,-0.040039062,-0.97442627,0.1486206,-0.984375,-0.53125,-0.125
1696254765918,-0.061523438,-0.9795532,0.15570068,0.796875,-0.796875,0.484375
1696254765957,-0.07739258,-0.9963989,0.15057373,0.609375,-0.890625,1.234375
1696254765997,-0.064208984,-0.9849243,0.14813232,1.03125,0.9375,0.078125
1696254766036,-0.04711914,-0.97491455,0.14105225,0.828125,0.8125,0.09375
1696254766077,-0.052734375,-0.99224854,0.1437378,1.390625,-0.390625,0.3125
1696254766117,-0.05810547,-0.9920044,0.14300537,1.609375,-0.015625,0.21875
1696254766157,-0.07470703,-0.9907837,0.13861084,0.390625,-0.28125,0.59375
1696254766198,-0.05419922,-0.98150635,0.1239624,0.25,0.4375,0.125
1696254766238,-0.039794922,-0.9656372,0.13494873,1.3125,0.0625,0.4375
1696254766278,-0.053222656,-0.99468994,0.13275146,0.953125,-1.109375,2.109375
1696254766319,-0.05517578,-0.98150635,0.14129639,0.28125,-1.140625,1.265625
1696254766357,-0.055908203,-0.98223877,0.12615967,0.4375,0.25,0.703125
1696254766398,-0.044189453,-0.9795532,0.13250732,1.046875,0.359375,0.75
1696254766438,-0.045166016,-0.9849243,0.13153076,0.453125,-0.734375,1.15625
1696254766479,-0.049560547,-0.98638916,0.12786865,-0.5625,-0.671875,0.609375
1696254766519,-0.057617188,-0.98443604,0.12957764,0.046875,-0.203125,0.375
1696254766559,-0.05517578,-0.987854,0.13031006,-0.015625,-0.21875,0.328125
1696254766598,-0.03955078,-0.98028564,0.1305542,0.078125,-0.484375,0.0625
1696254766639,-0.041748047,-0.9859009,0.13128662,-0.3125,-0.296875,0.203125
1696254766657,-0.047851562,-0.9854126,0.12957764,0.125,-0.953125,0.046875
1696254766698,-0.044433594,-0.9898071,0.12713623,0.578125,-0.109375,0.140625
1696254766740,-0.037597656,-0.9859009,0.12982178,0.828125,0.046875,0.34375
1696254766800,-0.0390625,-0.9859009,0.12664795,0.359375,-0.90625,0.171875
1696254766837,-0.050048828,-0.9824829,0.12762451,0.015625,-0.6875,0.09375
1696254766857,-0.049804688,-0.9902954,0.12176514,-0.296875,-0.34375,0.1875
1696254766898,-0.04248047,-0.97857666,0.13201904,-0.546875,-0.546875,0.125
1696254766958,-0.051513672,-0.9849243,0.1359253,-0.4375,-0.671875,0.5
1696254766977,-0.055419922,-0.9834595,0.13519287,-0.53125,-0.75,-0.109375
1696254767018,-0.051757812,-0.98565674,0.1359253,-0.75,-0.59375,-0.0625
1696254767058,-0.044433594,-0.97906494,0.13104248,-1.28125,-0.296875,-0.015625
1696254767098,-0.041992188,-0.9783325,0.13519287,-0.5625,-0.859375,0.15625
1696254767138,-0.056152344,-0.9819946,0.13983154,-0.84375,-0.953125,0.171875
1696254767178,-0.059814453,-0.98150635,0.13739014,-0.578125,-0.328125,-0.078125
1696254767218,-0.052734375,-0.98809814,0.13983154,-0.453125,0.109375,-0.09375
1696254767259,-0.045166016,-0.98272705,0.13934326,-0.078125,-0.859375,0.015625
1696254767298,-0.056640625,-0.9846802,0.14202881,-0.421875,-0.671875,0.515625
1696254767337,-0.055419922,-0.98272705,0.13323975,-0.875,-0.140625,-0.03125
1696254767377,-0.04663086,-0.98321533,0.14300537,0.109375,-0.21875,0.40625
1696254767417,-0.049560547,-0.9795532,0.14349365,0.09375,-0.359375,0.296875
1696254767478,-0.052490234,-0.9885864,0.13568115,-0.140625,-0.140625,0.375
1696254767497,-0.04663086,-0.98443604,0.13787842,-0.265625,-0.234375,0.46875
1696254767537,-0.04296875,-0.98687744,0.13812256,0.015625,-0.46875,0.328125
1696254767598,-0.05078125,-0.98443604,0.1395874,-0.578125,-0.546875,0.5
1696254767618,-0.049316406,-0.9793091,0.13494873,-0.515625,-0.671875,0.453125
1696254767657,-0.05078125,-0.987854,0.13568115,0.125,-0.546875,0.734375
1696254767718,-0.05126953,-0.98394775,0.1408081,0.140625,-0.578125,0.4375
1696254767737,-0.050048828,-0.98150635,0.14276123,0.03125,-0.65625,0.515625
1696254767777,-0.049072266,-0.9788208,0.13763428,-0.234375,-0.703125,0.3125
1696254767818,-0.056152344,-0.9829712,0.14398193,-0.25,-0.546875,0.296875
1696254767859,-0.05126953,-0.98516846,0.14251709,-0.015625,-1.078125,0.125
1696254767900,-0.041503906,-0.9841919,0.14544678,0.359375,-0.859375,0.0625
1696254767938,-0.044433594,-0.9837036,0.13861084,0.90625,-0.25,0.484375
1696254767979,-0.04663086,-0.97613525,0.13421631,-0.4375,-0.578125,0.3125
1696254767998,-0.04638672,-0.9907837,0.13934326,-0.40625,-0.671875,0.734375
1696254768041,-0.03955078,-0.9885864,0.1437378,-0.6875,-0.671875,0.625
1696254768080,-0.048339844,-0.97857666,0.1449585,-1.515625,-1.234375,0.46875
1696254768120,-0.045898438,-0.98931885,0.14227295,-2.265625,-1.328125,0.515625
1696254768162,-0.04321289,-0.9807739,0.14666748,-1.671875,-0.8125,0.359375
1696254768199,-0.04296875,-0.9807739,0.14666748,0.09375,-0.296875,0.328125
1696254768239,-0.05126953,-0.9807739,0.14251709,-0.75,-0.625,0.265625
1696254768279,-0.044433594,-0.9807739,0.14837646,0.671875,-0.828125,0.71875
1696254768319,-0.048828125,-0.9758911,0.13909912,3.625,-1.5625,0.015625
1696254768358,-0.047607422,-0.9949341,0.13201904,4.40625,-1.546875,0.28125
1696254768399,-0.037109375,-0.9805298,0.14178467,2.65625,-0.375,0.484375
1696254768440,-0.046142578,-0.9873657,0.12982178,1.203125,-0.671875,0.46875
1696254768480,-0.041503906,-0.9819946,0.13739014,-0.21875,0.171875,0.09375
1696254768520,-0.05053711,-0.98223877,0.12689209,-0.234375,-0.046875,0.140625
1696254768558,-0.044189453,-0.989563,0.1317749,-1.4375,-0.078125,-0.21875
1696254768620,-0.036621094,-0.98516846,0.13787842,-2.125,0.359375,-0.296875
1696254768638,-0.041748047,-0.9805298,0.13446045,-2.6875,-0.1875,-0.046875
1696254768680,-0.043945312,-0.9859009,0.14276123,-2.6875,-0.78125,0.453125
1696254768720,-0.04272461,-0.9859009,0.14764404,-2.359375,-0.34375,-0.078125
1696254768759,-0.04345703,-0.9807739,0.13885498,-1.25,-1.09375,-0.25
1696254768800,-0.037109375,-0.9859009,0.1539917,-1.234375,-1.015625,-0.46875
1696254768839,-0.052978516,-0.98101807,0.15496826,-1.234375,-1.59375,0.109375
1696254768878,-0.056152344,-0.98516846,0.15081787,-1.8125,-1.078125,0.015625
1696254768924,-0.05444336,-0.9729614,0.14886475,-2.171875,-0.515625,0.078125
1696254768960,-0.04272461,-0.98101807,0.1515503,-1.015625,-0.953125,0.453125
1696254768999,-0.05444336,-0.9793091,0.16131592,-1.140625,-1.078125,0.296875
1696254769039,-0.057617188,-0.9819946,0.15570068,-1.0625,-0.828125,0.5
1696254769079,-0.04272461,-0.9846802,0.15594482,-0.515625,-0.28125,0.296875
1696254769118,-0.04296875,-0.9805298,0.16033936,-0.171875,-1.15625,0.375
1696254769160,-0.04345703,-0.972229,0.16619873,-0.5,-0.96875,0.234375
1696254769198,-0.051757812,-0.9837036,0.16204834,-0.625,-0.859375,0.34375
1696254769241,-0.03930664,-0.97979736,0.16375732,0.1875,-0.1875,0.0625
1696254769301,-0.05029297,-0.9807739,0.1593628,0.015625,-0.75,0.03125
1696254769307,-0.05834961,-0.9746704,0.16400146,1.078125,-0.6875,0.078125
1696254769340,-0.05078125,-0.98223877,0.15203857,0.625,0.25,0.109375
1696254769422,-0.045898438,-0.98223877,0.16595459,0.0625,0.015625,-0.015625
1696254769425,-0.04345703,-0.9829712,0.15301514,-0.0625,-0.15625,-0.34375
1696254769461,-0.043701172,-0.97662354,0.15545654,-0.875,-0.4375,-0.203125
1696254769500,-0.05444336,-0.98809814,0.15985107,-0.71875,-0.53125,0.078125
1696254769540,-0.03930664,-0.9837036,0.16156006,0.03125,-0.09375,-0.0625
1696254769602,-0.04345703,-0.972229,0.15814209,0.0,-0.4375,-0.25
1696254769620,-0.047607422,-0.97857666,0.16278076,0.0,-0.796875,0.234375
1696254769681,-0.053710938,-0.9793091,0.16107178,-0.140625,-0.5,0.421875
1696254769699,-0.046875,-0.9819946,0.15496826,0.265625,0.25,0.3125
1696254769738,-0.049804688,-0.9795532,0.16400146,0.625,-0.578125,0.140625
1696254769800,-0.05419922,-0.9805298,0.16009521,0.1875,-0.484375,-0.078125
1696254769820,-0.05444336,-0.98443604,0.152771,0.078125,-0.296875,-0.375
1696254769859,-0.04663086,-0.9834595,0.15203857,-0.25,-0.328125,-0.28125
1696254769900,-0.046875,-0.975647,0.16082764,-0.203125,-0.328125,-0.5625
1696254769941,-0.055419922,-0.99102783,0.1539917,-0.0625,-0.328125,-0.359375
1696254769978,-0.04638672,-0.9837036,0.1593628,-0.34375,-0.546875,0.234375
1696254770040,-0.048095703,-0.9758911,0.15863037,-0.375,-0.484375,0.25
1696254770061,-0.04711914,-0.97784424,0.15350342,0.296875,-1.390625,0.1875
1696254770098,-0.041015625,-0.98516846,0.15911865,0.109375,-0.984375,0.609375
1696254770140,-0.0637207,-0.97979736,0.16473389,-0.1875,-0.640625,0.34375
1696254770180,-0.0637207,-0.97857666,0.15081787,-0.09375,0.078125,0.125
1696254770222,-0.05834961,-0.97076416,0.16009521,-0.53125,-0.046875,0.234375
1696254770260,-0.052978516,-0.97613525,0.17327881,1.0625,0.453125,-0.046875
1696254770299,-0.059814453,-0.9854126,0.1630249,-0.875,0.984375,0.03125
1696254770340,-0.05126953,-0.9817505,0.14813232,-0.1875,0.53125,-0.140625
1696254770399,-0.038085938,-0.9702759,0.15301514,0.640625,-0.203125,-0.328125
1696254770437,-0.045654297,-0.98516846,0.1630249,1.046875,-0.34375,0.203125
1696254770459,-0.061035156,-0.989563,0.14813232,0.328125,-0.1875,-0.046875
1696254770498,-0.056640625,-0.98883057,0.14788818,1.9375,0.46875,0.28125
1696254770539,-0.039794922,-0.9788208,0.1539917,1.640625,0.015625,0.59375
1696254770600,-0.048583984,-0.98638916,0.1486206,0.96875,-0.34375,0.421875
1696254770601,-0.053710938,-0.991272,0.15374756,-0.640625,-1.015625,0.484375
1696254770641,-0.056640625,-0.9898071,0.14886475,-0.203125,-0.765625,0.21875
1696254770679,-0.049560547,-0.9824829,0.15692139,-1.203125,-0.21875,0.328125
1696254770721,-0.052490234,-0.98028564,0.14691162,-0.21875,-0.625,-0.203125
1696254770759,-0.05859375,-0.9841919,0.16400146,1.46875,0.765625,0.140625
1696254770798,-0.057128906,-0.9837036,0.15301514,-0.84375,0.515625,0.15625
1696254770841,-0.048583984,-0.9788208,0.13690186,-0.015625,-0.03125,-0.265625
1696254770878,-0.04345703,-0.9793091,0.14715576,0.25,-0.84375,0.203125
1696254770919,-0.051513672,-0.9812622,0.15911865,-0.03125,-0.921875,0.234375
1696254770960,-0.06567383,-0.9812622,0.1486206,0.015625,-0.359375,0.1875
1696254771000,-0.046142578,-0.98028564,0.15203857,0.03125,-0.109375,0.015625
1696254771039,-0.04321289,-0.97613525,0.14984131,-0.03125,0.03125,0.359375
1696254771079,-0.051513672,-0.9788208,0.15032959,0.3125,-0.796875,0.34375
1696254771119,-0.060546875,-0.98394775,0.1539917,-0.25,-0.953125,0.421875
1696254771163,-0.05908203,-0.9885864,0.15472412,-0.765625,-1.046875,0.328125
1696254771198,-0.044921875,-0.98101807,0.14666748,0.125,-0.21875,0.015625
1696254771241,-0.045654297,-0.98394775,0.15301514,0.40625,-0.90625,0.296875
1696254771282,-0.053466797,-0.98687744,0.1473999,-0.484375,-0.671875,-0.078125
1696254771320,-0.055664062,-0.97491455,0.14788818,-0.421875,-0.140625,0.46875
1696254771359,-0.051757812,-0.9817505,0.14935303,0.078125,0.015625,0.4375
1696254771401,-0.051757812,-0.98101807,0.14935303,-0.046875,-0.625,0.046875
1696254771442,-0.056884766,-0.98687744,0.14544678,0.03125,-0.34375,0.25
1696254771479,-0.055664062,-0.98321533,0.14959717,-0.046875,-0.484375,0.125
1696254771519,-0.05029297,-0.97784424,0.152771,0.078125,-0.484375,0.1875
1696254771560,-0.049560547,-0.973938,0.15228271,0.0,-0.1875,-0.046875
1696254771599,-0.04736328,-0.98443604,0.15325928,-0.359375,-0.328125,0.546875
1696254771641,-0.053955078,-0.99005127,0.1618042,-2.578125,-0.234375,0.546875
1696254771680,-0.05102539,-0.975647,0.14984131,-3.5,0.3125,0.234375
1696254771718,-0.041503906,-0.9788208,0.1473999,-1.328125,-0.5625,0.1875
1696254771759,-0.055419922,-0.98101807,0.16815186,-1.71875,-0.921875,0.40625
1696254771801,-0.059570312,-0.97979736,0.16448975,-2.28125,-0.546875,0.453125
1696254771840,-0.048339844,-0.97979736,0.16619873,-2.59375,-0.40625,0.296875
1696254771885,-0.052001953,-0.9717407,0.16766357,-1.859375,-0.265625,0.59375
1696254771919,-0.047851562,-0.98394775,0.1720581,-1.453125,-0.546875,0.546875
1696254771939,-0.05078125,-0.9849243,0.17181396,-0.390625,-0.859375,0.203125
1696254771979,-0.05419922,-0.9741821,0.17327881,-0.125,-0.5,0.1875
1696254772019,-0.05102539,-0.97906494,0.18084717,-0.15625,-0.859375,0.46875
1696254772083,-0.045898438,-0.9771118,0.16912842,-0.40625,-0.546875,0.28125
1696254772098,-0.051513672,-0.9751587,0.17791748,-0.84375,-0.640625,0.453125
1696254772139,-0.04321289,-0.97906494,0.1774292,-1.28125,-0.609375,0.09375
1696254772200,-0.055419922,-0.9834595,0.1798706,-0.109375,-0.375,0.484375
1696254772219,-0.046875,-0.98223877,0.17816162,-0.375,-0.375,0.296875
1696254772261,-0.04736328,-0.9780884,0.17913818,-0.109375,-0.921875,0.046875
1696254772301,-0.05102539,-0.97906494,0.17303467,0.0625,-0.78125,0.234375
1696254772342,-0.055908203,-0.99102783,0.1774292,0.84375,-0.40625,0.046875
1696254772379,-0.048583984,-0.975647,0.17547607,-0.328125,-0.46875,-0.109375
1696254772420,-0.048828125,-0.9771118,0.17425537,-0.234375,-0.265625,-0.09375
1696254772459,-0.049804688,-0.9871216,0.17449951,-0.4375,-0.890625,0.34375
1696254772498,-0.05029297,-0.98101807,0.17254639,-0.53125,-0.234375,0.296875
1696254772538,-0.04321289,-0.97442627,0.16888428,-0.125,-0.640625,0.1875
1696254772599,-0.053466797,-0.97613525,0.18035889,-0.1875,-0.65625,0.5
1696254772618,-0.048828125,-0.9841919,0.18035889,-0.234375,-1.109375,0.234375
1696254772659,-0.049560547,-0.9805298,0.1762085,0.03125,-0.46875,0.125
1696254772704,-0.04638672,-0.9805298,0.17767334,-0.140625,-0.96875,0.25
1696254772762,-0.05078125,-0.9817505,0.17767334,-0.5,-0.546875,0.21875
1696254772778,-0.04736328,-0.9805298,0.17572021,0.0625,-0.421875,0.109375
1696254772840,-0.04638672,-0.97540283,0.17449951,-0.96875,-0.5,0.1875
1696254772881,-0.060058594,-0.97906494,0.18377686,-0.203125,-0.21875,0.53125
1696254772898,-0.05126953,-0.98223877,0.17767334,1.0,0.109375,0.078125
1696254772939,-0.045410156,-0.98028564,0.18231201,0.453125,0.078125,-0.03125
1696254772984,-0.044433594,-0.972229,0.17254639,0.171875,-0.5,0.1875
1696254773021,-0.055664062,-0.9788208,0.1774292,0.71875,-0.546875,0.0625
1696254773059,-0.05419922,-0.9824829,0.17889404,0.734375,-0.078125,-0.078125
1696254773098,-0.049560547,-0.9771118,0.1720581,-0.375,-0.1875,-0.0625
1696254773138,-0.045410156,-0.97491455,0.17132568,-0.265625,-0.171875,-0.046875
1696254773182,-0.052734375,-0.9829712,0.17059326,1.09375,-0.4375,-0.109375
1696254773239,-0.048828125,-0.9824829,0.17547607,0.46875,0.28125,-0.171875
1696254773258,-0.05053711,-0.9678345,0.1720581,0.171875,-0.859375,-0.203125
1696254773278,-0.05053711,-0.98443604,0.17327881,0.6875,-1.140625,0.328125
1696254773320,-0.042236328,-0.9846802,0.17376709,1.109375,-0.6875,0.046875
1696254773359,-0.044433594,-0.98321533,0.16986084,1.078125,-0.296875,0.109375
1696254773400,-0.056152344,-0.9837036,0.17401123,0.984375,-0.84375,0.203125
1696254773438,-0.049804688,-0.9817505,0.16668701,0.375,-0.578125,0.109375
1696254773480,-0.055664062,-0.9805298,0.16864014,0.640625,-0.03125,0.109375
1696254773519,-0.052490234,-0.9807739,0.16448975,0.671875,-0.484375,0.015625
1696254773559,-0.051757812,-0.98565674,0.1642456,0.203125,-0.375,-0.015625
1696254773598,-0.048339844,-0.97979736,0.16595459,-0.046875,-0.296875,0.09375
1696254773643,-0.05444336,-0.97784424,0.16375732,0.28125,-0.015625,0.234375
1696254773681,-0.049072266,-0.97857666,0.16571045,0.03125,-0.4375,0.21875
1696254773719,-0.05493164,-0.97857666,0.16571045,-0.203125,-0.3125,0.234375
1696254773760,-0.048095703,-0.97662354,0.16693115,-0.328125,-0.40625,0.203125
1696254773805,-0.05078125,-0.98443604,0.17156982,0.328125,-0.390625,0.296875
1696254773841,-0.049560547,-0.98809814,0.15863037,-1.140625,-0.546875,-0.21875
1696254773881,-0.055664062,-0.9771118,0.16033936,-0.09375,-0.078125,0.53125
1696254773919,-0.05078125,-0.9829712,0.168396,-0.390625,-0.359375,0.015625
1696254773982,-0.055664062,-0.9771118,0.16278076,-0.46875,-0.515625,0.015625
1696254774019,-0.05517578,-0.9890747,0.16326904,-0.921875,-0.421875,-0.015625
1696254774039,-0.05419922,-0.9812622,0.16888428,-0.375,-0.015625,-0.03125
1696254774079,-0.045654297,-0.9812622,0.1762085,-0.546875,-0.390625,0.015625
1696254774119,-0.047851562,-0.9817505,0.16668701,-0.734375,-0.3125,0.0
1696254774182,-0.056152344,-0.98321533,0.17059326,-0.234375,-0.578125,0.46875
1696254774198,-0.05029297,-0.97857666,0.17596436,-0.453125,-0.90625,0.140625
1696254774259,-0.0546875,-0.97979736,0.17059326,-0.75,-0.71875,0.40625
1696254774278,-0.0546875,-0.97857666,0.17913818,-0.78125,-1.234375,-0.046875
1696254774319,-0.06274414,-0.9783325,0.17303467,-0.84375,-1.65625,0.0625
1696254774359,-0.05810547,-0.975647,0.17376709,-0.09375,-0.75,-0.03125
1696254774400,-0.06274414,-0.9807739,0.17913818,0.703125,-0.140625,0.03125
1696254774440,-0.05883789,-0.9841919,0.17279053,0.125,-0.3125,0.3125
1696254774481,-0.053710938,-0.98687744,0.17230225,0.203125,-0.671875,0.0625
1696254774542,-0.055664062,-0.9829712,0.16986084,0.171875,-1.0,0.34375
1696254774558,-0.053466797,-0.98223877,0.1720581,-0.25,-1.109375,0.484375
1696254774581,-0.053955078,-0.9793091,0.16937256,0.375,-0.3125,0.109375
1696254774619,-0.055419922,-0.98101807,0.1696167,0.03125,-0.90625,0.59375
1696254774660,-0.059326172,-0.98028564,0.16473389,-0.328125,-0.5625,0.515625
1696254774700,-0.059570312,-0.98272705,0.16693115,-0.375,-0.453125,0.34375
1696254774742,-0.053710938,-0.9829712,0.17449951,-0.078125,-0.140625,0.640625
1696254774780,-0.04638672,-0.9729614,0.17108154,-0.296875,-0.765625,0.28125
1696254774819,-0.05517578,-0.9805298,0.16351318,-0.1875,-0.3125,0.46875
1696254774859,-0.052734375,-0.98223877,0.17449951,-0.234375,-0.171875,0.28125
1696254774898,-0.050048828,-0.9817505,0.1786499,-0.78125,-0.359375,0.359375
1696254774940,-0.052246094,-0.97076416,0.17279053,0.046875,-0.625,0.15625
1696254774979,-0.052001953,-0.9846802,0.1749878,0.609375,-0.125,0.390625
1696254775020,-0.052978516,-0.9854126,0.17425537,0.140625,-0.359375,0.59375
1696254775059,-0.050048828,-0.9771118,0.16912842,0.03125,-0.390625,0.390625
1696254775099,-0.052246094,-0.98150635,0.17230225,-0.015625,-0.546875,0.296875
1696254775139,-0.049804688,-0.9898071,0.17791748,-0.078125,-0.375,0.421875
1696254775181,-0.05493164,-0.97784424,0.17889404,-0.859375,-0.6875,0.109375
1696254775219,-0.047851562,-0.973938,0.17645264,-1.9375,-0.640625,0.0625
1696254775261,-0.052246094,-0.98516846,0.17816162,-3.25,-0.921875,0.59375
1696254775300,-0.047851562,-0.98321533,0.18182373,-2.609375,-0.1875,0.46875
1696254775342,-0.056152344,-0.9734497,0.17718506,-0.734375,-0.90625,-0.03125
1696254775379,-0.051757812,-0.9746704,0.18988037,-0.59375,-0.453125,-0.03125
1696254775418,-0.05102539,-0.9690552,0.19378662,-1.265625,-0.625,0.28125
1696254775458,-0.052001953,-0.97784424,0.18670654,-1.671875,-0.6875,0.1875
1696254775498,-0.05029297,-0.9793091,0.18914795,-0.40625,-0.109375,0.0625
1696254775540,-0.057128906,-0.9807739,0.19012451,0.109375,-0.671875,0.28125
1696254775580,-0.057128906,-0.9776001,0.18939209,-1.171875,-0.859375,-0.015625
1696254775620,-0.06323242,-0.9763794,0.19207764,-0.546875,-0.046875,0.28125
1696254775659,-0.048828125,-0.9793091,0.1930542,-0.671875,-0.0625,0.109375
1696254775702,-0.051757812,-0.97735596,0.1876831,-0.609375,-0.5,0.21875
1696254775739,-0.0546875,-0.9866333,0.19354248,-0.875,-0.703125,0.265625
1696254775779,-0.053222656,-0.9812622,0.19573975,0.015625,-0.390625,0.21875
1696254775817,-0.045410156,-0.9734497,0.19647217,-0.359375,-0.34375,0.390625
1696254775859,-0.055664062,-0.9685669,0.18988037,-0.53125,-0.5625,0.53125
1696254775880,-0.056396484,-0.9763794,0.1918335,0.046875,-1.015625,0.671875
1696254775919,-0.049804688,-0.9783325,0.18890381,0.015625,-0.28125,0.46875
1696254775959,-0.046142578,-0.96710205,0.1876831,-0.03125,0.265625,0.421875
1696254776001,-0.04321289,-0.9800415,0.19256592,1.390625,-0.1875,0.359375
1696254776039,-0.060058594,-0.9859009,0.1918335,0.46875,-0.046875,0.234375
1696254776079,-0.055908203,-0.96954346,0.19232178,0.0,-0.09375,0.0625
1696254776120,-0.049560547,-0.96759033,0.1906128,-0.171875,-0.46875,0.09375
1696254776179,-0.049804688,-0.9807739,0.1930542,-0.0625,-0.53125,0.421875
1696254776198,-0.057617188,-0.9776001,0.1918335,0.078125,-0.78125,-0.078125
1696254776238,-0.049804688,-0.97979736,0.18914795,-0.125,-0.28125,-0.078125
1696254776301,-0.044433594,-0.97540283,0.1876831,-0.28125,-0.375,0.03125
1696254776318,-0.05126953,-0.9776001,0.19329834,0.265625,-0.703125,0.109375
1696254776379,-0.044433594,-0.9783325,0.18670654,0.0625,-1.46875,0.078125
1696254776398,-0.05126953,-0.9734497,0.18499756,0.25,-0.203125,-0.015625
1696254776440,-0.05029297,-0.97662354,0.19696045,-0.09375,-0.8125,0.03125
1696254776480,-0.052490234,-0.973938,0.18475342,0.03125,-0.140625,-0.0625
1696254776521,-0.05102539,-0.97052,0.1864624,-0.0625,-0.8125,-0.09375
1696254776578,-0.060791016,-0.9783325,0.18817139,0.46875,-0.4375,-0.4375
1696254776597,-0.064697266,-0.9849243,0.19012451,-0.34375,-0.078125,-0.375
1696254776640,-0.056396484,-0.9812622,0.18475342,-0.0625,-0.203125,-0.328125
1696254776678,-0.052001953,-0.9746704,0.18914795,0.578125,-0.703125,-0.4375
1696254776721,-0.06323242,-0.9780884,0.18817139,0.15625,-0.953125,-0.453125
1696254776759,-0.056152344,-0.9824829,0.18450928,0.5625,-0.6875,-0.0625
1696254776801,-0.05908203,-0.9771118,0.18597412,0.5,-0.640625,-0.015625
1696254776864,-0.057861328,-0.97003174,0.18475342,1.640625,-0.640625,-0.078125
1696254776878,-0.0637207,-0.9788208,0.19110107,0.6875,-0.90625,0.28125
1696254776921,-0.06567383,-0.9805298,0.18865967,0.421875,-0.640625,-0.15625
1696254776979,-0.060058594,-0.98565674,0.17694092,0.34375,-0.3125,-0.203125
1696254777022,-0.05859375,-0.97320557,0.18963623,-0.421875,-0.46875,-0.09375
1696254777039,-0.055908203,-0.9734497,0.184021,-0.171875,-0.5625,-0.03125
1696254777081,-0.05444336,-0.98638916,0.18450928,-0.328125,-0.703125,-0.109375
1696254777121,-0.056152344,-0.9763794,0.18109131,-0.21875,-0.328125,-0.25
1696254777180,-0.059570312,-0.9805298,0.18719482,0.1875,-0.21875,0.03125
1696254777199,-0.05810547,-0.9768677,0.18548584,-0.15625,-1.171875,0.265625
1696254777218,-0.07006836,-0.98150635,0.18572998,-0.1875,-0.671875,0.203125
1696254777260,-0.064208984,-0.975647,0.1774292,-1.328125,-0.34375,-0.34375
1696254777300,-0.053466797,-0.975647,0.18450928,-0.375,0.46875,-0.296875
1696254777341,-0.061767578,-0.9771118,0.18621826,-0.03125,-0.984375,0.203125
1696254777379,-0.07104492,-0.9800415,0.1828003,-0.296875,-0.34375,0.21875
1696254777420,-0.06665039,-0.97540283,0.18450928,-0.46875,-0.03125,-0.09375
1696254777460,-0.057128906,-0.9758911,0.18695068,0.28125,-0.5,0.203125
1696254777498,-0.052734375,-0.9793091,0.1906128,-0.546875,-0.875,0.15625
1696254777542,-0.0637207,-0.9768677,0.18475342,-0.296875,-0.671875,-0.015625
1696254777580,-0.060546875,-0.9817505,0.19598389,0.03125,-0.5625,0.15625
1696254777620,-0.063964844,-0.9776001,0.18621826,0.21875,-0.25,-0.234375
1696254777660,-0.06738281,-0.9768677,0.18743896,-0.40625,-0.171875,-0.078125
1696254777701,-0.061523438,-0.9776001,0.18841553,-0.421875,-0.515625,0.109375
1696254777743,-0.06201172,-0.9758911,0.18963623,-0.171875,-0.53125,0.3125
1696254777781,-0.068603516,-0.9763794,0.18841553,-0.3125,-0.484375,0.1875
1696254777821,-0.06518555,-0.9793091,0.18475342,-0.078125,-0.6875,0.25
1696254777861,-0.068847656,-0.9800415,0.18792725,0.0625,-0.453125,0.46875
1696254777900,-0.061035156,-0.973938,0.18695068,-0.34375,-0.546875,0.265625
1696254777941,-0.06542969,-0.98809814,0.1906128,-0.640625,-0.65625,0.34375
1696254777980,-0.0637207,-0.9824829,0.19671631,-0.046875,0.015625,0.078125
1696254778021,-0.06542969,-0.97857666,0.1864624,0.546875,-0.703125,0.234375
1696254778060,-0.0715332,-0.9746704,0.18914795,0.390625,-0.296875,0.34375
1696254778101,-0.05908203,-0.9780884,0.18206787,-0.046875,-0.53125,-0.0625
1696254778146,-0.06201172,-0.97979736,0.18865967,0.625,0.09375,0.65625
1696254778179,-0.060302734,-0.9771118,0.184021,0.546875,-0.515625,0.265625
1696254778220,-0.06542969,-0.9800415,0.18206787,0.328125,0.09375,0.328125
1696254778259,-0.05810547,-0.98223877,0.18670654,0.453125,0.140625,0.09375
1696254778299,-0.064208984,-0.97540283,0.1906128,0.65625,-0.59375,0.375
1696254778340,-0.061767578,-0.9776001,0.18182373,-0.078125,-0.375,-0.03125
1696254778380,-0.059326172,-0.9812622,0.18939209,0.140625,-0.25,0.265625
1696254778421,-0.061035156,-0.9746704,0.18353271,0.375,-0.765625,0.15625
1696254778458,-0.05883789,-0.9751587,0.18353271,-0.125,-0.46875,0.375
1696254778500,-0.06298828,-0.96710205,0.18597412,-0.171875,-0.453125,0.125
1696254778520,-0.064453125,-0.9817505,0.18719482,0.015625,-0.46875,0.328125
1696254778582,-0.06616211,-0.9807739,0.18817139,-0.09375,-0.28125,0.421875
1696254778599,-0.06274414,-0.97442627,0.18499756,0.078125,-0.046875,0.328125
1696254778662,-0.059570312,-0.9783325,0.18182373,-0.03125,-0.25,0.390625
1696254778698,-0.060791016,-0.9834595,0.18450928,-0.21875,-0.828125,0.359375
1696254778742,-0.06542969,-0.98321533,0.18206787,-0.25,-0.8125,0.1875
1696254778760,-0.060058594,-0.9746704,0.1906128,0.234375,0.03125,0.03125
1696254778798,-0.06518555,-0.9812622,0.18963623,0.0625,-0.375,0.390625
1696254778840,-0.05908203,-0.97857666,0.18157959,-0.515625,-0.40625,0.078125
1696254778878,-0.061035156,-0.9800415,0.18255615,-1.6875,-0.890625,0.109375
1696254778921,-0.0637207,-0.9780884,0.19451904,-1.5,0.1875,0.578125
1696254778959,-0.057373047,-0.9783325,0.19622803,-1.953125,-0.78125,0.3125
1696254778998,-0.060546875,-0.9859009,0.19403076,-2.328125,-1.0,0.390625
1696254779040,-0.05859375,-0.9763794,0.19085693,-2.296875,-0.359375,0.328125
1696254779080,-0.05126953,-0.9717407,0.19525146,-2.4375,-1.328125,0.890625
1696254779120,-0.061279297,-0.9678345,0.19329834,-0.4375,-0.6875,0.34375
1696254779181,-0.06689453,-0.9927368,0.19134521,0.40625,-0.40625,0.296875
1696254779220,-0.064697266,-0.97247314,0.20672607,-0.328125,-0.46875,0.8125
1696254779240,-0.057128906,-0.975647,0.20379639,-0.328125,-0.203125,0.609375
1696254779281,-0.052978516,-0.96954346,0.20037842,-1.0625,-0.625,0.53125
1696254779342,-0.061279297,-0.9834595,0.20550537,-1.71875,-0.828125,0.65625
1696254779380,-0.05883789,-0.98321533,0.20941162,-1.671875,-1.25,0.1875
1696254779398,-0.059570312,-0.96832275,0.20477295,-1.171875,-0.390625,0.015625
1696254779462,-0.056640625,-0.9727173,0.20062256,0.828125,0.515625,0.078125
1696254779500,-0.05102539,-0.9780884,0.20794678,0.984375,-0.828125,0.171875
1696254779518,-0.059570312,-0.9729614,0.21185303,-0.15625,-1.46875,0.453125
1696254779561,-0.061767578,-0.97198486,0.2086792,0.734375,-0.390625,0.28125
1696254779602,-0.0625,-0.98101807,0.20428467,0.234375,-0.75,0.328125
1696254779641,-0.05517578,-0.9771118,0.20257568,-0.53125,-0.53125,0.609375
1696254779680,-0.06982422,-0.97491455,0.199646,-0.75,-1.1875,0.171875
1696254779720,-0.060791016,-0.97320557,0.20843506,0.28125,-0.21875,0.359375
1696254779759,-0.052734375,-0.9734497,0.20770264,0.171875,-0.15625,0.15625
1696254779820,-0.06274414,-0.97320557,0.2008667,-0.421875,-0.453125,0.15625
1696254779823,-0.05908203,-0.96539307,0.2074585,0.578125,-0.59375,0.28125
1696254779858,-0.056396484,-0.97906494,0.20794678,0.046875,-1.0625,0.375
1696254779901,-0.05883789,-0.9763794,0.2033081,-0.390625,-0.5,0.171875
1696254779940,-0.0546875,-0.9819946,0.2074585,-0.390625,-0.515625,0.40625
1696254779980,-0.061767578,-0.9758911,0.20794678,-0.609375,-0.515625,0.125
1696254780018,-0.05834961,-0.9729614,0.20819092,-0.09375,-0.25,0.125
1696254780060,-0.05859375,-0.97369385,0.2033081,-0.671875,-0.609375,0.109375
1696254780101,-0.05908203,-0.97052,0.2062378,-0.40625,-0.296875,0.109375
1696254780142,-0.064941406,-0.97784424,0.20892334,-0.25,-0.34375,0.296875
1696254780182,-0.056152344,-0.9746704,0.20501709,-0.421875,-0.71875,0.25
1696254780219,-0.060302734,-0.97320557,0.2111206,-0.03125,-0.765625,0.046875
1696254780268,-0.06640625,-0.9768677,0.1930542,0.53125,-0.84375,-0.015625
1696254780302,-0.053222656,-0.97369385,0.20965576,0.515625,-0.375,-0.109375
1696254780341,-0.06591797,-0.9714966,0.21209717,-0.484375,-1.109375,-0.21875
1696254780381,-0.06274414,-0.97784424,0.20257568,-0.4375,0.234375,-0.203125
1696254780418,-0.05859375,-0.9763794,0.21087646,-0.734375,-0.484375,-0.09375
1696254780462,-0.057128906,-0.97076416,0.21160889,-0.453125,-0.40625,-0.015625
1696254780500,-0.060791016,-0.9692993,0.20501709,-0.0625,-0.359375,-0.125
1696254780541,-0.057861328,-0.9734497,0.20843506,-0.09375,-0.453125,-0.15625
1696254780582,-0.053955078,-0.9812622,0.2111206,0.4375,-0.109375,0.046875
1696254780618,-0.0637207,-0.975647,0.21087646,0.234375,-0.90625,0.203125
1696254780660,-0.05908203,-0.97076416,0.20672607,-0.015625,-0.28125,-0.15625
1696254780699,-0.05859375,-0.9702759,0.20281982,0.453125,-0.203125,-0.0625
1696254780739,-0.064453125,-0.9800415,0.20672607,0.125,-0.984375,0.140625
1696254780779,-0.06225586,-0.975647,0.20355225,-0.921875,-0.5625,-0.03125
1696254780819,-0.068847656,-0.9673462,0.20477295,-1.84375,-0.265625,0.03125
1696254780859,-0.0625,-0.975647,0.20501709,0.296875,-0.09375,0.15625
1696254780900,-0.056152344,-0.9793091,0.22137451,2.234375,1.3125,0.5
1696254780941,-0.06518555,-0.97613525,0.20379639,0.796875,-0.09375,0.359375
1696254780981,-0.06738281,-0.9663696,0.20574951,0.421875,0.046875,0.3125
1696254781022,-0.060791016,-0.97784424,0.20159912,1.046875,-0.703125,0.546875
1696254781058,-0.056640625,-0.98565674,0.20404053,1.125,0.453125,0.203125
1696254781100,-0.05883789,-0.9746704,0.2033081,1.078125,-0.34375,0.109375
1696254781120,-0.059570312,-0.97613525,0.19647217,0.546875,-0.53125,0.140625
1696254781162,-0.06347656,-0.9763794,0.19354248,0.125,-1.0,0.1875
1696254781199,-0.060302734,-0.9780884,0.20477295,0.671875,-0.078125,0.34375
1696254781239,-0.057373047,-0.97540283,0.20135498,0.625,-0.6875,0.171875
1696254781300,-0.057128906,-0.9763794,0.19793701,0.5,-0.734375,0.21875
1696254781339,-0.060058594,-0.9729614,0.19671631,1.203125,-0.28125,0.125
1696254781381,-0.057861328,-0.98150635,0.19281006,1.203125,-0.21875,0.03125
1696254781398,-0.05834961,-0.97003174,0.19085693,0.125,-0.40625,-0.140625
1696254781440,-0.0625,-0.97979736,0.18621826,1.125,-0.5,0.1875
1696254781481,-0.06274414,-0.97979736,0.19354248,0.4375,-1.125,0.28125
1696254781519,-0.064697266,-0.98150635,0.1876831,0.578125,-0.453125,0.078125
1696254781581,-0.060546875,-0.9680786,0.18548584,0.265625,-0.4375,0.03125
1696254781621,-0.06323242,-0.9746704,0.18792725,0.5,-0.546875,0.140625
1696254781638,-0.061767578,-0.972229,0.18743896,0.421875,-0.5,0.40625
1696254781702,-0.064453125,-0.986145,0.18841553,-0.1875,-0.375,0.078125
1696254781718,-0.064208984,-0.97125244,0.18597412,0.234375,-0.078125,0.078125
1696254781760,-0.06591797,-0.98394775,0.1918335,0.15625,-0.21875,0.390625
1696254781800,-0.06298828,-0.97247314,0.19110107,0.125,-0.3125,0.125
1696254781839,-0.061767578,-0.97857666,0.18109131,0.40625,-0.328125,0.25
1696254781878,-0.05493164,-0.97784424,0.1852417,-0.640625,-0.703125,0.125
1696254781919,-0.063964844,-0.9837036,0.19085693,-0.1875,-0.4375,0.265625
1696254781961,-0.068847656,-0.9793091,0.1906128,0.09375,-0.296875,0.078125
1696254782001,-0.060058594,-0.9741821,0.19232178,-0.328125,-0.09375,0.078125
1696254782039,-0.060791016,-0.98272705,0.19232178,-0.890625,-0.390625,0.125
1696254782080,-0.059570312,-0.9849243,0.19085693,0.703125,-0.609375,0.1875
1696254782119,-0.052490234,-0.9656372,0.18011475,-0.71875,-0.84375,0.140625
1696254782160,-0.06762695,-0.97735596,0.18621826,0.03125,-0.1875,0.46875
1696254782201,-0.057373047,-0.98101807,0.1918335,0.015625,-1.03125,0.703125
1696254782240,-0.06298828,-0.9807739,0.18817139,0.015625,-0.640625,0.265625
1696254782280,-0.057861328,-0.9768677,0.1864624,-0.09375,-0.3125,0.203125
1696254782322,-0.06762695,-0.97369385,0.18988037,-0.125,-0.375,0.1875
1696254782362,-0.068603516,-0.987854,0.1906128,0.0,-0.25,0.234375
1696254782398,-0.06542969,-0.97662354,0.1828003,-0.203125,0.015625,0.09375
1696254782438,-0.061279297,-0.97320557,0.18841553,-0.046875,-0.359375,0.375
1696254782459,-0.056152344,-0.9710083,0.18988037,-0.390625,-0.515625,0.359375
1696254782498,-0.060791016,-0.991272,0.19207764,-0.375,-0.5,0.421875
1696254782539,-0.049560547,-0.9763794,0.19281006,0.484375,-0.234375,0.046875
1696254782580,-0.061767578,-0.9795532,0.19012451,0.359375,-0.6875,0.5625
1696254782620,-0.05859375,-0.9854126,0.1864624,-0.34375,-0.09375,0.109375
1696254782660,-0.068603516,-0.97320557,0.19525146,-0.140625,-0.234375,0.15625
1696254782723,-0.061035156,-0.9685669,0.19158936,0.296875,-0.125,0.203125
1696254782738,-0.053955078,-0.9729614,0.18621826,-0.359375,-0.5625,0.390625
1696254782779,-0.059570312,-0.98443604,0.18206787,-0.375,-0.3125,0.109375
1696254782840,-0.053955078,-0.9817505,0.19158936,0.40625,-0.390625,0.1875
1696254782860,-0.056640625,-0.97198486,0.19110107,-0.109375,-0.890625,0.328125
1696254782922,-0.06274414,-0.975647,0.19110107,-0.0625,-0.21875,0.171875
1696254782962,-0.0637207,-0.9800415,0.1876831,-0.03125,-0.765625,0.296875
1696254782977,-0.059326172,-0.9800415,0.19232178,0.3125,-0.4375,0.46875
1696254783062,-0.052490234,-0.97003174,0.1864624,0.515625,-0.46875,0.484375
1696254783067,-0.056640625,-0.9729614,0.1906128,0.3125,-0.25,0.328125
1696254783102,-0.061035156,-0.9783325,0.18963623,-0.03125,-0.5,0.375
1696254783159,-0.06201172,-0.97857666,0.18792725,-0.234375,-0.46875,-0.03125
1696254783179,-0.055664062,-0.9710083,0.18719482,-0.59375,-0.25,0.109375
1696254783221,-0.055419922,-0.9751587,0.18963623,-0.6875,-0.46875,0.359375
1696254783258,-0.05883789,-0.9800415,0.19134521,-0.59375,-0.578125,0.234375
1696254783301,-0.06298828,-0.9788208,0.18426514,-0.796875,-0.5625,0.421875
1696254783339,-0.05053711,-0.9697876,0.18670654,-0.6875,-0.1875,0.359375
1696254783382,-0.06347656,-0.97198486,0.18792725,-0.625,-1.125,0.390625
1696254783420,-0.052734375,-0.97662354,0.18597412,-0.25,-0.03125,0.015625
1696254783461,-0.06518555,-0.9776001,0.18743896,0.953125,-0.015625,-0.140625
1696254783500,-0.06689453,-0.98028564,0.19598389,1.265625,0.515625,0.21875
1696254783561,-0.05883789,-0.9795532,0.1906128,0.609375,0.40625,0.34375
1696254783586,-0.052490234,-0.99005127,0.18865967,-1.15625,-0.015625,0.5
1696254783620,-0.057373047,-0.973938,0.18963623,-0.984375,-0.796875,0.140625
1696254783660,-0.059814453,-0.9741821,0.1930542,-1.5,-0.4375,0.484375
1696254783701,-0.057617188,-0.97076416,0.18963623,-0.703125,-0.140625,0.265625
1696254783762,-0.053710938,-0.9795532,0.1954956,-0.3125,-1.171875,0.375
1696254783769,-0.055664062,-0.9751587,0.20037842,-0.765625,-0.78125,0.3125
1696254783800,-0.059814453,-0.97784424,0.18865967,-0.875,-0.65625,0.421875
1696254783883,-0.053222656,-0.972229,0.19769287,-0.03125,-0.796875,0.390625
1696254783888,-0.060058594,-0.97735596,0.19378662,-0.796875,-0.78125,0.40625
1696254783922,-0.06347656,-0.9849243,0.19720459,-0.515625,-0.6875,0.1875
1696254783959,-0.057861328,-0.97442627,0.19500732,-0.71875,-0.5625,0.171875
1696254784000,-0.053222656,-0.97491455,0.19500732,-1.1875,-0.34375,0.1875
1696254784040,-0.060058594,-0.9734497,0.2033081,-1.1875,-0.4375,0.34375
1696254784079,-0.061767578,-0.9800415,0.19793701,-1.21875,-0.609375,0.109375
1696254784122,-0.059814453,-0.9697876,0.20013428,-0.46875,-0.375,0.078125
1696254784158,-0.047851562,-0.97052,0.19940186,-0.609375,-0.671875,0.375
1696254784200,-0.060058594,-0.97662354,0.20916748,0.5625,0.015625,0.265625
1696254784239,-0.06298828,-0.9819946,0.19036865,-1.078125,-1.125,0.140625
1696254784279,-0.047607422,-0.96588135,0.20599365,-0.421875,-0.703125,0.21875
1696254784320,-0.05102539,-0.9702759,0.2098999,-0.40625,-1.140625,0.25
1696254784362,-0.05834961,-0.97857666,0.20599365,-0.015625,-0.28125,0.109375
1696254784402,-0.057373047,-0.97662354,0.20574951,-0.0625,-0.0625,0.21875
1696254784445,-0.06347656,-0.9788208,0.1984253,0.765625,-0.0625,0.390625
1696254784482,-0.056396484,-0.96539307,0.20916748,-0.171875,-0.234375,0.078125
1696254784521,-0.049560547,-0.97784424,0.1984253,0.0,-0.5625,0.421875
1696254784557,-0.0625,-0.97857666,0.20477295,-0.125,-0.71875,0.375
1696254784599,-0.052734375,-0.9680786,0.20306396,-0.1875,-0.296875,0.34375
1696254784639,-0.055664062,-0.97906494,0.20404053,-0.359375,-0.53125,0.109375
1696254784680,-0.057617188,-0.97613525,0.20257568,0.015625,-0.453125,0.484375
1696254784719,-0.05859375,-0.972229,0.2008667,-0.265625,-0.453125,-0.1875
1696254784759,-0.060058594,-0.97442627,0.20037842,-0.5625,-0.390625,0.015625
1696254784801,-0.060302734,-0.97540283,0.20770264,-0.515625,-0.078125,0.265625
1696254784840,-0.055419922,-0.9763794,0.20550537,-0.359375,-0.578125,0.28125
1696254784882,-0.057373047,-0.96710205,0.20281982,0.21875,-0.59375,0.15625
1696254784921,-0.059326172,-0.9734497,0.20794678,-0.375,-0.671875,0.390625
1696254784957,-0.055908203,-0.97442627,0.20477295,0.515625,-0.703125,0.046875
1696254784999,-0.05810547,-0.973938,0.20428467,0.078125,0.0,0.015625
1696254785059,-0.057861328,-0.98150635,0.20697021,0.609375,-0.71875,0.28125
1696254785080,-0.0637207,-0.975647,0.19622803,0.828125,0.0625,0.625
1696254785121,-0.05078125,-0.97247314,0.20843506,0.8125,0.5625,0.5625
1696254785139,-0.05517578,-0.97247314,0.20574951,1.09375,-0.5,0.46875
1696254785201,-0.059814453,-0.9846802,0.19818115,0.484375,-0.625,0.046875
1696254785219,-0.047851562,-0.97491455,0.20159912,0.609375,-0.328125,0.171875
1696254785279,-0.049560547,-0.97125244,0.20672607,0.6875,-0.609375,0.1875
1696254785298,-0.05908203,-0.98150635,0.19232178,1.078125,-0.359375,0.203125
1696254785340,-0.05419922,-0.9849243,0.20379639,0.40625,-0.9375,0.328125
1696254785382,-0.057373047,-0.9751587,0.18939209,0.078125,-0.828125,0.21875
1696254785419,-0.056640625,-0.973938,0.19281006,0.65625,-0.328125,0.0625
1696254785460,-0.06347656,-0.97784424,0.19012451,0.671875,0.015625,0.03125
1696254785500,-0.0546875,-0.98028564,0.18670654,2.3125,0.34375,0.109375
1696254785541,-0.049804688,-0.9793091,0.18865967,1.375,0.234375,-0.171875
1696254785582,-0.05883789,-0.96832275,0.18060303,1.75,-0.21875,0.0625
1696254785621,-0.056152344,-0.9734497,0.18231201,1.625,0.015625,0.25
1696254785660,-0.063964844,-0.98883057,0.17791748,1.65625,-0.171875,0.0
1696254785701,-0.05810547,-0.9793091,0.17791748,1.3125,-0.40625,0.234375
1696254785741,-0.051513672,-0.9758911,0.17449951,1.765625,-0.109375,0.171875
1696254785781,-0.05517578,-0.9776001,0.17791748,1.453125,-0.640625,0.34375
1696254785821,-0.056396484,-0.99176025,0.16912842,0.75,-0.34375,0.078125
1696254785859,-0.059814453,-0.9771118,0.17474365,0.34375,-0.484375,-0.015625
1696254785901,-0.049072266,-0.9795532,0.17156982,0.875,-0.25,0.140625
1696254785961,-0.057861328,-0.97857666,0.17010498,0.828125,0.0,0.09375
1696254786000,-0.06225586,-0.97979736,0.17010498,0.171875,-0.390625,-0.09375
1696254786018,-0.061523438,-0.98687744,0.17230225,0.0625,-0.4375,-0.09375
1696254786061,-0.049316406,-0.9758911,0.16790771,-0.125,0.109375,0.171875
1696254786101,-0.050048828,-0.9793091,0.16497803,0.109375,-0.21875,0.015625
1696254786141,-0.05883789,-0.98394775,0.17254639,0.375,-0.734375,0.609375
1696254786178,-0.057617188,-0.9780884,0.16864014,0.265625,-0.828125,0.3125
1696254786221,-0.061279297,-0.9788208,0.16790771,0.203125,-0.21875,0.34375
1696254786262,-0.052734375,-0.98394775,0.16571045,0.078125,-0.421875,0.328125
1696254786299,-0.059814453,-0.97906494,0.1708374,0.265625,-0.671875,0.484375
1696254786340,-0.061279297,-0.97906494,0.17181396,-0.09375,-0.484375,0.25
1696254786380,-0.060058594,-0.9805298,0.16912842,-0.296875,-0.28125,0.4375
1696254786398,-0.05444336,-0.9824829,0.16790771,-0.671875,-0.828125,0.25
1696254786439,-0.05908203,-0.97906494,0.16644287,-0.921875,-0.96875,0.0625
1696254786478,-0.056152344,-0.9788208,0.16912842,-0.40625,-0.65625,0.21875
1696254786519,-0.055664062,-0.97735596,0.16204834,-0.296875,-0.53125,0.421875
1696254786560,-0.05126953,-0.9805298,0.16864014,-0.359375,-0.5,-0.03125
1696254786623,-0.049072266,-0.9807739,0.16473389,-0.828125,-0.796875,-0.03125
1696254786638,-0.06542969,-0.9776001,0.17303467,-0.0625,-0.234375,0.75
1696254786679,-0.055419922,-0.9812622,0.17694092,-0.375,-0.484375,0.234375
1696254786719,-0.0546875,-0.9771118,0.17279053,-0.640625,-0.5625,0.109375
1696254786761,-0.055908203,-0.9771118,0.18084717,-0.3125,-0.28125,0.1875
1696254786801,-0.0637207,-0.9849243,0.17474365,-0.453125,-0.96875,0.453125
1696254786840,-0.052978516,-0.9758911,0.17279053,-1.03125,-0.0625,-0.265625
1696254786879,-0.05859375,-0.97857666,0.17645264,-0.375,-0.578125,-0.34375
1696254786921,-0.057861328,-0.98565674,0.17791748,-0.453125,-0.578125,0.125
1696254786959,-0.059326172,-0.9768677,0.17401123,-0.671875,-0.515625,0.03125
1696254787001,-0.06665039,-0.98516846,0.17474365,-0.59375,-0.296875,-0.234375
1696254787040,-0.06201172,-0.9788208,0.17181396,-0.375,-0.078125,-0.171875
1696254787081,-0.056396484,-0.9807739,0.1774292,-0.5,-0.484375,0.09375
1696254787119,-0.061035156,-0.98272705,0.1749878,-0.75,-0.46875,-0.046875
1696254787161,-0.05883789,-0.9824829,0.17913818,-0.34375,-0.25,-0.171875
1696254787202,-0.055419922,-0.9793091,0.1774292,-0.546875,-0.40625,0.03125
1696254787242,-0.053710938,-0.987854,0.18133545,-0.359375,-0.53125,0.3125
1696254787280,-0.053710938,-0.98101807,0.1774292,0.171875,-0.890625,0.34375
1696254787320,-0.05834961,-0.9771118,0.17791748,0.484375,-0.375,0.296875
1696254787360,-0.059326172,-0.97906494,0.17889404,-1.0,-0.484375,0.296875
1696254787400,-0.051757812,-0.97906494,0.18426514,0.1875,-0.09375,0.453125
1696254787439,-0.046875,-0.9727173,0.18035889,0.0,-0.8125,0.515625
1696254787480,-0.06323242,-0.97906494,0.17596436,-0.375,-0.671875,0.359375
1696254787520,-0.060546875,-0.97613525,0.18206787,-0.03125,-0.40625,0.0
1696254787559,-0.060791016,-0.9817505,0.18377686,0.15625,-0.5,0.21875
1696254787599,-0.05883789,-0.9710083,0.18035889,-0.34375,-0.484375,-0.171875
1696254787643,-0.05834961,-0.98150635,0.17889404,-0.015625,-0.171875,0.015625
1696254787680,-0.053710938,-0.9812622,0.18157959,0.203125,-0.640625,0.046875
1696254787700,-0.05810547,-0.9729614,0.17816162,0.15625,-0.265625,0.21875
1696254787743,-0.06274414,-0.9729614,0.18255615,0.203125,-0.15625,0.015625
1696254787780,-0.057861328,-0.9824829,0.17425537,0.203125,0.1875,-0.015625
1696254787843,-0.04663086,-0.9829712,0.1864624,0.390625,0.15625,-0.09375
1696254787859,-0.052490234,-0.9793091,0.18011475,-0.046875,-0.546875,0.0625
1696254787901,-0.06518555,-0.97369385,0.1774292,-0.625,-0.796875,0.359375
1696254787940,-0.060302734,-0.9819946,0.18304443,-0.734375,-0.4375,0.328125
1696254787981,-0.05859375,-0.9849243,0.18499756,-1.578125,-1.0,0.421875
1696254788040,-0.056640625,-0.98150635,0.18426514,-0.6875,-0.640625,0.140625
1696254788058,-0.061523438,-0.98516846,0.18792725,-1.125,-0.875,0.4375
1696254788100,-0.06689453,-0.97442627,0.18548584,-2.625,-1.109375,0.359375
1696254788161,-0.06298828,-0.97784424,0.18426514,-2.0625,-1.0,0.46875
1696254788179,-0.05493164,-0.97784424,0.18792725,-1.15625,-0.75,0.234375
1696254788219,-0.064453125,-0.9783325,0.18817139,-0.15625,-1.125,0.40625
1696254788280,-0.05908203,-0.9746704,0.1876831,-0.921875,-0.359375,0.109375
1696254788298,-0.055419922,-0.97540283,0.19769287,0.265625,-0.625,0.21875
1696254788340,-0.049804688,-0.9795532,0.19012451,-0.328125,-0.5625,0.21875
1696254788381,-0.06201172,-0.972229,0.19158936,-0.90625,-0.625,0.25
1696254788421,-0.057617188,-0.97784424,0.18914795,-0.15625,-0.84375,0.671875
1696254788459,-0.059814453,-0.97906494,0.19598389,-1.1875,-0.28125,0.390625
1696254788503,-0.05834961,-0.9780884,0.19085693,-0.609375,-1.140625,0.234375
1696254788561,-0.059814453,-0.97784424,0.19525146,0.28125,-0.453125,0.09375
1696254788600,-0.055419922,-0.9819946,0.1942749,0.984375,0.3125,0.03125
1696254788622,-0.064453125,-0.9776001,0.20037842,0.484375,0.046875,0.125
1696254788683,-0.051513672,-0.97125244,0.18914795,-0.0625,-0.578125,0.46875
1696254788722,-0.05517578,-0.97125244,0.19476318,-0.25,-1.078125,0.375
1696254788740,-0.06347656,-0.97076416,0.20843506,-0.015625,-0.625,0.3125
1696254788781,-0.056640625,-0.9795532,0.18841553,0.3125,-0.40625,0.109375
1696254788819,-0.049072266,-0.97076416,0.19232178,-0.4375,-1.03125,0.21875
1696254788883,-0.0625,-0.98272705,0.19573975,-0.75,-1.390625,-0.046875
1696254788899,-0.0715332,-0.9873657,0.19769287,-0.734375,-0.609375,0.171875
1696254788940,-0.053466797,-0.973938,0.1942749,0.203125,0.15625,0.0
1696254789019,-0.047851562,-0.97613525,0.18792725,0.5625,-0.578125,0.21875
1696254789025,-0.064941406,-0.97784424,0.19720459,-0.125,-0.640625,0.390625
1696254789038,-0.06347656,-0.98394775,0.1930542,1.015625,-0.3125,0.171875
1696254789080,-0.05419922,-0.9793091,0.1876831,1.078125,-0.609375,0.078125
1696254789120,-0.051513672,-0.9746704,0.19012451,0.453125,-0.59375,0.515625
1696254789160,-0.059326172,-0.9727173,0.19256592,0.765625,-1.03125,0.546875
1696254789203,-0.0625,-0.9793091,0.18670654,1.375,-0.78125,0.328125
1696254789241,-0.0637207,-0.9812622,0.19671631,0.484375,-0.625,0.59375
1696254789278,-0.056396484,-0.97247314,0.18255615,0.0625,-0.78125,0.265625
1696254789320,-0.059326172,-0.97491455,0.18475342,0.0,-0.5,0.34375
1696254789359,-0.06616211,-0.9780884,0.18719482,0.640625,-0.453125,0.25
1696254789399,-0.06201172,-0.987854,0.18792725,-0.109375,0.15625,0.046875
1696254789443,-0.052978516,-0.97320557,0.18792725,-0.1875,0.046875,0.109375
1696254789481,-0.05444336,-0.9793091,0.19036865,0.640625,-0.359375,0.359375
1696254789520,-0.06274414,-0.9768677,0.18206787,-0.0625,-0.84375,0.34375
1696254789560,-0.046875,-0.9751587,0.1798706,0.09375,0.015625,0.140625
1696254789601,-0.050048828,-0.9846802,0.18499756,-0.015625,-0.546875,0.484375
1696254789642,-0.053955078,-0.97735596,0.184021,-0.09375,-0.71875,0.234375
1696254789680,-0.047607422,-0.9800415,0.18817139,-0.09375,-0.453125,0.359375
1696254789720,-0.060302734,-0.9812622,0.18817139,0.0625,-0.171875,0.28125
1696254789760,-0.05444336,-0.9768677,0.1864624,0.703125,-0.15625,0.046875
1696254789801,-0.05493164,-0.98028564,0.17962646,0.296875,-0.515625,0.265625
1696254789842,-0.052978516,-0.97003174,0.18035889,0.46875,0.046875,-0.28125
1696254789882,-0.06567383,-0.9834595,0.17889404,0.5,-0.203125,0.015625
1696254789920,-0.06640625,-0.9793091,0.16131592,4.28125,-0.3125,0.0
1696254789963,-0.048828125,-0.9834595,0.16937256,1.953125,-0.46875,0.21875
1696254789998,-0.052001953,-0.9741821,0.1918335,2.34375,-0.296875,0.71875
1696254790042,-0.056884766,-0.98272705,0.17156982,0.1875,-1.28125,-0.265625
1696254790081,-0.07299805,-0.98223877,0.1696167,0.265625,-0.140625,0.171875
1696254790118,-0.057128906,-0.97857666,0.16693115,0.4375,0.0625,-0.03125
1696254790160,-0.051513672,-0.9795532,0.16937256,0.34375,0.375,-0.421875
1696254790200,-0.052978516,-0.98394775,0.17108154,-0.3125,0.0,-0.046875
1696254790240,-0.055419922,-0.9710083,0.16668701,-0.203125,-0.5,0.109375
1696254790281,-0.057128906,-0.98321533,0.16448975,0.25,-0.4375,0.328125
1696254790318,-0.05859375,-0.9859009,0.16571045,-0.421875,-0.828125,0.09375
1696254790360,-0.05883789,-0.9771118,0.17352295,-0.359375,-0.21875,0.125
1696254790379,-0.05102539,-0.9783325,0.17108154,0.015625,-0.515625,0.265625
1696254790441,-0.064208984,-0.98101807,0.17034912,0.125,-0.640625,0.046875
1696254790459,-0.061767578,-0.987854,0.17254639,0.28125,0.078125,0.03125
1696254790500,-0.053710938,-0.9812622,0.16815186,-0.125,-0.734375,0.375
1696254790542,-0.053466797,-0.97857666,0.17669678,-0.46875,-0.796875,0.015625
1696254790580,-0.060791016,-0.98223877,0.1671753,-0.9375,-0.765625,0.15625
1696254790619,-0.06591797,-0.9846802,0.16986084,-0.59375,-1.046875,0.265625
1696254790661,-0.05883789,-0.97735596,0.17376709,-0.453125,-0.609375,0.546875
1696254790699,-0.055419922,-0.98150635,0.17352295,-0.421875,-0.25,0.15625
1696254790761,-0.05810547,-0.9751587,0.17376709,-0.640625,-0.828125,0.0625
1696254790800,-0.0625,-0.987854,0.17132568,-0.390625,-0.703125,-0.109375
1696254790818,-0.056640625,-0.98150635,0.17303467,-0.65625,-0.484375,0.078125
1696254790859,-0.05883789,-0.9717407,0.17596436,-1.015625,-0.625,-0.09375
1696254790921,-0.060302734,-0.9817505,0.17352295,-0.75,-0.6875,0.1875
1696254790960,-0.052001953,-0.9819946,0.17279053,-0.1875,-0.0625,-0.015625
1696254790978,-0.055664062,-0.98394775,0.17425537,0.046875,-0.703125,0.265625
1696254791041,-0.060791016,-0.97735596,0.17132568,-0.59375,-0.359375,-0.03125
1696254791059,-0.06591797,-0.9812622,0.17156982,-1.0625,-0.28125,0.09375
1696254791101,-0.05444336,-0.9829712,0.18133545,0.3125,-0.046875,0.125
1696254791162,-0.061279297,-0.9795532,0.17938232,-0.453125,-0.65625,0.0
1696254791183,-0.06298828,-0.98101807,0.1786499,-0.40625,-0.265625,0.03125
1696254791221,-0.060546875,-0.9883423,0.18231201,-0.125,-0.1875,0.140625
1696254791259,-0.056640625,-0.98028564,0.1852417,-0.390625,-0.28125,0.078125
1696254791300,-0.060791016,-0.9763794,0.18060303,-0.46875,-0.40625,0.40625
1696254791339,-0.06274414,-0.9771118,0.17962646,0.21875,-0.765625,0.3125
1696254791379,-0.057128906,-0.9763794,0.18109131,0.046875,-0.1875,0.390625
1696254791419,-0.05419922,-0.9751587,0.1798706,-0.046875,-0.96875,0.296875
1696254791481,-0.05810547,-0.98223877,0.17547607,-0.0625,-0.25,0.21875
1696254791500,-0.061523438,-0.9793091,0.17791748,0.34375,-0.734375,0.375
1696254791538,-0.061035156,-0.9837036,0.17645264,-0.03125,-0.40625,0.40625
1696254791604,-0.060791016,-0.97735596,0.18084717,-0.140625,-0.609375,0.046875
1696254791618,-0.06225586,-0.97784424,0.18133545,-0.0625,-0.484375,0.140625
1696254791640,-0.052978516,-0.9824829,0.18206787,0.0625,0.140625,0.109375
1696254791679,-0.05834961,-0.97442627,0.1774292,0.125,-0.90625,0.28125
1696254791722,-0.06225586,-0.97369385,0.17913818,0.140625,-0.625,0.21875
1696254791759,-0.061279297,-0.975647,0.17669678,-0.671875,-0.375,0.359375
1696254791802,-0.056884766,-0.98687744,0.18304443,0.453125,0.046875,0.78125
1696254791839,-0.052734375,-0.97613525,0.17572021,-0.328125,-0.640625,0.40625
1696254791881,-0.059570312,-0.97442627,0.17645264,-0.15625,-0.3125,0.375
1696254791919,-0.056640625,-0.9807739,0.1828003,0.703125,-0.203125,0.296875
1696254791960,-0.0546875,-0.9907837,0.18060303,0.296875,-0.28125,0.53125
1696254792001,-0.055664062,-0.9714966,0.17449951,-0.359375,-0.609375,-0.09375
1696254792039,-0.056152344,-0.9849243,0.1749878,-0.046875,-0.203125,0.078125
1696254792082,-0.056396484,-0.98321533,0.18133545,0.046875,-0.4375,0.453125
1696254792121,-0.0546875,-0.9763794,0.17816162,-0.265625,-0.46875,0.0625
1696254792161,-0.059814453,-0.9771118,0.17523193,0.09375,-0.203125,0.125
1696254792199,-0.049804688,-0.97784424,0.18133545,0.015625,-0.25,0.375
1696254792240,-0.056884766,-0.9783325,0.18231201,-0.015625,-0.453125,0.21875
1696254792281,-0.05078125,-0.97857666,0.17669678,0.21875,-0.828125,0.203125
1696254792320,-0.05883789,-0.9829712,0.18035889,0.046875,-0.3125,0.03125
1696254792360,-0.05517578,-0.98028564,0.1720581,-0.4375,-0.671875,0.3125
1696254792400,-0.05029297,-0.98321533,0.17376709,0.296875,-0.15625,-0.03125
1696254792439,-0.057617188,-0.9807739,0.17718506,0.109375,-0.984375,0.25
1696254792479,-0.05517578,-0.9768677,0.1749878,-0.328125,-0.328125,0.09375
1696254792519,-0.063964844,-0.97320557,0.17694092,-0.578125,-0.484375,0.109375
1696254792559,-0.051757812,-0.9795532,0.18035889,-0.046875,-0.109375,0.28125
1696254792599,-0.057861328,-0.975647,0.18304443,-0.015625,-0.390625,0.34375
1696254792639,-0.055664062,-0.97857666,0.17669678,-0.578125,-0.296875,0.046875
1696254792681,-0.0546875,-0.97906494,0.17791748,0.140625,-0.53125,-0.015625
1696254792722,-0.0546875,-0.98394775,0.1828003,-0.265625,-0.4375,0.328125
1696254792759,-0.059814453,-0.9800415,0.17694092,-0.5,-0.734375,0.0625
1696254792800,-0.057617188,-0.98101807,0.17962646,-0.046875,-0.765625,0.03125
1696254792841,-0.05883789,-0.9824829,0.17840576,-0.234375,-0.484375,0.125
1696254792881,-0.055908203,-0.97540283,0.18255615,-0.578125,-0.015625,0.15625
1696254792920,-0.06201172,-0.9859009,0.1852417,-1.546875,-0.234375,0.234375
1696254792960,-0.060302734,-0.97369385,0.17840576,-1.28125,-0.296875,0.265625
1696254792981,-0.053222656,-0.98321533,0.18206787,-1.0,0.125,0.609375
1696254793042,-0.051513672,-0.9776001,0.18572998,-0.65625,-0.421875,0.671875
1696254793059,-0.051757812,-0.9824829,0.18865967,-0.28125,-0.78125,0.5
1696254793100,-0.057373047,-0.97735596,0.19354248,-0.96875,-0.8125,0.34375
1696254793141,-0.05810547,-0.97857666,0.19696045,-0.5,-0.4375,0.515625
1696254793180,-0.055419922,-0.9776001,0.1828003,-0.96875,-0.8125,0.546875
1696254793243,-0.05883789,-0.9829712,0.18426514,-0.796875,-0.375,0.140625
1696254793259,-0.056884766,-0.9710083,0.18695068,-0.90625,-0.125,0.15625
1696254793321,-0.052978516,-0.9807739,0.18377686,0.078125,-0.328125,0.25
1696254793340,-0.055664062,-0.9780884,0.18841553,0.078125,-0.84375,0.0625
1696254793382,-0.05126953,-0.975647,0.18670654,-0.75,-0.375,0.015625
1696254793423,-0.056152344,-0.9793091,0.19110107,0.28125,-0.375,0.296875
1696254793459,-0.05078125,-0.9824829,0.18841553,0.28125,-0.984375,0.421875
1696254793501,-0.053710938,-0.9710083,0.18939209,-0.75,-0.484375,0.3125
1696254793540,-0.049316406,-0.97369385,0.19012451,-0.40625,-1.125,0.671875
1696254793581,-0.049804688,-0.9746704,0.19110107,-0.421875,-0.71875,0.484375
1696254793619,-0.052490234,-0.973938,0.19036865,0.078125,-0.125,0.265625
1696254793682,-0.053955078,-0.97613525,0.19573975,-0.390625,-0.53125,0.28125
1696254793723,-0.05810547,-0.9771118,0.19598389,-0.625,-0.59375,0.3125
1696254793738,-0.04638672,-0.98150635,0.19329834,-0.46875,-0.6875,0.125
1696254793802,-0.05493164,-0.9692993,0.19354248,-0.390625,-0.703125,0.15625
1696254793821,-0.051513672,-0.9751587,0.19403076,0.015625,-0.46875,0.25
1696254793884,-0.05444336,-0.98443604,0.19012451,-0.171875,-0.625,0.109375
1696254793899,-0.055908203,-0.9807739,0.20062256,0.1875,-0.46875,-0.015625
1696254793939,-0.052978516,-0.9678345,0.19232178,-0.21875,-0.828125,0.21875
1696254793979,-0.052978516,-0.9746704,0.19696045,-0.65625,-0.390625,0.109375
1696254794025,-0.059814453,-0.97613525,0.19573975,-1.234375,-0.96875,0.15625
1696254794061,-0.053222656,-0.9763794,0.199646,-0.328125,-0.28125,0.203125
1696254794100,-0.04711914,-0.97442627,0.19818115,-0.203125,-0.546875,-0.03125
1696254794144,-0.05493164,-0.9817505,0.18988037,-0.28125,-0.09375,-0.078125
1696254794180,-0.051513672,-0.9771118,0.20037842,0.078125,-0.484375,-0.0625
1696254794220,-0.056152344,-0.9741821,0.19940186,0.09375,-0.765625,0.125
1696254794259,-0.056396484,-0.9717407,0.19622803,-0.140625,-0.703125,-0.015625
1696254794279,-0.060302734,-0.9800415,0.19940186,0.359375,-0.421875,0.375
1696254794320,-0.053710938,-0.9751587,0.19451904,0.609375,-0.9375,0.3125
1696254794360,-0.0546875,-0.9710083,0.19354248,0.125,-0.9375,0.21875
1696254794401,-0.05419922,-0.9710083,0.19403076,0.8125,-0.359375,0.21875
1696254794440,-0.051513672,-0.97857666,0.19134521,0.6875,-0.5625,0.046875
1696254794481,-0.052734375,-0.96881104,0.19281006,1.328125,-0.375,-0.0625
1696254794519,-0.05883789,-0.9824829,0.18377686,3.84375,0.03125,-0.015625
1696254794561,-0.057373047,-0.9834595,0.19281006,1.859375,-0.328125,0.390625
1696254794599,-0.049804688,-0.97125244,0.18548584,0.546875,-1.203125,0.046875
1696254794639,-0.053466797,-0.9824829,0.18450928,0.359375,-0.6875,-0.109375
1696254794679,-0.055419922,-0.98321533,0.1798706,0.125,-0.90625,-0.09375
1696254794721,-0.060546875,-0.9817505,0.1852417,0.453125,-0.484375,0.03125
1696254794760,-0.064697266,-0.98565674,0.18206787,0.9375,-0.296875,0.09375
1696254794801,-0.05517578,-0.9771118,0.18328857,1.15625,0.40625,0.359375
1696254794839,-0.053222656,-0.97247314,0.17547607,0.8125,-0.828125,0.40625
1696254794880,-0.052246094,-0.9795532,0.17230225,1.375,-0.5,0.359375
1696254794920,-0.051757812,-0.9819946,0.17279053,0.984375,-0.4375,0.328125
1696254794961,-0.05859375,-0.97979736,0.17547607,1.203125,-0.421875,0.390625
1696254795002,-0.060791016,-0.97247314,0.17181396,0.78125,-0.28125,-0.015625
1696254795041,-0.060791016,-0.97857666,0.17352295,0.609375,-0.09375,0.265625
1696254795081,-0.05102539,-0.97735596,0.1696167,0.25,-0.5625,0.375
1696254795120,-0.056396484,-0.97979736,0.16888428,0.21875,-0.703125,0.25
1696254795160,-0.05517578,-0.97735596,0.17449951,-0.34375,-0.71875,0.0625
1696254795201,-0.055419922,-0.97979736,0.16815186,-0.453125,-0.84375,0.0
1696254795239,-0.061767578,-0.9837036,0.17010498,-0.515625,-0.390625,0.078125
1696254795282,-0.052734375,-0.9776001,0.17156982,-0.328125,-0.8125,-0.15625
1696254795320,-0.057861328,-0.98223877,0.1762085,-0.5,-0.625,-0.015625
1696254795359,-0.064208984,-0.98223877,0.1708374,-0.875,-0.453125,0.078125
1696254795400,-0.048339844,-0.9783325,0.1762085,-0.1875,-0.203125,-0.1875
1696254795440,-0.053466797,-0.9793091,0.17132568,-0.125,-0.46875,0.171875
1696254795480,-0.049560547,-0.98223877,0.17303467,-0.8125,-0.453125,-0.078125
1696254795520,-0.061035156,-0.98565674,0.168396,-0.78125,-0.546875,0.109375
1696254795560,-0.0637207,-0.9805298,0.1798706,-0.84375,-0.25,0.140625
1696254795579,-0.057128906,-0.9812622,0.18353271,-0.59375,-0.546875,0.109375
1696254795645,-0.056152344,-0.9846802,0.17767334,-1.40625,-0.5,0.03125
1696254795659,-0.056884766,-0.97906494,0.17938232,-1.453125,-1.15625,0.21875
1696254795700,-0.053222656,-0.9841919,0.18231201,-0.375,-0.53125,0.171875
1696254795741,-0.052978516,-0.9729614,0.17889404,-0.796875,-0.1875,0.1875
1696254795780,-0.06347656,-0.9817505,0.18157959,0.453125,-0.75,0.171875
1696254795820,-0.05517578,-0.9807739,0.18157959,-0.046875,-0.546875,0.21875
1696254795861,-0.05834961,-0.97613525,0.1798706,0.0,-0.421875,0.1875
1696254795901,-0.061523438,-0.9819946,0.18353271,0.078125,-0.6875,0.28125
1696254795962,-0.057617188,-0.98516846,0.1852417,-0.5625,-1.140625,0.4375
1696254795979,-0.060791016,-0.9854126,0.18157959,0.296875,-0.875,0.234375
1696254796043,-0.05126953,-0.98028564,0.18328857,-0.40625,-0.828125,0.421875
1696254796061,-0.057861328,-0.9834595,0.1828003,-0.109375,-1.140625,0.75
1696254796119,-0.059326172,-0.9819946,0.18548584,0.390625,-0.53125,-0.03125
1696254796139,-0.061035156,-0.9819946,0.17669678,0.578125,-0.1875,0.078125
1696254796198,-0.057373047,-0.98321533,0.17718506,0.40625,0.171875,0.09375
1696254796238,-0.0546875,-0.98101807,0.17132568,-0.046875,-0.515625,0.109375
1696254796260,-0.055664062,-0.9817505,0.1749878,0.109375,-0.375,0.359375
1696254796301,-0.055419922,-0.9710083,0.18377686,0.234375,-0.421875,0.328125
1696254796339,-0.064208984,-0.9849243,0.18109131,-0.6875,-0.234375,0.15625
1696254796382,-0.06518555,-0.97735596,0.18133545,0.1875,-0.078125,-0.046875
1696254796423,-0.048095703,-0.97491455,0.18084717,-0.1875,-0.453125,-0.046875
1696254796459,-0.056640625,-0.9678345,0.17474365,-0.578125,-0.375,-0.109375
1696254796499,-0.057861328,-0.9854126,0.17938232,0.15625,-0.265625,0.5
1696254796539,-0.0625,-0.9817505,0.1798706,0.1875,-0.15625,0.21875
1696254796599,-0.060058594,-0.97662354,0.1828003,0.125,-0.3125,0.03125
1696254796620,-0.057617188,-0.98028564,0.17108154,-0.171875,-0.15625,0.140625
1696254796662,-0.056396484,-0.97979736,0.17279053,0.0625,-0.234375,0.4375
1696254796720,-0.056396484,-0.975647,0.1828003,0.078125,-0.40625,0.1875
1696254796739,-0.05444336,-0.97247314,0.17913818,-0.28125,-0.34375,0.078125
1696254796799,-0.057617188,-0.9800415,0.1786499,-0.125,-0.484375,0.484375
1696254796819,-0.053955078,-0.9727173,0.17840576,0.1875,-0.6875,0.296875
1696254796883,-0.05810547,-0.9793091,0.18865967,0.421875,-0.78125,0.265625
1696254796923,-0.064208984,-0.9829712,0.17474365,0.375,-0.5,0.296875
1696254796927,-0.063964844,-0.97613525,0.17547607,-0.71875,-0.359375,0.015625
1696254796960,-0.06347656,-0.9812622,0.18328857,-0.015625,-0.328125,0.25
1696254797002,-0.057617188,-0.9780884,0.18695068,-0.34375,-0.65625,-0.046875
1696254797040,-0.061767578,-0.97735596,0.1828003,-0.390625,-0.46875,0.21875
1696254797082,-0.064453125,-0.9824829,0.18255615,-0.1875,-0.40625,0.171875
1696254797122,-0.056640625,-0.9800415,0.18011475,-0.421875,-0.59375,0.046875
1696254797161,-0.05883789,-0.97003174,0.18475342,-1.5625,-0.671875,-0.4375
1696254797199,-0.06567383,-0.987854,0.18792725,-1.203125,-0.078125,-0.109375
1696254797239,-0.0637207,-0.98638916,0.18353271,-0.671875,-0.5625,0.390625
1696254797279,-0.056640625,-0.9768677,0.18890381,-1.203125,-0.09375,0.390625
1696254797321,-0.06201172,-0.9663696,0.19403076,-0.53125,-0.328125,0.265625
1696254797361,-0.06591797,-0.9758911,0.18670654,-1.34375,-0.875,0.546875
1696254797399,-0.059570312,-0.9807739,0.19036865,-0.453125,-0.578125,0.484375
1696254797441,-0.057861328,-0.97906494,0.1906128,0.234375,-0.609375,0.28125
1696254797480,-0.060546875,-0.9727173,0.19403076,-0.15625,-0.3125,0.34375
1696254797521,-0.064208984,-0.98101807,0.18548584,0.03125,-0.921875,0.421875
1696254797560,-0.057373047,-0.972229,0.19281006,0.15625,-0.21875,0.078125
1696254797601,-0.056396484,-0.975647,0.19451904,0.203125,-1.25,0.546875
1696254797640,-0.05810547,-0.98321533,0.18890381,-1.328125,-1.171875,0.015625
1696254797680,-0.072753906,-0.9780884,0.1954956,-0.546875,-0.4375,0.203125
1696254797719,-0.051757812,-0.9771118,0.19671631,0.046875,-0.515625,0.296875
1696254797761,-0.05859375,-0.9758911,0.19207764,-0.671875,-1.015625,0.21875
1696254797801,-0.057617188,-0.97735596,0.19500732,-1.359375,-0.546875,0.21875
1696254797840,-0.057373047,-0.98565674,0.2033081,-0.328125,-0.921875,0.546875
1696254797881,-0.052246094,-0.9680786,0.19476318,-1.109375,-1.109375,0.203125
1696254797921,-0.060302734,-0.9717407,0.19866943,-1.09375,-0.953125,0.390625
1696254797959,-0.06640625,-0.9780884,0.19134521,-0.03125,-1.1875,0.421875
1696254797999,-0.056640625,-0.9763794,0.20037842,-0.453125,-0.6875,0.234375
1696254798063,-0.05834961,-0.9771118,0.20037842,-0.4375,-1.1875,0.515625
1696254798080,-0.060302734,-0.9734497,0.20404053,-0.890625,-1.015625,0.234375
1696254798143,-0.063964844,-0.9690552,0.20697021,-0.671875,-0.3125,0.09375
1696254798159,-0.056396484,-0.97735596,0.19671631,-0.546875,-0.625,0.28125
1696254798221,-0.060058594,-0.97369385,0.20404053,-0.421875,-0.6875,0.078125
1696254798260,-0.060791016,-0.98150635,0.19915771,-0.34375,-0.78125,0.234375
1696254798264,-0.05126953,-0.9746704,0.20062256,0.625,-0.1875,0.375
