,timestamp,accel_x,accel_y,accel_z,gyro_x,gyro_y,gyro_z,ind
0,1696249588830,-0.3840332,-0.75323486,0.61712646,2.0625,0.109375,0.59375,0
1,1696249588870,-0.34692383,-0.72247314,0.45013428,11.203125,-4.421875,2.59375,16
2,1696249588910,-0.22827148,-0.803772,0.4401245,50.5,0.046875,11.421875,17
3,1696249588950,-0.22607422,-0.9077759,0.34906006,4.84375,4.578125,11.65625,18
4,1696249588990,-0.44628906,-0.95880127,0.49993896,6.109375,-26.953125,3.828125,19
5,1696249589030,-0.32983398,-0.8862915,0.57806396,-11.84375,-2.671875,-12.71875,20
6,1696249589070,-0.37353516,-0.63067627,0.4328003,-16.84375,-4.578125,-3.203125,21
7,1696249589110,-0.47875977,-0.788147,0.4730835,-14.984375,2.203125,6.984375,22
8,1696249589150,-0.41552734,-0.9661255,0.5963745,-15.765625,-2.0,-9.046875,23
9,1696249589190,-0.15454102,-0.7998657,0.43426514,-9.796875,-6.328125,-5.3125,24
10,1696249589230,-0.30737305,-0.89434814,0.4616089,4.109375,-0.578125,12.3125,25
11,1696249589270,-0.5214844,-0.8101196,0.5001831,14.3125,2.640625,-5.0625,26
12,1696249589310,-0.29516602,-0.84161377,0.29925537,16.671875,-11.046875,1.375,27
13,1696249589350,-0.29370117,-0.86383057,0.4442749,-15.4375,-12.4375,6.84375,28
14,1696249589390,-0.6147461,-0.7542114,0.6029663,2.046875,11.703125,-6.875,29
15,1696249589430,-0.35107422,-0.7737427,0.4389038,-15.125,-0.703125,-7.609375,30
16,1696249589470,-0.22998047,-0.63848877,0.51971436,-2.90625,6.140625,1.84375,31
17,1696249589510,-0.21606445,-0.7888794,0.51849365,-4.9375,-3.078125,-5.9375,32
18,1696249589550,-0.3701172,-1.0022583,0.45477295,-1.140625,-9.71875,-5.703125,33
19,1696249589590,-0.5227051,-0.9055786,0.5116577,3.28125,10.109375,1.78125,34
20,1696249589630,-0.56469727,-0.77056885,0.48406982,3.5625,0.140625,1.484375,35
21,1696249589670,-0.3642578,-0.70196533,0.4298706,11.859375,-2.546875,3.453125,36
22,1696249589710,-0.24145508,-0.9072876,0.6161499,-6.703125,-10.140625,9.296875,37
23,1696249589750,-0.5522461,-0.8909302,0.73114014,-11.609375,-1.765625,-1.5625,38
24,1696249589790,-0.6452637,-0.7539673,0.45062256,-11.1875,9.5625,2.96875,39
25,1696249589830,-0.1105957,-0.5003052,0.6051636,-0.515625,1.6875,4.90625,40
26,1696249589870,-0.08862305,-0.70391846,0.6000366,0.34375,3.1875,1.0625,41
27,1696249589910,-0.28735352,-0.9368286,0.49383545,-12.6875,-17.015625,-10.234375,42
28,1696249589950,-0.48046875,-0.95928955,0.5700073,-0.578125,3.84375,-4.5,43
29,1696249589990,-0.5410156,-0.81207275,0.41571045,7.296875,8.328125,3.390625,44
30,1696249590030,-0.47753906,-0.69903564,0.52508545,6.75,-0.125,-1.078125,45
31,1696249590070,-0.46289062,-0.9187622,0.45404053,5.71875,-11.015625,13.109375,46
32,1696249590110,-0.4111328,-0.88067627,0.51776123,-15.125,-8.84375,7.71875,47
33,1696249590150,-0.51586914,-0.72125244,0.57147217,-8.453125,25.171875,-6.59375,48
34,1696249590190,-0.095703125,-0.58258057,0.65057373,-7.703125,8.328125,-0.71875,49
35,1696249590230,0.033203125,-0.5523071,0.5927124,-9.265625,-10.953125,1.015625,50
36,1696249590270,-0.32299805,-0.84259033,0.6034546,-24.171875,-8.203125,-18.625,51
37,1696249590310,-0.65527344,-0.84503174,0.699646,-10.78125,9.640625,-16.96875,52
38,1696249590350,-0.49389648,-0.75567627,0.6383667,6.359375,17.75,7.71875,53
39,1696249590390,-0.36254883,-0.73565674,0.586853,2.640625,16.8125,4.28125,54
40,1696249590430,-0.39892578,-0.81134033,0.61395264,9.03125,18.984375,-2.328125,55
41,1696249590470,-0.38842773,-0.89801025,0.6508179,7.15625,8.125,1.0625,56
42,1696249590510,-0.34399414,-0.7842407,0.6100464,13.40625,2.578125,2.734375,57
43,1696249590550,-0.31640625,-0.66973877,0.5639038,18.21875,-0.296875,2.40625,58
44,1696249590590,-0.30541992,-0.7149048,0.5704956,11.75,-4.09375,2.78125,59
45,1696249590630,-0.3173828,-0.8225708,0.5841675,7.859375,-4.109375,4.03125,60
46,1696249590670,-0.33789062,-0.8237915,0.52630615,6.5,-3.65625,4.125,61
47,1696249590710,-0.33520508,-0.79571533,0.5675659,3.875,-7.25,7.4375,62
48,1696249590750,-0.26660156,-0.7966919,0.5482788,5.109375,-8.296875,4.46875,63
49,1696249590790,-0.28271484,-0.8213501,0.48260498,4.234375,-6.875,-1.15625,64
50,1696249590830,-0.3486328,-0.82647705,0.48187256,5.328125,-6.640625,0.796875,65
51,1696249590870,-0.35546875,-0.8189087,0.4586792,9.765625,-7.015625,3.0,66
52,1696249590910,-0.2590332,-0.8189087,0.45794678,11.796875,-1.6875,2.59375,67
53,1696249590950,-0.24194336,-0.7625122,0.37982178,24.640625,8.1875,4.6875,68
54,1696249590990,-0.30126953,-0.89678955,0.3632202,16.953125,-10.15625,12.484375,69
55,1696249591030,-0.26904297,-1.0562134,0.53704834,-8.921875,-9.28125,3.171875,70
56,1696249591070,-0.421875,-0.7954712,0.62054443,-24.984375,-10.8125,-17.71875,71
57,1696249591110,-0.49438477,-0.6675415,0.4328003,-20.421875,-3.34375,6.6875,72
58,1696249591150,-0.33422852,-0.75323486,0.6005249,1.4375,-1.765625,2.1875,73
59,1696249591190,-0.118652344,-1.0376587,0.48065186,3.046875,-9.15625,-5.515625,74
60,1696249591230,-0.28442383,-0.9517212,0.5582886,-1.875,8.75,-3.84375,75
61,1696249591270,-0.49560547,-0.77349854,0.36712646,-5.765625,11.34375,3.203125,76
62,1696249591310,-0.3762207,-0.68927,0.5194702,2.96875,4.34375,-7.78125,77
63,1696249591350,-0.2770996,-0.7942505,0.5680542,-5.703125,-0.171875,-2.484375,78
64,1696249591390,-0.34277344,-0.9771118,0.3600464,0.96875,-9.234375,7.953125,79
65,1696249591430,-0.30200195,-0.9668579,0.50579834,3.0,-0.5,-4.0,80
66,1696249591470,-0.27392578,-0.7642212,0.5704956,-3.625,-13.453125,-0.296875,81
67,1696249591510,-0.49926758,-0.7671509,0.6088257,-18.71875,-2.375,-5.6875,82
68,1696249591550,-0.3984375,-0.7932739,0.48431396,-4.390625,-9.25,-0.484375,83
69,1696249591590,-0.26049805,-0.63360596,0.67718506,-7.40625,-5.359375,-7.3125,84
70,1696249591630,-0.32836914,-0.75616455,0.47332764,16.453125,8.65625,-1.4375,85
71,1696249591670,-0.36865234,-1.0720825,0.43475342,-8.6875,-1.859375,-4.59375,86
72,1696249591710,-0.38085938,-0.894104,0.5758667,-3.0625,10.515625,-6.53125,87
73,1696249591750,-0.3947754,-0.7542114,0.50579834,8.53125,17.984375,-1.671875,88
74,1696249591790,-0.52856445,-0.7022095,0.38616943,-5.296875,4.53125,0.84375,89
75,1696249591830,-0.36157227,-0.8110962,0.6195679,2.640625,-4.40625,2.75,90
76,1696249591870,-0.3161621,-0.8960571,0.5944214,3.78125,-3.796875,8.625,91
77,1696249591910,-0.37646484,-0.8779907,0.324646,12.328125,-10.8125,7.625,92
78,1696249591950,-0.05908203,-0.8743286,0.416687,-16.609375,-10.28125,-1.65625,93
79,1696249591990,-0.58618164,-0.60406494,0.6359253,-8.625,8.25,-1.984375,94
80,1696249592030,-0.53027344,-0.80059814,0.5499878,-10.609375,-0.875,-3.25,95
81,1696249592070,-0.21655273,-0.8311157,0.37542725,-7.9375,7.0,-4.5,96
82,1696249592110,-0.1550293,-0.71295166,0.59661865,-18.3125,-12.859375,-8.703125,97
83,1696249592150,-0.35498047,-0.83306885,0.666687,-21.53125,-1.0625,-14.046875,98
84,1696249592190,-0.5786133,-0.8086548,0.4911499,-20.046875,-3.75,-9.484375,99
85,1696249592230,-0.513916,-0.7449341,0.6766968,-5.390625,8.3125,-5.09375,100
86,1696249592270,-0.40649414,-0.6917114,0.70770264,9.078125,17.625,3.5625,101
87,1696249592310,-0.46118164,-0.8098755,0.6256714,15.609375,18.609375,11.359375,102
88,1696249592350,-0.36767578,-0.7439575,0.637146,22.046875,16.703125,11.203125,103
89,1696249592390,-0.2788086,-0.7217407,0.5553589,20.140625,11.265625,4.3125,104
90,1696249592430,-0.28076172,-0.78204346,0.53656006,7.75,-0.453125,2.78125,105
91,1696249592470,-0.32958984,-0.82818604,0.5380249,12.1875,1.59375,5.015625,106
92,1696249592510,-0.33618164,-0.864563,0.5524292,13.90625,-0.296875,4.265625,107
93,1696249592550,-0.28173828,-0.8130493,0.527771,3.859375,-5.484375,4.0,108
94,1696249592590,-0.30029297,-0.77301025,0.5180054,3.703125,-6.828125,1.75,109
95,1696249592630,-0.3010254,-0.8057251,0.50897217,1.734375,-7.125,-0.3125,110
96,1696249592670,-0.2993164,-0.81695557,0.50579834,5.09375,-6.609375,1.953125,111
97,1696249592710,-0.28027344,-0.8171997,0.47528076,8.09375,-5.5,1.984375,112
98,1696249592750,-0.30981445,-0.84088135,0.48480225,6.90625,-4.453125,0.828125,113
99,1696249592790,-0.3076172,-0.8135376,0.47576904,10.046875,-0.515625,0.4375,114
100,1696249592830,-0.31713867,-0.8171997,0.37713623,17.546875,-0.28125,7.171875,115
101,1696249592870,-0.34350586,-0.92388916,0.35516357,6.609375,-17.9375,12.3125,116
102,1696249592910,-0.1784668,-0.973938,0.5314331,-14.5,-9.21875,-2.265625,117
103,1696249592950,-0.38549805,-0.8049927,0.60614014,-29.65625,-11.453125,-16.890625,118
104,1696249592990,-0.5644531,-0.7859497,0.4484253,-21.484375,2.140625,4.640625,119
105,1696249593030,-0.4248047,-0.63653564,0.60028076,-13.484375,6.0,-2.734375,120
106,1696249593070,-0.16796875,-0.8508911,0.58026123,-10.109375,-3.375,-6.015625,121
107,1696249593110,-0.13671875,-0.79522705,0.6222534,-9.15625,-3.0,-3.21875,122
108,1696249593150,-0.41064453,-0.93878174,0.48602295,21.578125,0.125,9.078125,123
109,1696249593190,-0.45092773,-0.84576416,0.42547607,1.15625,-2.96875,-3.03125,124
110,1696249593230,-0.31176758,-0.79473877,0.37200928,10.734375,-12.703125,1.828125,125
111,1696249593270,-0.31030273,-0.91412354,0.61468506,-10.9375,-9.078125,-1.78125,126
112,1696249593310,-0.52612305,-0.80010986,0.53289795,-8.703125,7.65625,-6.65625,127
113,1696249593350,-0.40185547,-0.7337036,0.66522217,0.984375,7.109375,-8.484375,128
114,1696249593390,-0.28320312,-0.6140747,0.52679443,12.78125,7.828125,2.71875,129
115,1696249593430,-0.19140625,-0.84698486,0.36810303,7.34375,-12.375,11.140625,130
116,1696249593470,-0.2998047,-0.9048462,0.49017334,-7.453125,-16.046875,-6.484375,131
117,1696249593510,-0.515625,-0.9685669,0.47039795,1.890625,12.59375,0.609375,132
118,1696249593550,-0.39868164,-0.8101196,0.35369873,3.21875,-13.671875,2.015625,133
119,1696249593590,-0.25805664,-0.89190674,0.607605,-15.0625,-5.671875,-1.265625,134
120,1696249593630,-0.56396484,-0.7112427,0.7184448,3.296875,18.390625,-9.0,135
121,1696249593670,-0.36132812,-0.6382446,0.58392334,-6.953125,-2.59375,-3.953125,136
122,1696249593710,-0.21875,-0.5745239,0.5187378,18.484375,11.203125,-1.9375,137
123,1696249593750,-0.3095703,-0.9624634,0.42425537,-3.890625,-10.84375,3.46875,138
124,1696249593790,-0.46289062,-1.0952759,0.5465698,-8.21875,-2.1875,2.21875,139
125,1696249593830,-0.3840332,-0.85943604,0.38568115,-8.21875,6.5625,3.171875,140
126,1696249593870,-0.51220703,-0.63653564,0.51483154,2.078125,7.609375,-6.125,141
127,1696249593910,-0.33642578,-0.8152466,0.5753784,-4.515625,-1.265625,-2.125,142
128,1696249593950,-0.3322754,-0.83380127,0.60809326,-10.5625,-5.125,-0.46875,143
129,1696249593990,-0.40234375,-0.7229614,0.5595093,-1.625,-7.078125,-4.6875,144
130,1696249594030,-0.3100586,-0.7554321,0.4105835,7.984375,-4.578125,0.828125,145
131,1696249594070,-0.25854492,-0.8152466,0.53582764,-9.46875,-14.203125,10.421875,146
132,1696249594110,-0.6411133,-0.8850708,0.6930542,0.828125,-0.84375,-0.84375,147
133,1696249594150,-0.56225586,-0.8479614,0.5180054,-12.171875,5.3125,-1.109375,148
134,1696249594190,-0.22290039,-0.55426025,0.5482788,-2.046875,6.0,4.828125,149
135,1696249594230,-0.09423828,-0.802063,0.5097046,-9.171875,-9.5,-9.40625,150
136,1696249594270,-0.41137695,-0.7998657,0.6288452,-26.484375,-9.46875,-19.75,151
137,1696249594310,-0.5722656,-0.8599243,0.6815796,-9.578125,7.40625,-15.765625,152
138,1696249594350,-0.57250977,-0.69000244,0.6256714,-2.625,25.03125,-10.109375,153
139,1696249594390,-0.44995117,-0.6633911,0.63275146,10.203125,25.96875,6.625,154
140,1696249594430,-0.40063477,-0.7788696,0.53704834,-2.53125,6.703125,10.625,155
141,1696249594470,-0.43041992,-0.7859497,0.6293335,5.40625,7.125,6.59375,156
142,1696249594510,-0.32788086,-0.74835205,0.65789795,19.703125,6.546875,6.796875,157
143,1696249594550,-0.28833008,-0.71661377,0.62957764,11.671875,1.703125,5.796875,158
144,1696249594590,-0.2980957,-0.74884033,0.5639038,13.6875,2.65625,3.1875,159
145,1696249594630,-0.34155273,-0.79107666,0.5829468,14.953125,1.265625,3.703125,160
146,1696249594670,-0.3564453,-0.82037354,0.5697632,6.5625,-2.09375,6.140625,161
147,1696249594710,-0.36621094,-0.7913208,0.5531616,-2.390625,-8.015625,2.125,162
148,1696249594750,-0.3347168,-0.80548096,0.5639038,5.3125,-5.359375,0.921875,163
149,1696249594790,-0.29467773,-0.8076782,0.51556396,3.21875,-1.640625,0.53125,164
150,1696249594830,-0.32128906,-0.7896118,0.5314331,2.3125,-2.421875,3.03125,165
151,1696249594870,-0.33081055,-0.7954712,0.508728,2.640625,-4.5,2.359375,166
152,1696249594910,-0.3232422,-0.7954712,0.5504761,5.40625,-7.171875,1.84375,167
153,1696249594950,-0.2709961,-0.79156494,0.4869995,11.515625,-7.15625,3.09375,168
154,1696249594990,-0.26171875,-0.7476196,0.42303467,17.46875,2.640625,1.125,169
155,1696249595030,-0.39404297,-0.847229,0.447937,8.6875,8.140625,11.609375,170
156,1696249595070,-0.39331055,-0.8779907,0.5819702,11.046875,-18.5625,7.0,171
157,1696249595110,-0.14379883,-0.8657837,0.4677124,-8.53125,-7.703125,-2.484375,172
158,1696249595150,-0.22338867,-0.8274536,0.46063232,-3.1875,-11.671875,1.25,173
159,1696249595190,-0.4543457,-0.9014282,0.39544678,-10.578125,-15.03125,0.046875,174
160,1696249595230,-0.42700195,-0.8796997,0.5536499,-9.625,6.671875,-11.34375,175
161,1696249595270,-0.28271484,-0.8303833,0.5709839,-19.15625,-7.46875,-0.96875,176
162,1696249595310,-0.40307617,-0.611145,0.5079956,-0.90625,3.671875,-2.015625,177
163,1696249595350,-0.22753906,-0.8623657,0.4928589,4.703125,-2.328125,-0.578125,178
164,1696249595390,-0.29296875,-0.87677,0.5477905,-6.265625,-4.890625,-9.09375,179
165,1696249595430,-0.47607422,-1.017395,0.4923706,12.8125,12.53125,1.609375,180
166,1696249595470,-0.44189453,-0.63848877,0.40179443,-7.484375,-1.46875,-4.15625,181
167,1696249595510,-0.36206055,-0.69781494,0.4804077,4.46875,-5.625,-0.421875,182
168,1696249595550,-0.20678711,-0.960022,0.5360718,-14.671875,-22.84375,-0.890625,183
169,1696249595590,-0.5703125,-0.9961548,0.69207764,-3.171875,3.828125,0.171875,184
170,1696249595630,-0.4753418,-0.66290283,0.41229248,-9.265625,7.78125,-1.171875,185
171,1696249595670,-0.3166504,-0.4602661,0.61590576,-0.5,-2.546875,-5.8125,186
172,1696249595710,-0.1850586,-0.84161377,0.5170288,18.09375,8.21875,4.671875,187
173,1696249595750,-0.30908203,-1.0591431,0.5084839,-16.09375,-8.515625,-1.96875,188
174,1696249595790,-0.49560547,-0.79107666,0.6034546,-2.46875,11.578125,-5.34375,189
175,1696249595830,-0.5185547,-0.7659302,0.385437,0.28125,15.1875,-1.90625,190
176,1696249595870,-0.29614258,-0.7932739,0.48480225,-10.890625,-5.5,-1.59375,191
177,1696249595910,-0.35327148,-0.7683716,0.6610718,-0.765625,2.40625,-1.828125,192
178,1696249595950,-0.43310547,-0.784729,0.5812378,6.046875,-14.1875,0.25,193
179,1696249595990,-0.41967773,-0.74468994,0.44696045,15.75,-8.9375,8.828125,194
180,1696249596030,-0.29125977,-1.0420532,0.66400146,-8.203125,-4.796875,7.328125,195
181,1696249596070,-0.52124023,-0.6748657,0.434021,-27.015625,8.796875,-3.421875,196
182,1696249596110,-0.32983398,-0.4932251,0.66326904,13.46875,3.171875,-0.75,197
183,1696249596150,-0.25268555,-0.59698486,0.527771,3.3125,7.046875,0.0,198
184,1696249596190,-0.2788086,-1.0374146,0.3847046,-23.140625,-13.421875,-2.796875,199
185,1696249596230,-0.4074707,-0.9631958,0.75531006,-16.046875,8.125,-13.328125,200
186,1696249596270,-0.38842773,-0.7390747,0.52752686,-8.875,5.78125,-12.140625,201
187,1696249596310,-0.45507812,-0.5383911,0.52923584,-16.71875,0.53125,-10.53125,202
188,1696249596350,-0.4350586,-0.6651001,0.7526245,-2.015625,10.703125,-4.390625,203
189,1696249596390,-0.42016602,-0.8250122,0.701355,-1.0,11.5625,3.953125,204
190,1696249596430,-0.4572754,-0.7493286,0.6713257,7.09375,15.125,8.859375,205
191,1696249596470,-0.36376953,-0.6958618,0.60980225,11.03125,5.046875,6.75,206
192,1696249596510,-0.29614258,-0.70928955,0.6022339,3.953125,-1.984375,2.84375,207
193,1696249596550,-0.31835938,-0.7546997,0.6102905,3.015625,1.984375,3.8125,208
194,1696249596590,-0.38623047,-0.75909424,0.61151123,4.375,2.125,5.515625,209
195,1696249596630,-0.3786621,-0.7490845,0.64227295,5.265625,1.015625,2.546875,210
196,1696249596670,-0.3322754,-0.76934814,0.6539917,12.4375,3.875,3.703125,211
197,1696249596710,-0.34228516,-0.8128052,0.6412964,19.921875,6.28125,5.0625,212
198,1696249596750,-0.3461914,-0.8076782,0.5883179,11.15625,0.0625,3.6875,213
199,1696249596790,-0.35205078,-0.7942505,0.54119873,9.640625,-1.921875,2.59375,214
200,1696249596830,-0.29467773,-0.80596924,0.54803467,4.03125,-6.3125,1.609375,215
201,1696249596870,-0.27075195,-0.8074341,0.56585693,7.109375,-3.6875,0.0,216
202,1696249596910,-0.31518555,-0.8147583,0.5192261,7.90625,-3.46875,0.90625,217
203,1696249596950,-0.31518555,-0.7835083,0.5038452,1.921875,-5.671875,0.828125,218
204,1696249596990,-0.32055664,-0.769104,0.45843506,7.96875,-10.84375,2.78125,219
205,1696249597030,-0.26708984,-0.80548096,0.43695068,19.84375,-10.09375,4.875,220
206,1696249597070,-0.20117188,-0.82769775,0.46624756,22.203125,12.328125,6.15625,221
207,1696249597110,-0.3713379,-0.8665161,0.37249756,-6.609375,-18.9375,9.828125,222
208,1696249597150,-0.2915039,-0.97979736,0.6259155,-5.921875,-17.078125,-6.546875,223
209,1696249597190,-0.3215332,-0.8411255,0.5463257,-33.359375,-17.9375,-9.5,224
210,1696249597230,-0.52490234,-0.692688,0.41888428,-14.140625,-2.3125,-1.046875,225
211,1696249597270,-0.35327148,-0.8279419,0.5162964,-7.84375,-3.6875,-5.46875,226
212,1696249597310,-0.37597656,-0.83380127,0.5927124,-9.46875,-0.265625,-8.75,227
213,1696249597350,-0.21386719,-0.77838135,0.47894287,-3.65625,5.59375,3.015625,228
214,1696249597390,-0.3310547,-0.79107666,0.5453491,-18.609375,-0.328125,-5.953125,229
215,1696249597430,-0.4807129,-0.7698364,0.5927124,2.640625,2.890625,-10.34375,230
216,1696249597470,-0.45043945,-0.90216064,0.53826904,-3.65625,0.96875,3.703125,231
217,1696249597510,-0.41503906,-0.70977783,0.46258545,15.046875,-6.625,5.015625,232
218,1696249597550,-0.24926758,-0.83599854,0.49822998,3.78125,-15.40625,2.671875,233
219,1696249597590,-0.4597168,-0.8779907,0.5482788,-12.90625,-5.578125,2.203125,234
220,1696249597630,-0.52124023,-0.75250244,0.71502686,4.9375,0.640625,-7.484375,235
221,1696249597670,-0.27783203,-0.6651001,0.50408936,-8.90625,4.25,-0.265625,236
222,1696249597710,-0.27148438,-0.663147,0.47991943,-6.765625,-1.828125,-4.21875,237
223,1696249597750,-0.2788086,-0.8081665,0.5541382,-10.1875,-3.796875,-7.390625,238
224,1696249597790,-0.44384766,-0.78912354,0.6400757,-14.8125,0.21875,-5.796875,239
225,1696249597830,-0.58984375,-0.8267212,0.69158936,4.125,16.15625,-5.859375,240
226,1696249597870,-0.5966797,-0.772522,0.5831909,-0.671875,28.8125,0.15625,241
227,1696249597910,-0.49145508,-0.8237915,0.39031982,-2.453125,20.015625,6.5,242
228,1696249597950,-0.2109375,-0.72906494,0.5385132,12.8125,5.34375,9.140625,243
229,1696249597990,-0.21044922,-0.71661377,0.75897217,6.484375,-4.53125,-2.328125,244
230,1696249598030,-0.24780273,-0.77423096,0.5084839,7.375,-12.375,3.78125,245
231,1696249598070,-0.25708008,-0.77789307,0.36932373,19.734375,-18.6875,11.90625,246
232,1696249598110,-0.3095703,-0.90875244,0.68255615,-7.171875,-13.828125,1.671875,247
233,1696249598150,-0.59033203,-0.7251587,0.57684326,2.515625,0.109375,-9.0,248
234,1696249598190,-0.36743164,-0.76275635,0.47869873,4.125,1.5,-1.625,249
235,1696249598230,-0.37524414,-0.69610596,0.5150757,-11.109375,4.515625,0.8125,250
236,1696249598270,-0.30517578,-0.7788696,0.6141968,-21.625,-7.796875,-16.859375,251
237,1696249598310,-0.36865234,-0.74542236,0.68865967,-29.921875,-2.515625,-16.828125,252
238,1696249598350,-0.44848633,-0.817688,0.6408081,-0.046875,27.59375,-4.140625,253
239,1696249598390,-0.5522461,-0.81744385,0.56414795,10.078125,20.578125,6.03125,254
240,1696249598430,-0.49194336,-0.7337036,0.6066284,6.90625,6.890625,3.078125,255
241,1696249598470,-0.30200195,-0.75079346,0.6305542,13.765625,9.875,4.9375,256
242,1696249598510,-0.3071289,-0.78741455,0.61761475,8.65625,6.375,8.171875,257
243,1696249598550,-0.34033203,-0.74835205,0.5997925,8.875,3.09375,4.859375,258
244,1696249598590,-0.32421875,-0.73101807,0.6190796,9.078125,-2.8125,2.703125,259
245,1696249598630,-0.28735352,-0.7576294,0.6034546,4.0625,-5.765625,4.625,260
246,1696249598670,-0.3017578,-0.7839966,0.5726929,3.0,-6.25,5.6875,261
247,1696249598710,-0.31347656,-0.8049927,0.5997925,9.921875,-3.84375,4.59375,262
248,1696249598750,-0.32250977,-0.8362427,0.56243896,11.578125,-5.015625,7.25,263
249,1696249598790,-0.3544922,-0.8008423,0.48675537,0.140625,-8.8125,2.71875,264
250,1696249598830,-0.32739258,-0.7979126,0.5331421,4.953125,-1.75,0.46875,265
251,1696249598870,-0.28588867,-0.83258057,0.5463257,4.734375,-3.53125,1.453125,266
252,1696249598910,-0.3305664,-0.7991333,0.5114136,1.21875,-6.78125,-0.734375,267
253,1696249598950,-0.2919922,-0.81695557,0.47479248,11.609375,-6.046875,1.375,268
254,1696249598990,-0.2553711,-0.77789307,0.45111084,15.859375,-2.84375,1.609375,269
255,1696249599030,-0.29882812,-0.78009033,0.434021,27.296875,8.515625,7.09375,270
256,1696249599070,-0.4116211,-1.0176392,0.47235107,18.5625,-1.28125,18.984375,271
257,1696249599110,-0.3166504,-0.9168091,0.4611206,1.3125,-6.1875,3.515625,272
258,1696249599150,-0.29248047,-0.78326416,0.43670654,-5.703125,-12.0625,-4.375,273
259,1696249599190,-0.27514648,-0.8123169,0.4533081,-15.921875,-17.53125,-0.203125,274
260,1696249599230,-0.30371094,-0.9102173,0.5223999,-8.640625,-7.6875,-1.71875,275
261,1696249599270,-0.30419922,-0.9192505,0.4874878,-8.40625,-4.203125,-6.359375,276
262,1696249599310,-0.27148438,-0.7630005,0.45111084,-20.296875,-12.703125,-5.1875,277
263,1696249599350,-0.4272461,-0.772522,0.48895264,-13.671875,9.28125,-3.25,278
264,1696249599390,-0.42236328,-0.8230591,0.55584717,-20.234375,-4.234375,-2.0,279
265,1696249599430,-0.32666016,-0.71881104,0.54071045,14.96875,5.421875,1.734375,280
266,1696249599470,-0.11694336,-0.864563,0.47210693,9.546875,-1.828125,2.203125,281
267,1696249599510,-0.36767578,-1.0227661,0.5536499,2.8125,-1.5,-3.65625,282
268,1696249599550,-0.5107422,-0.84576416,0.36297607,0.375,4.125,-4.84375,283
269,1696249599590,-0.3713379,-0.7022095,0.44354248,-3.859375,0.03125,-4.015625,284
270,1696249599630,-0.20239258,-0.77960205,0.42938232,-17.515625,-17.609375,-3.484375,285
271,1696249599670,-0.34643555,-0.97247314,0.7225952,-21.375,11.953125,-7.5,286
272,1696249599710,-0.5546875,-0.60650635,0.5883179,-13.546875,-4.25,1.09375,287
273,1696249599750,-0.52124023,-0.5293579,0.5873413,18.671875,11.15625,-5.125,288
274,1696249599790,-0.17919922,-0.8755493,0.4677124,0.578125,-5.796875,4.5,289
275,1696249599830,-0.24584961,-1.1314087,0.6598511,-13.921875,1.5,0.84375,290
276,1696249599870,-0.5078125,-0.82159424,0.53118896,2.0,19.6875,-6.140625,291
277,1696249599910,-0.4572754,-0.6140747,0.4389038,-5.078125,6.0,-5.6875,292
278,1696249599950,-0.38549805,-0.63946533,0.54901123,-4.234375,5.796875,2.390625,293
279,1696249599990,-0.2709961,-0.93585205,0.62323,-0.09375,-5.46875,4.484375,294
280,1696249600030,-0.35791016,-0.8381958,0.6884155,3.5,-5.1875,0.296875,295
281,1696249600070,-0.4189453,-0.72125244,0.4755249,12.015625,-2.78125,1.78125,296
282,1696249600110,-0.24853516,-0.6699829,0.39837646,10.25,-9.53125,6.65625,297
283,1696249600150,-0.14379883,-0.9927368,0.6342163,-23.71875,-16.296875,7.65625,298
284,1696249600190,-0.67578125,-0.73565674,0.5988159,-23.125,6.5,-11.078125,299
285,1696249600230,-0.49389648,-0.56207275,0.6090698,9.484375,9.234375,-2.0625,300
286,1696249600270,-0.15820312,-0.5523071,0.66693115,-4.921875,-1.671875,0.0625,301
287,1696249600310,-0.22021484,-0.91656494,0.6071167,-10.9375,-10.265625,-5.515625,302
288,1696249600350,-0.52368164,-0.9846802,0.6486206,-4.4375,7.1875,-10.71875,303
289,1696249600390,-0.4482422,-0.76275635,0.5817261,-5.265625,7.796875,-6.109375,304
290,1696249600430,-0.43896484,-0.5779419,0.4977417,-0.734375,6.09375,-1.296875,305
291,1696249600470,-0.40234375,-0.7630005,0.63861084,8.984375,-0.765625,1.796875,306
292,1696249600510,-0.34033203,-0.91656494,0.5961304,-4.53125,-6.953125,3.984375,307
293,1696249600550,-0.47485352,-0.7078247,0.6124878,1.484375,-5.0,1.578125,308
294,1696249600590,-0.35595703,-0.66241455,0.46331787,23.984375,-16.984375,11.890625,309
295,1696249600630,-0.045898438,-0.8953247,0.74798584,-21.390625,2.828125,-2.71875,310
296,1696249600670,-0.61035156,-0.6687622,0.71429443,-6.5625,3.234375,-5.40625,311
297,1696249600710,-0.42358398,-0.62091064,0.55462646,7.40625,5.03125,-7.59375,312
298,1696249600750,-0.24780273,-0.60723877,0.64398193,-31.75,2.46875,-6.390625,313
299,1696249600790,-0.421875,-0.7576294,0.8722534,-10.328125,13.984375,-6.09375,314
300,1696249600830,-0.5397949,-0.98687744,0.6901245,15.0625,25.9375,-0.5625,315
301,1696249600870,-0.44091797,-0.77130127,0.46209717,17.53125,12.078125,4.265625,316
302,1696249600910,-0.31689453,-0.63653564,0.52093506,19.328125,9.90625,2.65625,317
303,1696249600950,-0.32250977,-0.7503052,0.65911865,16.46875,2.46875,6.28125,318
304,1696249600990,-0.3564453,-0.8526001,0.6322632,24.09375,4.515625,8.78125,319
305,1696249601030,-0.36328125,-0.83795166,0.5993042,21.546875,5.21875,6.125,320
306,1696249601070,-0.3178711,-0.82159424,0.57147217,14.875,-3.25,5.953125,321
307,1696249601110,-0.14404297,-0.7732544,0.48529053,-2.640625,-5.78125,-3.609375,322
308,1696249601150,-0.26538086,-0.75006104,0.53656006,3.515625,-4.765625,-2.1875,323
309,1696249601190,-0.3215332,-0.81085205,0.5031128,9.75,-3.8125,4.75,324
310,1696249601230,-0.34594727,-0.803772,0.4706421,9.359375,-8.609375,2.84375,325
311,1696249601270,-0.2824707,-0.77911377,0.4257202,6.75,-6.390625,1.484375,326
312,1696249601310,-0.2536621,-0.7971802,0.48724365,15.296875,7.4375,4.65625,327
313,1696249601350,-0.30444336,-0.9229126,0.47869873,10.984375,8.0,9.53125,328
314,1696249601390,-0.3696289,-0.90875244,0.39666748,-11.84375,-13.140625,4.6875,329
315,1696249601430,-0.31591797,-0.8843384,0.47528076,2.21875,-31.75,-6.46875,330
316,1696249601470,-0.20532227,-0.800354,0.38079834,5.28125,-1.5625,9.828125,331
317,1696249601510,-0.0690918,-0.93414307,0.401062,-34.671875,-29.359375,-2.609375,332
318,1696249601550,-0.68896484,-0.7559204,0.6757202,-9.375,8.859375,-17.671875,333
319,1696249601590,-0.46362305,-0.73516846,0.5043335,-8.3125,0.8125,0.484375,334
320,1696249601630,-0.27734375,-0.6680298,0.52923584,-13.1875,0.921875,3.578125,335
321,1696249601670,-0.13500977,-0.9573364,0.56170654,-7.484375,-0.75,-5.765625,336
322,1696249601710,-0.32885742,-0.8726196,0.61151123,-20.765625,-2.546875,-9.75,337
323,1696249601750,-0.5214844,-0.7600708,0.5961304,2.796875,13.5625,-5.078125,338
324,1696249601790,-0.42797852,-0.8220825,0.40325928,-1.0625,4.328125,4.09375,339
325,1696249601830,-0.27734375,-0.75372314,0.5621948,5.078125,-0.25,3.265625,340
326,1696249601870,-0.34033203,-0.79571533,0.5812378,12.484375,-9.390625,-1.9375,341
327,1696249601910,-0.3918457,-0.8362427,0.5409546,-5.109375,-20.171875,1.734375,342
328,1696249601950,-0.32421875,-0.87677,0.4406128,4.734375,-10.890625,8.875,343
329,1696249601990,-0.35327148,-0.8233032,0.69085693,-2.5,10.09375,-7.25,344
330,1696249602030,-0.44628906,-0.73272705,0.5939331,-13.6875,-6.21875,-1.78125,345
331,1696249602070,-0.33764648,-0.66363525,0.48919678,-4.5625,2.203125,-4.640625,346
332,1696249602110,-0.2446289,-0.74957275,0.574646,-4.34375,2.296875,-5.0625,347
333,1696249602150,-0.3005371,-0.82891846,0.6039429,-25.703125,-10.78125,-12.59375,348
334,1696249602190,-0.55126953,-0.7424927,0.64471436,-18.953125,1.859375,-15.03125,349
335,1696249602230,-0.54248047,-0.78131104,0.58465576,-0.9375,9.734375,-1.53125,350
336,1696249602270,-0.4230957,-0.73272705,0.5331421,-10.375,-6.796875,4.484375,351
337,1696249602310,-0.3894043,-0.7600708,0.6117554,6.265625,4.765625,3.03125,352
338,1696249602350,-0.4013672,-0.7046509,0.67230225,11.296875,1.703125,3.03125,353
339,1696249602390,-0.38989258,-0.6748657,0.59906006,16.8125,-5.5625,7.34375,354
340,1696249602430,-0.27563477,-0.8887329,0.47625732,24.734375,-8.921875,22.34375,355
341,1696249602470,-0.2998047,-0.7925415,0.7123413,-13.0625,8.859375,-2.6875,356
342,1696249602510,-0.5488281,-0.7131958,0.70599365,5.515625,-1.84375,-5.484375,357
343,1696249602550,-0.3095703,-0.74835205,0.4767456,-6.0625,-2.125,-7.4375,358
344,1696249602590,-0.23657227,-0.69732666,0.5619507,-17.3125,0.578125,-10.53125,359
345,1696249602630,-0.45507812,-0.7102661,0.60272217,-20.625,-0.8125,-23.4375,360
346,1696249602670,-0.6188965,-0.7029419,0.62493896,-22.96875,12.171875,-14.25,361
347,1696249602710,-0.48120117,-0.7427368,0.67840576,-3.5625,20.046875,4.53125,362
348,1696249602750,-0.42138672,-0.78131104,0.65838623,0.5625,11.265625,10.65625,363
349,1696249602790,-0.40600586,-0.7625122,0.6679077,15.671875,13.5625,7.734375,364
350,1696249602830,-0.36328125,-0.7398071,0.6557007,18.78125,8.3125,7.4375,365
351,1696249602870,-0.33911133,-0.6929321,0.62054443,11.59375,6.296875,7.09375,366
352,1696249602910,-0.32177734,-0.73687744,0.58929443,15.34375,4.1875,6.390625,367
353,1696249602950,-0.3251953,-0.79522705,0.6539917,21.109375,4.8125,6.1875,368
354,1696249602990,-0.24072266,-0.89385986,0.60150146,22.484375,6.546875,6.359375,369
355,1696249603030,-0.3203125,-0.82525635,0.57196045,8.625,-1.171875,0.375,370
356,1696249603070,-0.34594727,-0.7161255,0.53460693,8.859375,-4.515625,-1.609375,371
357,1696249603110,-0.2919922,-0.7608032,0.4928589,-0.8125,-8.34375,2.625,372
358,1696249603150,-0.33032227,-0.78448486,0.5048218,-4.71875,-6.8125,2.015625,373
359,1696249603190,-0.3173828,-0.8147583,0.53411865,-2.65625,-6.46875,1.5625,374
360,1696249603230,-0.2824707,-0.83306885,0.51898193,2.453125,-3.3125,1.28125,375
361,1696249603270,-0.27783203,-0.7805786,0.48016357,14.4375,-3.15625,2.1875,376
362,1696249603310,-0.29736328,-0.77301025,0.44476318,25.21875,2.921875,6.578125,377
363,1696249603350,-0.34448242,-0.8909302,0.4713745,8.09375,-20.59375,13.59375,378
364,1696249603390,-0.28515625,-0.91241455,0.47943115,2.578125,-13.4375,3.234375,379
365,1696249603430,-0.1303711,-0.86553955,0.54730225,-23.546875,-22.890625,-14.515625,380
366,1696249603470,-0.55322266,-0.74176025,0.4689331,-9.96875,2.140625,-6.5,381
367,1696249603510,-0.4128418,-0.8237915,0.5133667,-7.171875,1.765625,0.9375,382
368,1696249603550,-0.35791016,-0.77130127,0.64959717,-11.984375,1.234375,-5.5625,383
369,1696249603590,-0.23144531,-0.80426025,0.50994873,0.65625,0.84375,-0.125,384
370,1696249603630,-0.28320312,-0.83673096,0.53240967,-20.84375,-1.078125,-9.03125,385
371,1696249603670,-0.47631836,-0.7788696,0.64398193,-14.109375,7.203125,-12.046875,386
372,1696249603710,-0.4951172,-0.88287354,0.43426514,0.71875,8.515625,1.6875,387
373,1696249603750,-0.33740234,-0.7214966,0.5194702,13.0,-2.46875,6.671875,388
374,1696249603790,-0.24829102,-0.79644775,0.48236084,30.96875,-7.15625,8.828125,389
375,1696249603830,-0.27954102,-0.99102783,0.5475464,-8.65625,-21.140625,4.515625,390
376,1696249603870,-0.5942383,-0.7307739,0.6715698,-5.65625,7.59375,-9.09375,391
377,1696249603910,-0.38598633,-0.7461548,0.4430542,0.421875,10.828125,0.828125,392
378,1696249603950,-0.19580078,-0.645813,0.61151123,-15.453125,0.515625,-1.390625,393
379,1696249603990,-0.3154297,-0.6970825,0.60443115,-1.515625,1.96875,-7.046875,394
380,1696249604030,-0.3317871,-0.8858032,0.58880615,-8.390625,-5.25,-9.59375,395
381,1696249604070,-0.46850586,-0.77838135,0.63494873,-20.765625,6.65625,-5.25,396
382,1696249604110,-0.49902344,-0.7925415,0.5817261,-13.359375,9.78125,-4.28125,397
383,1696249604150,-0.3684082,-0.78863525,0.48358154,-16.609375,7.1875,-3.671875,398
384,1696249604190,-0.48999023,-0.737854,0.53533936,30.15625,-11.296875,12.015625,399
385,1696249604230,-0.27441406,-1.0015259,0.40960693,42.109375,-8.6875,25.03125,400
386,1696249604270,-0.2524414,-0.7798462,0.72650146,-23.0,20.46875,-11.453125,401
387,1696249604310,-0.515625,-0.61968994,0.69744873,6.546875,2.5,-3.359375,402
388,1696249604350,-0.16552734,-0.61602783,0.4118042,-2.28125,3.953125,-2.859375,403
389,1696249604390,-0.17773438,-0.66607666,0.6195679,-18.984375,-2.140625,-0.84375,404
390,1696249604430,-0.42993164,-0.78863525,0.69403076,-13.265625,-2.953125,-8.515625,405
391,1696249604470,-0.4543457,-0.9475708,0.5883179,-6.328125,1.78125,0.90625,406
392,1696249604510,-0.41455078,-0.7781372,0.5204468,-8.640625,1.5625,6.65625,407
393,1696249604550,-0.4013672,-0.7151489,0.65423584,20.625,-4.171875,-2.265625,408
394,1696249604590,-0.35205078,-0.8032837,0.5043335,17.609375,-12.609375,4.140625,409
395,1696249604630,-0.29492188,-0.88726807,0.543396,-1.078125,-14.96875,9.359375,410
396,1696249604670,-0.39257812,-0.6226196,0.61517334,-1.171875,8.859375,-2.515625,411
397,1696249604710,-0.44921875,-0.7334595,0.56243896,2.78125,2.6875,-6.0625,412
398,1696249604750,-0.18701172,-0.71343994,0.5704956,-9.8125,11.71875,-2.75,413
399,1696249604790,-0.34375,-0.77301025,0.6207886,-19.1875,-8.890625,-7.375,414
400,1696249604830,-0.47192383,-0.68536377,0.7196655,-22.75,3.546875,-17.890625,415
401,1696249604870,-0.55029297,-0.7918091,0.7416382,4.21875,28.6875,-1.265625,416
402,1696249604910,-0.41918945,-0.86724854,0.5421753,4.421875,14.609375,11.171875,417
403,1696249604950,-0.36865234,-0.7383423,0.5927124,16.171875,4.546875,2.46875,418
404,1696249604990,-0.36132812,-0.7918091,0.6227417,23.140625,5.9375,4.734375,419
405,1696249605030,-0.34399414,-0.786438,0.635437,12.859375,0.421875,2.625,420
406,1696249605070,-0.30297852,-0.74224854,0.5248413,9.96875,-5.15625,-1.875,421
407,1696249605110,-0.24609375,-0.72491455,0.5487671,10.421875,-6.171875,0.34375,422
408,1696249605150,-0.27929688,-0.7637329,0.56073,5.15625,-7.890625,6.6875,423
409,1696249605190,-0.3400879,-0.8049927,0.54730225,2.53125,-9.46875,6.34375,424
410,1696249605230,-0.31567383,-0.8245239,0.4960327,10.03125,-7.046875,3.6875,425
411,1696249605270,-0.2824707,-0.76446533,0.45599365,15.265625,-3.671875,3.75,426
412,1696249605310,-0.27246094,-0.73687744,0.45794678,24.03125,7.765625,4.328125,427
413,1696249605350,-0.33325195,-0.94317627,0.38275146,7.46875,-12.625,12.90625,428
414,1696249605390,-0.29296875,-0.94195557,0.4335327,-16.640625,-34.78125,0.953125,429
415,1696249605430,-0.3581543,-0.8526001,0.79974365,-24.421875,-10.328125,-13.53125,430
416,1696249605470,-0.48364258,-0.6460571,0.53289795,-22.40625,-6.34375,-13.375,431
417,1696249605510,-0.33447266,-0.58966064,0.48724365,-1.453125,1.484375,8.640625,432
418,1696249605550,-0.40112305,-0.8115845,0.6366577,-3.078125,-3.9375,-2.34375,433
419,1696249605590,-0.2775879,-0.9924927,0.586853,-28.1875,-10.640625,-10.46875,434
420,1696249605630,-0.40893555,-0.7727661,0.5675659,-18.09375,5.296875,-4.703125,435
421,1696249605670,-0.51416016,-0.7070923,0.5543823,15.375,14.421875,-2.796875,436
422,1696249605710,-0.3984375,-0.7901001,0.5182495,-1.1875,1.125,4.03125,437
423,1696249605750,-0.3449707,-0.7371216,0.4923706,29.890625,-10.671875,11.5625,438
424,1696249605790,-0.2163086,-0.9351196,0.5675659,3.65625,-9.265625,6.5625,439
425,1696249605830,-0.5534668,-0.82403564,0.7103882,-17.296875,-6.75,-8.515625,440
426,1696249605870,-0.44873047,-0.7258911,0.42694092,3.640625,5.296875,-3.421875,441
427,1696249605910,-0.21875,-0.63897705,0.5758667,-13.53125,6.46875,-0.375,442
428,1696249605950,-0.27148438,-0.7402954,0.6039429,-4.40625,-3.6875,-5.75,443
429,1696249605990,-0.3552246,-0.8518677,0.62835693,-16.671875,-8.875,-13.65625,444
430,1696249606030,-0.61621094,-0.7654419,0.6449585,-12.34375,7.8125,-8.078125,445
431,1696249606070,-0.5241699,-0.7503052,0.5223999,3.859375,12.625,-0.578125,446
432,1696249606110,-0.3334961,-0.7192993,0.50579834,1.234375,-5.484375,5.640625,447
433,1696249606150,-0.38745117,-0.7529907,0.6141968,44.421875,4.203125,15.15625,448
434,1696249606190,-0.29638672,-0.98223877,0.402771,21.4375,-2.15625,22.65625,449
435,1696249606230,-0.39233398,-0.8748169,0.58270264,-33.71875,-20.609375,-5.4375,450
436,1696249606270,-0.53271484,-0.6506958,0.5145874,11.171875,20.171875,-4.734375,451
437,1696249606310,-0.17456055,-0.65167236,0.4953003,-6.0625,-0.109375,-0.359375,452
438,1696249606350,-0.24243164,-0.803772,0.6207886,-16.03125,-2.328125,-1.015625,453
439,1696249606390,-0.42358398,-0.8508911,0.6227417,-10.3125,-7.96875,-13.578125,454
440,1696249606430,-0.5109863,-0.6975708,0.6129761,-15.859375,-0.328125,-13.71875,455
441,1696249606470,-0.5185547,-0.6699829,0.56951904,5.28125,8.46875,0.359375,456
442,1696249606510,-0.31958008,-0.8933716,0.5038452,14.140625,2.328125,11.3125,457
443,1696249606550,-0.42749023,-0.8220825,0.5270386,24.546875,-8.671875,19.59375,458
444,1696249606590,-0.328125,-0.8201294,0.5753784,-2.421875,-6.1875,10.109375,459
445,1696249606630,-0.3791504,-0.63531494,0.6967163,-12.4375,9.0,-9.46875,460
446,1696249606670,-0.30932617,-0.7300415,0.5043335,10.265625,7.09375,-5.515625,461
447,1696249606710,-0.19335938,-0.7798462,0.5531616,-6.578125,-1.125,-4.140625,462
448,1696249606750,-0.42041016,-0.70562744,0.61395264,-28.34375,-7.8125,-10.375,463
449,1696249606790,-0.55566406,-0.6939087,0.6586304,-18.75,0.390625,-20.453125,464
450,1696249606830,-0.48535156,-0.77545166,0.69085693,-6.890625,7.90625,-1.546875,465
451,1696249606870,-0.42456055,-0.80792236,0.6102905,0.609375,10.859375,11.734375,466
452,1696249606910,-0.4104004,-0.7559204,0.6425171,14.484375,18.640625,5.78125,467
453,1696249606950,-0.36767578,-0.7366333,0.618103,14.875,11.984375,2.765625,468
454,1696249606990,-0.34277344,-0.71588135,0.59954834,7.796875,3.0,4.46875,469
455,1696249607030,-0.31225586,-0.7241821,0.62615967,13.828125,4.125,3.671875,470
456,1696249607070,-0.3046875,-0.7798462,0.63201904,18.171875,1.0,4.234375,471
457,1696249607110,-0.3388672,-0.8262329,0.5993042,14.75,-0.953125,6.515625,472
458,1696249607150,-0.37475586,-0.80303955,0.6063843,28.078125,4.265625,8.0,473
459,1696249607190,-0.29882812,-0.829895,0.44207764,15.765625,-0.953125,7.5625,474
460,1696249607230,-0.29077148,-0.79937744,0.44940186,1.578125,-6.109375,2.09375,475
461,1696249607270,-0.25048828,-0.82818604,0.5175171,11.640625,-3.484375,-0.390625,476
462,1696249607310,-0.27416992,-0.8164673,0.47747803,7.03125,-13.140625,-1.28125,477
463,1696249607350,-0.2878418,-0.7774048,0.4105835,13.671875,-1.578125,1.3125,478
464,1696249607390,-0.27929688,-0.8723755,0.32904053,7.484375,-9.0625,8.5625,479
465,1696249607430,-0.30395508,-1.0662231,0.4454956,-9.46875,-31.78125,8.265625,480
466,1696249607470,-0.39672852,-0.81329346,0.63446045,-37.140625,-10.4375,-6.703125,481
467,1696249607510,-0.4819336,-0.6194458,0.465271,-24.765625,-3.6875,-11.125,482
468,1696249607550,-0.23461914,-0.7788696,0.5661011,14.46875,7.828125,4.921875,483
469,1696249607590,-0.35742188,-0.9631958,0.57684326,-5.28125,-7.265625,-1.625,484
470,1696249607630,-0.2993164,-0.8521118,0.5018921,-10.265625,3.078125,-9.40625,485
471,1696249607670,-0.3515625,-0.6934204,0.53582764,-10.34375,9.8125,-7.046875,486
472,1696249607710,-0.46679688,-0.8152466,0.5421753,9.234375,2.984375,-1.3125,487
473,1696249607750,-0.33081055,-0.87994385,0.48919678,-10.421875,-7.203125,0.0625,488
474,1696249607790,-0.30029297,-0.7647095,0.50946045,6.03125,-13.078125,5.484375,489
475,1696249607830,-0.31713867,-0.87335205,0.5790405,-4.734375,-10.203125,-0.046875,490
476,1696249607870,-0.43896484,-0.7349243,0.6713257,-16.15625,-0.0625,-8.671875,491
477,1696249607910,-0.4699707,-0.73931885,0.49798584,2.890625,2.109375,2.46875,492
478,1696249607950,-0.28198242,-0.6694946,0.60736084,0.984375,5.015625,0.609375,493
479,1696249607990,-0.34472656,-0.8076782,0.59588623,2.421875,3.046875,4.140625,494
480,1696249608030,-0.3815918,-0.90753174,0.4845581,-0.53125,1.21875,1.734375,495
481,1696249608070,-0.36108398,-0.87042236,0.4694214,-1.296875,0.453125,-4.0625,496
482,1696249608110,-0.36645508,-0.79351807,0.5387573,-7.671875,1.890625,-4.703125,497
483,1696249608150,-0.375,-0.7041626,0.4039917,8.484375,-10.203125,1.59375,498
484,1696249608190,-0.2824707,-0.84869385,0.65423584,-6.015625,-15.625,-5.375,499
485,1696249608230,-0.4025879,-0.753479,0.72210693,-14.21875,8.734375,-3.734375,500
486,1696249608270,-0.62890625,-0.7029419,0.524353,-5.46875,-9.265625,1.203125,501
487,1696249608310,-0.30029297,-0.6782837,0.5741577,5.828125,4.28125,1.75,502
488,1696249608350,-0.24926758,-0.7896118,0.6166382,-4.671875,1.4375,1.171875,503
489,1696249608390,-0.47998047,-0.8526001,0.56707764,-7.453125,4.78125,-3.796875,504
490,1696249608430,-0.49121094,-0.81988525,0.5385132,-5.921875,8.390625,-7.109375,505
491,1696249608470,-0.33911133,-0.70440674,0.59368896,-2.203125,-0.078125,-3.21875,506
492,1696249608510,-0.29907227,-0.80255127,0.40911865,-3.609375,-11.625,2.96875,507
493,1696249608550,-0.4729004,-0.7744751,0.7140503,6.84375,-8.609375,1.84375,508
494,1696249608590,-0.42016602,-0.7659302,0.77679443,-7.671875,6.265625,-1.65625,509
495,1696249608630,-0.40307617,-0.64971924,0.56903076,-9.375,1.328125,-1.265625,510
496,1696249608670,-0.3474121,-0.612854,0.5778198,11.203125,3.671875,-0.28125,511
497,1696249608710,-0.2668457,-0.77593994,0.62664795,-5.984375,1.640625,-5.125,512
498,1696249608750,-0.5229492,-0.7752075,0.74749756,-8.96875,8.5,-6.265625,513
499,1696249608790,-0.5266113,-0.8352661,0.5951538,9.609375,20.203125,2.125,514
500,1696249608830,-0.37475586,-0.75177,0.51898193,4.5,16.46875,8.1875,515
501,1696249608870,-0.34472656,-0.7529907,0.56707764,9.875,7.265625,3.390625,516
502,1696249608910,-0.39013672,-0.82403564,0.61468506,24.6875,9.046875,4.28125,517
503,1696249608950,-0.36328125,-0.819397,0.5861206,18.265625,6.640625,5.125,518
504,1696249608990,-0.3334961,-0.7456665,0.53240967,2.578125,-2.546875,3.078125,519
505,1696249609030,-0.30688477,-0.79888916,0.5507202,1.953125,-2.71875,3.59375,520
506,1696249609070,-0.25024414,-0.8401489,0.5861206,1.828125,-5.765625,3.25,521
507,1696249609110,-0.28320312,-0.7595825,0.54681396,4.078125,-7.234375,1.890625,522
508,1696249609150,-0.32543945,-0.76568604,0.510437,9.515625,-4.203125,1.0,523
509,1696249609190,-0.3310547,-0.81329346,0.51312256,7.453125,-2.375,2.5625,524
510,1696249609230,-0.3112793,-0.78985596,0.43597412,9.53125,-3.796875,2.53125,525
511,1696249609270,-0.27294922,-0.7737427,0.35003662,26.28125,-8.125,4.859375,526
512,1696249609310,-0.23754883,-0.9678345,0.3534546,23.890625,-13.953125,11.796875,527
513,1696249609350,-0.27001953,-1.0300903,0.6017456,-26.140625,-19.78125,0.0625,528
514,1696249609390,-0.5773926,-0.7202759,0.62713623,-27.0625,-8.25,-22.328125,529
515,1696249609430,-0.49902344,-0.6812134,0.4887085,-13.796875,8.140625,3.4375,530
516,1696249609470,-0.22631836,-0.6812134,0.5109253,-7.609375,-2.546875,3.28125,531
517,1696249609510,-0.23876953,-1.0274048,0.61834717,-8.203125,-9.046875,-5.40625,532
518,1696249609550,-0.2841797,-0.8755493,0.52093506,-14.734375,0.984375,-5.8125,533
519,1696249609590,-0.39404297,-0.71832275,0.5372925,4.078125,7.21875,-4.9375,534
520,1696249609630,-0.4934082,-0.7817993,0.5170288,-5.609375,3.53125,-6.078125,535
521,1696249609670,-0.40820312,-0.77960205,0.4418335,5.578125,-3.46875,3.71875,536
522,1696249609710,-0.23730469,-0.9199829,0.46990967,11.109375,-17.703125,7.8125,537
523,1696249609750,-0.32495117,-0.9180298,0.59783936,-7.375,-6.546875,0.203125,538
524,1696249609790,-0.54418945,-0.5557251,0.6124878,6.3125,10.3125,-10.359375,539
525,1696249609830,-0.36816406,-0.7576294,0.42889404,-1.484375,6.890625,3.125,540
526,1696249609870,-0.2590332,-0.78912354,0.5656128,-11.546875,-1.09375,-1.59375,541
527,1696249609910,-0.30493164,-0.83599854,0.5507202,-21.078125,-0.296875,-6.875,542
528,1696249609950,-0.44091797,-0.75787354,0.62127686,-22.140625,2.203125,-11.34375,543
529,1696249609990,-0.47045898,-0.7996216,0.6083374,-9.34375,12.359375,-3.203125,544
530,1696249610030,-0.4099121,-0.7612915,0.58514404,-11.984375,9.625,1.15625,545
531,1696249610070,-0.40112305,-0.6951294,0.604187,5.78125,-1.46875,1.671875,546
532,1696249610110,-0.3972168,-0.7588501,0.58099365,14.875,-6.15625,5.390625,547
533,1696249610150,-0.4243164,-0.8027954,0.60931396,40.71875,-22.078125,11.9375,548
534,1696249610190,-0.18823242,-0.9319458,0.5009155,19.0625,2.6875,13.65625,549
535,1696249610230,-0.22314453,-0.62677,0.71868896,-17.796875,8.796875,-9.234375,550
536,1696249610270,-0.5751953,-0.6992798,0.55023193,3.796875,-7.390625,-8.28125,551
537,1696249610310,-0.40454102,-0.75250244,0.41644287,-6.8125,6.890625,-5.546875,552
538,1696249610350,-0.2705078,-0.8106079,0.63397217,-26.265625,2.625,-0.828125,553
539,1696249610390,-0.4116211,-0.7642212,0.7321167,-23.328125,3.484375,-13.09375,554
540,1696249610430,-0.50439453,-0.85650635,0.6559448,-6.3125,14.671875,-3.703125,555
541,1696249610470,-0.4765625,-0.75787354,0.62005615,8.6875,16.59375,6.890625,556
542,1696249610510,-0.3581543,-0.7041626,0.5961304,17.5,13.59375,6.0,557
543,1696249610550,-0.30395508,-0.7539673,0.60736084,13.53125,4.0,3.671875,558
544,1696249610590,-0.31152344,-0.8057251,0.58880615,10.671875,2.765625,4.671875,559
545,1696249610630,-0.33154297,-0.77838135,0.5668335,14.3125,2.78125,5.34375,560
546,1696249610670,-0.29248047,-0.79034424,0.5421753,13.609375,0.078125,5.21875,561
547,1696249610710,-0.28833008,-0.82525635,0.5687866,9.84375,-3.953125,3.84375,562
548,1696249610750,-0.32861328,-0.84259033,0.5421753,2.234375,-6.3125,2.015625,563
549,1696249610790,-0.30249023,-0.79473877,0.52337646,-0.453125,-6.359375,-1.140625,564
550,1696249610830,-0.28833008,-0.75128174,0.49383545,4.59375,-6.375,0.765625,565
551,1696249610870,-0.29467773,-0.80255127,0.47576904,14.0,-0.046875,0.015625,566
552,1696249610910,-0.2211914,-0.76031494,0.4286499,24.375,6.09375,0.078125,567
553,1696249610950,-0.33447266,-0.9402466,0.2909546,32.5,-28.65625,9.03125,568
554,1696249610990,-0.24951172,-0.97662354,0.79022217,-26.671875,-26.8125,3.234375,569
555,1696249611030,-0.40625,-0.68585205,0.6444702,-35.578125,-9.390625,-15.5625,570
556,1696249611070,-0.58154297,-0.8242798,0.41400146,-6.859375,3.46875,-0.9375,571
557,1696249611110,-0.2890625,-0.72784424,0.52386475,-3.265625,1.0625,6.71875,572
558,1696249611150,-0.18847656,-0.95025635,0.6185913,-10.8125,-8.484375,-6.71875,573
559,1696249611190,-0.30566406,-0.89678955,0.5355835,-25.046875,2.0625,-13.625,574
560,1696249611230,-0.4868164,-0.69317627,0.5079956,0.9375,9.109375,-6.125,575
561,1696249611270,-0.44995117,-0.82110596,0.4442749,4.453125,2.234375,1.75,576
562,1696249611310,-0.38793945,-0.7959595,0.44256592,0.53125,-18.21875,2.5625,577
563,1696249611350,-0.31591797,-0.9192505,0.6259155,-1.28125,-12.9375,-0.015625,578
564,1696249611390,-0.43164062,-0.6729126,0.5236206,-14.1875,19.3125,-7.359375,579
565,1696249611430,-0.5161133,-0.6668091,0.5631714,3.34375,11.15625,6.015625,580
566,1696249611470,-0.19702148,-0.6170044,0.54486084,-1.609375,-1.984375,-1.046875,581
567,1696249611510,-0.19433594,-0.9014282,0.59710693,-11.890625,-4.296875,-0.953125,582
568,1696249611550,-0.4165039,-0.94488525,0.5914917,-13.34375,0.5625,-7.46875,583
569,1696249611590,-0.515625,-0.80841064,0.526062,11.78125,7.375,-3.03125,584
570,1696249611630,-0.40844727,-0.6873169,0.42010498,-3.421875,1.21875,1.1875,585
571,1696249611670,-0.40966797,-0.7012329,0.48651123,4.84375,-12.984375,4.890625,586
572,1696249611710,-0.3310547,-0.8508911,0.8925171,-15.71875,3.84375,-6.296875,587
573,1696249611750,-0.50927734,-0.7192993,0.53656006,-1.984375,7.359375,-1.0625,588
574,1696249611790,-0.37353516,-0.6826782,0.5873413,8.96875,2.46875,0.828125,589
575,1696249611830,-0.17944336,-0.71099854,0.5997925,-17.84375,-0.984375,-1.015625,590
576,1696249611870,-0.39770508,-0.7835083,0.6300659,-18.265625,4.03125,-8.0625,591
577,1696249611910,-0.4873047,-0.76934814,0.7230835,-5.75,19.03125,-5.625,592
578,1696249611950,-0.43481445,-0.7827759,0.633728,-1.921875,19.09375,5.25,593
579,1696249611990,-0.39672852,-0.7178345,0.6430054,18.703125,11.4375,6.859375,594
580,1696249612030,-0.36010742,-0.74884033,0.6300659,32.828125,6.6875,5.59375,595
581,1696249612070,-0.32836914,-0.79229736,0.60369873,19.6875,1.671875,5.9375,596
582,1696249612110,-0.30322266,-0.78570557,0.5663452,10.125,-0.6875,4.359375,597
583,1696249612150,-0.27368164,-0.7786255,0.55145264,11.328125,-2.296875,2.71875,598
584,1696249612190,-0.27368164,-0.82037354,0.5516968,7.09375,-7.3125,5.1875,599
585,1696249612230,-0.3005371,-0.80841064,0.5597534,-2.984375,-11.421875,4.28125,600
586,1696249612270,-0.3317871,-0.7944946,0.54852295,7.234375,-9.234375,2.390625,601
587,1696249612310,-0.31884766,-0.84991455,0.5133667,13.859375,-8.765625,4.3125,602
588,1696249612350,-0.3305664,-0.8049927,0.42352295,2.34375,-5.8125,1.359375,603
589,1696249612390,-0.32006836,-0.7859497,0.42010498,15.609375,-2.734375,3.296875,604
590,1696249612430,-0.23730469,-0.79107666,0.31292725,23.328125,2.484375,4.265625,605
591,1696249612470,-0.29370117,-0.93096924,0.5084839,11.421875,-22.109375,8.6875,606
592,1696249612510,-0.21118164,-0.9414673,0.54364014,-24.46875,-16.421875,-2.421875,607
593,1696249612550,-0.43676758,-0.61553955,0.5873413,-18.578125,-8.765625,-19.5625,608
594,1696249612590,-0.4165039,-0.7637329,0.38861084,-2.515625,-2.25,10.84375,609
595,1696249612630,-0.39941406,-0.8731079,0.52264404,-8.25,-5.5,-1.671875,610
596,1696249612670,-0.3010254,-1.0025024,0.5939331,-6.59375,5.40625,-6.40625,611
597,1696249612710,-0.30126953,-0.7678833,0.46917725,-9.265625,6.234375,-4.390625,612
598,1696249612750,-0.43896484,-0.7197876,0.46136475,5.21875,8.34375,0.296875,613
599,1696249612790,-0.4169922,-0.8220825,0.5387573,2.234375,-7.609375,3.625,614
600,1696249612830,-0.30615234,-0.85357666,0.52557373,11.421875,-7.078125,10.375,615
601,1696249612870,-0.30566406,-0.9846802,0.463562,-11.015625,-2.109375,5.34375,616
602,1696249612910,-0.38916016,-0.6565552,0.66082764,-5.15625,16.421875,-10.34375,617
603,1696249612950,-0.32470703,-0.72979736,0.45599365,-6.734375,-4.359375,-1.171875,618
604,1696249612990,-0.27978516,-0.7593384,0.5438843,-11.578125,3.71875,-4.296875,619
605,1696249613030,-0.25317383,-0.847229,0.590271,-23.90625,1.390625,-10.515625,620
606,1696249613070,-0.4880371,-0.70880127,0.60150146,-8.859375,-3.46875,-8.40625,621
607,1696249613110,-0.3942871,-0.86431885,0.5853882,6.796875,-7.015625,7.421875,622
608,1696249613150,-0.36621094,-0.7979126,0.47332764,26.984375,-3.546875,15.296875,623
609,1696249613190,-0.33666992,-0.95880127,0.60858154,2.59375,8.625,5.796875,624
610,1696249613230,-0.421875,-0.68292236,0.54608154,-7.203125,11.390625,1.84375,625
611,1696249613270,-0.26098633,-0.6848755,0.47698975,0.71875,2.140625,-1.71875,626
612,1696249613310,-0.21850586,-0.7671509,0.5831909,-11.109375,2.609375,-10.765625,627
613,1696249613350,-0.30859375,-0.7942505,0.66082764,-25.40625,-1.28125,-9.375,628
614,1696249613390,-0.4777832,-0.8245239,0.56414795,5.171875,-5.96875,3.203125,629
615,1696249613430,-0.3474121,-0.84381104,0.46746826,7.921875,-8.71875,7.59375,630
616,1696249613470,-0.30639648,-0.85479736,0.5944214,1.5,-14.5,3.859375,631
617,1696249613510,-0.47973633,-0.87628174,0.6117554,-12.03125,13.125,-1.234375,632
618,1696249613550,-0.3696289,-0.62677,0.5675659,-0.109375,5.234375,-8.9375,633
619,1696249613590,-0.21166992,-0.6038208,0.5836792,-8.703125,-1.484375,-7.78125,634
620,1696249613630,-0.2902832,-0.7542114,0.57318115,-25.09375,2.484375,-13.828125,635
621,1696249613670,-0.5300293,-0.7168579,0.8102417,-18.484375,3.5625,-12.921875,636
622,1696249613710,-0.4868164,-0.8340454,0.7262573,6.1875,15.71875,1.0,637
623,1696249613750,-0.37695312,-0.739563,0.6185913,21.71875,16.171875,12.65625,638
624,1696249613790,-0.3010254,-0.7749634,0.5687866,25.234375,12.8125,9.4375,639
625,1696249613830,-0.33422852,-0.80548096,0.5783081,12.75,2.96875,5.078125,640
626,1696249613870,-0.3605957,-0.7803345,0.55804443,13.984375,1.984375,4.0625,641
627,1696249613910,-0.3293457,-0.76641846,0.5494995,11.75,3.34375,3.1875,642
628,1696249613950,-0.27319336,-0.7959595,0.5631714,7.703125,-1.484375,1.078125,643
629,1696249613990,-0.2915039,-0.8411255,0.5980835,7.0,-4.859375,2.046875,644
630,1696249614030,-0.30395508,-0.8513794,0.559021,0.59375,-6.515625,2.921875,645
631,1696249614070,-0.29663086,-0.767395,0.52874756,-0.796875,-7.734375,0.375,646
632,1696249614110,-0.30419922,-0.7805786,0.5092163,8.296875,-6.578125,-0.125,647
633,1696249614150,-0.32910156,-0.78619385,0.50994873,9.71875,-9.515625,1.09375,648
634,1696249614190,-0.2919922,-0.8179321,0.4220581,15.8125,-4.46875,2.296875,649
635,1696249614230,-0.28295898,-0.8140259,0.29730225,26.9375,-3.15625,7.6875,650
636,1696249614270,-0.25195312,-1.0476685,0.4093628,5.734375,-30.953125,7.9375,651
637,1696249614310,-0.30688477,-0.9036255,0.64642334,-32.078125,-5.0,-10.21875,652
638,1696249614350,-0.5690918,-0.58599854,0.449646,-25.484375,-7.109375,-17.875,653
639,1696249614390,-0.3239746,-0.6675415,0.4755249,4.359375,13.546875,11.28125,654
640,1696249614430,-0.2932129,-0.911438,0.63201904,-9.1875,-7.109375,2.625,655
641,1696249614470,-0.24414062,-0.98272705,0.61712646,-2.5,-4.890625,-7.953125,656
642,1696249614510,-0.43920898,-0.76275635,0.4713745,-11.765625,2.234375,-0.65625,657
643,1696249614550,-0.47875977,-0.7312622,0.43841553,11.5,5.359375,-3.328125,658
644,1696249614590,-0.2529297,-0.88482666,0.47943115,-14.953125,-12.796875,-2.296875,659
645,1696249614630,-0.2565918,-0.79156494,0.635437,-7.234375,-15.890625,-1.828125,660
646,1696249614670,-0.39697266,-0.9783325,0.59198,-3.6875,-4.609375,-9.265625,661
647,1696249614710,-0.5083008,-0.57525635,0.53240967,0.296875,8.25,-5.265625,662
648,1696249614750,-0.43920898,-0.55474854,0.50897217,7.515625,4.140625,2.265625,663
649,1696249614790,-0.31103516,-0.8789673,0.5519409,-13.6875,0.640625,-2.0,664
650,1696249614830,-0.28564453,-0.923645,0.6244507,-31.328125,-1.28125,-5.875,665
651,1696249614870,-0.4140625,-0.7000122,0.6461792,-11.296875,3.953125,-7.8125,666
652,1696249614910,-0.48632812,-0.72979736,0.45599365,-4.8125,9.90625,-3.015625,667
653,1696249614950,-0.5620117,-0.7637329,0.5565796,12.453125,-2.1875,3.03125,668
654,1696249614990,-0.32104492,-0.9194946,0.59832764,25.53125,-3.078125,11.4375,669
655,1696249615030,-0.2763672,-0.7642212,0.727478,-17.4375,-4.640625,5.421875,670
656,1696249615070,-0.55981445,-0.51641846,0.59173584,7.796875,12.359375,-5.375,671
657,1696249615110,-0.38354492,-0.6970825,0.44866943,9.046875,3.75,0.09375,672
658,1696249615150,-0.15673828,-0.866272,0.635437,-18.140625,2.75,2.984375,673
659,1696249615190,-0.2319336,-0.8323364,0.6935425,-10.21875,-4.765625,-6.828125,674
660,1696249615230,-0.51538086,-0.65997314,0.6390991,2.03125,7.578125,-11.3125,675
661,1696249615270,-0.5695801,-0.6802368,0.56903076,-0.8125,14.78125,-2.34375,676
662,1696249615310,-0.4387207,-0.7905884,0.65838623,-15.484375,5.59375,4.265625,677
663,1696249615350,-0.34326172,-0.8064575,0.6688843,1.359375,6.46875,4.328125,678
664,1696249615390,-0.33251953,-0.7576294,0.6124878,20.21875,8.46875,2.9375,679
665,1696249615430,-0.34448242,-0.7258911,0.571228,14.140625,1.78125,3.953125,680
666,1696249615470,-0.34301758,-0.7271118,0.5614624,11.28125,1.8125,5.09375,681
667,1696249615510,-0.35913086,-0.80059814,0.5668335,12.703125,2.6875,5.375,682
668,1696249615550,-0.33398438,-0.8267212,0.5914917,4.953125,0.3125,4.53125,683
669,1696249615590,-0.3046875,-0.7756958,0.60614014,3.828125,0.546875,2.796875,684
670,1696249615630,-0.30151367,-0.76763916,0.5609741,7.109375,-2.765625,1.96875,685
671,1696249615670,-0.31225586,-0.77716064,0.545105,7.390625,-4.9375,1.09375,686
672,1696249615710,-0.29833984,-0.7786255,0.4977417,11.421875,-5.515625,1.859375,687
673,1696249615750,-0.28857422,-0.78790283,0.41986084,18.328125,-6.390625,3.109375,688
674,1696249615790,-0.28100586,-0.8726196,0.32659912,15.328125,-9.96875,6.5,689
675,1696249615830,-0.29833984,-0.9727173,0.45892334,6.015625,-30.328125,6.765625,690
676,1696249615870,-0.3293457,-0.8870239,0.6351929,-29.015625,-7.703125,-11.625,691
677,1696249615910,-0.5734863,-0.53448486,0.50897217,-14.796875,-1.921875,-14.359375,692
678,1696249615950,-0.30981445,-0.70318604,0.39105225,2.671875,9.578125,9.0,693
679,1696249615990,-0.2902832,-0.9133911,0.64471436,-15.875,-9.9375,1.328125,694
680,1696249616030,-0.28320312,-0.960022,0.55755615,-11.859375,-1.140625,-5.078125,695
681,1696249616070,-0.3857422,-0.7136841,0.52557373,-8.609375,5.125,-3.296875,696
682,1696249616110,-0.42651367,-0.7896118,0.5072632,9.265625,-0.515625,0.828125,697
683,1696249616150,-0.40698242,-0.78131104,0.5739136,-5.40625,-8.859375,0.65625,698
684,1696249616190,-0.33691406,-0.8015747,0.5609741,-2.34375,-10.71875,-0.65625,699
685,1696249616230,-0.37280273,-0.83673096,0.6293335,-6.125,2.953125,-7.5,700
686,1696249616270,-0.4309082,-0.7192993,0.47601318,-1.046875,1.15625,0.109375,701
687,1696249616310,-0.24633789,-0.7197876,0.6034546,4.859375,5.59375,-5.125,702
688,1696249616350,-0.33422852,-0.77545166,0.50335693,-6.90625,-2.125,0.0,703
689,1696249616390,-0.5109863,-0.798645,0.5392456,-4.359375,1.6875,1.59375,704
690,1696249616430,-0.46948242,-0.80474854,0.637146,0.234375,4.9375,-0.515625,705
691,1696249616470,-0.38452148,-0.80596924,0.54364014,-8.796875,-4.390625,1.71875,706
692,1696249616510,-0.33129883,-0.74835205,0.54559326,-1.984375,-4.03125,-0.90625,707
693,1696249616550,-0.36108398,-0.79571533,0.5956421,20.875,-4.71875,1.671875,708
694,1696249616590,-0.32495117,-0.7788696,0.6005249,-8.25,5.140625,-4.6875,709
695,1696249616630,-0.5300293,-0.6655884,0.5841675,-9.53125,2.5625,-0.875,710
696,1696249616670,-0.33544922,-0.7156372,0.6071167,-0.1875,4.265625,-1.25,711
697,1696249616710,-0.25146484,-0.77716064,0.59368896,-9.703125,-2.015625,1.765625,712
698,1696249616750,-0.43041992,-0.76031494,0.62493896,-2.703125,-1.515625,-0.171875,713
699,1696249616790,-0.49780273,-0.7852173,0.65130615,2.859375,7.65625,-3.203125,714
700,1696249616830,-0.42236328,-0.8010864,0.58587646,0.734375,14.890625,0.125,715
701,1696249616870,-0.4189453,-0.7283325,0.56414795,-0.890625,15.21875,1.984375,716
702,1696249616910,-0.3486328,-0.7649536,0.56073,-1.1875,4.53125,3.796875,717
703,1696249616950,-0.31713867,-0.7727661,0.637146,-3.265625,0.203125,1.3125,718
704,1696249616990,-0.3112793,-0.72979736,0.6378784,-0.96875,2.859375,-0.109375,719
705,1696249617030,-0.31811523,-0.73931885,0.57684326,-4.125,-0.1875,-1.140625,720
706,1696249617070,-0.3330078,-0.72540283,0.65618896,-1.375,1.4375,-0.265625,721
707,1696249617110,-0.36376953,-0.7654419,0.6535034,3.8125,-0.078125,4.09375,722
708,1696249617150,-0.34960938,-0.7671509,0.60687256,3.609375,0.09375,2.71875,723
709,1696249617190,-0.33520508,-0.75445557,0.60687256,0.296875,-0.703125,0.515625,724
710,1696249617230,-0.3395996,-0.7559204,0.6293335,3.234375,-1.515625,-1.015625,725
711,1696249617270,-0.3408203,-0.76641846,0.6173706,2.953125,-1.390625,-0.296875,726
712,1696249617310,-0.35327148,-0.7559204,0.59710693,-1.265625,-0.390625,0.703125,727
713,1696249617350,-0.3491211,-0.739563,0.6144409,-3.125,-1.578125,0.46875,728
714,1696249617390,-0.34155273,-0.7600708,0.62957764,-0.953125,-1.0,0.8125,729
715,1696249617430,-0.33276367,-0.77667236,0.6119995,0.34375,0.984375,1.484375,730
716,1696249617470,-0.34570312,-0.7346802,0.67181396,7.046875,5.671875,0.59375,731
717,1696249617510,-0.37158203,-0.8052368,0.6532593,25.03125,10.8125,5.859375,732
718,1696249617550,-0.37646484,-0.835022,0.58880615,15.359375,2.46875,6.53125,733
719,1696249617590,-0.3125,-0.80352783,0.6017456,17.453125,3.640625,1.90625,734
720,1696249617630,-0.2758789,-0.8167114,0.5387573,14.265625,-3.796875,0.9375,735
721,1696249617670,-0.2956543,-0.8123169,0.48675537,1.96875,-8.40625,-2.078125,736
722,1696249617710,-0.29785156,-0.7510376,0.4953003,7.109375,-7.109375,-1.578125,737
723,1696249617750,-0.2878418,-0.75787354,0.30755615,21.265625,-16.15625,4.578125,738
724,1696249617790,-0.21606445,-0.9187622,0.4743042,19.75,-7.96875,13.328125,739
725,1696249617830,-0.064453125,-0.8609009,0.5150757,-9.359375,-9.5625,-0.609375,740
726,1696249617870,-0.7026367,-0.93414307,0.65423584,-37.640625,-21.21875,-9.84375,741
727,1696249617910,-0.47924805,-0.5913696,0.50164795,-7.546875,3.015625,-11.140625,742
728,1696249617950,-0.1694336,-0.7385864,0.42425537,-2.9375,1.9375,11.984375,743
729,1696249617990,-0.33374023,-0.99176025,0.6576538,-19.21875,-14.0,-2.9375,744
730,1696249618030,-0.35253906,-0.93096924,0.5128784,-0.5625,0.578125,-6.09375,745
731,1696249618070,-0.36621094,-0.7402954,0.46697998,-6.359375,7.078125,-2.40625,746
732,1696249618110,-0.40283203,-0.7962036,0.48675537,0.5,2.046875,0.09375,747
733,1696249618150,-0.390625,-0.78082275,0.5775757,-10.078125,-14.5625,-6.6875,748
734,1696249618190,-0.42651367,-0.83135986,0.539978,0.671875,-4.96875,-1.78125,749
735,1696249618230,-0.35595703,-0.83721924,0.5758667,-7.734375,5.8125,1.125,750
736,1696249618270,-0.34301758,-0.6314087,0.67718506,1.9375,8.390625,-4.34375,751
737,1696249618310,-0.25561523,-0.7564087,0.52996826,1.5625,-3.296875,-0.171875,752
738,1696249618350,-0.35473633,-0.74102783,0.57611084,-7.859375,-2.9375,-3.890625,753
739,1696249618390,-0.39624023,-0.772522,0.6132202,-12.65625,3.375,-6.75,754
740,1696249618430,-0.5136719,-0.76568604,0.65448,-9.875,5.765625,-6.34375,755
741,1696249618470,-0.42285156,-0.8411255,0.44647217,-11.546875,-2.6875,-3.1875,756
742,1696249618510,-0.39111328,-0.7493286,0.62542725,6.3125,0.734375,9.53125,757
743,1696249618550,-0.39697266,-0.7608032,0.5866089,20.40625,-1.015625,10.234375,758
744,1696249618590,-0.3310547,-0.8479614,0.52923584,3.15625,-2.78125,6.5625,759
745,1696249618630,-0.31713867,-0.68048096,0.6532593,2.4375,6.6875,1.9375,760
746,1696249618670,-0.3527832,-0.72979736,0.5841675,0.0625,-2.3125,-2.03125,761
747,1696249618710,-0.33447266,-0.71954346,0.57440186,0.765625,-1.703125,-11.265625,762
748,1696249618750,-0.36767578,-0.8023071,0.5836792,-8.109375,-0.984375,-5.625,763
749,1696249618790,-0.4716797,-0.74713135,0.5765991,-11.71875,1.609375,-0.59375,764
750,1696249618830,-0.49926758,-0.8206177,0.619812,3.8125,0.234375,1.8125,765
751,1696249618870,-0.39526367,-0.8057251,0.5673218,8.359375,2.125,2.546875,766
752,1696249618910,-0.31762695,-0.7398071,0.56048584,-2.6875,4.28125,3.40625,767
753,1696249618950,-0.2939453,-0.73687744,0.59954834,-3.65625,1.21875,-3.96875,768
754,1696249618990,-0.35083008,-0.6382446,0.6432495,0.5,3.828125,-4.34375,769
755,1696249619030,-0.38867188,-0.76104736,0.5934448,-6.984375,-1.015625,2.140625,770
756,1696249619070,-0.38085938,-0.8062134,0.66326904,-9.125,-0.921875,1.3125,771
757,1696249619110,-0.4284668,-0.7695923,0.66522217,3.6875,7.359375,0.6875,772
758,1696249619150,-0.4243164,-0.80474854,0.5470581,11.90625,8.34375,5.796875,773
759,1696249619190,-0.33447266,-0.82647705,0.5741577,12.03125,7.609375,5.90625,774
