# Sensor type: Respeck
# Activity type: Lying down right
# Activity subtype: Talking
# Subject id: s2106809
# Notes: unprocessed
timestamp,accel_x,accel_y,accel_z,gyro_x,gyro_y,gyro_z
1696253190889,0.7180176,-0.037902832,0.7260132,-0.3125,-0.71875,0.25
1696253190928,0.70947266,-0.031311035,0.729187,0.375,-0.21875,0.171875
1696253190969,0.7155762,-0.04449463,0.72698975,0.03125,-0.734375,0.0625
1696253191009,0.71728516,-0.032043457,0.7272339,0.0625,-0.578125,0.046875
1696253191049,0.71777344,-0.031066895,0.7238159,0.1875,0.234375,0.109375
1696253191090,0.7116699,-0.027160645,0.727478,0.5,0.0,0.109375
1696253191129,0.72094727,-0.04156494,0.73651123,1.453125,0.421875,0.203125
1696253191169,0.7260742,-0.042541504,0.7340698,1.0625,0.390625,0.484375
1696253191210,0.72216797,-0.04473877,0.71673584,0.0,-0.265625,0.53125
1696253191250,0.7114258,-0.039611816,0.71502686,-1.375,-0.734375,0.6875
1696253191290,0.72021484,-0.03741455,0.7284546,0.046875,0.78125,0.78125
1696253191330,0.7277832,-0.03717041,0.74505615,2.515625,2.1875,0.890625
1696253191368,0.71313477,-0.044006348,0.72406006,1.953125,-0.25,1.03125
1696253191411,0.71118164,-0.028137207,0.72283936,0.765625,-1.0625,1.203125
1696253191450,0.7207031,-0.023986816,0.7123413,1.25,0.203125,0.921875
1696253191491,0.7236328,-0.034729004,0.70965576,0.609375,0.109375,0.578125
1696253191533,0.7277832,-0.058898926,0.71990967,-0.34375,0.296875,0.8125
1696253191573,0.7272949,-0.043762207,0.71258545,-1.59375,-0.28125,0.796875
1696253191633,0.71972656,-0.042297363,0.7194214,0.875,3.046875,0.921875
1696253191649,0.73461914,-0.04473877,0.696228,4.53125,4.515625,2.609375
1696253191670,0.74243164,-0.036193848,0.6954956,6.03125,2.609375,2.46875
1696253191710,0.71728516,-0.036193848,0.6967163,5.296875,0.375,2.0625
1696253191772,0.71069336,-0.03375244,0.6732788,-0.671875,-2.359375,1.625
1696253191789,0.7385254,-0.035705566,0.6930542,-1.53125,-1.21875,0.546875
1696253191854,0.74243164,-0.049621582,0.69866943,-0.921875,-3.859375,-0.4375
1696253191894,0.7487793,-0.043762207,0.7057495,-0.6875,-3.671875,-0.75
1696253191909,0.7438965,-0.043518066,0.72161865,-3.578125,-2.90625,-0.6875
1696253191950,0.72680664,-0.02960205,0.7225952,-5.5,-2.125,-0.578125
1696253191990,0.71899414,-0.032043457,0.7367554,-2.25,0.453125,-0.578125
1696253192030,0.7270508,-0.053771973,0.701355,-0.46875,0.734375,0.234375
1696253192070,0.7294922,-0.027648926,0.7225952,1.328125,1.859375,0.59375
1696253192109,0.72753906,-0.0413208,0.72406006,2.125,2.53125,0.78125
1696253192151,0.72436523,-0.032287598,0.71429443,0.828125,2.34375,0.578125
1696253192190,0.73291016,-0.030090332,0.70721436,0.046875,0.09375,0.578125
1696253192229,0.7248535,-0.028381348,0.7081909,0.828125,-0.359375,0.75
1696253192294,0.7260742,-0.04058838,0.6950073,-0.375,-0.9375,0.625
1696253192309,0.7380371,-0.03326416,0.7003784,-2.5625,-1.90625,-0.34375
1696253192370,0.73657227,-0.039123535,0.7069702,-0.9375,-0.453125,-0.6875
1696253192388,0.74853516,-0.033996582,0.71673584,-0.859375,-1.46875,-0.546875
1696253192430,0.7285156,-0.0335083,0.7050171,-0.59375,-1.65625,-0.15625
1696253192469,0.7319336,-0.043273926,0.71209717,0.875,-1.765625,0.140625
1696253192509,0.7253418,-0.039855957,0.7145386,0.8125,-1.84375,0.53125
1696253192550,0.71972656,-0.022033691,0.72161865,0.171875,0.015625,0.6875
1696253192595,0.7258301,-0.01739502,0.7123413,0.0625,1.515625,0.625
1696253192631,0.7270508,-0.0335083,0.69573975,-1.015625,1.96875,1.0625
1696253192676,0.74316406,-0.024475098,0.72161865,1.890625,4.5625,0.78125
1696253192731,0.7402344,-0.042785645,0.7037964,0.75,3.53125,2.1875
1696253192749,0.75268555,-0.028625488,0.696228,-0.875,2.625,1.859375
1696253192792,0.7355957,-0.024963379,0.696228,0.390625,4.359375,0.828125
1696253192830,0.75219727,-0.050354004,0.69696045,1.015625,2.171875,0.984375
1696253192872,0.7651367,-0.049621582,0.6925659,2.828125,3.015625,0.96875
1696253192911,0.74975586,-0.04425049,0.6713257,1.390625,1.203125,0.359375
1696253192950,0.74609375,-0.015197754,0.6696167,1.046875,0.4375,0.078125
1696253192970,0.7385254,-0.023010254,0.66571045,1.65625,0.5625,0.171875
1696253193013,0.7583008,-0.024230957,0.68011475,0.65625,0.125,-0.265625
1696253193051,0.7573242,-0.03326416,0.6911011,0.3125,-1.125,0.1875
1696253193094,0.75268555,-0.038146973,0.67718506,-1.0625,-2.5625,0.515625
1696253193132,0.7480469,-0.02935791,0.6930542,-1.4375,-1.1875,0.140625
1696253193175,0.7504883,-0.042053223,0.6937866,-0.203125,-0.5625,0.0625
1696253193210,0.751709,-0.037902832,0.67962646,-1.46875,-0.296875,0.0625
1696253193252,0.75024414,-0.030090332,0.68426514,-0.09375,-0.078125,0.5625
1696253193289,0.75512695,-0.039611816,0.68304443,0.53125,-0.484375,0.671875
1696253193330,0.75756836,-0.034973145,0.6942749,1.265625,0.09375,0.703125
1696253193369,0.76416016,-0.027893066,0.6859741,1.40625,-0.25,0.546875
1696253193410,0.75341797,-0.028869629,0.6791382,1.5625,0.171875,0.265625
1696253193451,0.7495117,-0.03643799,0.6720581,0.6875,-0.46875,0.296875
1696253193489,0.751709,-0.041809082,0.6786499,-1.140625,-0.421875,0.203125
1696253193530,0.7519531,-0.0335083,0.6869507,-0.890625,0.140625,0.09375
1696253193572,0.75268555,-0.03717041,0.6781616,-0.015625,-0.09375,0.09375
1696253193611,0.7524414,-0.034240723,0.67767334,-0.328125,0.0625,0.65625
1696253193650,0.7529297,-0.03302002,0.68426514,-0.296875,-0.484375,0.328125
1696253193690,0.75805664,-0.036193848,0.68548584,0.1875,-0.0625,0.125
1696253193731,0.7558594,-0.039367676,0.6754761,0.234375,0.125,0.046875
1696253193773,0.7531738,-0.030090332,0.6786499,-0.09375,0.03125,0.03125
1696253193811,0.7614746,-0.031311035,0.670105,-0.0625,0.3125,0.46875
1696253193850,0.765625,-0.033996582,0.67523193,-0.078125,0.515625,0.71875
1696253193892,0.76342773,-0.024475098,0.70184326,0.828125,1.046875,0.5
1696253193930,0.7331543,-0.031799316,0.6786499,-2.0,-2.203125,0.609375
1696253193970,0.72680664,-0.024963379,0.6845093,-2.28125,0.453125,-0.171875
1696253194010,0.7841797,-0.04156494,0.66693115,0.625,1.71875,-0.921875
1696253194052,0.8000488,-0.030822754,0.6503296,-0.203125,0.21875,-0.71875
1696253194090,0.7692871,-0.039123535,0.6564331,1.953125,0.0625,0.6875
1696253194132,0.7553711,-0.03643799,0.66400146,0.203125,0.0,1.375
1696253194173,0.7529297,-0.02545166,0.67718506,-1.203125,1.609375,1.609375
1696253194211,0.7651367,-0.029846191,0.6791382,0.015625,0.90625,0.296875
1696253194271,0.77197266,-0.023254395,0.6828003,-0.1875,-0.765625,-0.03125
1696253194291,0.76049805,-0.03253174,0.6727905,-0.15625,0.1875,0.0625
1696253194310,0.7546387,-0.02520752,0.668396,-2.171875,0.34375,0.328125
1696253194394,0.7597656,-0.02545166,0.66326904,-2.4375,0.25,0.296875
1696253194398,0.7751465,-0.02520752,0.66571045,-1.328125,0.28125,0.21875
1696253194429,0.765625,-0.023254395,0.65911865,-0.09375,0.296875,0.4375
1696253194491,0.78466797,-0.031799316,0.666687,-0.265625,-0.328125,0.6875
1696253194508,0.7727051,-0.021057129,0.66619873,-2.078125,-0.125,0.765625
1696253194570,0.7651367,-0.03302002,0.65130615,-1.109375,0.109375,-0.046875
1696253194590,0.7709961,-0.013977051,0.66278076,-1.953125,0.6875,-0.453125
1696253194651,0.7729492,-0.006652832,0.6679077,-0.59375,1.21875,0.6875
1696253194669,0.76831055,-0.02520752,0.6691284,1.015625,-0.125,1.1875
1696253194710,0.767334,-0.031066895,0.66278076,0.21875,-0.03125,0.484375
1696253194749,0.7609863,-0.015686035,0.6552124,1.078125,1.0625,0.65625
1696253194794,0.7758789,-5.493164E-4,0.6613159,1.15625,0.9375,0.53125
1696253194830,0.76708984,-0.007385254,0.66082764,1.0,0.703125,0.890625
1696253194871,0.7709961,-0.028137207,0.67401123,2.875,1.734375,0.828125
1696253194911,0.7553711,-0.03302002,0.66400146,-0.359375,3.15625,1.484375
1696253194949,0.8063965,-0.024963379,0.6469116,4.109375,5.8125,0.453125
1696253194990,0.8359375,-0.047180176,0.621521,7.625,5.515625,-0.078125
1696253195030,0.8022461,-0.007873535,0.6071167,2.890625,1.078125,1.390625
1696253195072,0.76904297,-0.010559082,0.6251831,2.125,-2.3125,1.75
1696253195111,0.7541504,-0.011047363,0.6366577,-0.484375,-0.09375,1.984375
1696253195152,0.77319336,-0.012512207,0.63031006,-1.171875,-0.921875,0.21875
1696253195192,0.7963867,-0.0413208,0.67059326,0.21875,-0.71875,-0.28125
1696253195230,0.80859375,-0.050354004,0.65423584,1.015625,0.65625,0.203125
1696253195270,0.79248047,-0.023254395,0.62176514,-0.984375,0.09375,0.21875
1696253195311,0.7836914,-0.014709473,0.6276245,-0.421875,-0.796875,-0.25
1696253195351,0.7763672,-0.019348145,0.62786865,0.34375,-0.703125,0.15625
1696253195392,0.7910156,-0.013244629,0.6259155,-0.203125,-0.9375,0.703125
1696253195431,0.7807617,-0.019348145,0.6310425,-0.578125,-1.6875,0.25
1696253195472,0.7873535,-0.036193848,0.6383667,-0.671875,-1.421875,-0.59375
1696253195534,0.7873535,-0.028137207,0.64276123,-1.609375,-1.328125,-0.78125
1696253195548,0.7944336,-0.01739502,0.6432495,-0.875,-0.625,-0.671875
1696253195569,0.8017578,-0.025939941,0.6532593,-0.046875,-0.171875,-0.4375
1696253195610,0.79125977,-0.020080566,0.63079834,-0.6875,-0.1875,0.984375
1696253195649,0.7858887,-0.016174316,0.63031006,1.0625,0.140625,0.875
1696253195693,0.7824707,-0.026428223,0.6342163,0.65625,0.21875,0.65625
1696253195731,0.796875,-0.016174316,0.65448,-2.78125,2.390625,1.15625
1696253195771,0.80981445,-0.011047363,0.6359253,-4.34375,-0.65625,2.59375
1696253195812,0.77319336,-0.019592285,0.6203003,-0.59375,0.765625,1.125
1696253195850,0.7817383,-0.028381348,0.62249756,0.609375,0.4375,-0.015625
1696253195890,0.79418945,-0.020568848,0.63446045,0.21875,-0.171875,-0.125
1696253195931,0.7885742,-0.00592041,0.63275146,0.546875,-1.59375,0.421875
1696253195970,0.78344727,-0.0076293945,0.63739014,0.71875,-1.578125,0.40625
1696253196011,0.7849121,-0.0095825195,0.63861084,0.09375,-0.234375,0.25
1696253196050,0.78393555,-0.02154541,0.6444702,-0.140625,-1.1875,-0.34375
1696253196092,0.78515625,-0.016906738,0.6347046,-0.703125,-1.984375,-0.875
1696253196129,0.79589844,-0.019592285,0.6347046,-1.078125,-0.453125,0.03125
1696253196170,0.8015137,-0.011291504,0.6359253,-0.578125,-0.875,0.359375
1696253196212,0.78637695,-0.023986816,0.6347046,-0.640625,-0.84375,0.46875
1696253196253,0.7817383,-0.018127441,0.635437,-0.03125,-0.46875,0.625
1696253196292,0.79125977,-0.015197754,0.6449585,0.59375,0.015625,0.359375
1696253196330,0.7927246,-0.015930176,0.6486206,0.578125,-0.140625,-0.03125
1696253196369,0.7890625,-0.018615723,0.6268921,-0.859375,-1.328125,-0.046875
1696253196410,0.7885742,-0.005432129,0.6264038,0.28125,-0.421875,0.09375
1696253196450,0.7871094,-0.016418457,0.6515503,-0.015625,0.03125,0.5
1696253196491,0.7890625,-0.019104004,0.62957764,-0.671875,-0.828125,0.484375
1696253196531,0.7949219,-0.021057129,0.62664795,-0.28125,-0.625,-0.6875
1696253196569,0.7819824,-0.012268066,0.6288452,0.171875,-1.140625,-0.875
1696253196612,0.8027344,-0.007873535,0.6779175,4.125,0.09375,-2.25
1696253196650,0.7648926,-0.031799316,0.69940186,7.1875,-2.859375,-1.921875
1696253196692,0.7775879,-0.04107666,0.6378784,6.234375,-5.625,-2.046875
1696253196731,0.7963867,-0.019836426,0.61102295,1.828125,-2.515625,-0.25
1696253196771,0.8232422,-0.008850098,0.68548584,7.859375,12.1875,3.609375
1696253196811,0.84521484,-0.06573486,0.5582886,0.296875,17.734375,8.5625
1696253196854,0.77783203,-0.029846191,0.5993042,-3.75,2.421875,11.453125
1696253196890,0.76293945,-0.023498535,0.6300659,6.09375,-1.34375,3.09375
1696253196910,0.7680664,-0.04522705,0.5985718,-0.46875,0.109375,-0.703125
1696253196952,0.7976074,-0.023498535,0.6168823,-0.5625,-1.515625,-1.078125
1696253197015,0.8100586,-0.0068969727,0.6034546,-1.984375,-6.3125,-3.4375
1696253197028,0.8041992,-0.008850098,0.5988159,-6.21875,-4.796875,-2.53125
1696253197070,0.79663086,0.0026245117,0.61883545,-5.953125,-2.59375,-0.46875
1696253197111,0.8015137,-0.03326416,0.65423584,-2.6875,-3.890625,-1.46875
1696253197151,0.8039551,-0.039123535,0.62957764,-2.25,-2.9375,-1.125
1696253197212,0.7998047,-0.0032348633,0.6256714,-1.390625,-1.125,0.109375
1696253197254,0.78125,-0.010803223,0.633728,-0.265625,-1.125,1.078125
1696253197269,0.7841797,-0.027404785,0.635437,0.3125,-0.03125,0.453125
1696253197311,0.79418945,-0.015686035,0.635437,-1.015625,0.21875,-0.09375
1696253197352,0.7919922,-0.0051879883,0.64056396,0.078125,-0.5,-0.21875
1696253197390,0.7976074,-0.0154418945,0.62371826,-0.53125,-0.53125,0.109375
1696253197431,0.79345703,-0.014953613,0.6300659,-0.71875,0.5,0.46875
1696253197470,0.7910156,-0.0049438477,0.6190796,0.0,-0.484375,0.34375
1696253197510,0.78515625,-0.01763916,0.63275146,-0.140625,-0.203125,0.234375
1696253197549,0.7832031,-0.023254395,0.6347046,-0.53125,-0.4375,0.515625
1696253197591,0.8010254,-0.012268066,0.62786865,-0.875,-0.984375,0.0625
1696253197653,0.7944336,-0.012512207,0.62713623,0.078125,-0.59375,-0.0625
1696253197669,0.7988281,-0.0068969727,0.6325073,0.671875,0.015625,-0.03125
1696253197732,0.795166,-0.017150879,0.633728,-0.921875,-0.59375,0.40625
1696253197771,0.7841797,-0.010803223,0.6322632,-0.15625,-0.953125,0.640625
1696253197789,0.7883301,-0.015686035,0.62420654,0.53125,-0.171875,-0.15625
1696253197852,0.8010254,-0.012512207,0.62957764,-0.6875,-0.265625,0.03125
1696253197890,0.7902832,-0.00982666,0.62908936,-1.140625,-0.4375,0.5
1696253197910,0.8034668,-0.015197754,0.6378784,0.859375,3.328125,-0.046875
1696253197954,0.8249512,-0.030578613,0.60150146,1.203125,5.78125,2.046875
1696253197990,0.7980957,0.008972168,0.6195679,0.15625,-1.078125,1.0625
1696253198030,0.77075195,-0.0068969727,0.6268921,-0.03125,-2.28125,1.234375
1696253198070,0.7897949,-0.020080566,0.62908936,-0.375,-1.6875,0.53125
1696253198111,0.7944336,-0.01739502,0.6222534,0.265625,-2.578125,-0.96875
1696253198158,0.79589844,-0.006652832,0.6415405,0.375,-3.5,-2.140625
1696253198191,0.78027344,-0.026428223,0.61273193,-0.640625,-3.5625,-0.515625
1696253198210,0.80322266,-0.024230957,0.59832764,-3.9375,-4.90625,-1.328125
1696253198253,0.81396484,0.031188965,0.70111084,-1.734375,-4.828125,-2.90625
1696253198291,0.7663574,-0.023010254,0.70111084,9.15625,-4.46875,-1.28125
1696253198331,0.74316406,-0.07159424,0.62298584,4.84375,-9.390625,-2.515625
1696253198372,0.75341797,-0.02520752,0.65057373,3.9375,-3.40625,-4.75
1696253198411,0.79663086,-0.018859863,0.6918335,4.34375,-1.75,-1.5
1696253198451,0.7988281,-0.049865723,0.66033936,1.84375,-1.953125,0.890625
1696253198489,0.7783203,-0.07867432,0.6317749,-5.265625,-6.03125,0.703125
1696253198531,0.7565918,-0.017150879,0.6600952,-5.59375,-3.921875,1.140625
1696253198570,0.75634766,-0.00592041,0.6793823,1.015625,2.078125,2.71875
1696253198610,0.7697754,-0.04034424,0.65179443,2.171875,3.34375,2.015625
1696253198650,0.7648926,-0.03375244,0.6359253,0.046875,1.25,2.71875
1696253198691,0.77441406,-0.02130127,0.66278076,-2.796875,1.546875,2.59375
1696253198732,0.7751465,-0.02520752,0.6757202,0.46875,2.46875,1.203125
1696253198770,0.7644043,-0.042541504,0.66033936,-1.34375,-2.046875,-0.515625
1696253198809,0.7636719,-0.013977051,0.64959717,-4.484375,-3.3125,-1.109375
1696253198850,0.75634766,-0.015930176,0.64764404,-3.53125,-1.515625,-0.78125
1696253198892,0.7648926,-0.021057129,0.6911011,-2.03125,-0.71875,0.234375
1696253198931,0.8039551,-0.042053223,0.6852417,0.265625,-1.28125,-0.40625
1696253198971,0.77368164,-0.035461426,0.668396,0.53125,0.21875,-0.890625
1696253199011,0.7578125,-0.009338379,0.66619873,-0.921875,0.359375,0.453125
1696253199055,0.7529297,1.8310547E-4,0.6715698,0.734375,0.953125,1.34375
1696253199093,0.7390137,-0.0178833,0.6635132,0.28125,0.484375,1.546875
1696253199134,0.7705078,-7.9345703E-4,0.6564331,-0.359375,1.96875,2.078125
1696253199171,0.77734375,-0.0115356445,0.66082764,1.875,1.34375,0.453125
1696253199211,0.7651367,-0.02178955,0.6610718,0.625,0.265625,-0.3125
1696253199252,0.78149414,-0.037902832,0.65960693,0.234375,0.203125,0.4375
1696253199289,0.7944336,-0.024963379,0.64520264,-1.421875,1.140625,-0.03125
1696253199331,0.78686523,-0.0068969727,0.6522827,-1.75,-0.671875,-0.625
1696253199370,0.78125,-0.016906738,0.6576538,-1.6875,-1.203125,0.375
1696253199412,0.7746582,-0.01739502,0.66204834,-0.421875,-0.390625,0.359375
1696253199452,0.7578125,-0.010314941,0.6618042,-0.796875,-0.671875,0.046875
1696253199493,0.7668457,-0.0056762695,0.65960693,0.0,-0.9375,-0.265625
1696253199512,0.7741699,-0.016174316,0.65838623,-1.1875,-0.5,0.015625
1696253199550,0.7763672,-0.012023926,0.66204834,-1.21875,-0.859375,-0.03125
1696253199593,0.76660156,-0.0154418945,0.6586304,-0.78125,-1.015625,0.3125
1696253199631,0.77246094,-0.007873535,0.6559448,0.15625,-0.1875,0.5
1696253199692,0.7702637,-0.016418457,0.6539917,0.875,0.078125,0.53125
1696253199710,0.77856445,-0.009338379,0.6605835,0.640625,-0.703125,0.03125
1696253199752,0.7807617,-0.01739502,0.65448,0.0,-0.625,0.03125
1696253199814,0.78149414,-0.014709473,0.6552124,-0.328125,-0.421875,-0.078125
1696253199829,0.77905273,-0.014709473,0.6586304,-0.9375,-0.78125,0.015625
1696253199892,0.7705078,-0.012023926,0.65960693,-0.734375,-1.125,-0.125
1696253199909,0.7644043,-0.01373291,0.6625366,0.140625,-0.453125,0.15625
1696253199972,0.7705078,-0.0178833,0.6622925,0.15625,-0.453125,0.390625
1696253199991,0.76782227,-0.008361816,0.6598511,-0.0625,-0.3125,0.3125
1696253200030,0.77001953,-0.014709473,0.6557007,0.03125,-0.390625,0.203125
1696253200091,0.7800293,-0.019348145,0.6618042,0.171875,0.0,0.15625
1696253200109,0.77124023,-0.012023926,0.6498413,-0.5625,-0.109375,0.234375
1696253200152,0.7734375,-0.022277832,0.6539917,0.40625,-0.140625,0.171875
1696253200211,0.77075195,-0.011779785,0.65740967,0.53125,-0.3125,-0.140625
1696253200231,0.76464844,-0.012512207,0.6466675,0.390625,-0.578125,0.140625
1696253200271,0.77319336,-0.011047363,0.6635132,0.46875,0.09375,0.484375
1696253200333,0.78100586,-0.018371582,0.6618042,0.421875,-0.21875,0.078125
1696253200349,0.78271484,-0.014221191,0.6532593,-0.515625,-0.3125,-0.265625
1696253200392,0.7780762,-0.007873535,0.6532593,-0.875,-0.640625,0.03125
1696253200430,0.76416016,-0.020080566,0.6642456,-0.609375,0.0,0.609375
1696253200474,0.77319336,-0.015197754,0.6610718,-2.46875,0.21875,0.078125
1696253200530,0.7727051,-0.015930176,0.6593628,-1.578125,0.515625,0.65625
1696253200549,0.779541,-0.016174316,0.6481323,0.5625,0.203125,0.734375
1696253200608,0.7807617,-0.0056762695,0.6515503,0.359375,-0.5625,0.375
1696253200629,0.7753906,-0.003967285,0.6478882,-0.125,-0.203125,0.21875
1696253200690,0.78125,-0.0134887695,0.6552124,-0.234375,-1.109375,0.3125
1696253200709,0.7783203,-0.013977051,0.6552124,0.96875,-0.90625,0.21875
1696253200750,0.7780762,-0.014709473,0.6466675,1.015625,-0.828125,-0.0625
1696253200790,0.77734375,6.713867E-4,0.65911865,1.515625,-1.4375,0.453125
1696253200830,0.76782227,-0.020080566,0.65179443,2.640625,-1.71875,0.21875
1696253200850,0.78222656,-0.014221191,0.66619873,0.546875,0.5,-0.234375
1696253200890,0.79345703,-0.01763916,0.66448975,-1.328125,1.71875,1.015625
1696253200929,0.782959,-0.023986816,0.6547241,-1.625,1.4375,1.015625
1696253200971,0.7702637,-0.0044555664,0.65545654,-0.15625,1.046875,0.265625
1696253201010,0.7609863,-0.012512207,0.63861084,-0.25,0.4375,0.578125
1696253201052,0.7956543,-0.003479004,0.65618896,0.75,2.28125,0.234375
1696253201091,0.7788086,-0.025939941,0.6347046,0.078125,-0.09375,1.375
1696253201133,0.7895508,-0.009094238,0.6376343,0.03125,-0.390625,-0.328125
1696253201171,0.7807617,-0.0037231445,0.6473999,-0.59375,-0.234375,0.546875
1696253201210,0.7871094,-0.017150879,0.6503296,-0.078125,-0.109375,0.203125
1696253201252,0.7800293,-0.016662598,0.6364136,-1.828125,-0.421875,0.015625
1696253201292,0.7817383,-0.0095825195,0.63934326,-0.78125,-0.34375,0.59375
1696253201337,0.78564453,-0.0025024414,0.65008545,0.53125,0.203125,0.390625
1696253201370,0.7844238,-0.008605957,0.6552124,-0.640625,-0.125,0.5
1696253201411,0.7858887,-0.01373291,0.65057373,-0.1875,-0.21875,0.703125
1696253201451,0.78271484,-0.010559082,0.6347046,-0.03125,-0.375,-0.109375
1696253201490,0.78393555,0.006286621,0.64227295,0.4375,0.46875,-0.453125
1696253201532,0.7871094,-0.0037231445,0.64398193,-0.46875,-0.34375,0.59375
1696253201571,0.7817383,-0.0017700195,0.63690186,-0.9375,-0.53125,0.53125
1696253201611,0.7849121,-0.010314941,0.63397217,-0.65625,-0.296875,0.390625
1696253201651,0.7854004,-0.007873535,0.6437378,-1.03125,-0.171875,0.28125
1696253201693,0.78125,-0.006164551,0.6481323,-0.265625,-0.421875,0.015625
1696253201731,0.79003906,1.8310547E-4,0.6466675,0.0625,-0.484375,-0.0625
1696253201770,0.78466797,-0.009094238,0.6376343,-0.171875,-0.109375,0.375
1696253201811,0.7949219,-0.003967285,0.6395874,0.140625,-0.296875,0.078125
1696253201850,0.7858887,-0.005432129,0.6376343,-0.21875,-0.203125,0.21875
1696253201891,0.78808594,-0.0068969727,0.6400757,-0.171875,-0.75,0.40625
1696253201933,0.7895508,-0.0071411133,0.6466675,0.3125,-0.359375,0.59375
1696253201971,0.79003906,-0.004211426,0.6498413,0.46875,0.25,0.65625
1696253202011,0.79956055,-0.004211426,0.6449585,3.3125,1.8125,1.109375
1696253202051,0.7844238,1.8310547E-4,0.6310425,0.171875,0.203125,1.765625
1696253202091,0.7758789,4.272461E-4,0.6412964,0.5,0.28125,1.78125
1696253202131,0.7854004,-0.0071411133,0.6359253,1.21875,-0.140625,0.6875
1696253202151,0.7895508,-0.010070801,0.62323,0.359375,-0.171875,0.09375
1696253202213,0.7854004,0.0026245117,0.62835693,0.109375,-0.953125,-0.828125
1696253202251,0.8010254,-0.006652832,0.6366577,-0.34375,-0.328125,-0.046875
1696253202269,0.79833984,-0.005432129,0.6359253,0.921875,0.6875,0.84375
1696253202312,0.8066406,-0.003479004,0.63446045,-0.375,0.21875,0.671875
1696253202351,0.7949219,-7.9345703E-4,0.6329956,-0.6875,-0.703125,0.84375
1696253202391,0.78344727,-0.0029907227,0.6415405,-0.359375,-0.4375,0.5625
1696253202431,0.765625,-0.014465332,0.6395874,-0.8125,-0.71875,0.828125
1696253202472,0.7780762,-0.0154418945,0.63275146,-0.328125,-0.796875,0.28125
1696253202510,0.78930664,-0.004211426,0.6366577,0.578125,0.328125,-0.71875
1696253202551,0.7976074,0.011413574,0.635437,0.40625,0.46875,-0.703125
1696253202613,0.796875,0.0065307617,0.6264038,0.171875,-0.34375,0.140625
1696253202630,0.7993164,-0.0044555664,0.63079834,-0.828125,-1.09375,1.3125
1696253202675,0.79541016,-0.009094238,0.6244507,-0.734375,-0.546875,0.890625
1696253202730,0.7927246,-0.012756348,0.6312866,-0.734375,-0.0625,0.34375
1696253202749,0.79003906,-0.005432129,0.63861084,0.078125,0.09375,0.390625
1696253202791,0.7817383,-0.0012817383,0.6264038,-0.21875,-0.8125,0.09375
1696253202854,0.78759766,0.009460449,0.6366577,0.578125,-0.296875,-0.421875
1696253202870,0.79833984,0.003112793,0.637146,-0.21875,-0.484375,0.328125
1696253202910,0.7873535,0.001159668,0.6310425,0.140625,-0.421875,0.21875
1696253202952,0.796875,-0.003479004,0.6288452,-0.578125,-0.921875,-0.140625
1696253202991,0.79296875,-0.0017700195,0.6298218,-0.546875,-0.1875,0.046875
1696253203031,0.7980957,-0.003479004,0.63079834,-0.5,-0.921875,-0.3125
1696253203070,0.79589844,-0.012023926,0.63031006,-0.34375,-1.28125,0.0625
1696253203131,0.7927246,0.0060424805,0.6334839,-0.109375,-0.609375,0.140625
1696253203150,0.79589844,6.713867E-4,0.64056396,2.71875,2.96875,0.5625
1696253203190,0.8039551,-0.0015258789,0.61468506,0.734375,1.53125,1.4375
1696253203232,0.77856445,0.0099487305,0.6156616,2.03125,-1.390625,0.515625
1696253203273,0.7841797,-0.0068969727,0.6244507,5.234375,-2.46875,-1.0
1696253203310,0.78564453,-0.008605957,0.637146,6.5,-3.109375,-2.40625
1696253203350,0.77734375,-0.023010254,0.65618896,6.359375,-4.140625,-4.171875
1696253203390,0.7687988,-0.012512207,0.68255615,5.75,-9.234375,-5.359375
1696253203455,0.7734375,-0.050109863,0.670105,6.984375,-9.03125,-4.609375
1696253203458,0.8015137,-0.06524658,0.6757202,0.21875,-3.875,-2.015625
1696253203495,0.7927246,-0.051574707,0.65179443,-1.53125,-3.453125,0.40625
1696253203531,0.75097656,-0.039367676,0.66156006,-0.578125,-5.3125,0.625
1696253203572,0.73535156,-0.051574707,0.6696167,-0.9375,-4.0625,0.484375
1696253203609,0.7524414,-0.054260254,0.65301514,-0.4375,-1.0,1.515625
1696253203650,0.74560547,-0.035949707,0.67596436,0.640625,1.359375,2.03125
1696253203693,0.7944336,-0.042541504,0.6659546,0.875,3.453125,0.890625
1696253203730,0.7849121,-0.031311035,0.62420654,-2.40625,1.9375,2.65625
1696253203771,0.7956543,-0.034729004,0.638855,-3.796875,2.6875,2.140625
1696253203811,0.78271484,-0.04864502,0.69573975,-1.046875,5.296875,4.203125
1696253203851,0.76000977,-0.031799316,0.6508179,-3.546875,1.78125,4.578125
1696253203891,0.7380371,-0.018615723,0.62005615,-0.703125,0.8125,0.46875
1696253203932,0.77734375,-0.024963379,0.6461792,1.40625,0.578125,-1.734375
1696253203970,0.7907715,-0.026428223,0.65448,0.609375,0.625,0.515625
1696253204012,0.7788086,-0.039367676,0.6600952,-0.515625,-2.0,0.328125
1696253204052,0.7722168,-0.011047363,0.64105225,-1.078125,-1.640625,-0.671875
1696253204091,0.77612305,-0.014953613,0.65301514,1.109375,-1.09375,-0.75
1696253204130,0.7832031,-0.023986816,0.668396,1.578125,-0.59375,0.125
1696253204171,0.7739258,-0.032043457,0.6515503,-0.140625,-0.578125,0.75
1696253204212,0.7714844,-0.014709473,0.6469116,-0.625,-0.734375,0.109375
1696253204251,0.7709961,-0.025939941,0.6461792,-0.078125,-0.171875,0.0
1696253204292,0.7788086,-0.031555176,0.65960693,1.140625,0.40625,-0.0625
1696253204330,0.7824707,-0.03277588,0.6498413,0.5,-0.234375,0.078125
1696253204372,0.7832031,-0.020324707,0.64398193,0.375,-0.1875,-0.171875
1696253204411,0.7919922,-0.028625488,0.63934326,-0.75,-0.90625,0.28125
1696253204450,0.77197266,-0.017150879,0.6520386,-1.203125,-0.21875,0.40625
1696253204491,0.7739258,-0.03253174,0.65423584,-2.125,-0.890625,0.6875
1696253204530,0.7558594,-0.03643799,0.66986084,-1.171875,-0.34375,0.515625
1696253204572,0.78564453,-0.021057129,0.65008545,-1.65625,0.125,-0.625
1696253204612,0.7807617,-0.016906738,0.65057373,-0.96875,0.21875,0.328125
1696253204650,0.78466797,-0.015930176,0.6466675,-0.96875,0.375,0.21875
1696253204694,0.7819824,-0.023010254,0.64715576,-0.4375,-0.390625,0.453125
1696253204774,0.77441406,-0.03277588,0.64642334,0.0625,-0.515625,0.71875
1696253204778,0.78637695,-0.023986816,0.6456909,0.3125,-0.5625,-0.21875
1696253204812,0.78027344,-0.017150879,0.6444702,-0.984375,-1.203125,-0.515625
1696253204832,0.7751465,-0.013244629,0.6456909,-1.046875,-0.921875,-0.1875
1696253204871,0.77978516,-0.024963379,0.6539917,-1.796875,-1.4375,-0.234375
1696253204910,0.7763672,-0.019592285,0.6547241,-1.984375,-1.375,0.21875
1696253204950,0.7753906,-0.015686035,0.6708374,-0.28125,-1.03125,-0.203125
1696253205012,0.767334,-0.028137207,0.652771,-0.34375,-0.265625,0.171875
1696253205031,0.78637695,-0.020568848,0.652771,-0.390625,0.015625,0.1875
1696253205072,0.77685547,-0.0134887695,0.6498413,-0.09375,-1.359375,0.171875
1696253205110,0.7792969,-0.016662598,0.6498413,-0.078125,-1.03125,-0.921875
1696253205149,0.7734375,-0.013977051,0.64520264,-0.71875,-0.90625,0.53125
1696253205191,0.77319336,-0.023742676,0.6522827,-0.765625,-0.625,0.703125
1696253205234,0.7788086,-0.020568848,0.65423584,0.15625,-0.21875,0.203125
1696253205271,0.7753906,-0.01763916,0.6581421,0.125,-0.296875,0.125
1696253205333,0.7714844,-0.016418457,0.6576538,-0.015625,-0.671875,0.21875
1696253205351,0.76293945,-0.01739502,0.6547241,-0.328125,-0.671875,-0.109375
1696253205391,0.7800293,-0.024963379,0.65838623,-0.375,-0.09375,0.015625
1696253205451,0.77319336,-0.022033691,0.6581421,-0.578125,-0.046875,0.28125
1696253205471,0.7861328,-0.020812988,0.65911865,0.015625,0.078125,0.609375
1696253205533,0.7895508,-0.018615723,0.65740967,-0.96875,0.828125,0.796875
1696253205551,0.77246094,-0.01373291,0.6515503,-1.53125,1.59375,1.125
1696253205612,0.7717285,-0.014709473,0.6442261,-0.96875,0.203125,1.375
1696253205651,0.7763672,-0.020324707,0.65057373,0.8125,0.046875,0.671875
1696253205691,0.78466797,-0.010559082,0.64276123,0.328125,0.03125,0.109375
1696253205731,0.7836914,-0.0044555664,0.64959717,0.15625,-0.21875,-0.078125
1696253205771,0.7770996,-0.013244629,0.6498413,-1.1875,-0.71875,0.484375
1696253205790,0.78027344,-0.017150879,0.65545654,-0.65625,-0.171875,0.21875
1696253205833,0.78564453,-0.00592041,0.63861084,-1.296875,0.578125,0.03125
1696253205872,0.7910156,0.001159668,0.6532593,-1.46875,0.6875,0.75
1696253205934,0.78515625,-0.014465332,0.65179443,-0.890625,0.3125,1.3125
1696253205950,0.78271484,-0.004699707,0.6547241,-0.390625,0.234375,0.703125
1696253205994,0.78271484,1.8310547E-4,0.6442261,0.0625,0.796875,0.640625
1696253206050,0.78149414,-0.008117676,0.63934326,0.71875,0.34375,0.640625
1696253206090,0.78930664,-0.0025024414,0.63861084,-0.515625,-0.359375,0.546875
1696253206094,0.79125977,6.713867E-4,0.63153076,0.09375,0.96875,0.953125
1696253206130,0.7939453,6.713867E-4,0.6395874,0.578125,0.46875,0.625
1696253206173,0.79711914,-0.007385254,0.6376343,0.0625,-0.140625,0.203125
1696253206216,0.79296875,-0.005432129,0.6444702,-1.046875,0.0625,0.0625
1696253206252,0.78149414,-6.1035156E-5,0.6383667,-0.234375,-0.640625,0.15625
1696253206290,0.7890625,-0.010070801,0.6430054,0.8125,-0.546875,0.28125
1696253206332,0.78930664,-0.0017700195,0.64227295,0.6875,0.78125,-0.375
1696253206370,0.7910156,-0.006164551,0.6325073,-0.109375,0.625,-0.390625
1696253206411,0.80126953,0.0065307617,0.64349365,-0.421875,-0.75,0.03125
1696253206452,0.7902832,-0.006164551,0.6522827,0.375,-1.421875,1.015625
1696253206491,0.77612305,-0.012512207,0.63861084,-0.1875,-0.859375,0.171875
1696253206532,0.7792969,-0.005432129,0.6293335,-0.484375,-0.015625,0.265625
1696253206571,0.7961426,0.0018920898,0.6415405,0.328125,-0.453125,0.21875
1696253206613,0.7937012,0.0026245117,0.6329956,-0.734375,-0.859375,0.140625
1696253206652,0.78344727,-0.004211426,0.6412964,-1.25,-0.03125,0.703125
1696253206690,0.7902832,0.0038452148,0.6415405,0.375,-0.828125,0.171875
1696253206730,0.7861328,-0.0037231445,0.63397217,0.0625,-0.75,-0.09375
1696253206771,0.78393555,0.0060424805,0.63031006,-0.71875,-0.3125,0.046875
1696253206811,0.78027344,-0.0015258789,0.6466675,0.453125,-0.140625,-0.078125
1696253206851,0.7944336,-0.0064086914,0.6329956,0.3125,0.484375,0.5625
1696253206890,0.7998047,1.8310547E-4,0.63201904,-0.5625,-0.015625,0.640625
1696253206930,0.78271484,-0.0020141602,0.6432495,0.625,-0.140625,0.84375
1696253206970,0.779541,-0.0017700195,0.6491089,-0.046875,-1.21875,0.921875
1696253207011,0.76904297,0.0067749023,0.62835693,-1.828125,-1.53125,0.59375
1696253207051,0.79052734,0.012145996,0.638855,-0.546875,0.578125,-0.046875
1696253207093,0.80981445,-0.005432129,0.64886475,0.546875,0.046875,-0.453125
1696253207133,0.7973633,-0.011047363,0.6268921,-1.453125,0.296875,0.640625
1696253207171,0.78393555,0.0099487305,0.6256714,-1.28125,-0.3125,0.21875
1696253207211,0.78637695,-5.493164E-4,0.638855,-0.34375,-0.140625,0.5
1696253207251,0.79248047,-0.004211426,0.63031006,0.8125,-0.5,0.359375
1696253207292,0.7902832,0.0036010742,0.6486206,0.40625,-0.34375,0.3125
1696253207330,0.779541,0.009460449,0.6456909,-1.25,-0.921875,0.328125
1696253207391,0.77197266,0.014831543,0.64520264,-2.546875,-0.734375,-0.21875
1696253207409,0.7792969,-0.004699707,0.64520264,-1.421875,0.671875,-1.453125
1696253207430,0.814209,-0.0010375977,0.62298584,-0.578125,0.828125,-1.765625
1696253207471,0.82128906,-0.0049438477,0.6246948,-0.671875,-0.046875,-0.609375
1696253207511,0.79125977,0.007019043,0.62054443,-0.8125,0.078125,1.484375
1696253207552,0.7758789,0.0053100586,0.621521,-0.578125,-0.21875,1.53125
1696253207589,0.7973633,0.009460449,0.6498413,1.1875,1.125,0.921875
1696253207656,0.782959,0.0033569336,0.65057373,1.734375,-1.0625,1.0625
1696253207670,0.76293945,-0.0029907227,0.6317749,-0.96875,0.265625,-0.296875
1696253207712,0.81274414,0.011657715,0.61517334,-3.046875,1.9375,-1.078125
1696253207751,0.8208008,0.016296387,0.618103,0.15625,2.109375,-1.09375
1696253207791,0.80029297,0.003112793,0.61395264,-0.25,-2.140625,0.359375
1696253207831,0.77978516,0.003112793,0.62054443,-2.4375,0.03125,2.046875
1696253207893,0.7890625,0.015075684,0.6281128,1.15625,-0.4375,1.484375
1696253207909,0.8005371,-0.0044555664,0.6456909,3.03125,-0.421875,0.1875
1696253207950,0.7963867,-0.002746582,0.61639404,-0.46875,-0.828125,0.09375
1696253207990,0.7993164,0.024353027,0.6342163,-0.796875,-0.828125,-0.375
1696253208030,0.7919922,0.00970459,0.62176514,-1.234375,-0.078125,0.390625
1696253208093,0.7885742,0.010192871,0.62615967,-0.953125,0.0,-0.09375
1696253208110,0.79907227,0.013122559,0.6246948,-0.734375,-1.125,0.0
1696253208150,0.79907227,0.015075684,0.6359253,0.59375,-0.03125,0.375
1696253208191,0.7949219,0.0033569336,0.61932373,-0.40625,-1.359375,0.453125
1696253208253,0.8066406,0.0079956055,0.6251831,-1.546875,-0.125,0.328125
1696253208270,0.7949219,0.01727295,0.63934326,-1.484375,-0.4375,0.234375
1696253208312,0.78149414,0.011413574,0.6376343,-0.5625,-0.578125,0.078125
1696253208351,0.7907715,0.0065307617,0.6264038,-0.0625,-0.703125,0.140625
1696253208412,0.80322266,0.012878418,0.62664795,0.375,-0.234375,-0.015625
1696253208429,0.7932129,0.018005371,0.62249756,0.53125,-1.0,-0.0625
1696253208472,0.78881836,0.016296387,0.63690186,0.59375,-0.34375,-0.109375
1696253208512,0.8010254,0.013122559,0.62835693,-0.609375,-0.859375,0.109375
1696253208551,0.79663086,0.0021362305,0.61590576,-1.375,-0.6875,0.5625
1696253208612,0.7980957,0.014587402,0.62786865,-0.5,-0.578125,-0.09375
1696253208629,0.79052734,0.0045776367,0.63153076,-0.3125,-0.796875,0.453125
1696253208670,0.80029297,0.012390137,0.6281128,-0.234375,-0.53125,0.171875
1696253208689,0.7961426,0.0099487305,0.63861084,0.15625,-0.84375,-0.140625
1696253208733,0.7858887,0.019226074,0.633728,0.6875,-1.640625,-0.203125
1696253208771,0.7766113,0.012634277,0.63397217,-0.140625,-0.78125,-0.234375
1696253208811,0.7973633,0.019470215,0.6481323,-0.15625,0.296875,-1.21875
1696253208852,0.8054199,0.002380371,0.61151123,-2.265625,-2.609375,-0.59375
1696253208891,0.8005371,0.011169434,0.61932373,-2.515625,-2.90625,-0.359375
1696253208933,0.78149414,0.014343262,0.6456909,-1.46875,-5.0,-1.125
1696253208972,0.76220703,0.008483887,0.6581421,5.296875,-9.71875,-3.46875
1696253209012,0.7741699,-0.020568848,0.6622925,10.71875,-11.4375,-6.265625
1696253209051,0.75,-3.0517578E-4,0.6679077,13.5,-3.359375,-7.6875
1696253209090,0.73461914,-0.024719238,0.6820679,10.203125,-2.140625,-2.296875
1696253209131,0.80249023,-0.057678223,0.6864624,1.1875,-3.515625,0.421875
1696253209174,0.8027344,-0.06939697,0.69989014,-3.5,-2.40625,0.390625
1696253209212,0.77783203,-0.04864502,0.680603,-3.421875,-4.359375,0.296875
1696253209251,0.73706055,-0.034729004,0.6535034,-0.4375,-3.34375,0.65625
1696253209291,0.7260742,-0.0017700195,0.6967163,2.859375,-0.15625,3.328125
1696253209332,0.7385254,-0.019104004,0.68621826,0.609375,5.421875,4.84375
1696253209371,0.7963867,-0.038635254,0.6178589,-0.65625,14.84375,7.5625
1696253209413,0.83154297,-0.0025024414,0.61639404,-4.8125,9.046875,8.515625
1696253209451,0.7775879,0.016784668,0.65960693,-0.328125,0.328125,4.421875
1696253209493,0.7578125,-0.02960205,0.64276123,-0.109375,-2.8125,-0.078125
1696253209533,0.7714844,-0.043273926,0.6322632,-1.828125,-1.109375,-1.4375
1696253209573,0.7817383,0.0016479492,0.63397217,-1.65625,-3.296875,-1.828125
1696253209612,0.77734375,0.011657715,0.65008545,-1.296875,-2.984375,-0.453125
1696253209651,0.7878418,-7.9345703E-4,0.6642456,-2.5625,-1.46875,0.328125
1696253209693,0.77612305,-0.0029907227,0.68377686,1.0625,-0.296875,-0.21875
1696253209731,0.7854004,-0.0015258789,0.6779175,0.6875,0.0,-0.796875
1696253209770,0.7648926,-0.0012817383,0.6400757,-2.53125,-1.78125,0.359375
1696253209811,0.7692871,0.008728027,0.65496826,-0.390625,-1.0,0.515625
1696253209851,0.7651367,-0.007873535,0.66448975,0.546875,0.0,0.421875
1696253209890,0.7792969,-0.0071411133,0.6588745,0.984375,-0.015625,-0.140625
1696253209930,0.78808594,-0.0134887695,0.6569214,-1.1875,-0.796875,-0.734375
1696253209970,0.7963867,0.0016479492,0.65448,-2.125,-0.03125,0.421875
1696253210011,0.7915039,0.0079956055,0.668396,-1.09375,-0.984375,1.234375
1696253210032,0.7558594,-0.006652832,0.6637573,0.34375,-0.96875,0.734375
1696253210073,0.7565918,-0.019348145,0.6539917,1.65625,1.578125,1.9375
1696253210113,0.76831055,-0.0051879883,0.63323975,3.078125,1.609375,1.015625
1696253210153,0.78515625,0.010192871,0.6364136,1.15625,0.0625,-0.84375
1696253210191,0.795166,0.016052246,0.6586304,-0.484375,-0.765625,-0.515625
1696253210253,0.78686523,-0.0015258789,0.65008545,-2.15625,-1.65625,0.453125
1696253210271,0.78466797,-0.0068969727,0.6491089,-1.984375,-1.734375,-0.21875
1696253210311,0.77612305,-0.0068969727,0.65008545,-2.328125,-0.921875,-0.75
1696253210353,0.7824707,0.0018920898,0.66204834,-1.828125,-1.421875,0.078125
1696253210411,0.76123047,-0.0022583008,0.6610718,-0.4375,-1.390625,0.453125
1696253210430,0.7614746,0.0048217773,0.6581421,-0.921875,0.65625,0.46875
1696253210494,0.7729492,-5.493164E-4,0.6688843,0.859375,0.65625,0.125
1696253210509,0.7746582,0.002380371,0.65423584,1.453125,-0.234375,0.03125
1696253210553,0.7800293,-3.0517578E-4,0.6473999,0.609375,-0.265625,0.40625
1696253210610,0.77978516,0.008483887,0.6481323,-0.078125,-0.109375,0.421875
1696253210630,0.7758789,0.015075684,0.6508179,-0.25,-0.171875,0.25
1696253210674,0.7763672,4.272461E-4,0.65545654,0.5625,-0.890625,0.53125
1696253210712,0.77075195,-0.0020141602,0.6539917,-0.140625,-0.625,0.28125
1696253210753,0.77685547,-0.0010375977,0.65618896,-1.71875,-0.3125,-0.015625
1696253210790,0.7780762,0.0060424805,0.65667725,-0.59375,-0.015625,-0.140625
1696253210833,0.7780762,-5.493164E-4,0.66204834,0.265625,0.03125,0.265625
1696253210873,0.7792969,0.007751465,0.6647339,0.375,0.765625,0.46875
1696253210936,0.7661133,0.018493652,0.6676636,1.0,2.9375,1.015625
1696253210950,0.77783203,-0.018127441,0.649353,2.953125,3.296875,1.375
1696253210990,0.7895508,-0.0056762695,0.63031006,2.421875,2.21875,0.34375
1696253211053,0.79589844,-0.0025024414,0.62957764,2.890625,1.625,0.328125
1696253211069,0.7897949,0.0045776367,0.61102295,-0.953125,-0.59375,1.25
1696253211132,0.77734375,-0.0049438477,0.63153076,-1.0625,-0.296875,0.640625
1696253211150,0.77905273,0.0045776367,0.6415405,-1.625,-1.0625,-0.453125
1696253211192,0.7907715,-0.0044555664,0.6408081,-0.734375,-0.90625,-0.46875
1696253211253,0.8027344,0.010925293,0.64276123,-1.921875,-1.09375,-0.21875
1696253211292,0.7758789,0.005065918,0.6444702,-0.46875,-1.53125,0.375
1696253211332,0.76831055,-0.010803223,0.6298218,-1.671875,-1.375,0.75
1696253211335,0.78466797,0.0033569336,0.64276123,-1.171875,0.546875,-0.515625
1696253211371,0.79541016,0.004333496,0.63739014,-0.59375,-0.671875,-0.296875
1696253211413,0.78759766,0.008239746,0.6539917,0.21875,-1.84375,0.015625
1696253211453,0.7861328,-0.014709473,0.651062,0.046875,-0.890625,0.703125
1696253211492,0.7907715,0.005065918,0.64642334,-1.1875,-0.859375,0.265625
1696253211530,0.7973633,0.011657715,0.6412964,-0.46875,-1.03125,-0.0625
1696253211571,0.78125,-3.0517578E-4,0.64837646,0.875,-0.71875,0.171875
1696253211612,0.7739258,0.0028686523,0.6444702,-0.875,-0.53125,0.171875
1696253211651,0.7722168,0.012634277,0.64056396,-0.640625,-0.421875,-0.125
1696253211691,0.7783203,0.005065918,0.64471436,0.359375,-0.40625,0.046875
1696253211731,0.79345703,0.0048217773,0.6469116,0.0625,-0.4375,0.015625
1696253211771,0.7883301,6.713867E-4,0.64398193,-0.75,-0.796875,-0.140625
1696253211812,0.7927246,0.008972168,0.6473999,-1.421875,-0.40625,-0.125
1696253211851,0.78393555,0.0067749023,0.64178467,-1.015625,-0.171875,0.140625
1696253211891,0.78686523,0.0045776367,0.64520264,-0.984375,-0.578125,-0.078125
1696253211932,0.78271484,0.01361084,0.64837646,-0.875,0.171875,-0.25
1696253211970,0.7832031,0.007019043,0.638855,0.015625,-0.46875,0.546875
1696253212012,0.7800293,4.272461E-4,0.6366577,0.484375,-0.390625,0.203125
1696253212051,0.7871094,0.0053100586,0.65374756,0.421875,-0.21875,0.015625
1696253212093,0.7949219,0.0053100586,0.65374756,-0.109375,-0.8125,-0.03125
1696253212131,0.7788086,0.0079956055,0.64349365,-1.015625,-1.203125,0.21875
1696253212171,0.7746582,0.007019043,0.63934326,-0.59375,-1.015625,0.203125
1696253212214,0.76953125,-0.0032348633,0.6342163,0.796875,-0.59375,-0.328125
1696253212251,0.79956055,0.020202637,0.6901245,6.03125,4.859375,-3.453125
1696253212292,0.7927246,-0.024475098,0.6571655,15.4375,4.109375,-2.875
1696253212330,0.7897949,-0.041809082,0.6095581,8.515625,-4.0625,-3.0625
1696253212372,0.77124023,-0.039611816,0.6281128,5.46875,-2.6875,-2.9375
1696253212410,0.77124023,-0.03277588,0.68255615,8.140625,-1.0,1.953125
1696253212450,0.82373047,-0.054748535,0.62835693,-0.203125,-4.828125,3.515625
1696253212493,0.7705078,-0.016906738,0.64178467,-3.40625,-1.1875,4.171875
1696253212531,0.7692871,-0.014953613,0.619812,2.296875,3.40625,1.046875
1696253212571,0.79541016,-0.005432129,0.6129761,-1.671875,2.3125,4.046875
1696253212610,0.78149414,-0.0044555664,0.604187,-6.078125,-0.140625,4.5
1696253212630,0.7858887,-0.038391113,0.6288452,-3.59375,-1.25,1.109375
1696253212672,0.782959,-0.024230957,0.63934326,-4.390625,-2.96875,-1.171875
1696253212712,0.7861328,-0.007385254,0.64276123,-3.46875,-4.09375,-2.4375
1696253212774,0.7890625,0.0026245117,0.6588745,-3.140625,-2.671875,-1.484375
1696253212790,0.7819824,-0.018615723,0.6581421,-4.078125,-1.75,0.3125
1696253212831,0.7751465,-0.027160645,0.66400146,-2.703125,-2.25,-0.15625
1696253212872,0.7648926,-0.013000488,0.6659546,0.296875,-1.671875,-0.40625
1696253212911,0.77197266,4.272461E-4,0.65740967,1.984375,-0.234375,0.03125
1696253212976,0.78027344,-0.0051879883,0.65545654,2.984375,0.671875,1.1875
1696253213015,0.78466797,-0.0032348633,0.6466675,2.703125,0.90625,1.421875
1696253213030,0.7961426,-0.01739502,0.64886475,0.8125,0.609375,0.5625
1696253213071,0.78515625,-0.01739502,0.649353,0.8125,0.0625,0.0625
1696253213112,0.7753906,-0.0068969727,0.6351929,-0.375,-2.03125,-0.515625
1696253213175,0.7788086,0.0018920898,0.638855,-3.4375,-0.765625,-0.53125
1696253213211,0.78149414,0.0033569336,0.6522827,-2.0,-0.53125,0.59375
1696253213229,0.76586914,-0.01763916,0.65057373,-1.421875,-1.203125,0.0
1696253213272,0.77368164,-0.014465332,0.6547241,-1.28125,-1.109375,-0.28125
1696253213311,0.7832031,-0.015686035,0.6691284,-0.203125,-0.234375,-0.09375
1696253213376,0.782959,-0.008850098,0.64642334,-0.484375,-0.40625,0.078125
1696253213392,0.7751465,-0.0029907227,0.6539917,-0.21875,-0.328125,-0.015625
1696253213431,0.7746582,-0.0015258789,0.6478882,0.25,-0.703125,0.296875
1696253213471,0.77124023,0.002380371,0.66571045,-0.0625,0.21875,0.46875
1696253213514,0.7871094,-0.0064086914,0.64056396,-0.890625,-0.578125,0.640625
1696253213552,0.78686523,-0.0017700195,0.6486206,-0.28125,-0.640625,0.1875
1696253213592,0.7758789,-0.0064086914,0.6515503,-0.390625,-0.375,-0.015625
1696253213632,0.7770996,-0.008605957,0.6535034,-0.34375,-0.671875,0.3125
1696253213672,0.782959,-0.0037231445,0.6559448,1.640625,1.265625,-0.046875
1696253213715,0.80444336,-0.014709473,0.6454468,4.296875,4.578125,0.4375
1696253213750,0.78222656,0.0014038086,0.64227295,2.25,4.734375,1.96875
1696253213815,0.7775879,-0.016662598,0.6288452,0.65625,1.0625,1.265625
1696253213833,0.78515625,-0.0154418945,0.6432495,0.375,0.53125,0.0625
1696253213872,0.79785156,-0.014221191,0.61932373,1.234375,0.0,0.328125
1696253213912,0.782959,-0.0064086914,0.62957764,-0.3125,-0.390625,0.65625
1696253213951,0.78881836,-0.0029907227,0.6190796,-1.515625,-1.234375,-0.0625
1696253213971,0.7910156,-0.0076293945,0.63201904,-0.796875,0.0,0.109375
1696253214012,0.7885742,-0.020568848,0.6420288,-0.59375,-0.953125,0.359375
1696253214051,0.7871094,-0.018615723,0.6273804,-0.40625,-0.546875,-0.546875
1696253214092,0.8000488,0.0026245117,0.63323975,-0.546875,-0.453125,-0.5
1696253214131,0.79467773,-0.0044555664,0.63446045,-1.484375,-0.15625,0.390625
1696253214172,0.78686523,-0.0017700195,0.635437,-1.203125,-0.859375,0.828125
1696253214212,0.78125,-0.010314941,0.637146,-0.640625,-0.890625,0.171875
1696253214251,0.79003906,-0.004211426,0.6390991,0.109375,-0.828125,-0.234375
1696253214291,0.7824707,-0.006164551,0.63934326,0.046875,-0.671875,0.375
1696253214330,0.79248047,-0.0095825195,0.63690186,0.15625,-0.59375,0.234375
1696253214372,0.79467773,-0.0015258789,0.63323975,-0.546875,-0.03125,-0.234375
1696253214411,0.79125977,0.0053100586,0.63861084,0.125,-0.453125,0.078125
1696253214451,0.78027344,-0.004699707,0.63494873,-0.28125,-1.0625,0.40625
1696253214493,0.7897949,-0.014953613,0.63153076,-0.8125,-0.84375,0.53125
1696253214538,0.78881836,-0.0015258789,0.6425171,-0.46875,-1.09375,-0.21875
1696253214574,0.7922363,-0.0025024414,0.64471436,0.296875,-0.09375,-0.28125
1696253214612,0.78027344,0.0033569336,0.6754761,0.40625,0.21875,-0.34375
1696253214651,0.7487793,-0.005432129,0.64520264,-1.53125,-2.546875,0.375
1696253214693,0.7807617,-0.009338379,0.6378784,0.3125,0.703125,-0.03125
1696253214732,0.8112793,-0.012268066,0.62005615,0.75,2.203125,-0.3125
1696253214771,0.80859375,-0.004699707,0.621521,1.6875,1.28125,0.359375
1696253214813,0.80200195,-0.0076293945,0.62176514,-0.84375,-0.078125,0.90625
1696253214852,0.7910156,-0.0032348633,0.60931396,-0.59375,-0.46875,0.71875
1696253214892,0.7849121,9.1552734E-4,0.6351929,0.53125,-0.46875,0.453125
1696253214932,0.81274414,-0.008850098,0.61932373,-1.046875,-1.953125,0.40625
1696253214972,0.80981445,-0.0020141602,0.6268921,-1.859375,-1.921875,-0.203125
1696253215013,0.79174805,0.00970459,0.6469116,-2.8125,-1.796875,-0.421875
1696253215051,0.7729492,-0.0115356445,0.6469116,-2.96875,-1.375,0.25
1696253215092,0.7766113,0.005065918,0.6400757,-1.234375,-0.59375,-0.09375
1696253215130,0.77612305,0.0060424805,0.6395874,0.65625,-0.734375,-0.28125
1696253215171,0.7883301,0.0026245117,0.64886475,0.75,-0.515625,0.40625
1696253215211,0.79345703,-0.004699707,0.63983154,-0.046875,-0.28125,1.15625
1696253215251,0.7937012,4.272461E-4,0.6325073,0.0,0.40625,0.546875
1696253215270,0.795166,0.008483887,0.62713623,-0.125,-0.09375,0.328125
1696253215312,0.80371094,0.003112793,0.63812256,-0.65625,-0.21875,0.140625
1696253215355,0.78027344,-0.008361816,0.6244507,-1.0,-0.578125,0.421875
1696253215391,0.7883301,0.008239746,0.6310425,-0.875,-0.203125,-0.296875
1696253215452,0.7939453,0.005554199,0.6383667,-0.21875,0.1875,0.546875
1696253215471,0.7949219,-0.0032348633,0.6408081,-0.046875,-0.53125,0.53125
1696253215513,0.7751465,0.007019043,0.64105225,-1.390625,-0.78125,-0.1875
1696253215574,0.7873535,0.0138549805,0.63690186,-0.21875,-0.265625,0.046875
1696253215610,0.7858887,0.0036010742,0.6351929,0.78125,0.125,0.453125
1696253215630,0.78686523,-0.0010375977,0.63079834,-0.609375,-0.734375,0.296875
1696253215671,0.7832031,-0.0010375977,0.62957764,-0.375,-0.484375,0.15625
1696253215715,0.78930664,0.0060424805,0.6359253,0.890625,-0.46875,-0.015625
1696253215752,0.79296875,0.0014038086,0.62835693,0.09375,-0.71875,0.21875
1696253215791,0.795166,0.0026245117,0.63861084,-1.0,-0.578125,-0.015625
1696253215833,0.78393555,0.012145996,0.6400757,-1.0,-1.28125,0.171875
1696253215893,0.7895508,0.004333496,0.6342163,0.03125,-0.765625,0.140625
1696253215932,0.79003906,0.0033569336,0.63861084,-0.171875,-0.734375,0.015625
1696253215950,0.7807617,0.01361084,0.6366577,-0.484375,-1.390625,0.203125
1696253215992,0.7890625,0.010437012,0.6466675,0.71875,-1.75,0.109375
1696253216051,0.7871094,4.272461E-4,0.66619873,-1.015625,-1.703125,0.359375
1696253216070,0.7585449,-0.0012817383,0.6203003,-5.140625,-3.765625,-0.109375
1696253216114,0.7824707,0.0065307617,0.62615967,-3.0,-2.125,-1.921875
1696253216150,0.8005371,0.018249512,0.6720581,5.1875,-1.265625,-1.515625
1696253216213,0.7836914,-0.008850098,0.6793823,10.015625,-4.8125,-1.65625
1696253216250,0.7570801,-0.01763916,0.6444702,4.0,-5.09375,-2.3125
1696253216271,0.76464844,-0.0032348633,0.65545654,1.640625,-0.421875,-1.5
1696253216311,0.81396484,-0.003967285,0.67718506,5.859375,0.15625,0.640625
1696253216353,0.8041992,-0.039855957,0.6781616,4.78125,-1.84375,-0.09375
1696253216391,0.7595215,-0.047424316,0.6671753,1.359375,-0.640625,0.046875
1696253216433,0.7536621,-0.02545166,0.6432495,-2.015625,-0.90625,1.78125
1696253216494,0.75219727,-0.018859863,0.6473999,0.90625,-0.5,1.140625
1696253216511,0.7541504,-0.003967285,0.668396,0.3125,-2.484375,-0.046875
1696253216572,0.7780762,-0.019348145,0.64764404,0.546875,0.96875,1.609375
1696253216592,0.78808594,-0.016662598,0.6288452,7.0625,5.890625,3.59375
1696253216610,0.77441406,-0.015930176,0.5895386,0.96875,0.0,4.015625
1696253216651,0.78271484,-0.0056762695,0.65252686,-3.828125,-1.234375,1.71875
1696253216693,0.7758789,-0.04034424,0.6539917,-0.6875,-0.6875,0.59375
1696253216733,0.79833984,-0.04864502,0.6310425,-2.3125,-3.484375,-0.53125
1696253216772,0.78100586,0.00970459,0.65667725,-5.765625,-3.390625,-2.71875
1696253216812,0.7609863,0.0060424805,0.66156006,-5.515625,-3.203125,-0.65625
1696253216851,0.76708984,-3.0517578E-4,0.67303467,-2.390625,-1.28125,0.34375
1696253216891,0.76708984,-0.023742676,0.6727905,0.171875,-2.0,-1.03125
1696253216932,0.77490234,-0.030334473,0.68548584,-1.21875,-2.546875,-0.96875
1696253216971,0.7607422,-0.003967285,0.67889404,-0.1875,-0.25,0.875
1696253217012,0.7548828,-6.1035156E-5,0.6635132,0.421875,-0.40625,0.59375
1696253217052,0.75439453,-3.0517578E-4,0.6659546,1.609375,1.6875,0.75
1696253217093,0.7687988,9.1552734E-4,0.6659546,1.9375,-0.03125,0.765625
1696253217131,0.7709961,-0.008361816,0.6737671,1.265625,-0.953125,0.5
1696253217171,0.77124023,-0.006164551,0.664978,-0.125,-0.265625,0.125
1696253217213,0.7692871,-0.006164551,0.66278076,-0.984375,-0.140625,0.3125
1696253217252,0.77441406,-0.0068969727,0.64764404,-0.3125,-0.390625,-0.15625
1696253217292,0.7680664,-0.0115356445,0.65911865,-1.28125,-0.484375,0.109375
1696253217331,0.7685547,-0.010559082,0.66448975,-1.546875,-1.140625,-0.046875
1696253217372,0.76538086,-0.007873535,0.6708374,-1.140625,-0.265625,-0.109375
1696253217413,0.7739258,-0.012268066,0.682312,0.578125,-0.546875,-0.03125
1696253217451,0.7663574,-0.009094238,0.6618042,-0.484375,-0.5625,0.078125
1696253217492,0.75756836,-6.1035156E-5,0.6635132,-1.734375,-0.71875,0.0625
1696253217532,0.75878906,0.002380371,0.668396,0.078125,-0.640625,0.171875
1696253217571,0.77441406,-0.013000488,0.6598511,2.265625,-0.21875,0.03125
1696253217610,0.7800293,-0.0056762695,0.6569214,-0.109375,-0.203125,-0.140625
1696253217653,0.7685547,-0.0017700195,0.6654663,-0.671875,-0.734375,0.09375
1696253217691,0.7705078,-0.005432129,0.66864014,-0.625,-0.828125,0.0
1696253217732,0.77441406,-0.019104004,0.66204834,-0.21875,-0.328125,0.21875
1696253217771,0.7741699,-0.012023926,0.66400146,-0.34375,-0.671875,0.109375
1696253217813,0.75805664,0.008972168,0.66741943,-0.4375,-0.4375,0.0625
1696253217873,0.7675781,-0.007385254,0.6732788,0.328125,-0.46875,0.28125
1696253217890,0.7614746,-0.010559082,0.66619873,-0.09375,-0.421875,0.40625
1696253217911,0.7717285,-0.008605957,0.65960693,0.40625,0.046875,0.28125
1696253217974,0.7751465,-0.009094238,0.6688843,0.78125,-0.421875,0.109375
1696253217989,0.77001953,-0.0056762695,0.6664429,-0.09375,-0.078125,0.609375
1696253218031,0.7709961,-0.005432129,0.66156006,0.0,-0.609375,0.515625
1696253218092,0.77441406,-0.010803223,0.6679077,0.203125,0.15625,0.203125
1696253218130,0.76000977,-0.0012817383,0.6539917,-1.515625,0.0625,-0.21875
1696253218151,0.7583008,-0.009338379,0.6625366,-1.921875,0.171875,0.046875
1696253218210,0.7602539,-0.0064086914,0.6664429,-1.78125,0.25,-0.1875
1696253218253,0.76904297,-0.008605957,0.6732788,0.65625,0.765625,-0.296875
1696253218271,0.7819824,-0.0032348633,0.65301514,-0.734375,-0.65625,-0.296875
1696253218336,0.77856445,0.005065918,0.65545654,-0.46875,-0.515625,-0.0625
1696253218372,0.7705078,0.002380371,0.6622925,-0.15625,-0.703125,0.46875
1696253218391,0.77197266,-0.020812988,0.6654663,0.296875,-0.640625,0.828125
1696253218454,0.7705078,-0.0178833,0.6691284,1.21875,-1.296875,0.359375
1696253218493,0.76904297,-0.0056762695,0.6654663,1.3125,-0.9375,-0.171875
1696253218509,0.7624512,-0.0032348633,0.6713257,1.109375,-1.125,0.421875
1696253218553,0.76586914,-3.0517578E-4,0.6647339,0.921875,-1.078125,0.296875
1696253218612,0.7739258,-0.008361816,0.6642456,2.0,0.265625,-0.34375
1696253218631,0.7805176,-0.013244629,0.67401123,4.265625,1.5625,-1.0
1696253218671,0.7717285,-0.02545166,0.65960693,4.4375,1.75,-0.875
1696253218732,0.77441406,-0.028381348,0.6593628,2.171875,-1.34375,-1.859375
1696253218749,0.7746582,-0.035217285,0.6781616,1.203125,-3.546875,-2.5625
1696253218791,0.76660156,-0.027160645,0.68304443,0.875,-1.703125,-1.796875
1696253218853,0.78149414,-0.026184082,0.6600952,-2.125,-0.875,0.359375
1696253218870,0.7614746,-0.018127441,0.65008545,-3.125,-0.015625,1.296875
1696253218933,0.7648926,-0.01373291,0.67767334,0.6875,-1.890625,0.15625
1696253218953,0.7561035,-0.023742676,0.66986084,-2.390625,-4.734375,0.21875
1696253219014,0.7541504,-0.0178833,0.6593628,-2.515625,-2.1875,2.09375
1696253219031,0.74975586,-0.007873535,0.6737671,3.1875,1.015625,2.515625
1696253219090,0.74658203,-0.019836426,0.6329956,1.828125,0.65625,1.109375
1696253219112,0.75756836,0.0021362305,0.64178467,-0.03125,-1.78125,0.515625
1696253219149,0.78881836,-0.01739502,0.6864624,1.84375,-0.15625,1.71875
1696253219191,0.79711914,-0.0491333,0.6742554,0.0625,1.25,2.1875
1696253219210,0.7805176,-0.015197754,0.6664429,-7.265625,-3.15625,0.3125
1696253219252,0.72875977,0.013366699,0.66864014,-7.4375,-3.328125,-0.671875
1696253219291,0.7402344,-0.0056762695,0.6847534,2.15625,0.359375,-0.390625
1696253219332,0.7705078,-0.04058838,0.6793823,1.390625,0.28125,0.515625
1696253219371,0.76293945,-0.016906738,0.6918335,-0.953125,-0.34375,0.40625
1696253219413,0.7597656,-0.004211426,0.6791382,0.640625,-0.078125,0.15625
1696253219450,0.74780273,0.00579834,0.6737671,1.375,0.09375,0.28125
1696253219493,0.7570801,0.0038452148,0.67596436,2.0,0.5,0.6875
1696253219533,0.7583008,-0.013000488,0.66156006,0.1875,-1.15625,0.59375
1696253219574,0.76953125,-0.009094238,0.65301514,-0.546875,-0.34375,0.359375
1696253219612,0.7648926,-0.00982666,0.6737671,-0.234375,0.578125,0.140625
1696253219651,0.7702637,-0.02178955,0.6803589,0.359375,-0.625,-0.203125
1696253219693,0.7758789,-0.018859863,0.67059326,-0.03125,-1.515625,-0.015625
1696253219731,0.77124023,-0.0044555664,0.664978,-0.75,-0.359375,-0.1875
1696253219771,0.7548828,0.0014038086,0.6791382,-0.53125,-1.375,-0.1875
1696253219813,0.7590332,-0.0154418945,0.67962646,-0.359375,-1.5,0.109375
1696253219852,0.75341797,-0.018371582,0.6713257,-0.3125,-0.1875,0.625
1696253219891,0.75756836,-0.008605957,0.6757202,0.3125,-0.671875,0.28125
1696253219932,0.7578125,-0.012512207,0.6832886,0.65625,-0.9375,-0.25
1696253219972,0.7614746,-0.013977051,0.6737671,0.28125,-0.734375,0.078125
1696253220011,0.7687988,-0.00982666,0.6713257,0.5625,-0.3125,0.5
1696253220050,0.76342773,-0.010314941,0.664978,0.625,-0.453125,0.28125
1696253220093,0.7661133,-0.014221191,0.6762085,-0.296875,-0.375,0.328125
1696253220130,0.7626953,-0.014221191,0.6696167,-0.609375,-0.875,0.078125
1696253220171,0.75561523,-0.014709473,0.6828003,0.28125,-1.078125,0.171875
1696253220211,0.74609375,-0.013244629,0.68011475,-0.078125,-0.671875,0.0625
1696253220251,0.7709961,-0.005432129,0.67474365,-1.03125,0.015625,-0.046875
1696253220291,0.7722168,-0.0044555664,0.66082764,-0.84375,0.046875,-0.375
1696253220331,0.76586914,-0.008361816,0.6832886,-1.515625,1.5625,0.140625
1696253220372,0.751709,-0.009338379,0.682312,-2.65625,0.984375,0.796875
1696253220411,0.75561523,-0.014709473,0.6671753,-0.9375,0.40625,0.375
1696253220450,0.7558594,-0.0010375977,0.66571045,0.84375,1.046875,0.03125
1696253220511,0.7631836,-0.005432129,0.6613159,0.59375,0.21875,-0.03125
1696253220530,0.7680664,-0.0064086914,0.6725464,0.109375,0.125,0.421875
1696253220551,0.7680664,-0.00982666,0.6598511,-0.703125,0.265625,0.09375
1696253220634,0.77001953,-0.006164551,0.6622925,-0.6875,-0.125,0.203125
1696253220637,0.7697754,-7.9345703E-4,0.67401123,0.015625,-0.234375,0.015625
1696253220672,0.76953125,-0.010559082,0.67181396,-0.359375,-1.0625,0.28125
1696253220713,0.76000977,-0.005432129,0.6664429,-0.9375,-0.390625,0.359375
1696253220751,0.76416016,-0.00982666,0.66522217,0.125,-0.390625,0.109375
1696253220814,0.76538086,-0.0049438477,0.66864014,0.546875,-0.125,0.078125
1696253220830,0.7648926,-5.493164E-4,0.6593628,0.109375,-0.671875,0.390625
1696253220894,0.7675781,-0.003479004,0.66864014,0.296875,-0.84375,0.09375
1696253220931,0.76904297,-0.008605957,0.67108154,0.734375,-0.484375,0.171875
1696253220951,0.7705078,-0.0064086914,0.6671753,0.90625,-0.921875,0.328125
1696253221015,0.76538086,-0.008850098,0.6598511,1.34375,-0.75,0.15625
1696253221030,0.76538086,-0.010314941,0.66033936,0.78125,-0.1875,0.28125
1696253221072,0.7626953,-5.493164E-4,0.666687,0.140625,-0.734375,0.15625
1696253221130,0.763916,-0.0134887695,0.67352295,0.8125,-1.03125,0.0
1696253221151,0.767334,-0.013977051,0.66693115,0.46875,-0.90625,-0.1875
1696253221215,0.7685547,-0.003479004,0.66082764,-0.296875,-0.4375,-0.125
1696253221252,0.7751465,-0.010559082,0.6708374,-1.65625,0.171875,0.5625
1696253221272,0.76464844,-0.02154541,0.6654663,-1.015625,0.796875,0.53125
1696253221333,0.76171875,-0.010803223,0.6732788,0.109375,0.421875,0.046875
1696253221350,0.76586914,-0.015686035,0.66082764,0.421875,0.359375,0.546875
1696253221391,0.76171875,1.8310547E-4,0.67059326,0.296875,1.328125,0.484375
1696253221431,0.77124023,-0.010314941,0.65789795,-0.109375,-0.375,0.703125
1696253221494,0.77783203,-0.0071411133,0.6581421,-0.046875,0.40625,0.203125
1696253221510,0.77319336,-0.010559082,0.65911865,-0.15625,0.203125,0.4375
1696253221551,0.7675781,-0.013244629,0.6593628,-0.609375,-0.21875,0.328125
1696253221592,0.77197266,-0.0115356445,0.6466675,-1.203125,0.328125,0.3125
1696253221653,0.76464844,-0.010314941,0.6581421,-1.265625,-0.265625,0.171875
1696253221670,0.7714844,-0.009094238,0.67230225,-1.0,0.609375,-0.109375
1696253221711,0.7746582,-0.004699707,0.6503296,-0.78125,-0.25,0.40625
1696253221775,0.77441406,-0.010559082,0.65057373,0.171875,0.1875,-0.015625
1696253221815,0.77490234,0.008239746,0.6552124,-0.5,0.390625,0.25
1696253221819,0.7727051,-0.008117676,0.66033936,-0.5,0.0,0.515625
1696253221854,0.77197266,-0.018615723,0.6520386,-0.296875,-1.375,0.078125
1696253221891,0.7758789,0.0065307617,0.6610718,0.78125,0.96875,-0.453125
1696253221932,0.77319336,-0.0115356445,0.6498413,-0.625,-0.296875,0.734375
1696253221973,0.7878418,-0.0032348633,0.67181396,-1.59375,0.640625,0.078125
1696253222011,0.7766113,-0.01739502,0.6469116,-2.640625,-0.390625,0.390625
1696253222054,0.77612305,0.009216309,0.6576538,-0.59375,0.125,-0.234375
1696253222091,0.7687988,-0.007385254,0.66082764,0.609375,-1.3125,0.578125
1696253222132,0.7792969,-0.006164551,0.6605835,1.1875,-0.25,0.390625
1696253222170,0.78125,4.272461E-4,0.6515503,-0.375,-0.4375,0.21875
1696253222213,0.77246094,0.0018920898,0.6430054,-0.140625,-0.015625,0.3125
1696253222254,0.77856445,0.0048217773,0.6593628,0.640625,0.09375,0.078125
1696253222293,0.7805176,0.0014038086,0.6564331,-1.046875,-1.03125,0.203125
1696253222332,0.7819824,-0.0049438477,0.6600952,-0.125,-0.3125,0.5
1696253222372,0.7800293,0.0018920898,0.6520386,0.171875,-0.09375,0.203125
1696253222411,0.779541,0.003112793,0.6412964,0.84375,0.265625,0.328125
1696253222452,0.7766113,0.0028686523,0.6600952,1.15625,0.234375,0.25
1696253222490,0.779541,-0.008605957,0.6486206,-0.171875,-0.21875,0.8125
1696253222530,0.78100586,-0.0012817383,0.6552124,-0.328125,-0.140625,0.34375
1696253222571,0.78125,-0.007385254,0.6515503,-0.625,-0.140625,0.578125
1696253222611,0.77783203,0.0036010742,0.6520386,-0.96875,0.328125,0.0625
1696253222653,0.7844238,0.0072631836,0.6403198,-0.265625,-0.390625,0.203125
1696253222692,0.77319336,-0.0071411133,0.64276123,0.140625,-0.578125,0.28125
1696253222731,0.76708984,-0.003967285,0.6503296,0.515625,-0.421875,0.109375
1696253222771,0.7902832,6.713867E-4,0.6478882,-0.015625,-0.75,0.59375
1696253222809,0.7939453,-0.0025024414,0.64398193,0.90625,0.078125,0.421875
1696253222852,0.79125977,-0.004211426,0.6498413,0.765625,-1.171875,-0.4375
1696253222890,0.77905273,0.0067749023,0.6461792,-2.34375,-1.125,-0.515625
1696253222932,0.7751465,0.0018920898,0.6498413,-2.0,-0.9375,0.4375
1696253222971,0.7727051,-0.007385254,0.6576538,0.59375,-0.828125,0.640625
1696253223010,0.77856445,0.005065918,0.6564331,0.703125,0.046875,0.328125
1696253223051,0.7817383,4.272461E-4,0.6576538,0.21875,-0.53125,0.265625
1696253223091,0.78637695,0.0045776367,0.651062,0.640625,0.53125,0.21875
1696253223131,0.77856445,-0.004211426,0.6403198,-0.1875,-0.4375,0.3125
1696253223173,0.77246094,0.005554199,0.6376343,-1.296875,-0.875,-0.046875
1696253223189,0.78466797,0.0048217773,0.6498413,-0.171875,0.296875,0.0
1696253223253,0.77978516,-0.0017700195,0.6432495,-0.28125,-0.515625,0.0
1696253223274,0.7824707,9.1552734E-4,0.65374756,-0.9375,-0.296875,0.28125
1696253223313,0.78125,0.0016479492,0.6564331,-1.25,-0.578125,-0.046875
1696253223352,0.782959,-0.006164551,0.6454468,-0.0625,-0.65625,-0.125
1696253223394,0.77685547,0.0016479492,0.65057373,-0.09375,-0.453125,0.125
1696253223433,0.7805176,0.0072631836,0.6432495,-0.21875,-0.375,0.1875
1696253223472,0.7758789,0.0067749023,0.649353,0.09375,-0.28125,0.28125
1696253223512,0.77075195,-0.0037231445,0.6520386,0.765625,0.015625,0.390625
1696253223552,0.78930664,-0.00982666,0.6469116,1.0,0.1875,0.421875
1696253223613,0.7922363,0.0026245117,0.64593506,-0.109375,-0.34375,-0.203125
1696253223631,0.7727051,0.010192871,0.63861084,-0.703125,-0.84375,0.09375
1696253223694,0.78344727,0.0016479492,0.65740967,-0.75,-0.34375,0.421875
1696253223712,0.78027344,0.0065307617,0.64105225,-0.46875,-0.53125,0.40625
1696253223773,0.7861328,-0.0022583008,0.6515503,0.390625,-0.375,0.078125
1696253223790,0.78344727,6.713867E-4,0.64959717,-0.03125,-0.5,0.265625
1696253223833,0.77856445,0.010192871,0.64715576,0.171875,-0.46875,0.125
1696253223871,0.7780762,-6.1035156E-5,0.6420288,-0.8125,-0.75,0.0625
1696253223934,0.7858887,0.0048217773,0.6571655,-0.421875,0.28125,0.234375
1696253223951,0.7702637,0.0072631836,0.6432495,-0.109375,-0.9375,0.625
1696253224013,0.7753906,-7.9345703E-4,0.649353,0.46875,-0.546875,-0.078125
1696253224031,0.79589844,-0.0025024414,0.6449585,0.296875,0.640625,-0.46875
1696253224096,0.7919922,-0.0037231445,0.6334839,-0.1875,-0.6875,-0.75
1696253224111,0.7792969,0.0048217773,0.65496826,-1.078125,-0.3125,-0.84375
1696253224170,0.7861328,0.010681152,0.68573,2.46875,2.296875,-1.65625
1696253224191,0.7841797,-0.02520752,0.633728,6.109375,-2.859375,-1.421875
1696253224231,0.78759766,-0.0029907227,0.66693115,11.25,-1.0625,-4.234375
1696253224271,0.7661133,-0.034973145,0.6557007,14.234375,7.078125,-0.375
1696253224314,0.7800293,-0.046203613,0.6334839,1.078125,-3.53125,4.109375
1696253224352,0.80371094,-0.010314941,0.62298584,-2.09375,-1.390625,3.640625
1696253224392,0.7578125,-0.011779785,0.6322632,2.40625,-2.265625,1.234375
1696253224433,0.7597656,-0.04937744,0.63153076,3.296875,-1.671875,-0.15625
1696253224452,0.79003906,-0.030334473,0.6220093,-2.328125,-0.640625,0.765625
1696253224491,0.7866211,-0.02130127,0.6137085,-1.40625,-2.921875,0.578125
1696253224533,0.782959,-0.010559082,0.6508179,-0.65625,-3.0,-0.53125
1696253224572,0.7963867,-0.051818848,0.6727905,0.25,-0.828125,-0.21875
1696253224612,0.80322266,-0.028625488,0.65960693,-3.65625,-1.609375,-0.4375
1696253224654,0.7636719,-0.010070801,0.64642334,-7.28125,-2.5,0.203125
1696253224692,0.74121094,0.007751465,0.6610718,-3.90625,-0.8125,0.0625
1696253224733,0.7585449,-0.026184082,0.664978,1.03125,-2.140625,-0.078125
1696253224772,0.7734375,-0.032287598,0.6600952,1.53125,-1.421875,-0.546875
1696253224812,0.7734375,-0.020568848,0.66278076,1.125,-1.25,-0.484375
1696253224851,0.7770996,-0.011047363,0.6688843,0.328125,-1.078125,0.484375
1696253224892,0.77490234,-0.016418457,0.6593628,0.8125,0.453125,0.578125
1696253224931,0.7763672,-0.013977051,0.65423584,-0.328125,0.46875,0.484375
1696253224973,0.77685547,-0.026916504,0.6610718,0.265625,-0.875,0.625
1696253225013,0.7714844,-0.019592285,0.6622925,0.09375,0.40625,-0.15625
1696253225053,0.7753906,-0.018127441,0.6478882,-1.09375,0.65625,0.59375
1696253225091,0.7661133,-0.012268066,0.6522827,-0.4375,-0.40625,0.359375
1696253225133,0.77734375,-0.027404785,0.6625366,-0.9375,-0.96875,-0.140625
1696253225172,0.7758789,-0.011291504,0.65179443,0.15625,0.125,0.3125
1696253225211,0.7788086,-0.022766113,0.6557007,0.125,-0.21875,0.421875
1696253225253,0.78027344,-0.014221191,0.6635132,-0.734375,-0.34375,0.359375
1696253225291,0.77001953,-0.023254395,0.65374756,0.078125,-0.546875,0.25
1696253225331,0.77563477,-0.019348145,0.65252686,0.21875,-0.421875,0.21875
1696253225373,0.77001953,-0.024475098,0.6586304,-0.328125,-0.078125,0.03125
1696253225411,0.7746582,-0.015197754,0.65545654,-0.390625,-1.015625,-0.21875
1696253225451,0.77978516,-0.01373291,0.6605835,-0.640625,-0.625,-0.15625
1696253225492,0.7702637,-0.014709473,0.64593506,-0.65625,-0.859375,0.171875
1696253225532,0.7727051,-0.018615723,0.6535034,0.21875,-1.0625,-0.03125
1696253225573,0.7766113,-0.027160645,0.66082764,-0.3125,-1.328125,0.1875
1696253225612,0.77368164,-0.022277832,0.6569214,0.234375,-1.25,0.21875
1696253225653,0.7727051,-0.024475098,0.6515503,-0.296875,-1.0,-0.453125
1696253225692,0.7636719,-0.01373291,0.6708374,0.28125,-0.71875,-0.046875
1696253225752,0.7697754,-0.018371582,0.6559448,-0.59375,-1.140625,0.40625
1696253225770,0.7680664,-0.008117676,0.6564331,-0.5,-0.203125,0.53125
1696253225790,0.7663574,-0.0178833,0.6654663,0.203125,-0.15625,0.359375
1696253225831,0.7705078,-0.020568848,0.66033936,-0.46875,-0.96875,0.53125
1696253225872,0.7692871,-0.024719238,0.6539917,-0.34375,-0.4375,0.515625
1696253225913,0.7717285,-0.013000488,0.66400146,0.453125,-0.609375,-0.203125
1696253225951,0.77612305,-0.015197754,0.66522217,-0.09375,-0.96875,-0.21875
1696253225991,0.77441406,-0.015930176,0.6557007,-0.3125,-0.453125,-0.09375
1696253226053,0.76953125,-0.016174316,0.6520386,-0.984375,-0.421875,-0.015625
1696253226093,0.76660156,-0.0134887695,0.6571655,-2.359375,-1.0,-0.4375
1696253226112,0.7644043,-0.0256958,0.65911865,-2.140625,-1.25,-1.109375
1696253226153,0.7800293,-0.010314941,0.6637573,-2.953125,-1.1875,-1.65625
1696253226192,0.7800293,0.0045776367,0.67767334,-0.234375,0.734375,-1.5625
1696253226233,0.77612305,-0.013000488,0.69281006,1.75,1.953125,-1.046875
1696253226270,0.7758789,-0.030578613,0.68377686,2.34375,0.578125,0.40625
1696253226335,0.76660156,-0.038879395,0.65301514,4.515625,0.921875,1.015625
1696253226353,0.7890625,-0.024475098,0.6635132,5.125,3.53125,0.96875
1696253226393,0.77490234,-0.028381348,0.65667725,3.34375,2.671875,1.640625
1696253226455,0.751709,-0.025939941,0.65008545,2.546875,1.40625,2.640625
1696253226472,0.77368164,-0.018615723,0.6264038,2.90625,1.25,2.015625
1696253226511,0.7939453,-0.019836426,0.6310425,4.078125,0.578125,1.453125
1696253226573,0.7944336,-0.026184082,0.6083374,1.59375,-0.015625,0.984375
1696253226590,0.7807617,-0.01739502,0.61834717,-0.625,-2.90625,0.84375
1696253226656,0.7919922,-0.0154418945,0.6400757,-1.140625,-2.578125,0.40625
1696253226693,0.8083496,-0.049865723,0.6532593,-2.359375,-0.03125,1.578125
1696253226710,0.795166,-0.039611816,0.65130615,-6.96875,-1.8125,0.875
1696253226751,0.7519531,-0.005432129,0.6420288,-6.359375,-2.28125,-0.71875
1696253226793,0.7531738,-0.0029907227,0.64349365,-2.0625,-0.546875,-0.109375
1696253226830,0.76416016,-0.01763916,0.6659546,2.0,-0.984375,1.078125
1696253226872,0.7758789,-0.04522705,0.6810913,4.0625,-1.5,0.515625
1696253226911,0.7792969,-0.03302002,0.66156006,0.8125,-1.28125,-0.09375
1696253226952,0.7746582,-0.0025024414,0.63323975,1.578125,0.109375,-0.1875
1696253226992,0.7697754,0.002380371,0.6478882,1.171875,-0.375,0.046875
1696253227031,0.7770996,0.0021362305,0.6581421,-0.9375,-0.9375,0.875
1696253227071,0.7902832,-0.032043457,0.6469116,-1.578125,-2.046875,1.171875
1696253227091,0.76953125,-0.035705566,0.6378784,-0.875,-1.328125,0.28125
1696253227132,0.7824707,-0.013000488,0.64959717,-0.90625,-0.953125,-0.75
1696253227171,0.7758789,-0.012268066,0.6654663,-0.546875,-0.40625,-0.171875
1696253227211,0.77612305,-0.014221191,0.6581421,-0.890625,-0.703125,0.046875
1696253227255,0.76171875,-0.020080566,0.6715698,-0.40625,-1.3125,-0.140625
1696253227293,0.76342773,-0.013977051,0.6622925,-0.1875,-1.296875,0.03125
1696253227332,0.77197266,-0.009094238,0.65252686,0.203125,-0.03125,0.15625
1696253227371,0.76782227,-0.024963379,0.66815186,0.515625,-0.34375,0.15625
1696253227412,0.7807617,-0.014953613,0.65496826,0.171875,0.25,0.375
1696253227453,0.77734375,-0.012023926,0.6564331,-0.234375,0.109375,0.125
1696253227493,0.7807617,-0.012756348,0.6503296,-0.078125,-0.015625,-0.140625
1696253227531,0.7775879,-0.018615723,0.6469116,-0.9375,-0.328125,0.25
1696253227573,0.7832031,-0.013977051,0.6559448,-0.8125,-0.203125,0.296875
1696253227612,0.7746582,-0.016906738,0.6586304,-0.828125,-0.578125,-0.109375
1696253227653,0.77197266,-0.012512207,0.65301514,0.046875,-0.6875,-0.171875
1696253227693,0.7746582,-0.0154418945,0.6581421,0.03125,-0.734375,-0.1875
1696253227733,0.7758789,-0.01373291,0.6635132,-0.796875,0.046875,0.0625
1696253227774,0.7663574,-0.016906738,0.65838623,-0.515625,-0.734375,0.578125
1696253227813,0.7805176,-0.01763916,0.65423584,0.265625,-0.4375,-0.0625
1696253227854,0.78149414,-0.0115356445,0.66278076,1.734375,2.578125,0.984375
1696253227895,0.77685547,-0.028381348,0.6466675,0.359375,1.59375,1.453125
1696253227934,0.79174805,-0.0022583008,0.64837646,-0.84375,0.140625,-0.0625
1696253227976,0.7792969,-0.011047363,0.64349365,0.28125,-0.84375,0.03125
1696253228014,0.77001953,-0.027160645,0.6498413,-1.0625,-0.703125,0.28125
1696253228054,0.77612305,-0.014953613,0.6532593,-1.625,-0.40625,0.234375
1696253228091,0.77246094,-0.00982666,0.6522827,-0.328125,-0.90625,-0.171875
1696253228131,0.779541,-0.011779785,0.6547241,0.203125,-0.34375,-0.265625
1696253228173,0.7919922,-0.011779785,0.65911865,0.515625,0.078125,-0.171875
1696253228212,0.78027344,-0.006164551,0.6466675,-0.125,-0.3125,0.15625
1696253228252,0.779541,-0.007873535,0.6408081,-0.421875,-0.40625,-0.203125
1696253228293,0.7800293,-0.0154418945,0.6442261,-0.515625,-0.265625,0.3125
1696253228331,0.7849121,-0.0154418945,0.6571655,0.09375,-0.34375,-0.09375
1696253228373,0.7807617,-0.014709473,0.6425171,-1.265625,-1.0625,-0.09375
1696253228411,0.7780762,-0.008117676,0.64715576,-1.296875,-0.953125,-0.109375
1696253228430,0.7753906,-0.0015258789,0.6630249,-0.3125,-0.890625,-0.515625
1696253228472,0.7788086,-0.015197754,0.66400146,-0.375,-1.015625,0.078125
1696253228511,0.7770996,-0.019836426,0.6520386,0.09375,-0.78125,0.40625
1696253228551,0.78125,-0.0029907227,0.6564331,0.671875,-0.6875,0.015625
1696253228591,0.76293945,-0.012268066,0.6598511,1.078125,-1.3125,0.6875
1696253228652,0.7766113,-0.015197754,0.65667725,1.53125,-1.75,0.5625
1696253228670,0.7824707,-0.0154418945,0.65618896,1.0625,-0.734375,-0.5625
1696253228713,0.7766113,-0.008117676,0.64886475,-0.390625,-0.859375,-0.1875
1696253228750,0.76708984,-0.012023926,0.65423584,-1.5625,-1.390625,0.484375
1696253228814,0.7692871,-0.020568848,0.65740967,-0.828125,-0.90625,0.0625
1696253228833,0.7729492,-0.013244629,0.66082764,-0.328125,-0.859375,-0.4375
1696253228897,0.78222656,-0.016906738,0.67767334,-1.375,-1.28125,-1.203125
1696253228910,0.7836914,-0.02960205,0.66619873,0.703125,-1.34375,-1.21875
1696253228951,0.7817383,-0.034729004,0.6395874,3.078125,0.828125,-0.25
1696253228991,0.76831055,0.0119018555,0.6715698,1.953125,0.953125,0.75
1696253229032,0.7636719,-5.493164E-4,0.6625366,4.5,1.984375,2.59375
1696253229071,0.7624512,-0.03668213,0.6317749,3.90625,0.328125,2.765625
1696253229131,0.7595215,-0.030334473,0.6317749,-0.53125,-0.828125,1.21875
1696253229171,0.7597656,9.1552734E-4,0.64227295,-0.484375,0.703125,0.734375
1696253229190,0.7766113,-0.008605957,0.6456909,0.796875,0.59375,0.515625
1696253229250,0.79003906,-0.022521973,0.65423584,-2.640625,0.640625,-0.5625
1696253229273,0.7883301,-0.026184082,0.63153076,-8.671875,-2.890625,-0.859375
1696253229312,0.7766113,-0.017150879,0.65618896,-4.765625,-2.71875,-2.078125
1696253229373,0.79589844,-0.028381348,0.67523193,1.28125,-0.453125,-0.53125
1696253229390,0.78393555,-0.027893066,0.6576538,-0.03125,-0.890625,1.328125
1696253229433,0.7583008,-0.012512207,0.66448975,1.703125,-0.453125,0.3125
1696253229472,0.75268555,-0.006164551,0.6552124,0.4375,0.28125,0.328125
1696253229531,0.76538086,-0.0044555664,0.6642456,1.625,-0.046875,0.640625
1696253229571,0.76953125,-0.0076293945,0.6618042,1.53125,-0.359375,0.328125
1696253229611,0.7792969,-0.012023926,0.65423584,-0.34375,-0.15625,0.109375
1696253229651,0.7758789,-0.0022583008,0.6425171,-0.578125,-0.53125,0.4375
1696253229691,0.7792969,-0.015930176,0.6491089,0.453125,-1.0625,0.203125
1696253229711,0.7854004,-0.032287598,0.652771,-0.78125,-1.984375,-0.4375
1696253229731,0.7841797,-0.020080566,0.6559448,-1.796875,-1.578125,-0.375
1696253229771,0.7800293,-0.021057129,0.6557007,-0.109375,-0.84375,0.140625
1696253229811,0.77001953,-0.015686035,0.65789795,0.34375,-1.3125,0.3125
1696253229851,0.76464844,-0.012268066,0.6708374,0.5625,-0.890625,0.21875
1696253229893,0.7644043,-0.00982666,0.66204834,0.71875,-0.703125,0.03125
1696253229933,0.7692871,-0.010314941,0.6598511,1.46875,-0.75,-0.015625
1696253229973,0.77978516,-0.008850098,0.65618896,0.671875,-0.640625,0.0625
1696253230012,0.7783203,-0.0134887695,0.66082764,-0.484375,0.421875,0.453125
1696253230056,0.77856445,-0.018127441,0.66815186,-0.21875,0.515625,0.28125
1696253230092,0.77905273,-0.026428223,0.65789795,-1.28125,0.84375,0.421875
1696253230134,0.7727051,-0.018127441,0.64837646,-1.140625,1.140625,1.0625
1696253230172,0.77001953,-0.016662598,0.6576538,-0.359375,0.1875,0.4375
1696253230214,0.7741699,-0.012268066,0.638855,-0.375,0.515625,0.28125
1696253230252,0.7727051,-7.9345703E-4,0.65130615,0.53125,-0.5625,0.046875
1696253230293,0.7746582,-0.00982666,0.6508179,0.140625,-0.796875,0.109375
1696253230333,0.7783203,-0.012756348,0.6571655,-0.203125,-0.1875,-0.125
1696253230372,0.77563477,-0.0071411133,0.649353,-0.671875,-0.90625,0.203125
1696253230415,0.77563477,-0.0051879883,0.6576538,0.015625,-0.953125,0.296875
1696253230452,0.7722168,-0.019104004,0.6522827,0.140625,-1.375,0.0625
1696253230493,0.77612305,-0.018371582,0.6532593,0.046875,-1.0625,0.09375
1696253230532,0.7722168,-0.012023926,0.65448,1.171875,-1.546875,0.328125
1696253230572,0.7727051,-0.020080566,0.6610718,1.171875,-1.09375,0.046875
1696253230612,0.77783203,-0.007385254,0.6547241,0.4375,-0.75,0.046875
1696253230654,0.77441406,-0.01373291,0.66278076,0.265625,-1.59375,0.28125
1696253230691,0.76464844,-0.013244629,0.66156006,-0.0625,-1.28125,-0.171875
1696253230734,0.76904297,-0.007873535,0.65789795,0.34375,-1.140625,0.15625
1696253230775,0.7685547,-0.018371582,0.6610718,0.375,-1.234375,-0.15625
1696253230811,0.76904297,-0.012512207,0.668396,-0.28125,-0.546875,-0.3125
1696253230850,0.7709961,-0.023254395,0.6618042,-0.15625,-0.28125,0.265625
1696253230892,0.8000488,-0.0115356445,0.6947632,1.390625,3.515625,-1.4375
1696253230932,0.7687988,-0.042297363,0.66204834,0.765625,0.515625,0.15625
1696253230996,0.7644043,-0.034973145,0.65301514,1.125,-2.1875,0.21875
1696253231012,0.78149414,-0.015197754,0.6630249,2.796875,0.015625,0.34375
1696253231031,0.763916,-0.016174316,0.64593506,1.640625,1.625,2.125
1696253231073,0.7661133,-0.026916504,0.65448,1.9375,1.046875,2.34375
1696253231112,0.78100586,-0.019592285,0.6322632,-0.4375,-0.234375,1.640625
1696253231150,0.77856445,-0.012512207,0.618103,-0.171875,1.90625,1.71875
1696253231215,0.7734375,-0.0154418945,0.6342163,-0.015625,0.03125,1.421875
1696253231230,0.7800293,-0.025939941,0.66815186,-0.484375,-0.78125,-0.328125
1696253231294,0.78466797,-0.021057129,0.6415405,-2.515625,-0.96875,0.15625
1696253231310,0.782959,-0.01739502,0.65374756,-2.859375,-1.46875,-0.578125
1696253231353,0.7705078,-0.008361816,0.65496826,-4.0,-2.421875,-0.75
1696253231391,0.7636719,-0.011779785,0.6520386,-1.921875,-1.453125,0.21875
1696253231455,0.7663574,-0.024475098,0.66693115,0.96875,-1.515625,-0.484375
1696253231493,0.7832031,-0.020568848,0.6647339,0.140625,-1.03125,-0.546875
1696253231510,0.7739258,-0.011779785,0.66326904,-0.296875,-0.984375,-0.484375
1696253231571,0.77124023,-0.015686035,0.6618042,0.609375,-0.765625,0.25
1696253231611,0.7697754,-0.013244629,0.66741943,0.453125,0.109375,0.40625
1696253231653,0.7800293,-0.012512207,0.6547241,0.203125,-0.796875,0.421875
1696253231670,0.77001953,-0.0154418945,0.6569214,0.484375,-0.953125,0.1875
1696253231712,0.7753906,-0.014709473,0.65838623,-0.046875,-0.640625,-0.015625
1696253231752,0.7675781,-0.015686035,0.6569214,0.8125,-0.921875,0.078125
1696253231791,0.76782227,-0.019104004,0.6478882,-0.4375,-1.09375,-0.375
1696253231832,0.77441406,-0.011047363,0.6622925,-1.046875,-0.75,-0.140625
1696253231873,0.7783203,-0.026184082,0.67108154,0.5625,-0.671875,0.140625
1696253231911,0.76904297,-0.019836426,0.66448975,-0.578125,-0.375,0.15625
1696253231953,0.7709961,-0.015197754,0.6691284,-0.390625,0.25,0.203125
1696253231993,0.7729492,-0.013977051,0.6569214,-0.546875,0.9375,0.015625
1696253232033,0.7644043,-0.02545166,0.651062,-0.515625,0.625,0.734375
1696253232096,0.76538086,-0.014709473,0.6432495,-0.53125,-0.359375,0.203125
1696253232131,0.7705078,-0.006164551,0.65179443,-0.8125,0.1875,-0.015625
1696253232151,0.7668457,-0.020324707,0.6557007,-0.265625,-0.65625,0.078125
1696253232191,0.7805176,-0.011047363,0.66326904,0.578125,-0.359375,-0.484375
1696253232253,0.7805176,-0.014221191,0.6449585,0.09375,-0.59375,0.078125
1696253232335,0.77197266,-0.0037231445,0.65423584,-0.296875,-1.1875,0.09375
1696253232339,0.7717285,-0.016174316,0.6696167,-0.890625,-0.5,0.640625
1696253232344,0.76904297,-0.027648926,0.65448,-0.078125,-0.546875,0.4375
1696253232372,0.77124023,-0.019104004,0.65789795,1.046875,-1.828125,-0.265625
1696253232412,0.7722168,-0.0115356445,0.6630249,0.890625,-0.796875,0.25
1696253232453,0.76708984,-0.016418457,0.6696167,0.265625,-0.484375,0.609375
1696253232492,0.7739258,-0.010314941,0.670105,0.640625,-0.765625,-0.078125
1696253232532,0.77075195,-0.0056762695,0.6552124,1.328125,-0.234375,0.15625
1696253232571,0.7705078,-0.018127441,0.6559448,0.671875,-0.921875,0.484375
1696253232613,0.76171875,-0.026184082,0.65423584,-0.9375,-0.828125,0.1875
1696253232652,0.77978516,-0.0115356445,0.6618042,-0.53125,-0.59375,-0.609375
1696253232691,0.7705078,-0.031555176,0.6613159,0.21875,-1.0625,-0.734375
1696253232734,0.7741699,-0.010314941,0.66278076,-1.03125,-1.328125,-0.75
1696253232773,0.77856445,-0.017150879,0.67718506,-1.25,1.09375,-0.4375
1696253232812,0.78149414,-0.010559082,0.68670654,-0.984375,1.671875,-0.3125
1696253232853,0.77368164,-0.038879395,0.6737671,1.390625,0.0625,0.171875
1696253232890,0.7705078,-0.032287598,0.6508179,0.296875,-2.515625,-0.328125
1696253232932,0.75756836,-0.0010375977,0.67108154,1.96875,-0.234375,0.078125
1696253232971,0.77563477,-0.01739502,0.66033936,3.234375,1.890625,1.3125
1696253233014,0.7685547,-0.028137207,0.637146,0.046875,1.953125,3.171875
1696253233051,0.76416016,-0.019592285,0.64349365,1.09375,0.484375,2.140625
1696253233091,0.78881836,-0.014953613,0.64398193,2.25,0.25,1.109375
1696253233137,0.7836914,-0.0178833,0.6268921,2.421875,-0.171875,1.171875
1696253233173,0.765625,-0.017150879,0.63201904,-0.53125,-3.4375,0.125
1696253233212,0.77246094,-0.017150879,0.6347046,-1.859375,-4.15625,-1.0
1696253233252,0.7729492,-0.019348145,0.6654663,0.421875,-2.265625,-0.21875
1696253233292,0.7885742,-0.03253174,0.6715698,0.234375,-3.25,-0.828125
1696253233332,0.77856445,-0.018859863,0.66815186,-4.40625,-2.890625,-0.25
1696253233374,0.76660156,-0.0029907227,0.6835327,-4.65625,-2.046875,0.234375
1696253233412,0.7529297,-0.01763916,0.6791382,-1.0625,-1.015625,0.90625
1696253233454,0.7495117,-0.034973145,0.6791382,-0.171875,-0.765625,0.515625
1696253233492,0.7597656,-0.018371582,0.66400146,-0.34375,0.3125,-0.234375
1696253233533,0.76293945,-0.01763916,0.6708374,0.46875,0.953125,0.34375
1696253233575,0.76416016,-0.014465332,0.6688843,1.609375,0.34375,0.109375
1696253233635,0.77856445,-0.020812988,0.6613159,1.328125,-0.21875,-0.078125
1696253233641,0.7766113,-5.493164E-4,0.66033936,0.28125,0.140625,-0.28125
1696253233691,0.7609863,-0.008117676,0.668396,-0.6875,-0.625,0.3125
1696253233711,0.77783203,-0.024230957,0.66986084,-0.1875,-0.28125,0.578125
1696253233753,0.77197266,-0.026916504,0.6576538,-0.875,-0.046875,0.015625
1696253233813,0.7573242,-0.0076293945,0.6679077,-1.4375,-0.828125,-0.390625
1696253233831,0.76049805,-0.023010254,0.6691284,-0.03125,-0.828125,-0.15625
1696253233895,0.7692871,-0.014465332,0.66326904,-0.328125,-0.03125,0.21875
1696253233910,0.7758789,-0.014709473,0.67059326,0.171875,0.25,0.25
1696253233952,0.77075195,-0.016906738,0.65667725,0.640625,-0.03125,0.15625
1696253234014,0.7717285,-0.0154418945,0.6664429,-0.65625,0.03125,0.1875
1696253234031,0.77124023,-0.019104004,0.66204834,-1.265625,0.109375,0.65625
1696253234073,0.76953125,-0.014221191,0.6498413,-1.0625,-0.6875,0.25
1696253234132,0.77001953,-0.014709473,0.6618042,0.953125,-0.28125,-0.421875
1696253234150,0.7841797,-0.0178833,0.66741943,-0.078125,-0.578125,-0.3125
1696253234213,0.77246094,-0.016174316,0.6581421,-1.421875,-0.53125,0.25
1696253234254,0.7663574,-0.005432129,0.66082764,-1.140625,0.3125,0.046875
1696253234270,0.76831055,-0.010070801,0.6637573,-0.625,-0.15625,0.125
1696253234311,0.77124023,-0.011779785,0.66815186,0.4375,-0.796875,0.3125
1696253234375,0.7663574,-0.023010254,0.6642456,0.265625,-0.53125,-0.046875
1696253234390,0.7680664,-0.0076293945,0.6600952,0.265625,-0.3125,0.09375
1696253234432,0.7680664,-0.003967285,0.6576538,0.21875,-0.34375,0.34375
1696253234471,0.7687988,-0.010559082,0.6727905,0.734375,-0.203125,0.1875
1696253234511,0.77905273,-0.020080566,0.66522217,-0.171875,-0.765625,0.078125
1696253234554,0.7717285,-0.009338379,0.6539917,0.03125,-0.671875,0.0
1696253234594,0.7651367,-0.019348145,0.6576538,0.015625,-0.265625,0.21875
1696253234632,0.7663574,-0.019836426,0.664978,-0.3125,-0.421875,0.3125
1696253234673,0.76586914,-0.014709473,0.664978,0.4375,-0.6875,0.015625
1696253234711,0.76538086,-0.015930176,0.6564331,0.0,-0.921875,0.078125
1696253234776,0.77319336,-0.012512207,0.66864014,0.21875,0.21875,0.3125
1696253234791,0.77197266,-0.023254395,0.6598511,-0.015625,-0.125,0.25
1696253234833,0.7687988,-0.00982666,0.65960693,-0.21875,-0.796875,0.125
1696253234872,0.76342773,-0.010070801,0.66448975,-0.265625,-0.234375,0.15625
1696253234933,0.76904297,-0.019348145,0.66326904,-0.21875,-0.28125,0.09375
1696253234937,0.7729492,-0.02130127,0.6569214,-0.765625,-0.84375,-0.078125
1696253234974,0.7631836,-0.013000488,0.6613159,-0.59375,-0.515625,-0.03125
1696253235012,0.7685547,-0.004211426,0.66082764,-1.171875,0.03125,0.078125
1696253235051,0.76904297,-0.00982666,0.670105,-0.03125,0.203125,-0.0625
1696253235092,0.7648926,-0.019836426,0.6637573,-0.359375,-0.78125,-0.203125
1696253235131,0.7722168,-0.014953613,0.6569214,0.28125,-0.546875,-0.03125
1696253235171,0.77441406,-0.0037231445,0.6600952,-0.109375,-0.515625,-0.03125
1696253235214,0.7709961,-0.011779785,0.6613159,0.03125,-0.53125,0.5
1696253235252,0.7680664,-0.014465332,0.6610718,0.203125,-1.578125,0.421875
1696253235293,0.7702637,-0.01739502,0.66693115,0.109375,-1.1875,0.140625
1696253235331,0.7692871,-0.013000488,0.66986084,0.40625,-0.421875,0.046875
1696253235372,0.7624512,-0.016906738,0.6593628,0.359375,-0.765625,0.125
1696253235411,0.765625,-0.015686035,0.6600952,-0.09375,-0.96875,0.125
1696253235451,0.76342773,-0.020812988,0.65057373,-1.71875,-1.28125,0.046875
1696253235492,0.7697754,-0.010803223,0.6725464,0.609375,-0.34375,-0.390625
1696253235532,0.7717285,-0.025939941,0.67181396,0.59375,-1.53125,-0.125
1696253235575,0.77368164,-0.014465332,0.6647339,-0.125,-1.28125,-0.46875
1696253235613,0.76464844,-0.018371582,0.6679077,-0.421875,-1.234375,-0.53125
1696253235652,0.7609863,-0.014709473,0.66619873,-0.21875,-0.71875,-0.171875
1696253235692,0.7661133,-0.022277832,0.67108154,-0.640625,-0.796875,-0.078125
1696253235729,0.75805664,-0.020324707,0.66937256,-0.078125,-0.625,0.09375
