# Sensor type: Respeck
# Activity type: Standing
# Activity subtype: Coughing
# Subject id: s2106809
# Notes: unprocessed
timestamp,accel_x,accel_y,accel_z,gyro_x,gyro_y,gyro_z
1696251209261,-0.06201172,-0.9751587,0.22113037,3.4375,1.09375,-1.703125
1696251209301,-0.06640625,-0.98565674,0.24359131,5.453125,3.0,0.484375
1696251209341,-0.046142578,-0.9714966,0.21942139,3.59375,0.421875,1.5
1696251209382,-0.053222656,-0.97125244,0.20648193,2.3125,-0.421875,0.953125
1696251209422,-0.05029297,-0.9968872,0.21380615,5.203125,1.78125,1.875
1696251209462,-0.03540039,-0.9846802,0.21966553,5.578125,1.390625,2.546875
1696251209503,-0.048583984,-0.9961548,0.21258545,3.453125,-0.890625,2.515625
1696251209542,-0.026855469,-0.97979736,0.20062256,2.4375,-0.1875,2.25
1696251209582,-0.030273438,-0.972229,0.21380615,0.234375,-4.1875,2.421875
1696251209623,-0.032714844,-0.9678345,0.19403076,0.578125,-6.140625,3.4375
1696251209641,-0.017822266,-0.9697876,0.18157959,4.640625,-5.140625,2.796875
1696251209682,0.011962891,-0.9199829,0.13641357,7.984375,-6.09375,1.609375
1696251209722,-0.022705078,-0.8870239,0.11004639,20.078125,-9.484375,1.140625
1696251209762,0.020019531,-0.8447876,0.109802246,20.921875,-7.59375,1.578125
1696251209803,-0.07519531,-0.9656372,-0.0071411133,11.796875,-20.765625,8.390625
1696251209866,-0.061035156,-1.0859985,0.25701904,12.453125,-7.8125,19.71875
1696251209882,0.09008789,-1.0999146,0.21063232,-3.625,0.1875,2.90625
1696251209946,-0.012939453,-1.0733032,0.021911621,-5.796875,-11.1875,-10.03125
1696251209961,-0.026367188,-0.97979736,0.13201904,0.75,10.625,5.0
1696251210021,-0.013427734,-1.0513306,0.1749878,-6.5,0.515625,8.03125
1696251210041,0.029296875,-0.9961548,0.06951904,-2.21875,-2.515625,-0.828125
1696251210085,0.021484375,-0.8604126,0.007019043,-1.078125,-2.03125,-0.75
1696251210144,0.060058594,-0.9924927,0.13739014,-0.953125,3.390625,4.140625
1696251210161,-0.0017089844,-1.1504517,0.18255615,-6.953125,-8.859375,4.984375
1696251210223,-4.8828125E-4,-0.97662354,0.07244873,-6.171875,-3.625,-0.515625
1696251210242,-0.0017089844,-0.9326782,0.055358887,-4.234375,-7.390625,-2.40625
1696251210284,-2.4414062E-4,-0.9834595,0.082214355,-4.375,-4.046875,5.484375
1696251210323,0.092285156,-1.0015259,0.13909912,-4.875,5.0,1.4375
1696251210365,0.15185547,-1.0112915,0.1359253,1.671875,-5.171875,-0.484375
1696251210403,-0.005859375,-0.92315674,0.20941162,-10.234375,-15.1875,5.625
1696251210442,-0.2133789,-0.8538208,0.20111084,-10.234375,-6.15625,11.953125
1696251210483,0.07348633,-1.1531372,0.24456787,0.796875,22.03125,6.046875
1696251210522,0.18334961,-0.92266846,0.20819092,12.65625,9.578125,-15.703125
1696251210562,0.099365234,-0.8652954,0.0993042,-0.875,-8.484375,-1.140625
1696251210602,0.06738281,-0.9937134,0.0848999,2.53125,-13.21875,11.203125
1696251210643,0.012939453,-1.1924438,0.15985107,14.890625,-10.125,12.234375
1696251210705,0.059326172,-1.0310669,0.109069824,2.359375,-7.640625,6.5625
1696251210722,0.048828125,-0.7268677,0.21380615,5.234375,0.78125,1.28125
1696251210786,-0.16625977,-0.9468384,0.09906006,-4.625,-7.109375,9.296875
1696251210802,0.013671875,-0.97052,0.230896,2.75,22.859375,6.671875
1696251210822,0.2290039,-1.1272583,0.17034912,-0.15625,19.78125,-6.671875
1696251210864,0.20141602,-0.9829712,0.1461792,-3.25,3.09375,-8.84375
1696251210904,0.110839844,-0.927063,0.113708496,-9.65625,-11.046875,-0.3125
1696251210942,0.072509766,-0.9624634,0.1762085,-14.078125,-6.96875,-3.453125
1696251210984,0.04711914,-0.9771118,0.2111206,-8.046875,4.171875,-9.359375
1696251211025,-0.0126953125,-1.0286255,0.22845459,3.46875,8.765625,-2.34375
1696251211062,0.040039062,-1.0601196,0.18499756,1.578125,3.484375,0.734375
1696251211105,0.10546875,-1.0098267,0.14251709,-0.171875,8.296875,-5.859375
1696251211143,0.031982422,-0.96759033,0.11907959,2.71875,3.453125,-6.265625
1696251211184,0.046875,-0.95562744,0.086120605,0.828125,0.5625,-2.859375
1696251211223,0.07495117,-0.96661377,0.11126709,-2.40625,2.765625,0.4375
1696251211262,0.03491211,-1.0110474,0.13519287,-1.65625,0.546875,1.15625
1696251211302,0.016113281,-0.98565674,0.13226318,6.09375,-1.984375,-0.5
1696251211343,0.05102539,-0.9734497,0.13568115,8.125,-4.921875,-0.421875
1696251211383,0.08886719,-0.9273071,0.1408081,6.859375,-2.40625,-0.1875
1696251211422,0.045166016,-0.89556885,0.09686279,9.234375,-10.1875,2.125
1696251211464,0.001953125,-0.9380493,0.046569824,9.46875,-8.8125,3.90625
1696251211502,0.033935547,-0.9859009,0.010681152,10.359375,-9.578125,4.921875
1696251211542,0.05126953,-1.0176392,0.18719482,0.890625,-14.296875,14.90625
1696251211582,0.119628906,-1.0747681,0.3012085,-7.46875,-2.625,7.484375
1696251211622,0.05419922,-1.003479,0.13885498,-8.234375,-5.328125,-14.671875
1696251211662,-0.047851562,-0.9783325,0.086364746,-2.984375,4.9375,2.375
1696251211702,0.06689453,-1.0237427,0.25091553,-8.78125,3.359375,6.03125
1696251211742,0.11376953,-1.0293579,0.15814209,1.03125,2.6875,-7.78125
1696251211782,0.028076172,-0.87457275,0.08123779,3.953125,-4.0625,-2.4375
1696251211824,-0.022216797,-0.8789673,0.054138184,0.734375,-4.53125,3.046875
1696251211862,0.08642578,-1.0830688,0.014587402,-1.75,-2.0,0.296875
1696251211902,0.2709961,-1.1643677,0.3163452,-1.6875,3.078125,4.578125
1696251211946,0.044921875,-0.881897,0.14202881,-6.453125,-18.046875,3.015625
1696251211984,-0.123291016,-0.94903564,0.21844482,-8.359375,-6.921875,11.28125
1696251212023,-0.02758789,-0.93585205,0.15740967,-8.53125,7.1875,7.640625
1696251212063,0.14794922,-1.0095825,0.121520996,-0.78125,23.609375,-2.140625
1696251212105,0.20263672,-0.96832275,0.17425537,0.25,3.03125,-9.078125
1696251212143,0.15893555,-0.97540283,0.12860107,-6.765625,-9.609375,-0.515625
1696251212163,0.12524414,-1.0105591,0.21038818,-11.078125,-5.484375,-2.5
1696251212203,-0.024902344,-0.9783325,0.1774292,-8.859375,-1.609375,-6.640625
1696251212265,-0.07519531,-1.0205688,0.2501831,-1.484375,-0.296875,-4.578125
1696251212303,0.01586914,-1.0100708,0.23529053,13.140625,4.8125,-2.078125
1696251212321,0.08959961,-0.9727173,0.1539917,15.953125,16.921875,0.125
1696251212384,0.036621094,-0.9234009,0.09954834,2.796875,12.484375,1.59375
1696251212424,0.027832031,-1.0303345,0.15447998,0.9375,3.921875,3.96875
1696251212441,0.06982422,-1.053772,0.14642334,4.046875,2.734375,0.390625
1696251212503,0.05908203,-0.975647,0.11468506,9.796875,0.328125,-1.171875
1696251212521,0.0024414062,-0.960022,0.10638428,6.28125,-0.6875,-0.375
1696251212584,0.06518555,-0.987854,0.101257324,-0.609375,0.609375,-1.515625
1696251212601,0.10473633,-0.88604736,0.03265381,7.515625,-4.28125,-2.453125
1696251212643,0.08618164,-0.850647,0.03289795,8.921875,-12.53125,2.609375
1696251212685,0.018310547,-0.9290161,0.038757324,16.421875,-10.78125,4.25
1696251212722,-0.021728516,-1.0327759,0.034362793,5.03125,-14.28125,7.828125
1696251212761,0.12866211,-1.1109009,0.11810303,-2.09375,10.984375,15.734375
1696251212822,0.1508789,-1.1270142,0.10614014,-6.40625,-3.921875,-5.421875
1696251212844,0.14916992,-0.8550415,0.13885498,2.375,4.9375,-12.203125
1696251212883,0.008056641,-0.98931885,0.1449585,-3.109375,-2.578125,0.890625
1696251212921,0.03564453,-0.9495239,0.04095459,-5.6875,2.015625,4.140625
1696251212963,0.08666992,-1.0125122,0.1239624,-5.96875,-0.453125,-2.796875
1696251213025,0.09057617,-0.97979736,0.11639404,-1.71875,0.375,-5.09375
1696251213041,0.014404297,-1.0093384,0.018981934,0.109375,-0.40625,2.390625
1696251213104,0.041259766,-1.0022583,0.105407715,1.734375,-0.875,0.6875
1696251213124,0.119628906,-0.9963989,0.0446167,-2.046875,-2.5,-2.296875
1696251213182,0.0925293,-1.0083618,0.086120605,-0.15625,8.546875,0.953125
1696251213201,0.12011719,-0.98394775,0.17889404,-12.15625,-8.15625,0.234375
1696251213244,0.06616211,-0.9067993,0.12640381,4.03125,-5.6875,-4.375
1696251213283,-0.09716797,-0.98150635,0.22088623,0.21875,-4.484375,7.1875
1696251213323,0.015136719,-0.98565674,0.13641357,2.015625,6.8125,6.3125
1696251213363,0.08642578,-1.0371704,0.12054443,-2.484375,4.40625,0.3125
1696251213403,0.17651367,-0.95391846,0.06488037,-6.578125,2.671875,-3.515625
1696251213442,0.10620117,-0.9483032,0.070007324,1.078125,-2.546875,0.765625
1696251213463,0.08105469,-0.9951782,0.0927124,0.0625,-3.15625,-0.109375
1696251213506,0.08276367,-1.0567017,0.10369873,-5.0,-7.78125,-3.125
1696251213544,0.020019531,-0.9763794,0.1708374,-0.6875,7.859375,-5.78125
1696251213584,-0.00390625,-1.0371704,0.16497803,-6.671875,7.125,-4.40625
1696251213625,0.01928711,-0.87579346,0.23114014,1.640625,9.046875,-5.9375
1696251213663,-0.010253906,-0.9072876,0.1461792,-1.546875,0.5,3.609375
1696251213704,0.12524414,-0.9636841,0.2531128,0.828125,9.890625,7.53125
1696251213745,0.11743164,-1.0830688,0.17230225,-12.75,-10.34375,-1.03125
1696251213785,0.005859375,-0.91656494,0.152771,-4.71875,-5.953125,-6.984375
1696251213823,0.03930664,-0.95440674,0.12030029,-11.53125,0.578125,-3.46875
1696251213864,0.080566406,-0.9680786,0.20599365,-10.984375,3.203125,-4.234375
1696251213905,0.037109375,-1.015686,0.22454834,-4.546875,5.546875,-1.703125
1696251213943,-0.052246094,-1.0686646,0.22088623,4.21875,5.71875,4.21875
1696251213986,-0.008300781,-1.0161743,0.22503662,3.640625,11.296875,0.59375
1696251214025,0.091308594,-0.9639282,0.152771,6.53125,16.75,-3.0
1696251214064,0.09399414,-0.98321533,0.1251831,10.625,13.03125,-1.9375
1696251214102,0.049316406,-0.99786377,0.10882568,6.65625,4.25,0.421875
1696251214143,0.035888672,-1.0066528,0.13568115,4.8125,-0.59375,2.375
1696251214184,0.061035156,-0.97247314,0.10809326,4.484375,-0.953125,0.015625
1696251214224,0.05883789,-0.9546509,0.093444824,4.96875,-5.140625,0.578125
1696251214261,0.052734375,-0.9812622,0.09539795,3.375,-8.65625,0.640625
1696251214302,0.024902344,-0.9546509,0.06512451,9.453125,-7.671875,-0.453125
1696251214341,0.09375,-0.88897705,0.09832764,7.6875,-2.890625,1.828125
1696251214383,0.076416016,-0.9192505,-0.025939941,8.890625,-8.625,2.59375
1696251214423,-0.026123047,-1.0369263,0.073913574,10.3125,-16.984375,4.6875
1696251214462,-0.022460938,-0.93829346,0.07196045,-4.265625,-13.828125,12.3125
1696251214502,0.17602539,-1.102356,0.24334717,-6.484375,1.515625,5.78125
1696251214545,0.09448242,-1.0586548,0.06390381,-0.25,6.703125,-15.828125
1696251214585,-0.09008789,-0.9299927,0.17767334,3.609375,10.40625,0.125
1696251214623,0.1899414,-0.9146118,0.08758545,-8.921875,9.609375,4.8125
1696251214665,0.1628418,-1.0098267,0.13421631,-4.546875,-4.859375,0.375
1696251214703,0.0925293,-0.9915161,0.13494873,-1.5625,-16.0625,-5.5625
1696251214765,-0.030273438,-0.93341064,0.061950684,-1.328125,-10.765625,1.140625
1696251214782,0.014404297,-1.0142212,0.097351074,-1.484375,-3.703125,2.5625
1696251214802,0.0793457,-1.1311646,0.27972412,-8.421875,2.203125,-1.640625
1696251214843,0.03955078,-0.91412354,0.09442139,3.0,-6.03125,-7.890625
1696251214886,-0.03125,-0.92388916,4.272461E-4,-0.984375,-4.828125,5.4375
1696251214923,0.15234375,-0.9780884,0.1876831,0.234375,10.890625,2.78125
1696251214985,-0.018066406,-1.0762329,0.15325928,-0.921875,-1.6875,1.65625
1696251215001,-0.019042969,-0.8545532,0.17108154,-2.546875,1.515625,0.296875
1696251215066,0.05493164,-0.9902954,-0.03302002,-8.8125,11.484375,7.203125
1696251215082,0.3178711,-1.0574341,0.17669678,3.59375,-0.484375,-5.109375
1696251215123,0.099365234,-1.0022583,0.10345459,-9.421875,-11.8125,-6.046875
1696251215183,0.04345703,-0.86505127,0.05706787,-3.28125,-12.984375,-1.953125
1696251215223,0.13598633,-1.0462036,0.36029053,-7.953125,9.5625,5.96875
1696251215263,-0.29541016,-1.0767212,0.27508545,-5.09375,-14.140625,5.0625
1696251215280,-0.018798828,-0.835022,0.11419678,-3.25,14.96875,1.03125
1696251215321,0.24536133,-0.94976807,0.15618896,-6.703125,23.40625,-5.546875
1696251215382,0.2409668,-1.0894165,0.1954956,0.015625,3.03125,-2.03125
1696251215421,-0.011962891,-0.9365845,0.14227295,-4.890625,-17.59375,4.734375
1696251215461,0.011230469,-0.90411377,0.14691162,6.90625,11.109375,2.375
1696251215481,0.08911133,-1.0857544,0.2164917,10.75,23.90625,-6.5625
1696251215521,0.024902344,-1.0569458,0.22039795,5.140625,11.609375,-6.484375
1696251215581,-0.013183594,-0.927063,0.11566162,2.9375,1.59375,-8.359375
1696251215602,0.0073242188,-0.9121704,0.047302246,3.015625,4.40625,-5.703125
1696251215661,0.03491211,-1.0120239,0.09979248,0.65625,5.078125,1.109375
1696251215681,0.09863281,-1.0315552,0.14642334,5.59375,3.140625,1.5
1696251215741,0.07543945,-1.0276489,0.17108154,2.546875,1.40625,-0.078125
1696251215761,0.06323242,-0.99298096,0.15618896,1.640625,-5.46875,-2.59375
1696251215801,0.020751953,-0.9373169,0.059265137,-10.34375,-18.625,-4.40625
1696251215863,-0.029785156,-0.9421997,0.059265137,3.265625,-6.28125,-4.203125
1696251215881,-0.0087890625,-0.92852783,0.11395264,4.046875,-4.140625,-0.96875
1696251215923,0.096191406,-0.91290283,0.09295654,2.390625,-5.40625,-0.421875
1696251215964,0.05908203,-0.9697876,0.09832764,5.84375,-4.203125,1.515625
1696251216023,-0.060058594,-1.0081177,0.03265381,13.734375,-19.09375,2.828125
1696251216043,-0.07763672,-0.9246216,0.10614014,6.3125,-11.015625,12.59375
1696251216082,0.22949219,-0.9793091,0.04119873,-2.640625,-7.25,5.671875
1696251216102,0.0625,-1.0003052,0.1708374,-3.609375,9.171875,-7.6875
1696251216143,-0.020263672,-1.0130005,0.17816162,-4.75,-0.515625,0.28125
1696251216184,0.11352539,-0.9463501,0.14056396,-6.484375,5.59375,1.703125
1696251216224,0.091552734,-1.0161743,0.15545654,-4.703125,-2.203125,-2.3125
1696251216265,0.046142578,-0.9326782,0.113708496,5.234375,-4.859375,-2.046875
1696251216302,-0.0073242188,-0.9458618,0.15179443,1.203125,-6.34375,1.375
1696251216342,-0.03515625,-1.0127563,0.05633545,-1.3125,-6.515625,0.46875
1696251216383,0.021728516,-1.0181274,0.07342529,-2.046875,3.40625,-1.921875
1696251216423,0.14013672,-0.97003174,0.07977295,2.40625,1.796875,-1.65625
1696251216464,0.032958984,-1.0542603,0.12249756,-14.859375,-12.078125,-0.15625
1696251216505,-0.0847168,-0.9505005,0.15618896,1.890625,4.390625,-0.265625
1696251216546,-0.008056641,-0.96295166,0.1852417,-1.75,11.046875,3.59375
1696251216584,0.10083008,-0.9324341,0.199646,-8.5625,7.125,2.125
1696251216624,0.03857422,-1.0396118,0.16693115,-13.609375,0.65625,-2.046875
1696251216665,0.017333984,-0.9697876,0.21185303,-2.234375,3.09375,-2.5625
1696251216704,0.020019531,-0.97613525,0.1876831,2.6875,7.34375,4.453125
1696251216746,0.072021484,-1.0022583,0.20501709,0.5625,11.375,1.125
1696251216783,0.05883789,-1.0444946,0.20281982,4.015625,9.453125,-4.265625
1696251216822,0.005126953,-1.006897,0.1708374,2.28125,0.34375,-2.359375
1696251216862,0.018066406,-0.9299927,0.14764404,5.90625,1.453125,-2.296875
1696251216905,0.0078125,-0.99224854,0.13372803,5.75,5.75,-2.9375
1696251216944,-0.005126953,-1.0095825,0.13397217,3.328125,5.21875,1.8125
1696251216984,0.05859375,-0.9898071,0.16351318,1.84375,4.21875,1.625
1696251217025,0.041503906,-1.0105591,0.15960693,0.71875,-0.296875,-0.046875
1696251217063,0.017822266,-0.93878174,0.112976074,-0.171875,-5.109375,0.203125
1696251217105,-0.015625,-0.92193604,0.055847168,7.15625,-9.875,1.6875
1696251217142,0.014892578,-0.9524536,0.086364746,8.625,-9.40625,2.15625
1696251217184,0.11303711,-0.91656494,0.081970215,11.296875,-7.5,0.84375
1696251217225,0.0546875,-0.97906494,0.10369873,6.421875,-10.03125,3.96875
1696251217264,0.0024414062,-0.93927,0.11639404,3.703125,-15.15625,13.96875
1696251217305,0.13208008,-1.1370239,0.12786865,-6.921875,-9.828125,5.0
1696251217342,0.028320312,-1.0015259,0.16497803,5.28125,5.796875,-10.484375
1696251217404,-0.016601562,-1.0042114,0.124938965,-4.921875,0.390625,1.953125
1696251217424,0.036621094,-0.9209595,0.093688965,-4.59375,1.78125,6.484375
1696251217451,0.115234375,-0.9998169,0.11029053,-5.890625,3.8125,-2.0
1696251217483,0.11352539,-0.93292236,0.113220215,3.09375,-0.921875,-7.5
1696251217522,0.061035156,-1.0098267,0.12298584,-2.796875,-5.40625,1.9375
1696251217563,-0.007080078,-1.0523071,0.1161499,-6.03125,-7.421875,-0.84375
1696251217604,0.04272461,-0.973938,0.070007324,2.859375,0.328125,-4.546875
1696251217646,0.079833984,-0.90826416,0.24749756,-4.421875,-0.46875,-4.328125
1696251217685,-0.015136719,-1.0198364,0.15106201,-4.65625,-1.21875,3.046875
1696251217723,0.0073242188,-0.9187622,0.13763428,-3.1875,0.8125,3.390625
1696251217784,0.040527344,-1.0493774,0.1149292,-7.1875,3.609375,-0.03125
1696251217822,0.08300781,-1.0015259,0.14202881,1.265625,2.984375,-3.296875
1696251217865,0.064208984,-0.94244385,0.0914917,-3.859375,-5.125,2.3125
1696251217881,0.064453125,-0.9446411,0.109313965,-3.609375,-2.8125,-0.46875
1696251217923,0.0053710938,-1.0393677,0.16131592,0.3125,-4.359375,-1.421875
1696251217965,0.05078125,-1.0752563,0.16986084,1.328125,4.375,0.8125
1696251218003,0.12207031,-0.8557739,0.26678467,3.4375,4.015625,-3.453125
1696251218045,-0.09838867,-0.9714966,0.10394287,2.5625,4.640625,4.21875
1696251218106,0.13574219,-1.000061,0.21942139,-1.171875,5.765625,2.6875
1696251218124,0.047607422,-0.973938,0.15203857,-8.859375,-10.25,-3.828125
1696251218163,-0.015625,-0.9636841,0.13739014,-7.09375,-3.484375,0.109375
1696251218223,-0.010986328,-0.972229,0.16204834,-7.328125,0.5625,1.09375
1696251218264,0.037841797,-0.97198486,0.15472412,-11.203125,0.75,-0.078125
1696251218304,0.07788086,-1.0037231,0.25360107,-1.5625,13.8125,0.625
1696251218322,0.052001953,-1.0271606,0.24407959,1.84375,13.671875,-0.4375
1696251218385,-0.042236328,-0.99102783,0.15985107,4.78125,8.84375,1.5625
1696251218401,-0.020019531,-0.9795532,0.14569092,5.765625,10.078125,-1.546875
1696251218443,0.041015625,-0.99176025,0.1593628,5.296875,12.25,-4.609375
1696251218485,0.072021484,-0.9783325,0.13616943,0.71875,2.390625,-1.09375
1696251218542,0.08691406,-0.97320557,0.1605835,0.71875,-2.421875,-1.921875
1696251218563,0.06542969,-0.9624634,0.12884521,2.234375,-3.8125,-1.234375
1696251218603,0.0053710938,-0.98687744,0.12005615,11.125,-4.96875,1.109375
1696251218664,0.013183594,-0.9229126,0.09588623,10.296875,-10.15625,0.515625
1696251218682,0.029785156,-0.9319458,0.0211792,9.53125,-18.359375,1.734375
1696251218702,0.06323242,-0.9985962,0.07098389,7.46875,-9.65625,8.421875
1696251218743,0.040527344,-1.069397,0.20111084,0.21875,-11.375,15.8125
1696251218784,0.045166016,-1.006897,0.17108154,-6.296875,-18.0,6.125
1696251218824,-0.025634766,-0.89727783,0.22918701,2.25,7.328125,-12.171875
1696251218864,0.10546875,-1.0154419,0.11981201,-0.640625,7.0625,-1.859375
1696251218904,0.08520508,-0.9570923,0.08343506,-5.90625,0.671875,0.125
1696251218944,0.06762695,-1.0877075,0.1293335,-12.96875,-2.484375,-0.1875
1696251218984,0.051757812,-0.91607666,0.07977295,0.046875,-1.59375,-4.890625
1696251219024,0.057861328,-0.94317627,0.0692749,-2.59375,-1.421875,4.484375
1696251219063,0.048095703,-1.0703735,0.15838623,0.84375,-2.84375,1.515625
1696251219103,0.04321289,-0.99591064,0.11175537,0.953125,-6.25,-2.953125
1696251219142,7.324219E-4,-0.97906494,0.09832764,4.171875,-0.40625,1.21875
1696251219182,0.09057617,-0.9336548,0.14324951,-0.859375,8.234375,3.171875
1696251219222,0.111572266,-0.98272705,0.24725342,-6.203125,-4.28125,-2.796875
1696251219268,0.03149414,-1.0144653,0.12738037,0.421875,-7.453125,-1.75
1696251219302,-0.026611328,-0.9612427,0.07318115,-2.453125,-5.109375,1.640625
1696251219343,-0.028564453,-1.0137329,0.15911865,-6.625,0.5625,3.046875
1696251219385,0.03930664,-0.99884033,0.113220215,3.0625,5.359375,-1.359375
1696251219423,0.12084961,-0.9319458,0.14984131,0.40625,2.53125,1.5625
1696251219464,0.09448242,-0.99664307,0.10076904,4.75,1.0625,1.078125
1696251219502,0.091552734,-1.0796509,0.13006592,1.921875,-1.671875,-7.96875
1696251219542,0.0769043,-0.9121704,0.16326904,-8.921875,-0.578125,-4.890625
1696251219584,-0.08642578,-0.88067627,0.16619873,-1.59375,-4.0625,1.421875
1696251219624,-0.09277344,-1.0081177,0.14593506,-0.296875,4.609375,3.015625
1696251219661,0.049804688,-1.0335083,0.18255615,-0.78125,7.828125,-0.296875
1696251219704,0.10424805,-1.0628052,0.14935303,-3.578125,3.484375,0.421875
1696251219743,0.09887695,-0.91534424,0.08514404,-0.03125,-0.0625,-1.40625
1696251219784,0.0637207,-0.92388916,0.16156006,10.203125,5.3125,3.96875
1696251219824,0.0390625,-1.1416626,0.16790771,6.59375,2.96875,5.234375
1696251219862,-0.07519531,-0.9619751,0.15423584,-3.4375,1.9375,2.390625
1696251219904,-0.032714844,-0.9121704,0.1281128,-4.640625,17.25,2.234375
1696251219945,0.11645508,-0.9595337,0.11175537,-12.03125,14.265625,-2.78125
1696251219983,0.13256836,-1.0545044,0.15960693,-7.0,5.46875,-1.203125
1696251220022,0.08984375,-1.0276489,0.14031982,-3.734375,-9.875,-0.71875
1696251220041,0.0126953125,-0.92803955,0.03314209,7.84375,-12.3125,-4.1875
1696251220105,-0.036621094,-0.94122314,0.018249512,16.8125,-15.234375,0.171875
1696251220143,0.11694336,-0.9295044,0.19647217,5.609375,1.59375,9.1875
1696251220183,0.15942383,-0.9849243,0.13006592,3.21875,-7.46875,10.765625
1696251220201,0.10546875,-1.0022583,0.04534912,-9.515625,-19.8125,1.265625
1696251220243,-0.037353516,-1.0007935,0.15130615,-0.09375,-0.1875,-6.3125
1696251220283,0.015625,-0.9326782,0.15032959,-0.53125,4.0,3.640625
1696251220324,0.106933594,-0.9871216,0.2111206,-6.28125,11.484375,6.453125
1696251220361,0.10205078,-1.1087036,0.11444092,-2.46875,1.71875,-4.109375
1696251220403,0.092285156,-0.89434814,0.14202881,5.1875,2.59375,-4.921875
1696251220444,0.1081543,-0.8982544,0.1227417,-0.859375,-8.890625,1.390625
1696251220482,0.075683594,-1.0342407,0.14422607,-2.078125,-12.40625,1.640625
1696251220523,0.020019531,-1.0679321,0.14959717,1.15625,-7.25,-0.734375
1696251220563,-0.0043945312,-0.95440674,0.13006592,4.28125,-3.546875,-0.984375
1696251220625,0.055664062,-0.9209595,0.20404053,-6.15625,-0.25,1.0625
1696251220642,0.08178711,-1.05719,0.13128662,-5.875,5.046875,2.484375
1696251220705,0.05419922,-0.9319458,0.19085693,-3.421875,6.578125,-0.703125
1696251220722,0.083496094,-0.98516846,0.17327881,-10.171875,-0.15625,-1.875
1696251220764,0.0234375,-0.9053345,0.18743896,-6.46875,0.90625,-0.1875
1696251220826,0.05078125,-1.0454712,0.13934326,5.015625,2.890625,2.5625
1696251220843,0.084228516,-1.0401001,0.08929443,0.515625,-5.78125,-1.875
1696251220905,0.09765625,-0.9480591,0.06976318,6.984375,4.109375,-1.640625
1696251220945,0.18823242,-0.97125244,0.22039795,1.875,4.703125,0.609375
1696251220963,-0.08227539,-0.97247314,0.28045654,-13.546875,-11.546875,-1.046875
1696251221003,-0.07543945,-0.892395,0.13421631,-4.8125,1.921875,2.390625
1696251221042,0.07446289,-0.847229,0.24676514,4.28125,16.640625,4.3125
1696251221104,0.18359375,-1.0986938,0.27069092,-7.171875,4.171875,-2.796875
1696251221123,-0.026123047,-1.0501099,0.1762085,-8.90625,10.5625,-1.25
1696251221164,0.0043945312,-0.94537354,0.074401855,-10.234375,12.484375,-0.40625
1696251221204,0.15307617,-0.91290283,0.13372803,6.296875,13.078125,-4.0
1696251221266,0.15454102,-1.0840454,0.20574951,5.75,-2.03125,-3.609375
1696251221327,0.08642578,-1.046936,0.25531006,4.8125,-5.015625,-3.3125
1696251221343,-0.017089844,-0.9451294,0.22161865,3.859375,-6.453125,-5.53125
1696251221363,-0.034179688,-0.9602661,0.11956787,0.734375,-1.765625,-3.15625
1696251221382,0.020507812,-0.9883423,0.11810303,2.0625,5.390625,-0.734375
1696251221424,0.095214844,-0.99005127,0.17913818,3.890625,3.09375,-0.609375
1696251221464,0.08618164,-0.98394775,0.1515503,5.03125,-4.96875,-1.46875
1696251221504,0.028808594,-0.9553833,0.11224365,6.90625,-5.703125,-0.546875
1696251221544,0.0126953125,-0.89141846,0.08685303,4.65625,-4.65625,-0.203125
1696251221584,0.0087890625,-0.9290161,0.011657715,12.453125,-17.8125,0.203125
1696251221624,0.029541016,-0.99542236,0.13446045,16.078125,-8.265625,5.1875
1696251221664,0.049072266,-0.9055786,0.11883545,-3.21875,-17.359375,9.921875
1696251221703,0.10888672,-0.96295166,0.06097412,-5.859375,-17.734375,13.171875
1696251221746,0.0087890625,-1.0508423,0.06732178,4.40625,-7.578125,3.203125
1696251221785,0.09008789,-1.0188599,0.18328857,1.328125,1.53125,-5.984375
1696251221826,0.1430664,-1.0593872,0.21624756,-4.421875,5.859375,-2.9375
1696251221867,0.04638672,-0.89849854,0.07366943,-4.234375,4.203125,-3.1875
1696251221904,0.061035156,-0.8682251,0.089538574,-6.75,-2.71875,-0.75
1696251221944,0.045410156,-0.9780884,0.1383667,-0.46875,0.953125,0.40625
1696251221984,0.024169922,-1.1907349,0.1383667,-1.75,-6.71875,2.890625
1696251222028,0.012939453,-0.95806885,0.09124756,-3.828125,-8.703125,-1.703125
1696251222065,0.07055664,-0.8789673,0.06390381,-4.296875,-9.015625,-0.140625
1696251222104,0.13916016,-0.942688,0.18084717,3.53125,1.78125,5.578125
1696251222145,-0.008300781,-1.0234985,0.17596436,2.625,-7.515625,4.671875
1696251222183,0.024658203,-0.9885864,0.26116943,2.734375,4.34375,-11.703125
1696251222222,-0.068847656,-0.98638916,0.15740967,-9.4375,-3.78125,-2.421875
1696251222265,0.16064453,-0.85894775,0.1876831,-4.515625,13.015625,2.4375
1696251222303,0.18359375,-0.9636841,0.16278076,-7.515625,-5.984375,-0.796875
1696251222343,0.028320312,-1.0449829,0.19622803,-3.9375,-6.078125,-1.078125
1696251222383,-0.040527344,-1.0393677,0.24017334,0.734375,1.96875,-0.296875
1696251222423,0.032958984,-0.96295166,0.2243042,1.515625,7.0,-2.515625
1696251222462,0.060546875,-0.9402466,0.19207764,-3.734375,12.265625,0.09375
1696251222502,0.0126953125,-1.0020142,0.17596436,-8.40625,4.421875,0.484375
1696251222543,0.03100586,-1.0042114,0.20404053,-1.15625,4.9375,-2.625
1696251222583,0.08496094,-1.0073853,0.15301514,3.65625,8.8125,-4.578125
1696251222624,0.056884766,-0.9920044,0.1552124,6.34375,5.46875,-1.5625
1696251222642,-0.0068359375,-0.9885864,0.12860107,1.671875,0.078125,1.234375
1696251222683,0.030761719,-0.97540283,0.16204834,4.546875,6.84375,1.421875
1696251222724,0.010253906,-1.0046997,0.152771,10.65625,7.34375,2.140625
1696251222785,0.04272461,-0.9483032,0.098083496,8.84375,4.375,-0.03125
1696251222802,0.07373047,-0.93707275,0.105895996,8.921875,0.421875,-0.234375
1696251222843,0.07446289,-0.88726807,0.09100342,5.984375,-5.78125,-0.34375
1696251222884,0.05102539,-0.94317627,0.022155762,9.375,-10.734375,1.859375
1696251222946,0.03881836,-0.9805298,0.10418701,9.953125,-7.6875,3.96875
1696251222986,-0.0014648438,-0.9793091,0.10321045,-3.8125,-15.234375,9.28125
1696251223002,0.1574707,-1.0530396,0.1918335,-10.140625,1.78125,8.984375
1696251223044,0.10668945,-1.0215454,0.2994995,-6.03125,-8.921875,-6.15625
1696251223082,0.0034179688,-1.0039673,0.15765381,-14.5625,-10.09375,0.0
1696251223124,0.044921875,-0.913147,0.19134521,-1.84375,2.859375,2.578125
1696251223163,0.063964844,-1.0269165,0.14935303,-4.515625,11.0,-5.8125
1696251223203,0.099365234,-0.96954346,0.09832764,3.25,1.859375,-8.03125
1696251223243,0.052734375,-0.923645,0.11224365,0.78125,-2.453125,-2.03125
1696251223285,-0.053955078,-1.0505981,0.07220459,0.609375,-12.484375,3.828125
1696251223324,0.018066406,-1.0344849,0.0914917,-2.5625,0.96875,3.6875
1696251223384,0.13745117,-0.9507446,0.38494873,-8.359375,-0.015625,-4.375
1696251223423,0.046142578,-0.93170166,0.17156982,-8.0625,3.796875,-0.234375
1696251223463,0.075927734,-0.99664307,0.15618896,-3.015625,-1.4375,-2.140625
1696251223482,0.020751953,-1.0903931,0.20355225,-9.375,3.1875,-6.203125
1696251223523,-0.009765625,-0.9170532,0.16204834,-1.0,4.34375,-2.296875
1696251223585,0.007080078,-0.90167236,0.093444824,-0.703125,-4.390625,4.921875
1696251223602,0.07519531,-0.9602661,0.16375732,2.0,-4.625,1.78125
1696251223667,0.06982422,-1.144104,0.07757568,4.0625,-0.875,3.765625
1696251223681,0.08227539,-0.94537354,0.22283936,-4.125,-10.765625,-0.28125
1696251223723,-0.09423828,-0.8335571,0.14227295,2.59375,-8.328125,-1.046875
1696251223786,-0.079589844,-0.98101807,0.15106201,-3.0625,4.265625,7.109375
1696251223823,0.17456055,-1.1165161,0.22259521,-6.15625,11.578125,-5.75
1696251223844,0.07080078,-0.9656372,0.17669678,-6.65625,0.78125,-8.234375
1696251223903,0.040039062,-0.848938,0.15960693,-4.75,2.84375,1.671875
1696251223922,0.04272461,-0.94976807,0.21038818,-3.5625,0.609375,1.578125
1696251223984,0.0107421875,-1.0899048,0.28167725,1.40625,7.90625,-1.40625
1696251223987,-0.059814453,-1.0310669,0.20257568,-7.5625,7.4375,2.546875
1696251224023,0.040283203,-0.9036255,0.17889404,-3.921875,5.171875,0.984375
1696251224065,0.11328125,-0.9714966,0.15130615,2.984375,2.5,-2.28125
1696251224102,0.10083008,-1.0332642,0.21258545,8.25,6.421875,-0.734375
1696251224144,0.032226562,-0.99468994,0.19744873,6.0625,3.59375,-0.0625
1696251224186,0.010498047,-0.98687744,0.17254639,1.96875,2.5625,-0.0625
1696251224224,0.008300781,-0.991272,0.17279053,3.359375,2.015625,-0.328125
1696251224266,0.02734375,-0.99957275,0.17572021,6.796875,0.984375,0.078125
1696251224302,0.040283203,-0.9595337,0.10809326,10.015625,-1.53125,-1.515625
1696251224345,0.10644531,-0.8945923,0.1005249,9.5625,-3.84375,0.65625
1696251224383,0.103271484,-0.86260986,0.081970215,10.28125,-12.03125,3.578125
1696251224424,-0.0026855469,-0.98321533,0.054626465,15.796875,-14.484375,5.421875
1696251224464,0.04345703,-0.9224243,0.18865967,0.75,-4.21875,11.265625
1696251224509,0.11401367,-1.0952759,0.22576904,-6.921875,-10.484375,8.421875
1696251224544,0.13305664,-1.0603638,0.098083496,0.34375,4.625,-12.90625
1696251224583,-0.025878906,-0.8960571,0.12860107,-2.921875,-1.203125,-1.359375
1696251224621,0.03955078,-1.0217896,0.13983154,-9.734375,-2.71875,7.265625
1696251224661,0.12475586,-1.0352173,0.21380615,-3.8125,4.140625,-5.140625
1696251224703,0.07788086,-0.8701782,0.11590576,4.375,-6.90625,-6.21875
1696251224747,-4.8828125E-4,-0.9458618,0.10247803,-3.28125,-10.203125,1.65625
1696251224782,0.001953125,-1.09552,0.12542725,0.796875,-8.765625,2.25
1696251224826,-0.005859375,-1.029602,0.11834717,-2.78125,-8.5,-0.828125
1696251224863,0.032470703,-0.9299927,0.06781006,3.671875,7.0,-3.765625
1696251224902,0.11303711,-0.98565674,0.07293701,-6.46875,3.96875,-3.03125
1696251224942,0.08251953,-0.96881104,0.2399292,-3.296875,-1.9375,-4.328125
1696251224984,-0.013427734,-0.99224854,0.14642334,-2.609375,2.6875,-1.859375
1696251225024,-0.029296875,-0.9788208,0.19281006,-1.65625,6.828125,2.890625
1696251225066,0.024169922,-0.986145,0.1564331,-7.421875,-1.8125,-1.859375
1696251225105,0.10107422,-0.92315674,0.18475342,-12.984375,-1.578125,-4.90625
1696251225143,0.036132812,-0.93218994,0.21038818,-3.90625,2.53125,-1.21875
1696251225185,0.05419922,-1.0352173,0.21551514,-8.078125,2.015625,1.4375
1696251225225,0.05102539,-1.0100708,0.19232178,-6.125,4.84375,-0.40625
1696251225306,-0.021240234,-1.0271606,0.16473389,-0.546875,3.375,-0.15625
1696251225311,-0.029541016,-0.9890747,0.2218628,6.6875,5.65625,1.109375
1696251225321,0.012939453,-0.98101807,0.18426514,4.1875,8.09375,-0.53125
1696251225382,0.03857422,-0.9885864,0.15618896,5.21875,7.71875,-1.796875
1696251225402,0.068847656,-0.9651489,0.14691162,3.984375,4.3125,-0.28125
1696251225443,0.037841797,-0.9924927,0.16107178,5.828125,2.734375,1.984375
1696251225505,0.017578125,-0.98687744,0.17596436,1.953125,1.859375,0.40625
1696251225522,0.013671875,-0.9661255,0.10662842,6.796875,-1.21875,0.359375
1696251225563,0.07006836,-0.9517212,0.09515381,9.890625,-6.625,0.4375
1696251225604,0.052734375,-0.9002075,0.101257324,11.03125,-7.671875,2.078125
1696251225644,0.01977539,-0.9138794,0.0079956055,12.296875,-6.84375,4.546875
1696251225683,0.0068359375,-1.0044556,0.0368042,13.75,-4.046875,7.59375
1696251225724,0.08105469,-0.92266846,0.17889404,2.953125,-7.234375,11.859375
1696251225763,0.053955078,-1.060852,0.27288818,-8.578125,-0.921875,-2.484375
1696251225822,0.0078125,-1.1008911,0.15252686,-3.6875,0.96875,-6.609375
1696251225843,0.059326172,-0.93927,0.061462402,0.21875,2.6875,0.625
1696251225883,0.087646484,-1.0020142,0.1317749,-9.578125,1.609375,5.03125
1696251225922,0.103271484,-0.9734497,0.097595215,-3.640625,-4.296875,-3.3125
1696251225966,0.0625,-0.89971924,0.0927124,5.9375,-3.46875,-0.96875
1696251226004,0.024902344,-1.0335083,0.15252686,-0.5,-8.671875,3.890625
1696251226045,-0.0068359375,-1.071106,0.059753418,-5.1875,-12.3125,-1.625
1696251226084,-0.024902344,-0.9751587,0.15496826,-5.328125,4.296875,-7.546875
1696251226146,0.011962891,-1.00177,0.17474365,-1.359375,20.453125,-10.609375
1696251226162,0.16333008,-0.9590454,0.13739014,-2.515625,5.8125,-2.953125
1696251226202,0.09350586,-0.8389282,0.10638428,-3.515625,0.1875,1.21875
1696251226243,0.083496094,-1.0706177,0.16131592,-8.46875,-13.25,-0.609375
1696251226283,0.00390625,-1.039856,0.21722412,0.515625,-10.890625,-1.421875
1696251226323,-0.059814453,-0.98443604,0.0758667,-3.46875,-10.75,2.90625
1696251226383,-0.018066406,-0.8579712,0.07684326,0.515625,-6.5,1.71875
1696251226403,0.029052734,-0.99420166,0.1281128,2.734375,-1.078125,1.4375
1696251226443,0.0703125,-1.1431274,0.1630249,-1.1875,5.640625,1.375
1696251226482,0.04663086,-0.9324341,0.15472412,5.4375,3.125,-8.234375
1696251226525,-0.110839844,-0.8687134,0.078552246,-0.953125,2.09375,4.4375
1696251226585,0.040283203,-0.89068604,0.15447998,-5.109375,0.375,3.796875
1696251226624,0.10986328,-1.1206665,0.23114014,-15.375,-5.25,-3.375
1696251226627,0.026611328,-0.96295166,0.1828003,-20.671875,-15.3125,-1.921875
1696251226664,-0.06201172,-0.89923096,0.21820068,-0.953125,9.515625,2.828125
1696251226703,-0.0048828125,-1.0591431,0.1828003,0.765625,9.46875,3.96875
1696251226744,0.09033203,-1.0410767,0.20965576,6.265625,5.875,4.78125
1696251226783,0.04248047,-0.98516846,0.19036865,14.78125,5.78125,2.90625
1696251226823,0.010986328,-0.96588135,0.15692139,14.28125,9.0,-0.578125
1696251226862,0.03515625,-0.9800415,0.101745605,7.703125,7.859375,-2.828125
1696251226904,0.010009766,-1.0122681,0.101989746,3.984375,2.734375,-0.890625
1696251226944,0.057617188,-1.0134888,0.109313965,3.15625,1.859375,1.53125
1696251226984,0.068359375,-0.96539307,0.08392334,3.75,-3.75,-0.71875
1696251227022,0.068603516,-0.8960571,0.066101074,3.421875,-5.21875,0.015625
1696251227062,0.026123047,-0.92071533,0.055603027,9.734375,-10.53125,0.828125
1696251227101,0.045898438,-0.9143677,0.0065307617,10.328125,-15.390625,2.390625
1696251227141,0.041503906,-1.0098267,0.07147217,12.328125,-14.921875,7.015625
1696251227181,0.042236328,-0.9307251,0.038024902,-2.328125,-19.546875,13.234375
1696251227223,0.17871094,-1.0769653,0.117614746,-13.609375,-5.015625,-0.375
1696251227262,0.017089844,-1.0908813,0.101501465,-14.625,-2.390625,-10.984375
1696251227306,0.040039062,-0.9209595,0.11273193,-9.90625,4.96875,-4.171875
1696251227345,0.07373047,-0.99664307,0.18011475,-2.390625,5.71875,-0.359375
1696251227383,0.049804688,-0.9680786,0.16522217,-2.9375,-4.328125,0.484375
1696251227424,0.017578125,-0.9368286,0.09539795,-1.296875,-6.203125,2.28125
1696251227464,0.051513672,-0.9512329,0.09442139,3.125,-4.828125,5.421875
1696251227503,0.056396484,-1.1282349,0.14227295,0.703125,-6.0625,3.34375
1696251227545,0.08911133,-1.0193481,0.13372803,6.828125,5.546875,1.1875
1696251227585,0.078125,-0.95635986,0.27459717,-4.546875,-4.671875,-3.546875
1696251227624,0.023925781,-1.0317993,0.07928467,-8.5,-5.28125,3.390625
1696251227664,0.03149414,-0.85894775,0.13250732,-5.984375,-3.53125,0.34375
1696251227703,0.012207031,-1.0366821,0.17376709,-9.0,-0.140625,-1.78125
1696251227745,0.043701172,-1.0003052,0.19451904,-15.921875,-0.34375,-5.96875
1696251227783,0.036376953,-0.90802,0.15692139,-12.265625,3.671875,-5.203125
1696251227825,0.041015625,-0.97979736,0.21160889,-3.328125,9.5625,-3.796875
1696251227865,0.053466797,-1.0842896,0.2506714,4.875,12.546875,-5.234375
1696251227902,-0.016357422,-1.0274048,0.17938232,2.265625,7.140625,-1.703125
1696251227922,-0.001953125,-0.9312134,0.14984131,2.5625,7.484375,-1.203125
1696251227963,0.02709961,-0.96881104,0.15667725,2.84375,9.515625,-3.71875
1696251228005,0.05126953,-1.0169067,0.15570068,5.75,8.71875,-2.78125
1696251228044,0.022460938,-0.98687744,0.17181396,2.640625,4.921875,0.453125
1696251228085,0.022705078,-0.973938,0.17474365,4.1875,1.84375,1.640625
1696251228125,0.028564453,-0.9866333,0.1227417,2.78125,-1.265625,-0.171875
1696251228185,0.030029297,-0.9492798,0.09295654,7.71875,-2.421875,0.25
1696251228202,0.06201172,-0.90216064,0.059509277,10.90625,-9.203125,1.859375
1696251228243,0.067871094,-0.8989868,-0.013000488,15.328125,-15.140625,2.078125
1696251228305,0.041259766,-0.94610596,0.046325684,10.125,-1.140625,9.015625
1696251228322,0.03955078,-1.0567017,0.15838623,-3.203125,-18.078125,15.140625
1696251228363,0.056640625,-1.0198364,0.18328857,3.171875,-0.109375,-6.734375
1696251228405,0.020996094,-1.0317993,0.18743896,-2.390625,-1.59375,-3.984375
1696251228444,0.09082031,-0.8855591,0.053894043,-3.296875,-0.15625,0.625
1696251228506,0.042236328,-1.0234985,0.16082764,-7.5,1.390625,1.46875
1696251228523,0.030029297,-0.9758911,0.11834717,0.703125,-3.828125,-5.140625
1696251228563,0.008056641,-0.95196533,0.0914917,-0.328125,-2.875,1.21875
1696251228604,0.012207031,-1.0278931,0.030456543,0.203125,-3.3125,1.265625
1696251228664,0.07128906,-1.0820923,0.17327881,-5.796875,-4.34375,-0.328125
1696251228682,0.13500977,-0.87823486,0.22918701,-1.859375,6.015625,-5.21875
1696251228725,-0.045654297,-0.96588135,0.09442139,-5.453125,0.109375,1.71875
1696251228763,0.026611328,-0.9463501,0.15008545,-1.0,5.28125,3.734375
1696251228805,0.11816406,-1.0720825,0.21453857,-3.53125,8.375,-6.3125
1696251228846,0.03881836,-1.0044556,0.14788818,-0.125,0.359375,-5.234375
1696251228884,-0.022949219,-0.9043579,0.0848999,-0.875,-1.671875,2.640625
1696251228924,0.005859375,-0.94976807,0.11419678,0.75,-3.765625,1.390625
1696251228962,0.044677734,-1.083313,0.14935303,1.515625,-0.203125,2.265625
1696251229005,0.05810547,-1.0979614,0.12445068,-5.390625,-2.8125,8.015625
1696251229062,0.13842773,-0.7686157,0.22137451,-8.6875,-5.0625,-3.703125
1696251229085,-0.10595703,-0.9949341,0.15203857,-4.234375,-8.328125,9.015625
1696251229145,0.018066406,-0.9817505,0.23773193,3.265625,8.21875,2.203125
1696251229161,0.10546875,-1.0388794,0.19744873,-2.40625,-3.0625,-9.96875
1696251229222,0.056640625,-0.9192505,0.19207764,-7.46875,-0.359375,-5.921875
1696251229264,-0.015380859,-0.94073486,0.1942749,2.21875,4.984375,-4.1875
1696251229265,-0.052001953,-1.0186157,0.1539917,-5.609375,5.265625,-4.984375
1696251229304,0.024414062,-0.9927368,0.19110107,-7.9375,13.59375,-1.5
1696251229344,0.04663086,-1.0234985,0.18621826,1.015625,7.5,-1.03125
1696251229382,0.029296875,-1.015686,0.17816162,5.90625,4.578125,-0.84375
1696251229424,0.016357422,-0.97662354,0.17132568,6.234375,8.890625,0.203125
1696251229463,0.014404297,-0.9990845,0.16400146,4.375,5.9375,0.734375
1696251229502,0.020996094,-1.0054321,0.14764404,4.484375,4.09375,1.078125
1696251229542,0.03491211,-0.96832275,0.12640381,2.859375,0.875,1.421875
1696251229581,0.05517578,-0.97003174,0.16009521,3.734375,-1.828125,0.25
1696251229621,0.02368164,-0.95977783,0.11077881,1.921875,-3.25,-0.84375
1696251229661,0.028564453,-0.9475708,0.09490967,8.125,-1.28125,1.1875
1696251229704,0.04321289,-0.91192627,0.10223389,9.859375,-5.828125,0.765625
1696251229744,0.03564453,-0.9348755,-0.003479004,12.765625,-9.953125,2.0625
1696251229785,0.011962891,-0.96588135,-0.1572876,18.546875,-8.59375,7.765625
1696251229824,0.10205078,-0.95758057,0.14154053,-5.515625,-4.71875,19.3125
1696251229865,0.15576172,-1.1331177,0.0446167,-5.734375,-13.34375,4.078125
1696251229905,0.022949219,-0.9390259,0.24212646,-0.15625,0.171875,1.34375
1696251229945,0.018310547,-0.954895,0.09613037,-6.3125,-4.546875,4.234375
1696251229984,0.056396484,-1.1050415,0.19451904,4.671875,1.78125,-2.15625
1696251230025,0.05810547,-0.87579346,0.051696777,-1.03125,-2.234375,-7.25
1696251230064,0.07470703,-0.9133911,-0.0010375977,1.125,-2.34375,-1.640625
1696251230104,0.079833984,-1.0552368,0.047058105,-4.640625,-3.9375,1.609375
1696251230143,0.12719727,-1.0418091,0.28240967,-7.203125,-3.671875,-5.75
1696251230186,-0.06738281,-0.9636841,0.13397217,-5.0,0.359375,-2.078125
1696251230224,-0.017578125,-0.8965454,0.11859131,-4.03125,1.359375,1.78125
1696251230264,0.078125,-1.0696411,0.17010498,-6.375,3.234375,0.890625
1696251230305,0.11401367,-1.0361938,0.15887451,-2.5625,10.078125,-7.421875
1696251230343,0.076660156,-0.9439087,0.12957764,-12.015625,-3.390625,-3.953125
1696251230382,0.035888672,-0.8862915,0.16082764,-14.015625,-2.15625,0.421875
1696251230423,-0.0073242188,-1.0066528,0.20501709,-8.296875,7.890625,-0.265625
1696251230463,-0.07519531,-1.1011353,0.20843506,-0.359375,10.484375,-1.265625
1696251230526,-0.05126953,-1.0117798,0.17669678,4.953125,9.6875,2.453125
1696251230542,0.07714844,-0.9421997,0.16156006,7.90625,11.171875,0.484375
1696251230584,0.09643555,-0.96539307,0.17181396,6.96875,6.890625,-1.453125
1696251230602,0.07714844,-0.9805298,0.16522217,3.6875,1.828125,-1.734375
1696251230644,0.041259766,-1.0249634,0.16253662,0.65625,-1.5625,-1.6875
1696251230706,0.025634766,-0.9976196,0.14202881,2.71875,-1.109375,-0.609375
1696251230722,0.016845703,-0.9771118,0.13201904,3.890625,-0.90625,1.375
1696251230765,-0.024414062,-1.0081177,0.089538574,2.515625,-0.6875,3.46875
1696251230803,0.06665039,-0.9517212,0.14154053,7.28125,-1.1875,2.6875
1696251230844,0.036376953,-0.9649048,0.12249756,6.703125,-4.4375,2.578125
1696251230884,0.064208984,-0.9517212,0.1083374,9.28125,-1.546875,1.25
1696251230942,0.045898438,-0.9241333,0.08856201,5.90625,-3.203125,2.375
1696251230964,0.064208984,-0.8713989,-0.04034424,13.46875,-17.734375,2.1875
1696251231026,0.012207031,-0.9524536,-0.04473877,24.109375,-10.546875,11.953125
1696251231042,0.14208984,-1.0071411,0.14715576,-11.765625,-17.25,13.71875
1696251231082,0.08129883,-1.1152954,0.15423584,-5.71875,-16.6875,-8.0625
1696251231145,-0.0043945312,-1.1028442,0.034606934,-9.75,1.984375,-6.390625
1696251231163,0.06347656,-0.9590454,0.08538818,-0.5,10.25,-3.09375
1696251231204,0.10668945,-1.0007935,0.14520264,-11.578125,5.328125,-0.75
1696251231245,0.12524414,-0.9378052,0.097595215,-6.953125,0.640625,-5.21875
1696251231284,0.088134766,-0.9373169,0.050720215,0.828125,-8.125,0.328125
1696251231346,0.048095703,-1.03302,0.07733154,-4.203125,-10.96875,2.515625
1696251231363,0.06738281,-0.98809814,9.1552734E-4,-14.3125,-11.921875,-3.765625
1696251231406,-0.0107421875,-1.0686646,0.3295288,6.703125,-0.40625,-3.546875
1696251231443,-0.07348633,-0.78009033,0.17034912,4.140625,14.609375,-5.015625
1696251231483,0.12866211,-0.9500122,0.13543701,-0.53125,7.390625,6.46875
1696251231524,0.11254883,-1.09552,0.20233154,-3.4375,-0.171875,3.703125
1696251231566,0.024658203,-1.0264282,0.1786499,-5.796875,-2.859375,-0.734375
1696251231603,0.0036621094,-0.84747314,0.10491943,4.09375,-4.5625,2.953125
1696251231646,0.055664062,-0.9434204,0.1329956,5.046875,-4.703125,2.0625
1696251231685,0.095947266,-1.1306763,0.06414795,7.53125,3.25,3.203125
1696251231724,0.15283203,-1.0967407,0.29388428,-1.515625,-2.640625,-3.109375
1696251231782,-0.05053711,-0.75494385,0.19134521,4.375,-0.28125,-10.359375
1696251231867,-0.046142578,-0.8701782,0.07537842,-6.25,3.296875,6.453125
1696251231874,0.056152344,-1.116272,0.20892334,-3.65625,12.125,2.90625
1696251231878,0.07763672,-1.0877075,0.2086792,-2.421875,3.390625,-6.859375
1696251231903,0.083740234,-0.8491821,0.11785889,-10.296875,1.625,-4.390625
1696251231944,0.030029297,-0.8880005,0.12347412,-10.984375,-3.25,0.40625
1696251231984,0.024902344,-1.0474243,0.24456787,-7.828125,0.296875,2.140625
1696251232024,0.0847168,-1.0457153,0.2658081,-3.046875,6.609375,-3.59375
1696251232064,0.018066406,-0.99224854,0.2086792,3.65625,9.90625,-0.75
1696251232105,0.07299805,-0.9417114,0.15179443,6.84375,11.15625,-1.1875
1696251232143,0.04272461,-1.008606,0.15545654,8.75,4.515625,-2.90625
1696251232183,-0.008056641,-1.0283813,0.15423584,6.9375,3.46875,0.375
1696251232224,0.00390625,-1.0147095,0.11419678,2.28125,7.4375,-0.234375
1696251232266,0.017822266,-0.98394775,0.105895996,6.328125,11.734375,-0.96875
1696251232303,0.037109375,-0.9990845,0.12249756,6.84375,10.625,1.265625
1696251232344,0.040283203,-0.95269775,0.116882324,-0.296875,2.9375,1.53125
1696251232383,0.028564453,-0.92144775,0.10638428,-5.46875,-4.703125,-0.546875
1696251232424,0.048583984,-0.88238525,0.03729248,3.234375,-8.96875,-2.25
1696251232463,0.021240234,-0.9920044,-0.047668457,29.203125,-22.984375,1.953125
1696251232504,0.11987305,-0.92193604,-0.019592285,-3.046875,0.578125,14.96875
1696251232544,0.19262695,-1.0383911,0.20794678,-2.296875,-22.578125,12.59375
1696251232585,0.14794922,-0.8945923,0.17352295,7.171875,-0.40625,-17.453125
1696251232625,-0.014160156,-1.0449829,0.10394287,-1.859375,-1.265625,3.796875
1696251232664,-0.015136719,-1.0471802,0.09490967,-7.828125,-6.65625,7.015625
1696251232704,0.060791016,-1.0186157,0.18621826,-5.234375,3.40625,-5.875
1696251232744,0.033203125,-0.86016846,0.082458496,4.9375,-0.609375,-5.109375
1696251232783,0.041992188,-0.94903564,0.05999756,-0.984375,-5.359375,4.53125
1696251232827,0.09033203,-1.1099243,0.11175537,-4.109375,-10.4375,3.0625
1696251232865,0.052978516,-1.0391235,0.09637451,-1.46875,-8.21875,-2.078125
1696251232903,0.06762695,-0.9216919,0.16473389,-0.671875,4.765625,-5.546875
1696251232946,0.021484375,-0.8862915,0.13543701,-1.109375,-2.171875,-9.078125
1696251232983,-0.041992188,-0.9468384,0.13641357,-9.0,-0.359375,7.015625
1696251233024,0.055908203,-1.0720825,0.18743896,-3.171875,5.40625,4.375
1696251233062,0.09326172,-1.0562134,0.18597412,-5.578125,-3.515625,-6.5
1696251233102,0.060058594,-0.8389282,0.12957764,-8.03125,2.109375,-3.5
1696251233165,0.01171875,-0.88482666,0.14227295,1.546875,2.921875,0.78125
1696251233185,0.012451172,-1.1074829,0.2111206,-0.3125,-1.484375,0.484375
1696251233202,-0.043701172,-1.05719,0.25701904,4.140625,11.0625,-0.71875
1696251233243,-0.049560547,-0.97979736,0.14715576,0.671875,12.875,0.078125
1696251233283,0.05078125,-0.9368286,0.11639404,2.90625,15.15625,-2.3125
1696251233324,0.10888672,-0.9920044,0.1281128,8.90625,16.21875,-1.8125
1696251233363,0.091308594,-1.0291138,0.13543701,10.84375,10.0,-0.546875
1696251233404,0.033203125,-1.0198364,0.13519287,7.421875,5.25,3.6875
1696251233444,0.017822266,-0.98223877,0.09124756,5.828125,-2.171875,1.53125
1696251233485,0.05053711,-0.9507446,0.081970215,1.625,-4.359375,-2.4375
1696251233524,0.048828125,-0.89190674,0.059509277,2.03125,-8.75,1.140625
1696251233562,0.041259766,-0.9331665,0.048034668,4.71875,-10.21875,3.03125
1696251233604,0.016601562,-0.94781494,-0.062316895,9.84375,-17.078125,1.953125
1696251233667,0.032226562,-1.0256958,0.028259277,7.09375,-4.875,12.015625
1696251233684,0.1184082,-0.96539307,0.09637451,-4.96875,-18.828125,17.03125
1696251233746,0.10839844,-0.8635864,0.1149292,-0.765625,-0.4375,-12.671875
1696251233764,0.05517578,-1.1616821,0.11273193,-2.0,3.5625,2.671875
1696251233825,-0.021728516,-1.06427,0.16815186,-2.671875,-0.046875,8.890625
1696251233862,0.10522461,-1.0025024,0.10394287,-6.84375,5.09375,-1.53125
1696251233884,0.053222656,-0.80474854,0.042663574,0.796875,4.71875,-4.296875
1696251233946,0.0859375,-0.9067993,0.0211792,3.375,-2.21875,2.90625
1696251233962,0.15063477,-1.2073364,0.17376709,-5.203125,-7.0,4.609375
1696251234023,0.08251953,-0.97857666,0.18865967,-12.328125,-10.53125,-5.921875
1696251234065,-0.021728516,-0.8394165,0.124938965,-7.015625,8.109375,-7.984375
1696251234083,0.123535156,-0.925354,0.12738037,3.390625,1.703125,-4.046875
1696251234123,0.080078125,-1.0964966,0.18719482,-6.0,-1.03125,2.984375
1696251234164,0.010498047,-1.0083618,0.168396,-5.953125,-3.78125,-4.65625
1696251234222,0.015380859,-0.90875244,0.10369873,-5.359375,2.71875,-3.671875
1696251234242,0.107666016,-0.8953247,0.18621826,-3.875,8.84375,-1.328125
1696251234281,0.0546875,-1.0462036,0.2531128,-3.265625,6.25,-0.296875
1696251234322,-0.0078125,-1.0686646,0.19915771,-0.703125,10.296875,-2.4375
1696251234364,4.8828125E-4,-0.9956665,0.12445068,3.546875,10.4375,-4.609375
1696251234404,0.037109375,-0.93878174,0.08856201,5.703125,7.0,-3.28125
1696251234464,0.056640625,-0.97857666,0.14202881,5.78125,6.796875,-1.515625
1696251234482,0.05126953,-1.0090942,0.13079834,1.546875,1.96875,-2.0
1696251234504,0.051757812,-0.98687744,0.1239624,-2.8125,-0.96875,-1.09375
1696251234544,0.044921875,-0.99224854,0.14031982,4.5,-0.078125,-1.421875
1696251234583,0.024169922,-0.9631958,0.12200928,3.234375,-3.375,-0.875
1696251234625,-0.005126953,-0.94659424,0.11224365,2.296875,-3.65625,0.671875
1696251234665,-0.014892578,-0.986145,0.0680542,8.71875,-7.53125,2.859375
1696251234703,0.06542969,-0.93218994,0.074401855,10.21875,-10.203125,2.703125
1696251234743,0.0546875,-0.9302368,0.042907715,16.25,-6.78125,3.65625
1696251234785,-0.040771484,-1.0718384,-0.0022583008,18.078125,-10.34375,11.21875
1696251234825,0.01928711,-1.0037231,0.22113037,-3.328125,-4.296875,11.546875
1696251234863,0.20605469,-0.87579346,0.06072998,-12.25,-7.53125,2.8125
1696251234903,0.11450195,-0.9780884,0.14154053,4.359375,-1.75,-14.34375
1696251234943,-0.05834961,-1.013977,0.15765381,-6.703125,-5.5,2.578125
1696251234984,0.048095703,-0.942688,0.070739746,-8.265625,-1.515625,1.65625
1696251235023,0.11987305,-1.0864868,0.14276123,-1.671875,9.390625,-5.359375
1696251235065,0.052001953,-0.91070557,0.0692749,-3.125,-7.109375,-5.203125
1696251235106,0.018798828,-0.8850708,0.03289795,-1.8125,-7.65625,2.984375
1696251235142,0.045410156,-1.0720825,0.12640381,-5.328125,-10.140625,2.984375
1696251235185,0.040283203,-1.09552,0.1486206,-4.8125,-7.6875,-0.8125
1696251235223,0.024658203,-0.88848877,0.07659912,3.234375,-1.4375,-4.1875
1696251235266,0.0063476562,-0.95880127,0.05316162,-2.390625,-4.15625,2.515625
1696251235306,-0.0053710938,-0.9741821,0.13568115,4.8125,8.015625,1.203125
1696251235345,0.03100586,-1.0601196,0.11151123,2.59375,6.125,1.265625
1696251235384,0.0769043,-0.87213135,0.12664795,1.328125,8.328125,-0.5
1696251235423,0.09741211,-0.96661377,0.1473999,-4.25,2.109375,3.375
1696251235464,0.06933594,-0.972229,0.1005249,-2.25,-0.3125,-0.71875
1696251235505,0.0390625,-1.0427856,0.089782715,-1.046875,-5.859375,-0.03125
1696251235544,0.036376953,-0.98223877,0.14007568,-2.09375,-6.0,-1.109375
1696251235583,0.060058594,-0.9985962,0.03363037,-7.78125,-6.5,-3.390625
1696251235622,0.092041016,-0.973938,0.07562256,-6.375,-6.96875,-1.75
1696251235665,0.11767578,-1.0859985,0.14984131,3.109375,-7.09375,5.90625
1696251235704,-0.083984375,-0.84259033,0.20428467,-2.140625,-8.5625,-0.1875
1696251235746,-0.13256836,-0.9619751,0.10784912,-3.984375,-0.34375,8.8125
1696251235784,0.10620117,-1.0269165,0.20184326,4.828125,16.15625,2.703125
1696251235806,0.1262207,-1.0115356,0.2296753,-7.828125,0.40625,-3.953125
1696251235843,0.09350586,-0.9151001,0.14984131,-10.484375,-0.921875,-0.4375
1696251235885,0.080322266,-0.91851807,0.16400146,-5.703125,6.6875,0.875
1696251235923,0.03100586,-1.0964966,0.20404053,-10.40625,-1.265625,2.359375
1696251235967,0.001953125,-1.0388794,0.17547607,-1.203125,5.171875,-1.015625
1696251236004,0.029541016,-0.9678345,0.18157959,5.09375,11.890625,-4.875
1696251236066,0.064453125,-0.95147705,0.16546631,5.546875,8.609375,-5.609375
1696251236106,0.06225586,-0.98101807,0.1618042,5.75,5.5625,-1.59375
1696251236125,0.028320312,-0.9890747,0.17547607,4.078125,1.8125,-0.984375
1696251236166,0.050048828,-0.9807739,0.1774292,2.15625,-2.40625,-0.640625
1696251236226,0.07006836,-0.9302368,0.13079834,-1.59375,-10.34375,0.984375
1696251236241,0.048828125,-0.8574829,0.066833496,8.640625,-10.578125,2.046875
1696251236285,0.039794922,-0.9348755,0.039733887,23.015625,-14.65625,4.8125
1696251236325,0.029541016,-0.99053955,0.054382324,23.15625,-7.515625,8.90625
1696251236385,0.005126953,-0.9920044,0.023620605,17.890625,-14.0,14.796875
1696251236403,-2.4414062E-4,-1.0535278,0.12860107,-16.265625,-9.0,13.125
1696251236442,0.21264648,-1.0278931,0.07537842,-4.09375,5.328125,-13.71875
1696251236506,-0.005859375,-0.96099854,0.15496826,-9.828125,3.328125,-6.09375
1696251236523,0.0949707,-0.91363525,0.061462402,-7.3125,6.15625,4.578125
1696251236586,0.21142578,-1.1194458,0.24871826,-6.5625,10.03125,-6.90625
1696251236625,0.068603516,-1.0449829,0.1317749,0.984375,-4.328125,-12.171875
1696251236642,-0.029785156,-0.85406494,0.03729248,-2.140625,-12.734375,0.484375
1696251236707,0.041748047,-0.93707275,0.11248779,-5.859375,-9.546875,4.125
1696251236725,0.16894531,-1.0178833,0.18011475,-6.640625,-7.734375,-5.09375
1696251236763,-0.10498047,-1.1685181,0.10418701,-6.984375,-8.796875,-4.75
1696251236805,-0.104003906,-0.8845825,0.101501465,-12.84375,-0.515625,1.265625
1696251236842,0.088378906,-0.79229736,0.15716553,-4.640625,7.953125,2.71875
1696251236906,0.20166016,-1.0791626,0.2501831,0.03125,6.71875,1.015625
1696251236921,0.044433594,-1.0401001,0.21258545,-4.5625,-7.953125,-4.640625
1696251236966,-0.06518555,-0.9439087,0.1564331,-4.078125,-1.671875,-0.90625
1696251237006,-0.015380859,-0.9224243,0.16595459,0.0625,7.890625,0.765625
1696251237045,0.12475586,-1.0027466,0.1762085,-2.28125,12.28125,-1.90625
1696251237108,0.13842773,-0.9927368,0.21575928,0.796875,10.140625,-1.65625
1696251237111,0.06347656,-0.9841919,0.21673584,2.65625,4.609375,3.234375
1696251237144,-0.024902344,-0.9541626,0.17889404,2.625,-0.65625,4.140625
1696251237183,-0.017089844,-0.9590454,0.17108154,2.328125,2.5,1.859375
1696251237225,0.0390625,-1.0442505,0.1774292,2.25,6.65625,2.21875
1696251237265,0.09790039,-1.0117798,0.17523193,7.53125,3.546875,2.421875
1696251237305,0.09033203,-0.9920044,0.16497803,8.5,-1.578125,4.28125
1696251237344,0.060302734,-0.9487915,0.11541748,6.625,-4.078125,1.96875
1696251237388,0.040527344,-0.94073486,0.07269287,10.96875,-6.921875,1.921875
1696251237424,0.09838867,-0.9155884,0.047058105,12.890625,-12.765625,3.734375
1696251237463,0.080566406,-0.9336548,-0.046936035,18.1875,-15.421875,7.578125
1696251237505,0.1784668,-0.9011841,0.3012085,-2.296875,-9.140625,6.640625
1696251237545,-0.05810547,-1.1245728,0.2892456,-4.328125,-11.703125,2.234375
1696251237585,0.060302734,-0.93634033,0.15985107,-5.765625,9.9375,-5.03125
1696251237623,0.22143555,-0.97247314,0.07904053,8.734375,5.859375,-1.65625
1696251237662,0.08154297,-1.065979,0.20062256,-8.90625,-16.5625,4.328125
1696251237706,-0.015380859,-0.9002075,0.070495605,-3.84375,-9.359375,-5.640625
1696251237745,-0.028076172,-0.93951416,0.059265137,5.34375,4.390625,-2.65625
1696251237785,0.12915039,-1.0042114,0.06854248,-1.125,2.78125,2.09375
1696251237823,0.203125,-1.1038208,0.24725342,-11.375,-5.65625,-3.984375
1696251237864,-0.005126953,-0.8562622,0.13543701,-4.046875,-0.078125,-9.578125
1696251237903,0.010253906,-0.8718872,0.074645996,-5.296875,-0.109375,1.1875
1696251237943,0.1003418,-1.0278931,0.19622803,-4.265625,7.625,2.265625
1696251237984,0.095947266,-1.0901489,0.18695068,-2.84375,4.84375,-5.59375
1696251238022,0.05029297,-0.93170166,0.0993042,1.09375,0.390625,-2.828125
1696251238065,0.052001953,-0.9043579,0.1281128,2.046875,-4.4375,1.75
1696251238103,0.08129883,-1.0210571,0.15423584,-4.046875,-4.75,2.78125
1696251238142,0.032958984,-1.0818481,0.022644043,6.84375,-3.96875,3.515625
1696251238186,0.103271484,-0.89019775,0.2062378,-2.640625,2.984375,-6.3125
1696251238224,-0.034179688,-0.92974854,0.07537842,-3.28125,11.734375,4.6875
1696251238265,0.19140625,-0.9927368,0.21209717,5.484375,6.84375,4.09375
1696251238303,0.041992188,-0.97906494,0.14129639,-7.578125,-7.625,1.734375
1696251238343,0.06738281,-0.9590454,0.1539917,-11.0625,-4.203125,-5.15625
1696251238384,0.04711914,-0.9006958,0.18377686,-10.53125,-2.75,-3.90625
1696251238404,0.02734375,-0.9727173,0.2062378,-8.40625,2.59375,2.828125
1696251238446,0.05493164,-1.0872192,0.2189331,-6.296875,7.734375,-0.078125
1696251238483,0.052001953,-1.046936,0.19866943,-3.09375,2.1875,-0.390625
1696251238523,0.061523438,-0.95025635,0.20111084,8.109375,6.078125,2.859375
1696251238565,0.084228516,-0.93096924,0.17816162,10.96875,2.578125,0.546875
1696251238606,0.08081055,-1.0154419,0.16473389,7.25,1.078125,-1.8125
1696251238646,0.06616211,-1.0115356,0.18939209,5.640625,5.640625,-0.84375
1696251238684,0.047851562,-0.95758057,0.15960693,3.265625,1.015625,-0.78125
1696251238724,0.041503906,-0.9817505,0.11834717,2.1875,-1.203125,0.0
1696251238764,0.07861328,-0.98394775,0.1281128,4.671875,1.59375,0.8125
1696251238806,0.08666992,-0.96099854,0.13128662,5.28125,-1.09375,-0.09375
1696251238844,0.05883789,-0.942688,0.10321045,7.640625,-3.28125,-0.171875
1696251238884,0.064941406,-0.9104614,-0.008361816,14.609375,-13.40625,0.484375
1696251238928,0.047851562,-0.9907837,0.032409668,24.6875,-8.515625,7.4375
1696251238963,0.09350586,-1.0335083,0.27215576,-1.40625,-4.75,17.359375
1696251239004,0.09667969,-1.0049438,0.14471436,3.203125,-7.78125,-3.90625
1696251239045,0.014892578,-1.0054321,0.14129639,-3.171875,7.03125,-6.671875
1696251239083,0.12915039,-0.91656494,0.054626465,-5.171875,5.953125,-6.328125
1696251239144,0.115234375,-1.0718384,0.14520264,-8.4375,-1.984375,0.90625
1696251239185,0.044433594,-1.0435181,0.12664795,-5.375,-0.171875,-2.59375
1696251239226,-2.4414062E-4,-0.86602783,0.013122559,0.328125,-4.453125,-2.6875
1696251239244,0.11987305,-0.93341064,-0.015686035,-2.578125,0.78125,1.125
1696251239305,0.23364258,-1.1560669,0.3163452,-3.703125,3.640625,2.734375
1696251239345,-0.0234375,-0.9456177,0.18328857,-7.625,-9.671875,-9.046875
1696251239364,-0.057861328,-0.866272,0.11004639,-7.828125,-1.734375,2.375
1696251239403,0.084228516,-0.92974854,0.105651855,-2.578125,7.65625,4.515625
1696251239444,0.19262695,-1.1765747,0.23406982,-2.15625,-0.203125,-2.40625
1696251239503,0.095703125,-0.9639282,0.15911865,-8.765625,-10.046875,-6.0625
1696251239522,0.01171875,-0.8648071,0.12200928,-9.625,-7.046875,0.34375
1696251239585,0.01953125,-0.95758057,0.17401123,-4.75,4.671875,3.0
1696251239625,0.024414062,-1.0967407,0.20159912,-8.28125,3.6875,0.984375
1696251239642,0.0078125,-1.0283813,0.20184326,-5.609375,-0.03125,1.1875
1696251239707,0.040771484,-0.93927,0.18084717,0.890625,2.078125,-0.125
1696251239723,0.046875,-0.9607544,0.1828003,5.515625,4.359375,-0.859375
1696251239743,0.08935547,-0.9793091,0.18133545,2.359375,4.671875,-0.34375
1696251239785,0.04296875,-1.0090942,0.18035889,0.640625,4.421875,0.484375
1696251239826,0.07836914,-1.0105591,0.16229248,4.578125,3.84375,0.40625
1696251239863,0.09033203,-0.95928955,0.14422607,4.625,-0.78125,-0.390625
1696251239906,0.05859375,-0.9260864,0.124938965,4.765625,0.703125,-0.875
1696251239945,0.033691406,-0.94244385,0.0836792,11.171875,-1.8125,-0.921875
1696251239982,0.10498047,-0.92315674,0.07611084,8.25,-8.109375,0.203125
1696251240022,-0.0087890625,-0.9680786,-0.04034424,21.28125,-18.53125,6.078125
1696251240065,0.1730957,-0.93048096,0.3703003,-0.671875,-1.5,13.703125
1696251240104,0.05908203,-1.1082153,0.27874756,-7.578125,-9.734375,4.765625
1696251240145,0.115722656,-1.0076294,0.093688965,-6.328125,5.0625,-13.03125
1696251240185,0.119628906,-0.8394165,0.08465576,0.015625,0.984375,-5.703125
1696251240224,-0.03173828,-1.0606079,0.13153076,-8.515625,-6.96875,13.890625
1696251240264,0.060302734,-1.0652466,0.20794678,-4.859375,7.859375,-1.640625
1696251240304,0.026611328,-0.93951416,0.054626465,2.3125,4.75,-8.1875
1696251240343,0.10986328,-0.83551025,0.030944824,3.75,4.359375,0.390625
1696251240383,0.22387695,-1.08844,0.16400146,6.34375,0.921875,2.6875
1696251240423,0.083740234,-1.1484985,0.21551514,-2.984375,-10.484375,-7.859375
1696251240464,-0.10253906,-0.86187744,0.038024902,3.25,8.703125,-10.390625
1696251240504,-0.05029297,-0.8411255,0.12982178,-0.296875,0.265625,0.0
1696251240544,0.12548828,-0.8442993,0.10467529,-4.5625,5.078125,3.96875
1696251240584,0.18847656,-1.1682739,0.22088623,-7.546875,3.21875,-1.40625
1696251240624,0.06591797,-1.0447388,0.16351318,-1.6875,-6.0,-12.03125
1696251240664,-0.020996094,-0.90460205,0.06829834,-11.75,-11.15625,-2.1875
1696251240705,0.030029297,-0.8435669,0.13128662,-11.453125,0.609375,-1.40625
1696251240743,0.05908203,-1.0264282,0.21087646,-3.0625,12.25,-3.078125
1696251240783,-0.0107421875,-1.1504517,0.24969482,5.234375,6.484375,-4.90625
1696251240825,-0.0690918,-1.048645,0.1630249,5.4375,0.125,0.828125
1696251240864,-0.010986328,-0.9060669,0.109802246,5.265625,0.3125,-0.171875
1696251240905,0.02368164,-0.9483032,0.11248779,9.3125,6.9375,-1.1875
1696251240946,0.013427734,-1.0413208,0.17034912,3.8125,7.203125,0.421875
1696251240985,-0.0031738281,-1.0379028,0.1383667,-5.828125,-1.546875,1.265625
1696251241045,0.025634766,-0.9199829,0.0446167,-5.46875,-6.234375,-1.171875
1696251241047,0.026367188,-0.9578247,0.09173584,7.3125,1.421875,-0.609375
1696251241104,0.023925781,-0.9229126,0.066833496,11.4375,4.015625,0.921875
1696251241169,0.041992188,-0.9290161,-0.0803833,17.015625,-8.28125,2.484375
1696251241173,0.037597656,-1.017395,0.1708374,10.3125,-0.71875,9.828125
1696251241203,-0.031982422,-0.95758057,0.0993042,-6.03125,-6.875,15.59375
1696251241245,0.099853516,-1.0603638,0.17913818,-7.578125,-13.03125,-1.40625
1696251241285,0.05834961,-0.89630127,0.11859131,0.90625,14.296875,-9.015625
1696251241325,0.07788086,-1.0003052,0.11419678,-3.328125,-2.8125,0.859375
1696251241363,0.079833984,-1.0491333,0.15765381,-6.125,12.0,0.09375
1696251241403,0.041992188,-1.0110474,0.10296631,-2.328125,2.1875,-10.71875
1696251241444,0.02368164,-0.89312744,-0.0068969727,2.734375,-6.65625,-2.71875
1696251241484,0.06542969,-0.9312134,0.0524292,1.78125,-5.921875,5.28125
1696251241525,0.02758789,-1.1658325,0.15350342,2.84375,-4.328125,3.671875
1696251241564,0.012451172,-0.9741821,0.22357178,-2.640625,-2.703125,-2.953125
1696251241604,-0.0021972656,-0.8753052,0.04876709,-5.96875,3.453125,-1.59375
1696251241644,0.056152344,-0.90826416,0.12640381,-3.046875,2.765625,0.90625
1696251241685,0.07373047,-1.0654907,0.15789795,-3.84375,1.640625,-2.65625
1696251241724,0.06713867,-1.0386353,0.1864624,-1.0,-2.5625,-6.203125
1696251241786,-0.041259766,-0.942688,0.1083374,-3.296875,-5.65625,0.09375
1696251241803,-0.056640625,-0.9151001,0.12860107,-6.21875,-0.6875,1.390625
1696251241844,-0.024658203,-1.003479,0.1630249,-9.34375,10.9375,-1.65625
1696251241906,0.025146484,-1.0818481,0.16766357,-2.734375,13.9375,-1.03125
1696251241944,0.04272461,-1.0181274,0.1149292,0.5,4.6875,-0.234375
1696251241963,0.04711914,-0.94488525,0.14569092,5.921875,4.65625,-0.515625
1696251242006,0.017089844,-0.9536743,0.16741943,8.90625,2.40625,0.359375
1696251242045,9.765625E-4,-1.0186157,0.13348389,0.265625,-4.25,2.34375
1696251242085,-2.4414062E-4,-0.99713135,0.12445068,-2.53125,-4.484375,2.40625
1696251242145,0.017578125,-0.9795532,0.12713623,2.28125,-4.5625,1.78125
1696251242164,0.044677734,-0.9302368,0.08831787,2.15625,-6.9375,0.125
1696251242225,0.031982422,-0.9192505,0.05682373,8.875,-10.125,1.4375
1696251242244,0.007080078,-0.95684814,-0.062316895,13.3125,-17.6875,1.734375
1696251242284,0.013671875,-1.024231,0.031433105,20.234375,-3.46875,8.25
1696251242323,0.05126953,-0.9714966,0.16741943,-11.640625,-8.484375,11.9375
1696251242344,0.11694336,-1.0447388,0.117614746,-2.328125,6.078125,-5.09375
1696251242385,-0.05834961,-0.9993286,0.20159912,-2.375,8.359375,-3.1875
1696251242427,0.057128906,-0.97320557,0.049743652,1.8125,-2.421875,0.484375
1696251242465,0.01171875,-1.031311,0.14715576,-5.75,-1.921875,6.6875
1696251242502,0.017089844,-0.95928955,0.07537842,0.09375,-3.0,0.0
1696251242543,0.110839844,-0.91070557,-0.00982666,1.796875,1.265625,-0.59375
1696251242585,0.14013672,-1.0735474,0.17523193,-5.9375,-7.53125,5.125
1696251242623,0.09375,-1.1060181,0.11956787,-5.15625,4.671875,3.390625
1696251242664,0.063964844,-0.86846924,0.13909912,-4.671875,-12.984375,-3.9375
1696251242704,-0.1015625,-0.9800415,0.12591553,-8.546875,-8.171875,5.671875
1696251242743,-0.024414062,-0.94610596,0.16033936,-4.875,12.71875,-0.96875
1696251242784,0.13427734,-0.9690552,0.14202881,-3.796875,9.625,-9.09375
1696251242828,0.1081543,-0.9702759,0.17474365,-12.09375,-1.765625,-5.40625
1696251242865,0.052978516,-0.9776001,0.17547607,-11.890625,2.703125,-2.125
1696251242905,0.013183594,-1.0359497,0.19036865,4.59375,10.875,-3.015625
1696251242945,0.0,-1.0718384,0.19451904,7.046875,13.71875,1.875
1696251242984,0.015625,-1.0130005,0.1449585,-0.140625,9.109375,4.34375
1696251243025,0.028808594,-0.95269775,0.14300537,0.078125,1.5625,2.125
1696251243065,0.020019531,-0.9495239,0.12542725,1.15625,-2.140625,4.15625
1696251243103,0.07470703,-0.99664307,0.15130615,-1.03125,1.984375,3.8125
1696251243143,0.06958008,-0.9993286,0.15106201,-4.40625,-3.375,1.65625
1696251243187,0.060302734,-0.95025635,0.11981201,8.46875,-4.40625,1.453125
1696251243223,0.072021484,-0.95196533,0.1383667,5.8125,-7.0,3.609375
1696251243264,0.033203125,-0.927063,0.07562256,8.140625,-5.953125,-0.234375
1696251243304,0.020019531,-0.92755127,-0.012268066,18.671875,-3.765625,0.078125
1696251243345,0.0234375,-1.0110474,0.094177246,23.65625,-5.109375,9.0625
1696251243383,0.083496094,-1.039856,0.11590576,-10.265625,-8.578125,16.65625
1696251243423,0.15991211,-0.9651489,0.18426514,-0.453125,-0.53125,-7.046875
1696251243464,0.16796875,-0.99884033,0.16693115,-5.78125,3.640625,-6.0625
1696251243503,0.07397461,-0.98687744,0.11273193,-0.953125,-5.03125,-4.65625
1696251243544,-0.05053711,-1.0950317,0.14764404,-10.671875,-2.53125,0.796875
1696251243585,0.033691406,-0.9199829,0.12054443,-2.21875,11.9375,-7.796875
1696251243623,0.1262207,-0.8845825,0.0368042,7.453125,6.859375,-4.625
1696251243665,0.16235352,-1.0374146,0.09075928,-2.03125,-4.40625,2.796875
1696251243705,0.068847656,-1.1533813,0.13568115,-0.578125,-13.71875,3.890625
1696251243723,0.0026855469,-0.8792114,0.14813232,2.109375,-1.703125,2.875
1696251243764,0.025146484,-0.86505127,0.13397217,-1.015625,1.5,-4.953125
1696251243823,0.050048828,-1.0620728,0.09173584,2.1875,12.203125,6.046875
1696251243843,0.09716797,-1.022522,0.15618896,-1.15625,5.46875,0.0
1696251243885,0.07373047,-1.0012817,0.12030029,-3.90625,2.203125,-3.09375
1696251243944,0.060058594,-0.92974854,0.07513428,-2.1875,0.15625,1.875
1696251243963,0.08691406,-0.9649048,0.08270264,0.296875,-0.84375,5.75
1696251244006,0.08862305,-1.0632935,0.18011475,-3.5625,-5.53125,2.6875
1696251244042,0.09741211,-1.0122681,0.10321045,-1.890625,1.046875,-0.078125
1696251244084,0.14526367,-0.92852783,0.10882568,-6.015625,-1.28125,-1.984375
1696251244123,0.019042969,-1.0261841,0.12884521,-0.421875,6.96875,-0.390625
1696251244164,0.07543945,-0.91070557,0.20941162,6.109375,3.140625,2.28125
1696251244204,-0.06640625,-0.95513916,0.11419678,2.15625,-4.3125,11.34375
1696251244243,0.21801758,-0.9924927,0.17694092,5.0625,9.875,1.65625
1696251244306,0.14794922,-0.94732666,0.14666748,-0.625,-6.453125,-7.40625
1696251244325,0.06665039,-0.94854736,0.12371826,-5.984375,-10.96875,-3.265625
1696251244363,-0.0126953125,-0.98638916,0.15618896,-10.796875,-11.34375,-4.1875
1696251244409,-0.004638672,-1.0925903,0.18792725,-2.4375,3.4375,-5.796875
1696251244466,0.018554688,-1.0479126,0.17230225,0.140625,7.953125,-1.09375
1696251244506,0.07836914,-0.98321533,0.13739014,2.515625,3.90625,1.96875
1696251244543,0.09277344,-0.98565674,0.14715576,4.5625,2.15625,1.15625
1696251244564,0.08666992,-0.991272,0.117614746,4.6875,4.84375,-0.75
1696251244605,0.049316406,-0.9780884,0.105163574,-0.546875,3.46875,-2.59375
1696251244646,0.026855469,-0.97979736,0.11029053,1.5625,-0.203125,-1.921875
1696251244685,0.08154297,-0.89801025,0.015319824,4.828125,-6.328125,-1.140625
1696251244724,0.075927734,-0.90997314,-0.13360596,23.28125,-22.046875,0.1875
1696251244764,0.14086914,-0.928772,0.1852417,15.546875,8.359375,12.390625
1696251244824,0.087890625,-1.0664673,0.117126465,-5.984375,-23.375,16.625
1696251244842,-0.20483398,-0.9092407,0.09637451,-6.375,-6.15625,1.8125
1696251244885,0.203125,-0.98272705,0.1552124,-5.609375,20.390625,-4.359375
1696251244945,0.2902832,-1.0003052,0.1251831,9.515625,8.390625,-3.4375
1696251244984,0.14038086,-1.0891724,0.18817139,-9.0,-8.546875,1.890625
1696251244988,-0.0390625,-0.9158325,0.050720215,-7.171875,-5.8125,-3.234375
1696251245023,-9.765625E-4,-0.83795166,-0.004699707,5.34375,2.078125,-5.140625
1696251245107,0.18457031,-1.1177368,0.14715576,-2.546875,4.6875,1.625
1696251245111,0.12207031,-1.1624146,0.20111084,-9.9375,-6.875,5.03125
1696251245145,0.16381836,-0.84039307,0.15570068,-8.609375,-2.515625,-4.15625
1696251245184,0.045166016,-0.8562622,0.1083374,-2.4375,-1.671875,-5.859375
1696251245225,0.012451172,-0.9981079,0.15032959,-6.21875,-5.921875,5.09375
1696251245265,0.052001953,-1.03302,0.1984253,-3.453125,4.671875,-1.375
1696251245305,0.076171875,-1.0056763,0.11590576,0.859375,2.25,-4.46875
1696251245345,0.053710938,-0.9475708,0.11663818,-1.15625,-3.890625,2.84375
1696251245384,0.08959961,-0.9204712,0.06097412,3.765625,-2.125,4.890625
1696251245424,0.08959961,-1.0637817,0.13665771,12.0625,12.359375,5.5
1696251245465,0.2097168,-1.0059204,0.18426514,-0.59375,0.71875,-2.96875
1696251245504,-0.02758789,-0.87701416,0.11859131,8.21875,6.015625,0.6875
1696251245544,-0.0087890625,-0.94610596,0.093444824,-0.453125,-1.46875,5.34375
1696251245586,0.12988281,-1.0923462,0.15716553,-4.828125,3.21875,2.328125
1696251245624,0.15698242,-1.00177,0.16473389,-9.0625,-3.640625,-7.875
1696251245665,0.08862305,-0.9121704,0.14520264,-14.703125,-8.921875,-7.0625
1696251245705,0.04736328,-0.8960571,0.19940186,-6.84375,0.46875,-2.484375
1696251245746,0.075683594,-1.0825806,0.1864624,-7.546875,0.109375,-1.578125
1696251245783,0.078125,-1.0542603,0.18890381,-4.609375,-1.140625,-1.515625
1696251245824,0.06542969,-0.9829712,0.1642456,2.078125,2.828125,-0.78125
1696251245864,0.018066406,-0.9536743,0.15106201,7.359375,1.609375,0.71875
1696251245904,0.023925781,-0.96588135,0.18841553,6.4375,0.609375,2.15625
1696251245945,0.0014648438,-0.9990845,0.17816162,0.984375,-1.796875,3.421875
1696251245987,0.04296875,-0.97491455,0.15960693,-2.890625,-2.46875,-0.28125
1696251246025,0.05053711,-0.9458618,0.13763428,-3.1875,-4.65625,-0.125
1696251246064,0.07299805,-0.8928833,0.039245605,12.171875,-3.671875,1.234375
1696251246105,0.0859375,-0.8880005,-0.06549072,21.5625,-11.625,3.125
1696251246147,0.0871582,-1.0430298,0.19403076,23.5,-5.3125,11.765625
1696251246182,0.107666016,-1.1123657,0.22747803,-5.109375,-7.28125,19.765625
1696251246222,-0.036621094,-1.0007935,0.11126709,-4.46875,-14.296875,1.28125
1696251246263,0.17529297,-0.8389282,0.12786865,-1.90625,16.09375,-7.421875
1696251246283,0.18920898,-0.96759033,0.13934326,5.03125,-0.53125,-2.296875
1696251246345,0.12695312,-1.161438,0.22332764,-8.546875,-3.0,0.21875
1696251246362,-0.0026855469,-0.9558716,0.08148193,-6.9375,0.96875,-14.421875
1696251246426,0.00390625,-0.8513794,0.027770996,8.484375,7.5,-7.1875
1696251246442,0.11645508,-1.0164185,0.1383667,3.34375,7.046875,5.90625
1696251246484,0.15795898,-1.2307739,0.08099365,-2.140625,-13.75,7.453125
1696251246523,0.024414062,-0.9258423,0.14691162,-5.03125,-6.359375,-0.859375
1696251246585,0.12036133,-0.786438,0.10443115,-2.96875,2.59375,-5.59375
1696251246602,0.15185547,-0.90216064,0.19476318,0.21875,6.671875,-10.328125
1696251246645,0.06640625,-1.1880493,0.17767334,-5.640625,-0.9375,-2.65625
1696251246685,-0.027832031,-0.9404907,0.14520264,-5.546875,-3.078125,-4.8125
1696251246723,0.01586914,-0.9741821,0.101989746,-5.1875,6.5625,-5.109375
1696251246765,0.061279297,-0.9505005,0.1539917,-1.265625,7.015625,-3.703125
1696251246804,0.06201172,-0.99420166,0.18988037,-5.3125,4.21875,-2.25
1696251246865,0.022705078,-1.0064087,0.2230835,-8.28125,3.21875,-4.5
1696251246882,-0.04736328,-1.0100708,0.15057373,-8.421875,5.671875,-2.296875
1696251246925,-0.0036621094,-0.9680786,0.16937256,-4.203125,9.296875,-1.53125
1696251246965,0.056152344,-1.0315552,0.15570068,6.28125,6.21875,-2.59375
1696251247006,0.09082031,-0.9924927,0.14007568,9.953125,7.875,-1.515625
1696251247045,0.0036621094,-0.93292236,0.11468506,5.84375,2.5625,2.78125
1696251247085,-0.0107421875,-0.95098877,0.11444092,6.859375,-3.375,2.890625
1696251247123,0.0061035156,-0.99835205,0.07220459,5.625,-7.453125,3.296875
1696251247165,0.010498047,-0.9692993,-0.066223145,16.59375,-13.171875,5.71875
1696251247204,0.13720703,-0.9116821,0.124938965,16.625,2.6875,11.265625
1696251247267,0.14257812,-1.0005493,0.19744873,-5.984375,-8.21875,12.34375
1696251247304,0.080566406,-1.1350708,0.1930542,-5.515625,-12.9375,-2.609375
1696251247324,0.052001953,-0.9104614,0.1251831,5.859375,6.734375,-9.328125
1696251247385,-0.005126953,-0.8909302,0.085876465,-2.78125,-10.09375,6.046875
1696251247427,-0.016113281,-0.9697876,0.15057373,-7.578125,-0.140625,9.796875
1696251247444,0.076171875,-1.081604,0.11834717,-2.03125,4.109375,-11.15625
1696251247483,0.072021484,-0.9187622,0.061706543,-0.984375,-1.421875,-9.484375
1696251247545,0.036621094,-0.9534302,0.0680542,-8.125,-2.9375,5.375
1696251247627,0.076171875,-1.0515747,0.13153076,-4.84375,-5.0,2.1875
1696251247631,0.0793457,-1.0252075,0.17596436,-0.171875,-0.578125,0.578125
1696251247633,0.059326172,-0.9175415,0.101257324,-0.390625,-3.609375,-2.390625
1696251247666,-0.021972656,-0.9627075,0.1408081,-9.1875,-1.546875,1.765625
1696251247704,0.045166016,-0.97857666,0.16351318,-0.03125,11.125,-2.453125
1696251247746,0.10107422,-0.99542236,0.15081787,-1.421875,0.609375,0.25
1696251247782,0.072021484,-0.97857666,0.17279053,-3.265625,-3.6875,0.234375
1696251247825,0.025878906,-0.9573364,0.15594482,-1.03125,-5.796875,0.625
1696251247864,0.025634766,-0.9507446,0.18084717,0.28125,-4.140625,1.09375
1696251247906,-0.022216797,-1.0420532,0.09613037,-2.984375,-3.53125,1.96875
1696251247945,0.104003906,-1.0195923,0.15740967,-0.171875,1.765625,-1.6875
1696251247985,0.1628418,-0.96173096,0.06756592,-1.671875,1.765625,-5.96875
1696251248026,0.14770508,-0.9116821,0.16864014,-2.46875,-6.0625,-7.15625
1696251248084,-0.1484375,-0.90509033,0.15789795,-9.484375,-5.71875,0.53125
1696251248102,-0.09448242,-0.9973755,0.1954956,-1.15625,6.109375,4.390625
1696251248143,0.029052734,-1.0698853,0.24627686,-2.96875,8.921875,-0.78125
1696251248207,0.079833984,-0.95684814,0.1852417,-8.65625,7.484375,-4.5625
1696251248222,0.11767578,-0.8657837,0.18597412,5.140625,19.359375,-4.265625
1696251248284,0.13598633,-1.0247192,0.18109131,0.28125,5.453125,-1.09375
1696251248304,0.15600586,-1.048645,0.23577881,-0.078125,1.34375,-0.140625
1696251248347,0.049560547,-0.99713135,0.16790771,2.984375,-2.15625,-0.71875
1696251248386,0.0021972656,-0.9649048,0.14178467,3.15625,-3.765625,-1.546875
1696251248426,-0.02709961,-0.9898071,0.1876831,10.03125,-1.34375,1.625
1696251248487,-0.043701172,-1.0166626,0.13079834,4.734375,-4.453125,1.765625
1696251248503,0.008056641,-0.9380493,0.13616943,4.1875,-1.09375,-1.59375
1696251248565,0.064697266,-0.9158325,0.07269287,9.484375,-7.3125,-0.734375
1696251248604,0.07836914,-0.94122314,-0.085510254,15.890625,-15.328125,2.875
1696251248623,0.12597656,-1.0108032,0.1083374,11.203125,4.5625,13.390625
1696251248664,0.018798828,-1.0252075,0.1954956,-9.6875,-23.671875,10.875
1696251248706,-0.119628906,-1.02594,0.20721436,-6.671875,-4.90625,-1.78125
1696251248744,0.07763672,-0.9524536,0.11810303,-1.484375,15.609375,-0.609375
1696251248786,0.099609375,-0.911438,0.14324951,-1.796875,1.375,3.984375
1696251248848,0.0859375,-1.083313,0.23040771,-9.484375,7.171875,3.71875
1696251248863,0.07373047,-0.99053955,0.093933105,-1.8125,2.15625,-7.703125
1696251248927,0.13720703,-0.90167236,0.12030029,0.40625,0.96875,0.25
1696251248930,0.14990234,-0.9649048,0.16278076,-9.71875,-11.453125,4.03125
1696251248964,-0.009765625,-1.0803833,0.12640381,-12.4375,-21.265625,2.59375
1696251249007,-0.119628906,-1.0342407,0.1954956,-6.59375,-1.484375,1.046875
1696251249044,0.037841797,-0.8989868,0.17596436,-7.203125,6.65625,-3.765625
1696251249087,0.19799805,-0.98272705,0.20379639,-3.234375,12.328125,-3.9375
1696251249126,0.17382812,-0.96588135,0.20794678,-2.640625,3.234375,-2.59375
1696251249164,0.059326172,-0.92266846,0.2333374,-2.265625,-9.875,-0.734375
1696251249203,-0.016601562,-0.9915161,0.19696045,1.4375,-3.484375,4.703125
1696251249244,0.021972656,-0.9859009,0.18597412,2.328125,-1.015625,0.21875
1696251249284,0.078125,-0.9048462,0.25360107,9.015625,4.890625,-1.65625
1696251249322,0.023925781,-0.9673462,0.20135498,9.640625,5.0625,-1.703125
1696251249363,0.020019531,-0.9915161,0.2189331,8.25,4.0,-5.953125
1696251249403,0.01928711,-0.96881104,0.15570068,-0.71875,1.203125,-7.953125
1696251249445,0.011474609,-0.9324341,0.15447998,-6.234375,6.734375,-6.390625
1696251249485,0.049316406,-1.0317993,0.20184326,-4.4375,8.28125,-9.0
1696251249523,0.041748047,-1.079895,0.18914795,-3.15625,4.15625,-7.671875
1696251249563,0.0063476562,-0.99224854,0.16766357,0.28125,1.484375,-3.90625
1696251249604,-0.03881836,-0.9702759,0.16644287,4.796875,-0.859375,-0.640625
1696251249643,0.0029296875,-0.991272,0.12738037,4.171875,-2.671875,-0.296875
1696251249684,0.030029297,-0.94659424,0.0680542,13.890625,-4.21875,-0.484375
1696251249724,0.018798828,-0.99420166,0.003112793,17.765625,-5.234375,6.84375
1696251249765,0.15991211,-0.9429321,0.21673584,2.6875,8.390625,12.78125
1696251249803,-0.04296875,-1.0588989,0.101745605,-2.40625,-14.5625,6.78125
1696251249845,-0.01171875,-0.9246216,0.13323975,-5.234375,-4.09375,-3.4375
1696251249888,0.015136719,-0.9368286,0.09686279,-3.90625,2.203125,0.546875
1696251249926,0.122558594,-0.9356079,0.1239624,0.171875,-0.578125,3.015625
1696251249964,0.030029297,-1.0935669,0.18939209,-3.5625,-2.375,1.46875
1696251250004,-0.017578125,-1.0044556,0.11126709,-3.5625,-6.546875,-9.625
1696251250045,-0.001953125,-0.8887329,0.09710693,-2.578125,1.828125,-4.125
1696251250086,0.032958984,-1.0059204,0.15765381,-6.359375,0.8125,2.21875
1696251250126,0.02368164,-1.0674438,0.20550537,-10.46875,-2.890625,-2.609375
1696251250166,-0.030273438,-1.0056763,0.18377686,-8.03125,-0.03125,-4.28125
1696251250202,-0.036865234,-0.95318604,0.16253662,-12.890625,0.640625,-0.703125
1696251250223,-0.0126953125,-0.9229126,0.15301514,-10.3125,-1.078125,1.21875
1696251250270,0.034179688,-1.0408325,0.2243042,2.015625,4.734375,0.09375
1696251250304,0.029296875,-1.0029907,0.23773193,-1.34375,1.59375,-0.796875
1696251250366,-0.0029296875,-0.92633057,0.1864624,-0.6875,1.6875,0.484375
1696251250383,0.008300781,-0.9529419,0.199646,2.046875,3.953125,0.421875
