,timestamp,accel_x,accel_y,accel_z,gyro_x,gyro_y,gyro_z,ind
0,1696254003174,-0.47558594,-0.12237549,-0.84503174,-0.171875,-0.515625,0.171875,0
1,1696254003214,-0.46899414,-0.1194458,-0.85113525,-0.0625,-0.53125,0.265625,1
2,1696254003254,-0.46875,-0.120666504,-0.84576416,0.21875,-0.78125,0.046875,2
3,1696254003294,-0.47094727,-0.11871338,-0.8418579,0.375,-0.46875,0.25,3
4,1696254003334,-0.47509766,-0.121398926,-0.8562622,-0.109375,-0.5,0.15625,4
5,1696254003374,-0.4716797,-0.116760254,-0.8533325,0.34375,-0.21875,0.15625,5
6,1696254003414,-0.4736328,-0.11846924,-0.84942627,0.171875,-0.53125,0.15625,6
7,1696254003454,-0.47436523,-0.117492676,-0.848938,0.171875,-0.359375,0.09375,7
8,1696254003494,-0.47216797,-0.124572754,-0.85723877,-0.140625,-0.46875,0.34375,8
9,1696254003534,-0.47094727,-0.12335205,-0.84698486,0.015625,-0.3125,0.265625,9
10,1696254003574,-0.47314453,-0.1182251,-0.8411255,0.359375,0.03125,0.140625,10
11,1696254003614,-0.47192383,-0.11846924,-0.84625244,0.34375,-0.015625,0.234375,11
12,1696254003654,-0.46655273,-0.12506104,-0.8442993,0.15625,-0.046875,0.1875,12
13,1696254003694,-0.4645996,-0.12310791,-0.8538208,-0.03125,-0.03125,0.34375,13
14,1696254003734,-0.46655273,-0.12042236,-0.84381104,0.265625,-0.453125,0.109375,14
15,1696254003774,-0.47607422,-0.11920166,-0.8562622,-0.09375,-0.359375,0.203125,15
16,1696254003814,-0.47436523,-0.11798096,-0.8477173,-0.09375,-0.46875,0.1875,16
17,1696254003854,-0.47143555,-0.11920166,-0.8430786,0.265625,-0.359375,0.25,17
18,1696254003894,-0.47509766,-0.113098145,-0.8423462,0.078125,-0.578125,0.21875,18
19,1696254003934,-0.47607422,-0.11773682,-0.847229,0.203125,-0.421875,0.078125,19
20,1696254003974,-0.4790039,-0.11920166,-0.8467407,0.171875,-0.5,0.171875,20
21,1696254004014,-0.47143555,-0.11529541,-0.85162354,0.109375,-0.53125,0.203125,21
22,1696254004054,-0.47216797,-0.11773682,-0.8491821,0.109375,-0.5,0.109375,22
23,1696254004094,-0.46704102,-0.12261963,-0.84747314,-0.03125,-0.734375,0.09375,23
24,1696254004134,-0.46948242,-0.117492676,-0.8460083,0.109375,-0.3125,0.359375,24
25,1696254004174,-0.46777344,-0.10821533,-0.84869385,-0.203125,-0.640625,0.28125,25
26,1696254004214,-0.46850586,-0.11553955,-0.848938,-0.140625,-0.96875,0.171875,26
27,1696254004254,-0.46484375,-0.121154785,-0.85162354,0.140625,-0.6875,0.15625,27
28,1696254004294,-0.4609375,-0.11968994,-0.8435669,0.0,-0.828125,0.15625,28
29,1696254004334,-0.47021484,-0.11578369,-0.8442993,0.015625,-0.765625,0.1875,29
30,1696254004374,-0.47436523,-0.1182251,-0.84991455,0.21875,-0.828125,0.390625,30
31,1696254004414,-0.46484375,-0.116760254,-0.85479736,0.375,-0.78125,0.328125,31
32,1696254004454,-0.46777344,-0.11529541,-0.85601807,0.296875,-0.296875,0.171875,32
33,1696254004494,-0.4658203,-0.117492676,-0.85821533,0.21875,-0.5,0.28125,33
34,1696254004534,-0.4699707,-0.11553955,-0.8479614,0.046875,-0.546875,0.15625,34
35,1696254004574,-0.46899414,-0.11138916,-0.8530884,0.078125,-0.484375,0.15625,35
36,1696254004614,-0.46289062,-0.11773682,-0.84747314,-0.09375,-0.4375,0.28125,36
37,1696254004654,-0.46948242,-0.1194458,-0.84576416,-0.1875,-0.359375,0.25,37
38,1696254004694,-0.46728516,-0.11553955,-0.84869385,-0.078125,-0.328125,0.28125,38
39,1696254004734,-0.4724121,-0.11920166,-0.8460083,0.234375,-0.21875,0.15625,39
40,1696254004774,-0.46923828,-0.11651611,-0.8460083,0.453125,-0.5625,0.109375,40
41,1696254004814,-0.4711914,-0.11456299,-0.8562622,0.265625,-0.5625,0.25,41
42,1696254004854,-0.46801758,-0.11016846,-0.8557739,0.390625,-0.5,0.1875,42
43,1696254004894,-0.46948242,-0.11456299,-0.85821533,0.0625,-0.125,0.171875,43
44,1696254004934,-0.47143555,-0.11846924,-0.85235596,0.28125,-0.109375,0.125,44
45,1696254004974,-0.47436523,-0.11114502,-0.84869385,0.109375,0.171875,0.1875,45
46,1696254005014,-0.4663086,-0.11920166,-0.8533325,-0.171875,-0.140625,0.109375,46
47,1696254005054,-0.47436523,-0.11090088,-0.8460083,-0.203125,0.0625,0.171875,47
48,1696254005094,-0.47485352,-0.1116333,-0.8484497,-0.21875,-0.015625,0.109375,48
49,1696254005134,-0.47485352,-0.11602783,-0.8491821,-0.15625,-0.25,0.328125,49
50,1696254005174,-0.46875,-0.11651611,-0.85113525,-0.1875,-0.40625,0.140625,50
51,1696254005214,-0.47021484,-0.12017822,-0.8479614,-0.28125,-0.453125,0.1875,51
52,1696254005254,-0.46948242,-0.1116333,-0.8484497,-0.234375,-0.375,0.234375,52
53,1696254005294,-0.46484375,-0.11553955,-0.84698486,-0.171875,-0.3125,0.1875,53
54,1696254005334,-0.4724121,-0.11407471,-0.8479614,-0.109375,-0.375,0.125,54
55,1696254005374,-0.47094727,-0.11480713,-0.8557739,-0.09375,-0.234375,0.21875,55
56,1696254005414,-0.47045898,-0.11236572,-0.850647,0.015625,-0.140625,0.078125,56
57,1696254005454,-0.4724121,-0.10992432,-0.8477173,0.125,-0.25,0.109375,57
58,1696254005494,-0.4633789,-0.11187744,-0.83966064,0.0625,-0.46875,0.234375,58
59,1696254005534,-0.47387695,-0.11114502,-0.8411255,0.09375,-0.59375,0.28125,59
60,1696254005574,-0.4243164,-0.11529541,-0.8748169,0.21875,-1.4375,0.1875,131
61,1696254005614,-0.42871094,-0.121154785,-0.87164307,0.46875,-1.078125,0.046875,132
62,1696254005654,-0.42529297,-0.113586426,-0.87164307,0.46875,-1.078125,0.171875,133
63,1696254005694,-0.42626953,-0.120666504,-0.8748169,-0.125,-1.046875,0.078125,134
64,1696254005734,-0.42358398,-0.11773682,-0.8735962,-0.203125,-0.59375,0.203125,135
65,1696254005774,-0.42895508,-0.12701416,-0.8833618,-0.171875,-0.46875,0.125,136
66,1696254005814,-0.41992188,-0.11553955,-0.8701782,-0.203125,-0.34375,0.171875,137
67,1696254005854,-0.42700195,-0.11553955,-0.8792114,-0.21875,-0.21875,0.21875,138
68,1696254005894,-0.42626953,-0.11212158,-0.86968994,0.046875,0.203125,0.140625,139
69,1696254005934,-0.42016602,-0.11578369,-0.8718872,0.03125,0.140625,0.15625,140
70,1696254005974,-0.42700195,-0.12017822,-0.8711548,0.03125,0.15625,0.234375,141
71,1696254006014,-0.42578125,-0.11480713,-0.86553955,-0.046875,-0.09375,0.1875,142
72,1696254006054,-0.43066406,-0.11065674,-0.8621216,-0.28125,-0.609375,0.1875,143
73,1696254006094,-0.43188477,-0.12432861,-0.87042236,-0.390625,-0.984375,0.3125,144
74,1696254006134,-0.4248047,-0.12432861,-0.86968994,0.046875,-0.15625,-0.0625,145
75,1696254006174,-0.4255371,-0.12335205,-0.8652954,0.15625,-0.25,0.046875,146
76,1696254006214,-0.42456055,-0.11260986,-0.86676025,-0.265625,-0.390625,0.171875,147
77,1696254006254,-0.42871094,-0.117492676,-0.8740845,-0.390625,-0.421875,0.265625,148
78,1696254006294,-0.43017578,-0.11846924,-0.88653564,-0.21875,-0.546875,0.28125,149
79,1696254006334,-0.42749023,-0.112854004,-0.87457275,-0.0625,-0.3125,0.140625,150
80,1696254006374,-0.42871094,-0.113342285,-0.8718872,0.046875,-0.1875,0.109375,151
81,1696254006414,-0.4243164,-0.11895752,-0.86065674,0.28125,-0.296875,0.171875,152
82,1696254006454,-0.4309082,-0.11871338,-0.86431885,-0.125,-0.296875,0.125,153
83,1696254006494,-0.43066406,-0.12017822,-0.8701782,0.203125,-0.21875,0.09375,154
84,1696254006534,-0.42651367,-0.120910645,-0.8701782,-0.0625,-0.453125,0.0625,155
85,1696254006574,-0.42993164,-0.11846924,-0.8665161,-0.09375,-0.4375,0.03125,156
86,1696254006614,-0.43237305,-0.11920166,-0.8706665,0.0,-0.375,0.078125,157
87,1696254006654,-0.43066406,-0.11065674,-0.8640747,-0.109375,-0.375,0.109375,158
88,1696254006694,-0.42871094,-0.12213135,-0.8652954,-0.171875,-0.1875,0.125,159
89,1696254006734,-0.42651367,-0.11578369,-0.8731079,-0.15625,-0.171875,0.25,160
90,1696254006774,-0.42895508,-0.11578369,-0.86968994,0.0,-0.40625,0.078125,161
91,1696254006814,-0.42822266,-0.11578369,-0.87164307,-0.03125,-0.234375,0.203125,162
92,1696254006854,-0.43066406,-0.11871338,-0.8689575,-0.140625,-0.375,0.203125,163
93,1696254006894,-0.4345703,-0.12017822,-0.8591919,0.0625,-0.3125,0.078125,164
94,1696254006934,-0.43603516,-0.116760254,-0.8694458,-0.125,-0.3125,0.21875,165
95,1696254006974,-0.42504883,-0.11407471,-0.8574829,0.46875,0.15625,0.3125,166
96,1696254007014,-0.43579102,-0.112854004,-0.8699341,0.46875,-0.109375,0.125,167
97,1696254007054,-0.43652344,-0.11627197,-0.8792114,0.53125,0.109375,0.140625,168
98,1696254007094,-0.43310547,-0.11456299,-0.87335205,0.03125,-0.28125,0.046875,169
99,1696254007134,-0.43920898,-0.12017822,-0.86309814,-0.03125,-0.484375,0.0625,170
100,1696254007174,-0.43139648,-0.11553955,-0.86846924,-0.03125,-0.515625,0.171875,171
101,1696254007214,-0.43725586,-0.11431885,-0.8689575,-0.40625,-0.421875,0.15625,172
102,1696254007254,-0.42895508,-0.113098145,-0.86602783,-0.390625,0.21875,0.21875,173
103,1696254007294,-0.43652344,-0.11114502,-0.86309814,-0.640625,-0.203125,0.15625,174
104,1696254007334,-0.4404297,-0.11456299,-0.87677,-0.4375,0.0625,0.171875,175
105,1696254007374,-0.43676758,-0.11529541,-0.8706665,-0.109375,-0.1875,0.1875,176
106,1696254007414,-0.43359375,-0.117004395,-0.86676025,-0.09375,-0.578125,0.140625,177
107,1696254007454,-0.42797852,-0.113586426,-0.8616333,-0.296875,-0.59375,0.203125,178
108,1696254007494,-0.4333496,-0.120666504,-0.85943604,0.0,-0.34375,0.078125,179
109,1696254007534,-0.43579102,-0.12261963,-0.87335205,-0.0625,-0.515625,0.1875,180
110,1696254007574,-0.42749023,-0.11602783,-0.87384033,-0.109375,-0.53125,0.1875,181
111,1696254007614,-0.43237305,-0.12506104,-0.8657837,0.03125,-0.640625,0.15625,182
112,1696254007654,-0.4362793,-0.11456299,-0.86676025,0.140625,-0.640625,0.15625,183
113,1696254007694,-0.43481445,-0.11846924,-0.8670044,0.171875,-0.34375,0.1875,184
114,1696254007734,-0.43164062,-0.11456299,-0.8657837,0.0,-0.53125,0.109375,185
115,1696254007774,-0.4272461,-0.11798096,-0.8640747,0.015625,-0.34375,0.125,186
116,1696254007814,-0.43676758,-0.112854004,-0.8706665,-0.046875,-0.328125,0.171875,187
117,1696254007854,-0.43554688,-0.11505127,-0.8633423,0.109375,-0.640625,0.0625,188
118,1696254007894,-0.43554688,-0.11773682,-0.8677368,-0.109375,-0.40625,0.21875,189
119,1696254007934,-0.43041992,-0.11456299,-0.8609009,-0.046875,-0.171875,0.15625,190
120,1696254007974,-0.4333496,-0.11456299,-0.86309814,-0.203125,-0.390625,0.3125,191
121,1696254008014,-0.43432617,-0.11602783,-0.86260986,-0.078125,-0.34375,0.21875,192
122,1696254008054,-0.4272461,-0.12042236,-0.8706665,-0.28125,-0.515625,0.328125,193
123,1696254008094,-0.43823242,-0.116760254,-0.8657837,-0.03125,-0.34375,0.109375,194
124,1696254008134,-0.43164062,-0.113342285,-0.8682251,-0.1875,-0.28125,0.125,195
125,1696254008174,-0.4338379,-0.11505127,-0.8652954,-0.03125,-0.296875,0.28125,196
126,1696254008214,-0.4333496,-0.112854004,-0.8748169,0.0625,-0.265625,0.15625,197
127,1696254008254,-0.4321289,-0.11895752,-0.8665161,0.203125,-0.421875,0.1875,198
128,1696254008294,-0.42773438,-0.117492676,-0.8670044,0.234375,-0.21875,0.046875,199
129,1696254008334,-0.43798828,-0.10748291,-0.87384033,0.046875,-0.578125,0.28125,200
130,1696254008374,-0.42871094,-0.113586426,-0.8652954,0.03125,-0.453125,0.046875,201
131,1696254008414,-0.43725586,-0.113098145,-0.8731079,-0.09375,-0.375,0.203125,202
132,1696254008454,-0.4350586,-0.11993408,-0.87213135,-0.125,-0.53125,0.40625,203
133,1696254008494,-0.4338379,-0.108947754,-0.866272,0.03125,-0.484375,0.171875,204
134,1696254008534,-0.43481445,-0.11187744,-0.8591919,0.0,-0.5,0.078125,205
135,1696254008574,-0.43554688,-0.10845947,-0.86602783,-0.1875,-0.40625,0.109375,206
136,1696254008614,-0.43286133,-0.11456299,-0.861145,-0.09375,-0.453125,0.078125,207
137,1696254008654,-0.4345703,-0.11993408,-0.8711548,-0.359375,-0.421875,0.21875,208
138,1696254008694,-0.44580078,-0.117004395,-0.8674927,-0.234375,-0.46875,0.09375,209
139,1696254008734,-0.43017578,-0.12164307,-0.86016846,-0.203125,-0.296875,0.1875,210
140,1696254008774,-0.43554688,-0.113342285,-0.8640747,-0.171875,-0.34375,0.140625,211
141,1696254008814,-0.43530273,-0.11651611,-0.8699341,-0.171875,-0.296875,0.140625,212
142,1696254008854,-0.43408203,-0.11212158,-0.8652954,-0.203125,-0.15625,0.328125,213
143,1696254008894,-0.42773438,-0.11773682,-0.8635864,-0.375,-0.28125,0.234375,214
144,1696254008934,-0.43920898,-0.12213135,-0.8699341,-0.53125,-0.15625,0.265625,215
145,1696254008974,-0.44189453,-0.11895752,-0.8687134,-0.28125,-0.390625,0.3125,216
146,1696254009014,-0.43945312,-0.11920166,-0.8674927,0.09375,-0.25,0.421875,217
147,1696254009054,-0.43310547,-0.11651611,-0.85821533,0.640625,-0.140625,0.21875,218
148,1696254009094,-0.4416504,-0.117248535,-0.87164307,0.171875,-0.390625,0.203125,219
149,1696254009134,-0.43481445,-0.11602783,-0.86431885,-0.03125,-0.25,0.140625,220
150,1696254009174,-0.4333496,-0.11383057,-0.866272,0.0,-0.28125,0.15625,221
151,1696254009214,-0.43603516,-0.113098145,-0.8694458,0.109375,-0.5,0.21875,222
152,1696254009254,-0.4338379,-0.116760254,-0.8726196,-0.125,-0.375,0.15625,223
153,1696254009294,-0.4404297,-0.11383057,-0.862854,-0.453125,-0.328125,0.21875,224
154,1696254009334,-0.43725586,-0.11627197,-0.8623657,-0.640625,-0.40625,0.25,225
155,1696254009374,-0.43481445,-0.11627197,-0.8682251,-0.40625,-0.359375,0.171875,226
156,1696254009414,-0.4387207,-0.11553955,-0.8648071,-0.15625,-0.21875,0.3125,227
157,1696254009454,-0.4375,-0.11895752,-0.8687134,-0.296875,-0.3125,0.21875,228
158,1696254009494,-0.43774414,-0.11968994,-0.86846924,-0.3125,-0.21875,0.140625,229
159,1696254009534,-0.43188477,-0.11993408,-0.8623657,0.015625,-0.140625,0.0,230
160,1696254009574,-0.4333496,-0.124572754,-0.8682251,-0.234375,-0.3125,0.265625,231
161,1696254009614,-0.44433594,-0.12164307,-0.8706665,-0.078125,-0.28125,0.109375,232
162,1696254009654,-0.4375,-0.11871338,-0.8616333,-0.09375,-0.328125,0.140625,233
163,1696254009694,-0.44018555,-0.11602783,-0.86309814,-0.1875,-0.53125,0.28125,234
164,1696254009734,-0.4345703,-0.12017822,-0.8674927,0.0625,-0.46875,0.09375,235
165,1696254009774,-0.43530273,-0.11456299,-0.8682251,-0.125,-0.5,0.171875,236
166,1696254009814,-0.4404297,-0.11383057,-0.86187744,0.0,-0.46875,0.125,237
167,1696254009854,-0.44067383,-0.11871338,-0.87042236,-0.15625,-0.515625,0.203125,238
168,1696254009894,-0.43408203,-0.121398926,-0.86260986,-0.046875,-0.390625,0.15625,239
169,1696254009934,-0.43408203,-0.12042236,-0.864563,-0.203125,-0.390625,0.25,240
170,1696254009974,-0.4399414,-0.11846924,-0.8713989,-0.03125,-0.5625,0.140625,241
171,1696254010014,-0.43408203,-0.11871338,-0.85723877,0.234375,-0.640625,0.171875,242
172,1696254010054,-0.43945312,-0.116760254,-0.8670044,0.046875,-0.65625,0.140625,243
173,1696254010094,-0.43408203,-0.11553955,-0.8665161,-0.3125,-0.5,0.171875,244
174,1696254010134,-0.43603516,-0.11016846,-0.8633423,-0.171875,-0.515625,0.265625,245
175,1696254010174,-0.43652344,-0.12042236,-0.8623657,-0.484375,-0.390625,0.140625,246
176,1696254010214,-0.43823242,-0.11773682,-0.86798096,-0.609375,-0.125,0.21875,247
177,1696254010254,-0.43920898,-0.11920166,-0.8657837,-0.5,-0.421875,0.515625,248
178,1696254010294,-0.4428711,-0.12286377,-0.8670044,-0.09375,-0.34375,0.203125,249
179,1696254010334,-0.42895508,-0.12042236,-0.85723877,-0.0625,-0.4375,0.375,250
180,1696254010374,-0.43896484,-0.12310791,-0.8765259,0.25,-0.21875,0.03125,251
181,1696254010414,-0.43603516,-0.1182251,-0.85723877,1.703125,-0.890625,0.046875,252
182,1696254010454,-0.44311523,-0.11529541,-0.8521118,1.640625,-1.109375,0.015625,253
183,1696254010494,-0.43554688,-0.11260986,-0.86065674,1.703125,-0.96875,0.03125,254
184,1696254010534,-0.44458008,-0.11212158,-0.87701416,0.828125,-0.34375,0.125,255
185,1696254010574,-0.43164062,-0.105285645,-0.86920166,0.546875,-0.109375,0.234375,256
186,1696254010614,-0.43530273,-0.11553955,-0.86724854,-0.75,-0.65625,0.453125,257
187,1696254010654,-0.44018555,-0.11895752,-0.8670044,-0.546875,-0.296875,0.109375,258
188,1696254010694,-0.43286133,-0.11431885,-0.8753052,-0.46875,-0.75,0.265625,259
189,1696254010734,-0.43066406,-0.113586426,-0.8682251,-0.625,-0.796875,0.375,260
190,1696254010774,-0.43701172,-0.113586426,-0.87457275,-0.421875,-0.53125,0.375,261
191,1696254010814,-0.42797852,-0.10821533,-0.85772705,1.03125,-0.34375,0.109375,262
192,1696254010854,-0.4296875,-0.10235596,-0.86676025,0.25,-0.53125,0.21875,263
193,1696254010894,-0.43920898,-0.10650635,-0.8740845,0.0625,-0.65625,0.125,264
194,1696254010934,-0.44750977,-0.11602783,-0.8621216,-0.046875,-0.578125,0.1875,265
195,1696254010974,-0.43481445,-0.11236572,-0.86383057,-0.046875,-0.5625,0.234375,266
196,1696254011014,-0.43554688,-0.112854004,-0.87750244,0.15625,-0.71875,0.0625,267
197,1696254011054,-0.43139648,-0.1104126,-0.8670044,0.40625,-0.515625,0.234375,268
198,1696254011094,-0.43920898,-0.10284424,-0.866272,0.390625,-0.375,0.109375,269
199,1696254011134,-0.42871094,-0.11187744,-0.8621216,0.46875,-0.453125,0.078125,270
200,1696254011174,-0.43481445,-0.10626221,-0.86602783,0.46875,-0.421875,0.125,271
201,1696254011214,-0.4321289,-0.10845947,-0.8674927,-0.15625,-0.40625,0.140625,272
202,1696254011254,-0.43164062,-0.10699463,-0.8748169,-0.109375,-0.390625,0.125,273
203,1696254011294,-0.4333496,-0.11090088,-0.8740845,-0.234375,-0.375,0.0625,274
204,1696254011334,-0.43188477,-0.11212158,-0.87164307,-0.46875,-0.5625,0.390625,275
205,1696254011374,-0.4326172,-0.11138916,-0.8640747,-0.5625,-0.5625,0.28125,276
206,1696254011414,-0.43798828,-0.1116333,-0.86505127,-0.25,-0.421875,0.21875,277
207,1696254011454,-0.43310547,-0.11187744,-0.8609009,0.125,-0.296875,0.0,278
208,1696254011494,-0.4345703,-0.10699463,-0.86553955,0.09375,-0.453125,0.1875,279
209,1696254011534,-0.43579102,-0.10772705,-0.87335205,-0.09375,-0.8125,0.296875,280
210,1696254011574,-0.43066406,-0.11114502,-0.86920166,-0.046875,-0.171875,0.125,281
211,1696254011614,-0.4345703,-0.11260986,-0.8670044,0.0,-0.40625,0.078125,282
212,1696254011654,-0.43896484,-0.10601807,-0.87384033,0.0625,0.03125,0.25,283
213,1696254011694,-0.43408203,-0.105041504,-0.8713989,0.15625,-0.1875,0.15625,284
214,1696254011734,-0.4350586,-0.10845947,-0.8670044,0.15625,-0.296875,0.15625,285
215,1696254011774,-0.4399414,-0.11065674,-0.87091064,0.109375,-0.328125,0.15625,286
216,1696254011814,-0.43481445,-0.109680176,-0.864563,-0.03125,-0.28125,0.15625,287
217,1696254011854,-0.43408203,-0.109191895,-0.8599243,-0.046875,-0.328125,0.25,288
218,1696254011894,-0.43432617,-0.10333252,-0.8604126,0.1875,-0.265625,0.171875,289
219,1696254011934,-0.4399414,-0.105529785,-0.87164307,-0.09375,-0.453125,0.171875,290
220,1696254011974,-0.43408203,-0.10723877,-0.86846924,0.09375,-0.46875,-0.015625,291
221,1696254012014,-0.43798828,-0.109191895,-0.8665161,0.015625,-0.53125,0.140625,292
222,1696254012054,-0.44262695,-0.10723877,-0.8687134,0.265625,-0.359375,0.1875,293
223,1696254012094,-0.43164062,-0.105529785,-0.8755493,-0.34375,-0.640625,0.28125,294
224,1696254012134,-0.4272461,-0.108947754,-0.8633423,0.015625,-0.203125,-0.03125,295
225,1696254012174,-0.43530273,-0.11065674,-0.87091064,-0.015625,-0.34375,0.25,296
226,1696254012214,-0.4362793,-0.10845947,-0.8706665,-0.453125,-0.640625,0.25,297
227,1696254012254,-0.43579102,-0.11431885,-0.86724854,-0.65625,-0.34375,0.28125,298
228,1696254012294,-0.43847656,-0.11065674,-0.8687134,-0.515625,-0.359375,0.296875,299
229,1696254012334,-0.43652344,-0.10601807,-0.8689575,-0.5625,-0.25,0.109375,300
230,1696254012374,-0.43652344,-0.1038208,-0.8701782,-0.203125,-0.09375,0.109375,301
231,1696254012414,-0.43310547,-0.11480713,-0.8689575,-0.6875,-0.25,0.296875,302
232,1696254012454,-0.42822266,-0.11090088,-0.8718872,-0.28125,-0.015625,0.078125,303
233,1696254012494,-0.4399414,-0.10723877,-0.8711548,0.015625,0.015625,0.1875,304
234,1696254012534,-0.4428711,-0.10797119,-0.8648071,-0.71875,0.109375,0.28125,305
235,1696254012574,-0.43603516,-0.11602783,-0.8670044,-1.046875,0.109375,0.296875,306
236,1696254012614,-0.43774414,-0.11480713,-0.8701782,-0.78125,0.015625,0.203125,307
237,1696254012654,-0.44067383,-0.120666504,-0.87213135,-0.125,-0.234375,0.234375,308
238,1696254012694,-0.43847656,-0.11651611,-0.8591919,0.171875,-0.375,0.109375,309
239,1696254012734,-0.4375,-0.11627197,-0.86431885,0.015625,-0.515625,0.0625,310
240,1696254012774,-0.44091797,-0.109436035,-0.8670044,-0.140625,-0.625,0.359375,311
241,1696254012814,-0.43920898,-0.11236572,-0.86798096,0.15625,-0.4375,0.171875,312
242,1696254012854,-0.44555664,-0.11407471,-0.86968994,0.1875,-0.5,0.171875,313
243,1696254012894,-0.44360352,-0.113098145,-0.8694458,-0.234375,-0.640625,0.21875,314
244,1696254012934,-0.43701172,-0.117492676,-0.8796997,-0.28125,-0.8125,0.078125,315
245,1696254012974,-0.44018555,-0.113586426,-0.86505127,-0.1875,-0.765625,0.296875,316
246,1696254013014,-0.43286133,-0.11016846,-0.86431885,-0.046875,-0.734375,0.21875,317
247,1696254013054,-0.4345703,-0.11431885,-0.8635864,-0.390625,-0.75,0.15625,318
248,1696254013094,-0.43798828,-0.1116333,-0.8596802,0.234375,-0.078125,0.125,319
249,1696254013134,-0.4416504,-0.1182251,-0.8687134,0.265625,-0.109375,0.21875,320
250,1696254013174,-0.4404297,-0.113586426,-0.87091064,-0.078125,-0.234375,0.15625,321
251,1696254013214,-0.43774414,-0.11407471,-0.8726196,0.328125,0.078125,0.109375,322
252,1696254013254,-0.43310547,-0.113586426,-0.87164307,-0.21875,-0.171875,0.328125,323
253,1696254013294,-0.43676758,-0.11651611,-0.87335205,-0.5,-0.609375,0.453125,324
254,1696254013334,-0.43286133,-0.11456299,-0.84820557,-0.15625,-0.21875,0.421875,325
255,1696254013374,-0.43798828,-0.113586426,-0.8640747,-0.4375,-0.296875,0.15625,326
256,1696254013414,-0.44335938,-0.112854004,-0.87945557,-0.328125,-0.578125,0.21875,327
257,1696254013454,-0.4338379,-0.116760254,-0.861145,0.5625,-0.4375,0.125,328
258,1696254013494,-0.43481445,-0.11480713,-0.8652954,0.21875,-0.296875,0.125,329
259,1696254013534,-0.44335938,-0.11627197,-0.8748169,-0.4375,-0.734375,0.203125,330
260,1696254013574,-0.43554688,-0.12188721,-0.86505127,-0.046875,-0.640625,0.203125,331
261,1696254013614,-0.43774414,-0.11456299,-0.85943604,0.34375,-0.3125,0.09375,332
262,1696254013654,-0.44213867,-0.120910645,-0.87628174,0.171875,-0.515625,0.0625,333
263,1696254013694,-0.4350586,-0.11138916,-0.8687134,0.265625,-0.640625,0.03125,334
264,1696254013734,-0.4350586,-0.113342285,-0.861145,0.15625,-0.5,0.296875,335
265,1696254013774,-0.43237305,-0.11114502,-0.861145,0.03125,-0.5625,0.171875,336
266,1696254013814,-0.43359375,-0.1104126,-0.85772705,0.015625,-0.640625,0.203125,337
267,1696254013854,-0.4411621,-0.109436035,-0.87091064,0.046875,-0.359375,0.09375,338
268,1696254013894,-0.43652344,-0.113098145,-0.86138916,0.0625,-0.265625,0.171875,339
269,1696254013934,-0.4338379,-0.11090088,-0.8670044,-0.125,-0.1875,0.078125,340
270,1696254013974,-0.43798828,-0.10845947,-0.86187744,-0.15625,-0.265625,0.171875,341
271,1696254014014,-0.43701172,-0.1116333,-0.8694458,-0.28125,-0.453125,0.125,342
272,1696254014054,-0.4411621,-0.11773682,-0.861145,-0.21875,-0.15625,0.03125,343
273,1696254014094,-0.43041992,-0.10870361,-0.86920166,-0.03125,-0.25,0.09375,344
274,1696254014134,-0.4321289,-0.11090088,-0.8591919,-0.375,-0.296875,0.3125,345
275,1696254014174,-0.43701172,-0.11651611,-0.87042236,-0.703125,-0.421875,0.25,346
276,1696254014214,-0.4387207,-0.11383057,-0.8640747,-0.28125,-0.34375,0.171875,347
277,1696254014254,-0.43579102,-0.11456299,-0.8579712,0.078125,-0.078125,0.015625,348
278,1696254014294,-0.4453125,-0.11505127,-0.8713989,-0.859375,-0.484375,0.359375,349
279,1696254014334,-0.43798828,-0.11114502,-0.8706665,-0.484375,-0.265625,0.265625,350
280,1696254014374,-0.44140625,-0.12237549,-0.864563,-0.25,-0.15625,0.21875,351
281,1696254014414,-0.44018555,-0.11212158,-0.8740845,-0.03125,-0.234375,0.203125,352
282,1696254014454,-0.43530273,-0.12384033,-0.86505127,0.265625,-0.265625,0.109375,353
283,1696254014494,-0.44067383,-0.11553955,-0.8621216,0.25,-0.234375,0.21875,354
284,1696254014534,-0.4387207,-0.11651611,-0.8648071,0.328125,-0.234375,0.09375,355
285,1696254014574,-0.44067383,-0.11114502,-0.86724854,0.4375,-0.203125,0.109375,356
286,1696254014614,-0.44335938,-0.113586426,-0.8699341,0.53125,-0.5,0.265625,357
287,1696254014654,-0.4411621,-0.10821533,-0.866272,0.5,-0.40625,0.109375,358
288,1696254014694,-0.4387207,-0.10845947,-0.8670044,0.421875,-0.515625,-0.03125,359
289,1696254014734,-0.44262695,-0.09991455,-0.86846924,0.171875,-0.703125,0.09375,360
290,1696254014774,-0.43701172,-0.11456299,-0.8699341,0.09375,-0.46875,0.109375,361
291,1696254014814,-0.43603516,-0.10650635,-0.86187744,-0.03125,-0.4375,0.078125,362
292,1696254014854,-0.43725586,-0.11236572,-0.86676025,-0.1875,-0.34375,0.203125,363
293,1696254014894,-0.4375,-0.10748291,-0.86505127,-0.34375,-0.3125,0.203125,364
294,1696254014934,-0.43823242,-0.11065674,-0.8735962,-0.15625,-0.265625,0.28125,365
295,1696254014974,-0.4416504,-0.112854004,-0.8623657,0.1875,-0.171875,0.03125,366
296,1696254015014,-0.43945312,-0.11138916,-0.87091064,-0.21875,-0.28125,0.03125,367
297,1696254015054,-0.44067383,-0.1104126,-0.8652954,-0.328125,-0.1875,0.03125,368
298,1696254015094,-0.44140625,-0.10992432,-0.85821533,-0.1875,-0.1875,0.203125,369
299,1696254015134,-0.44458008,-0.109191895,-0.862854,-0.5,-0.140625,0.0625,370
300,1696254015174,-0.44482422,-0.113098145,-0.8706665,-0.78125,-0.09375,0.296875,371
301,1696254015214,-0.44189453,-0.10870361,-0.8670044,-0.3125,-0.21875,0.34375,372
302,1696254015254,-0.44018555,-0.11236572,-0.86187744,-0.21875,-0.3125,0.21875,373
303,1696254015294,-0.43139648,-0.11383057,-0.8689575,-0.109375,-0.34375,0.15625,374
304,1696254015334,-0.44360352,-0.109680176,-0.8635864,-0.28125,-0.46875,0.109375,375
305,1696254015374,-0.44580078,-0.11383057,-0.8677368,-0.328125,-0.328125,0.203125,376
306,1696254015414,-0.44091797,-0.11627197,-0.864563,-0.09375,-0.390625,0.1875,377
307,1696254015454,-0.43432617,-0.11456299,-0.8599243,-0.09375,-0.46875,0.171875,378
308,1696254015494,-0.43896484,-0.117004395,-0.8609009,-0.1875,-0.390625,0.1875,379
309,1696254015534,-0.44384766,-0.113586426,-0.8711548,0.046875,-0.53125,0.203125,380
310,1696254015574,-0.43603516,-0.113586426,-0.87042236,0.203125,-0.484375,0.203125,381
311,1696254015614,-0.4440918,-0.11236572,-0.86431885,0.265625,-0.296875,0.046875,382
312,1696254015654,-0.4416504,-0.113098145,-0.8587036,0.578125,-0.3125,0.203125,383
313,1696254015694,-0.43969727,-0.109191895,-0.8635864,0.625,-0.21875,0.125,384
314,1696254015734,-0.44091797,-0.113586426,-0.8648071,0.640625,-0.203125,0.109375,385
315,1696254015774,-0.44604492,-0.11529541,-0.8689575,0.046875,-0.3125,0.09375,386
316,1696254015814,-0.44360352,-0.10870361,-0.8640747,0.0,-0.40625,0.140625,387
317,1696254015854,-0.44360352,-0.11212158,-0.881897,-0.3125,-0.65625,0.328125,388
318,1696254015894,-0.43920898,-0.10601807,-0.86602783,0.078125,0.09375,0.078125,389
319,1696254015934,-0.44335938,-0.10723877,-0.8657837,-0.34375,0.375,0.1875,390
320,1696254015974,-0.4465332,-0.10748291,-0.864563,-0.953125,0.125,0.328125,391
321,1696254016014,-0.43896484,-0.11480713,-0.85772705,-0.796875,-0.109375,0.25,392
322,1696254016054,-0.44018555,-0.113342285,-0.8530884,-0.625,-0.40625,0.296875,393
323,1696254016094,-0.4411621,-0.117004395,-0.86383057,-0.15625,-0.421875,0.234375,394
324,1696254016134,-0.44921875,-0.11090088,-0.8569946,0.0,-0.1875,0.28125,395
325,1696254016174,-0.45117188,-0.113098145,-0.8743286,0.140625,-0.671875,0.3125,396
326,1696254016214,-0.43798828,-0.11993408,-0.8567505,1.15625,-0.53125,0.015625,397
327,1696254016254,-0.43139648,-0.10797119,-0.85650635,0.625,-0.5625,0.03125,398
328,1696254016294,-0.44873047,-0.1116333,-0.86846924,0.25,-0.890625,0.109375,399
329,1696254016334,-0.43798828,-0.10797119,-0.86187744,0.015625,-0.578125,0.03125,400
330,1696254016374,-0.44799805,-0.10870361,-0.8701782,-0.078125,-0.84375,-0.03125,401
331,1696254016414,-0.4489746,-0.112854004,-0.8694458,-0.078125,-0.71875,0.203125,402
332,1696254016454,-0.44262695,-0.1104126,-0.8567505,-0.15625,-0.421875,0.15625,403
333,1696254016494,-0.43945312,-0.10870361,-0.85821533,0.0,-0.6875,0.28125,404
334,1696254016534,-0.4399414,-0.11480713,-0.86065674,0.28125,-0.765625,0.140625,405
335,1696254016574,-0.44555664,-0.105773926,-0.87213135,0.234375,-0.8125,0.0625,406
336,1696254016614,-0.4416504,-0.10479736,-0.86309814,-0.015625,-0.546875,0.109375,407
337,1696254016654,-0.44628906,-0.11236572,-0.8670044,-0.390625,-0.609375,0.203125,408
338,1696254016694,-0.44580078,-0.109436035,-0.8711548,0.140625,-0.375,0.1875,409
339,1696254016734,-0.43920898,-0.10723877,-0.8621216,0.109375,-0.21875,0.1875,410
340,1696254016774,-0.4399414,-0.11090088,-0.86383057,-0.015625,-0.375,0.09375,411
341,1696254016814,-0.4411621,-0.109191895,-0.8587036,-0.03125,-0.15625,0.265625,412
342,1696254016854,-0.4428711,-0.09625244,-0.86724854,0.21875,-0.078125,0.09375,413
343,1696254016894,-0.4362793,-0.10357666,-0.8670044,0.390625,-0.203125,0.265625,414
344,1696254016934,-0.4399414,-0.11212158,-0.8718872,0.25,-0.234375,0.140625,415
345,1696254016974,-0.4440918,-0.1104126,-0.8674927,0.328125,-0.21875,0.109375,416
346,1696254017014,-0.4428711,-0.10479736,-0.8557739,0.0,-0.484375,0.1875,417
347,1696254017054,-0.44018555,-0.09942627,-0.8604126,-0.15625,-0.3125,0.15625,418
348,1696254017094,-0.44091797,-0.10235596,-0.862854,-0.546875,-0.21875,0.1875,419
349,1696254017134,-0.44262695,-0.10479736,-0.8743286,-0.46875,-0.46875,0.21875,420
350,1696254017174,-0.44604492,-0.10406494,-0.87091064,-0.59375,-0.40625,0.171875,421
351,1696254017214,-0.43945312,-0.11138916,-0.8599243,0.171875,-0.234375,0.234375,422
352,1696254017254,-0.4423828,-0.11065674,-0.86309814,-0.34375,-0.5,0.28125,423
353,1696254017294,-0.44360352,-0.112854004,-0.86724854,-0.109375,-0.65625,0.109375,424
354,1696254017334,-0.4423828,-0.1038208,-0.86553955,-0.0625,-0.40625,0.078125,425
355,1696254017374,-0.43530273,-0.108947754,-0.86846924,0.125,-0.609375,0.21875,426
356,1696254017414,-0.43896484,-0.11187744,-0.8689575,0.0625,-0.71875,0.03125,427
357,1696254017454,-0.44262695,-0.10723877,-0.86505127,0.203125,-0.59375,0.25,428
358,1696254017494,-0.4375,-0.10772705,-0.86138916,0.484375,-0.46875,0.0625,429
359,1696254017534,-0.43969727,-0.11090088,-0.8579712,0.21875,-0.546875,0.25,430
360,1696254017574,-0.44213867,-0.105041504,-0.8682251,0.171875,-0.453125,0.15625,431
361,1696254017614,-0.4416504,-0.11114502,-0.86553955,-0.171875,-0.453125,0.234375,432
362,1696254017654,-0.44702148,-0.11114502,-0.8609009,-0.0625,-0.3125,0.078125,433
363,1696254017694,-0.4428711,-0.1026001,-0.86798096,-0.0625,-0.59375,0.296875,434
364,1696254017734,-0.43823242,-0.10992432,-0.86505127,-0.125,-0.4375,0.15625,435
365,1696254017774,-0.43969727,-0.10699463,-0.8623657,-0.140625,-0.296875,0.171875,436
366,1696254017814,-0.43896484,-0.11407471,-0.8616333,-0.171875,-0.40625,0.265625,437
367,1696254017854,-0.44555664,-0.10601807,-0.8699341,-0.15625,-0.328125,0.125,438
368,1696254017894,-0.4416504,-0.113342285,-0.8623657,-0.28125,-0.453125,0.09375,439
369,1696254017934,-0.44433594,-0.11090088,-0.8652954,0.078125,-0.40625,0.09375,440
370,1696254017974,-0.44458008,-0.10357666,-0.8604126,0.28125,-0.546875,0.0625,441
371,1696254018014,-0.44213867,-0.109436035,-0.86260986,0.125,-0.40625,0.25,442
372,1696254018054,-0.43530273,-0.09844971,-0.8670044,-0.03125,-0.3125,0.09375,443
373,1696254018094,-0.4440918,-0.10601807,-0.87042236,-0.125,-0.5,0.109375,444
374,1696254018134,-0.44140625,-0.10284424,-0.8687134,0.140625,-0.1875,0.125,445
375,1696254018174,-0.44458008,-0.1038208,-0.8674927,-0.15625,-0.4375,0.171875,446
376,1696254018214,-0.4387207,-0.108947754,-0.86260986,0.015625,-0.453125,0.203125,447
377,1696254018254,-0.4350586,-0.10430908,-0.8609009,0.09375,-0.359375,0.203125,448
378,1696254018294,-0.44189453,-0.10992432,-0.87628174,-0.203125,-0.625,0.234375,449
379,1696254018334,-0.4428711,-0.1104126,-0.864563,-0.125,-0.578125,0.109375,450
380,1696254018374,-0.4387207,-0.10455322,-0.8579712,0.0625,-0.34375,0.0,451
381,1696254018414,-0.4399414,-0.10626221,-0.8713989,-0.25,-0.3125,0.1875,452
382,1696254018454,-0.4453125,-0.10357666,-0.88116455,-0.75,-0.328125,0.1875,453
383,1696254018494,-0.4453125,-0.10870361,-0.8567505,-0.671875,-0.09375,0.28125,454
384,1696254018534,-0.4428711,-0.10650635,-0.85284424,-0.859375,-0.1875,0.234375,455
385,1696254018574,-0.4416504,-0.105529785,-0.8587036,-0.828125,-0.328125,0.25,456
386,1696254018614,-0.4423828,-0.117492676,-0.8753052,-0.96875,-0.5625,0.3125,457
387,1696254018654,-0.43798828,-0.1116333,-0.862854,-0.34375,-0.546875,0.328125,458
388,1696254018694,-0.43920898,-0.1116333,-0.85894775,-0.3125,-0.4375,0.3125,459
389,1696254018734,-0.4465332,-0.11187744,-0.8694458,0.5,-0.75,0.203125,460
390,1696254018774,-0.4321289,-0.11236572,-0.8591919,1.859375,-0.65625,-0.015625,461
391,1696254018814,-0.43530273,-0.105529785,-0.85723877,0.984375,-0.828125,0.109375,462
392,1696254018854,-0.4404297,-0.10650635,-0.87091064,-0.015625,-0.9375,0.28125,463
393,1696254018894,-0.44213867,-0.11431885,-0.85723877,-0.3125,-0.53125,0.125,464
394,1696254018934,-0.44555664,-0.10357666,-0.86309814,-0.234375,-0.46875,0.109375,465
395,1696254018974,-0.4440918,-0.11236572,-0.8772583,-0.265625,-0.71875,0.15625,466
396,1696254019014,-0.44140625,-0.11431885,-0.8682251,-0.03125,-0.578125,0.28125,467
397,1696254019054,-0.43725586,-0.10455322,-0.87042236,0.125,-0.15625,0.109375,468
398,1696254019094,-0.4428711,-0.10870361,-0.8682251,0.234375,-0.53125,0.265625,469
399,1696254019134,-0.43920898,-0.10845947,-0.86187744,0.125,-0.421875,0.09375,470
400,1696254019174,-0.4404297,-0.1038208,-0.87335205,0.140625,-0.375,0.25,471
401,1696254019214,-0.43554688,-0.109680176,-0.87335205,-0.109375,-0.359375,0.359375,472
402,1696254019254,-0.43823242,-0.10479736,-0.8609009,0.171875,-0.34375,0.109375,473
403,1696254019294,-0.44360352,-0.1038208,-0.86798096,0.015625,-0.59375,0.046875,474
404,1696254019334,-0.4411621,-0.105773926,-0.864563,-0.09375,-0.5,0.125,475
405,1696254019374,-0.43823242,-0.10455322,-0.86553955,0.046875,-0.65625,0.109375,476
406,1696254019414,-0.43969727,-0.11138916,-0.8743286,-0.15625,-0.25,0.28125,477
407,1696254019454,-0.43725586,-0.10479736,-0.8657837,-0.25,-0.25,0.25,478
408,1696254019494,-0.43847656,-0.10479736,-0.8689575,-0.015625,-0.484375,0.1875,479
409,1696254019534,-0.44458008,-0.11065674,-0.8652954,0.03125,-0.5,0.140625,480
410,1696254019574,-0.43774414,-0.10357666,-0.8674927,-0.078125,-0.4375,0.265625,481
411,1696254019614,-0.43847656,-0.10748291,-0.8635864,-0.03125,-0.46875,0.125,482
412,1696254019654,-0.43701172,-0.10699463,-0.8621216,-0.125,-0.375,0.234375,483
413,1696254019694,-0.43798828,-0.10797119,-0.8699341,0.015625,-0.5,0.078125,484
414,1696254019734,-0.43676758,-0.113098145,-0.8616333,-0.078125,-0.375,0.03125,485
415,1696254019774,-0.43603516,-0.10601807,-0.8621216,0.015625,-0.25,0.109375,486
416,1696254019814,-0.44335938,-0.10455322,-0.87164307,-0.140625,-0.390625,0.171875,487
417,1696254019854,-0.44311523,-0.108947754,-0.86505127,0.109375,-0.140625,0.078125,488
418,1696254019894,-0.44433594,-0.09967041,-0.8657837,-0.03125,-0.34375,0.1875,489
419,1696254019934,-0.4338379,-0.10748291,-0.86505127,-0.140625,-0.46875,0.25,490
420,1696254019974,-0.44067383,-0.11016846,-0.86724854,0.1875,-0.453125,0.265625,491
421,1696254020014,-0.43554688,-0.11065674,-0.8648071,-0.046875,-0.53125,0.171875,492
422,1696254020054,-0.4440918,-0.10723877,-0.8670044,-0.03125,-0.34375,-0.015625,493
423,1696254020094,-0.4411621,-0.10601807,-0.8635864,-0.171875,-0.4375,0.21875,494
424,1696254020134,-0.43896484,-0.11212158,-0.862854,-0.09375,-0.265625,0.0625,495
425,1696254020174,-0.4440918,-0.105773926,-0.86065674,-0.171875,-0.375,0.203125,496
426,1696254020214,-0.43286133,-0.105529785,-0.866272,-0.546875,-0.5,0.21875,497
427,1696254020254,-0.43798828,-0.101379395,-0.8579712,-0.0625,-0.5625,0.078125,498
428,1696254020294,-0.44384766,-0.1038208,-0.87823486,-0.234375,-0.546875,0.09375,499
429,1696254020334,-0.4326172,-0.10406494,-0.861145,0.03125,-0.359375,0.234375,500
430,1696254020374,-0.43603516,-0.10601807,-0.8591919,-0.15625,-0.40625,0.203125,501
431,1696254020414,-0.44335938,-0.109436035,-0.86553955,-0.1875,-0.296875,0.1875,502
432,1696254020454,-0.43969727,-0.11016846,-0.86798096,-0.171875,-0.359375,0.203125,503
433,1696254020494,-0.44067383,-0.10650635,-0.866272,-0.0625,-0.453125,0.0625,504
434,1696254020534,-0.43725586,-0.11627197,-0.86553955,0.28125,-0.34375,0.25,505
435,1696254020574,-0.44384766,-0.10430908,-0.86260986,-0.203125,-0.578125,0.1875,506
436,1696254020614,-0.44091797,-0.1104126,-0.8604126,-0.171875,-0.546875,0.109375,507
437,1696254020654,-0.43725586,-0.10992432,-0.8765259,-0.484375,-0.5625,0.15625,508
438,1696254020694,-0.44384766,-0.11480713,-0.8652954,-0.28125,-0.453125,0.1875,509
439,1696254020734,-0.4399414,-0.11138916,-0.8635864,-0.03125,-0.578125,0.0,510
440,1696254020774,-0.43896484,-0.10797119,-0.86383057,0.078125,-0.375,0.109375,511
441,1696254020814,-0.43701172,-0.112854004,-0.8604126,-0.0625,-0.421875,0.265625,512
442,1696254020854,-0.43725586,-0.105529785,-0.8616333,-0.140625,-0.578125,0.21875,513
443,1696254020894,-0.4362793,-0.10333252,-0.86309814,0.0,-0.296875,0.125,514
444,1696254020934,-0.4423828,-0.10040283,-0.86138916,-0.1875,-0.125,0.234375,515
445,1696254020974,-0.43701172,-0.10699463,-0.8677368,0.125,-0.046875,0.09375,516
446,1696254021014,-0.44311523,-0.10748291,-0.8599243,-0.15625,0.0625,0.078125,517
447,1696254021054,-0.43945312,-0.11431885,-0.8687134,-0.21875,-0.5625,0.203125,518
448,1696254021094,-0.43286133,-0.10626221,-0.8609009,-0.234375,-0.109375,0.34375,519
449,1696254021134,-0.4428711,-0.10675049,-0.87213135,-1.3125,-0.609375,0.171875,520
450,1696254021174,-0.4428711,-0.10845947,-0.8665161,-1.78125,-0.578125,0.421875,521
451,1696254021214,-0.43554688,-0.11236572,-0.8567505,-1.0,-0.140625,0.296875,522
452,1696254021254,-0.44384766,-0.11529541,-0.8623657,-0.765625,-0.40625,0.3125,523
453,1696254021294,-0.43603516,-0.11871338,-0.88067627,-0.09375,-0.421875,0.15625,524
454,1696254021334,-0.4399414,-0.12261963,-0.86602783,1.03125,-0.390625,0.015625,525
455,1696254021374,-0.43652344,-0.11553955,-0.8513794,0.671875,-0.453125,-0.03125,526
456,1696254021414,-0.4416504,-0.11260986,-0.86968994,0.0625,-1.140625,0.0,527
457,1696254021454,-0.44384766,-0.105529785,-0.86505127,-0.140625,-0.8125,0.203125,528
458,1696254021494,-0.44482422,-0.10992432,-0.8591919,0.40625,-0.3125,0.0625,529
459,1696254021534,-0.44091797,-0.11602783,-0.8713989,0.140625,-1.078125,0.296875,530
460,1696254021574,-0.44213867,-0.11236572,-0.8694458,0.171875,-0.953125,0.203125,531
461,1696254021614,-0.4345703,-0.1104126,-0.8640747,0.34375,-0.6875,0.15625,532
462,1696254021654,-0.4350586,-0.11260986,-0.862854,0.328125,-0.6875,0.015625,533
463,1696254021694,-0.43579102,-0.10992432,-0.86602783,0.234375,-0.6875,0.15625,534
464,1696254021734,-0.42749023,-0.11016846,-0.8699341,-0.046875,-0.5,0.234375,535
465,1696254021774,-0.4326172,-0.10675049,-0.8731079,-0.078125,-0.328125,0.171875,536
466,1696254021814,-0.44262695,-0.11236572,-0.8735962,-0.296875,-0.28125,0.265625,537
467,1696254021854,-0.4345703,-0.113586426,-0.8670044,-0.03125,-0.265625,0.359375,538
468,1696254021894,-0.4404297,-0.10992432,-0.8609009,0.0625,-0.46875,0.0625,539
469,1696254021934,-0.43237305,-0.10748291,-0.8713989,-0.09375,-0.671875,0.078125,540
470,1696254021974,-0.43432617,-0.108947754,-0.8550415,0.25,-0.59375,-0.0625,541
471,1696254022014,-0.4416504,-0.109680176,-0.86383057,0.375,-0.53125,0.0,542
472,1696254022054,-0.43041992,-0.11798096,-0.86676025,0.109375,-0.734375,-0.046875,543
473,1696254022094,-0.43823242,-0.11065674,-0.86260986,0.125,-0.96875,0.015625,544
474,1696254022134,-0.43701172,-0.101623535,-0.8699341,0.453125,-0.953125,0.078125,545
475,1696254022174,-0.43310547,-0.10870361,-0.87213135,0.453125,-0.6875,0.078125,546
476,1696254022214,-0.43603516,-0.11431885,-0.8657837,0.5625,-0.359375,0.171875,547
477,1696254022254,-0.42993164,-0.105285645,-0.87042236,0.25,-0.53125,0.21875,548
478,1696254022294,-0.43579102,-0.1116333,-0.86602783,0.171875,-0.078125,0.0625,549
479,1696254022334,-0.43530273,-0.10723877,-0.86968994,0.0,0.015625,-0.015625,550
480,1696254022374,-0.4399414,-0.10333252,-0.8723755,-0.296875,-0.3125,0.15625,551
481,1696254022414,-0.4416504,-0.10040283,-0.8701782,-0.15625,-0.203125,0.234375,552
482,1696254022454,-0.43798828,-0.10455322,-0.866272,0.03125,-0.3125,0.21875,553
483,1696254022494,-0.43554688,-0.10723877,-0.86676025,0.109375,-0.4375,0.171875,554
484,1696254022534,-0.43139648,-0.1026001,-0.8635864,0.109375,-0.453125,0.0625,555
485,1696254022574,-0.4375,-0.10797119,-0.8689575,0.03125,-0.4375,0.28125,556
486,1696254022614,-0.43310547,-0.10333252,-0.86553955,-0.03125,-0.484375,0.125,557
487,1696254022654,-0.43896484,-0.113342285,-0.8713989,-0.0625,-0.609375,0.21875,558
488,1696254022694,-0.43408203,-0.105773926,-0.864563,-0.265625,-0.625,0.140625,559
489,1696254022734,-0.43701172,-0.10479736,-0.87628174,-0.109375,-0.09375,0.1875,560
490,1696254022774,-0.4338379,-0.105041504,-0.8718872,-0.671875,-0.25,0.171875,561
491,1696254022814,-0.43676758,-0.09918213,-0.8635864,-0.765625,-0.234375,0.171875,562
492,1696254022854,-0.4375,-0.10333252,-0.8657837,-1.171875,-0.453125,0.296875,563
493,1696254022894,-0.43481445,-0.105773926,-0.8569946,-0.875,-0.203125,0.28125,564
494,1696254022934,-0.4399414,-0.11505127,-0.8682251,-1.046875,-0.65625,0.28125,565
495,1696254022974,-0.44458008,-0.10748291,-0.87286377,-0.078125,-0.3125,0.09375,566
496,1696254023014,-0.44311523,-0.109191895,-0.87457275,0.3125,-0.59375,0.078125,567
497,1696254023054,-0.4404297,-0.109191895,-0.86065674,0.046875,-0.8125,0.375,568
498,1696254023094,-0.43823242,-0.112854004,-0.864563,0.28125,-0.78125,0.078125,569
499,1696254023134,-0.43530273,-0.1116333,-0.86138916,0.328125,-0.4375,0.078125,570
500,1696254023174,-0.44018555,-0.11138916,-0.8674927,0.1875,-0.890625,0.25,571
501,1696254023214,-0.43432617,-0.108947754,-0.8670044,0.078125,-0.84375,0.15625,572
502,1696254023254,-0.43798828,-0.11407471,-0.8687134,0.078125,-0.453125,0.15625,573
503,1696254023294,-0.43676758,-0.11138916,-0.8670044,-0.03125,-0.484375,0.078125,574
504,1696254023334,-0.42797852,-0.10821533,-0.8687134,-0.15625,-0.421875,0.171875,575
505,1696254023374,-0.43676758,-0.10870361,-0.8699341,0.03125,-0.546875,0.109375,576
506,1696254023414,-0.43725586,-0.116760254,-0.86968994,0.015625,-0.25,0.09375,577
507,1696254023454,-0.42919922,-0.10699463,-0.86846924,-0.1875,-0.375,0.140625,578
508,1696254023494,-0.43920898,-0.1038208,-0.8687134,-0.390625,-0.5,0.34375,579
509,1696254023534,-0.43115234,-0.11065674,-0.8674927,-0.28125,-0.40625,0.296875,580
510,1696254023574,-0.4399414,-0.113586426,-0.8616333,-0.09375,-0.40625,0.21875,581
511,1696254023614,-0.43286133,-0.10650635,-0.86968994,-0.078125,-0.453125,0.15625,582
512,1696254023654,-0.43188477,-0.11016846,-0.8706665,-0.15625,-0.234375,0.09375,583
513,1696254023694,-0.43823242,-0.10723877,-0.8713989,-0.125,-0.375,0.03125,584
514,1696254023734,-0.43164062,-0.108947754,-0.8687134,-0.3125,-0.4375,0.15625,585
515,1696254023774,-0.43725586,-0.113098145,-0.86602783,0.03125,-0.296875,0.1875,586
516,1696254023814,-0.43310547,-0.11578369,-0.86431885,0.34375,-0.453125,0.171875,587
517,1696254023854,-0.43945312,-0.1104126,-0.86602783,0.109375,-0.1875,0.015625,588
518,1696254023894,-0.4428711,-0.109680176,-0.8723755,-0.34375,-0.171875,0.3125,589
519,1696254023934,-0.43945312,-0.109680176,-0.8545532,-0.109375,-0.28125,0.21875,590
520,1696254023974,-0.43530273,-0.11431885,-0.8621216,-0.125,-0.34375,0.171875,591
521,1696254024014,-0.44311523,-0.10601807,-0.87042236,-0.203125,-0.640625,0.109375,592
522,1696254024054,-0.4333496,-0.10015869,-0.8652954,-0.484375,-0.609375,0.1875,593
523,1696254024094,-0.43823242,-0.11456299,-0.86846924,-0.4375,-0.75,0.171875,594
524,1696254024134,-0.43603516,-0.10650635,-0.8640747,-0.375,-0.765625,0.296875,595
525,1696254024174,-0.43481445,-0.10870361,-0.86846924,-0.390625,-0.484375,0.15625,596
526,1696254024214,-0.4399414,-0.121154785,-0.8652954,-0.765625,-0.484375,0.21875,597
527,1696254024254,-0.43969727,-0.11260986,-0.87628174,-0.921875,-0.53125,0.078125,598
528,1696254024294,-0.4321289,-0.11480713,-0.8670044,-0.5625,-0.4375,0.15625,599
529,1696254024334,-0.4338379,-0.11187744,-0.8701782,-0.421875,-0.21875,0.15625,600
530,1696254024374,-0.43481445,-0.11505127,-0.8670044,-0.15625,-0.078125,0.171875,601
531,1696254024414,-0.43725586,-0.11651611,-0.86846924,-0.34375,-0.453125,0.15625,602
532,1696254024454,-0.4296875,-0.11480713,-0.8657837,-0.3125,-0.390625,0.265625,603
533,1696254024494,-0.43945312,-0.116760254,-0.8623657,-0.515625,-0.21875,0.25,604
534,1696254024534,-0.43017578,-0.11895752,-0.85772705,-0.765625,-0.640625,0.390625,605
535,1696254024574,-0.44067383,-0.117004395,-0.86187744,-0.265625,-0.265625,0.21875,606
536,1696254024614,-0.43432617,-0.11529541,-0.85357666,0.171875,-0.21875,0.203125,607
537,1696254024654,-0.43774414,-0.11505127,-0.87213135,0.46875,-0.140625,0.09375,608
538,1696254024694,-0.4326172,-0.11627197,-0.8723755,0.328125,-0.046875,0.09375,609
539,1696254024734,-0.43823242,-0.11798096,-0.85772705,0.203125,-0.046875,0.0625,610
540,1696254024774,-0.43139648,-0.116760254,-0.87091064,-0.078125,-0.09375,0.15625,611
541,1696254024814,-0.43920898,-0.11383057,-0.8706665,-0.328125,-0.234375,0.3125,612
542,1696254024854,-0.4423828,-0.11505127,-0.8640747,-0.265625,-0.34375,0.265625,613
543,1696254024894,-0.44311523,-0.113342285,-0.8682251,-0.390625,-0.375,0.1875,614
544,1696254024934,-0.44384766,-0.117492676,-0.8599243,0.21875,-0.3125,0.140625,615
545,1696254024974,-0.4375,-0.1194458,-0.8699341,0.046875,-0.546875,0.1875,616
546,1696254025014,-0.43774414,-0.11187744,-0.86920166,0.234375,-0.578125,0.171875,617
547,1696254025054,-0.4375,-0.11651611,-0.864563,0.015625,-0.515625,0.21875,618
548,1696254025094,-0.44140625,-0.10723877,-0.86724854,0.015625,-0.359375,0.125,619
549,1696254025134,-0.43188477,-0.11920166,-0.87164307,-0.21875,-0.484375,0.171875,620
550,1696254025174,-0.43969727,-0.12188721,-0.86920166,-0.546875,-0.28125,0.234375,621
551,1696254025214,-0.44091797,-0.11773682,-0.8623657,-0.421875,-0.296875,0.1875,622
552,1696254025254,-0.43652344,-0.117248535,-0.861145,-0.65625,-0.421875,0.1875,623
553,1696254025294,-0.43920898,-0.109191895,-0.87091064,-0.421875,-0.46875,0.09375,624
554,1696254025334,-0.44189453,-0.11846924,-0.86260986,-0.1875,-0.4375,0.265625,625
555,1696254025374,-0.4423828,-0.120666504,-0.8674927,0.0625,-0.390625,0.078125,626
556,1696254025414,-0.43969727,-0.11627197,-0.8640747,-0.3125,-0.40625,0.21875,627
557,1696254025454,-0.4416504,-0.1116333,-0.86187744,-0.0625,-0.296875,0.296875,628
558,1696254025494,-0.4362793,-0.113342285,-0.8701782,-0.53125,-0.578125,0.40625,629
559,1696254025534,-0.4345703,-0.121154785,-0.861145,-0.515625,-0.578125,0.15625,630
560,1696254025574,-0.43945312,-0.11627197,-0.8706665,-0.609375,-0.578125,0.265625,631
561,1696254025614,-0.44580078,-0.11871338,-0.8670044,-0.109375,-0.34375,0.0625,632
562,1696254025654,-0.4399414,-0.117004395,-0.862854,0.234375,-0.4375,0.015625,633
563,1696254025694,-0.43652344,-0.12042236,-0.8677368,0.078125,-0.4375,0.046875,634
564,1696254025734,-0.44018555,-0.12042236,-0.85894775,0.0,-0.6875,0.28125,635
565,1696254025774,-0.44360352,-0.1194458,-0.86846924,-0.234375,-0.625,0.09375,636
566,1696254025814,-0.44311523,-0.11993408,-0.8670044,0.0625,-0.625,0.25,637
567,1696254025854,-0.43652344,-0.11529541,-0.8574829,-0.40625,-0.6875,0.1875,638
568,1696254025894,-0.43945312,-0.117492676,-0.8657837,0.03125,-0.1875,0.125,639
569,1696254025934,-0.43432617,-0.121154785,-0.85723877,0.28125,-0.390625,0.03125,640
570,1696254025974,-0.4362793,-0.12213135,-0.8616333,0.78125,-0.484375,0.078125,641
571,1696254026014,-0.43798828,-0.11846924,-0.86968994,1.515625,-0.296875,0.03125,642
572,1696254026054,-0.43798828,-0.11871338,-0.8701782,1.359375,-0.484375,-0.078125,643
573,1696254026094,-0.43530273,-0.10723877,-0.8731079,1.21875,-0.3125,-0.015625,644
574,1696254026134,-0.43798828,-0.11505127,-0.86187744,0.578125,-0.1875,0.125,645
575,1696254026174,-0.43969727,-0.1104126,-0.8711548,-0.1875,-0.171875,0.296875,646
576,1696254026214,-0.43188477,-0.113586426,-0.8623657,-0.328125,-0.390625,0.3125,647
577,1696254026254,-0.43945312,-0.11383057,-0.8574829,0.140625,-0.359375,0.078125,648
578,1696254026294,-0.4387207,-0.11431885,-0.8635864,-0.171875,-0.4375,0.125,649
579,1696254026334,-0.4345703,-0.109680176,-0.8711548,-0.3125,-0.46875,0.109375,650
580,1696254026374,-0.43164062,-0.11773682,-0.8587036,-0.03125,-0.734375,0.125,651
581,1696254026414,-0.43481445,-0.11651611,-0.8665161,-0.203125,-0.765625,0.078125,652
582,1696254026454,-0.44213867,-0.11383057,-0.8674927,0.453125,-0.640625,0.15625,653
583,1696254026494,-0.43554688,-0.10870361,-0.8713989,0.484375,-0.6875,0.0625,654
584,1696254026534,-0.43530273,-0.11260986,-0.866272,0.484375,-0.671875,-0.046875,655
585,1696254026574,-0.42993164,-0.1116333,-0.8701782,0.234375,-0.5,0.125,656
586,1696254026614,-0.42993164,-0.109680176,-0.86383057,-0.125,-0.46875,0.0625,657
587,1696254026654,-0.42919922,-0.11138916,-0.86309814,0.0,-0.359375,0.125,658
588,1696254026694,-0.4375,-0.10748291,-0.8731079,0.171875,-0.28125,0.15625,659
589,1696254026734,-0.4453125,-0.10870361,-0.8753052,0.1875,-0.265625,0.21875,660
590,1696254026774,-0.43554688,-0.10748291,-0.86846924,-0.078125,-0.5625,0.25,661
591,1696254026814,-0.4404297,-0.105773926,-0.86431885,-0.03125,-0.359375,0.03125,662
592,1696254026854,-0.43945312,-0.10430908,-0.8640747,-0.109375,-0.375,0.125,663
593,1696254026894,-0.43579102,-0.11480713,-0.8609009,-0.234375,-0.640625,0.09375,664
594,1696254026934,-0.4321289,-0.10601807,-0.86676025,-0.15625,-0.734375,0.140625,665
595,1696254026974,-0.44140625,-0.11114502,-0.8670044,-0.046875,-0.234375,0.203125,666
596,1696254027014,-0.43920898,-0.10699463,-0.86505127,-0.15625,-0.53125,0.09375,667
597,1696254027054,-0.43286133,-0.10821533,-0.8616333,0.0,-0.3125,0.140625,668
598,1696254027094,-0.43969727,-0.11016846,-0.8640747,-0.03125,-0.328125,0.1875,669
599,1696254027134,-0.43725586,-0.10992432,-0.8677368,0.1875,-0.46875,0.1875,670
600,1696254027174,-0.42993164,-0.10992432,-0.86505127,0.125,-0.296875,0.109375,671
601,1696254027214,-0.43579102,-0.109680176,-0.8713989,0.171875,-0.46875,0.1875,672
602,1696254027254,-0.43310547,-0.109436035,-0.86968994,0.046875,-0.28125,0.125,673
603,1696254027294,-0.4375,-0.10650635,-0.86968994,0.0,-0.5,-0.046875,674
604,1696254027334,-0.43359375,-0.11114502,-0.85943604,-0.03125,-0.421875,0.140625,675
605,1696254027374,-0.43603516,-0.11553955,-0.86602783,0.0,-0.46875,0.140625,676
606,1696254027414,-0.4338379,-0.109436035,-0.8670044,-0.359375,-0.25,0.359375,677
607,1696254027454,-0.43652344,-0.10723877,-0.86920166,-0.8125,-0.578125,0.3125,678
608,1696254027494,-0.43530273,-0.11260986,-0.8633423,-0.90625,-0.71875,0.359375,679
609,1696254027534,-0.43359375,-0.11260986,-0.86553955,-0.171875,-0.3125,0.234375,680
610,1696254027574,-0.4321289,-0.11236572,-0.86260986,0.125,-0.296875,0.078125,681
611,1696254027614,-0.43603516,-0.10284424,-0.862854,-0.046875,-0.328125,0.234375,682
612,1696254027654,-0.43676758,-0.11212158,-0.8591919,-0.171875,-0.421875,0.09375,683
613,1696254027694,-0.43725586,-0.11895752,-0.8731079,-0.03125,-0.5,0.15625,684
614,1696254027734,-0.43725586,-0.10089111,-0.8718872,-0.125,-0.75,0.28125,685
615,1696254027774,-0.43896484,-0.11553955,-0.861145,-0.09375,-0.453125,0.03125,686
616,1696254027814,-0.4350586,-0.11431885,-0.866272,0.015625,-0.5625,0.125,687
617,1696254027854,-0.4309082,-0.109436035,-0.8635864,0.203125,-0.125,0.203125,688
618,1696254027894,-0.43554688,-0.108947754,-0.862854,-0.171875,-0.390625,0.1875,689
619,1696254027934,-0.43701172,-0.10772705,-0.86260986,-0.203125,-0.328125,0.03125,690
620,1696254027974,-0.44018555,-0.10479736,-0.8665161,-0.375,-0.296875,0.1875,691
621,1696254028014,-0.4321289,-0.11456299,-0.8726196,-0.375,-0.234375,0.140625,692
622,1696254028054,-0.43481445,-0.11016846,-0.8699341,-0.265625,-0.3125,0.140625,693
623,1696254028094,-0.4411621,-0.108947754,-0.861145,-0.046875,-0.515625,0.21875,694
624,1696254028134,-0.43408203,-0.108947754,-0.8567505,0.125,-0.25,0.203125,695
625,1696254028174,-0.43481445,-0.11090088,-0.8689575,-0.09375,-0.296875,0.28125,696
626,1696254028214,-0.4321289,-0.10650635,-0.8713989,-0.09375,-0.40625,0.203125,697
627,1696254028254,-0.43554688,-0.11431885,-0.8670044,-0.171875,-0.515625,0.125,698
628,1696254028294,-0.4387207,-0.11065674,-0.86920166,-0.078125,-0.453125,0.171875,699
629,1696254028334,-0.43115234,-0.11529541,-0.86138916,-0.078125,-0.34375,0.203125,700
630,1696254028374,-0.43652344,-0.10797119,-0.861145,-0.09375,-0.390625,0.28125,701
631,1696254028414,-0.43652344,-0.11065674,-0.8670044,-0.046875,-0.546875,0.265625,702
632,1696254028454,-0.4375,-0.10870361,-0.8731079,0.015625,-0.484375,0.09375,703
633,1696254028494,-0.43676758,-0.11138916,-0.8713989,0.3125,-0.296875,0.171875,704
634,1696254028534,-0.43823242,-0.11553955,-0.8711548,-0.0625,-0.546875,0.09375,705
635,1696254028574,-0.43408203,-0.113586426,-0.8657837,0.0625,-0.390625,0.21875,706
636,1696254028614,-0.43652344,-0.11431885,-0.864563,0.234375,-0.40625,0.203125,707
637,1696254028654,-0.43554688,-0.11456299,-0.86968994,-0.1875,-0.375,0.15625,708
638,1696254028694,-0.4411621,-0.113342285,-0.8674927,-0.15625,-0.40625,0.15625,709
639,1696254028734,-0.4375,-0.11138916,-0.8723755,-0.171875,-0.328125,0.203125,710
640,1696254028774,-0.43481445,-0.1104126,-0.8711548,0.0,-0.28125,0.140625,711
641,1696254028814,-0.4321289,-0.11431885,-0.86920166,-0.125,-0.421875,0.078125,712
642,1696254028854,-0.43652344,-0.10870361,-0.8674927,-0.3125,-0.421875,0.140625,713
643,1696254028894,-0.43920898,-0.11553955,-0.8670044,-0.15625,-0.25,0.0625,714
644,1696254028934,-0.43579102,-0.11236572,-0.8677368,-0.375,-0.359375,0.21875,715
645,1696254028974,-0.43481445,-0.11236572,-0.86968994,-0.265625,-0.25,0.171875,716
646,1696254029014,-0.4375,-0.11383057,-0.8682251,-0.296875,-0.328125,0.203125,717
647,1696254029054,-0.43945312,-0.113342285,-0.8760376,-0.328125,-0.28125,0.15625,718
648,1696254029094,-0.43237305,-0.117004395,-0.8648071,-0.171875,-0.328125,0.109375,719
649,1696254029134,-0.44140625,-0.113586426,-0.86065674,-0.40625,-0.390625,0.171875,720
650,1696254029174,-0.43530273,-0.11578369,-0.8652954,-0.46875,-0.453125,0.28125,721
651,1696254029214,-0.4350586,-0.11651611,-0.8701782,-0.1875,-0.234375,0.203125,722
652,1696254029254,-0.43774414,-0.117492676,-0.86676025,-0.078125,-0.359375,0.265625,723
653,1696254029294,-0.43432617,-0.10626221,-0.86138916,0.015625,-0.5,0.109375,724
654,1696254029334,-0.43920898,-0.11431885,-0.8748169,0.0,-0.421875,0.203125,725
655,1696254029374,-0.4345703,-0.11627197,-0.8652954,-0.0625,-0.53125,0.234375,726
656,1696254029414,-0.43847656,-0.10797119,-0.86724854,0.234375,-0.40625,0.109375,727
657,1696254029454,-0.4399414,-0.11114502,-0.86846924,-0.09375,-0.3125,0.1875,728
658,1696254029494,-0.43969727,-0.11187744,-0.8616333,-0.15625,-0.390625,0.1875,729
659,1696254029534,-0.4423828,-0.11187744,-0.86138916,-0.21875,-0.296875,0.0625,730
660,1696254029574,-0.43408203,-0.11187744,-0.862854,-0.1875,-0.328125,0.078125,731
661,1696254029614,-0.43115234,-0.11456299,-0.8670044,-0.421875,-0.4375,0.203125,732
662,1696254029654,-0.43847656,-0.11212158,-0.8621216,-0.578125,-0.234375,0.125,733
663,1696254029694,-0.43945312,-0.11651611,-0.8648071,-0.328125,-0.25,0.15625,734
664,1696254029734,-0.43676758,-0.11602783,-0.8687134,-0.25,-0.234375,0.09375,735
665,1696254029774,-0.44458008,-0.11553955,-0.86676025,-0.1875,-0.4375,0.03125,736
666,1696254029814,-0.43652344,-0.117004395,-0.8648071,0.0,-0.359375,0.25,737
667,1696254029854,-0.43823242,-0.116760254,-0.86920166,-0.0625,-0.484375,0.21875,738
668,1696254029894,-0.43896484,-0.116760254,-0.86920166,-0.140625,-0.34375,0.25,739
669,1696254029934,-0.43945312,-0.11871338,-0.8701782,-0.171875,-0.40625,0.265625,740
670,1696254029974,-0.43896484,-0.1194458,-0.86724854,-0.15625,-0.421875,0.15625,741
671,1696254030014,-0.43945312,-0.113586426,-0.86676025,-0.3125,-0.390625,0.09375,742
672,1696254030054,-0.4416504,-0.11431885,-0.86431885,-0.125,-0.390625,0.09375,743
673,1696254030094,-0.43237305,-0.11407471,-0.8694458,-0.09375,-0.515625,0.15625,744
674,1696254030134,-0.43969727,-0.120910645,-0.86138916,-0.015625,-0.375,0.203125,745
675,1696254030174,-0.44262695,-0.112854004,-0.87164307,-0.015625,-0.53125,0.328125,746
676,1696254030214,-0.44140625,-0.11651611,-0.87213135,0.078125,-0.328125,0.125,747
677,1696254030254,-0.43579102,-0.11480713,-0.8687134,0.0625,-0.390625,0.140625,748
678,1696254030294,-0.43603516,-0.11602783,-0.86505127,-0.0625,-0.359375,0.125,749
679,1696254030334,-0.44262695,-0.11383057,-0.864563,-0.15625,-0.53125,0.09375,750
680,1696254030374,-0.4345703,-0.117248535,-0.86187744,-0.21875,-0.359375,0.21875,751
681,1696254030414,-0.43945312,-0.113098145,-0.86920166,-0.25,-0.328125,0.0625,752
682,1696254030454,-0.44067383,-0.12188721,-0.8689575,-0.1875,-0.390625,0.21875,753
683,1696254030494,-0.43554688,-0.117248535,-0.862854,-0.171875,-0.3125,0.21875,754
684,1696254030534,-0.43530273,-0.12017822,-0.86138916,-0.125,-0.328125,0.234375,755
685,1696254030574,-0.43823242,-0.11798096,-0.8657837,-0.125,-0.34375,0.328125,756
686,1696254030614,-0.43774414,-0.112854004,-0.8609009,-0.125,-0.328125,0.203125,757
687,1696254030654,-0.4404297,-0.11578369,-0.8633423,-0.140625,-0.25,0.125,758
688,1696254030694,-0.43823242,-0.11920166,-0.8687134,-0.109375,-0.484375,0.296875,759
689,1696254030734,-0.43310547,-0.11798096,-0.8635864,-0.390625,-0.296875,0.15625,760
690,1696254030774,-0.4375,-0.11553955,-0.86309814,0.0,-0.390625,0.296875,761
691,1696254030814,-0.44067383,-0.11383057,-0.866272,-0.15625,-0.421875,0.09375,762
692,1696254030854,-0.4345703,-0.11627197,-0.8616333,0.09375,-0.359375,0.203125,763
693,1696254030894,-0.43823242,-0.11578369,-0.862854,0.0,-0.234375,0.03125,764
694,1696254030934,-0.4428711,-0.12017822,-0.86309814,-0.046875,-0.09375,0.140625,765
695,1696254030974,-0.44091797,-0.11993408,-0.8701782,-0.375,-0.328125,0.125,766
696,1696254031014,-0.43725586,-0.11895752,-0.8526001,-0.015625,-0.09375,0.0625,767
697,1696254031054,-0.44091797,-0.116760254,-0.87213135,0.0625,-0.28125,0.15625,768
698,1696254031094,-0.44458008,-0.113586426,-0.85723877,1.484375,-0.078125,0.15625,769
699,1696254031134,-0.43945312,-0.11236572,-0.8640747,1.28125,0.0625,0.0625,770
700,1696254031174,-0.4375,-0.10992432,-0.86724854,1.15625,-0.34375,0.171875,771
701,1696254031214,-0.43530273,-0.113586426,-0.86431885,0.859375,-0.078125,0.25,772
702,1696254031254,-0.43725586,-0.10748291,-0.8599243,0.03125,-0.53125,0.09375,773
703,1696254031294,-0.4440918,-0.108947754,-0.87335205,-0.328125,-0.734375,0.28125,774
704,1696254031334,-0.43603516,-0.11407471,-0.86260986,-0.4375,-0.453125,0.109375,775
705,1696254031374,-0.44140625,-0.10821533,-0.8648071,-0.265625,-0.671875,0.171875,776
706,1696254031414,-0.43798828,-0.11090088,-0.8706665,-0.359375,-0.40625,0.09375,777
707,1696254031454,-0.4465332,-0.113586426,-0.87701416,0.015625,-0.734375,0.203125,778
708,1696254031494,-0.44458008,-0.11212158,-0.864563,0.3125,-0.53125,0.171875,779
709,1696254031534,-0.43774414,-0.10748291,-0.8635864,0.5,-0.390625,0.078125,780
710,1696254031574,-0.4404297,-0.11138916,-0.8635864,0.375,-0.375,0.0,781
711,1696254031614,-0.43896484,-0.113586426,-0.8604126,0.1875,-0.546875,0.21875,782
712,1696254031654,-0.44213867,-0.101623535,-0.86187744,-0.03125,-0.46875,0.109375,783
713,1696254031694,-0.43579102,-0.108947754,-0.86798096,0.046875,-0.4375,0.046875,784
714,1696254031734,-0.43164062,-0.108947754,-0.8682251,-0.015625,-0.25,0.109375,785
715,1696254031774,-0.44628906,-0.10797119,-0.87091064,-0.203125,-0.46875,0.15625,786
716,1696254031814,-0.44091797,-0.11065674,-0.861145,0.109375,-0.421875,0.1875,787
717,1696254031854,-0.4375,-0.10723877,-0.85821533,0.078125,-0.40625,0.1875,788
718,1696254031894,-0.4345703,-0.10870361,-0.86260986,-0.109375,-0.546875,0.234375,789
719,1696254031934,-0.44067383,-0.10845947,-0.86724854,-0.078125,-0.375,0.21875,790
720,1696254031974,-0.44360352,-0.113586426,-0.86553955,-0.015625,-0.34375,-0.046875,791
721,1696254032014,-0.44189453,-0.1116333,-0.8674927,-0.265625,-0.34375,0.25,792
722,1696254032054,-0.4440918,-0.10626221,-0.85821533,-0.109375,-0.296875,0.1875,793
723,1696254032094,-0.4423828,-0.11236572,-0.86383057,-0.21875,-0.375,0.109375,794
724,1696254032134,-0.44311523,-0.1116333,-0.8670044,-0.3125,-0.40625,0.15625,795
725,1696254032174,-0.44482422,-0.11138916,-0.86920166,-0.34375,-0.421875,0.203125,796
726,1696254032214,-0.4453125,-0.10992432,-0.8677368,-0.140625,-0.484375,0.15625,797
727,1696254032254,-0.43603516,-0.10406494,-0.8604126,0.109375,-0.546875,0.0625,798
728,1696254032294,-0.4345703,-0.10675049,-0.8657837,-0.171875,-0.546875,0.328125,799
729,1696254032334,-0.44189453,-0.11212158,-0.86846924,-0.015625,-0.484375,0.1875,800
730,1696254032374,-0.4416504,-0.10821533,-0.86505127,-0.125,-0.3125,0.09375,801
731,1696254032414,-0.4362793,-0.108947754,-0.8550415,-0.140625,-0.390625,0.1875,802
732,1696254032454,-0.43823242,-0.10211182,-0.86260986,0.015625,-0.5,0.21875,803
733,1696254032494,-0.43774414,-0.1116333,-0.8665161,-0.1875,-0.5,0.234375,804
734,1696254032534,-0.44067383,-0.109191895,-0.86553955,0.0,-0.546875,0.296875,805
735,1696254032574,-0.44091797,-0.11383057,-0.8701782,-0.46875,-0.625,0.21875,806
736,1696254032614,-0.43945312,-0.1104126,-0.86920166,-0.46875,-0.359375,0.296875,807
737,1696254032654,-0.44189453,-0.1104126,-0.86016846,-0.390625,-0.546875,0.28125,808
738,1696254032694,-0.44384766,-0.1104126,-0.8648071,-0.3125,-0.390625,0.203125,809
739,1696254032734,-0.44140625,-0.11480713,-0.8657837,-0.203125,-0.265625,0.203125,810
740,1696254032774,-0.4411621,-0.11065674,-0.8587036,-0.015625,-0.1875,0.046875,811
741,1696254032814,-0.43579102,-0.10748291,-0.86920166,-0.15625,-0.59375,0.015625,812
742,1696254032854,-0.4411621,-0.11090088,-0.8633423,-0.203125,-0.390625,0.234375,813
743,1696254032894,-0.44335938,-0.109680176,-0.8677368,-0.234375,-0.34375,0.328125,814
744,1696254032934,-0.44140625,-0.11480713,-0.86431885,-0.015625,-0.1875,0.296875,815
745,1696254032974,-0.4440918,-0.116760254,-0.8621216,-0.140625,-0.3125,0.015625,816
746,1696254033014,-0.44482422,-0.11627197,-0.8616333,-0.140625,-0.5625,0.015625,817
747,1696254033054,-0.44458008,-0.11651611,-0.8633423,-0.03125,-0.421875,0.15625,818
748,1696254033094,-0.4411621,-0.11798096,-0.86260986,-0.28125,-0.25,0.28125,819
749,1696254033134,-0.4326172,-0.113098145,-0.86065674,-0.296875,-0.3125,0.09375,820
750,1696254033174,-0.43798828,-0.11187744,-0.8657837,-0.703125,-0.4375,0.171875,821
751,1696254033214,-0.43798828,-0.11480713,-0.8701782,-0.796875,-0.4375,0.125,822
752,1696254033254,-0.44091797,-0.11114502,-0.8562622,-0.046875,-0.328125,0.140625,823
753,1696254033294,-0.43481445,-0.11212158,-0.861145,0.125,-0.34375,0.09375,824
754,1696254033334,-0.43164062,-0.11798096,-0.8657837,0.078125,-0.375,0.125,825
755,1696254033374,-0.43725586,-0.11431885,-0.8623657,0.046875,-0.25,0.15625,826
756,1696254033414,-0.43896484,-0.11529541,-0.8635864,-0.078125,-0.140625,0.171875,827
757,1696254033454,-0.4428711,-0.11505127,-0.8633423,-0.34375,-0.40625,0.140625,828
758,1696254033494,-0.44140625,-0.11529541,-0.8584595,-0.234375,-0.359375,0.09375,829
759,1696254033534,-0.4465332,-0.11407471,-0.87164307,-0.109375,-0.328125,0.28125,830
