# Sensor type: Respeck
# Activity type: Lying down back
# Activity subtype: Talking
# Subject id: s2106809
# Notes: unprocessed
timestamp,accel_x,accel_y,accel_z,gyro_x,gyro_y,gyro_z
1696252164074,-0.59765625,-0.08306885,0.88861084,-0.15625,-1.234375,0.1875
1696252164114,-0.592041,-0.08648682,0.88494873,-0.4375,-0.8125,-0.125
1696252164154,-0.592041,-0.07208252,0.88397217,-0.65625,-1.203125,-0.375
1696252164214,-0.595459,-0.07354736,0.8829956,-1.0,-0.984375,-0.25
1696252164217,-0.6022949,-0.07305908,0.8786011,-1.203125,-1.265625,-0.078125
1696252164254,-0.59716797,-0.07501221,0.8915405,-0.484375,-0.53125,-0.375
1696252164295,-0.59033203,-0.07672119,0.87835693,-0.921875,-1.1875,-0.640625
1696252164335,-0.61376953,-0.07330322,0.888855,-1.609375,-2.515625,-0.0625
1696252164375,-0.59350586,-0.073791504,0.8756714,-1.21875,-0.796875,-0.234375
1696252164414,-0.5888672,-0.06842041,0.87786865,-1.453125,-1.25,-0.578125
1696252164456,-0.6105957,-0.06451416,0.885437,-1.046875,-2.359375,-0.125
1696252164495,-0.5996094,-0.07208252,0.8798218,-0.796875,-0.859375,-0.28125
1696252164535,-0.5925293,-0.058654785,0.8812866,-0.625,-0.71875,-0.5
1696252164575,-0.6064453,-0.06304932,0.87542725,-0.796875,-2.375,-0.296875
1696252164617,-0.6179199,-0.06817627,0.8866577,-0.359375,-0.515625,0.125
1696252164656,-0.6135254,-0.06378174,0.8720093,-1.078125,-0.59375,-0.046875
1696252164695,-0.60131836,-0.04888916,0.8764038,-0.453125,-1.046875,-0.40625
1696252164734,-0.6035156,-0.051086426,0.88616943,0.046875,-0.765625,-0.375
1696252164776,-0.6047363,-0.066711426,0.87786865,-0.359375,-1.078125,-0.15625
1696252164816,-0.60131836,-0.057922363,0.87005615,-1.359375,-1.6875,-0.59375
1696252164858,-0.6196289,-0.05670166,0.8903198,-0.09375,-1.59375,-0.125
1696252164897,-0.6074219,-0.04815674,0.87176514,-1.578125,-1.640625,-0.40625
1696252164936,-0.61376953,-0.047424316,0.8690796,-0.109375,-1.9375,-0.171875
1696252164979,-0.61499023,-0.05596924,0.8632202,-0.5625,-1.890625,-0.171875
1696252165015,-0.6188965,-0.04034424,0.85614014,-0.5,-1.4375,0.09375
1696252165055,-0.6196289,-0.050354004,0.85272217,1.796875,-1.140625,0.5625
1696252165095,-0.61694336,-0.062805176,0.86590576,2.828125,-2.125,1.109375
1696252165135,-0.62402344,-0.06817627,0.87664795,2.03125,-1.71875,0.609375
1696252165176,-0.6203613,-0.062561035,0.87908936,0.671875,-1.484375,0.390625
1696252165215,-0.623291,-0.05645752,0.87908936,-0.390625,-1.34375,0.28125
1696252165254,-0.6245117,-0.061584473,0.85736084,-0.671875,-0.375,0.125
1696252165295,-0.6142578,-0.04498291,0.8612671,-0.734375,-0.28125,0.125
1696252165336,-0.6269531,-0.06402588,0.87005615,0.3125,0.578125,0.984375
1696252165374,-0.62524414,-0.077941895,0.868103,-0.03125,0.5625,1.453125
1696252165416,-0.623291,-0.06011963,0.8668823,-0.5,0.015625,0.078125
1696252165457,-0.6359863,-0.046936035,0.8673706,-0.328125,0.28125,-0.109375
1696252165498,-0.6188965,-0.05670166,0.87371826,-0.671875,0.3125,0.1875
1696252165515,-0.61572266,-0.06695557,0.8617554,-0.09375,0.65625,0.625
1696252165557,-0.6027832,-0.06036377,0.8751831,-0.96875,0.28125,0.109375
1696252165617,-0.6118164,-0.05621338,0.8668823,0.328125,-0.421875,-0.046875
1696252165635,-0.6130371,-0.06378174,0.8744507,-0.125,-0.28125,0.4375
1696252165676,-0.61376953,-0.06549072,0.8810425,-0.078125,-0.375,0.40625
1696252165716,-0.6179199,-0.06085205,0.86834717,-0.3125,-0.5625,0.25
1696252165775,-0.6188965,-0.05670166,0.8619995,0.046875,-0.046875,0.265625
1696252165803,-0.61499023,-0.061340332,0.86712646,0.34375,0.375,0.34375
1696252165836,-0.61694336,-0.05987549,0.86224365,0.828125,0.1875,0.53125
1696252165875,-0.6027832,-0.06451416,0.8786011,0.15625,0.171875,0.1875
1696252165938,-0.6171875,-0.057434082,0.8773804,0.734375,-0.21875,0.40625
1696252165954,-0.6123047,-0.06500244,0.86883545,-0.640625,-1.265625,0.4375
1696252165996,-0.61743164,-0.06524658,0.88153076,-0.5,-0.96875,0.0
1696252166037,-0.6118164,-0.055236816,0.86932373,-0.875,-0.578125,-0.40625
1696252166078,-0.61743164,-0.050842285,0.87005615,-0.203125,-0.625,-0.109375
1696252166117,-0.6201172,-0.06695557,0.8805542,0.921875,1.265625,1.21875
1696252166156,-0.6142578,-0.07159424,0.87908936,-1.015625,0.09375,0.71875
1696252166197,-0.6098633,-0.054260254,0.86346436,-1.578125,-0.796875,-0.546875
1696252166259,-0.6208496,-0.043029785,0.8800659,0.0625,-0.3125,-0.109375
1696252166275,-0.5979004,-0.06402588,0.86517334,0.171875,0.46875,0.359375
1696252166317,-0.6032715,-0.062561035,0.86932373,-0.375,-0.25,0.53125
1696252166355,-0.62158203,-0.05279541,0.8773804,-0.109375,-0.875,0.59375
1696252166396,-0.60961914,-0.06695557,0.8673706,0.40625,-0.3125,0.375
1696252166436,-0.6140137,-0.06329346,0.87371826,-0.03125,-0.21875,0.40625
1696252166477,-0.61157227,-0.058898926,0.8722534,-0.109375,-0.640625,0.265625
1696252166534,-0.60961914,-0.057434082,0.8695679,-0.296875,-0.265625,0.046875
1696252166555,-0.6088867,-0.058898926,0.871521,0.359375,-0.359375,0.484375
1696252166595,-0.61206055,-0.06817627,0.8722534,0.296875,-0.703125,0.515625
1696252166636,-0.6118164,-0.070617676,0.883728,-0.0625,-0.03125,0.25
1696252166675,-0.6074219,-0.04888916,0.868103,0.15625,-0.109375,-0.375
1696252166716,-0.61376953,-0.059631348,0.8829956,2.4375,-2.234375,0.359375
1696252166759,-0.6123047,-0.06793213,0.8720093,-0.28125,-1.71875,0.15625
1696252166837,-0.6086426,-0.05987549,0.8656616,-1.546875,-1.296875,-0.234375
1696252166842,-0.61694336,-0.05206299,0.8668823,0.625,-0.421875,-0.015625
1696252166855,-0.611084,-0.06524658,0.8703003,0.703125,0.40625,0.765625
1696252166895,-0.611084,-0.066711426,0.8720093,-0.140625,0.15625,0.828125
1696252166936,-0.61816406,-0.06500244,0.8751831,-0.53125,-0.015625,0.265625
1696252166976,-0.60375977,-0.058166504,0.86932373,-0.015625,0.109375,0.109375
1696252167018,-0.60424805,-0.0569458,0.8739624,0.21875,0.109375,0.34375
1696252167055,-0.60668945,-0.066223145,0.8661499,-0.5,-0.40625,0.15625
1696252167104,-0.61328125,-0.058166504,0.8805542,-0.703125,-0.984375,0.625
1696252167135,-0.61572266,-0.06524658,0.8768921,0.0625,0.28125,0.4375
1696252167177,-0.6074219,-0.061828613,0.8720093,-0.515625,-0.109375,0.046875
1696252167215,-0.6113281,-0.059143066,0.8864136,0.125,-0.328125,0.34375
1696252167255,-0.60668945,-0.054748535,0.869812,0.0625,-0.28125,0.25
1696252167294,-0.6044922,-0.061828613,0.8744507,0.1875,-0.5,0.4375
1696252167335,-0.6074219,-0.070373535,0.8661499,-0.21875,-0.28125,0.359375
1696252167375,-0.6062012,-0.062316895,0.8710327,0.25,-0.15625,0.09375
1696252167417,-0.60961914,-0.05670166,0.8788452,0.359375,-0.46875,0.375
1696252167457,-0.61499023,-0.07110596,0.88323975,0.328125,-0.5,0.515625
1696252167496,-0.6135254,-0.06817627,0.8800659,-0.203125,-0.265625,0.09375
1696252167537,-0.61157227,-0.06011963,0.8727417,0.34375,-1.234375,-0.046875
1696252167576,-0.60791016,-0.06085205,0.8641968,-0.765625,-0.859375,-0.375
1696252167615,-0.607666,-0.059387207,0.86712646,-0.34375,-0.9375,-0.03125
1696252167658,-0.611084,-0.066223145,0.88739014,0.328125,-0.15625,0.4375
1696252167696,-0.61621094,-0.06378174,0.87713623,0.046875,-0.015625,0.671875
1696252167740,-0.61083984,-0.054748535,0.8722534,-0.296875,-0.140625,0.21875
1696252167777,-0.61083984,-0.05645752,0.86761475,-0.328125,-0.640625,-0.03125
1696252167816,-0.6086426,-0.04864502,0.8707886,0.625,-0.4375,0.0625
1696252167855,-0.60791016,-0.08062744,0.8656616,0.28125,-0.671875,0.484375
1696252167895,-0.60668945,-0.06549072,0.8773804,-0.421875,-0.828125,0.03125
1696252167934,-0.61499023,-0.059387207,0.8739624,-0.046875,-0.765625,0.09375
1696252167978,-0.6074219,-0.06890869,0.8695679,-0.015625,-0.265625,0.484375
1696252168016,-0.6020508,-0.066223145,0.8751831,0.15625,-0.3125,0.203125
1696252168056,-0.6125488,-0.059631348,0.8685913,-0.578125,-1.078125,-0.140625
1696252168099,-0.61987305,-0.06329346,0.8668823,-0.34375,-0.875,0.171875
1696252168135,-0.61743164,-0.06744385,0.869812,-1.171875,-0.734375,0.578125
1696252168156,-0.6101074,-0.06964111,0.8619995,-1.640625,-1.203125,-0.484375
1696252168196,-0.611084,-0.050598145,0.8722534,0.234375,-0.703125,-0.140625
1696252168234,-0.6242676,-0.051818848,0.868103,0.625,-1.890625,0.296875
1696252168274,-0.625,-0.06842041,0.85565186,2.0,-2.125,0.125
1696252168316,-0.61572266,-0.047668457,0.87371826,2.21875,-2.703125,-1.15625
1696252168378,-0.6323242,-0.06329346,0.8666382,4.359375,-3.1875,-0.09375
1696252168395,-0.61035156,-0.06866455,0.8595581,0.515625,-1.265625,-0.265625
1696252168435,-0.61621094,-0.09185791,0.857605,0.421875,-1.0,0.953125
1696252168475,-0.62890625,-0.08087158,0.8654175,-0.515625,-1.859375,0.234375
1696252168516,-0.61987305,-0.05255127,0.8842163,-0.0625,-0.75,-1.296875
1696252168556,-0.63134766,-0.06109619,0.854187,-0.734375,-0.71875,0.234375
1696252168597,-0.61865234,-0.06719971,0.8617554,-1.34375,0.0625,0.140625
1696252168635,-0.6262207,-0.062316895,0.8551636,-2.0,-1.828125,0.515625
1696252168676,-0.6333008,-0.074279785,0.86639404,-1.40625,-0.953125,-0.375
1696252168734,-0.6225586,-0.059631348,0.87420654,0.078125,-0.421875,-0.671875
1696252168755,-0.6262207,-0.06378174,0.8612671,0.125,-0.078125,0.46875
1696252168819,-0.6254883,-0.054992676,0.86517334,-0.03125,0.28125,1.078125
1696252168833,-0.62841797,-0.06793213,0.8563843,0.6875,0.21875,0.75
1696252168877,-0.62158203,-0.0647583,0.85028076,-0.6875,-0.1875,-0.03125
1696252168916,-0.61816406,-0.062072754,0.8707886,0.046875,-0.359375,-0.09375
1696252168954,-0.63061523,-0.062072754,0.86346436,0.265625,-0.609375,0.671875
1696252168996,-0.6245117,-0.07183838,0.86883545,0.0625,0.0625,0.359375
1696252169036,-0.6218262,-0.06011963,0.87127686,0.03125,-0.46875,-0.1875
1696252169076,-0.62280273,-0.06500244,0.8522339,0.171875,-0.6875,0.015625
1696252169134,-0.61743164,-0.06011963,0.87249756,0.578125,0.21875,0.203125
1696252169156,-0.6245117,-0.061340332,0.8529663,0.890625,-0.21875,0.546875
1696252169201,-0.61621094,-0.07476807,0.8595581,-0.515625,-0.234375,0.28125
1696252169257,-0.62841797,-0.05621338,0.86761475,-0.796875,-0.9375,-0.078125
1696252169273,-0.6320801,-0.06085205,0.8644409,0.875,-1.015625,0.015625
1696252169336,-0.6201172,-0.066711426,0.8563843,0.34375,0.234375,-0.09375
1696252169355,-0.61328125,-0.07110596,0.85565186,-0.921875,-1.0,-0.015625
1696252169395,-0.63256836,-0.050598145,0.8695679,-1.21875,-1.90625,-0.53125
1696252169436,-0.6328125,-0.06402588,0.8566284,-1.546875,-1.234375,0.0
1696252169454,-0.6274414,-0.06427002,0.85565186,-0.40625,-0.78125,-0.125
1696252169496,-0.62524414,-0.05645752,0.8685913,-0.15625,-1.03125,-0.46875
1696252169537,-0.63378906,-0.054504395,0.8624878,0.1875,-1.1875,0.375
1696252169577,-0.62231445,-0.062072754,0.85687256,-0.625,-0.609375,0.09375
1696252169619,-0.626709,-0.0491333,0.86761475,-0.734375,-0.5625,-0.0625
1696252169657,-0.63012695,-0.055236816,0.8624878,-0.84375,-0.109375,0.265625
1696252169697,-0.6291504,-0.054016113,0.86590576,-0.890625,1.390625,0.1875
1696252169735,-0.62597656,-0.054260254,0.8764038,-1.296875,3.3125,0.78125
1696252169776,-0.6191406,-0.05718994,0.88201904,2.734375,4.34375,1.71875
1696252169815,-0.62060547,-0.07110596,0.8707886,2.71875,3.5625,1.5625
1696252169857,-0.62158203,-0.06500244,0.8810425,0.375,0.265625,0.296875
1696252169898,-0.6147461,-0.074035645,0.8602905,-3.3125,-1.5625,-0.5
1696252169934,-0.60058594,-0.062316895,0.85931396,-3.875,-1.03125,-0.875
1696252169975,-0.6147461,-0.039123535,0.8571167,-3.359375,-2.078125,-0.84375
1696252170015,-0.6208496,-0.04034424,0.8619995,-1.625,-2.859375,-1.0
1696252170057,-0.6101074,-0.04449463,0.8588257,-2.75,-6.28125,-1.125
1696252170095,-0.62280273,-0.03717041,0.8517456,1.234375,-6.75,-0.96875
1696252170136,-0.62158203,-0.05255127,0.84539795,-0.265625,-5.15625,-1.0
1696252170177,-0.654541,-0.039367676,0.8695679,-0.6875,-3.5,0.3125
1696252170216,-0.65625,-0.034729004,0.8619995,0.71875,-1.515625,0.875
1696252170255,-0.6455078,-0.047668457,0.85321045,1.4375,0.078125,0.4375
1696252170296,-0.6311035,-0.042785645,0.8644409,-0.546875,0.125,0.34375
1696252170337,-0.6376953,-0.045959473,0.85321045,-2.203125,-0.21875,1.03125
1696252170376,-0.6484375,-0.036193848,0.855896,-0.75,1.125,0.90625
1696252170418,-0.6333008,-0.04815674,0.8546753,1.25,1.90625,0.390625
1696252170456,-0.63061523,-0.05255127,0.86346436,0.28125,0.59375,0.8125
1696252170499,-0.6315918,-0.040100098,0.85736084,-1.0625,0.15625,0.515625
1696252170535,-0.6359863,-0.03692627,0.84368896,-0.25,1.0,0.421875
1696252170576,-0.6328125,-0.04083252,0.8500366,0.296875,0.828125,0.765625
1696252170616,-0.6335449,-0.051818848,0.8695679,0.15625,0.59375,0.703125
1696252170655,-0.62646484,-0.04498291,0.8612671,-0.109375,0.234375,0.359375
1696252170695,-0.6296387,-0.04107666,0.85028076,-0.09375,-0.546875,0.046875
1696252170755,-0.63061523,-0.035461426,0.86712646,0.984375,-0.59375,0.5625
1696252170776,-0.625,-0.050109863,0.85614014,-0.140625,-0.6875,0.28125
1696252170795,-0.62768555,-0.051818848,0.8632202,0.796875,-0.1875,0.21875
1696252170859,-0.6245117,-0.04449463,0.8539429,0.109375,-0.46875,0.078125
1696252170874,-0.6262207,-0.03302002,0.8768921,1.078125,0.484375,0.125
1696252170918,-0.6340332,-0.051086426,0.8612671,0.875,-0.078125,1.46875
1696252170957,-0.6281738,-0.053771973,0.8673706,0.828125,-0.328125,-0.015625
1696252170998,-0.6262207,-0.046936035,0.8668823,1.09375,-0.453125,0.171875
1696252171057,-0.625,-0.045715332,0.85443115,-1.046875,-0.078125,0.046875
1696252171076,-0.6208496,-0.055236816,0.87493896,1.4375,1.171875,0.859375
1696252171118,-0.6274414,-0.07330322,0.8637085,0.046875,-0.390625,1.609375
1696252171176,-0.62060547,-0.04449463,0.8751831,0.15625,-0.9375,-0.828125
1696252171194,-0.6262207,-0.04083252,0.8722534,0.578125,-1.296875,-0.296875
1696252171235,-0.62060547,-0.054016113,0.855896,-0.265625,-1.078125,0.09375
1696252171276,-0.6262207,-0.055236816,0.8546753,-0.609375,0.0625,0.375
1696252171317,-0.623291,-0.0635376,0.8607788,-0.265625,0.390625,0.234375
1696252171356,-0.6257324,-0.05670166,0.8554077,0.59375,-0.03125,0.25
1696252171418,-0.62524414,-0.050109863,0.8619995,-0.625,-0.65625,0.53125
1696252171456,-0.62158203,-0.05328369,0.8720093,-0.171875,-0.4375,0.234375
1696252171477,-0.6274414,-0.05230713,0.8602905,0.078125,-0.375,0.078125
1696252171517,-0.62939453,-0.05596924,0.86053467,0.5625,-0.78125,0.015625
1696252171556,-0.61499023,-0.057678223,0.8480835,-1.375,-0.25,-0.046875
1696252171598,-0.6242676,-0.041809082,0.86932373,-0.9375,-0.625,0.03125
1696252171638,-0.6311035,-0.054016113,0.87054443,1.140625,0.546875,0.3125
1696252171675,-0.62524414,-0.073791504,0.8629761,0.59375,0.796875,0.78125
1696252171715,-0.63305664,-0.059387207,0.8632202,-0.640625,-1.0625,0.234375
1696252171755,-0.6311035,-0.03717041,0.8695679,-0.375,-0.78125,-0.5625
1696252171796,-0.6315918,-0.04473877,0.86273193,0.484375,-0.796875,0.078125
1696252171836,-0.6201172,-0.06793213,0.8690796,0.71875,-0.546875,0.5625
1696252171899,-0.6098633,-0.055480957,0.8624878,0.015625,-0.609375,-0.15625
1696252171937,-0.63183594,-0.05230713,0.8695679,0.796875,-1.046875,0.203125
1696252171955,-0.6274414,-0.058166504,0.8578491,0.296875,-0.140625,0.25
1696252171997,-0.6201172,-0.05255127,0.8678589,-0.125,-0.21875,-0.015625
1696252172037,-0.62524414,-0.049865723,0.87298584,-0.484375,-0.375,0.515625
1696252172075,-0.6262207,-0.05718994,0.86346436,0.078125,-0.234375,0.421875
1696252172096,-0.6201172,-0.062805176,0.8600464,-0.484375,-0.0625,-0.1875
1696252172138,-0.6203613,-0.049865723,0.86346436,-0.25,-0.078125,0.03125
1696252172176,-0.6245117,-0.047912598,0.86151123,0.109375,-0.09375,0.8125
1696252172220,-0.62231445,-0.062072754,0.868103,-0.03125,0.46875,0.453125
1696252172256,-0.6203613,-0.059143066,0.8668823,-0.21875,-0.234375,0.21875
1696252172295,-0.62060547,-0.05670166,0.85614014,-0.640625,-0.6875,0.015625
1696252172337,-0.6245117,-0.04888916,0.8734741,0.3125,-0.53125,0.25
1696252172377,-0.6218262,-0.05670166,0.8612671,-0.484375,0.078125,0.21875
1696252172419,-0.62158203,-0.055725098,0.869812,-0.375,-0.375,0.140625
1696252172456,-0.6237793,-0.06329346,0.8739624,0.015625,0.0625,0.34375
1696252172494,-0.6184082,-0.066223145,0.8756714,-0.265625,0.78125,0.421875
1696252172536,-0.6254883,-0.058654785,0.8722534,-1.140625,0.515625,0.6875
1696252172576,-0.62060547,-0.04449463,0.8656616,-0.515625,0.78125,-0.125
1696252172616,-0.62158203,-0.043518066,0.8834839,5.34375,2.234375,0.390625
1696252172655,-0.6203613,-0.070129395,0.8629761,5.984375,-0.046875,1.8125
1696252172696,-0.63793945,-0.09429932,0.88031006,8.078125,-5.640625,2.21875
1696252172738,-0.59643555,-0.08428955,0.85736084,3.125,-2.890625,-0.453125
1696252172775,-0.6203613,-0.06744385,0.8649292,0.265625,-3.03125,-0.796875
1696252172818,-0.6188965,-0.07501221,0.8485718,-1.359375,-2.0625,-0.515625
1696252172855,-0.625,-0.078186035,0.86151123,-1.59375,-1.609375,-0.25
1696252172896,-0.625,-0.07623291,0.85198975,-2.765625,-2.3125,-0.671875
1696252172941,-0.63305664,-0.061828613,0.8546753,-2.0625,-2.640625,-0.9375
1696252172977,-0.62841797,-0.0635376,0.8500366,-2.421875,-3.546875,-0.265625
1696252173017,-0.63623047,-0.066223145,0.8554077,-1.65625,-3.578125,-0.40625
1696252173057,-0.6359863,-0.07086182,0.8641968,-0.203125,-2.265625,-0.34375
1696252173096,-0.6418457,-0.06304932,0.85272217,-0.90625,-1.0625,0.0625
1696252173138,-0.6323242,-0.04815674,0.8341675,-1.421875,-0.34375,0.34375
1696252173175,-0.6533203,-0.062072754,0.85809326,1.5625,-0.21875,0.8125
1696252173216,-0.6411133,-0.073791504,0.8500366,-0.375,0.8125,0.5
1696252173256,-0.6347656,-0.06793213,0.84661865,-0.078125,-0.8125,-0.234375
1696252173295,-0.63623047,-0.05206299,0.84710693,-0.65625,-0.078125,-0.59375
1696252173335,-0.6442871,-0.05987549,0.8517456,-0.453125,-0.84375,0.78125
1696252173394,-0.6398926,-0.059143066,0.8493042,-0.15625,-0.703125,0.328125
1696252173414,-0.6369629,-0.066711426,0.8493042,-0.046875,-0.421875,-0.34375
1696252173456,-0.64282227,-0.053527832,0.8534546,-0.046875,-0.65625,-0.15625
1696252173475,-0.6542969,-0.059143066,0.83880615,-1.140625,-0.859375,1.03125
1696252173517,-0.6472168,-0.058410645,0.8590698,0.171875,-0.640625,0.484375
1696252173577,-0.6328125,-0.06817627,0.84661865,0.546875,-0.140625,0.015625
1696252173617,-0.6376953,-0.05255127,0.8546753,0.21875,-0.96875,-0.859375
1696252173634,-0.6357422,-0.04888916,0.8439331,-0.28125,-0.171875,-0.484375
1696252173694,-0.64453125,-0.06866455,0.8439331,0.328125,-0.640625,1.390625
1696252173715,-0.63305664,-0.07159424,0.85369873,-0.203125,-0.578125,-0.015625
1696252173758,-0.65234375,-0.05621338,0.8590698,0.3125,-1.390625,-0.65625
1696252173796,-0.6425781,-0.050598145,0.8446655,-1.109375,-1.234375,-0.1875
1696252173837,-0.63012695,-0.057678223,0.84539795,-0.234375,0.390625,-0.125
1696252173894,-0.63671875,-0.055480957,0.8427124,-0.515625,0.28125,0.625
1696252173936,-0.6437988,-0.06549072,0.8475952,0.40625,0.59375,0.8125
1696252173955,-0.63671875,-0.062805176,0.854187,0.125,0.390625,0.109375
1696252173998,-0.6352539,-0.050842285,0.83880615,-0.8125,-0.75,0.203125
1696252174057,-0.6442871,-0.053527832,0.8578491,-0.671875,-0.40625,0.234375
1696252174095,-0.64941406,-0.062561035,0.85076904,0.3125,0.3125,0.171875
1696252174115,-0.6298828,-0.07159424,0.84490967,0.109375,0.125,0.21875
1696252174156,-0.62841797,-0.050598145,0.8539429,0.015625,-0.234375,0.421875
1696252174216,-0.64868164,-0.045715332,0.85858154,-0.09375,-0.859375,0.890625
1696252174235,-0.64624023,-0.0647583,0.8451538,0.0625,0.234375,0.421875
1696252174277,-0.6386719,-0.06011963,0.85198975,0.78125,-0.125,0.171875
1696252174339,-0.6418457,-0.059143066,0.857605,-0.65625,-1.3125,-0.015625
1696252174355,-0.64331055,-0.05230713,0.855896,-0.0625,-1.0,-0.25
1696252174417,-0.6381836,-0.05621338,0.8427124,-0.171875,-0.625,-0.171875
1696252174436,-0.6328125,-0.06036377,0.85369873,0.0,-0.875,0.296875
1696252174475,-0.6430664,-0.058410645,0.84490967,-0.078125,-0.125,0.703125
1696252174514,-0.6418457,-0.06060791,0.8571167,-0.703125,-0.6875,0.265625
1696252174555,-0.63720703,-0.05718994,0.84417725,-0.1875,-0.796875,-0.328125
1696252174616,-0.6376953,-0.0569458,0.8588257,-0.390625,-1.1875,-0.171875
1696252174635,-0.64038086,-0.057434082,0.85565186,-0.40625,-0.421875,0.0
1696252174697,-0.6447754,-0.05621338,0.8510132,0.078125,-0.09375,0.421875
1696252174714,-0.64501953,-0.05718994,0.85198975,0.0625,-0.3125,0.65625
1696252174736,-0.6381836,-0.06085205,0.8512573,0.125,-0.734375,0.0625
1696252174777,-0.6359863,-0.054748535,0.84954834,0.109375,0.015625,-0.421875
1696252174816,-0.63671875,-0.059387207,0.8500366,-0.53125,-0.0625,0.46875
1696252174857,-0.6418457,-0.058898926,0.8505249,0.40625,0.40625,0.546875
1696252174896,-0.63720703,-0.06427002,0.83758545,-0.46875,0.171875,0.34375
1696252174937,-0.63183594,-0.05255127,0.8493042,-0.171875,0.40625,0.078125
1696252174986,-0.63549805,-0.051818848,0.8517456,-0.03125,0.328125,0.34375
1696252175018,-0.6311035,-0.05718994,0.8656616,-0.046875,0.265625,0.46875
1696252175055,-0.6340332,-0.070617676,0.85150146,-0.84375,-0.015625,0.671875
1696252175098,-0.6359863,-0.05303955,0.8546753,-0.671875,-0.09375,0.125
1696252175138,-0.6394043,-0.051086426,0.852478,-1.1875,0.53125,0.53125
1696252175178,-0.62109375,-0.050354004,0.8895874,-1.15625,3.609375,-0.046875
1696252175216,-0.6359863,-0.06500244,0.8720093,-3.5,2.0,1.5625
1696252175257,-0.63256836,-0.051818848,0.857605,-0.296875,1.78125,0.5625
1696252175299,-0.62158203,-0.0413208,0.8656616,-0.71875,1.109375,-0.625
1696252175337,-0.62109375,-0.039611816,0.8690796,-2.09375,-0.5625,-0.640625
1696252175375,-0.6230469,-0.05206299,0.86346436,1.578125,0.3125,0.34375
1696252175416,-0.6171875,-0.06500244,0.85150146,-1.828125,-0.59375,0.078125
1696252175457,-0.6308594,-0.033996582,0.8434448,-1.5,-3.0,-0.53125
1696252175497,-0.63500977,-0.031799316,0.83807373,0.28125,-5.3125,-0.640625
1696252175537,-0.6359863,-0.043518066,0.84173584,-0.953125,-6.296875,-0.5625
1696252175576,-0.64282227,-0.042541504,0.87542725,-0.640625,-4.015625,0.46875
1696252175615,-0.6374512,-0.05255127,0.8566284,-2.078125,-2.1875,1.765625
1696252175658,-0.6347656,-0.045959473,0.855896,0.140625,-1.75,0.671875
1696252175698,-0.62646484,-0.03717041,0.8600464,-0.28125,-0.734375,-0.171875
1696252175736,-0.64453125,-0.030578613,0.8641968,-0.671875,-0.671875,0.4375
1696252175775,-0.6503906,-0.04083252,0.8534546,0.40625,0.140625,1.4375
1696252175815,-0.64282227,-0.055480957,0.84417725,0.390625,0.625,0.765625
1696252175856,-0.63793945,-0.043273926,0.86346436,0.71875,0.34375,-0.25
1696252175896,-0.64868164,-0.04083252,0.85028076,0.546875,-0.84375,0.171875
1696252175936,-0.6477051,-0.042541504,0.85198975,-0.859375,-0.09375,0.53125
1696252175977,-0.63256836,-0.04473877,0.8480835,-0.0625,0.765625,0.234375
1696252176016,-0.6381836,-0.046203613,0.8546753,0.484375,0.1875,0.09375
1696252176035,-0.64282227,-0.051086426,0.8485718,-0.34375,-0.375,0.265625
1696252176077,-0.63671875,-0.04840088,0.8529663,0.171875,-0.109375,0.078125
1696252176116,-0.64501953,-0.043029785,0.8480835,-0.28125,-0.109375,0.125
1696252176157,-0.6386719,-0.043518066,0.8554077,-0.0625,-0.109375,0.140625
1696252176195,-0.64086914,-0.04840088,0.8497925,0.421875,0.09375,0.171875
1696252176237,-0.63061523,-0.04522705,0.8695679,0.65625,-0.015625,0.015625
1696252176297,-0.6269531,-0.04473877,0.8473511,-0.734375,-0.4375,-0.03125
1696252176314,-0.6369629,-0.03643799,0.84710693,1.3125,-0.578125,-0.34375
1696252176356,-0.6496582,-0.051330566,0.8583374,1.171875,-1.109375,0.546875
1696252176415,-0.63134766,-0.054504395,0.8583374,0.40625,-0.125,0.28125
1696252176439,-0.6398926,-0.051086426,0.86053467,0.59375,-1.03125,0.21875
1696252176476,-0.64208984,-0.04034424,0.857605,-0.59375,-1.6875,-0.375
1696252176514,-0.6398926,-0.050598145,0.8463745,-0.296875,-1.625,-0.53125
1696252176579,-0.6220703,-0.04522705,0.8600464,0.296875,0.6875,-0.609375
1696252176595,-0.63305664,-0.042541504,0.8571167,-0.296875,0.40625,0.8125
1696252176635,-0.6435547,-0.054992676,0.8512573,1.46875,-0.859375,0.953125
1696252176678,-0.64697266,-0.057434082,0.8619995,0.515625,-0.765625,-0.09375
1696252176716,-0.63720703,-0.04473877,0.8600464,-0.015625,-0.734375,-0.25
1696252176778,-0.6374512,-0.04107666,0.85369873,-0.375,-0.59375,0.453125
1696252176795,-0.6374512,-0.04840088,0.8434448,-0.171875,-0.09375,0.015625
1696252176838,-0.6328125,-0.051574707,0.85369873,0.09375,-0.109375,-0.078125
1696252176876,-0.6425781,-0.042053223,0.8588257,-0.3125,-0.546875,0.296875
1696252176914,-0.6435547,-0.04449463,0.8551636,0.46875,0.0,0.78125
1696252176955,-0.6398926,-0.054260254,0.8488159,0.234375,0.671875,0.59375
1696252176999,-0.6345215,-0.04498291,0.86468506,0.296875,-0.21875,-0.1875
1696252177038,-0.6357422,-0.054992676,0.8512573,-0.703125,-0.390625,0.125
1696252177097,-0.6308594,-0.047424316,0.8512573,-0.828125,0.015625,-0.109375
1696252177114,-0.6315918,-0.0491333,0.8578491,0.390625,0.3125,0.578125
1696252177177,-0.63427734,-0.06036377,0.855896,-0.28125,-0.125,0.71875
1696252177194,-0.6364746,-0.05255127,0.85809326,-0.09375,-0.8125,0.09375
1696252177236,-0.6357422,-0.04034424,0.86273193,0.34375,-0.34375,-0.265625
1696252177278,-0.6311035,-0.04547119,0.84710693,0.375,-0.109375,0.46875
1696252177337,-0.6320801,-0.054260254,0.8617554,0.15625,0.71875,0.765625
1696252177355,-0.63183594,-0.054992676,0.8522339,-0.78125,-0.53125,0.3125
1696252177377,-0.6459961,-0.051330566,0.8661499,0.171875,-0.734375,0.609375
1696252177416,-0.64160156,-0.04937744,0.8654175,0.296875,-0.109375,0.203125
1696252177457,-0.6296387,-0.038635254,0.85736084,-0.375,-0.265625,0.015625
1696252177495,-0.63842773,-0.042785645,0.8644409,-0.234375,-0.453125,0.328125
1696252177535,-0.6245117,-0.04425049,0.8505249,-0.609375,0.0625,0.15625
1696252177577,-0.63842773,-0.050598145,0.8607788,-0.421875,0.78125,0.75
1696252177617,-0.62597656,-0.04498291,0.85687256,-1.3125,0.765625,0.234375
1696252177656,-0.63671875,-0.04937744,0.868103,1.109375,-0.8125,0.453125
1696252177696,-0.63916016,-0.051818848,0.84710693,0.03125,-3.09375,-0.109375
1696252177738,-0.63378906,-0.046447754,0.8685913,1.765625,-3.171875,-1.25
1696252177778,-0.6333008,-0.04937744,0.85614014,-0.109375,-3.09375,-0.453125
1696252177816,-0.6364746,-0.043029785,0.86151123,-0.359375,-2.359375,-0.34375
1696252177857,-0.6411133,-0.04864502,0.8517456,-0.125,-1.28125,-0.46875
1696252177898,-0.6320801,-0.05206299,0.85931396,-0.75,-2.125,-0.6875
1696252177937,-0.65112305,-0.049621582,0.852478,-0.328125,-2.453125,-0.21875
1696252177976,-0.6472168,-0.046447754,0.84124756,-1.75,-1.578125,-0.21875
1696252178016,-0.6550293,-0.034729004,0.8475952,-1.78125,-1.78125,-0.8125
1696252178056,-0.6489258,-0.042541504,0.84588623,-0.140625,-1.0625,-0.609375
1696252178096,-0.6359863,-0.040100098,0.8551636,0.046875,-0.046875,-0.28125
1696252178137,-0.6376953,-0.04498291,0.85028076,-0.28125,-0.734375,0.875
1696252178177,-0.6489258,-0.042541504,0.8475952,-0.15625,-0.296875,0.78125
1696252178216,-0.6513672,-0.03302002,0.85198975,0.578125,0.203125,-0.03125
1696252178256,-0.65185547,-0.039367676,0.85614014,0.734375,0.234375,0.65625
1696252178296,-0.6557617,-0.047424316,0.8361206,0.03125,-3.3125,0.765625
1696252178337,-0.6516113,-0.030090332,0.8348999,1.34375,-2.328125,-1.34375
1696252178378,-0.6542969,-0.039367676,0.8571167,1.390625,-2.171875,-0.578125
1696252178417,-0.6430664,-0.05206299,0.83148193,0.0,-1.828125,0.1875
1696252178458,-0.66015625,-0.046936035,0.85443115,2.125,-2.234375,0.78125
1696252178496,-0.6525879,-0.059143066,0.83807373,-0.328125,-0.65625,1.25
1696252178536,-0.6525879,-0.03668213,0.8439331,-0.875,-0.953125,0.703125
1696252178578,-0.6706543,-0.039123535,0.83514404,-0.640625,-1.78125,0.40625
1696252178640,-0.6647949,-0.03326416,0.8287964,0.015625,0.234375,-0.1875
1696252178655,-0.66381836,-0.057678223,0.81658936,-0.25,-3.0625,0.046875
1696252178675,-0.64208984,-0.028381348,0.8485718,1.78125,-1.421875,-2.53125
1696252178717,-0.65527344,-0.046203613,0.840271,-0.78125,-3.453125,0.171875
1696252178755,-0.6960449,-0.05718994,0.8265991,-2.15625,-3.6875,0.96875
1696252178796,-0.6838379,-0.039123535,0.84368896,0.578125,-0.15625,-1.28125
1696252178855,-0.6357422,-0.04547119,0.84124756,-0.5625,1.453125,-1.015625
1696252178896,-0.6582031,-0.04034424,0.84490967,-0.640625,-0.359375,1.15625
1696252178955,-0.6826172,-0.047424316,0.8336792,-0.921875,-1.515625,1.34375
1696252178957,-0.6657715,-0.030578613,0.824646,-1.09375,0.359375,0.046875
1696252179018,-0.6621094,-0.032043457,0.8300171,-0.078125,-0.671875,0.40625
1696252179035,-0.673584,-0.04034424,0.8324585,0.453125,-1.578125,0.40625
1696252179075,-0.6748047,-0.04937744,0.8295288,-0.765625,-0.0625,-0.125
1696252179115,-0.6645508,-0.035949707,0.84906006,0.109375,0.421875,-0.0625
1696252179178,-0.6582031,-0.033996582,0.8204956,-1.296875,-0.953125,0.515625
1696252179195,-0.65600586,-0.02935791,0.8305054,-0.875,-0.296875,0.171875
1696252179236,-0.67578125,-0.031311035,0.8317261,-0.984375,-1.3125,0.421875
1696252179279,-0.6730957,-0.039855957,0.8241577,-0.0625,-1.09375,-0.171875
1696252179316,-0.66186523,-0.03692627,0.8390503,0.015625,-0.328125,-0.15625
1696252179356,-0.65625,-0.03668213,0.8270874,-0.703125,-0.484375,0.25
1696252179418,-0.66503906,-0.026672363,0.83221436,-0.609375,-0.375,0.28125
1696252179461,-0.67822266,-0.030578613,0.8410034,-0.296875,-0.234375,0.359375
1696252179474,-0.67089844,-0.03277588,0.84198,-0.3125,0.609375,-0.28125
1696252179515,-0.67041016,-0.035461426,0.8432007,-0.078125,-0.46875,0.015625
1696252179555,-0.66064453,-0.042053223,0.83929443,-0.28125,1.109375,0.53125
1696252179618,-0.6652832,-0.031799316,0.85858154,2.078125,3.1875,1.09375
1696252179657,-0.6582031,-0.05987549,0.84832764,-0.1875,5.796875,2.96875
1696252179697,-0.63500977,-0.027648926,0.8317261,-4.71875,4.671875,0.78125
1696252179716,-0.67944336,-0.010559082,0.84295654,-2.6875,1.171875,0.109375
1696252179756,-0.66503906,-0.018859863,0.85687256,-0.8125,2.5625,-0.625
1696252179799,-0.63964844,-0.042297363,0.85443115,4.8125,0.9375,1.5625
1696252179838,-0.6262207,-0.06011963,0.81536865,-1.484375,-4.96875,0.09375
1696252179899,-0.6484375,-0.020568848,0.8258667,2.75,-6.453125,-1.359375
1696252179957,-0.6640625,-0.031799316,0.8373413,6.703125,-5.90625,0.171875
1696252179961,-0.6484375,-0.030334473,0.8414917,2.125,-4.515625,0.609375
1696252179974,-0.6660156,-0.038635254,0.8446655,-0.265625,-3.8125,0.609375
1696252180015,-0.6657715,-0.053527832,0.8451538,0.140625,0.296875,-0.09375
1696252180056,-0.66186523,-0.057678223,0.8383179,-0.0625,-0.046875,0.265625
1696252180097,-0.6687012,-0.043762207,0.82562256,-1.34375,0.125,0.328125
1696252180136,-0.67211914,-0.038391113,0.82196045,-0.546875,0.234375,0.5
1696252180176,-0.66186523,-0.040100098,0.84539795,1.015625,0.421875,0.546875
1696252180236,-0.65966797,-0.042053223,0.84051514,-0.140625,-0.09375,0.25
1696252180255,-0.671875,-0.05255127,0.8356323,-0.546875,-1.125,0.96875
1696252180297,-0.66430664,-0.046691895,0.83636475,0.15625,-0.46875,-0.03125
1696252180339,-0.6569824,-0.047912598,0.83807373,0.359375,0.15625,-0.25
1696252180376,-0.6604004,-0.034484863,0.84124756,-0.203125,-0.53125,0.265625
1696252180438,-0.6682129,-0.042297363,0.83221436,-0.5,0.15625,0.890625
1696252180456,-0.6591797,-0.042053223,0.8463745,0.328125,0.953125,0.171875
1696252180516,-0.6525879,-0.050109863,0.8341675,-0.703125,-0.140625,-0.125
1696252180536,-0.66308594,-0.039367676,0.8444214,0.15625,-0.84375,0.328125
1696252180597,-0.6604004,-0.04547119,0.8331909,0.390625,-0.765625,0.265625
1696252180637,-0.6611328,-0.03668213,0.8270874,-0.078125,-0.125,-0.078125
1696252180656,-0.6604004,-0.038391113,0.84417725,0.734375,0.1875,0.578125
1696252180699,-0.66064453,-0.051818848,0.8307495,-0.65625,-0.671875,0.75
1696252180757,-0.66503906,-0.051086426,0.8344116,0.8125,-0.46875,0.234375
1696252180797,-0.6611328,-0.038635254,0.8341675,-0.1875,-1.21875,-0.328125
1696252180815,-0.6604004,-0.043029785,0.84124756,0.234375,-1.046875,0.0625
1696252180856,-0.66308594,-0.045715332,0.83807373,0.015625,-0.828125,0.21875
1696252180917,-0.66308594,-0.04888916,0.838562,0.609375,-0.859375,-0.125
1696252180936,-0.66137695,-0.045959473,0.84832764,-0.359375,-0.375,0.140625
1696252180997,-0.6660156,-0.04547119,0.8336792,-0.515625,-0.515625,0.28125
1696252181035,-0.6633301,-0.03717041,0.84002686,0.109375,0.09375,-0.09375
1696252181077,-0.6633301,-0.03692627,0.84661865,0.203125,-1.03125,0.328125
1696252181094,-0.66625977,-0.050598145,0.8410034,0.28125,-0.234375,0.03125
1696252181136,-0.65966797,-0.0491333,0.84246826,-0.6875,-0.171875,0.125
1696252181175,-0.6594238,-0.043762207,0.8290405,-0.625,0.046875,0.453125
1696252181237,-0.6640625,-0.03692627,0.8324585,-0.828125,-0.21875,0.515625
1696252181255,-0.66308594,-0.028869629,0.84295654,0.609375,0.265625,0.171875
1696252181275,-0.6508789,-0.043762207,0.8461304,0.15625,0.671875,-0.296875
1696252181317,-0.65478516,-0.046691895,0.8522339,0.71875,-0.71875,0.40625
1696252181355,-0.6677246,-0.045715332,0.8414917,-0.484375,-1.546875,0.734375
1696252181398,-0.6533203,-0.05670166,0.8336792,-0.671875,-0.34375,0.234375
1696252181440,-0.66015625,-0.033996582,0.84539795,0.015625,0.1875,-0.03125
1696252181477,-0.6687012,-0.035461426,0.83587646,-0.390625,-0.71875,0.421875
1696252181515,-0.6604004,-0.04473877,0.83636475,0.546875,0.578125,-0.03125
1696252181556,-0.65478516,-0.043762207,0.8344116,0.3125,-0.65625,0.15625
1696252181596,-0.6477051,-0.05255127,0.84246826,0.28125,-0.53125,0.203125
1696252181637,-0.6582031,-0.054260254,0.83807373,-0.28125,0.015625,0.1875
1696252181676,-0.6574707,-0.0335083,0.83929443,-0.578125,0.296875,0.234375
1696252181718,-0.65527344,-0.03253174,0.8432007,-0.71875,1.03125,0.6875
1696252181758,-0.6381836,-0.034240723,0.84661865,-2.5,2.875,-0.0625
1696252181800,-0.65722656,-0.042297363,0.857605,-0.546875,2.484375,1.328125
1696252181836,-0.65722656,-0.062805176,0.86053467,3.765625,3.296875,2.34375
1696252181876,-0.6311035,-0.07305908,0.85980225,0.65625,3.09375,1.796875
1696252181919,-0.6621094,-0.0413208,0.84832764,-2.75,1.1875,0.84375
1696252181956,-0.65771484,-0.028869629,0.85736084,0.453125,4.078125,-0.296875
1696252181996,-0.6398926,-0.044006348,0.85028076,1.65625,4.203125,0.296875
1696252182036,-0.61206055,-0.05255127,0.8707886,0.109375,2.3125,0.046875
1696252182075,-0.626709,-0.06011963,0.86053467,-2.546875,-1.40625,-0.53125
1696252182116,-0.625,-0.04473877,0.85028076,-2.53125,-3.640625,-0.75
1696252182156,-0.6345215,-0.023742676,0.8493042,-0.828125,-3.671875,-0.234375
1696252182196,-0.6425781,-0.037902832,0.8517456,-0.484375,-2.421875,0.0
1696252182236,-0.63378906,-0.030090332,0.84295654,-1.5625,-2.125,-0.4375
1696252182276,-0.63378906,-0.02935791,0.8407593,0.921875,-3.5,-0.171875
1696252182315,-0.6411133,-0.034240723,0.8422241,1.765625,-2.609375,0.234375
1696252182357,-0.65112305,-0.047912598,0.8546753,1.890625,-3.046875,1.5625
1696252182395,-0.66430664,-0.06060791,0.8473511,1.5625,-2.125,1.1875
1696252182435,-0.6413574,-0.044006348,0.8546753,-0.140625,-1.46875,-0.875
1696252182476,-0.6503906,-0.032043457,0.85858154,0.03125,-0.890625,-0.875
1696252182515,-0.6430664,-0.041809082,0.83587646,-1.546875,0.015625,0.328125
1696252182577,-0.6489258,-0.043029785,0.8336792,-0.03125,0.25,1.140625
1696252182596,-0.65527344,-0.04547119,0.8493042,1.046875,0.375,1.078125
1696252182615,-0.654541,-0.06500244,0.852478,0.078125,-0.890625,0.125
1696252182656,-0.6533203,-0.035461426,0.8468628,0.375,-0.28125,-0.671875
1696252182696,-0.6516113,-0.031066895,0.8356323,0.578125,0.015625,-0.078125
1696252182740,-0.64990234,-0.047424316,0.84417725,0.75,0.734375,1.359375
1696252182778,-0.6386719,-0.058654785,0.84539795,-0.6875,0.5,0.5625
1696252182817,-0.6442871,-0.051330566,0.8456421,0.640625,-0.890625,0.015625
1696252182857,-0.6418457,-0.04937744,0.85272217,-0.21875,0.46875,-0.265625
1696252182898,-0.6555176,-0.043518066,0.8510132,0.359375,-0.515625,0.75
1696252182939,-0.65283203,-0.04498291,0.84368896,-0.53125,-1.40625,-0.046875
1696252182977,-0.6435547,-0.04547119,0.8497925,1.390625,-0.28125,-0.328125
1696252183016,-0.63964844,-0.04937744,0.84588623,-0.015625,-0.546875,0.0625
1696252183078,-0.6472168,-0.050598145,0.84588623,-0.34375,-0.0625,0.171875
1696252183096,-0.6437988,-0.04937744,0.8473511,0.21875,-0.40625,0.828125
1696252183136,-0.6489258,-0.046691895,0.85858154,0.734375,-0.4375,0.359375
1696252183178,-0.65356445,-0.051574707,0.8512573,-1.40625,-1.328125,-0.34375
1696252183236,-0.6464844,-0.038879395,0.84124756,-0.953125,-1.375,-0.859375
1696252183254,-0.6425781,-0.03717041,0.8407593,-0.421875,-0.328125,-0.328125
1696252183296,-0.6520996,-0.04815674,0.85443115,0.8125,0.5,0.828125
1696252183336,-0.6508789,-0.059631348,0.8461304,-0.40625,0.734375,1.53125
1696252183399,-0.6550293,-0.043273926,0.84832764,-0.4375,-0.46875,0.546875
1696252183418,-0.6464844,-0.04083252,0.85687256,0.78125,-0.421875,-0.3125
1696252183458,-0.6484375,-0.04840088,0.8446655,-0.171875,-0.28125,0.125
1696252183517,-0.6442871,-0.04937744,0.8366089,0.203125,0.125,0.484375
1696252183556,-0.63720703,-0.04888916,0.8427124,-0.28125,-0.109375,0.296875
1696252183575,-0.64575195,-0.04547119,0.8510132,0.4375,-0.5,0.40625
1696252183638,-0.6455078,-0.04937744,0.85321045,-0.09375,0.140625,0.234375
1696252183677,-0.6472168,-0.04888916,0.8446655,0.109375,-0.296875,0.359375
1696252183694,-0.6491699,-0.050109863,0.857605,0.03125,-0.1875,0.234375
1696252183739,-0.64990234,-0.04864502,0.8473511,0.015625,-0.140625,0.203125
1696252183776,-0.6467285,-0.047668457,0.8395386,-0.15625,-0.09375,0.375
1696252183818,-0.6430664,-0.05328369,0.8397827,-0.53125,-0.40625,0.46875
1696252183859,-0.6496582,-0.04522705,0.8602905,0.6875,-0.15625,0.28125
1696252183897,-0.6447754,-0.05255127,0.8493042,-0.359375,-0.59375,-0.109375
1696252183916,-0.64160156,-0.042053223,0.85369873,-0.25,-1.0625,-0.21875
1696252183957,-0.6447754,-0.042541504,0.8383179,-0.125,-0.40625,0.15625
1696252183999,-0.64038086,-0.043029785,0.84588623,-0.015625,-0.25,0.234375
1696252184035,-0.6340332,-0.044006348,0.854187,0.078125,-0.21875,-0.015625
1696252184077,-0.6491699,-0.04937744,0.8571167,0.328125,-0.890625,0.5
1696252184115,-0.65356445,-0.04449463,0.8395386,-0.5,-1.34375,0.671875
1696252184157,-0.642334,-0.047668457,0.854187,0.578125,0.25,-0.546875
1696252184196,-0.63623047,-0.041809082,0.8534546,-0.40625,-0.0625,-0.046875
1696252184237,-0.6503906,-0.049621582,0.8439331,0.453125,-0.546875,0.921875
1696252184278,-0.6437988,-0.06036377,0.8488159,-0.421875,-0.09375,0.203125
1696252184322,-0.6430664,-0.04107666,0.8485718,1.25,-1.015625,-0.390625
1696252184359,-0.6447754,-0.041809082,0.85369873,0.109375,-0.78125,0.203125
1696252184397,-0.65722656,-0.054504395,0.8500366,-0.0625,-1.125,0.765625
1696252184436,-0.6459961,-0.05255127,0.84051514,-0.90625,-1.296875,-0.109375
1696252184476,-0.64086914,-0.0413208,0.8414917,0.015625,-1.84375,-1.265625
1696252184516,-0.65722656,-0.046447754,0.83929443,-1.53125,-3.0625,-0.546875
1696252184557,-0.6501465,-0.050842285,0.8456421,-1.390625,-1.359375,-0.109375
1696252184597,-0.6472168,-0.03375244,0.8488159,1.015625,0.1875,0.015625
1696252184636,-0.6582031,-0.046203613,0.8522339,0.75,0.0625,0.8125
1696252184678,-0.6484375,-0.057678223,0.83099365,-0.6875,-0.4375,0.28125
1696252184717,-0.6479492,-0.034484863,0.8493042,0.453125,0.859375,-0.421875
1696252184756,-0.6489258,-0.04840088,0.83636475,-0.546875,-0.8125,0.96875
1696252184796,-0.64941406,-0.032287598,0.85809326,-0.171875,-0.09375,-0.3125
1696252184835,-0.6530762,-0.041809082,0.8529663,-0.53125,-1.46875,0.21875
1696252184876,-0.64575195,-0.04107666,0.8444214,1.0625,0.375,-0.28125
1696252184917,-0.6459961,-0.05230713,0.83758545,-0.359375,-0.046875,0.640625
1696252184958,-0.6437988,-0.046447754,0.83929443,-0.46875,-0.875,0.453125
1696252184997,-0.6491699,-0.03692627,0.8461304,0.734375,-0.546875,0.03125
1696252185037,-0.64624023,-0.043029785,0.84954834,0.125,-0.296875,-0.03125
1696252185098,-0.6467285,-0.051086426,0.84368896,-0.75,-0.796875,0.515625
1696252185116,-0.65600586,-0.04156494,0.8434448,-0.203125,-0.84375,0.40625
1696252185158,-0.6520996,-0.039855957,0.8451538,0.25,-0.953125,0.078125
1696252185218,-0.6467285,-0.04840088,0.8434448,-0.265625,-0.96875,-0.125
1696252185257,-0.6447754,-0.03277588,0.8493042,0.234375,-0.75,-0.390625
1696252185260,-0.6557617,-0.034729004,0.84002686,0.109375,-0.390625,0.21875
1696252185296,-0.6489258,-0.039367676,0.83587646,-0.875,-0.328125,0.046875
1696252185336,-0.6557617,-0.044006348,0.84954834,1.25,-0.40625,0.4375
1696252185376,-0.6599121,-0.059143066,0.8353882,2.9375,-2.109375,1.15625
1696252185416,-0.6496582,-0.053527832,0.8356323,1.125,-2.1875,-0.609375
1696252185457,-0.6594238,-0.03692627,0.8485718,-0.015625,-2.640625,-0.828125
1696252185496,-0.66015625,-0.038146973,0.8356323,-0.65625,-1.125,-0.71875
1696252185536,-0.6516113,-0.04864502,0.8383179,-0.421875,-1.125,0.25
1696252185579,-0.65527344,-0.050109863,0.84368896,-0.515625,-1.1875,-0.15625
1696252185615,-0.6591797,-0.043518066,0.84198,-0.21875,-1.40625,-0.453125
1696252185657,-0.65722656,-0.038635254,0.8475952,-0.546875,-0.578125,-0.390625
1696252185698,-0.65600586,-0.042297363,0.82611084,-0.9375,-0.1875,0.1875
1696252185738,-0.6682129,-0.036193848,0.84051514,-0.109375,0.234375,0.8125
1696252185779,-0.6599121,-0.04840088,0.826355,0.015625,-0.71875,0.578125
1696252185822,-0.6645508,-0.046936035,0.8383179,1.015625,-0.203125,-0.265625
1696252185856,-0.6477051,-0.046936035,0.83709717,0.5,-0.75,0.3125
1696252185899,-0.6447754,-0.04107666,0.8378296,-1.03125,-0.03125,-0.125
1696252185935,-0.6713867,-0.043762207,0.8422241,-0.6875,-0.8125,0.5625
1696252185977,-0.65478516,-0.05230713,0.8341675,-0.28125,-0.609375,0.40625
1696252186018,-0.6503906,-0.051574707,0.84051514,-0.078125,-0.546875,-0.109375
1696252186058,-0.6621094,-0.03692627,0.83929443,-0.0625,-1.453125,-0.03125
1696252186099,-0.6699219,-0.03692627,0.8305054,0.09375,-0.640625,0.40625
1696252186137,-0.6604004,-0.047668457,0.8341675,0.28125,-0.53125,0.40625
1696252186177,-0.6652832,-0.043518066,0.83221436,-0.71875,-0.53125,-0.21875
1696252186216,-0.66259766,-0.039611816,0.8439331,-0.453125,-0.1875,-0.125
1696252186257,-0.6611328,-0.034240723,0.84124756,-0.1875,-0.5625,0.359375
1696252186295,-0.65478516,-0.0491333,0.8258667,-0.0625,-0.78125,0.296875
1696252186334,-0.6591797,-0.03741455,0.8444214,0.796875,-0.25,0.296875
1696252186377,-0.6699219,-0.043029785,0.83343506,-0.34375,-1.21875,0.109375
1696252186418,-0.65649414,-0.03643799,0.84246826,-0.3125,0.21875,-0.65625
1696252186456,-0.65893555,-0.04058838,0.83929443,0.0625,-0.109375,0.234375
1696252186518,-0.6608887,-0.04473877,0.83392334,-0.125,-0.421875,0.78125
1696252186536,-0.66137695,-0.034729004,0.8319702,-0.65625,-0.25,0.140625
1696252186555,-0.6645508,-0.027404785,0.8432007,1.921875,-0.5,0.0625
1696252186620,-0.66259766,-0.046936035,0.8331909,1.53125,-0.984375,0.71875
1696252186656,-0.6574707,-0.057922363,0.83636475,0.578125,-0.5625,0.515625
1696252186676,-0.6520996,-0.046936035,0.84051514,-0.484375,0.015625,-0.390625
1696252186717,-0.6621094,-0.042541504,0.838562,0.46875,-1.09375,0.109375
1696252186756,-0.6586914,-0.04498291,0.83270264,-0.1875,-0.109375,-0.03125
1696252186819,-0.66381836,-0.043762207,0.84198,-0.671875,-0.59375,0.109375
1696252186835,-0.6652832,-0.050842285,0.82684326,-0.25,-0.6875,0.609375
1696252186876,-0.65478516,-0.046936035,0.83758545,0.0,-0.078125,0.171875
1696252186939,-0.66015625,-0.044006348,0.8383179,0.0,-0.421875,0.28125
1696252186957,-0.66796875,-0.042053223,0.83880615,-1.046875,-0.78125,0.625
1696252187018,-0.66625977,-0.039123535,0.8312378,0.03125,-0.4375,0.03125
1696252187037,-0.66137695,-0.04449463,0.838562,0.046875,-0.21875,-0.09375
1696252187076,-0.66796875,-0.04058838,0.83221436,0.03125,-1.140625,0.640625
1696252187116,-0.6621094,-0.043762207,0.8390503,0.125,-1.3125,-0.171875
1696252187157,-0.654541,-0.049865723,0.83343506,-0.5,0.140625,-0.390625
1696252187197,-0.6599121,-0.031799316,0.83392334,-0.03125,-1.0,0.484375
1696252187257,-0.6699219,-0.04840088,0.8356323,0.03125,-0.984375,0.40625
1696252187275,-0.6645508,-0.047668457,0.8378296,-0.1875,0.09375,-0.296875
1696252187338,-0.657959,-0.03668213,0.8373413,-0.234375,0.515625,0.0
1696252187357,-0.66308594,-0.036193848,0.8305054,-0.703125,0.125,0.265625
1696252187420,-0.6677246,-0.039367676,0.84246826,-0.75,1.03125,0.34375
1696252187435,-0.6557617,-0.047424316,0.83807373,-1.671875,1.375,0.765625
1696252187495,-0.65063477,-0.03375244,0.8600464,-0.578125,2.5625,0.09375
1696252187514,-0.66430664,-0.045959473,0.84906006,0.5625,1.828125,1.96875
1696252187554,-0.64990234,-0.042785645,0.8463745,-3.53125,1.296875,1.390625
1696252187596,-0.6586914,-0.0154418945,0.84710693,-0.296875,-0.40625,-0.25
1696252187636,-0.66503906,-0.022521973,0.8475952,0.265625,1.234375,-0.1875
1696252187677,-0.6516113,-0.05206299,0.85272217,2.171875,3.625,0.875
1696252187717,-0.63549805,-0.046936035,0.84783936,-0.828125,2.453125,0.84375
1696252187759,-0.64331055,-0.03326416,0.87713623,4.046875,0.84375,0.765625
1696252187796,-0.6447754,-0.04473877,0.87323,8.3125,0.453125,1.40625
1696252187860,-0.63623047,-0.0947876,0.77630615,4.546875,-6.71875,1.203125
1696252187868,-0.6171875,-0.032287598,0.8173218,-0.859375,-10.5,-3.140625
1696252187896,-0.6875,-0.008605957,0.8331909,0.328125,-3.859375,-2.203125
1696252187938,-0.65283203,-0.04815674,0.8283081,-0.1875,-2.0625,1.140625
1696252187976,-0.6633301,-0.07330322,0.8353882,-0.25,-2.125,1.359375
1696252188017,-0.671875,-0.07159424,0.8378296,0.5625,-1.875,0.453125
1696252188056,-0.657959,-0.06524658,0.85150146,-0.6875,0.8125,-0.078125
1696252188098,-0.65966797,-0.03692627,0.85028076,-2.203125,0.4375,-0.140625
1696252188137,-0.67041016,-0.039855957,0.83709717,-1.40625,-0.09375,0.5625
1696252188178,-0.66625977,-0.054016113,0.84198,-0.21875,0.984375,1.1875
1696252188223,-0.64501953,-0.061584473,0.85028076,-0.015625,1.421875,0.421875
1696252188257,-0.6530762,-0.06378174,0.8348999,-0.625,-1.125,0.28125
1696252188297,-0.6604004,-0.045715332,0.8373413,-1.234375,-0.71875,0.265625
1696252188338,-0.6723633,-0.03668213,0.84173584,-0.921875,0.59375,0.390625
1696252188375,-0.66430664,-0.050842285,0.8348999,-0.84375,0.578125,-0.0625
1696252188418,-0.65063477,-0.04547119,0.8422241,-0.140625,0.03125,-0.3125
1696252188456,-0.64990234,-0.04864502,0.83270264,0.09375,-0.125,0.359375
1696252188497,-0.6574707,-0.044006348,0.8475952,-0.0625,-0.171875,0.734375
1696252188538,-0.65185547,-0.05328369,0.8253784,-0.515625,-0.09375,0.515625
1696252188577,-0.6501465,-0.040100098,0.8344116,-0.046875,-0.015625,-0.421875
1696252188616,-0.6687012,-0.051330566,0.8488159,0.921875,0.15625,0.734375
1696252188655,-0.6608887,-0.062561035,0.82611084,-0.71875,-2.34375,0.59375
1696252188696,-0.6533203,-0.038391113,0.85150146,1.3125,-0.359375,-1.1875
1696252188736,-0.6569824,-0.038391113,0.8317261,0.453125,-0.484375,-0.234375
1696252188777,-0.6530762,-0.047424316,0.83758545,-1.078125,-0.59375,0.421875
1696252188819,-0.66503906,-0.046691895,0.82977295,0.140625,-0.15625,0.765625
1696252188855,-0.6582031,-0.054504395,0.8461304,0.203125,-0.078125,0.0
1696252188897,-0.6435547,-0.05230713,0.8373413,0.65625,-0.265625,-0.03125
1696252188935,-0.65527344,-0.04498291,0.84661865,-0.6875,-0.828125,-0.046875
1696252188977,-0.66015625,-0.04058838,0.84539795,0.046875,-0.5625,0.671875
1696252189017,-0.6657715,-0.04937744,0.8395386,0.21875,-0.96875,0.46875
1696252189056,-0.65356445,-0.05230713,0.840271,0.671875,-1.875,-0.453125
1696252189098,-0.6479492,-0.051086426,0.84051514,0.234375,-1.640625,-0.375
1696252189137,-0.65356445,-0.05303955,0.8444214,-0.125,-0.640625,-0.03125
1696252189155,-0.65112305,-0.04888916,0.83270264,-1.078125,0.140625,0.171875
1696252189196,-0.6616211,-0.04058838,0.8378296,0.171875,0.0625,0.65625
1696252189297,-0.6567383,-0.059631348,0.8319702,-0.046875,-0.578125,0.671875
1696252189301,-0.6652832,-0.053527832,0.8432007,0.375,-0.6875,0.3125
1696252189314,-0.6599121,-0.039367676,0.82733154,-0.046875,-0.390625,-0.21875
1696252189358,-0.6555176,-0.04522705,0.8451538,0.09375,-0.0625,-0.25
1696252189396,-0.6633301,-0.05621338,0.8307495,-0.875,-0.796875,0.40625
1696252189435,-0.65966797,-0.061828613,0.8265991,-0.09375,-0.328125,0.546875
1696252189477,-0.6479492,-0.053527832,0.82855225,-0.78125,-0.40625,-0.171875
1696252189518,-0.6582031,-0.032287598,0.84832764,0.0625,0.59375,-0.53125
1696252189558,-0.66259766,-0.04083252,0.82366943,-0.109375,-0.5625,0.84375
1696252189604,-0.66064453,-0.05670166,0.83026123,0.0,-0.96875,0.65625
1696252189635,-0.6628418,-0.04840088,0.84832764,0.4375,-0.953125,-0.28125
1696252189677,-0.6682129,-0.04864502,0.8336792,0.046875,-1.171875,-0.34375
1696252189722,-0.65966797,-0.04815674,0.8383179,-0.25,-0.4375,0.09375
1696252189778,-0.6530762,-0.04425049,0.83587646,-0.296875,-0.171875,0.5625
1696252189797,-0.6682129,-0.055236816,0.83392334,-0.140625,-0.828125,0.6875
1696252189838,-0.6616211,-0.05303955,0.84173584,0.375,-0.265625,0.15625
1696252189876,-0.6582031,-0.047668457,0.8331909,-0.09375,-0.203125,-0.171875
1696252189917,-0.6550293,-0.04547119,0.8410034,0.28125,-0.359375,0.1875
1696252189958,-0.66918945,-0.055725098,0.82928467,-0.890625,-0.53125,0.75
1696252189998,-0.6555176,-0.051086426,0.83929443,-0.421875,-0.390625,0.046875
1696252190039,-0.6513672,-0.035461426,0.8485718,0.90625,-0.75,-0.421875
1696252190099,-0.6459961,-0.038146973,0.83807373,0.578125,-0.71875,-0.359375
1696252190116,-0.66918945,-0.058410645,0.83880615,-0.40625,-1.0,0.65625
1696252190156,-0.6801758,-0.06402588,0.84246826,-0.171875,0.15625,0.796875
1696252190195,-0.66381836,-0.06109619,0.83758545,-0.265625,0.40625,-0.015625
1696252190239,-0.64819336,-0.039611816,0.8341675,-0.3125,0.25,-0.640625
1696252190296,-0.6628418,-0.035705566,0.8353882,-0.0625,-0.671875,0.5
1696252190315,-0.6623535,-0.04083252,0.8295288,-0.265625,-0.390625,0.5
1696252190357,-0.65234375,-0.053527832,0.8307495,-0.4375,-0.328125,-0.046875
1696252190418,-0.6508789,-0.038635254,0.85809326,0.34375,0.359375,-0.984375
1696252190435,-0.67333984,-0.06060791,0.83587646,-0.140625,-1.53125,1.46875
1696252190456,-0.66503906,-0.055236816,0.8275757,0.40625,-1.140625,0.171875
1696252190499,-0.6621094,-0.031311035,0.84368896,0.90625,-2.484375,-0.921875
1696252190536,-0.6657715,-0.039611816,0.8300171,-0.0625,-2.828125,-1.015625
1696252190576,-0.66625977,-0.04864502,0.84198,-0.34375,-1.328125,-0.21875
1696252190617,-0.65844727,-0.0491333,0.83148193,-1.640625,0.40625,0.0625
1696252190658,-0.6616211,-0.0491333,0.8341675,-0.890625,0.109375,0.109375
1696252190696,-0.6694336,-0.047668457,0.83221436,-0.234375,-0.6875,0.796875
1696252190736,-0.65649414,-0.038146973,0.8348999,-0.140625,0.484375,0.484375
1696252190778,-0.6657715,-0.0335083,0.83758545,-0.40625,-0.328125,0.734375
1696252190820,-0.66918945,-0.034973145,0.8395386,0.203125,0.359375,0.078125
1696252190857,-0.64697266,-0.050842285,0.8278198,-1.171875,0.078125,-0.15625
1696252190898,-0.657959,-0.04083252,0.8361206,-0.15625,-0.5,-0.046875
1696252190934,-0.67041016,-0.0413208,0.84198,0.1875,-1.0,0.453125
1696252190976,-0.6621094,-0.04498291,0.83587646,-1.09375,-0.796875,-0.515625
1696252191016,-0.66064453,-0.043518066,0.81048584,-1.109375,-1.15625,-1.125
1696252191058,-0.6582031,-0.031555176,0.8251343,0.71875,-0.890625,-1.75
1696252191098,-0.66748047,-0.03253174,0.8600464,1.75,1.453125,-1.15625
1696252191137,-0.6513672,-0.051086426,0.8583374,1.1875,2.53125,0.53125
1696252191178,-0.6569824,-0.04937744,0.87298584,4.75,3.515625,2.609375
1696252191218,-0.66625977,-0.09234619,0.8283081,-2.1875,0.421875,3.390625
1696252191258,-0.65185547,-0.019348145,0.83880615,-3.9375,-0.46875,-1.53125
1696252191296,-0.6838379,-0.0044555664,0.85809326,-1.859375,0.625,-0.0625
1696252191337,-0.64331055,-0.044006348,0.83758545,-0.671875,3.328125,1.25
1696252191378,-0.6303711,-0.06036377,0.8161011,-2.984375,1.359375,1.234375
1696252191417,-0.6369629,-0.020568848,0.8534546,-0.96875,-3.65625,-1.625
1696252191459,-0.6479492,-0.033996582,0.84417725,3.21875,-3.921875,-1.25
1696252191496,-0.6369629,-0.04156494,0.824646,1.890625,-4.765625,-0.28125
1696252191538,-0.66748047,-0.043762207,0.82855225,1.171875,-4.53125,1.515625
1696252191578,-0.68115234,-0.04888916,0.8319702,1.59375,-2.46875,0.53125
1696252191620,-0.65478516,-0.051818848,0.85272217,0.140625,1.21875,-0.375
1696252191658,-0.6501465,-0.042541504,0.84173584,-1.65625,0.671875,-0.1875
1696252191699,-0.66381836,-0.034240723,0.8222046,-1.078125,-0.875,1.0625
1696252191738,-0.67089844,-0.051086426,0.8312378,-0.328125,0.109375,1.140625
1696252191776,-0.66259766,-0.047912598,0.8434448,-0.234375,0.75,0.078125
1696252191818,-0.66137695,-0.03692627,0.8422241,-0.515625,0.28125,-0.046875
1696252191837,-0.6516113,-0.028869629,0.84246826,0.125,0.984375,0.265625
1696252191876,-0.64819336,-0.035949707,0.83587646,-1.578125,0.484375,0.46875
1696252191917,-0.65893555,-0.03253174,0.85614014,1.046875,0.484375,0.65625
1696252191957,-0.67407227,-0.058898926,0.840271,0.703125,-1.0,1.28125
1696252191998,-0.6647949,-0.06304932,0.8373413,-0.625,-0.046875,0.0625
1696252192036,-0.6437988,-0.01763916,0.8554077,0.75,0.359375,-1.671875
1696252192077,-0.64941406,-0.024230957,0.8283081,-0.890625,-0.921875,0.359375
1696252192117,-0.6525879,-0.04425049,0.8390503,-0.4375,0.125,1.3125
1696252192156,-0.66186523,-0.046936035,0.84051514,0.046875,-0.15625,1.09375
1696252192218,-0.64941406,-0.046691895,0.8432007,0.484375,-0.71875,-0.328125
1696252192235,-0.6516113,-0.040100098,0.83636475,0.4375,-0.53125,-0.34375
1696252192277,-0.671875,-0.04034424,0.83343506,0.234375,-1.984375,0.484375
1696252192316,-0.6652832,-0.039611816,0.83270264,0.453125,-1.265625,0.34375
1696252192357,-0.6569824,-0.042053223,0.83343506,0.28125,-0.46875,-0.5625
1696252192399,-0.657959,-0.038879395,0.8407593,0.4375,-0.734375,-0.40625
1696252192459,-0.654541,-0.04425049,0.8456421,0.34375,-1.15625,0.4375
1696252192497,-0.6604004,-0.047180176,0.8287964,0.875,-1.265625,0.65625
1696252192537,-0.66137695,-0.04547119,0.836853,0.3125,-1.375,-0.25
1696252192556,-0.66430664,-0.03717041,0.84295654,-0.15625,0.734375,-0.265625
1696252192621,-0.6489258,-0.042297363,0.83587646,0.21875,1.171875,0.546875
1696252192638,-0.6550293,-0.057678223,0.81365967,-0.859375,-0.296875,1.296875
1696252192677,-0.6508789,-0.047668457,0.8290405,-0.921875,-0.578125,0.34375
1696252192717,-0.66064453,-0.04107666,0.8446655,0.734375,-0.546875,-0.046875
1696252192757,-0.66967773,-0.047668457,0.8473511,-0.515625,-1.421875,0.109375
1696252192796,-0.6582031,-0.036193848,0.83221436,-0.078125,-0.59375,-0.078125
1696252192839,-0.6574707,-0.034484863,0.83758545,-0.203125,-0.78125,0.140625
1696252192877,-0.65527344,-0.047424316,0.83343506,0.640625,-0.21875,0.09375
1696252192918,-0.65478516,-0.045715332,0.8317261,0.0625,-0.40625,0.171875
1696252192978,-0.65405273,-0.03668213,0.8461304,0.53125,-0.328125,-0.015625
1696252193016,-0.6713867,-0.039855957,0.83807373,0.65625,-1.4375,0.65625
1696252193036,-0.6635742,-0.04864502,0.8378296,0.046875,-0.921875,0.0
1696252193095,-0.657959,-0.047912598,0.8432007,-0.015625,-0.59375,-0.234375
1696252193099,-0.6640625,-0.03277588,0.8336792,0.390625,-0.171875,-0.265625
1696252193137,-0.66137695,-0.04888916,0.8331909,-0.359375,-0.890625,0.5625
1696252193216,-0.6633301,-0.059631348,0.8278198,-0.015625,-0.65625,0.265625
1696252193219,-0.65185547,-0.039367676,0.8344116,-0.28125,0.1875,-0.125
1696252193255,-0.6647949,-0.032287598,0.8414917,-0.75,-0.3125,-0.03125
1696252193295,-0.66748047,-0.035705566,0.83514404,-0.5,-0.75,0.15625
1696252193336,-0.6645508,-0.039123535,0.84246826,0.34375,0.15625,0.84375
1696252193376,-0.6530762,-0.053527832,0.8356323,0.078125,0.171875,0.625
1696252193417,-0.65234375,-0.04498291,0.836853,-0.1875,-0.484375,-0.0625
1696252193457,-0.65893555,-0.039611816,0.84295654,1.0,-1.25,-0.28125
1696252193495,-0.6677246,-0.045959473,0.83709717,0.078125,-1.5625,0.171875
1696252193537,-0.6687012,-0.04888916,0.8295288,-0.109375,-0.5625,0.359375
1696252193577,-0.6586914,-0.041809082,0.84417725,-0.203125,-1.46875,-0.328125
1696252193616,-0.65893555,-0.04034424,0.83709717,-0.125,-0.65625,-0.46875
1696252193658,-0.66186523,-0.034484863,0.8290405,-0.078125,0.109375,0.28125
1696252193696,-0.66015625,-0.050109863,0.83880615,0.078125,-0.015625,0.875
1696252193738,-0.66845703,-0.04522705,0.8317261,-0.390625,-0.125,0.59375
1696252193780,-0.6621094,-0.044006348,0.83392334,0.0625,0.171875,0.265625
1696252193817,-0.6706543,-0.045715332,0.8331909,0.671875,-1.46875,-0.015625
1696252193858,-0.6647949,-0.046691895,0.8253784,0.453125,-0.625,-0.640625
1696252193899,-0.6542969,-0.047424316,0.840271,1.890625,-2.046875,0.5
1696252193937,-0.6530762,-0.047424316,0.8283081,2.328125,-3.390625,0.34375
1696252193977,-0.67041016,-0.05230713,0.8319702,0.03125,-2.359375,0.109375
1696252194018,-0.671875,-0.04473877,0.83880615,-0.484375,-0.0625,-0.078125
1696252194054,-0.67529297,-0.05596924,0.82611084,-0.171875,0.203125,0.46875
1696252194096,-0.6726074,-0.054992676,0.8395386,0.109375,0.0,1.109375
1696252194137,-0.6647949,-0.06036377,0.8217163,-1.125,-0.578125,0.5
1696252194178,-0.66430664,-0.040100098,0.8329468,-0.265625,-0.375,-0.171875
1696252194218,-0.65527344,-0.038879395,0.84124756,-0.046875,-0.890625,0.078125
1696252194257,-0.6623535,-0.050598145,0.838562,-1.125,-0.234375,-0.046875
1696252194296,-0.6623535,-0.047180176,0.83709717,-0.171875,-0.140625,0.34375
1696252194337,-0.66186523,-0.050109863,0.82733154,0.0625,-0.8125,0.453125
1696252194379,-0.67456055,-0.051574707,0.82147217,-1.234375,-1.640625,0.71875
1696252194395,-0.68115234,-0.038635254,0.81951904,-0.5,0.671875,-0.09375
1696252194437,-0.67163086,-0.047912598,0.8395386,-0.390625,1.125,-0.03125
1696252194498,-0.66381836,-0.04815674,0.8656616,-1.828125,3.828125,0.125
1696252194515,-0.654541,-0.04840088,0.84198,-2.140625,4.765625,1.140625
1696252194580,-0.6479492,-0.041809082,0.84661865,-0.53125,2.515625,1.125
1696252194595,-0.6262207,-0.02911377,0.84295654,-2.78125,0.984375,-0.15625
1696252194637,-0.66748047,-0.026428223,0.82196045,-2.84375,-3.3125,0.6875
1696252194676,-0.6726074,-0.04083252,0.8317261,1.15625,-3.265625,1.265625
1696252194738,-0.6538086,-0.05230713,0.81951904,3.4375,-3.0,-0.34375
1696252194782,-0.6508789,-0.03277588,0.82147217,3.9375,-3.984375,-1.453125
1696252194795,-0.65844727,-0.034484863,0.83636475,2.5,-3.6875,-0.40625
1696252194859,-0.6672363,-0.03668213,0.84246826,0.59375,-1.328125,0.53125
1696252194875,-0.6628418,-0.07598877,0.83929443,-0.40625,0.46875,1.578125
1696252194938,-0.67456055,-0.06060791,0.8461304,-0.265625,-1.28125,0.140625
1696252194976,-0.6645508,-0.03643799,0.8217163,-1.421875,0.359375,-0.6875
1696252194994,-0.6699219,-0.027648926,0.82977295,-1.140625,0.5,0.71875
1696252195036,-0.66015625,-0.045959473,0.836853,-0.171875,0.203125,1.078125
1696252195099,-0.670166,-0.05255127,0.82489014,0.09375,-0.40625,0.1875
1696252195115,-0.6633301,-0.038635254,0.8353882,-0.359375,-0.890625,-0.15625
1696252195157,-0.66430664,-0.04107666,0.836853,-0.890625,0.546875,-0.296875
1696252195198,-0.6591797,-0.039123535,0.840271,-0.1875,0.5,0.59375
1696252195260,-0.6574707,-0.051574707,0.8397827,-0.078125,0.109375,0.4375
1696252195275,-0.66430664,-0.04888916,0.82977295,-0.25,-1.515625,-0.015625
1696252195336,-0.6542969,-0.04034424,0.82733154,-0.25,-0.796875,-0.21875
1696252195356,-0.6611328,-0.04498291,0.8319702,0.171875,-0.15625,0.015625
1696252195398,-0.6711426,-0.05718994,0.8356323,0.40625,-1.640625,0.296875
1696252195436,-0.65405273,-0.04473877,0.83758545,0.40625,-0.25,-0.4375
1696252195479,-0.6621094,-0.040100098,0.84417725,-0.171875,-0.953125,-0.171875
1696252195515,-0.6608887,-0.043273926,0.83026123,-0.171875,-0.703125,0.1875
1696252195559,-0.6635742,-0.037902832,0.83099365,-0.03125,-0.53125,0.46875
1696252195596,-0.6669922,-0.050842285,0.82366943,-0.046875,-0.078125,0.296875
1696252195658,-0.66430664,-0.04498291,0.836853,-0.640625,-0.59375,-0.15625
1696252195717,-0.6706543,-0.045959473,0.8397827,1.484375,-1.640625,0.109375
1696252195719,-0.6665039,-0.0413208,0.83807373,-0.546875,-1.09375,-0.234375
1696252195736,-0.6672363,-0.034729004,0.83270264,0.0,-0.625,-0.125
1696252195778,-0.66259766,-0.043518066,0.8270874,-0.40625,-0.640625,0.25
1696252195818,-0.6586914,-0.0491333,0.8305054,-0.484375,-0.59375,-0.046875
1696252195857,-0.67211914,-0.04815674,0.8348999,-0.3125,-0.625,-0.15625
1696252195898,-0.6682129,-0.046691895,0.8353882,-0.421875,-0.5625,-0.140625
1696252195937,-0.6748047,-0.02960205,0.8329468,0.015625,-1.09375,0.296875
1696252195977,-0.67211914,-0.040100098,0.8317261,-0.59375,-0.25,-0.046875
1696252196018,-0.6555176,-0.04425049,0.8239136,-0.25,0.515625,-0.078125
1696252196058,-0.6635742,-0.03668213,0.83880615,0.265625,0.671875,0.53125
1696252196096,-0.66259766,-0.044006348,0.82977295,-0.6875,0.984375,0.515625
1696252196136,-0.66552734,-0.04156494,0.84198,-0.625,1.71875,0.46875
1696252196176,-0.6647949,-0.039123535,0.855896,3.890625,2.3125,1.609375
1696252196215,-0.66748047,-0.07330322,0.8414917,3.703125,1.5625,2.96875
1696252196258,-0.65625,-0.06011963,0.8588257,2.5625,2.515625,1.078125
1696252196296,-0.6616211,-0.05328369,0.8456421,-0.71875,4.59375,0.734375
1696252196336,-0.6489258,-0.031311035,0.8356323,-2.5,6.765625,-0.453125
1696252196378,-0.62109375,-0.046447754,0.8488159,2.390625,6.3125,0.1875
1696252196418,-0.6088867,-0.05645752,0.8685913,-1.453125,-0.09375,-0.125
1696252196458,-0.6352539,-0.05670166,0.8493042,-2.53125,-3.9375,0.46875
1696252196496,-0.64038086,-0.047424316,0.8217163,-1.171875,-3.921875,0.0625
1696252196538,-0.64868164,-0.035217285,0.8336792,-0.296875,-4.546875,-0.515625
1696252196580,-0.6447754,-0.037902832,0.84002686,1.4375,-4.984375,-0.546875
1696252196616,-0.65844727,-0.057434082,0.8451538,2.421875,-5.640625,-0.40625
1696252196657,-0.6669922,-0.06085205,0.8383179,-0.0625,-5.953125,-0.09375
1696252196695,-0.66186523,-0.04864502,0.87005615,0.78125,-1.203125,0.03125
1696252196737,-0.6623535,-0.054504395,0.84173584,-0.53125,0.09375,-0.046875
1696252196777,-0.65722656,-0.05279541,0.8383179,-1.28125,-0.578125,-0.125
1696252196815,-0.6569824,-0.045715332,0.8434448,0.203125,-0.1875,0.625
1696252196856,-0.6635742,-0.054504395,0.840271,-0.828125,-0.140625,1.734375
1696252196899,-0.66430664,-0.055480957,0.8488159,0.234375,-0.640625,-0.359375
1696252196937,-0.6672363,-0.057922363,0.83880615,0.390625,0.125,-0.5
1696252196978,-0.66259766,-0.049865723,0.8305054,-1.140625,-0.3125,0.625
1696252197016,-0.6586914,-0.047424316,0.82073975,-0.15625,0.34375,0.5
1696252197037,-0.65625,-0.054260254,0.8456421,-0.0625,0.65625,0.046875
1696252197080,-0.65478516,-0.051574707,0.8397827,0.3125,-0.296875,0.703125
1696252197136,-0.6591797,-0.04522705,0.8451538,-0.796875,-0.75,0.375
1696252197156,-0.66381836,-0.043029785,0.84051514,0.28125,-1.203125,0.015625
1696252197197,-0.65405273,-0.043518066,0.8348999,-0.390625,0.078125,-0.3125
1696252197236,-0.6555176,-0.055236816,0.84710693,0.625,0.25,0.84375
1696252197277,-0.654541,-0.06549072,0.81903076,-0.671875,-1.453125,0.859375
1696252197337,-0.65771484,-0.03668213,0.8505249,1.796875,-0.078125,-0.578125
1696252197355,-0.66918945,-0.050842285,0.8287964,-0.28125,-1.796875,0.421875
1696252197396,-0.6489258,-0.05328369,0.84246826,0.0,-0.34375,-0.328125
1696252197460,-0.66381836,-0.047912598,0.83270264,-0.328125,-1.46875,0.359375
1696252197477,-0.65600586,-0.06011963,0.8395386,-0.359375,-0.078125,-0.03125
1696252197520,-0.6464844,-0.046203613,0.8204956,-0.234375,-0.375,-0.46875
1696252197579,-0.66748047,-0.046447754,0.84832764,1.40625,-1.046875,0.453125
1696252197617,-0.66259766,-0.05328369,0.83148193,-0.890625,-1.140625,0.578125
1696252197634,-0.66308594,-0.054016113,0.82244873,0.234375,-1.4375,0.03125
1696252197679,-0.65527344,-0.046691895,0.85858154,1.234375,0.28125,-1.28125
1696252197737,-0.6489258,-0.054016113,0.83343506,-0.828125,0.109375,0.421875
1696252197755,-0.6574707,-0.054260254,0.8427124,-1.046875,-0.3125,0.90625
1696252197800,-0.6645508,-0.049621582,0.83148193,0.140625,-0.21875,0.421875
1696252197837,-0.65234375,-0.047180176,0.8366089,0.265625,-0.328125,-0.359375
1696252197878,-0.66967773,-0.0569458,0.8446655,-0.359375,-1.375,0.28125
1696252197938,-0.65405273,-0.050598145,0.8383179,-0.890625,-0.28125,-0.171875
1696252197978,-0.66430664,-0.034973145,0.84368896,1.015625,0.203125,0.75
1696252197995,-0.65625,-0.05255127,0.8373413,-0.484375,-0.265625,0.375
1696252198036,-0.65844727,-0.053771973,0.8275757,-0.21875,-0.8125,-0.296875
1696252198098,-0.6611328,-0.038146973,0.8473511,-0.1875,-0.078125,0.125
1696252198117,-0.66137695,-0.039855957,0.8278198,-0.21875,-0.671875,0.4375
1696252198157,-0.6586914,-0.05230713,0.83758545,0.09375,-0.71875,0.203125
1696252198197,-0.65771484,-0.04888916,0.8475952,0.15625,-1.328125,-0.09375
1696252198238,-0.66674805,-0.06036377,0.8319702,0.0,-1.640625,-0.078125
1696252198278,-0.65893555,-0.05206299,0.83221436,0.34375,-1.0,-0.390625
1696252198316,-0.6599121,-0.049621582,0.8383179,0.25,-0.203125,0.3125
1696252198336,-0.6611328,-0.04522705,0.81951904,-0.96875,-0.5625,0.28125
1696252198379,-0.6687012,-0.054016113,0.84002686,-0.1875,-0.6875,0.0625
1696252198416,-0.6623535,-0.059143066,0.8319702,0.234375,-0.28125,0.140625
1696252198458,-0.6567383,-0.047180176,0.8410034,-0.640625,0.375,-0.078125
1696252198495,-0.66674805,-0.042297363,0.83709717,-0.109375,-1.375,0.21875
1696252198539,-0.66674805,-0.043518066,0.83587646,-0.125,-0.78125,0.28125
1696252198579,-0.65478516,-0.04888916,0.8353882,0.375,0.265625,0.34375
1696252198617,-0.6542969,-0.05303955,0.83026123,-0.5,-0.921875,0.0625
1696252198658,-0.66503906,-0.04547119,0.8239136,-0.46875,-1.703125,0.125
1696252198697,-0.66796875,-0.046936035,0.8451538,0.734375,-0.53125,-0.109375
1696252198738,-0.65966797,-0.054016113,0.8251343,-0.3125,0.046875,0.078125
1696252198780,-0.66430664,-0.046447754,0.8383179,-0.0625,-1.4375,0.734375
1696252198818,-0.66796875,-0.04840088,0.8283081,-0.46875,-1.296875,0.3125
1696252198857,-0.6550293,-0.043029785,0.83880615,0.125,0.515625,-0.984375
1696252198897,-0.6633301,-0.04937744,0.8234253,-0.875,-1.078125,0.265625
1696252198936,-0.6652832,-0.042541504,0.82928467,-0.578125,-1.03125,0.203125
1696252198976,-0.67285156,-0.054016113,0.83343506,0.375,-0.34375,0.90625
1696252199017,-0.6687012,-0.047180176,0.8241577,-0.546875,-1.40625,-0.15625
1696252199056,-0.66796875,-0.04058838,0.8180542,0.40625,-1.03125,-0.4375
1696252199097,-0.6645508,-0.040100098,0.8312378,-0.28125,-1.203125,-0.109375
1696252199137,-0.66308594,-0.04937744,0.8305054,-0.390625,-1.046875,0.078125
1696252199177,-0.6723633,-0.050842285,0.8361206,-0.328125,-0.765625,-0.203125
1696252199216,-0.66796875,-0.044006348,0.84002686,0.015625,0.421875,0.125
1696252199255,-0.6689453,-0.05255127,0.83026123,-0.234375,-0.109375,0.96875
1696252199298,-0.6677246,-0.035461426,0.8265991,-0.5,-1.296875,-0.375
1696252199336,-0.6682129,-0.02178955,0.83465576,0.15625,-0.78125,-0.703125
1696252199379,-0.66796875,-0.04473877,0.8341675,0.265625,-0.578125,0.265625
1696252199417,-0.66381836,-0.058166504,0.8192749,-1.0625,-1.015625,1.109375
1696252199456,-0.66308594,-0.043029785,0.8353882,-0.234375,-0.328125,0.09375
1696252199500,-0.6850586,-0.046447754,0.8395386,-0.265625,-0.9375,0.578125
1696252199540,-0.6706543,-0.047424316,0.8290405,-0.25,-0.046875,-0.484375
1696252199575,-0.6533203,-0.035217285,0.82928467,0.375,-0.984375,-0.125
1696252199618,-0.66308594,-0.027404785,0.82806396,0.625,-1.9375,0.15625
1696252199655,-0.6738281,-0.04547119,0.82855225,-0.03125,-1.015625,0.109375
1696252199676,-0.66967773,-0.05303955,0.82855225,-0.0625,-0.359375,0.375
1696252199717,-0.67089844,-0.046936035,0.8217163,0.109375,-0.640625,0.5625
1696252199758,-0.6694336,-0.040100098,0.8275757,0.9375,-0.984375,-0.34375
1696252199799,-0.6687012,-0.043762207,0.82684326,0.15625,-1.8125,-0.421875
1696252199839,-0.6738281,-0.034240723,0.8366089,-0.171875,-1.015625,-0.109375
1696252199876,-0.673584,-0.043518066,0.82562256,-0.03125,-0.765625,-0.015625
1696252199940,-0.65600586,-0.03668213,0.8295288,-0.1875,0.46875,-0.375
1696252199979,-0.670166,-0.038879395,0.824646,-1.59375,-0.671875,0.3125
1696252199996,-0.67456055,-0.042785645,0.82562256,-0.109375,-1.0,0.078125
1696252200035,-0.67211914,-0.05206299,0.8226929,0.15625,-0.328125,-0.09375
1696252200097,-0.6743164,-0.031555176,0.8397827,-0.78125,-0.640625,-0.234375
1696252200115,-0.68115234,-0.03277588,0.82244873,-0.546875,-0.390625,0.625
1696252200157,-0.6669922,-0.030090332,0.840271,0.4375,1.125,0.234375
1696252200196,-0.67041016,-0.043762207,0.8251343,-0.421875,-0.671875,0.53125
1696252200236,-0.66503906,-0.035949707,0.82928467,0.4375,-0.015625,-0.203125
1696252200276,-0.68066406,-0.040100098,0.82562256,0.359375,-1.203125,0.609375
1696252200317,-0.67944336,-0.043029785,0.8180542,-1.28125,-0.171875,0.78125
1696252200357,-0.66625977,-0.041809082,0.8265991,0.359375,0.765625,-0.5
1696252200398,-0.670166,-0.039123535,0.8192749,0.015625,-0.8125,-0.484375
1696252200459,-0.6682129,-0.03692627,0.8217163,-0.375,-1.03125,0.359375
1696252200497,-0.6755371,-0.042053223,0.82440186,0.125,-0.46875,0.421875
1696252200515,-0.6665039,-0.046936035,0.82733154,-0.046875,-0.078125,0.125
1696252200558,-0.67529297,-0.042297363,0.8275757,-0.078125,-0.828125,0.21875
1696252200597,-0.6713867,-0.03277588,0.83026123,0.03125,-0.859375,-0.296875
1696252200637,-0.66918945,-0.038635254,0.8222046,-0.046875,-0.890625,0.328125
1696252200676,-0.6628418,-0.041809082,0.82806396,-0.328125,0.234375,0.5
1696252200718,-0.6748047,-0.03692627,0.8290405,-0.09375,-0.765625,0.078125
1696252200766,-0.6738281,-0.04156494,0.8275757,-0.234375,-0.390625,0.015625
1696252200797,-0.6633301,-0.03277588,0.84198,0.125,1.015625,-0.171875
1696252200856,-0.6660156,-0.03765869,0.8344116,-0.90625,-0.578125,0.265625
1696252200876,-0.6640625,-0.030090332,0.8197632,-0.765625,-0.78125,0.109375
1696252200939,-0.6699219,-0.030090332,0.8305054,0.0625,0.046875,0.40625
1696252200978,-0.66552734,-0.051086426,0.8331909,-0.4375,-0.03125,0.46875
1696252200984,-0.670166,-0.04937744,0.83709717,-0.609375,0.28125,0.421875
1696252201016,-0.6669922,-0.035949707,0.8331909,-1.046875,2.1875,0.375
1696252201057,-0.6447754,-0.04058838,0.8685913,-3.625,5.09375,1.578125
1696252201097,-0.66503906,-0.019592285,0.8793335,-0.1875,2.28125,3.78125
1696252201137,-0.68188477,-0.042297363,0.81048584,0.65625,-1.59375,3.640625
1696252201177,-0.6357422,-0.03253174,0.81903076,2.03125,-0.03125,-0.71875
1696252201217,-0.66796875,-0.043762207,0.85565186,3.28125,1.421875,0.015625
1696252201256,-0.6647949,-0.049865723,0.8344116,1.1875,1.390625,0.921875
1696252201297,-0.6508789,-0.04937744,0.8451538,1.796875,2.9375,0.0
1696252201336,-0.6430664,-0.04083252,0.8554077,1.375,2.265625,0.359375
1696252201379,-0.6357422,-0.06011963,0.8463745,0.515625,2.21875,1.46875
1696252201417,-0.6459961,-0.06573486,0.868103,0.78125,2.140625,2.0
1696252201458,-0.65063477,-0.0647583,0.84588623,-1.078125,-0.203125,1.390625
1696252201496,-0.6381836,-0.032043457,0.8197632,2.625,-1.96875,-0.4375
1696252201537,-0.6274414,-0.038879395,0.82244873,1.046875,-9.1875,-0.4375
1696252201577,-0.64697266,-0.04473877,0.79803467,2.125,-7.609375,-0.921875
1696252201619,-0.6801758,-0.050109863,0.8348999,2.296875,-6.796875,0.171875
1696252201658,-0.6813965,-0.074523926,0.85443115,-0.140625,-3.0625,0.390625
1696252201696,-0.6435547,-0.07965088,0.8488159,-0.671875,-1.34375,-0.984375
1696252201740,-0.66430664,-0.057678223,0.84368896,-1.296875,-0.6875,-1.234375
1696252201778,-0.6713867,-0.047668457,0.8258667,-2.484375,-1.703125,0.28125
1696252201817,-0.6843262,-0.04888916,0.80682373,-0.3125,-0.515625,0.65625
1696252201856,-0.67041016,-0.05279541,0.83270264,0.40625,1.015625,-0.125
1696252201898,-0.657959,-0.07208252,0.84295654,0.0,0.203125,0.140625
1696252201943,-0.6516113,-0.04888916,0.8134155,-0.90625,-1.765625,-0.515625
1696252201976,-0.68237305,-0.032287598,0.836853,0.53125,-2.4375,0.390625
1696252202017,-0.6850586,-0.0635376,0.8253784,-0.0625,0.421875,1.21875
1696252202057,-0.6586914,-0.070373535,0.84051514,0.53125,0.96875,-0.109375
1696252202099,-0.65185547,-0.049621582,0.8173218,-1.65625,-0.78125,-0.90625
1696252202136,-0.6743164,-0.034973145,0.82366943,-0.109375,-0.375,-0.109375
1696252202178,-0.6850586,-0.054504395,0.83270264,0.578125,0.828125,1.46875
1696252202217,-0.6689453,-0.06793213,0.82196045,-0.375,-0.6875,0.890625
1696252202258,-0.6689453,-0.04937744,0.8407593,0.5625,-0.4375,-0.65625
1696252202276,-0.6608887,-0.042297363,0.8300171,-0.890625,-0.609375,-0.609375
1696252202317,-0.6711426,-0.047668457,0.83758545,-0.4375,-0.203125,0.171875
1696252202358,-0.6665039,-0.05303955,0.8234253,-0.828125,-0.203125,0.484375
1696252202397,-0.6611328,-0.05303955,0.8317261,0.625,0.1875,0.234375
1696252202438,-0.6711426,-0.051330566,0.8307495,0.4375,-0.71875,0.46875
1696252202482,-0.6711426,-0.0569458,0.836853,-0.1875,-0.9375,0.34375
1696252202516,-0.6682129,-0.03643799,0.82806396,0.03125,-0.953125,0.125
1696252202556,-0.6755371,-0.04937744,0.8258667,-0.828125,-0.90625,-0.328125
1696252202596,-0.6665039,-0.04937744,0.8283081,0.0,-0.21875,-0.34375
1696252202660,-0.6604004,-0.058898926,0.8307495,-0.125,-0.359375,0.6875
1696252202698,-0.66748047,-0.05255127,0.81781006,-0.484375,-1.640625,0.140625
1696252202717,-0.67749023,-0.043273926,0.8324585,0.375,-0.53125,-0.296875
1696252202759,-0.66674805,-0.042053223,0.8324585,-0.453125,0.984375,-0.578125
1696252202798,-0.6677246,-0.06085205,0.82366943,-1.15625,-0.734375,1.015625
1696252202860,-0.68310547,-0.06036377,0.83758545,0.65625,-1.578125,0.59375
1696252202876,-0.66503906,-0.054016113,0.82147217,-0.390625,-0.03125,-0.71875
1696252202920,-0.6689453,-0.039611816,0.840271,0.15625,0.0,-0.5
1696252202956,-0.6672363,-0.041809082,0.8217163,-0.25,-0.796875,0.609375
1696252203018,-0.673584,-0.05303955,0.8283081,0.1875,0.25,0.796875
1696252203056,-0.6738281,-0.06378174,0.83343506,-0.546875,0.859375,0.671875
1696252203097,-0.6538086,-0.051818848,0.8383179,0.0625,-0.171875,-0.59375
1696252203117,-0.6765137,-0.034729004,0.84173584,-0.203125,-1.015625,0.578125
1696252203157,-0.67041016,-0.04083252,0.8278198,-0.59375,-0.109375,0.625
1696252203198,-0.6616211,-0.054260254,0.8395386,0.96875,0.265625,-0.390625
1696252203242,-0.66674805,-0.055725098,0.84246826,-0.703125,-0.859375,0.53125
1696252203278,-0.670166,-0.049621582,0.83026123,-1.484375,0.140625,0.5
1696252203315,-0.6621094,-0.039611816,0.83270264,-1.34375,1.546875,0.015625
1696252203357,-0.66748047,-0.03692627,0.8353882,-0.328125,0.375,0.40625
1696252203398,-0.65185547,-0.05255127,0.8383179,-0.796875,0.0625,0.078125
1696252203461,-0.66381836,-0.035461426,0.83709717,0.265625,-0.90625,-0.375
1696252203487,-0.66430664,-0.04547119,0.82733154,0.0625,-0.75,0.25
1696252203516,-0.6748047,-0.053771973,0.82489014,0.171875,-1.453125,0.515625
1696252203581,-0.6672363,-0.04034424,0.84198,2.078125,-1.03125,-0.328125
1696252203595,-0.65893555,-0.051330566,0.8258667,-1.140625,-1.328125,-0.796875
1696252203618,-0.6608887,-0.02911377,0.83709717,0.03125,-0.6875,-0.53125
1696252203657,-0.6645508,-0.038635254,0.8341675,-0.46875,-0.40625,0.390625
1696252203698,-0.66430664,-0.059387207,0.83880615,0.703125,-0.046875,0.78125
1696252203738,-0.65356445,-0.05670166,0.83221436,-0.34375,-0.171875,0.3125
1696252203776,-0.6660156,-0.03765869,0.84295654,-0.640625,-0.5,-0.484375
1696252203816,-0.6665039,-0.04840088,0.8239136,-0.125,-0.421875,0.6875
1696252203858,-0.6557617,-0.039611816,0.8373413,-0.015625,0.265625,-0.109375
1696252203900,-0.6635742,-0.049621582,0.8265991,-0.421875,-1.140625,0.140625
1696252203937,-0.6569824,-0.03326416,0.83587646,0.03125,-0.421875,-0.3125
1696252203979,-0.66796875,-0.04083252,0.83392334,-0.28125,-0.21875,0.21875
1696252204019,-0.6730957,-0.04522705,0.8283081,-0.125,-1.09375,0.328125
1696252204057,-0.6796875,-0.050842285,0.8444214,0.28125,-0.796875,0.0
1696252204099,-0.66674805,-0.039123535,0.82806396,-0.03125,-1.125,-0.453125
1696252204138,-0.6616211,-0.028381348,0.8348999,0.078125,-1.078125,-0.578125
1696252204178,-0.67089844,-0.03717041,0.8143921,-0.921875,-0.8125,0.15625
1696252204218,-0.66796875,-0.035705566,0.8300171,0.65625,-0.921875,0.125
1696252204260,-0.67041016,-0.05596924,0.8324585,1.5,-0.34375,0.234375
1696252204299,-0.6640625,-0.043762207,0.84124756,0.40625,-0.453125,0.484375
1696252204336,-0.6711426,-0.03253174,0.82366943,-0.3125,-0.734375,0.59375
1696252204377,-0.6711426,-0.042053223,0.82244873,-0.53125,0.0625,0.296875
1696252204418,-0.66503906,-0.045715332,0.84246826,0.953125,0.140625,0.234375
1696252204457,-0.6567383,-0.06060791,0.8222046,-0.984375,-0.078125,0.375
1696252204499,-0.6611328,-0.03692627,0.8410034,0.234375,-0.375,-0.03125
1696252204537,-0.6821289,-0.035949707,0.83514404,-0.640625,-1.578125,0.734375
1696252204576,-0.671875,-0.04522705,0.82806396,-0.484375,-0.8125,0.21875
1696252204617,-0.6657715,-0.04840088,0.82611084,-0.234375,0.34375,-0.484375
1696252204657,-0.6689453,-0.03643799,0.8319702,-0.09375,-0.65625,-0.796875
1696252204697,-0.6682129,-0.0413208,0.82489014,-0.734375,-0.171875,-0.984375
1696252204737,-0.6660156,-0.02960205,0.84051514,-0.296875,1.078125,-0.921875
1696252204777,-0.6723633,-0.03375244,0.8239136,-0.09375,-0.53125,0.78125
1696252204816,-0.66796875,-0.047180176,0.8353882,0.359375,-1.265625,0.453125
1696252204856,-0.65893555,-0.024963379,0.8439331,-0.171875,0.109375,-1.125
1696252204896,-0.6687012,-0.027404785,0.822937,-2.25,-1.375,-0.265625
1696252204918,-0.66381836,-0.018127441,0.8356323,0.375,-0.25,0.296875
1696252204957,-0.6726074,-0.05255127,0.82855225,0.46875,-0.78125,1.109375
1696252205018,-0.66967773,-0.05645752,0.8373413,-0.890625,0.265625,-0.09375
1696252205035,-0.6723633,-0.04058838,0.8366089,-0.578125,0.859375,-0.15625
1696252205079,-0.66967773,-0.016418457,0.8673706,0.453125,2.734375,0.453125
1696252205118,-0.65185547,-0.040100098,0.85809326,1.921875,5.484375,3.53125
1696252205159,-0.61743164,-0.06036377,0.86151123,0.578125,3.625,4.46875
1696252205219,-0.6804199,-0.024230957,0.8505249,3.40625,-1.015625,0.953125
1696252205235,-0.70825195,-0.085754395,0.79022217,4.25,-1.765625,1.171875
1696252205280,-0.6245117,-0.057434082,0.81829834,-2.59375,0.125,-2.390625
1696252205319,-0.64501953,9.1552734E-4,0.8151245,-2.4375,-2.453125,-1.265625
1696252205356,-0.6582031,-0.04937744,0.8226929,0.0,-3.765625,0.921875
1696252205398,-0.6464844,-0.057922363,0.81829834,-0.265625,-4.046875,-0.265625
1696252205458,-0.6826172,-0.047424316,0.8341675,0.71875,-4.578125,-0.546875
1696252205476,-0.671875,-0.042053223,0.8468628,0.65625,-1.0,-0.625
1696252205519,-0.6538086,-0.047424316,0.8546753,0.03125,-0.109375,0.078125
1696252205558,-0.67993164,-0.055480957,0.83807373,-2.421875,-1.1875,0.546875
1696252205620,-0.65966797,-0.044006348,0.8173218,-1.09375,0.984375,0.328125
1696252205635,-0.6594238,-0.035461426,0.81707764,0.15625,1.3125,0.625
1696252205701,-0.6738281,-0.049865723,0.8414917,-0.296875,0.40625,0.875
1696252205716,-0.6682129,-0.062805176,0.8444214,0.34375,0.296875,0.953125
1696252205783,-0.6652832,-0.03302002,0.8336792,-0.625,-0.359375,-0.28125
1696252205815,-0.6672363,-0.0335083,0.8290405,-0.765625,-0.75,-0.125
1696252205837,-0.66259766,-0.050842285,0.822937,0.25,-0.09375,0.671875
1696252205878,-0.6567383,-0.057434082,0.82318115,-0.25,-0.09375,0.328125
1696252205918,-0.6538086,-0.043762207,0.83880615,0.375,-1.296875,0.28125
1696252205957,-0.65649414,-0.045715332,0.8300171,-0.0625,-0.359375,-0.046875
1696252206000,-0.66552734,-0.03717041,0.84198,-0.71875,0.078125,0.015625
1696252206035,-0.6784668,-0.04156494,0.83465576,-0.234375,-0.71875,0.5625
1696252206101,-0.6594238,-0.027648926,0.83587646,0.3125,1.984375,-0.484375
1696252206116,-0.66015625,-0.05718994,0.82440186,-0.375,-0.234375,1.234375
1696252206160,-0.65478516,-0.045715332,0.8341675,0.125,-0.859375,-0.109375
1696252206220,-0.66308594,-0.030334473,0.8395386,1.0625,0.265625,-0.21875
1696252206223,-0.66918945,-0.046936035,0.83221436,-0.90625,-0.609375,0.21875
1696252206259,-0.6713867,-0.041809082,0.8427124,0.375,-0.5625,-0.046875
1696252206297,-0.6496582,-0.04840088,0.8258667,-0.4375,-0.15625,0.328125
1696252206341,-0.65112305,-0.04473877,0.8356323,-0.25,-0.84375,-0.046875
1696252206377,-0.6713867,-0.043029785,0.8356323,0.015625,-1.78125,-0.140625
1696252206417,-0.6647949,-0.039367676,0.8336792,0.125,-0.0625,-0.078125
1696252206457,-0.6689453,-0.03668213,0.8378296,-0.328125,-0.203125,0.59375
1696252206496,-0.66381836,-0.05279541,0.8366089,0.078125,-0.125,0.109375
1696252206537,-0.6425781,-0.045959473,0.83270264,-0.296875,-0.0625,-0.359375
1696252206579,-0.6594238,-0.04522705,0.82440186,1.078125,-0.578125,0.578125
1696252206618,-0.67211914,-0.046691895,0.8312378,-0.484375,-1.59375,0.765625
1696252206657,-0.66748047,-0.047424316,0.8468628,0.796875,0.640625,0.203125
1696252206695,-0.66430664,-0.04449463,0.836853,0.0625,-0.75,0.171875
1696252206736,-0.6557617,-0.042297363,0.8295288,-0.609375,-1.140625,0.078125
1696252206776,-0.66308594,-0.03765869,0.8341675,0.421875,-0.953125,-0.109375
1696252206817,-0.65234375,-0.04815674,0.8348999,0.1875,-0.546875,-0.125
1696252206855,-0.6687012,-0.050598145,0.8307495,-0.109375,-0.921875,0.28125
1696252206897,-0.6652832,-0.04815674,0.8444214,-0.53125,-0.34375,0.40625
1696252206937,-0.65478516,-0.039611816,0.83929443,0.1875,-0.578125,0.046875
1696252206979,-0.66381836,-0.04473877,0.83514404,0.25,-1.1875,-0.171875
1696252207017,-0.6623535,-0.043518066,0.8239136,-0.59375,-1.046875,-0.015625
1696252207057,-0.6608887,-0.03375244,0.8329468,0.5,-0.484375,-0.375
1696252207096,-0.6713867,-0.04815674,0.84295654,0.53125,-0.265625,0.671875
1696252207139,-0.6713867,-0.054992676,0.83465576,-0.25,-0.578125,0.640625
1696252207179,-0.6640625,-0.049621582,0.8344116,-0.140625,-0.484375,-0.1875
1696252207219,-0.6665039,-0.034484863,0.8407593,-0.703125,-0.390625,-0.953125
1696252207256,-0.6604004,-0.027648926,0.8344116,-0.25,-0.28125,0.203125
1696252207298,-0.6669922,-0.0569458,0.83099365,0.03125,-1.109375,0.796875
1696252207339,-0.6677246,-0.053527832,0.82733154,-0.328125,-0.859375,0.125
1696252207376,-0.68066406,-0.039123535,0.83929443,1.609375,-1.375,-0.203125
1696252207417,-0.6755371,-0.054260254,0.8312378,-0.328125,-1.71875,0.171875
1696252207458,-0.6726074,-0.043762207,0.8353882,-0.390625,-1.421875,-0.296875
1696252207498,-0.66064453,-0.01739502,0.8395386,-0.578125,1.359375,-1.0625
1696252207538,-0.6750488,-0.06011963,0.809021,-0.625,-2.546875,0.5
1696252207556,-0.6647949,-0.04473877,0.8251343,0.796875,-1.5,-0.484375
1696252207616,-0.671875,-0.03717041,0.836853,-0.75,-0.546875,-0.078125
1696252207636,-0.6765137,-0.0335083,0.83465576,-0.96875,-1.015625,-0.546875
1696252207699,-0.6694336,-0.039855957,0.8226929,-0.21875,-0.3125,-0.34375
1696252207715,-0.67163086,-0.0413208,0.8341675,-0.15625,-1.3125,0.203125
1696252207758,-0.6713867,-0.042053223,0.82147217,-0.6875,-0.125,0.15625
1696252207797,-0.67529297,-0.034484863,0.8209839,0.5,-0.5,0.078125
1696252207836,-0.66137695,-0.047180176,0.8239136,0.0,0.359375,0.078125
1696252207876,-0.67871094,-0.039367676,0.8197632,-0.953125,-0.4375,-0.015625
1696252207919,-0.67407227,-0.032043457,0.83270264,-0.484375,-0.953125,0.09375
1696252207958,-0.67163086,-0.03765869,0.82977295,-0.21875,0.296875,0.421875
1696252207998,-0.6491699,-0.035461426,0.821228,0.203125,0.75,0.296875
1696252208040,-0.6645508,-0.03253174,0.8329468,-0.546875,-0.265625,0.359375
1696252208076,-0.6796875,-0.039367676,0.8397827,-0.59375,-0.203125,0.984375
1696252208118,-0.67163086,-0.039611816,0.8319702,-0.90625,0.328125,0.328125
1696252208157,-0.6694336,-0.031555176,0.824646,-0.375,-0.390625,-0.203125
1696252208201,-0.67407227,-0.036193848,0.8226929,0.0625,-1.59375,0.421875
1696252208258,-0.6635742,-0.03692627,0.82318115,-0.3125,-0.28125,-0.03125
1696252208297,-0.6586914,-0.04058838,0.8239136,0.28125,-0.21875,0.078125
1696252208337,-0.6760254,-0.034729004,0.82928467,-0.15625,-0.71875,0.3125
1696252208357,-0.6713867,-0.03741455,0.8324585,-0.125,-0.625,0.25
1696252208397,-0.670166,-0.03326416,0.8283081,-0.265625,-0.15625,0.15625
1696252208436,-0.6730957,-0.028137207,0.8307495,0.453125,-0.75,-0.078125
1696252208498,-0.6706543,-0.04107666,0.81781006,-0.109375,-1.125,0.28125
1696252208517,-0.6657715,-0.03375244,0.83465576,0.296875,0.0,0.015625
1696252208576,-0.6706543,-0.0413208,0.83343506,-0.03125,-0.53125,0.34375
1696252208597,-0.67749023,-0.035217285,0.8305054,-0.328125,-0.34375,0.28125
1696252208637,-0.67578125,-0.028625488,0.82025146,-0.03125,-0.359375,0.203125
1696252208677,-0.66796875,-0.030578613,0.824646,-0.484375,0.34375,-0.546875
1696252208718,-0.66796875,-0.02960205,0.8275757,-0.140625,-0.34375,0.25
1696252208759,-0.6689453,-0.042297363,0.8275757,-0.765625,-0.734375,0.5625
1696252208799,-0.66748047,-0.028625488,0.83514404,1.03125,-0.546875,-0.09375
1696252208838,-0.6645508,-0.03717041,0.8312378,-0.578125,-0.875,0.046875
1696252208858,-0.6633301,-0.027160645,0.83026123,-1.734375,-0.296875,-0.375
1696252208897,-0.66845703,-0.02911377,0.8414917,-0.546875,0.171875,0.453125
1696252208938,-0.6652832,-0.035461426,0.8356323,-0.734375,2.5625,0.84375
1696252208976,-0.6694336,-0.045959473,0.8410034,0.28125,2.375,2.046875
1696252209016,-0.66430664,-0.038391113,0.8410034,-1.765625,1.890625,1.515625
1696252209056,-0.6843262,-0.023742676,0.857605,-0.5625,2.375,1.0625
1696252209098,-0.6621094,-0.03643799,0.8270874,0.96875,-0.53125,1.109375
1696252209136,-0.64282227,-0.023498535,0.82611084,0.96875,-0.71875,-1.421875
1696252209178,-0.66064453,-0.03253174,0.8344116,1.71875,3.65625,-0.296875
1696252209217,-0.66186523,-0.03643799,0.8673706,3.859375,4.890625,2.640625
1696252209257,-0.6328125,-0.06036377,0.85980225,2.15625,1.859375,1.71875
1696252209299,-0.638916,-0.061340332,0.8649292,1.453125,1.90625,0.375
1696252209338,-0.6550293,-0.042053223,0.8378296,1.65625,0.21875,0.859375
1696252209376,-0.63012695,-0.04522705,0.84539795,3.703125,-0.234375,-0.09375
1696252209418,-0.62402344,-0.049865723,0.82928467,-0.234375,-8.09375,-0.90625
1696252209459,-0.67944336,-0.042785645,0.8082886,-1.6875,-6.78125,0.203125
1696252209496,-0.6594238,-0.04083252,0.81536865,1.125,-4.8125,0.171875
1696252209538,-0.6599121,-0.05279541,0.8290405,0.21875,-3.84375,1.328125
1696252209576,-0.6743164,-0.074523926,0.8512573,1.828125,-1.96875,1.75
1696252209619,-0.66845703,-0.06793213,0.83709717,-0.65625,-2.625,-0.734375
1696252209659,-0.6582031,-0.04083252,0.82928467,-1.484375,-0.265625,-1.234375
1696252209696,-0.6616211,-0.028869629,0.81903076,-1.234375,-0.390625,-0.453125
1696252209740,-0.67333984,-0.04498291,0.82855225,0.84375,0.171875,1.28125
1696252209783,-0.6513672,-0.06768799,0.8397827,0.21875,1.640625,1.21875
1696252209819,-0.6557617,-0.06329346,0.8414917,-0.953125,-1.3125,-0.046875
1696252209858,-0.6694336,-0.041809082,0.81829834,-0.390625,-2.515625,-0.34375
1696252209896,-0.6779785,-0.038879395,0.81170654,-0.046875,-0.640625,-0.25
1696252209937,-0.6687012,-0.05303955,0.82684326,-0.28125,0.25,-0.046875
1696252209977,-0.6623535,-0.062561035,0.8378296,-0.484375,-0.6875,0.28125
1696252210017,-0.66625977,-0.04522705,0.8222046,-0.59375,-0.328125,0.484375
1696252210057,-0.6689453,-0.04425049,0.8253784,0.015625,-0.3125,-0.015625
1696252210096,-0.670166,-0.039611816,0.8341675,-0.265625,-0.125,0.34375
1696252210179,-0.6687012,-0.047180176,0.836853,-0.078125,0.296875,0.3125
1696252210182,-0.6750488,-0.06036377,0.8173218,-1.171875,-0.546875,0.609375
1696252210195,-0.6713867,-0.04547119,0.83709717,1.0,-0.234375,-0.09375
1696252210258,-0.66552734,-0.044006348,0.82489014,-0.265625,0.15625,0.109375
1696252210276,-0.66308594,-0.034973145,0.8446655,-0.1875,0.171875,0.28125
1696252210318,-0.6657715,-0.046936035,0.82684326,-0.1875,-0.484375,0.65625
1696252210357,-0.66625977,-0.05206299,0.8336792,-0.21875,0.125,0.375
1696252210418,-0.66967773,-0.043273926,0.838562,0.34375,-0.28125,0.109375
1696252210437,-0.6706543,-0.04449463,0.83709717,0.046875,-0.96875,0.375
1696252210497,-0.66796875,-0.054260254,0.826355,-0.609375,-0.5,0.34375
1696252210517,-0.6665039,-0.04498291,0.84588623,0.125,0.28125,-0.265625
1696252210561,-0.65844727,-0.045959473,0.822937,-0.8125,-1.421875,-0.03125
1696252210597,-0.6582031,-0.033996582,0.8329468,-0.109375,-0.21875,-0.453125
1696252210641,-0.6628418,-0.04888916,0.83758545,-0.125,-1.03125,0.671875
1696252210677,-0.67163086,-0.061340332,0.8305054,-0.4375,-0.28125,0.9375
1696252210717,-0.6660156,-0.049865723,0.8456421,0.015625,0.90625,0.0
1696252210757,-0.6621094,-0.039855957,0.8344116,-0.34375,-0.09375,0.078125
1696252210800,-0.6657715,-0.045715332,0.8217163,-0.125,-0.5,0.625
1696252210838,-0.6652832,-0.054748535,0.83221436,0.046875,0.03125,0.75
1696252210879,-0.6542969,-0.038635254,0.8461304,0.09375,0.171875,-0.140625
1696252210918,-0.67089844,-0.03668213,0.83709717,0.40625,-0.765625,0.515625
1696252210958,-0.66625977,-0.049621582,0.83221436,-0.375,-0.453125,0.359375
1696252210997,-0.65844727,-0.053527832,0.8278198,0.484375,-1.140625,0.0
1696252211040,-0.66064453,-0.04449463,0.8324585,0.40625,-0.640625,-0.078125
1696252211097,-0.6652832,-0.04547119,0.8341675,0.046875,-1.15625,0.046875
1696252211116,-0.6711426,-0.04815674,0.82806396,0.1875,-1.5,0.40625
1696252211158,-0.66552734,-0.04815674,0.83392334,0.171875,-0.640625,-0.15625
1696252211202,-0.66748047,-0.041809082,0.84173584,0.796875,-1.578125,-0.21875
1696252211261,-0.66845703,-0.05206299,0.8344116,-0.6875,-0.984375,-0.4375
1696252211278,-0.65893555,-0.03668213,0.8295288,-0.15625,-0.03125,-0.09375
1696252211340,-0.673584,-0.04864502,0.82977295,0.546875,-0.25,0.96875
1696252211356,-0.66308594,-0.07354736,0.8410034,0.03125,0.421875,0.328125
1696252211398,-0.6687012,-0.045715332,0.8290405,0.0,-0.28125,-0.015625
1696252211457,-0.67529297,-0.019592285,0.8356323,0.4375,-0.59375,0.40625
1696252211476,-0.671875,-0.049865723,0.8139038,0.59375,-0.953125,0.390625
1696252211497,-0.6672363,-0.062072754,0.8173218,-0.3125,-0.75,0.640625
1696252211537,-0.64941406,-0.037902832,0.84417725,0.234375,1.03125,-0.578125
1696252211577,-0.6672363,-0.058166504,0.8290405,-0.421875,-0.515625,0.578125
1696252211622,-0.6689453,-0.046691895,0.8451538,0.609375,-0.640625,0.34375
1696252211656,-0.67407227,-0.044006348,0.8319702,0.484375,-1.75,0.234375
1696252211698,-0.66967773,-0.042297363,0.8422241,-0.515625,-0.40625,-0.484375
1696252211740,-0.6604004,-0.042053223,0.82977295,-0.359375,0.78125,-0.328125
1696252211779,-0.6611328,-0.05645752,0.8156128,-0.796875,-0.3125,1.015625
1696252211817,-0.6755371,-0.058654785,0.8395386,0.921875,-0.078125,0.921875
1696252211856,-0.66381836,-0.04547119,0.84002686,0.171875,-1.234375,-0.765625
1696252211897,-0.6713867,-0.03717041,0.8329468,-0.25,-1.078125,-0.71875
1696252211937,-0.6750488,-0.038635254,0.8317261,-0.703125,-0.609375,0.625
1696252211978,-0.6557617,-0.05230713,0.83099365,-0.359375,0.625,0.40625
1696252212017,-0.66308594,-0.05645752,0.82928467,0.03125,-0.328125,0.015625
1696252212060,-0.65893555,-0.047912598,0.83758545,-0.109375,-0.484375,-0.078125
1696252212098,-0.6726074,-0.050598145,0.8305054,0.015625,-1.359375,0.671875
1696252212136,-0.6760254,-0.038879395,0.8305054,-0.140625,-0.25,0.25
1696252212176,-0.66967773,-0.042541504,0.8344116,0.109375,0.3125,0.25
1696252212216,-0.66503906,-0.051086426,0.83270264,0.046875,-0.25,0.484375
1696252212257,-0.6555176,-0.05206299,0.824646,-0.609375,-0.015625,0.15625
1696252212297,-0.6623535,-0.045715332,0.83221436,0.109375,-0.578125,0.28125
1696252212338,-0.6652832,-0.042297363,0.8317261,-0.375,0.046875,-0.015625
1696252212378,-0.6640625,-0.053527832,0.83465576,-0.03125,-0.109375,0.609375
1696252212416,-0.6743164,-0.050842285,0.82806396,-0.484375,-1.734375,0.109375
1696252212457,-0.6687012,-0.04449463,0.83880615,0.390625,0.0,-0.265625
1696252212499,-0.65625,-0.04107666,0.82733154,-0.796875,-1.0,-0.359375
1696252212536,-0.6669922,-0.046203613,0.83807373,-0.015625,-0.46875,0.328125
1696252212578,-0.6604004,-0.055480957,0.83221436,-0.3125,0.84375,0.921875
1696252212620,-0.67456055,-0.05645752,0.85272217,-0.171875,3.265625,0.875
1696252212657,-0.65405273,-0.062072754,0.8619995,0.53125,6.375,2.421875
1696252212697,-0.625,-0.04083252,0.83343506,-3.375,0.6875,2.296875
1696252212738,-0.66967773,-0.018371582,0.8329468,-2.828125,-1.625,0.25
1696252212778,-0.6879883,-0.042297363,0.8361206,-0.984375,0.328125,0.0625
1696252212819,-0.6574707,-0.06866455,0.8187866,-0.8125,-1.71875,-0.765625
1696252212837,-0.68237305,-0.0413208,0.84832764,-0.96875,-1.546875,-3.109375
1696252212900,-0.62939453,-0.023010254,0.8632202,2.46875,-2.015625,-2.34375
1696252212917,-0.6281738,-0.035217285,0.822937,-0.390625,-6.015625,-0.359375
1696252212959,-0.65405273,-0.010314941,0.82244873,0.421875,-5.125,0.15625
1696252213019,-0.6713867,-0.046936035,0.807312,1.3125,-2.96875,0.9375
1696252213035,-0.66503906,-0.054504395,0.8390503,0.75,0.203125,1.59375
1696252213101,-0.671875,-0.042785645,0.8331909,-0.203125,-2.203125,0.59375
1696252213116,-0.67163086,-0.03643799,0.8480835,0.703125,0.734375,0.234375
1696252213179,-0.6694336,-0.03375244,0.8192749,-1.453125,1.46875,0.6875
1696252213219,-0.66967773,-0.038635254,0.8187866,-1.28125,0.5,0.109375
1696252213236,-0.6767578,-0.047424316,0.83514404,1.109375,2.46875,0.4375
1696252213277,-0.66625977,-0.057434082,0.8265991,-0.484375,0.34375,1.859375
1696252213317,-0.65234375,-0.033996582,0.8480835,0.46875,-0.671875,-0.328125
1696252213357,-0.6550293,-0.03668213,0.8434448,0.5625,-0.84375,-0.484375
1696252213419,-0.6672363,-0.035217285,0.826355,-1.5625,-1.09375,0.5
1696252213458,-0.6689453,-0.039855957,0.83099365,0.234375,-0.0625,0.109375
1696252213478,-0.65478516,-0.050109863,0.82806396,0.03125,0.203125,0.078125
1696252213538,-0.66259766,-0.04473877,0.84588623,0.53125,-0.03125,0.625
1696252213559,-0.66015625,-0.036193848,0.83026123,-0.46875,-0.09375,0.125
1696252213620,-0.6591797,-0.032287598,0.8434448,-0.046875,0.21875,-0.359375
1696252213636,-0.6608887,-0.04473877,0.838562,0.0625,-0.34375,0.3125
1696252213677,-0.67041016,-0.04522705,0.8373413,-0.171875,-0.828125,0.375
1696252213717,-0.6706543,-0.04888916,0.8353882,0.15625,-0.3125,0.4375
1696252213757,-0.6491699,-0.04522705,0.83221436,-0.15625,0.375,0.328125
1696252213798,-0.670166,-0.039611816,0.84588623,0.453125,-0.09375,0.5625
1696252213837,-0.65722656,-0.031066895,0.8446655,-0.203125,-0.28125,0.09375
1696252213900,-0.6582031,-0.047424316,0.8383179,0.5625,-0.328125,0.0625
1696252213937,-0.6442871,-0.04498291,0.8432007,0.390625,-0.3125,-0.28125
1696252213956,-0.6611328,-0.034973145,0.8451538,0.296875,-0.625,0.65625
1696252214020,-0.6621094,-0.043518066,0.8253784,-0.46875,-0.265625,0.703125
1696252214038,-0.6608887,-0.042053223,0.83514404,-0.0625,-0.3125,0.453125
1696252214100,-0.65405273,-0.049865723,0.8278198,-0.453125,-0.171875,-0.0625
1696252214115,-0.66308594,-0.042053223,0.8356323,0.015625,0.140625,-0.1875
1696252214136,-0.66674805,-0.04083252,0.84832764,1.46875,0.765625,0.453125
1696252214179,-0.64697266,-0.059143066,0.836853,-0.875,0.328125,1.25
1696252214218,-0.6530762,-0.039367676,0.84661865,-0.078125,-0.234375,0.09375
1696252214256,-0.66259766,-0.02935791,0.83148193,-0.0625,-0.390625,0.265625
1696252214298,-0.65185547,-0.046447754,0.8480835,0.25,0.484375,0.1875
1696252214337,-0.6525879,-0.05206299,0.83709717,-0.78125,-0.5,0.6875
