# Sensor type: Respeck
# Activity type: Miscellaneous movements
# Activity subtype: Normal
# Subject id: s2106809
# Notes: unprocessed
timestamp,accel_x,accel_y,accel_z,gyro_x,gyro_y,gyro_z
1696255111628,-0.05419922,-0.9920044,0.0602417,-0.734375,0.15625,-0.125
1696255111667,-0.048095703,-0.9976196,0.06097412,0.59375,-0.78125,-0.078125
1696255111709,-0.05078125,-0.99835205,0.06097412,0.6875,0.0625,-0.125
1696255111749,-0.046875,-0.9846802,0.06048584,1.46875,0.28125,0.09375
1696255111788,-0.040527344,-0.9924927,0.046813965,-0.015625,0.34375,0.046875
1696255111829,-0.04711914,-0.9866333,0.050231934,-0.53125,-0.21875,-0.140625
1696255111868,-0.038330078,-0.98883057,0.045837402,0.4375,0.25,-0.140625
1696255111908,-0.037841797,-0.9841919,0.054626465,-2.203125,-0.03125,0.015625
1696255111950,-0.041259766,-0.9854126,0.06854248,-0.984375,0.71875,-0.109375
1696255112008,-0.047851562,-0.99224854,0.09588623,4.375,2.1875,1.0625
1696255112029,-0.07324219,-1.0264282,0.059020996,8.46875,5.953125,3.390625
1696255112070,-0.12915039,-0.97662354,0.027526855,2.09375,8.765625,-0.1875
1696255112109,-0.040039062,-0.92633057,0.20599365,24.09375,19.0625,-2.28125
1696255112152,0.11035156,-0.9885864,0.04876709,23.25,8.5625,-4.21875
1696255112190,0.17211914,-1.079895,-0.17340088,-24.03125,-38.296875,-9.53125
1696255112230,-0.07885742,-1.2232056,-0.046203613,-14.59375,-52.0,-4.90625
1696255112293,-0.3022461,-1.3543091,-0.17803955,1.984375,1.71875,13.046875
1696255112309,-0.5539551,-0.7647095,0.29656982,18.078125,21.78125,0.296875
1696255112329,0.07519531,-0.70880127,-0.13922119,-6.46875,48.4375,-9.125
1696255112368,0.34399414,-0.66607666,-0.036193848,-3.96875,16.515625,-32.234375
1696255112409,0.037597656,-0.737854,-0.3945923,-9.359375,-27.578125,6.828125
1696255112449,0.008056641,-1.0432739,-0.058654785,-9.78125,-35.125,30.015625
1696255112489,-0.24169922,-1.572815,0.262146,2.15625,1.65625,12.03125
1696255112529,-0.21020508,-1.079895,0.1708374,7.21875,-4.265625,-13.609375
1696255112575,-0.091552734,-0.7620239,-0.06695557,-12.015625,46.8125,-4.953125
1696255112608,0.4260254,-0.6868286,-0.06524658,17.421875,5.34375,-15.765625
1696255112649,-0.103027344,-0.8242798,-0.1182251,-11.6875,-59.453125,5.859375
1696255112692,-0.42041016,-1.2146606,-0.025939941,-26.5625,-42.203125,21.71875
1696255112730,-0.5253906,-1.6016235,0.43328857,25.3125,20.015625,-6.65625
1696255112773,0.17089844,-0.815979,0.00579834,9.125,48.296875,-33.84375
1696255112810,0.30395508,-0.63238525,-0.26617432,-25.09375,32.734375,-18.421875
1696255112849,0.033203125,-0.42022705,-0.20904541,-25.0625,-56.015625,10.78125
1696255112893,-0.2939453,-1.3123169,0.29022217,-1.65625,-17.875,47.34375
1696255112931,-0.5136719,-1.6448364,0.5722046,18.1875,-5.1875,-17.453125
1696255112970,-0.29858398,-1.0371704,-0.08355713,-1.34375,7.28125,-21.78125
1696255113010,0.26342773,-0.8538208,-0.13800049,3.90625,58.28125,-8.921875
1696255113050,0.42236328,-0.6602173,0.0067749023,9.84375,10.421875,-0.375
1696255113090,-0.31884766,-1.0252075,-0.15386963,-9.34375,-54.40625,19.28125
1696255113129,-0.4284668,-1.2559204,0.16937256,-9.84375,-39.734375,6.640625
1696255113169,-0.23388672,-1.1829224,0.19769287,12.921875,4.484375,-3.90625
1696255113212,-0.19897461,-0.79815674,-0.15216064,24.875,36.421875,-1.984375
1696255113250,0.2849121,-0.55474854,-0.1338501,12.78125,13.90625,-14.75
1696255113290,0.2355957,-0.72125244,-0.03643799,18.84375,-20.921875,10.328125
1696255113331,-0.3815918,-1.3401489,-0.07305908,4.734375,-33.953125,33.734375
1696255113370,-0.5617676,-1.2158813,0.050964355,-4.515625,-18.625,21.625
1696255113410,-0.29296875,-0.881897,0.2008667,31.734375,9.984375,13.53125
1696255113449,0.15307617,-0.9624634,-0.0881958,5.0625,4.421875,15.140625
1696255113490,0.23168945,-0.9209595,-0.15338135,-13.984375,-6.984375,35.796875
1696255113531,-0.079589844,-0.8377075,0.042663574,20.015625,-1.296875,42.1875
1696255113612,-0.34814453,-1.065979,0.16668701,46.984375,-10.4375,30.109375
1696255113615,-0.25634766,-1.0391235,-0.21832275,26.375,1.546875,31.703125
1696255113629,0.49194336,-0.8115845,-0.3899536,42.53125,0.28125,39.109375
1696255113668,0.52783203,-1.1084595,-0.07330322,35.546875,12.515625,49.53125
1696255113710,0.3701172,-1.8753052,-0.28741455,-22.328125,7.828125,56.34375
1696255113749,0.0026855469,-0.9365845,-1.046936,5.96875,-22.015625,-1.34375
1696255113811,0.82006836,-1.3154907,-0.5930786,37.21875,55.296875,18.53125
1696255113829,0.88012695,-1.3010864,-0.42340088,11.5625,33.234375,8.6875
1696255113870,0.4963379,-0.99346924,-0.54351807,21.8125,16.453125,-0.296875
1696255113932,0.63061523,-0.97540283,-0.72857666,-5.8125,18.515625,-12.03125
1696255113948,0.54296875,-1.0759888,-0.41436768,-16.796875,9.25,-13.765625
1696255113990,0.42822266,-0.91851807,-0.50494385,-22.59375,-7.0625,-17.625
1696255114029,0.13061523,-0.8074341,-0.46661377,-30.34375,-1.78125,-23.65625
1696255114069,0.13061523,-0.99102783,-0.3633423,-32.515625,18.890625,-26.875
1696255114109,0.15576172,-0.7905884,-0.18780518,-37.3125,11.15625,-42.515625
1696255114150,0.13085938,-0.8230591,-0.19708252,-51.875,18.359375,-46.234375
1696255114189,0.18115234,-0.67193604,-0.26275635,-54.5,27.28125,-45.09375
1696255114254,-0.009277344,-0.39312744,-0.08477783,-47.765625,28.4375,-24.203125
1696255114269,0.1743164,-0.057922363,-0.058410645,-41.953125,15.40625,-18.0625
1696255114308,0.013916016,0.016296387,-0.12628174,-39.578125,-8.28125,-25.265625
1696255114350,-0.0026855469,-0.12359619,-0.105529785,-27.625,-7.65625,-19.28125
1696255114389,-0.118896484,-0.3875122,-0.13409424,-29.8125,-19.078125,0.203125
1696255114452,-0.45947266,-1.0982056,0.10809326,-13.109375,9.546875,47.328125
1696255114468,0.99121094,-2.0,0.50579834,32.171875,2.3125,1.46875
1696255114509,-0.079833984,-1.1414185,0.12738037,-2.765625,-28.234375,-35.796875
1696255114573,-0.24853516,-0.54278564,-0.05279541,-18.203125,-12.046875,-7.015625
1696255114590,0.046142578,-0.2654419,-0.10626221,21.953125,-13.109375,-3.703125
1696255114629,0.021484375,-0.6741333,-0.057434082,26.3125,-8.203125,12.71875
1696255114669,-0.011230469,-1.2268677,-0.0037231445,3.5625,-3.09375,38.3125
1696255114709,0.022705078,-1.1626587,0.008483887,13.203125,8.765625,19.28125
1696255114773,-0.03125,-0.45025635,-0.070617676,18.03125,5.84375,15.171875
1696255114789,0.04663086,0.17132568,-0.031311035,35.828125,-19.671875,30.921875
1696255114829,-0.076416016,0.35687256,-0.02911377,64.015625,-18.71875,46.953125
1696255114891,0.12084961,0.23553467,-0.24517822,68.34375,2.625,50.40625
1696255114907,0.28588867,-0.26885986,-0.35113525,54.265625,18.953125,50.359375
1696255114929,0.58154297,-0.9302368,-0.3164673,45.46875,11.625,59.125
1696255114971,1.517334,-2.0,-0.39971924,21.046875,-67.546875,35.703125
1696255115014,0.27563477,-1.0178833,-0.3057251,-2.234375,-23.9375,14.328125
1696255115052,0.16381836,-1.1362915,-0.3242798,-9.234375,-31.484375,-18.890625
1696255115091,0.6887207,-1.166565,-0.7542114,16.671875,17.984375,-22.640625
1696255115130,0.85009766,-1.3301392,-0.32208252,-37.3125,9.8125,-2.765625
1696255115170,0.2697754,-1.256897,-0.34942627,-36.15625,-20.78125,-42.03125
1696255115211,0.6821289,-1.8948364,-0.7461548,-4.53125,14.953125,-37.265625
1696255115250,1.0197754,-1.5125122,-0.28546143,-22.59375,-3.421875,-8.875
1696255115292,0.26513672,-1.2026978,-0.2720337,48.09375,-14.296875,-19.75
1696255115333,-0.4794922,-1.0147095,-0.3513794,-8.421875,-1.515625,-18.578125
1696255115370,-0.4975586,-0.7061157,0.06072998,-15.5,-5.71875,-13.765625
1696255115409,-0.110839844,-0.80303955,0.038024902,-11.421875,6.109375,-27.546875
1696255115450,0.08935547,-0.84259033,-0.14727783,-8.96875,41.5625,-32.171875
1696255115490,0.44335938,-0.7654419,-0.20147705,-15.453125,21.140625,-35.5
1696255115530,0.40673828,-0.9788208,-0.3743286,-28.328125,-22.34375,-27.703125
1696255115569,-0.024414062,-0.9812622,-0.33673096,-44.25,-32.71875,3.265625
1696255115608,-0.34594727,-1.0447388,-0.08380127,-18.078125,-12.609375,5.375
1696255115650,-0.1796875,-1.048645,0.24334717,-6.265625,-8.0625,-12.5625
1696255115690,-0.09301758,-1.0308228,-0.19293213,-1.15625,29.328125,5.703125
1696255115729,0.3947754,-0.9990845,0.04119873,3.625,27.171875,-17.359375
1696255115769,0.1665039,-1.039856,-0.44049072,-23.28125,-5.078125,-4.859375
1696255115809,0.0048828125,-0.69366455,0.009460449,6.609375,-13.96875,-5.9375
1696255115850,-0.33666992,-0.881897,-0.0037231445,-4.765625,-16.0,0.34375
1696255115891,-0.5600586,-1.1372681,0.43255615,4.609375,-23.53125,6.421875
1696255115932,0.16894531,-1.1218872,-0.36480713,-1.96875,22.421875,15.734375
1696255115972,0.07836914,-1.1741333,-0.27960205,15.375,35.453125,-9.4375
1696255116009,0.38232422,-0.8743286,0.15325928,33.484375,21.234375,3.40625
1696255116050,0.13330078,-0.63409424,-0.20220947,13.78125,-18.515625,8.71875
1696255116091,-0.24926758,-0.74176025,-0.0037231445,-35.28125,-30.140625,4.328125
1696255116131,-0.55200195,-1.2546997,0.10247803,20.578125,-14.171875,21.484375
1696255116169,-0.033203125,-1.125061,-0.19586182,18.75,47.46875,20.625
1696255116211,0.85913086,-0.7576294,-0.46392822,22.375,2.546875,-1.296875
1696255116229,0.28808594,-0.6506958,0.13812256,30.921875,-13.734375,18.203125
1696255116268,-0.3527832,-1.0947876,-0.46099854,16.890625,-42.203125,29.875
1696255116310,-0.56591797,-1.1248169,-0.24176025,-8.953125,-19.21875,30.828125
1696255116349,0.375,-0.8977661,-0.10723877,36.40625,8.21875,35.484375
1696255116388,0.020263672,-0.87872314,-0.269104,-18.359375,6.71875,45.171875
1696255116429,0.5202637,-1.2085571,-0.16534424,4.734375,-14.421875,40.359375
1696255116494,0.54663086,-1.4326782,-0.18634033,-9.921875,-6.015625,53.0
1696255116509,0.095214844,-1.4893188,-0.6087036,-4.203125,-10.6875,5.96875
1696255116550,0.8442383,-1.3904419,-0.36602783,17.4375,22.78125,19.1875
1696255116611,0.76171875,-0.90411377,-0.30645752,44.296875,44.5625,-7.609375
1696255116628,0.79467773,-0.9522095,-0.6033325,45.015625,44.0,-6.265625
1696255116690,0.9001465,-1.0447388,-0.70758057,10.984375,5.09375,-7.5
1696255116707,0.79296875,-1.0657349,-0.4048462,-7.984375,-25.984375,-21.296875
1696255116792,0.7663574,-1.1619263,-0.45684814,-16.390625,-17.859375,-41.046875
1696255116796,0.35253906,-0.70440674,-0.6831665,-53.09375,-26.1875,-45.125
1696255116830,0.27246094,-0.66534424,-0.46929932,-28.3125,0.25,-39.671875
1696255116869,-0.13305664,-0.35162354,-0.2576294,-52.453125,-19.1875,-37.546875
1696255116908,-0.099853516,-0.4824829,0.23895264,-7.078125,21.015625,-36.265625
1696255116950,0.18774414,-0.4595337,-0.42364502,-41.9375,-10.4375,-48.421875
1696255116990,0.25634766,-0.46173096,-0.1572876,-22.4375,-5.640625,-56.375
1696255117029,0.14941406,-0.68951416,-0.10357666,-47.796875,-39.578125,-31.765625
1696255117090,-0.31030273,-0.40411377,-0.059143066,-58.359375,-27.46875,-11.703125
1696255117110,-0.5336914,-0.36749268,0.21673584,-3.53125,21.03125,-3.171875
1696255117169,-0.017822266,-0.56622314,-0.14385986,-34.75,34.578125,-22.0
1696255117209,-0.055664062,-1.0745239,-0.089660645,-36.3125,14.390625,-13.375
1696255117228,0.3334961,-1.5674438,0.4389038,-16.859375,19.546875,5.46875
1696255117290,-0.08911133,-1.0613403,0.2994995,19.953125,13.640625,-25.5
1696255117308,0.019042969,-0.6069946,0.010925293,-14.140625,-10.34375,-35.3125
1696255117349,-0.23486328,-0.6211548,-0.070373535,-31.421875,-29.46875,-4.984375
1696255117390,-0.43579102,-0.90948486,0.17327881,-1.25,21.328125,18.34375
1696255117431,-0.31835938,-1.467102,0.44476318,9.453125,34.609375,14.53125
1696255117491,0.16870117,-0.86383057,0.2267456,1.671875,14.828125,-24.953125
1696255117509,0.049804688,-0.81695557,-0.00982666,2.359375,-6.515625,-1.359375
1696255117551,0.21313477,-0.9968872,0.14593506,5.4375,0.203125,18.203125
1696255117569,0.0056152344,-1.0115356,0.35980225,3.09375,-24.515625,11.390625
1696255117613,-0.37329102,-0.9385376,0.12957764,-11.25,-25.0625,19.1875
1696255117654,-0.21459961,-0.9968872,0.13031006,11.15625,-1.484375,-2.0625
1696255117689,0.01977539,-1.0806274,0.31976318,32.578125,12.25,0.296875
1696255117729,-0.15478516,-1.1067505,0.15081787,-3.9375,21.078125,15.9375
1696255117772,-0.21166992,-0.79400635,0.35614014,1.359375,5.890625,10.125
1696255117810,-0.8310547,-1.0388794,0.15814209,8.265625,37.984375,20.71875
1696255117851,-0.3515625,-1.0813599,-0.101379395,14.515625,94.515625,12.6875
1696255117892,0.13378906,-0.9937134,-0.11016846,24.421875,116.265625,6.03125
1696255117928,0.47998047,-0.8772583,0.12567139,23.96875,95.34375,12.265625
1696255117972,-0.10058594,-0.90826416,0.18914795,19.890625,68.484375,2.984375
1696255118009,-0.57910156,-0.847229,-0.06304932,-8.484375,38.078125,-3.953125
1696255118050,-0.71069336,-0.8401489,-0.17047119,-5.09375,60.75,-0.5
1696255118089,-0.4958496,-0.9277954,-0.17022705,-0.15625,103.625,22.390625
1696255118129,-0.06591797,-1.1204224,-0.089660645,-14.46875,87.609375,34.203125
1696255118171,0.20751953,-1.0994263,-0.08843994,4.421875,60.625,10.765625
1696255118209,0.12451172,-0.9680786,0.014831543,14.5625,28.421875,-4.1875
1696255118250,-0.15917969,-0.74420166,-0.2871704,-11.15625,5.9375,-1.3125
1696255118291,-0.0063476562,-0.9924927,-0.36383057,-4.21875,34.015625,15.4375
1696255118329,0.4555664,-1.5960083,-0.237854,16.015625,13.6875,29.640625
1696255118369,0.10131836,-1.2732544,0.05267334,6.671875,19.21875,-2.625
1696255118410,-0.041259766,-0.6824341,0.0848999,-11.78125,49.78125,-2.65625
1696255118450,-0.024414062,-0.6958618,-0.20489502,-13.46875,23.265625,11.40625
1696255118490,0.34301758,-1.2695923,-0.077697754,16.765625,56.4375,21.859375
1696255118529,0.27661133,-1.4026489,0.26116943,-5.25,41.453125,16.703125
1696255118569,-0.09887695,-0.77008057,0.2086792,-12.734375,32.890625,2.53125
1696255118610,-0.36450195,-0.43023682,-0.047424316,-12.046875,42.71875,-10.515625
1696255118650,-0.4189453,-0.62091064,-0.5444946,11.578125,49.296875,1.484375
1696255118692,0.26391602,-0.8870239,-0.047668457,-24.265625,79.96875,10.953125
1696255118729,0.564209,-0.8423462,0.09710693,9.171875,68.65625,-0.765625
1696255118770,0.040771484,-0.82818604,-0.7251587,10.3125,21.265625,-32.4375
1696255118810,0.9145508,-1.546936,-0.6199341,82.265625,36.625,34.28125
1696255118852,0.6398926,-1.3550415,0.24188232,-37.5,-0.1875,27.734375
1696255118869,-0.015625,-0.87506104,-0.2156372,-34.453125,-93.265625,10.78125
1696255118910,-0.25854492,-1.3374634,-0.24053955,12.703125,-40.734375,-21.171875
1696255118955,-0.25073242,-1.2437134,-0.23321533,1.375,6.296875,17.375
1696255118989,-0.17285156,-1.3860474,-0.14385986,-11.390625,-6.421875,25.859375
1696255119031,-0.029541016,-0.7490845,-0.0095825195,-39.75,-2.25,-0.609375
1696255119071,0.12084961,-0.43292236,-0.074035645,-29.765625,3.71875,-29.6875
1696255119111,0.07373047,-0.33648682,-0.053771973,-5.71875,8.859375,-48.65625
1696255119151,-0.0847168,-0.47052002,-0.017150879,5.921875,-7.109375,-33.59375
1696255119190,-0.32910156,-0.5298462,-0.47174072,-14.234375,-9.625,-22.28125
1696255119230,-0.4230957,-1.5046997,-0.09552002,-22.9375,48.578125,2.34375
1696255119270,1.9309082,-2.0,0.09979248,41.296875,40.265625,12.4375
1696255119313,0.19165039,-1.0193481,0.20965576,0.703125,24.140625,-41.65625
1696255119350,-0.41259766,-1.003479,-0.15411377,-29.953125,7.296875,8.921875
1696255119392,-0.036621094,-0.81866455,-0.008605957,29.921875,-9.90625,8.203125
1696255119450,0.48535156,-0.72613525,0.2230835,9.5625,31.421875,7.953125
1696255119492,0.5422363,-0.81256104,0.10028076,-25.484375,0.875,12.78125
1696255119509,0.10571289,-0.723938,0.08831787,-6.71875,-25.140625,-7.5
1696255119571,-0.31323242,-0.6589966,0.23382568,-3.046875,-23.296875,-19.09375
1696255119589,-0.54785156,-0.7034302,0.16912842,-6.34375,12.796875,-8.0
1696255119628,0.048339844,-0.5918579,-0.16802979,-2.578125,34.125,5.3125
1696255119672,1.1542969,-2.0,-0.5742798,89.515625,11.640625,86.234375
1696255119709,0.75097656,-1.6748657,0.28118896,33.125,-3.34375,-22.421875
1696255119750,-0.90478516,-0.9246216,-0.6675415,-57.6875,-101.953125,9.9375
1696255119790,-0.9963379,-0.85040283,-0.19708252,-2.703125,-3.078125,-11.359375
1696255119828,0.16503906,-1.0169067,-0.13604736,69.640625,42.078125,7.140625
1696255119871,0.4411621,-1.0872192,0.06781006,-3.28125,-20.0,14.875
1696255119912,-0.053466797,-0.6380005,-0.17071533,-22.59375,-37.1875,6.890625
1696255119951,-0.29663086,-0.552063,-0.29840088,-18.328125,-25.40625,-5.5
1696255120013,-0.30615234,-0.61920166,-0.077697754,-9.15625,10.6875,-9.859375
1696255120029,-0.15893555,-0.77911377,0.02947998,-13.328125,10.078125,3.15625
1696255120091,0.08618164,-0.8687134,0.015808105,-32.171875,-17.203125,-1.0
1696255120108,0.18481445,-0.8501587,-0.3255005,-23.4375,-20.125,-21.65625
1696255120173,-0.2121582,-1.3980103,-0.062805176,17.234375,28.125,-2.109375
1696255120177,0.7163086,-1.8145142,0.50653076,-9.578125,0.921875,34.0625
1696255120215,0.8286133,-1.1494751,0.36419678,17.75,-32.375,-2.453125
1696255120249,-0.3713379,-0.95269775,0.11883545,-14.234375,23.78125,2.4375
1696255120291,-0.2133789,-1.40094,0.12322998,39.234375,12.9375,4.75
1696255120330,0.36645508,-0.7871704,0.15032959,17.546875,44.75,-17.28125
1696255120370,0.4267578,-0.48345947,0.055847168,27.171875,17.015625,-3.640625
1696255120414,0.24829102,-0.54107666,-0.04840088,8.703125,-1.5625,4.28125
1696255120452,0.18701172,-0.4121704,0.3703003,4.203125,-0.09375,-0.734375
1696255120490,-0.04296875,-0.5757446,0.073913574,9.953125,-15.984375,-11.25
1696255120529,-0.22241211,-0.7866821,-0.44366455,-11.890625,-23.625,-13.234375
1696255120571,-0.15844727,-1.404602,-0.33306885,-9.984375,4.125,-7.84375
1696255120611,0.9301758,-2.0,-0.302063,-1.359375,23.09375,4.21875
1696255120650,-0.012939453,-0.911438,-0.2942505,-37.375,-57.671875,-18.765625
1696255120689,-0.16821289,-0.7554321,-0.3320923,-39.65625,-84.515625,-25.90625
1696255120731,0.09863281,-1.135315,-0.19464111,47.78125,-22.359375,-1.6875
1696255120771,0.24414062,-1.2505493,-0.27520752,24.515625,-66.109375,4.75
1696255120810,0.07128906,-0.8274536,-0.22467041,-6.84375,-68.546875,-26.203125
1696255120849,-0.036376953,-0.35943604,-0.32696533,-7.328125,-98.53125,-25.234375
1696255120889,-0.05078125,-0.4512329,-0.30377197,16.90625,-99.34375,12.265625
1696255120930,0.31811523,-0.4180298,-0.16046143,15.640625,-92.171875,29.484375
1696255120993,0.39892578,-0.51885986,-0.23077393,3.390625,-119.171875,26.828125
1696255121008,0.6262207,-1.3833618,-0.53570557,11.890625,-127.1875,33.1875
1696255121049,0.20141602,-2.0,0.3522339,-1.890625,-72.578125,-6.28125
1696255121090,-0.4724121,-0.9439087,-6.1035156E-5,-29.4375,-49.609375,-23.328125
1696255121131,-0.024169922,-0.47735596,-0.21417236,-2.578125,-39.421875,-38.796875
1696255121169,0.055664062,-0.29693604,0.17059326,38.859375,-8.0625,-18.984375
1696255121212,0.44213867,-0.44073486,0.13397217,6.46875,-9.796875,11.59375
1696255121271,0.50097656,-0.6428833,0.11273193,-9.59375,-45.71875,5.921875
1696255121289,0.59814453,-0.87091064,0.074157715,7.125,-67.59375,3.53125
1696255121330,0.3762207,-1.2263794,0.04534912,12.328125,-77.375,25.421875
1696255121371,0.23046875,-1.9871216,-0.27911377,22.890625,-57.5,21.0
1696255121409,0.14282227,-1.4485474,0.010437012,22.96875,-26.125,-0.6875
1696255121451,-0.2631836,-1.2549438,-0.2913208,9.3125,-15.609375,2.8125
1696255121489,0.02319336,-0.45880127,-0.20196533,-7.71875,-15.984375,-4.328125
1696255121509,0.13232422,0.124938965,0.013122559,25.046875,-0.765625,15.75
1696255121572,0.053466797,0.3673706,0.15032959,58.28125,-11.84375,22.46875
1696255121591,-0.36523438,0.23553467,-0.10040283,31.765625,6.671875,17.1875
1696255121632,0.07006836,-0.2366333,-0.066467285,58.578125,13.828125,11.453125
1696255121670,0.37158203,-0.70635986,-0.4024048,53.546875,7.90625,37.125
1696255121709,1.0922852,-1.3152466,-0.16461182,52.484375,-15.703125,63.609375
1696255121771,0.08178711,-0.89508057,-0.23345947,27.90625,-27.734375,27.75
1696255121811,-0.024658203,-0.9429321,-0.3814087,20.140625,0.0625,22.234375
1696255121829,0.29125977,-0.5755005,-0.7178345,3.78125,15.375,4.8125
1696255121893,1.1298828,-0.46368408,-0.4036255,23.5625,-1.578125,8.0
1696255121909,1.2246094,-1.4324341,-0.36187744,-5.8125,-17.1875,21.046875
1696255121950,0.9338379,-1.2822876,-0.76348877,-10.6875,-61.71875,-2.265625
1696255121991,0.4140625,-0.8569946,-0.7070923,2.09375,-17.015625,-10.921875
1696255122030,0.59350586,-0.8201294,-0.4973755,2.328125,-9.59375,3.25
1696255122070,0.890625,-1.5247192,-0.70806885,-31.578125,-17.140625,13.453125
1696255122110,1.0144043,-1.3447876,-0.7210083,1.25,1.59375,-3.109375
1696255122150,1.234375,-1.2227173,-0.6668091,-15.1875,0.046875,-5.390625
1696255122211,0.8286133,-1.2236938,-0.59259033,-14.609375,18.953125,-18.828125
1696255122229,0.5859375,-1.2996216,-0.6856079,11.5,21.09375,-27.84375
1696255122270,0.6530762,-1.177063,-0.45513916,13.6875,32.21875,-13.25
1696255122309,0.703125,-1.0564575,-0.47808838,6.890625,21.5625,-13.625
1696255122370,0.5913086,-1.0584106,-0.4644165,-1.078125,14.5,-22.96875
1696255122388,0.38891602,-1.0193481,-0.46392822,-7.296875,12.96875,-22.59375
1696255122432,0.41796875,-0.9229126,-0.3501587,-16.140625,-3.953125,-26.609375
1696255122490,0.42114258,-0.77789307,-0.28302002,-14.046875,2.34375,-27.234375
1696255122508,0.2421875,-0.8093872,-0.2456665,-20.71875,0.828125,-32.234375
1696255122569,0.23413086,-0.6777954,-0.053527832,-23.140625,4.546875,-40.90625
1696255122594,0.099609375,-0.41119385,-0.12335205,-21.59375,11.3125,-37.234375
1696255122634,0.1574707,0.11175537,-0.300354,-39.359375,-8.8125,-27.140625
1696255122672,0.061035156,0.28729248,-0.3189087,-22.5,-7.15625,-18.34375
1696255122731,0.21704102,0.39178467,-0.073791504,8.796875,16.125,-11.78125
1696255122750,0.037597656,-0.36846924,-0.41558838,-21.046875,-8.09375,18.046875
1696255122789,0.15014648,-1.0918579,-0.3081665,2.203125,34.234375,29.984375
1696255122811,0.40454102,-1.7651978,0.05706787,26.078125,-3.28125,13.234375
1696255122850,0.43725586,-1.0322876,-0.0012817383,13.71875,11.53125,6.140625
1696255122890,0.2668457,-0.32330322,-0.12799072,15.140625,9.96875,5.015625
1696255122930,0.12084961,0.1005249,-0.2288208,14.3125,-30.953125,5.0625
1696255122968,0.1262207,0.02532959,-0.12554932,20.203125,-20.125,19.53125
1696255123011,0.06616211,-0.030090332,-0.10870361,28.0625,-1.625,35.390625
1696255123053,-0.060546875,-0.23492432,-0.12213135,38.328125,-3.125,41.484375
1696255123091,-0.05908203,-0.6880493,-0.45343018,30.0625,0.6875,45.78125
1696255123130,0.4243164,-1.2769165,-0.22808838,37.890625,2.34375,19.59375
1696255123169,0.7944336,-1.3389282,-0.21710205,27.5625,17.78125,35.34375
1696255123211,0.56762695,-0.83013916,-0.440979,-4.796875,-12.046875,21.15625
1696255123250,0.48364258,-0.86968994,-0.84552,-2.203125,-46.375,16.609375
1696255123291,0.91674805,-1.0215454,-0.6734009,11.84375,3.84375,27.375
1696255123330,1.3364258,-1.6694946,-0.71710205,-2.640625,-13.46875,11.71875
1696255123370,0.7260742,-1.4075317,-0.861145,-14.9375,-24.890625,-26.453125
1696255123410,0.66796875,-1.2739868,-1.1589966,-16.328125,-6.1875,-15.125
1696255123449,0.9536133,-1.447815,-0.95806885,-5.375,30.328125,-2.21875
1696255123490,0.92578125,-1.3916626,-0.66119385,-9.375,15.25,-24.546875
1696255123529,0.8300781,-1.1809692,-0.70513916,-9.28125,0.734375,-21.203125
1696255123570,0.67285156,-0.9663696,-0.51885986,-5.0,2.90625,-22.3125
1696255123609,0.39233398,-0.9746704,-0.472229,-4.390625,-6.125,-22.515625
1696255123650,0.26708984,-1.0044556,-0.48492432,-22.34375,8.09375,-15.75
1696255123690,0.3425293,-0.96343994,-0.39898682,-15.359375,4.296875,-26.9375
1696255123733,0.23413086,-0.95318604,-0.33062744,-18.84375,13.578125,-24.234375
1696255123768,0.2578125,-0.80670166,-0.27008057,-23.78125,10.671875,-29.5625
1696255123810,0.18383789,-0.6790161,-0.25738525,-26.96875,8.9375,-38.359375
1696255123853,0.2487793,-0.4890747,-0.16217041,-33.109375,6.9375,-39.6875
1696255123891,0.3227539,-0.16339111,-0.18902588,-29.578125,12.625,-35.46875
1696255123931,0.46313477,-0.06451416,-0.10650635,-35.484375,11.453125,-41.625
1696255123972,0.05029297,0.11077881,0.09442139,-17.71875,-17.25,-25.3125
1696255124011,-0.27172852,-0.062805176,-0.09185791,-3.78125,-19.578125,3.609375
1696255124049,-0.075683594,-0.4336548,-0.32720947,-18.671875,-8.796875,15.75
1696255124111,0.3395996,-1.3233032,-0.31304932,11.984375,19.78125,20.015625
1696255124129,0.41137695,-1.7019653,0.18109131,28.828125,-19.890625,16.421875
1696255124149,0.12695312,-1.0840454,-0.12408447,9.015625,-3.796875,12.140625
1696255124212,0.099121094,-0.6235962,-0.18048096,3.53125,20.4375,9.140625
1696255124252,0.042236328,-0.3032837,-0.21148682,15.84375,-7.21875,5.046875
1696255124270,0.056396484,-0.113586426,-0.04083252,36.171875,-4.4375,24.453125
1696255124310,0.06225586,0.029968262,0.038024902,42.28125,8.765625,38.171875
1696255124350,-0.06665039,0.09222412,-0.16656494,26.78125,-1.90625,32.78125
1696255124414,-0.11279297,-0.2354126,-0.18951416,30.765625,7.625,33.53125
1696255124429,0.12426758,-0.68829346,-0.30841064,31.359375,17.96875,41.171875
1696255124470,0.5031738,-1.1143188,-0.2564087,43.171875,3.5625,43.390625
1696255124511,0.75683594,-1.0852661,-0.24249268,26.71875,-5.828125,41.1875
1696255124574,0.59228516,-1.0071411,-0.2078247,-2.296875,-16.375,8.265625
1696255124609,0.53125,-1.0794067,-0.8665161,-19.25,-40.34375,2.390625
1696255124629,0.97387695,-1.352356,-0.8604126,8.734375,-32.4375,37.09375
1696255124690,0.9609375,-1.1958618,-0.302063,-11.5625,-6.15625,10.6875
1696255124709,0.8691406,-1.5859985,-1.0508423,1.78125,-19.9375,-12.453125
1696255124751,0.8129883,-1.4265747,-1.0108032,-14.90625,-5.734375,-3.734375
1696255124792,0.9880371,-1.2720337,-0.7876587,6.875,24.21875,-11.703125
1696255124830,0.77246094,-1.123352,-0.7402954,-2.828125,12.34375,-17.359375
1696255124871,0.6862793,-1.0564575,-0.7671509,-5.328125,8.125,-7.03125
1696255124911,0.6755371,-0.99420166,-0.5796509,7.03125,17.078125,-9.4375
1696255124955,0.6171875,-1.0166626,-0.5071411,3.140625,8.5625,-14.59375
1696255124991,0.48364258,-1.0012817,-0.5198364,-8.546875,1.828125,-20.546875
1696255125032,0.4230957,-0.8845825,-0.41778564,-9.484375,7.78125,-19.671875
1696255125070,0.39868164,-0.8518677,-0.33843994,-16.546875,0.671875,-22.203125
1696255125112,0.30322266,-0.9614868,-0.40631104,-24.953125,-7.71875,-34.0625
1696255125150,0.21362305,-1.0127563,-0.43463135,-26.4375,-11.15625,-40.0625
1696255125190,0.27783203,-1.1470337,-0.28033447,-24.265625,5.71875,-32.796875
1696255125231,0.5703125,-0.9470825,-0.044006348,-11.875,24.625,-29.4375
1696255125270,0.20263672,-0.23809814,0.13372803,-48.890625,-22.546875,-35.921875
1696255125312,-0.18701172,0.5934448,-0.29644775,-58.203125,-41.0625,-32.6875
1696255125373,0.13745117,1.1432495,-0.07598877,-20.390625,3.03125,-56.171875
1696255125415,0.40429688,0.30340576,-0.1951294,32.5625,-9.6875,9.484375
1696255125428,0.18676758,-0.54351807,-0.5064087,-9.625,-43.328125,50.0
1696255125449,-0.4868164,-2.0,-0.41436768,-12.046875,22.59375,50.671875
1696255125490,0.73876953,-1.9880981,-0.08111572,43.1875,-39.046875,-28.421875
1696255125530,0.61621094,-1.3560181,-0.10357666,-12.25,15.375,20.140625
1696255125572,0.44848633,-0.710022,-0.14337158,9.859375,-16.71875,-27.828125
1696255125611,0.0041503906,-0.32965088,-0.043273926,12.8125,-55.515625,-31.59375
1696255125649,0.2097168,-0.43902588,0.018493652,-4.015625,-44.28125,11.796875
1696255125690,0.30078125,-0.7341919,0.016296387,4.921875,-39.546875,21.796875
1696255125730,0.20996094,-1.5859985,0.3048706,12.375,-45.234375,-32.859375
1696255125770,0.06982422,-1.2605591,0.15570068,5.734375,-23.71875,-49.703125
1696255125812,0.19042969,-0.82940674,-0.030090332,-3.078125,-16.21875,-34.078125
1696255125850,0.3479004,-0.5911255,-0.34381104,-22.28125,-60.140625,-29.4375
1696255125891,0.6101074,-0.95391846,-0.3892212,10.625,-67.296875,9.78125
1696255125931,-0.13305664,-1.3218384,-0.27105713,5.828125,-59.46875,18.53125
1696255125971,-0.09863281,-1.0234985,-0.26055908,8.09375,-87.78125,-22.609375
1696255126010,-0.27734375,-1.1582642,-0.39630127,4.265625,-63.546875,-29.171875
1696255126051,-0.0012207031,-0.9529419,-0.1572876,22.3125,-43.640625,-8.609375
1696255126090,0.29467773,-0.88653564,-0.2852173,22.90625,-78.4375,-6.0
1696255126131,0.31811523,-0.82891846,-0.24835205,5.65625,-112.453125,-19.296875
1696255126170,0.21972656,-0.7959595,-0.39361572,6.53125,-134.1875,-14.890625
1696255126209,0.0026855469,-0.76934814,-0.54351807,10.484375,-134.3125,-19.484375
1696255126250,0.038330078,-0.8032837,-0.43170166,33.015625,-124.890625,-30.1875
1696255126290,0.47045898,-0.75006104,-0.1873169,27.8125,-117.09375,-22.625
1696255126331,0.3569336,-0.9234009,-0.3098755,9.890625,-146.42188,-30.515625
1696255126371,0.099365234,-1.5320435,-0.28668213,-0.109375,-173.70312,-34.59375
1696255126410,-0.20727539,-1.3579712,-0.21246338,-0.375,-124.015625,-24.109375
1696255126448,2.4414062E-4,-0.6343384,-0.08453369,-8.59375,-112.65625,-32.03125
1696255126490,0.19091797,-0.32989502,-0.3838501,-9.0,-118.96875,-36.53125
1696255126531,0.17626953,-0.7192993,-0.911438,12.046875,-122.359375,-8.265625
1696255126570,-0.20654297,-1.4299927,-0.56329346,31.890625,-125.625,33.71875
1696255126611,-0.3947754,-1.4949341,-0.032287598,8.984375,-115.703125,-4.34375
1696255126651,-0.1496582,-0.8826294,-0.14630127,14.9375,-118.53125,-27.359375
1696255126691,-0.036865234,-0.70025635,-0.38555908,16.296875,-77.4375,-18.03125
1696255126729,0.02319336,-0.57940674,-0.41583252,32.515625,-94.96875,-1.796875
1696255126770,0.076171875,-0.47125244,-0.10455322,15.765625,-94.53125,4.1875
1696255126808,0.09423828,-0.5405884,-0.023498535,5.59375,-116.546875,-6.0625
1696255126830,-0.07397461,-2.0,-0.2703247,14.796875,-114.375,-1.03125
1696255126892,0.45898438,-1.7212524,0.2929077,30.375,-127.5,-31.625
1696255126909,-0.032958984,-1.0283813,-0.22369385,-12.609375,-116.84375,-37.671875
1696255126971,-0.11767578,-0.64508057,-0.028381348,0.0,-94.03125,-27.546875
1696255126990,-0.18969727,-0.49249268,0.046081543,-0.265625,-92.296875,-15.140625
1696255127030,0.07446289,-0.47125244,-0.24224854,-20.890625,-74.515625,-0.953125
1696255127070,0.9589844,-1.2393188,-0.6663208,23.859375,-102.59375,40.78125
1696255127111,0.6237793,-1.4260864,-0.2210083,47.515625,-138.23438,6.265625
1696255127152,-1.2255859,-1.7305298,-1.0281372,-18.03125,-200.60938,-32.9375
1696255127190,-1.0883789,-0.74713135,-0.042053223,15.609375,-63.3125,-21.859375
1696255127230,-0.0061035156,-0.5689087,-0.19708252,31.3125,-40.1875,1.6875
1696255127270,0.47436523,-0.4961548,-0.30670166,47.75,-64.46875,-1.1875
1696255127315,0.51220703,-0.6968384,-0.3008423,20.34375,-125.203125,-5.921875
1696255127371,0.2692871,-0.71051025,-0.25543213,15.25,-146.0625,-8.796875
1696255127390,0.28833008,-0.9175415,-0.26812744,38.609375,-130.32812,-3.21875
1696255127452,-0.69970703,-1.6917114,-0.06011963,-16.328125,-134.625,-33.328125
1696255127471,-0.28637695,-1.5437622,0.024597168,19.484375,-92.671875,-50.28125
1696255127532,-0.21118164,-1.0706177,0.25286865,-6.15625,-52.359375,-45.65625
1696255127549,0.09667969,-0.5811157,0.11029053,-6.6875,-70.078125,-26.78125
1696255127591,0.39526367,-0.34625244,-0.06768799,-27.28125,-64.765625,-4.75
1696255127629,1.279541,-1.1690063,-0.39801025,0.078125,-107.953125,20.703125
1696255127670,0.3791504,-1.1348267,-0.6296997,17.125,-140.57812,11.375
1696255127710,-0.6760254,-1.6589966,-0.8838501,-11.21875,-211.0625,-2.0
1696255127750,-1.1899414,-1.1729126,-0.2107544,14.203125,-85.46875,-27.78125
1696255127790,-0.13842773,-0.76812744,-0.23101807,-2.09375,-33.5625,8.890625
1696255127832,0.29248047,-0.76348877,-0.28277588,31.796875,-77.953125,-0.4375
1696255127871,0.4638672,-1.0112915,-0.027404785,22.59375,-121.125,-0.40625
1696255127910,0.30126953,-0.79107666,-0.42877197,7.140625,-162.45312,-12.59375
1696255127972,-0.068359375,-0.48223877,-0.46954346,4.40625,-144.01562,-2.75
1696255127990,0.23754883,-0.48394775,-0.2041626,30.921875,-117.46875,3.59375
1696255128052,-0.20874023,-1.2363892,-0.38580322,18.96875,-146.98438,-27.859375
1696255128055,-0.11621094,-2.0,0.2741089,21.015625,-119.328125,-32.0
1696255128090,-0.30151367,-1.3521118,0.14349365,-0.4375,-93.59375,-44.96875
1696255128129,0.17626953,-0.5967407,-0.09942627,-4.0625,-80.78125,-27.34375
1696255128170,0.37524414,-0.35650635,-0.059387207,0.96875,-69.890625,-16.265625
1696255128215,0.50927734,-0.54888916,-0.34991455,-26.0,-121.5625,-8.96875
1696255128250,0.55371094,-1.1519165,-0.47076416,5.890625,-146.17188,16.59375
1696255128290,-0.12426758,-1.5484009,-0.71221924,7.34375,-161.4375,17.453125
1696255128328,-1.0893555,-1.3677368,-0.29595947,-6.859375,-147.25,-36.859375
1696255128372,-0.6298828,-0.74591064,-0.031311035,7.71875,-61.265625,2.25
1696255128412,0.0703125,-0.6514282,-0.28302002,20.59375,-72.28125,-4.203125
1696255128450,0.26586914,-0.7979126,-0.1951294,28.703125,-104.4375,0.484375
1696255128489,0.33251953,-0.93536377,-0.22540283,13.84375,-136.4375,2.734375
1696255128530,-0.043945312,-0.78375244,-0.3880005,2.046875,-150.65625,4.6875
1696255128571,0.25634766,-0.77667236,0.062438965,21.046875,-109.46875,15.25
1696255128610,-0.19921875,-1.1135864,-0.3106079,15.734375,-141.65625,-25.78125
1696255128650,-0.31640625,-1.7976685,0.07562256,9.0625,-98.203125,-34.078125
1696255128690,-0.03149414,-1.3877563,0.2567749,5.65625,-84.59375,-30.59375
1696255128731,0.37158203,-0.7698364,-0.0071411133,4.484375,-90.09375,-24.84375
1696255128773,0.28857422,-0.4414673,0.018493652,-16.640625,-86.03125,-13.5
1696255128810,0.33789062,-0.4265747,0.066833496,-11.0,-98.03125,2.265625
1696255128850,0.100097656,-0.9290161,-0.6980591,-28.15625,-145.92188,15.171875
1696255128890,0.72631836,-1.6243286,-0.21710205,33.671875,-117.9375,6.546875
1696255128931,-0.58984375,-1.6323853,-0.44488525,-4.3125,-124.296875,-1.078125
1696255128970,-0.96899414,-0.8296509,-0.27886963,-13.78125,-79.765625,-18.8125
1696255129010,-0.43188477,-0.74884033,-0.07867432,7.5,-31.40625,-11.234375
1696255129049,-0.026367188,-0.881897,-0.11895752,38.828125,-17.984375,-1.609375
1696255129089,0.4621582,-1.2542114,0.0048217773,5.265625,-50.65625,5.78125
1696255129131,0.09301758,-1.0654907,-0.028625488,-6.390625,-72.609375,-4.25
1696255129171,-0.2006836,-0.65289307,-0.2185669,-8.09375,-70.9375,-2.1875
1696255129211,-0.23095703,-0.51934814,-0.16729736,5.265625,-64.90625,-4.0625
1696255129250,-0.1850586,-0.8916626,-0.019348145,10.15625,-21.3125,0.734375
1696255129289,0.10473633,-1.4417114,0.19989014,-4.078125,-23.890625,12.859375
1696255129337,0.04663086,-1.5877075,0.42156982,13.921875,-47.40625,-11.640625
1696255129369,-0.014160156,-1.0125122,0.11248779,-11.609375,-14.75,-14.859375
1696255129389,-0.010009766,-0.614563,0.066345215,-2.203125,-14.34375,1.84375
1696255129431,0.03857422,-0.6338501,0.11981201,13.390625,-6.640625,7.046875
1696255129491,0.0925293,-0.7451782,0.05340576,4.984375,11.21875,7.90625
1696255129508,0.10839844,-0.8101196,0.11029053,1.5,0.15625,10.03125
1696255129570,0.13500977,-0.8201294,0.07537842,8.28125,-1.296875,2.984375
1696255129591,0.012451172,-1.1184692,0.11541748,3.8125,4.9375,-9.578125
1696255129630,-0.025634766,-1.6013794,0.20428467,15.203125,25.765625,-5.234375
1696255129671,0.14013672,-1.5925903,0.09466553,-0.921875,10.4375,0.265625
1696255129708,0.1706543,-1.9341431,0.024597168,8.359375,11.15625,-1.9375
1696255129750,0.068115234,-1.2942505,-0.20587158,-10.171875,18.3125,-1.265625
1696255129789,-0.0146484375,-0.82354736,-0.32183838,-15.09375,23.296875,8.359375
1696255129849,0.19848633,-0.38165283,-0.24224854,-0.328125,11.234375,8.703125
1696255129891,0.079589844,-0.16168213,-0.1453247,-11.3125,0.921875,1.5625
1696255129909,-0.1953125,-0.19586182,-0.18121338,-23.484375,7.109375,-5.546875
1696255129948,-0.27294922,-0.27252197,0.013122559,-7.40625,24.46875,-7.359375
1696255129990,-0.12011719,-0.5466919,0.20843506,4.734375,34.640625,-1.40625
1696255130030,0.059570312,-0.7288208,0.2555542,8.765625,34.9375,11.109375
1696255130071,0.18432617,-1.640686,-0.019104004,-18.4375,-10.828125,22.578125
1696255130109,0.6826172,-2.0,0.635437,-4.078125,-36.53125,2.078125
1696255130152,-0.48046875,-2.0,-0.51812744,5.078125,0.78125,-29.296875
1696255130212,-0.06542969,-1.1060181,-0.10479736,10.34375,45.078125,-23.71875
1696255130228,0.13378906,-0.66778564,0.19158936,31.671875,44.515625,11.640625
1696255130269,0.048095703,-0.4751587,0.034118652,-4.609375,15.71875,12.796875
1696255130312,0.2705078,0.04437256,-0.015197754,-21.265625,-8.71875,-4.234375
1696255130372,0.12060547,0.41375732,0.014343262,-7.765625,-24.53125,-20.109375
1696255130412,0.026611328,0.44378662,0.047302246,9.84375,-0.015625,-19.875
1696255130428,-0.2446289,-0.22369385,-0.25274658,7.1875,20.015625,8.921875
1696255130470,0.25732422,-2.0,1.4164429,-77.671875,-0.03125,95.296875
1696255130531,0.7558594,-2.0,0.6454468,24.53125,-52.1875,-3.578125
1696255130570,-0.30200195,-2.0,-0.35650635,8.734375,6.109375,19.390625
1696255130589,-0.040527344,-1.6519165,0.12957764,0.46875,-1.484375,-17.921875
1696255130652,0.52319336,-1.2417603,0.03314209,23.234375,16.828125,-18.125
1696255130669,0.5529785,-0.7737427,-0.050598145,2.875,-29.046875,-8.578125
1696255130691,0.08544922,-0.30010986,-0.0029907227,-32.671875,-52.15625,-1.921875
1696255130731,-0.009765625,0.04095459,0.23846436,-13.421875,-45.953125,-15.859375
1696255130770,-0.2944336,-0.028381348,0.043395996,-6.859375,-38.921875,-23.640625
1696255130810,-0.37329102,-0.09869385,0.0680542,-13.96875,-18.109375,-8.78125
1696255130850,-0.10229492,-0.43023682,0.18353271,0.671875,23.484375,22.234375
1696255130891,0.011474609,-1.5159302,0.2399292,-12.703125,-2.734375,51.6875
1696255130937,0.36889648,-2.0,0.47821045,21.171875,7.0625,-49.28125
1696255130969,-0.3166504,-1.3882446,-0.27301025,-11.828125,36.921875,3.296875
1696255131011,-0.5012207,-1.1863403,-0.23052979,0.8125,59.125,3.90625
1696255131050,-0.12988281,-0.94073486,-0.26837158,0.1875,40.015625,-11.0
1696255131090,0.25854492,-1.0151978,-0.12945557,-1.421875,42.546875,-11.78125
1696255131131,0.18066406,-0.70440674,-0.15533447,9.53125,44.140625,-9.640625
1696255131170,-0.043945312,-0.4277954,-0.12896729,-0.28125,26.421875,-4.1875
1696255131233,-0.07861328,-0.17486572,0.02142334,-5.984375,22.734375,-3.1875
1696255131249,0.0026855469,-0.1260376,0.045837402,-1.34375,18.3125,2.515625
1696255131291,0.021972656,-0.19927979,-0.026428223,-0.484375,2.0625,16.5625
1696255131332,0.08935547,-0.9649048,-0.517395,-18.71875,12.984375,30.0
1696255131371,0.9069824,-2.0,0.91986084,25.109375,14.015625,14.859375
1696255131412,-0.025390625,-2.0,0.0014038086,2.390625,-58.4375,12.78125
1696255131449,0.2277832,-1.5049438,-0.68756104,21.953125,-41.453125,-21.109375
1696255131489,-0.014404297,-1.7634888,0.109313965,48.484375,-45.265625,-19.5
1696255131529,0.075927734,-1.2278442,-0.16070557,17.1875,-50.640625,-16.6875
1696255131569,-0.08569336,-0.7359009,-0.35162354,2.875,-55.796875,-42.703125
1696255131608,-0.33276367,-0.54571533,-0.3723755,-4.59375,-47.609375,-32.515625
1696255131648,-0.29125977,-0.11993408,-0.038635254,-31.84375,-20.40625,-2.203125
1696255131688,-0.3076172,0.27581787,-0.0569458,-23.921875,-2.09375,8.5625
1696255131728,-0.36376953,0.36688232,-0.12628174,-7.734375,-9.6875,-20.0625
1696255131768,-0.171875,-0.32232666,-0.14190674,-8.125,-9.3125,-20.796875
1696255131808,-0.33251953,-1.1514282,-0.11431885,13.96875,13.046875,15.421875
1696255131848,0.8901367,-2.0,-0.56500244,-20.671875,-4.359375,15.453125
1696255131909,0.25952148,-1.4505005,0.36688232,6.890625,34.875,-25.703125
1696255131929,0.11279297,-1.6235962,0.034851074,10.359375,9.5,-2.234375
1696255131971,0.21948242,-1.4346313,0.40374756,10.640625,-5.390625,18.953125
1696255131989,0.3713379,-1.0540161,0.19744873,22.921875,1.046875,20.46875
1696255132051,0.1640625,-0.61920166,-0.010314941,0.6875,-0.234375,-8.109375
1696255132069,0.030517578,-0.16680908,-0.066711426,-9.109375,-2.078125,-10.15625
1696255132131,0.16723633,0.10760498,0.02166748,10.375,-12.375,-1.390625
1696255132151,-0.083496094,0.32537842,-0.06768799,-4.890625,-7.65625,3.40625
1696255132191,-0.3569336,0.12371826,-0.2041626,-0.640625,-7.46875,-11.5
1696255132230,-1.0393066,-1.6585083,-0.4932251,-30.578125,32.875,25.015625
1696255132271,0.5305176,-2.0,1.7023315,64.171875,-12.640625,-36.046875
1696255132313,0.6088867,-1.109436,0.0138549805,-24.03125,-38.21875,-37.890625
1696255132352,0.026855469,-1.0872192,-0.2786255,6.03125,-11.171875,10.765625
1696255132390,-0.5397949,-1.5652466,0.23431396,-3.265625,-12.625,27.03125
1696255132451,-0.017578125,-1.2825317,0.11785889,3.40625,26.4375,3.796875
1696255132470,0.3046875,-0.7720337,-0.012756348,-9.109375,37.671875,-6.984375
1696255132512,0.38305664,-0.78985596,0.21795654,9.9375,10.828125,-15.859375
1696255132551,0.18701172,-0.8442993,0.21307373,1.15625,-1.203125,-1.21875
1696255132591,-0.01928711,-0.6026001,0.1618042,-18.046875,-2.890625,7.15625
1696255132652,-0.028564453,-0.2131958,0.02166748,-27.640625,-12.890625,-3.0
1696255132668,0.1430664,-0.09307861,-0.06549072,-30.546875,-8.359375,-9.390625
1696255132712,0.35327148,-0.42974854,0.27508545,-3.71875,11.734375,5.125
1696255132769,0.16113281,-1.7002563,0.16546631,-25.34375,-24.5625,44.421875
1696255132790,0.55078125,-2.0,0.43060303,-0.734375,-13.15625,-6.171875
1696255132852,-0.38061523,-1.8484497,-0.058410645,-11.953125,2.71875,9.484375
1696255132870,-0.52856445,-1.5379028,-0.35308838,-0.625,41.890625,-7.09375
1696255132910,-0.16699219,-0.7136841,-0.4282837,-7.703125,35.9375,-19.21875
1696255132951,0.19238281,-0.33917236,-0.21807861,9.328125,32.046875,-4.609375
1696255132991,0.08691406,-0.4421997,-0.04815674,8.34375,40.671875,10.984375
1696255133030,-0.012939453,-0.44976807,-0.06719971,-1.34375,13.390625,7.015625
1696255133071,-0.09838867,-0.31988525,-0.020812988,-0.609375,2.890625,-6.734375
1696255133112,-0.10546875,-0.3118286,-0.11212158,-3.28125,14.28125,-3.90625
1696255133174,0.0041503906,-0.73760986,0.023864746,7.28125,26.21875,22.59375
1696255133210,0.97216797,-2.0,-0.57525635,-31.734375,0.578125,26.6875
1696255133230,0.061035156,-1.6785278,-0.113586426,11.453125,-22.375,-17.796875
1696255133292,-0.34326172,-1.581604,-0.11627197,5.359375,6.921875,-17.765625
1696255133310,-0.10522461,-0.67852783,-0.010070801,15.84375,16.75,-17.0625
1696255133329,-0.01586914,-0.4915161,-0.31329346,16.59375,5.234375,-21.28125
1696255133371,0.041748047,-0.42999268,-0.23956299,9.15625,14.65625,-9.140625
1696255133411,-0.011962891,-0.4697876,-0.13848877,-11.5625,-3.71875,-0.828125
1696255133452,-0.12695312,-1.0125122,-0.35186768,1.53125,-34.5,-0.59375
1696255133490,-0.3371582,-1.467102,-0.24102783,11.5,-21.859375,-1.96875
1696255133531,-0.6699219,-1.1558228,-0.31036377,-7.453125,7.046875,-0.03125
1696255133572,-0.6538086,-1.0796509,-0.362854,-15.265625,30.640625,-5.140625
1696255133612,-0.24829102,-0.92926025,-0.41973877,-1.28125,42.09375,-4.984375
1696255133650,0.22094727,-0.97198486,-0.333313,10.875,28.875,8.71875
1696255133690,0.24121094,-0.960022,-0.25860596,-8.328125,12.53125,19.703125
1696255133730,1.0449219,-1.3389282,-0.020568848,2.59375,-9.46875,6.234375
1696255133769,1.0222168,-1.4607544,0.31170654,35.953125,-42.53125,-26.21875
1696255133812,0.35424805,-1.2710571,0.11590576,-16.015625,-35.265625,-9.734375
1696255133852,-0.28295898,-1.053772,0.03387451,-7.265625,-56.015625,-11.125
1696255133890,-0.4411621,-0.82696533,-0.07232666,2.578125,-19.125,-28.265625
1696255133935,-0.10449219,-0.36505127,-0.07720947,-13.875,22.890625,-21.34375
1696255133971,0.027832031,-0.20904541,0.054138184,-2.40625,35.65625,-0.140625
1696255134009,0.12646484,-0.24664307,0.06048584,-13.28125,17.890625,6.125
1696255134051,0.100097656,-0.33770752,0.105163574,-22.71875,-3.140625,4.609375
1696255134089,0.11987305,-0.8323364,0.246521,-34.09375,1.9375,12.609375
1696255134132,0.8449707,-2.0,0.31048584,-40.109375,-6.234375,23.4375
1696255134171,-0.04711914,-1.0735474,0.14715576,4.171875,2.203125,-11.625
1696255134211,0.053955078,-1.3237915,0.10638428,11.453125,-26.296875,11.625
1696255134249,-0.07788086,-1.2337036,0.34539795,5.296875,3.703125,25.625
1696255134289,0.3005371,-1.0960083,0.29852295,18.15625,-1.3125,-0.5
1696255134330,0.13769531,-0.69732666,0.31829834,-2.765625,-20.578125,-13.390625
1696255134371,-0.015380859,-0.2925415,0.14056396,-16.859375,-25.1875,-14.75
1696255134410,-0.060791016,-0.43145752,0.057556152,-20.25,-12.734375,-19.265625
1696255134450,0.07910156,-0.8345337,0.34881592,-13.53125,2.640625,-10.984375
1696255134491,0.6069336,-1.5791626,0.27947998,-0.890625,-30.796875,5.234375
1696255134530,0.36645508,-1.3399048,-0.12042236,-29.890625,-50.59375,4.890625
1696255134572,-0.049804688,-0.78253174,-0.09942627,-31.765625,-61.390625,9.859375
1696255134633,-0.6516113,-1.0977173,-0.035949707,0.421875,-63.25,-10.109375
1696255134637,-0.6472168,-1.3045044,-0.003479004,16.15625,-0.921875,-16.625
1696255134669,-0.31201172,-1.1223755,-0.059631348,5.640625,15.859375,-2.953125
1696255134753,-0.15429688,-0.8792114,0.03729248,15.546875,-16.265625,-1.6875
1696255134756,-0.025146484,-0.7620239,0.05633545,17.875,-34.859375,-3.28125
1696255134809,0.09887695,-0.7263794,-0.16119385,-26.578125,-34.828125,-4.109375
1696255134830,-0.07495117,-0.7481079,-0.024963379,-6.890625,-40.953125,-1.5
1696255134871,-0.18847656,-0.92803955,-0.0635376,3.515625,-50.6875,11.375
1696255134913,-0.24731445,-0.7942505,-0.049621582,-7.4375,-61.421875,20.625
1696255134972,-0.3659668,-0.8569946,0.09295654,6.390625,-45.890625,22.203125
1696255134989,-0.36767578,-1.0896606,-0.0134887695,-15.546875,-47.390625,15.484375
1696255135056,-0.18969727,-1.1865845,0.113464355,-8.03125,-35.953125,10.390625
1696255135071,-0.22460938,-1.3462524,-0.0015258789,4.0625,-41.765625,7.390625
1696255135109,-0.18652344,-1.3262329,0.0016479492,-5.109375,-37.484375,0.125
1696255135151,0.055419922,-1.1553345,0.10809326,-14.53125,-53.203125,3.390625
1696255135190,0.13232422,-1.1643677,0.14642334,16.640625,-65.421875,-11.96875
1696255135230,0.036376953,-0.9397583,0.15765381,23.875,-73.640625,-26.796875
1696255135271,-0.03100586,-0.67266846,0.15179443,2.546875,-78.359375,-13.796875
1696255135311,-0.103759766,-0.59869385,0.18499756,18.96875,-64.84375,3.78125
1696255135373,-0.056396484,-1.0979614,-0.004699707,48.140625,-42.078125,25.140625
1696255135392,0.22558594,-1.5369263,-0.10626221,19.15625,-50.734375,19.3125
1696255135453,0.2602539,-0.9920044,0.09588623,3.53125,-51.796875,-1.46875
1696255135469,0.008544922,-0.7908325,0.14227295,7.015625,-51.203125,-7.625
1696255135511,-0.3737793,-0.9741821,0.06488037,0.203125,-38.359375,-3.609375
1696255135551,-0.3955078,-0.9561157,0.11663818,7.671875,-3.609375,3.84375
1696255135591,-0.18066406,-0.8804321,-0.034484863,-11.796875,12.46875,7.5
1696255135651,0.09277344,-0.7307739,0.005554199,-10.828125,19.4375,1.921875
1696255135670,0.04272461,-0.57940674,0.0021362305,1.078125,33.078125,-1.96875
1696255135711,-0.3178711,-0.73321533,-0.253479,-7.671875,38.578125,2.203125
1696255135752,-0.3894043,-1.1746216,-0.12213135,4.265625,65.375,11.65625
1696255135792,-0.068359375,-2.0,0.018737793,-9.109375,88.09375,32.4375
1696255135832,0.32543945,-1.4331665,0.18841553,1.40625,86.984375,-13.390625
1696255135870,0.19238281,-0.7168579,-0.062805176,-18.59375,59.0625,-11.625
1696255135910,-0.03930664,-0.34576416,-0.13287354,-22.59375,37.625,5.875
1696255135931,-0.07080078,-0.3796997,-0.20440674,-13.78125,22.265625,24.015625
1696255135970,0.19677734,-0.5635376,-0.06817627,-18.578125,48.328125,29.703125
1696255136010,0.94311523,-0.9859009,0.21795654,-1.953125,35.671875,33.296875
1696255136053,0.4338379,-1.2368774,0.10858154,-14.171875,-4.28125,17.1875
1696255136090,-0.17480469,-1.2261353,0.29486084,-2.9375,-9.453125,27.578125
1696255136130,-0.2746582,-1.248352,0.1864624,-5.90625,-12.25,18.859375
1696255136170,-0.064453125,-1.1782837,0.20257568,4.078125,27.75,1.15625
1696255136210,0.3317871,-1.0755005,0.28460693,-0.46875,49.15625,-6.046875
1696255136251,0.5053711,-1.0545044,0.39691162,-5.0625,15.125,-9.625
1696255136290,0.37963867,-0.85723877,0.29241943,-5.296875,16.109375,-15.984375
1696255136331,0.2043457,-0.737854,0.2670288,-5.234375,28.0,-13.421875
1696255136371,0.036865234,-0.7402954,0.26727295,-10.0,29.796875,-12.28125
1696255136409,0.14746094,-0.9529419,0.09295654,-5.46875,24.46875,-12.15625
1696255136452,0.3232422,-1.7207642,-0.20562744,10.109375,-7.4375,24.6875
1696255136493,0.30639648,-1.3223267,0.24749756,19.46875,59.15625,4.984375
1696255136529,-0.6345215,-1.1311646,-0.050354004,-21.875,1.140625,14.90625
1696255136571,-0.53344727,-0.70977783,-0.33673096,-10.734375,37.84375,-21.59375
1696255136611,-0.007080078,-0.5635376,-0.20367432,25.59375,64.46875,-16.546875
1696255136651,0.10864258,-0.72320557,-0.15948486,5.953125,54.671875,15.796875
1696255136690,-0.029785156,-0.78375244,-0.27130127,-6.859375,23.5625,10.046875
1696255136732,0.05029297,-0.7962036,-0.21246338,1.015625,34.1875,-6.953125
1696255136770,0.16186523,-0.8399048,-0.18365479,-1.8125,35.21875,-3.109375
1696255136813,0.32885742,-0.9546509,-0.077941895,-1.3125,15.390625,16.984375
1696255136851,0.29956055,-1.1409302,-0.1897583,3.828125,-12.484375,18.390625
1696255136889,-0.18237305,-1.4431763,-0.22174072,-14.9375,-8.78125,7.4375
1696255136929,0.0031738281,-1.3025513,0.28631592,28.1875,43.359375,-0.5625
1696255136971,-0.010986328,-0.98028564,-0.117248535,20.140625,54.65625,-24.75
1696255137018,-0.17895508,-0.7522583,-0.3184204,20.65625,23.546875,-23.921875
1696255137050,0.103271484,-0.7005005,-0.3814087,-0.65625,21.46875,-4.625
1696255137091,0.23803711,-0.6411743,-0.23468018,3.328125,7.90625,0.15625
1696255137130,0.15649414,-0.7866821,-0.13897705,7.921875,-7.0625,5.4375
1696255137171,-0.04638672,-1.1226196,-0.19390869,-9.28125,-25.859375,3.765625
1696255137210,-0.5515137,-1.6726685,-0.2498169,-20.53125,-25.5,-10.921875
1696255137251,-0.6333008,-1.2478638,-0.18658447,-12.75,11.265625,-12.78125
1696255137269,-0.37451172,-0.9273071,-0.1453247,-10.765625,22.078125,-10.78125
1696255137310,-0.23999023,-0.8413696,-0.14654541,-4.40625,15.0,-13.984375
1696255137350,-0.12426758,-0.87335205,-0.07330322,-19.890625,22.15625,-5.984375
1696255137391,0.022949219,-0.7991333,-0.07476807,-7.921875,13.171875,5.328125
1696255137432,0.17553711,-0.8909302,-0.047424316,18.984375,2.53125,7.609375
1696255137471,0.39575195,-0.8928833,0.13226318,-2.546875,-1.125,3.328125
1696255137511,0.21801758,-0.95196533,-0.1560669,-21.6875,-9.453125,-13.296875
1696255137549,0.26586914,-1.5317993,0.4953003,11.8125,35.28125,21.265625
1696255137613,0.43725586,-1.8276978,0.08123779,0.8125,-11.578125,10.4375
1696255137629,0.16821289,-1.1963501,0.25091553,-2.90625,-5.921875,0.4375
1696255137673,0.29589844,-0.6890259,0.17230225,0.296875,-4.234375,9.15625
1696255137728,0.17822266,-0.4841919,0.02923584,10.328125,-22.578125,8.03125
1696255137749,0.08105469,-0.38238525,0.0045776367,3.78125,-0.921875,10.921875
1696255137792,0.018554688,-0.28619385,0.07122803,-13.625,6.921875,-3.015625
1696255137830,0.06518555,-0.43389893,0.14959717,-29.921875,-11.34375,-15.0625
1696255137891,0.2331543,-1.2932739,0.07562256,23.203125,-18.921875,-0.828125
1696255137908,0.22998047,-2.0,-0.10040283,-3.015625,1.171875,13.0625
1696255137971,-0.07836914,-1.1235962,0.19329834,-22.859375,-15.46875,5.75
1696255137990,0.16381836,-1.1887817,0.27557373,15.765625,-9.6875,9.5
1696255138030,0.23608398,-1.2398071,0.34320068,10.453125,1.484375,14.921875
1696255138073,0.2006836,-0.9458618,0.21087646,3.28125,-20.375,5.078125
1696255138112,0.04345703,-0.48809814,0.14984131,11.953125,3.75,-4.0
1696255138151,-0.051513672,-0.2522583,0.08050537,18.78125,31.75,-2.234375
1696255138190,0.13183594,-0.36846924,0.1408081,-0.765625,45.40625,6.515625
1696255138230,0.7368164,-0.7503052,0.11224365,-24.53125,13.125,-8.078125
1696255138270,0.83813477,-1.9595337,0.1630249,-31.484375,-34.65625,-29.765625
1696255138333,0.7338867,-1.2505493,0.058532715,8.578125,-4.0,11.25
1696255138351,-0.0041503906,-0.9619751,-0.48516846,-19.90625,-37.140625,26.921875
1696255138390,-1.168457,-1.7659302,0.4713745,-11.859375,-17.90625,20.25
1696255138434,-0.7175293,-1.0601196,-0.15655518,-3.03125,27.796875,-12.40625
1696255138474,-0.17041016,-0.9585571,-0.30718994,23.0,81.46875,14.78125
1696255138512,0.35864258,-0.9768677,-0.30670166,8.15625,55.3125,3.078125
1696255138573,0.0063476562,-0.90826416,-0.040100098,12.875,13.921875,21.09375
1696255138579,-0.038330078,-0.5630493,-0.093811035,4.34375,-14.671875,15.53125
1696255138612,-0.1274414,-0.3008423,-0.2852173,10.15625,1.78125,0.390625
1696255138649,-0.13916016,-0.37384033,-0.2720337,11.453125,38.03125,-7.671875
1696255138691,0.29516602,-0.88287354,-0.4890747,-47.78125,54.5625,-12.328125
1696255138730,0.48046875,-1.6704712,-0.26763916,2.875,20.3125,-1.15625
1696255138769,-0.19067383,-2.0,-0.4505005,0.078125,-45.890625,5.84375
1696255138810,-0.16235352,-1.0127563,-0.15338135,-11.1875,15.890625,10.3125
1696255138850,0.18457031,-0.9351196,-0.22857666,10.203125,-14.453125,-28.03125
1696255138889,-0.03881836,-1.0935669,-0.54473877,9.21875,-8.796875,-16.921875
1696255138930,0.021240234,-0.7620239,-0.06402588,9.71875,-8.390625,15.625
1696255138973,-0.022705078,-0.5652466,-0.0020141602,13.703125,-35.109375,13.859375
1696255139010,-0.18823242,-0.3340454,-0.10821533,-2.125,-40.421875,-8.984375
1696255139049,-0.18676758,-0.28936768,-0.17852783,6.03125,-17.421875,-18.984375
1696255139090,-0.21362305,-0.40753174,-0.30523682,18.28125,-5.375,-8.625
1696255139130,-0.54125977,-0.9414673,-0.3640747,3.140625,5.734375,3.46875
1696255139170,-0.43530273,-1.9185181,-0.46221924,-8.015625,24.65625,11.828125
1696255139210,0.38842773,-1.5947876,-0.6519165,-39.84375,47.46875,35.5
1696255139250,1.729248,-1.3067017,0.03387451,-75.453125,19.046875,-9.90625
1696255139292,0.29833984,-1.1629028,0.0038452148,80.90625,-50.328125,-27.171875
1696255139330,0.09716797,-1.0256958,-0.25933838,-23.828125,-70.859375,6.828125
1696255139370,0.22241211,-0.9470825,0.47210693,15.453125,-5.46875,15.9375
1696255139411,0.17602539,-0.8796997,0.0072631836,50.265625,-44.09375,4.046875
1696255139454,0.26171875,-0.76568604,-0.07159424,11.859375,-23.875,-1.171875
1696255139492,-0.064697266,-0.51153564,0.10272217,-21.96875,-28.265625,-3.265625
1696255139529,-0.36669922,-0.1873169,0.041931152,-41.625,-33.515625,4.578125
1696255139570,-0.41064453,-0.26470947,0.13909912,-54.75,-9.171875,19.484375
1696255139611,0.14208984,-0.62213135,0.17034912,-26.015625,45.953125,8.59375
1696255139652,1.999939,-2.0,0.024108887,47.109375,37.421875,8.53125
1696255139691,0.5083008,-1.071106,-0.26641846,14.296875,-52.578125,-31.921875
1696255139733,0.08959961,-0.6045532,-0.28399658,-38.171875,-4.5,6.21875
1696255139771,0.13989258,-1.0193481,0.14837646,35.640625,-8.140625,23.0
1696255139810,0.20605469,-1.3206177,0.5165405,39.328125,-1.4375,37.875
1696255139903,0.10131836,-0.97735596,0.17401123,-21.4375,-42.046875,-7.5
1696255139906,-0.05493164,-0.56817627,-0.028869629,-17.03125,-20.03125,-19.546875
1696255139911,0.26367188,-0.3093872,0.09051514,19.296875,26.640625,-13.671875
1696255139970,0.14477539,-0.1963501,0.21234131,0.96875,-4.234375,-2.4375
1696255139989,0.17993164,-0.3201294,0.030456543,-22.703125,0.46875,2.328125
1696255140070,0.28222656,-1.1375122,-0.24151611,-50.25,5.140625,20.09375
1696255140073,1.7458496,-2.0,-0.13311768,47.125,12.3125,20.375
1696255140110,-0.45263672,-1.6067505,0.52752686,23.25,52.1875,-39.46875
1696255140150,-0.75219727,-1.1799927,-0.3735962,2.765625,32.546875,-47.78125
1696255140189,-0.1821289,-1.0413208,-0.5952759,27.0625,75.578125,-8.484375
1696255140231,0.26391602,-0.8640747,-0.6255493,-12.328125,88.578125,39.0
1696255140270,0.4729004,-0.9199829,-0.26837158,-30.125,38.65625,22.15625
1696255140311,-0.051757812,-0.9690552,-0.3357544,-26.1875,56.6875,-20.3125
1696255140350,0.0041503906,-0.5393677,-0.18658447,-16.875,59.578125,-26.265625
1696255140391,0.21069336,-0.2744751,-0.09576416,-28.53125,48.515625,-15.125
1696255140453,0.46435547,-0.36749268,-0.2625122,-30.671875,11.203125,-0.859375
1696255140469,0.28930664,-0.7359009,-0.25616455,-26.46875,-30.40625,15.171875
1696255140511,0.0063476562,-1.8892212,-0.18829346,-5.171875,-33.34375,46.4375
1696255140552,0.19848633,-1.2744751,0.06414795,-2.890625,-96.09375,-16.296875
1696255140591,-0.701416,-1.4421997,-0.27496338,0.953125,-75.9375,-42.59375
1696255140632,-0.6530762,-1.2295532,-0.35235596,26.859375,-6.9375,-14.234375
1696255140692,0.1875,-1.0147095,-0.16363525,11.71875,-30.109375,-2.609375
1696255140732,0.31958008,-1.003479,-0.02935791,10.609375,-28.578125,-2.359375
1696255140750,0.29785156,-1.1170044,0.07977295,-3.453125,-62.5625,-28.015625
1696255140790,-0.22705078,-0.6577759,-0.024719238,-7.328125,-56.75,-31.609375
1696255140854,-0.5136719,-0.24102783,-0.03692627,-9.6875,-41.78125,1.765625
1696255140869,-0.25439453,-0.054748535,-0.13970947,16.171875,-38.40625,25.96875
1696255140911,-0.10571289,-0.36309814,-0.18658447,0.15625,-7.890625,15.53125
1696255140952,-0.28979492,-1.2622681,-0.051330566,-7.375,-10.96875,-7.078125
1696255140990,-0.13696289,-2.0,-1.2307739,21.421875,-22.328125,-9.1875
1696255141030,-0.055908203,-1.1968384,0.6469116,9.375,40.046875,-1.734375
1696255141071,0.09667969,-1.0435181,0.23065186,14.703125,15.953125,-14.421875
1696255141113,-0.35717773,-1.336731,-0.43218994,10.984375,-9.859375,-2.390625
1696255141172,0.32421875,-1.0073853,-0.26983643,-0.59375,-13.578125,26.84375
1696255141189,0.6845703,-0.87384033,0.1942749,6.0,4.3125,17.421875
1696255141210,0.39233398,-0.9729614,0.062438965,1.4375,-43.65625,-3.484375
1696255141253,-0.037597656,-0.98223877,-0.13116455,-24.1875,-40.421875,-14.265625
1696255141291,-0.18310547,-0.7246704,0.14154053,-28.15625,0.40625,-3.078125
1696255141330,-0.12109375,-0.1885376,0.46868896,-13.75,1.8125,2.75
1696255141370,-0.5366211,-0.2883911,-0.20489502,11.28125,-18.75,11.859375
1696255141413,-0.60595703,-1.0137329,-0.078186035,-5.453125,39.828125,22.140625
1696255141452,0.0859375,-2.0,0.32122803,82.96875,94.796875,57.296875
1696255141491,1.0830078,-1.1633911,0.06561279,-38.734375,5.875,-18.015625
1696255141533,0.73706055,-0.26397705,-0.24957275,-23.703125,16.546875,-27.890625
1696255141571,0.35473633,-0.517395,-0.11456299,6.375,10.484375,1.109375
1696255141611,-0.10083008,-0.9714966,0.38079834,-2.234375,6.734375,21.921875
1696255141653,-0.38964844,-1.8521118,0.49749756,-4.484375,-14.625,37.25
1696255141692,-0.14990234,-1.3757935,0.2597046,3.265625,34.796875,-37.0
1696255141733,0.28833008,-0.8152466,-0.28912354,-1.296875,59.71875,-31.8125
1696255141770,0.33691406,-0.5210571,-0.15777588,33.890625,30.265625,-7.625
1696255141811,0.23632812,-0.83306885,-0.4595337,7.09375,-32.328125,21.890625
1696255141851,-0.90478516,-0.8831177,-0.42095947,-58.0,8.546875,31.84375
1696255141891,-0.78564453,-1.0108032,-0.07476807,-8.75,83.890625,-7.59375
1696255141932,0.2121582,-0.9951782,-0.3303833,-2.65625,63.453125,-16.578125
1696255141970,0.48217773,-1.0493774,0.27215576,-19.015625,63.09375,5.34375
1696255142010,0.1538086,-0.9282837,0.31756592,5.09375,-18.265625,21.921875
1696255142053,-0.14697266,-0.8323364,-0.108947754,7.53125,-22.015625,-1.625
1696255142090,-0.001953125,-1.3872681,-0.20123291,1.609375,30.40625,-24.78125
1696255142132,0.52246094,-0.8220825,-0.37530518,8.1875,21.9375,0.265625
1696255142171,0.42236328,-0.6470337,-0.03717041,4.75,-91.125,15.828125
1696255142209,-0.6508789,-0.61798096,-0.34381104,-5.09375,-46.265625,0.828125
1696255142249,-0.7573242,-1.4400024,-0.6296997,37.21875,23.0,-6.828125
1696255142291,-0.079589844,-1.0054321,-0.1182251,19.796875,25.515625,4.59375
1696255142332,0.2602539,-1.2879028,0.0033569336,-1.015625,4.5,11.53125
1696255142371,0.15844727,-0.9902954,-0.05596924,8.734375,-11.640625,-24.484375
1696255142412,0.16186523,-0.57696533,-0.044006348,-3.65625,-6.453125,-22.890625
1696255142452,0.12646484,-0.35723877,-0.25860596,-9.640625,-31.640625,-2.984375
1696255142510,0.21655273,-0.74884033,0.08001709,52.015625,-8.53125,47.078125
1696255142529,0.7922363,-2.0,0.08709717,26.859375,-83.765625,19.875
1696255142550,-0.38842773,-1.4690552,0.29486084,-35.296875,-0.53125,-16.140625
1696255142589,-0.2998047,-0.96343994,-0.04034424,-3.859375,-11.453125,-18.890625
1696255142630,0.203125,-0.6116333,-0.3718872,19.203125,0.796875,-29.734375
1696255142670,0.04736328,-0.8040161,-0.3711548,-5.6875,3.0,-5.609375
1696255142730,0.44506836,-1.2107544,0.11029053,7.734375,-4.859375,27.046875
1696255142749,0.19189453,-1.0459595,-0.12188721,-27.140625,13.96875,-3.96875
1696255142788,-0.08642578,-0.9937134,-0.081848145,-15.875,6.09375,-14.46875
1696255142830,0.11743164,-1.0852661,-0.02178955,-16.578125,20.375,-1.359375
1696255142873,0.38134766,-1.0342407,0.32489014,-34.046875,20.0,8.671875
1696255142911,0.23486328,-0.91290283,0.14422607,-15.453125,11.109375,-0.6875
1696255142951,0.015136719,-0.7251587,-0.027893066,-23.375,33.0625,0.703125
1696255143011,-0.123535156,-0.55133057,-0.23321533,-14.6875,28.65625,8.296875
1696255143053,0.14672852,-1.0137329,-0.11798096,27.453125,-4.09375,30.96875
1696255143069,-0.057128906,-2.0,0.2592163,-17.03125,-11.234375,24.734375
1696255143110,-1.0100098,-1.2183228,0.022155762,-36.859375,32.046875,-10.703125
1696255143153,-0.32543945,-0.39385986,-0.15802002,7.25,50.46875,-10.96875
1696255143190,-0.053955078,-0.36968994,-0.30523682,-6.40625,52.21875,1.078125
1696255143232,0.3540039,-0.58966064,-0.014709473,-4.015625,69.5625,21.328125
1696255143272,0.5917969,-0.8948364,-0.11895752,-0.890625,3.75,19.59375
1696255143312,0.47265625,-1.2578735,-0.48712158,18.875,-5.984375,-16.390625
1696255143350,0.39111328,-1.5071411,0.0033569336,-4.234375,20.359375,0.390625
1696255143390,0.16479492,-1.4951782,0.22503662,0.84375,-72.90625,-10.859375
1696255143451,-0.67871094,-1.2136841,0.054138184,-25.375,-53.6875,-31.8125
1696255143469,-0.47583008,-0.9295044,-0.206604,5.34375,-7.78125,-30.859375
1696255143510,-0.1027832,-0.60528564,0.12615967,0.5,-8.234375,-5.78125
1696255143550,0.18920898,-0.739563,0.21600342,-1.90625,-46.875,-10.015625
1696255143591,-0.05102539,-0.7151489,-0.016906738,5.59375,-66.390625,-33.109375
1696255143633,-0.44555664,-0.6194458,-0.07647705,-11.65625,-28.359375,-31.234375
1696255143671,-0.3095703,-0.8694458,-0.15362549,12.328125,1.609375,-9.296875
1696255143731,0.47485352,-1.5169067,0.32977295,27.09375,40.609375,35.828125
1696255143773,0.34277344,-1.6985474,0.5578003,0.3125,-1.03125,-18.421875
1696255143812,0.10107422,-1.1109009,0.15472412,-3.90625,-18.84375,-27.15625
1696255143816,0.018554688,-0.7053833,0.15618896,-7.4375,-10.34375,-7.046875
1696255143853,0.118896484,-0.43951416,0.38275146,-3.28125,0.75,7.640625
1696255143892,-0.12207031,-0.45733643,0.19940186,-21.28125,-33.359375,14.046875
1696255143931,-0.7355957,-1.2427368,0.09564209,-5.15625,-1.328125,12.046875
1696255143972,-0.39086914,-1.5862427,0.34417725,4.28125,42.015625,-26.0
1696255144012,-0.055908203,-1.0515747,0.3024292,2.703125,44.53125,9.296875
1696255144052,0.42797852,-1.0935669,0.28826904,-9.1875,28.359375,-4.546875
1696255144092,0.21313477,-1.0376587,0.3529663,-24.546875,-0.765625,-1.546875
1696255144133,-0.107910156,-0.7005005,0.16473389,-33.8125,2.671875,14.6875
1696255144170,-0.17089844,-0.4915161,0.074645996,-25.53125,30.296875,9.625
1696255144210,-0.25341797,-0.96881104,0.021911621,-9.21875,37.4375,0.71875
1696255144251,0.11376953,-1.3242798,-0.051086426,23.703125,76.46875,27.609375
1696255144290,-0.047607422,-1.154602,0.25238037,5.0625,28.546875,15.578125
1696255144330,-0.28027344,-0.9949341,0.35321045,-9.046875,12.015625,10.828125
1696255144372,-0.06689453,-0.93756104,0.010681152,-6.59375,2.859375,6.15625
1696255144412,-0.046875,-1.0618286,0.10101318,14.265625,16.75,16.9375
1696255144451,-0.011962891,-0.8206177,0.12322998,-5.75,4.78125,4.71875
1696255144491,0.0031738281,-0.61260986,-0.027160645,13.671875,20.53125,-10.125
1696255144530,0.0073242188,-0.9763794,0.22698975,21.90625,34.4375,-3.40625
1696255144572,0.13183594,-1.5806274,0.25164795,13.984375,11.421875,26.125
1696255144610,0.026611328,-1.4636841,0.22894287,-15.140625,-31.28125,1.890625
1696255144651,-0.2553711,-0.8567505,0.19696045,-0.578125,-8.640625,-1.0
1696255144691,-0.5727539,-0.87457275,-0.20465088,1.140625,23.65625,-2.28125
1696255144732,-0.3720703,-0.65289307,-0.2107544,11.109375,59.75,-12.78125
1696255144771,0.1875,-0.55303955,-0.23101807,3.46875,56.28125,-5.984375
1696255144810,0.38964844,-0.7803345,0.017028809,-15.1875,30.109375,-8.703125
1696255144851,0.8432617,-1.8445435,-0.09869385,0.40625,31.921875,15.953125
1696255144890,0.6303711,-1.2437134,0.49090576,-24.296875,31.84375,0.296875
1696255144930,0.67041016,-0.74664307,0.6647339,-12.125,-31.03125,-24.1875
1696255144970,0.37329102,-0.6170044,0.27630615,-17.078125,-44.21875,-35.203125
1696255145010,0.26708984,-0.7151489,0.39227295,20.890625,-41.828125,-5.859375
1696255145054,0.23364258,-1.2427368,0.105651855,24.171875,-72.953125,40.328125
1696255145091,0.23608398,-1.2930298,0.4557495,20.984375,-67.78125,-3.71875
1696255145132,0.1184082,-0.82647705,-0.14776611,21.40625,-107.640625,-40.40625
1696255145149,-0.10083008,-0.66973877,-0.04498291,-5.171875,-103.59375,-9.90625
1696255145211,-0.30859375,-0.49664307,0.19744873,-3.90625,-92.984375,13.875
1696255145254,-0.21655273,-1.0847778,0.4887085,5.875,-54.484375,18.109375
1696255145270,-0.23852539,-1.5432739,0.5194702,17.109375,-50.34375,-14.28125
1696255145310,-0.08203125,-0.8699341,-0.11407471,10.828125,-50.84375,-53.5
1696255145353,-0.013671875,-1.0654907,-0.1819458,-18.796875,-52.1875,-18.203125
1696255145392,-0.4309082,-0.9038696,-0.020324707,-0.140625,-33.015625,31.25
1696255145432,-0.5349121,-1.0435181,0.039245605,-7.828125,-24.625,21.140625
1696255145472,-0.6699219,-1.0098267,-0.010314941,27.59375,-15.828125,-24.296875
1696255145510,-0.36694336,-0.7439575,-0.4553833,18.15625,24.0,-19.90625
1696255145572,-0.20117188,-1.0376587,-0.31207275,-2.078125,43.0,7.609375
1696255145589,-0.18896484,-0.85113525,0.15570068,-17.875,42.5,35.59375
1696255145631,-0.20361328,-0.8308716,0.08441162,-19.453125,-12.71875,10.671875
1696255145672,-0.14379883,-0.9866333,-0.10040283,4.109375,-4.578125,-11.296875
1696255145710,0.10961914,-1.0755005,-0.2420044,-1.125,-12.578125,-6.40625
1696255145751,0.1262207,-1.0354614,-0.22296143,-11.71875,-16.40625,-1.390625
1696255145810,-0.83447266,-0.97052,0.1227417,-23.765625,-12.109375,-4.3125
1696255145830,-0.5390625,-0.8648071,0.45355225,0.125,-19.484375,3.8125
1696255145872,-0.3955078,-1.3049927,-0.09942627,-18.375,-2.84375,-13.671875
1696255145911,0.2866211,-1.4255981,-0.19122314,19.9375,47.109375,-32.171875
1696255145971,0.43603516,-1.0332642,0.28900146,11.75,-3.140625,-8.609375
1696255145989,0.33203125,-0.64141846,0.4257202,-9.1875,18.046875,18.4375
1696255146032,0.15942383,-1.0791626,0.10809326,-1.125,-30.203125,14.59375
1696255146071,-0.10864258,-1.1057739,0.23382568,-26.671875,-20.171875,17.984375
1696255146116,-0.24243164,-0.8479614,0.4413452,5.984375,4.890625,3.3125
1696255146152,-0.061767578,-0.76885986,0.3361206,9.84375,5.921875,-8.5625
1696255146193,-0.050048828,-0.71539307,-0.02935791,18.375,46.1875,-8.625
1696255146231,0.24658203,-1.0178833,0.070007324,2.84375,17.40625,-8.703125
1696255146272,0.18164062,-1.2246704,0.30413818,-2.203125,-30.515625,-6.40625
1696255146330,-0.21972656,-0.97906494,0.11932373,-22.375,-19.0625,7.375
1696255146351,-0.36767578,-1.0913696,0.1708374,-1.46875,9.125,4.078125
1696255146391,-0.050048828,-1.0161743,0.18499756,15.0625,35.578125,-12.671875
1696255146437,0.13891602,-1.1052856,-0.0044555664,5.78125,33.75,-12.671875
1696255146449,0.05078125,-0.8496704,-0.015686035,-8.90625,-14.34375,-8.1875
1696255146490,-0.35351562,-0.79571533,0.19915771,-14.640625,-22.75,13.96875
1696255146529,-0.54589844,-0.9924927,0.13323975,-9.203125,-4.546875,14.53125
1696255146572,-0.16015625,-1.1240845,0.13446045,10.421875,27.921875,-7.578125
1696255146612,0.12841797,-1.0357056,-0.0154418945,14.3125,25.4375,-15.75
1696255146651,0.021728516,-0.7918091,0.021911621,11.953125,17.09375,-14.234375
1696255146691,-0.41210938,-0.9158325,0.08392334,17.03125,-10.203125,4.71875
1696255146729,-0.49682617,-0.975647,0.05706787,14.375,-12.703125,9.828125
1696255146773,-0.29467773,-1.1008911,-0.09161377,2.109375,27.015625,6.28125
1696255146810,0.24438477,-0.9380493,-0.046447754,3.734375,23.25,-23.015625
1696255146854,0.21362305,-0.8164673,0.050231934,0.078125,-8.828125,-22.703125
1696255146890,-0.49389648,-1.0046997,0.066101074,-24.484375,-15.40625,4.796875
1696255146934,-0.66308594,-1.0942993,0.08270264,-10.09375,-2.046875,8.296875
1696255146972,-0.22509766,-1.0396118,0.03387451,-7.546875,25.375,-17.265625
1696255147014,0.047851562,-0.8213501,0.16033936,11.109375,4.390625,-15.625
1696255147050,-0.013916016,-0.9414673,0.045837402,-4.921875,-10.0,6.09375
1696255147089,-0.41674805,-1.0479126,0.1918335,-8.796875,-10.890625,13.65625
1696255147131,-0.49145508,-1.2737427,-0.014221191,-3.84375,-6.625,4.84375
1696255147170,0.106933594,-0.8880005,0.022888184,-0.25,4.78125,-22.203125
1696255147211,-0.0859375,-0.7505493,0.16741943,4.59375,-14.421875,-2.21875
1696255147251,-0.30322266,-0.83551025,0.062927246,-5.84375,-13.3125,14.921875
1696255147293,-0.5168457,-1.0344849,0.16473389,-4.328125,1.90625,9.328125
1696255147330,-0.33520508,-1.1817017,0.18621826,5.0,9.421875,2.421875
1696255147370,-0.026855469,-1.0276489,0.070739746,-3.296875,9.328125,-3.609375
1696255147409,0.04272461,-0.77911377,0.055847168,-7.765625,-6.90625,-5.265625
1696255147451,-0.12182617,-0.8569946,0.18988037,-5.53125,-13.078125,2.796875
1696255147490,-0.4580078,-1.0855103,0.24969482,-3.890625,-12.109375,9.90625
1696255147531,-0.43017578,-1.0918579,0.14007568,-8.28125,-7.28125,1.34375
1696255147572,-0.08691406,-0.8831177,0.11663818,-5.0,-0.265625,-12.328125
1696255147611,-0.049072266,-0.83428955,0.17572021,-5.25,-1.546875,-2.890625
1696255147651,-0.26660156,-0.96221924,0.29193115,-8.546875,-5.546875,11.234375
1696255147692,-0.6086426,-1.1331177,0.26287842,-11.171875,-15.984375,12.53125
1696255147751,-0.3942871,-1.1143188,0.12640381,-4.65625,2.484375,-0.015625
1696255147769,0.114990234,-0.7214966,0.1227417,0.46875,1.5625,-17.734375
1696255147811,-0.018066406,-0.8218384,0.24383545,3.46875,-5.59375,2.15625
1696255147850,-0.23706055,-0.9714966,0.18817139,-4.8125,-10.046875,15.75
1696255147870,-0.47705078,-1.1130981,0.2658081,-6.703125,-6.8125,8.171875
1696255147912,-0.33984375,-1.0335083,0.08050537,3.9375,7.109375,-8.9375
1696255147951,-0.2175293,-0.77667236,0.13201904,5.859375,17.34375,-9.125
1696255147990,-0.18115234,-0.74346924,0.17034912,7.640625,10.90625,3.828125
1696255148051,-0.4050293,-1.0151978,0.1461792,0.65625,13.1875,10.359375
1696255148070,-0.46557617,-1.1633911,0.20013428,15.671875,13.484375,2.84375
1696255148111,-0.08300781,-1.0159302,0.09588623,26.171875,10.046875,-14.84375
1696255148150,-0.053710938,-0.90167236,0.014343262,18.453125,-9.3125,-11.65625
1696255148189,-0.32299805,-0.74835205,0.15618896,21.640625,-0.34375,-0.40625
1696255148231,-0.6550293,-0.96954346,-0.031066895,22.390625,0.75,10.921875
1696255148270,-0.37158203,-0.9883423,-0.14776611,4.515625,5.4375,-1.25
1696255148312,-0.31274414,-1.017395,-0.058654785,-13.84375,25.78125,4.234375
1696255148349,-0.1743164,-0.83551025,0.034118652,-32.96875,-7.78125,3.703125
1696255148391,-0.21899414,-0.9194946,0.043884277,-15.375,8.5,6.71875
1696255148431,0.053955078,-1.267395,0.2831421,-5.21875,14.859375,9.515625
1696255148470,-0.03881836,-1.1721802,0.3060913,1.359375,-2.890625,5.609375
1696255148532,-0.00390625,-1.1365356,0.0914917,-0.65625,-1.3125,2.984375
1696255148576,0.20654297,-0.82525635,0.18719482,-6.53125,-7.5,-0.375
1696255148589,-0.14916992,-0.8140259,0.38153076,-9.609375,-17.171875,16.421875
1696255148651,-0.4008789,-1.0315552,0.45306396,-13.625,1.234375,24.421875
1696255148670,-0.14672852,-1.0491333,0.42938232,-10.765625,6.390625,7.625
1696255148711,0.1003418,-0.89727783,0.14569092,-4.8125,11.6875,-12.0625
1696255148752,0.17089844,-0.85772705,6.713867E-4,-11.9375,5.15625,-6.859375
1696255148793,-0.087890625,-0.9155884,0.20721436,10.828125,-7.140625,21.234375
1696255148851,-0.10131836,-1.1355591,0.36224365,21.8125,-1.640625,27.078125
1696255148893,-0.06738281,-1.107727,0.21990967,-2.34375,-10.15625,12.6875
1696255148909,-0.10644531,-0.88116455,-0.02520752,11.4375,-18.46875,-7.375
1696255148951,-0.07763672,-0.9324341,-0.11602783,0.875,8.609375,-2.34375
1696255148991,-0.23950195,-0.90631104,0.25482178,6.484375,25.109375,10.171875
1696255149032,-0.11010742,-0.90582275,0.30340576,7.734375,10.90625,12.78125
1696255149070,0.34570312,-0.98809814,0.07952881,7.46875,3.03125,-11.6875
1696255149091,-0.048339844,-1.1084595,-0.0413208,-3.703125,-10.359375,-10.25
1696255149140,-0.14672852,-1.0332642,0.06512451,-12.921875,-1.6875,1.96875
1696255149170,-0.43115234,-0.95025635,0.14910889,-12.625,0.96875,0.4375
1696255149212,-0.21362305,-0.84259033,0.29510498,25.546875,17.296875,-1.53125
1696255149252,0.13183594,-1.0366821,0.074157715,-11.296875,2.65625,-4.890625
1696255149291,-0.16015625,-1.1275024,0.062683105,-25.96875,-20.84375,-1.796875
1696255149331,-0.041503906,-1.0747681,0.152771,-22.140625,9.671875,2.453125
1696255149372,-0.012207031,-0.86505127,0.18817139,6.625,9.828125,-15.671875
1696255149412,0.005126953,-0.77178955,0.2506714,39.46875,12.6875,-7.5
1696255149452,-0.029541016,-0.85943604,0.0848999,1.15625,-22.734375,-1.28125
1696255149492,-0.13476562,-1.1980591,0.028503418,-6.703125,-22.34375,4.0
1696255149540,-0.23657227,-1.3535767,0.16912842,-4.25,5.546875,6.375
1696255149571,-0.19116211,-0.8496704,0.30975342,2.65625,-0.625,-7.59375
1696255149611,0.111328125,-0.62823486,0.1161499,5.875,4.625,-10.15625
1696255149651,0.09692383,-0.92193604,0.121032715,6.21875,-7.5625,-4.0
1696255149691,-0.06640625,-1.2471313,0.13763428,-11.6875,-23.546875,10.140625
1696255149730,-0.35424805,-1.1074829,0.20428467,-10.328125,-19.0,-0.09375
1696255149771,-0.3474121,-0.81378174,0.23822021,22.15625,-5.5,-5.734375
1696255149814,-0.13061523,-0.954895,0.08685303,12.28125,3.84375,2.578125
1696255149850,-0.061035156,-0.97125244,0.08856201,-30.84375,1.21875,2.203125
1696255149892,-0.1508789,-1.1018677,0.15252686,-16.40625,1.53125,4.234375
1696255149930,-0.0036621094,-0.9976196,0.20404053,-8.546875,-3.15625,0.140625
1696255149970,-0.12915039,-0.802063,0.23162842,4.59375,-11.015625,-0.78125
1696255150012,-0.25219727,-0.89923096,0.23944092,10.765625,-1.78125,7.640625
1696255150073,-0.027832031,-0.9680786,0.105407715,6.28125,1.0625,-6.171875
1696255150091,-0.028320312,-1.2664185,0.17401123,-5.984375,9.5,-5.109375
1696255150132,-0.1743164,-0.98223877,0.1930542,-18.78125,-3.703125,-7.640625
1696255150172,-0.3334961,-0.8118286,0.2946167,-12.875,-0.515625,-0.546875
1696255150235,-0.18847656,-0.80059814,0.2675171,11.890625,15.6875,-0.03125
1696255150249,0.08886719,-0.9949341,0.14715576,-1.40625,4.75,-4.953125
1696255150292,-0.13867188,-1.27594,0.20355225,-9.0625,-4.640625,7.109375
1696255150331,-0.27856445,-1.0198364,0.2514038,-10.890625,-3.140625,0.140625
1696255150371,-0.19433594,-0.723938,0.34613037,6.34375,1.9375,-4.515625
1696255150390,0.01586914,-0.803772,0.24578857,24.0,12.015625,-0.640625
1696255150452,-0.013427734,-1.031311,0.09906006,2.96875,-11.59375,2.234375
1696255150469,-0.27734375,-1.2210083,0.13275146,-21.5625,-10.53125,11.71875
1696255150511,-0.29711914,-1.024231,0.23944092,-2.390625,3.09375,-1.796875
1696255150551,-0.083496094,-0.91119385,0.16888428,23.78125,3.328125,-4.671875
1696255150591,-0.06762695,-0.75372314,0.26068115,17.75,-1.578125,6.28125
1696255150653,-0.09008789,-0.86187744,0.06365967,-9.0,-27.734375,5.53125
1696255150670,-0.3317871,-1.2937622,0.030456543,-11.390625,-12.90625,9.640625
1696255150733,-0.10986328,-1.1543579,0.2687378,-6.453125,28.0,-6.453125
1696255150777,-0.052246094,-0.7373657,0.2868042,14.234375,9.109375,-8.59375
1696255150812,-0.016113281,-0.67266846,0.06829834,-10.140625,0.875,-3.109375
1696255150830,-0.103271484,-0.9487915,0.15789795,-2.171875,-12.6875,7.671875
1696255150871,-0.14916992,-1.2959595,0.28729248,-15.09375,2.953125,14.046875
1696255150933,-0.0546875,-1.1394653,0.2789917,8.125,5.1875,-16.734375
1696255150950,-0.08569336,-0.77667236,0.21038818,26.5,2.90625,-10.890625
1696255150991,-0.08862305,-0.69366455,0.1696167,13.78125,1.171875,5.515625
1696255151031,-0.3149414,-1.1206665,0.0065307617,-35.84375,-33.265625,18.125
1696255151091,-0.29956055,-1.40094,0.2506714,-9.84375,-3.96875,15.796875
1696255151110,0.044921875,-1.0217896,0.2994995,10.40625,14.546875,-13.3125
1696255151154,0.095214844,-0.63653564,0.18206787,26.25,15.546875,-14.453125
1696255151192,-0.061523438,-0.614563,0.007751465,13.71875,-9.03125,9.78125
1696255151236,-0.15161133,-0.9985962,0.08856201,-2.40625,-23.484375,23.0625
1696255151273,-0.18237305,-1.4553833,0.21697998,-12.9375,-10.28125,16.96875
1696255151313,0.040771484,-1.0725708,0.3287964,17.6875,11.015625,-15.703125
1696255151351,0.020507812,-0.72491455,0.18597412,24.875,6.390625,-7.328125
1696255151389,0.026123047,-0.708313,-0.03253174,2.75,-1.578125,7.84375
1696255151454,-0.30322266,-1.0842896,0.14886475,-0.9375,-15.453125,30.84375
1696255151470,-0.20654297,-1.4153442,0.12860107,4.234375,-13.515625,32.515625
1696255151512,0.06347656,-0.9837036,0.2765503,4.1875,-12.625,6.921875
1696255151551,0.1628418,-0.661438,0.18597412,16.078125,-1.6875,0.25
1696255151591,0.09375,-0.68536377,-0.05987549,11.25,-26.421875,14.5625
1696255151654,0.0078125,-1.098938,-0.012268066,1.265625,-13.03125,26.9375
1696255151668,-0.20507812,-1.2651978,0.0211792,16.03125,22.515625,3.296875
1696255151690,-0.047851562,-1.3511353,0.09906006,17.78125,37.28125,-23.90625
1696255151731,0.16430664,-1.1570435,-0.016418457,-25.3125,38.875,-45.546875
1696255151774,-0.21508789,-1.0042114,0.15301514,-47.296875,25.453125,-40.171875
1696255151811,-0.20825195,-0.802063,0.17034912,-49.84375,27.890625,-47.390625
1696255151850,0.24145508,-0.7319946,0.13348389,-33.75,39.359375,-54.5
1696255151891,-0.20092773,-0.59161377,0.37005615,-13.125,-3.859375,-33.953125
1696255151933,-0.5061035,-0.8936157,-0.008361816,-42.6875,9.25,-5.859375
1696255151973,-0.3010254,-1.18927,0.2567749,-13.609375,15.375,-10.34375
1696255152013,-0.13500977,-1.1338501,0.41033936,-1.03125,25.828125,-11.4375
1696255152052,-0.20776367,-0.8777466,0.34661865,-10.828125,25.03125,-12.96875
1696255152090,-0.23852539,-0.8706665,0.38568115,5.375,5.09375,-9.203125
1696255152133,-0.19897461,-1.0015259,0.3493042,3.9375,3.15625,6.046875
1696255152173,-0.20288086,-0.95318604,0.34002686,1.796875,-2.9375,5.703125
1696255152211,-0.30322266,-0.8909302,0.3053589,0.78125,-5.109375,-0.046875
1696255152251,-0.31420898,-0.8855591,0.28875732,7.9375,8.421875,3.328125
1696255152291,-0.23803711,-0.90582275,0.32757568,5.53125,7.71875,5.421875
1696255152332,-0.20654297,-0.93292236,0.36297607,7.0,-1.734375,1.484375
1696255152373,-0.25927734,-0.94366455,0.3114624,8.0625,-4.78125,2.390625
1696255152411,-0.31079102,-0.93170166,0.29510498,5.59375,-5.34375,4.28125
1696255152451,-0.3005371,-0.93878174,0.27752686,8.125,-2.890625,4.875
1696255152491,-0.25341797,-0.9194946,0.3114624,6.59375,-2.375,5.734375
1696255152531,-0.26611328,-0.9553833,0.27801514,9.15625,-2.484375,7.1875
1696255152570,-0.2133789,-0.9771118,0.2345581,5.859375,-7.875,9.140625
1696255152610,-0.17504883,-0.93536377,0.22918701,2.65625,-8.46875,8.65625
1696255152652,-0.2133789,-0.92974854,0.23944092,4.734375,-10.734375,8.515625
1696255152693,-0.21801758,-0.97540283,0.20526123,0.21875,-11.59375,10.0
1696255152733,-0.22436523,-0.97906494,0.24676514,-1.09375,-12.59375,9.59375
1696255152770,-0.23046875,-0.99542236,0.23016357,1.546875,-13.59375,8.5
1696255152811,-0.20239258,-0.9522095,0.22576904,-0.0625,-11.71875,5.890625
1696255152850,-0.18334961,-0.9680786,0.18109131,1.28125,-6.8125,6.59375
1696255152890,-0.19848633,-0.9397583,0.19354248,-3.421875,-3.390625,7.703125
1696255152930,-0.17944336,-0.9348755,0.20794678,-4.4375,-3.734375,6.578125
1696255152970,-0.14477539,-0.97784424,0.21673584,-3.1875,-5.125,5.515625
1696255153017,-0.13476562,-0.9812622,0.20452881,-7.09375,-7.578125,5.59375
1696255153029,-0.13891602,-0.9663696,0.21844482,-2.90625,-8.171875,5.859375
1696255153072,-0.13354492,-0.95806885,0.21746826,-2.671875,-8.265625,7.71875
1696255153111,-0.12060547,-0.9729614,0.19940186,-1.265625,-10.671875,10.9375
1696255153152,-0.040283203,-0.9758911,0.18695068,2.65625,-13.734375,12.96875
1696255153211,0.01586914,-0.989563,0.1696167,4.96875,-17.875,17.390625
1696255153230,0.0703125,-0.99005127,0.19012451,4.84375,-27.796875,23.078125
1696255153269,0.059326172,-0.98321533,0.30828857,6.046875,-21.21875,31.5
1696255153311,-4.8828125E-4,-0.9846802,0.26849365,3.453125,-21.03125,35.765625
1696255153350,0.07519531,-0.99713135,0.34295654,6.640625,-13.109375,35.234375
1696255153393,0.04711914,-0.90802,0.3319702,13.1875,-10.90625,28.5
1696255153430,0.2487793,-0.87213135,0.30999756,12.078125,-15.359375,21.0625
