,timestamp,accel_x,accel_y,accel_z,gyro_x,gyro_y,gyro_z,ind
0,1696253190889,0.7180176,-0.037902832,0.7260132,-0.3125,-0.71875,0.25,0
1,1696253190929,0.78466797,-0.031799316,0.666687,-0.265625,-0.328125,0.6875,91
2,1696253190969,0.7727051,-0.021057129,0.66619873,-2.078125,-0.125,0.765625,92
3,1696253191009,0.7651367,-0.03302002,0.65130615,-1.109375,0.109375,-0.046875,93
4,1696253191049,0.7709961,-0.013977051,0.66278076,-1.953125,0.6875,-0.453125,94
5,1696253191089,0.7729492,-0.006652832,0.6679077,-0.59375,1.21875,0.6875,95
6,1696253191129,0.76831055,-0.02520752,0.6691284,1.015625,-0.125,1.1875,96
7,1696253191169,0.767334,-0.031066895,0.66278076,0.21875,-0.03125,0.484375,97
8,1696253191209,0.7609863,-0.015686035,0.6552124,1.078125,1.0625,0.65625,98
9,1696253191249,0.7758789,-0.0005493164,0.6613159,1.15625,0.9375,0.53125,99
10,1696253191289,0.76708984,-0.007385254,0.66082764,1.0,0.703125,0.890625,100
11,1696253191329,0.7709961,-0.028137207,0.67401123,2.875,1.734375,0.828125,101
12,1696253191369,0.7553711,-0.03302002,0.66400146,-0.359375,3.15625,1.484375,102
13,1696253191409,0.8063965,-0.024963379,0.6469116,4.109375,5.8125,0.453125,103
14,1696253191449,0.8359375,-0.047180176,0.621521,7.625,5.515625,-0.078125,104
15,1696253191489,0.8022461,-0.007873535,0.6071167,2.890625,1.078125,1.390625,105
16,1696253191529,0.76904297,-0.010559082,0.6251831,2.125,-2.3125,1.75,106
17,1696253191569,0.7541504,-0.011047363,0.6366577,-0.484375,-0.09375,1.984375,107
18,1696253191609,0.77319336,-0.012512207,0.63031006,-1.171875,-0.921875,0.21875,108
19,1696253191649,0.7963867,-0.0413208,0.67059326,0.21875,-0.71875,-0.28125,109
20,1696253191689,0.80859375,-0.050354004,0.65423584,1.015625,0.65625,0.203125,110
21,1696253191729,0.79248047,-0.023254395,0.62176514,-0.984375,0.09375,0.21875,111
22,1696253191769,0.7836914,-0.014709473,0.6276245,-0.421875,-0.796875,-0.25,112
23,1696253191809,0.7763672,-0.019348145,0.62786865,0.34375,-0.703125,0.15625,113
24,1696253191849,0.7910156,-0.013244629,0.6259155,-0.203125,-0.9375,0.703125,114
25,1696253191889,0.7807617,-0.019348145,0.6310425,-0.578125,-1.6875,0.25,115
26,1696253191929,0.7873535,-0.036193848,0.6383667,-0.671875,-1.421875,-0.59375,116
27,1696253191969,0.7873535,-0.028137207,0.64276123,-1.609375,-1.328125,-0.78125,117
28,1696253192009,0.7944336,-0.01739502,0.6432495,-0.875,-0.625,-0.671875,118
29,1696253192049,0.8017578,-0.025939941,0.6532593,-0.046875,-0.171875,-0.4375,119
30,1696253192089,0.79125977,-0.020080566,0.63079834,-0.6875,-0.1875,0.984375,120
31,1696253192129,0.7858887,-0.016174316,0.63031006,1.0625,0.140625,0.875,121
32,1696253192169,0.7824707,-0.026428223,0.6342163,0.65625,0.21875,0.65625,122
33,1696253192209,0.796875,-0.016174316,0.65448,-2.78125,2.390625,1.15625,123
34,1696253192249,0.80981445,-0.011047363,0.6359253,-4.34375,-0.65625,2.59375,124
35,1696253192289,0.77319336,-0.019592285,0.6203003,-0.59375,0.765625,1.125,125
36,1696253192329,0.7817383,-0.028381348,0.62249756,0.609375,0.4375,-0.015625,126
37,1696253192369,0.79418945,-0.020568848,0.63446045,0.21875,-0.171875,-0.125,127
38,1696253192409,0.7885742,-0.00592041,0.63275146,0.546875,-1.59375,0.421875,128
39,1696253192449,0.78344727,-0.0076293945,0.63739014,0.71875,-1.578125,0.40625,129
40,1696253192489,0.7849121,-0.0095825195,0.63861084,0.09375,-0.234375,0.25,130
41,1696253192529,0.78393555,-0.02154541,0.6444702,-0.140625,-1.1875,-0.34375,131
42,1696253192569,0.78515625,-0.016906738,0.6347046,-0.703125,-1.984375,-0.875,132
43,1696253192609,0.79589844,-0.019592285,0.6347046,-1.078125,-0.453125,0.03125,133
44,1696253192649,0.8015137,-0.011291504,0.6359253,-0.578125,-0.875,0.359375,134
45,1696253192689,0.8041992,-0.008850098,0.5988159,-6.21875,-4.796875,-2.53125,156
46,1696253192729,0.79663086,0.0026245117,0.61883545,-5.953125,-2.59375,-0.46875,157
47,1696253192769,0.8015137,-0.03326416,0.65423584,-2.6875,-3.890625,-1.46875,158
48,1696253192809,0.8039551,-0.039123535,0.62957764,-2.25,-2.9375,-1.125,159
49,1696253192849,0.7998047,-0.0032348633,0.6256714,-1.390625,-1.125,0.109375,160
50,1696253192889,0.78125,-0.010803223,0.633728,-0.265625,-1.125,1.078125,161
51,1696253192929,0.7841797,-0.027404785,0.635437,0.3125,-0.03125,0.453125,162
52,1696253192969,0.79418945,-0.015686035,0.635437,-1.015625,0.21875,-0.09375,163
53,1696253193009,0.7919922,-0.0051879883,0.64056396,0.078125,-0.5,-0.21875,164
54,1696253193049,0.7976074,-0.0154418945,0.62371826,-0.53125,-0.53125,0.109375,165
55,1696253193089,0.79345703,-0.014953613,0.6300659,-0.71875,0.5,0.46875,166
56,1696253193129,0.7910156,-0.0049438477,0.6190796,0.0,-0.484375,0.34375,167
57,1696253193169,0.78515625,-0.01763916,0.63275146,-0.140625,-0.203125,0.234375,168
58,1696253193209,0.7832031,-0.023254395,0.6347046,-0.53125,-0.4375,0.515625,169
59,1696253193249,0.8010254,-0.012268066,0.62786865,-0.875,-0.984375,0.0625,170
60,1696253193289,0.7944336,-0.012512207,0.62713623,0.078125,-0.59375,-0.0625,171
61,1696253193329,0.7988281,-0.0068969727,0.6325073,0.671875,0.015625,-0.03125,172
62,1696253193369,0.795166,-0.017150879,0.633728,-0.921875,-0.59375,0.40625,173
63,1696253193409,0.7841797,-0.010803223,0.6322632,-0.15625,-0.953125,0.640625,174
64,1696253193449,0.7883301,-0.015686035,0.62420654,0.53125,-0.171875,-0.15625,175
65,1696253193489,0.8010254,-0.012512207,0.62957764,-0.6875,-0.265625,0.03125,176
66,1696253193529,0.7902832,-0.00982666,0.62908936,-1.140625,-0.4375,0.5,177
67,1696253193569,0.8034668,-0.015197754,0.6378784,0.859375,3.328125,-0.046875,178
68,1696253193609,0.8249512,-0.030578613,0.60150146,1.203125,5.78125,2.046875,179
69,1696253193649,0.7980957,0.008972168,0.6195679,0.15625,-1.078125,1.0625,180
70,1696253193689,0.77075195,-0.0068969727,0.6268921,-0.03125,-2.28125,1.234375,181
71,1696253193729,0.7897949,-0.020080566,0.62908936,-0.375,-1.6875,0.53125,182
72,1696253193769,0.7944336,-0.01739502,0.6222534,0.265625,-2.578125,-0.96875,183
73,1696253193809,0.79589844,-0.006652832,0.6415405,0.375,-3.5,-2.140625,184
74,1696253193849,0.78027344,-0.026428223,0.61273193,-0.640625,-3.5625,-0.515625,185
75,1696253193889,0.80322266,-0.024230957,0.59832764,-3.9375,-4.90625,-1.328125,186
76,1696253193929,0.81396484,0.031188965,0.70111084,-1.734375,-4.828125,-2.90625,187
77,1696253193969,0.7663574,-0.023010254,0.70111084,9.15625,-4.46875,-1.28125,188
78,1696253194009,0.74316406,-0.07159424,0.62298584,4.84375,-9.390625,-2.515625,189
79,1696253194049,0.75341797,-0.02520752,0.65057373,3.9375,-3.40625,-4.75,190
80,1696253194089,0.79663086,-0.018859863,0.6918335,4.34375,-1.75,-1.5,191
81,1696253194129,0.7988281,-0.049865723,0.66033936,1.84375,-1.953125,0.890625,192
82,1696253194169,0.7783203,-0.07867432,0.6317749,-5.265625,-6.03125,0.703125,193
83,1696253194209,0.7565918,-0.017150879,0.6600952,-5.59375,-3.921875,1.140625,194
84,1696253194249,0.75634766,-0.00592041,0.6793823,1.015625,2.078125,2.71875,195
85,1696253194289,0.7697754,-0.04034424,0.65179443,2.171875,3.34375,2.015625,196
86,1696253194329,0.7648926,-0.03375244,0.6359253,0.046875,1.25,2.71875,197
87,1696253194369,0.77441406,-0.02130127,0.66278076,-2.796875,1.546875,2.59375,198
88,1696253194409,0.7751465,-0.02520752,0.6757202,0.46875,2.46875,1.203125,199
89,1696253194449,0.7644043,-0.042541504,0.66033936,-1.34375,-2.046875,-0.515625,200
90,1696253194489,0.7636719,-0.013977051,0.64959717,-4.484375,-3.3125,-1.109375,201
91,1696253194529,0.75634766,-0.015930176,0.64764404,-3.53125,-1.515625,-0.78125,202
92,1696253194569,0.7648926,-0.021057129,0.6911011,-2.03125,-0.71875,0.234375,203
93,1696253194609,0.8039551,-0.042053223,0.6852417,0.265625,-1.28125,-0.40625,204
94,1696253194649,0.77368164,-0.035461426,0.668396,0.53125,0.21875,-0.890625,205
95,1696253194689,0.7578125,-0.009338379,0.66619873,-0.921875,0.359375,0.453125,206
96,1696253194729,0.7529297,0.00018310547,0.6715698,0.734375,0.953125,1.34375,207
97,1696253194769,0.7390137,-0.0178833,0.6635132,0.28125,0.484375,1.546875,208
98,1696253194809,0.7705078,-0.00079345703,0.6564331,-0.359375,1.96875,2.078125,209
99,1696253194849,0.77734375,-0.0115356445,0.66082764,1.875,1.34375,0.453125,210
100,1696253194889,0.7651367,-0.02178955,0.6610718,0.625,0.265625,-0.3125,211
101,1696253194929,0.78149414,-0.037902832,0.65960693,0.234375,0.203125,0.4375,212
102,1696253194969,0.7944336,-0.024963379,0.64520264,-1.421875,1.140625,-0.03125,213
103,1696253195009,0.78686523,-0.0068969727,0.6522827,-1.75,-0.671875,-0.625,214
104,1696253195049,0.78125,-0.016906738,0.6576538,-1.6875,-1.203125,0.375,215
105,1696253195089,0.7746582,-0.01739502,0.66204834,-0.421875,-0.390625,0.359375,216
106,1696253195129,0.7578125,-0.010314941,0.6618042,-0.796875,-0.671875,0.046875,217
107,1696253195169,0.7668457,-0.0056762695,0.65960693,0.0,-0.9375,-0.265625,218
108,1696253195209,0.7741699,-0.016174316,0.65838623,-1.1875,-0.5,0.015625,219
109,1696253195249,0.7763672,-0.012023926,0.66204834,-1.21875,-0.859375,-0.03125,220
110,1696253195289,0.76660156,-0.0154418945,0.6586304,-0.78125,-1.015625,0.3125,221
111,1696253195329,0.77246094,-0.007873535,0.6559448,0.15625,-0.1875,0.5,222
112,1696253195369,0.7702637,-0.016418457,0.6539917,0.875,0.078125,0.53125,223
113,1696253195409,0.77856445,-0.009338379,0.6605835,0.640625,-0.703125,0.03125,224
114,1696253195449,0.7807617,-0.01739502,0.65448,0.0,-0.625,0.03125,225
115,1696253195489,0.78149414,-0.014709473,0.6552124,-0.328125,-0.421875,-0.078125,226
116,1696253195529,0.77905273,-0.014709473,0.6586304,-0.9375,-0.78125,0.015625,227
117,1696253195569,0.7705078,-0.012023926,0.65960693,-0.734375,-1.125,-0.125,228
118,1696253195609,0.7644043,-0.01373291,0.6625366,0.140625,-0.453125,0.15625,229
119,1696253195649,0.7705078,-0.0178833,0.6622925,0.15625,-0.453125,0.390625,230
120,1696253195689,0.76782227,-0.008361816,0.6598511,-0.0625,-0.3125,0.3125,231
121,1696253195729,0.77001953,-0.014709473,0.6557007,0.03125,-0.390625,0.203125,232
122,1696253195769,0.7800293,-0.019348145,0.6618042,0.171875,0.0,0.15625,233
123,1696253195809,0.77124023,-0.012023926,0.6498413,-0.5625,-0.109375,0.234375,234
124,1696253195849,0.7734375,-0.022277832,0.6539917,0.40625,-0.140625,0.171875,235
125,1696253195889,0.77075195,-0.011779785,0.65740967,0.53125,-0.3125,-0.140625,236
126,1696253195929,0.76464844,-0.012512207,0.6466675,0.390625,-0.578125,0.140625,237
127,1696253195969,0.77319336,-0.011047363,0.6635132,0.46875,0.09375,0.484375,238
128,1696253196009,0.78100586,-0.018371582,0.6618042,0.421875,-0.21875,0.078125,239
129,1696253196049,0.78271484,-0.014221191,0.6532593,-0.515625,-0.3125,-0.265625,240
130,1696253196089,0.7780762,-0.007873535,0.6532593,-0.875,-0.640625,0.03125,241
131,1696253196129,0.76416016,-0.020080566,0.6642456,-0.609375,0.0,0.609375,242
132,1696253196169,0.77319336,-0.015197754,0.6610718,-2.46875,0.21875,0.078125,243
133,1696253196209,0.7727051,-0.015930176,0.6593628,-1.578125,0.515625,0.65625,244
134,1696253196249,0.779541,-0.016174316,0.6481323,0.5625,0.203125,0.734375,245
135,1696253196289,0.7807617,-0.0056762695,0.6515503,0.359375,-0.5625,0.375,246
136,1696253196329,0.7753906,-0.003967285,0.6478882,-0.125,-0.203125,0.21875,247
137,1696253196369,0.78125,-0.0134887695,0.6552124,-0.234375,-1.109375,0.3125,248
138,1696253196409,0.7783203,-0.013977051,0.6552124,0.96875,-0.90625,0.21875,249
139,1696253196449,0.7780762,-0.014709473,0.6466675,1.015625,-0.828125,-0.0625,250
140,1696253196489,0.77734375,0.0006713867,0.65911865,1.515625,-1.4375,0.453125,251
141,1696253196529,0.76782227,-0.020080566,0.65179443,2.640625,-1.71875,0.21875,252
142,1696253196569,0.78222656,-0.014221191,0.66619873,0.546875,0.5,-0.234375,253
143,1696253196609,0.79345703,-0.01763916,0.66448975,-1.328125,1.71875,1.015625,254
144,1696253196649,0.782959,-0.023986816,0.6547241,-1.625,1.4375,1.015625,255
145,1696253196689,0.7702637,-0.0044555664,0.65545654,-0.15625,1.046875,0.265625,256
146,1696253196729,0.7609863,-0.012512207,0.63861084,-0.25,0.4375,0.578125,257
147,1696253196769,0.7956543,-0.003479004,0.65618896,0.75,2.28125,0.234375,258
148,1696253196809,0.7788086,-0.025939941,0.6347046,0.078125,-0.09375,1.375,259
149,1696253196849,0.7895508,-0.009094238,0.6376343,0.03125,-0.390625,-0.328125,260
150,1696253196889,0.7807617,-0.0037231445,0.6473999,-0.59375,-0.234375,0.546875,261
151,1696253196929,0.7871094,-0.017150879,0.6503296,-0.078125,-0.109375,0.203125,262
152,1696253196969,0.7800293,-0.016662598,0.6364136,-1.828125,-0.421875,0.015625,263
153,1696253197009,0.7817383,-0.0095825195,0.63934326,-0.78125,-0.34375,0.59375,264
154,1696253197049,0.78564453,-0.0025024414,0.65008545,0.53125,0.203125,0.390625,265
155,1696253197089,0.7844238,-0.008605957,0.6552124,-0.640625,-0.125,0.5,266
156,1696253197129,0.7858887,-0.01373291,0.65057373,-0.1875,-0.21875,0.703125,267
157,1696253197169,0.78271484,-0.010559082,0.6347046,-0.03125,-0.375,-0.109375,268
158,1696253197209,0.78393555,0.006286621,0.64227295,0.4375,0.46875,-0.453125,269
159,1696253197249,0.7871094,-0.0037231445,0.64398193,-0.46875,-0.34375,0.59375,270
160,1696253197289,0.7817383,-0.0017700195,0.63690186,-0.9375,-0.53125,0.53125,271
161,1696253197329,0.7849121,-0.010314941,0.63397217,-0.65625,-0.296875,0.390625,272
162,1696253197369,0.7854004,-0.007873535,0.6437378,-1.03125,-0.171875,0.28125,273
163,1696253197409,0.78125,-0.006164551,0.6481323,-0.265625,-0.421875,0.015625,274
164,1696253197449,0.79003906,0.00018310547,0.6466675,0.0625,-0.484375,-0.0625,275
165,1696253197489,0.78466797,-0.009094238,0.6376343,-0.171875,-0.109375,0.375,276
166,1696253197529,0.7949219,-0.003967285,0.6395874,0.140625,-0.296875,0.078125,277
167,1696253197569,0.7858887,-0.005432129,0.6376343,-0.21875,-0.203125,0.21875,278
168,1696253197609,0.78808594,-0.0068969727,0.6400757,-0.171875,-0.75,0.40625,279
169,1696253197649,0.7895508,-0.0071411133,0.6466675,0.3125,-0.359375,0.59375,280
170,1696253197689,0.79003906,-0.004211426,0.6498413,0.46875,0.25,0.65625,281
171,1696253197729,0.79956055,-0.004211426,0.6449585,3.3125,1.8125,1.109375,282
172,1696253197769,0.7844238,0.00018310547,0.6310425,0.171875,0.203125,1.765625,283
173,1696253197809,0.7758789,0.0004272461,0.6412964,0.5,0.28125,1.78125,284
174,1696253197849,0.7854004,-0.0071411133,0.6359253,1.21875,-0.140625,0.6875,285
175,1696253197889,0.7895508,-0.010070801,0.62323,0.359375,-0.171875,0.09375,286
176,1696253197929,0.7854004,0.0026245117,0.62835693,0.109375,-0.953125,-0.828125,287
177,1696253197969,0.8010254,-0.006652832,0.6366577,-0.34375,-0.328125,-0.046875,288
178,1696253198009,0.79833984,-0.005432129,0.6359253,0.921875,0.6875,0.84375,289
179,1696253198049,0.8066406,-0.003479004,0.63446045,-0.375,0.21875,0.671875,290
180,1696253198089,0.7949219,-0.00079345703,0.6329956,-0.6875,-0.703125,0.84375,291
181,1696253198129,0.78344727,-0.0029907227,0.6415405,-0.359375,-0.4375,0.5625,292
182,1696253198169,0.765625,-0.014465332,0.6395874,-0.8125,-0.71875,0.828125,293
183,1696253198209,0.7780762,-0.0154418945,0.63275146,-0.328125,-0.796875,0.28125,294
184,1696253198249,0.78930664,-0.004211426,0.6366577,0.578125,0.328125,-0.71875,295
185,1696253198289,0.7976074,0.011413574,0.635437,0.40625,0.46875,-0.703125,296
186,1696253198329,0.796875,0.0065307617,0.6264038,0.171875,-0.34375,0.140625,297
187,1696253198369,0.7993164,-0.0044555664,0.63079834,-0.828125,-1.09375,1.3125,298
188,1696253198409,0.79541016,-0.009094238,0.6244507,-0.734375,-0.546875,0.890625,299
189,1696253198449,0.7927246,-0.012756348,0.6312866,-0.734375,-0.0625,0.34375,300
190,1696253198489,0.79003906,-0.005432129,0.63861084,0.078125,0.09375,0.390625,301
191,1696253198529,0.7817383,-0.0012817383,0.6264038,-0.21875,-0.8125,0.09375,302
192,1696253198569,0.78759766,0.009460449,0.6366577,0.578125,-0.296875,-0.421875,303
193,1696253198609,0.79833984,0.003112793,0.637146,-0.21875,-0.484375,0.328125,304
194,1696253198649,0.7873535,0.001159668,0.6310425,0.140625,-0.421875,0.21875,305
195,1696253198689,0.796875,-0.003479004,0.6288452,-0.578125,-0.921875,-0.140625,306
196,1696253198729,0.79296875,-0.0017700195,0.6298218,-0.546875,-0.1875,0.046875,307
197,1696253198769,0.7980957,-0.003479004,0.63079834,-0.5,-0.921875,-0.3125,308
198,1696253198809,0.79589844,-0.012023926,0.63031006,-0.34375,-1.28125,0.0625,309
199,1696253198849,0.7927246,0.0060424805,0.6334839,-0.109375,-0.609375,0.140625,310
200,1696253198889,0.79589844,0.0006713867,0.64056396,2.71875,2.96875,0.5625,311
201,1696253198929,0.8039551,-0.0015258789,0.61468506,0.734375,1.53125,1.4375,312
202,1696253198969,0.77856445,0.0099487305,0.6156616,2.03125,-1.390625,0.515625,313
203,1696253199009,0.7841797,-0.0068969727,0.6244507,5.234375,-2.46875,-1.0,314
204,1696253199049,0.78564453,-0.008605957,0.637146,6.5,-3.109375,-2.40625,315
205,1696253199089,0.77734375,-0.023010254,0.65618896,6.359375,-4.140625,-4.171875,316
206,1696253199129,0.7687988,-0.012512207,0.68255615,5.75,-9.234375,-5.359375,317
207,1696253199169,0.7734375,-0.050109863,0.670105,6.984375,-9.03125,-4.609375,318
208,1696253199209,0.8015137,-0.06524658,0.6757202,0.21875,-3.875,-2.015625,319
209,1696253199249,0.7927246,-0.051574707,0.65179443,-1.53125,-3.453125,0.40625,320
210,1696253199289,0.75097656,-0.039367676,0.66156006,-0.578125,-5.3125,0.625,321
211,1696253199329,0.73535156,-0.051574707,0.6696167,-0.9375,-4.0625,0.484375,322
212,1696253199369,0.7524414,-0.054260254,0.65301514,-0.4375,-1.0,1.515625,323
213,1696253199409,0.74560547,-0.035949707,0.67596436,0.640625,1.359375,2.03125,324
214,1696253199449,0.7944336,-0.042541504,0.6659546,0.875,3.453125,0.890625,325
215,1696253199489,0.7849121,-0.031311035,0.62420654,-2.40625,1.9375,2.65625,326
216,1696253199529,0.7956543,-0.034729004,0.638855,-3.796875,2.6875,2.140625,327
217,1696253199569,0.78271484,-0.04864502,0.69573975,-1.046875,5.296875,4.203125,328
218,1696253199609,0.76000977,-0.031799316,0.6508179,-3.546875,1.78125,4.578125,329
219,1696253199649,0.7380371,-0.018615723,0.62005615,-0.703125,0.8125,0.46875,330
220,1696253199689,0.77734375,-0.024963379,0.6461792,1.40625,0.578125,-1.734375,331
221,1696253199729,0.7907715,-0.026428223,0.65448,0.609375,0.625,0.515625,332
222,1696253199769,0.7788086,-0.039367676,0.6600952,-0.515625,-2.0,0.328125,333
223,1696253199809,0.7722168,-0.011047363,0.64105225,-1.078125,-1.640625,-0.671875,334
224,1696253199849,0.77612305,-0.014953613,0.65301514,1.109375,-1.09375,-0.75,335
225,1696253199889,0.7832031,-0.023986816,0.668396,1.578125,-0.59375,0.125,336
226,1696253199929,0.7739258,-0.032043457,0.6515503,-0.140625,-0.578125,0.75,337
227,1696253199969,0.7714844,-0.014709473,0.6469116,-0.625,-0.734375,0.109375,338
228,1696253200009,0.7709961,-0.025939941,0.6461792,-0.078125,-0.171875,0.0,339
229,1696253200049,0.7788086,-0.031555176,0.65960693,1.140625,0.40625,-0.0625,340
230,1696253200089,0.7824707,-0.03277588,0.6498413,0.5,-0.234375,0.078125,341
231,1696253200129,0.7832031,-0.020324707,0.64398193,0.375,-0.1875,-0.171875,342
232,1696253200169,0.7919922,-0.028625488,0.63934326,-0.75,-0.90625,0.28125,343
233,1696253200209,0.77197266,-0.017150879,0.6520386,-1.203125,-0.21875,0.40625,344
234,1696253200249,0.7739258,-0.03253174,0.65423584,-2.125,-0.890625,0.6875,345
235,1696253200289,0.7558594,-0.03643799,0.66986084,-1.171875,-0.34375,0.515625,346
236,1696253200329,0.78564453,-0.021057129,0.65008545,-1.65625,0.125,-0.625,347
237,1696253200369,0.7807617,-0.016906738,0.65057373,-0.96875,0.21875,0.328125,348
238,1696253200409,0.78466797,-0.015930176,0.6466675,-0.96875,0.375,0.21875,349
239,1696253200449,0.7819824,-0.023010254,0.64715576,-0.4375,-0.390625,0.453125,350
240,1696253200489,0.77441406,-0.03277588,0.64642334,0.0625,-0.515625,0.71875,351
241,1696253200529,0.78637695,-0.023986816,0.6456909,0.3125,-0.5625,-0.21875,352
242,1696253200569,0.78027344,-0.017150879,0.6444702,-0.984375,-1.203125,-0.515625,353
243,1696253200609,0.7751465,-0.013244629,0.6456909,-1.046875,-0.921875,-0.1875,354
244,1696253200649,0.77978516,-0.024963379,0.6539917,-1.796875,-1.4375,-0.234375,355
245,1696253200689,0.7763672,-0.019592285,0.6547241,-1.984375,-1.375,0.21875,356
246,1696253200729,0.7753906,-0.015686035,0.6708374,-0.28125,-1.03125,-0.203125,357
247,1696253200769,0.767334,-0.028137207,0.652771,-0.34375,-0.265625,0.171875,358
248,1696253200809,0.78637695,-0.020568848,0.652771,-0.390625,0.015625,0.1875,359
249,1696253200849,0.77685547,-0.0134887695,0.6498413,-0.09375,-1.359375,0.171875,360
250,1696253200889,0.7792969,-0.016662598,0.6498413,-0.078125,-1.03125,-0.921875,361
251,1696253200929,0.7734375,-0.013977051,0.64520264,-0.71875,-0.90625,0.53125,362
252,1696253200969,0.77319336,-0.023742676,0.6522827,-0.765625,-0.625,0.703125,363
253,1696253201009,0.7788086,-0.020568848,0.65423584,0.15625,-0.21875,0.203125,364
254,1696253201049,0.7753906,-0.01763916,0.6581421,0.125,-0.296875,0.125,365
255,1696253201089,0.7714844,-0.016418457,0.6576538,-0.015625,-0.671875,0.21875,366
256,1696253201129,0.76293945,-0.01739502,0.6547241,-0.328125,-0.671875,-0.109375,367
257,1696253201169,0.7800293,-0.024963379,0.65838623,-0.375,-0.09375,0.015625,368
258,1696253201209,0.77319336,-0.022033691,0.6581421,-0.578125,-0.046875,0.28125,369
259,1696253201249,0.7861328,-0.020812988,0.65911865,0.015625,0.078125,0.609375,370
260,1696253201289,0.7895508,-0.018615723,0.65740967,-0.96875,0.828125,0.796875,371
261,1696253201329,0.77246094,-0.01373291,0.6515503,-1.53125,1.59375,1.125,372
262,1696253201369,0.7717285,-0.014709473,0.6442261,-0.96875,0.203125,1.375,373
263,1696253201409,0.7763672,-0.020324707,0.65057373,0.8125,0.046875,0.671875,374
264,1696253201449,0.78466797,-0.010559082,0.64276123,0.328125,0.03125,0.109375,375
265,1696253201489,0.7836914,-0.0044555664,0.64959717,0.15625,-0.21875,-0.078125,376
266,1696253201529,0.7770996,-0.013244629,0.6498413,-1.1875,-0.71875,0.484375,377
267,1696253201569,0.78027344,-0.017150879,0.65545654,-0.65625,-0.171875,0.21875,378
268,1696253201609,0.78564453,-0.00592041,0.63861084,-1.296875,0.578125,0.03125,379
269,1696253201649,0.7910156,0.001159668,0.6532593,-1.46875,0.6875,0.75,380
270,1696253201689,0.78515625,-0.014465332,0.65179443,-0.890625,0.3125,1.3125,381
271,1696253201729,0.78271484,-0.004699707,0.6547241,-0.390625,0.234375,0.703125,382
272,1696253201769,0.78271484,0.00018310547,0.6442261,0.0625,0.796875,0.640625,383
273,1696253201809,0.78149414,-0.008117676,0.63934326,0.71875,0.34375,0.640625,384
274,1696253201849,0.78930664,-0.0025024414,0.63861084,-0.515625,-0.359375,0.546875,385
275,1696253201889,0.79125977,0.0006713867,0.63153076,0.09375,0.96875,0.953125,386
276,1696253201929,0.7939453,0.0006713867,0.6395874,0.578125,0.46875,0.625,387
277,1696253201969,0.79711914,-0.007385254,0.6376343,0.0625,-0.140625,0.203125,388
278,1696253202009,0.79296875,-0.005432129,0.6444702,-1.046875,0.0625,0.0625,389
279,1696253202049,0.78149414,-6.1035156e-05,0.6383667,-0.234375,-0.640625,0.15625,390
280,1696253202089,0.7890625,-0.010070801,0.6430054,0.8125,-0.546875,0.28125,391
281,1696253202129,0.78930664,-0.0017700195,0.64227295,0.6875,0.78125,-0.375,392
282,1696253202169,0.7910156,-0.006164551,0.6325073,-0.109375,0.625,-0.390625,393
283,1696253202209,0.80126953,0.0065307617,0.64349365,-0.421875,-0.75,0.03125,394
284,1696253202249,0.7902832,-0.006164551,0.6522827,0.375,-1.421875,1.015625,395
285,1696253202289,0.77612305,-0.012512207,0.63861084,-0.1875,-0.859375,0.171875,396
286,1696253202329,0.7792969,-0.005432129,0.6293335,-0.484375,-0.015625,0.265625,397
287,1696253202369,0.7961426,0.0018920898,0.6415405,0.328125,-0.453125,0.21875,398
288,1696253202409,0.7937012,0.0026245117,0.6329956,-0.734375,-0.859375,0.140625,399
289,1696253202449,0.78344727,-0.004211426,0.6412964,-1.25,-0.03125,0.703125,400
290,1696253202489,0.7902832,0.0038452148,0.6415405,0.375,-0.828125,0.171875,401
291,1696253202529,0.7861328,-0.0037231445,0.63397217,0.0625,-0.75,-0.09375,402
292,1696253202569,0.78393555,0.0060424805,0.63031006,-0.71875,-0.3125,0.046875,403
293,1696253202609,0.78027344,-0.0015258789,0.6466675,0.453125,-0.140625,-0.078125,404
294,1696253202649,0.7944336,-0.0064086914,0.6329956,0.3125,0.484375,0.5625,405
295,1696253202689,0.7998047,0.00018310547,0.63201904,-0.5625,-0.015625,0.640625,406
296,1696253202729,0.78271484,-0.0020141602,0.6432495,0.625,-0.140625,0.84375,407
297,1696253202769,0.779541,-0.0017700195,0.6491089,-0.046875,-1.21875,0.921875,408
298,1696253202809,0.76904297,0.0067749023,0.62835693,-1.828125,-1.53125,0.59375,409
299,1696253202849,0.79052734,0.012145996,0.638855,-0.546875,0.578125,-0.046875,410
300,1696253202889,0.80981445,-0.005432129,0.64886475,0.546875,0.046875,-0.453125,411
301,1696253202929,0.7973633,-0.011047363,0.6268921,-1.453125,0.296875,0.640625,412
302,1696253202969,0.78393555,0.0099487305,0.6256714,-1.28125,-0.3125,0.21875,413
303,1696253203009,0.78637695,-0.0005493164,0.638855,-0.34375,-0.140625,0.5,414
304,1696253203049,0.79248047,-0.004211426,0.63031006,0.8125,-0.5,0.359375,415
305,1696253203089,0.7902832,0.0036010742,0.6486206,0.40625,-0.34375,0.3125,416
306,1696253203129,0.779541,0.009460449,0.6456909,-1.25,-0.921875,0.328125,417
307,1696253203169,0.77197266,0.014831543,0.64520264,-2.546875,-0.734375,-0.21875,418
308,1696253203209,0.7792969,-0.004699707,0.64520264,-1.421875,0.671875,-1.453125,419
309,1696253203249,0.814209,-0.0010375977,0.62298584,-0.578125,0.828125,-1.765625,420
310,1696253203289,0.82128906,-0.0049438477,0.6246948,-0.671875,-0.046875,-0.609375,421
311,1696253203329,0.79125977,0.007019043,0.62054443,-0.8125,0.078125,1.484375,422
312,1696253203369,0.7758789,0.0053100586,0.621521,-0.578125,-0.21875,1.53125,423
313,1696253203409,0.7973633,0.009460449,0.6498413,1.1875,1.125,0.921875,424
314,1696253203449,0.782959,0.0033569336,0.65057373,1.734375,-1.0625,1.0625,425
315,1696253203489,0.76293945,-0.0029907227,0.6317749,-0.96875,0.265625,-0.296875,426
316,1696253203529,0.81274414,0.011657715,0.61517334,-3.046875,1.9375,-1.078125,427
317,1696253203569,0.8208008,0.016296387,0.618103,0.15625,2.109375,-1.09375,428
318,1696253203609,0.80029297,0.003112793,0.61395264,-0.25,-2.140625,0.359375,429
319,1696253203649,0.77978516,0.003112793,0.62054443,-2.4375,0.03125,2.046875,430
320,1696253203689,0.7890625,0.015075684,0.6281128,1.15625,-0.4375,1.484375,431
321,1696253203729,0.8005371,-0.0044555664,0.6456909,3.03125,-0.421875,0.1875,432
322,1696253203769,0.7963867,-0.002746582,0.61639404,-0.46875,-0.828125,0.09375,433
323,1696253203809,0.7993164,0.024353027,0.6342163,-0.796875,-0.828125,-0.375,434
324,1696253203849,0.7919922,0.00970459,0.62176514,-1.234375,-0.078125,0.390625,435
325,1696253203889,0.7885742,0.010192871,0.62615967,-0.953125,0.0,-0.09375,436
326,1696253203929,0.79907227,0.013122559,0.6246948,-0.734375,-1.125,0.0,437
327,1696253203969,0.79907227,0.015075684,0.6359253,0.59375,-0.03125,0.375,438
328,1696253204009,0.7949219,0.0033569336,0.61932373,-0.40625,-1.359375,0.453125,439
329,1696253204049,0.8066406,0.0079956055,0.6251831,-1.546875,-0.125,0.328125,440
330,1696253204089,0.7949219,0.01727295,0.63934326,-1.484375,-0.4375,0.234375,441
331,1696253204129,0.78149414,0.011413574,0.6376343,-0.5625,-0.578125,0.078125,442
332,1696253204169,0.7907715,0.0065307617,0.6264038,-0.0625,-0.703125,0.140625,443
333,1696253204209,0.80322266,0.012878418,0.62664795,0.375,-0.234375,-0.015625,444
334,1696253204249,0.7932129,0.018005371,0.62249756,0.53125,-1.0,-0.0625,445
335,1696253204289,0.78881836,0.016296387,0.63690186,0.59375,-0.34375,-0.109375,446
336,1696253204329,0.8010254,0.013122559,0.62835693,-0.609375,-0.859375,0.109375,447
337,1696253204369,0.79663086,0.0021362305,0.61590576,-1.375,-0.6875,0.5625,448
338,1696253204409,0.7980957,0.014587402,0.62786865,-0.5,-0.578125,-0.09375,449
339,1696253204449,0.79052734,0.0045776367,0.63153076,-0.3125,-0.796875,0.453125,450
340,1696253204489,0.80029297,0.012390137,0.6281128,-0.234375,-0.53125,0.171875,451
341,1696253204529,0.7961426,0.0099487305,0.63861084,0.15625,-0.84375,-0.140625,452
342,1696253204569,0.7858887,0.019226074,0.633728,0.6875,-1.640625,-0.203125,453
343,1696253204609,0.7766113,0.012634277,0.63397217,-0.140625,-0.78125,-0.234375,454
344,1696253204649,0.7973633,0.019470215,0.6481323,-0.15625,0.296875,-1.21875,455
345,1696253204689,0.8054199,0.002380371,0.61151123,-2.265625,-2.609375,-0.59375,456
346,1696253204729,0.8005371,0.011169434,0.61932373,-2.515625,-2.90625,-0.359375,457
347,1696253204769,0.78149414,0.014343262,0.6456909,-1.46875,-5.0,-1.125,458
348,1696253204809,0.76220703,0.008483887,0.6581421,5.296875,-9.71875,-3.46875,459
349,1696253204849,0.7741699,-0.020568848,0.6622925,10.71875,-11.4375,-6.265625,460
350,1696253204889,0.75,-0.00030517578,0.6679077,13.5,-3.359375,-7.6875,461
351,1696253204929,0.73461914,-0.024719238,0.6820679,10.203125,-2.140625,-2.296875,462
352,1696253204969,0.80249023,-0.057678223,0.6864624,1.1875,-3.515625,0.421875,463
353,1696253205009,0.8027344,-0.06939697,0.69989014,-3.5,-2.40625,0.390625,464
354,1696253205049,0.77783203,-0.04864502,0.680603,-3.421875,-4.359375,0.296875,465
355,1696253205089,0.73706055,-0.034729004,0.6535034,-0.4375,-3.34375,0.65625,466
356,1696253205129,0.7260742,-0.0017700195,0.6967163,2.859375,-0.15625,3.328125,467
357,1696253205169,0.7385254,-0.019104004,0.68621826,0.609375,5.421875,4.84375,468
358,1696253205209,0.7963867,-0.038635254,0.6178589,-0.65625,14.84375,7.5625,469
359,1696253205249,0.83154297,-0.0025024414,0.61639404,-4.8125,9.046875,8.515625,470
360,1696253205289,0.7775879,0.016784668,0.65960693,-0.328125,0.328125,4.421875,471
361,1696253205329,0.7578125,-0.02960205,0.64276123,-0.109375,-2.8125,-0.078125,472
362,1696253205369,0.7714844,-0.043273926,0.6322632,-1.828125,-1.109375,-1.4375,473
363,1696253205409,0.7817383,0.0016479492,0.63397217,-1.65625,-3.296875,-1.828125,474
364,1696253205449,0.77734375,0.011657715,0.65008545,-1.296875,-2.984375,-0.453125,475
365,1696253205489,0.7878418,-0.00079345703,0.6642456,-2.5625,-1.46875,0.328125,476
366,1696253205529,0.77612305,-0.0029907227,0.68377686,1.0625,-0.296875,-0.21875,477
367,1696253205569,0.7854004,-0.0015258789,0.6779175,0.6875,0.0,-0.796875,478
368,1696253205609,0.7648926,-0.0012817383,0.6400757,-2.53125,-1.78125,0.359375,479
369,1696253205649,0.7692871,0.008728027,0.65496826,-0.390625,-1.0,0.515625,480
370,1696253205689,0.7651367,-0.007873535,0.66448975,0.546875,0.0,0.421875,481
371,1696253205729,0.7792969,-0.0071411133,0.6588745,0.984375,-0.015625,-0.140625,482
372,1696253205769,0.78808594,-0.0134887695,0.6569214,-1.1875,-0.796875,-0.734375,483
373,1696253205809,0.7963867,0.0016479492,0.65448,-2.125,-0.03125,0.421875,484
374,1696253205849,0.7915039,0.0079956055,0.668396,-1.09375,-0.984375,1.234375,485
375,1696253205889,0.7558594,-0.006652832,0.6637573,0.34375,-0.96875,0.734375,486
376,1696253205929,0.7565918,-0.019348145,0.6539917,1.65625,1.578125,1.9375,487
377,1696253205969,0.76831055,-0.0051879883,0.63323975,3.078125,1.609375,1.015625,488
378,1696253206009,0.78515625,0.010192871,0.6364136,1.15625,0.0625,-0.84375,489
379,1696253206049,0.795166,0.016052246,0.6586304,-0.484375,-0.765625,-0.515625,490
380,1696253206089,0.78686523,-0.0015258789,0.65008545,-2.15625,-1.65625,0.453125,491
381,1696253206129,0.78466797,-0.0068969727,0.6491089,-1.984375,-1.734375,-0.21875,492
382,1696253206169,0.77612305,-0.0068969727,0.65008545,-2.328125,-0.921875,-0.75,493
383,1696253206209,0.7824707,0.0018920898,0.66204834,-1.828125,-1.421875,0.078125,494
384,1696253206249,0.76123047,-0.0022583008,0.6610718,-0.4375,-1.390625,0.453125,495
385,1696253206289,0.7614746,0.0048217773,0.6581421,-0.921875,0.65625,0.46875,496
386,1696253206329,0.7729492,-0.0005493164,0.6688843,0.859375,0.65625,0.125,497
387,1696253206369,0.7746582,0.002380371,0.65423584,1.453125,-0.234375,0.03125,498
388,1696253206409,0.7800293,-0.00030517578,0.6473999,0.609375,-0.265625,0.40625,499
389,1696253206449,0.77978516,0.008483887,0.6481323,-0.078125,-0.109375,0.421875,500
390,1696253206489,0.7758789,0.015075684,0.6508179,-0.25,-0.171875,0.25,501
391,1696253206529,0.7763672,0.0004272461,0.65545654,0.5625,-0.890625,0.53125,502
392,1696253206569,0.77075195,-0.0020141602,0.6539917,-0.140625,-0.625,0.28125,503
393,1696253206609,0.77685547,-0.0010375977,0.65618896,-1.71875,-0.3125,-0.015625,504
394,1696253206649,0.7780762,0.0060424805,0.65667725,-0.59375,-0.015625,-0.140625,505
395,1696253206689,0.7780762,-0.0005493164,0.66204834,0.265625,0.03125,0.265625,506
396,1696253206729,0.7792969,0.007751465,0.6647339,0.375,0.765625,0.46875,507
397,1696253206769,0.7661133,0.018493652,0.6676636,1.0,2.9375,1.015625,508
398,1696253206809,0.77783203,-0.018127441,0.649353,2.953125,3.296875,1.375,509
399,1696253206849,0.7895508,-0.0056762695,0.63031006,2.421875,2.21875,0.34375,510
400,1696253206889,0.79589844,-0.0025024414,0.62957764,2.890625,1.625,0.328125,511
401,1696253206929,0.7897949,0.0045776367,0.61102295,-0.953125,-0.59375,1.25,512
402,1696253206969,0.77734375,-0.0049438477,0.63153076,-1.0625,-0.296875,0.640625,513
403,1696253207009,0.77905273,0.0045776367,0.6415405,-1.625,-1.0625,-0.453125,514
404,1696253207049,0.7907715,-0.0044555664,0.6408081,-0.734375,-0.90625,-0.46875,515
405,1696253207089,0.8027344,0.010925293,0.64276123,-1.921875,-1.09375,-0.21875,516
406,1696253207129,0.7758789,0.005065918,0.6444702,-0.46875,-1.53125,0.375,517
407,1696253207169,0.76831055,-0.010803223,0.6298218,-1.671875,-1.375,0.75,518
408,1696253207209,0.78466797,0.0033569336,0.64276123,-1.171875,0.546875,-0.515625,519
409,1696253207249,0.79541016,0.004333496,0.63739014,-0.59375,-0.671875,-0.296875,520
410,1696253207289,0.78759766,0.008239746,0.6539917,0.21875,-1.84375,0.015625,521
411,1696253207329,0.7861328,-0.014709473,0.651062,0.046875,-0.890625,0.703125,522
412,1696253207369,0.7907715,0.005065918,0.64642334,-1.1875,-0.859375,0.265625,523
413,1696253207409,0.7973633,0.011657715,0.6412964,-0.46875,-1.03125,-0.0625,524
414,1696253207449,0.78125,-0.00030517578,0.64837646,0.875,-0.71875,0.171875,525
415,1696253207489,0.7739258,0.0028686523,0.6444702,-0.875,-0.53125,0.171875,526
416,1696253207529,0.7722168,0.012634277,0.64056396,-0.640625,-0.421875,-0.125,527
417,1696253207569,0.7783203,0.005065918,0.64471436,0.359375,-0.40625,0.046875,528
418,1696253207609,0.79345703,0.0048217773,0.6469116,0.0625,-0.4375,0.015625,529
419,1696253207649,0.7883301,0.0006713867,0.64398193,-0.75,-0.796875,-0.140625,530
420,1696253207689,0.7927246,0.008972168,0.6473999,-1.421875,-0.40625,-0.125,531
421,1696253207729,0.78393555,0.0067749023,0.64178467,-1.015625,-0.171875,0.140625,532
422,1696253207769,0.78686523,0.0045776367,0.64520264,-0.984375,-0.578125,-0.078125,533
423,1696253207809,0.78271484,0.01361084,0.64837646,-0.875,0.171875,-0.25,534
424,1696253207849,0.7832031,0.007019043,0.638855,0.015625,-0.46875,0.546875,535
425,1696253207889,0.7800293,0.0004272461,0.6366577,0.484375,-0.390625,0.203125,536
426,1696253207929,0.7871094,0.0053100586,0.65374756,0.421875,-0.21875,0.015625,537
427,1696253207969,0.7949219,0.0053100586,0.65374756,-0.109375,-0.8125,-0.03125,538
428,1696253208009,0.7788086,0.0079956055,0.64349365,-1.015625,-1.203125,0.21875,539
429,1696253208049,0.7746582,0.007019043,0.63934326,-0.59375,-1.015625,0.203125,540
430,1696253208089,0.76953125,-0.0032348633,0.6342163,0.796875,-0.59375,-0.328125,541
431,1696253208129,0.79956055,0.020202637,0.6901245,6.03125,4.859375,-3.453125,542
432,1696253208169,0.7927246,-0.024475098,0.6571655,15.4375,4.109375,-2.875,543
433,1696253208209,0.7897949,-0.041809082,0.6095581,8.515625,-4.0625,-3.0625,544
434,1696253208249,0.77124023,-0.039611816,0.6281128,5.46875,-2.6875,-2.9375,545
435,1696253208289,0.77124023,-0.03277588,0.68255615,8.140625,-1.0,1.953125,546
436,1696253208329,0.82373047,-0.054748535,0.62835693,-0.203125,-4.828125,3.515625,547
437,1696253208369,0.7705078,-0.016906738,0.64178467,-3.40625,-1.1875,4.171875,548
438,1696253208409,0.7692871,-0.014953613,0.619812,2.296875,3.40625,1.046875,549
439,1696253208449,0.79541016,-0.005432129,0.6129761,-1.671875,2.3125,4.046875,550
440,1696253208489,0.78149414,-0.0044555664,0.604187,-6.078125,-0.140625,4.5,551
441,1696253208529,0.7858887,-0.038391113,0.6288452,-3.59375,-1.25,1.109375,552
442,1696253208569,0.782959,-0.024230957,0.63934326,-4.390625,-2.96875,-1.171875,553
443,1696253208609,0.7861328,-0.007385254,0.64276123,-3.46875,-4.09375,-2.4375,554
444,1696253208649,0.7890625,0.0026245117,0.6588745,-3.140625,-2.671875,-1.484375,555
445,1696253208689,0.7819824,-0.018615723,0.6581421,-4.078125,-1.75,0.3125,556
446,1696253208729,0.7751465,-0.027160645,0.66400146,-2.703125,-2.25,-0.15625,557
447,1696253208769,0.7648926,-0.013000488,0.6659546,0.296875,-1.671875,-0.40625,558
448,1696253208809,0.77197266,0.0004272461,0.65740967,1.984375,-0.234375,0.03125,559
449,1696253208849,0.78027344,-0.0051879883,0.65545654,2.984375,0.671875,1.1875,560
450,1696253208889,0.78466797,-0.0032348633,0.6466675,2.703125,0.90625,1.421875,561
451,1696253208929,0.7961426,-0.01739502,0.64886475,0.8125,0.609375,0.5625,562
452,1696253208969,0.78515625,-0.01739502,0.649353,0.8125,0.0625,0.0625,563
453,1696253209009,0.7753906,-0.0068969727,0.6351929,-0.375,-2.03125,-0.515625,564
454,1696253209049,0.7788086,0.0018920898,0.638855,-3.4375,-0.765625,-0.53125,565
455,1696253209089,0.78149414,0.0033569336,0.6522827,-2.0,-0.53125,0.59375,566
456,1696253209129,0.76586914,-0.01763916,0.65057373,-1.421875,-1.203125,0.0,567
457,1696253209169,0.77368164,-0.014465332,0.6547241,-1.28125,-1.109375,-0.28125,568
458,1696253209209,0.7832031,-0.015686035,0.6691284,-0.203125,-0.234375,-0.09375,569
459,1696253209249,0.782959,-0.008850098,0.64642334,-0.484375,-0.40625,0.078125,570
460,1696253209289,0.7751465,-0.0029907227,0.6539917,-0.21875,-0.328125,-0.015625,571
461,1696253209329,0.7746582,-0.0015258789,0.6478882,0.25,-0.703125,0.296875,572
462,1696253209369,0.77124023,0.002380371,0.66571045,-0.0625,0.21875,0.46875,573
463,1696253209409,0.7871094,-0.0064086914,0.64056396,-0.890625,-0.578125,0.640625,574
464,1696253209449,0.78686523,-0.0017700195,0.6486206,-0.28125,-0.640625,0.1875,575
465,1696253209489,0.7758789,-0.0064086914,0.6515503,-0.390625,-0.375,-0.015625,576
466,1696253209529,0.7770996,-0.008605957,0.6535034,-0.34375,-0.671875,0.3125,577
467,1696253209569,0.782959,-0.0037231445,0.6559448,1.640625,1.265625,-0.046875,578
468,1696253209609,0.80444336,-0.014709473,0.6454468,4.296875,4.578125,0.4375,579
469,1696253209649,0.78222656,0.0014038086,0.64227295,2.25,4.734375,1.96875,580
470,1696253209689,0.7775879,-0.016662598,0.6288452,0.65625,1.0625,1.265625,581
471,1696253209729,0.78515625,-0.0154418945,0.6432495,0.375,0.53125,0.0625,582
472,1696253209769,0.79785156,-0.014221191,0.61932373,1.234375,0.0,0.328125,583
473,1696253209809,0.782959,-0.0064086914,0.62957764,-0.3125,-0.390625,0.65625,584
474,1696253209849,0.78881836,-0.0029907227,0.6190796,-1.515625,-1.234375,-0.0625,585
475,1696253209889,0.7910156,-0.0076293945,0.63201904,-0.796875,0.0,0.109375,586
476,1696253209929,0.7885742,-0.020568848,0.6420288,-0.59375,-0.953125,0.359375,587
477,1696253209969,0.7871094,-0.018615723,0.6273804,-0.40625,-0.546875,-0.546875,588
478,1696253210009,0.8000488,0.0026245117,0.63323975,-0.546875,-0.453125,-0.5,589
479,1696253210049,0.79467773,-0.0044555664,0.63446045,-1.484375,-0.15625,0.390625,590
480,1696253210089,0.78686523,-0.0017700195,0.635437,-1.203125,-0.859375,0.828125,591
481,1696253210129,0.78125,-0.010314941,0.637146,-0.640625,-0.890625,0.171875,592
482,1696253210169,0.79003906,-0.004211426,0.6390991,0.109375,-0.828125,-0.234375,593
483,1696253210209,0.7824707,-0.006164551,0.63934326,0.046875,-0.671875,0.375,594
484,1696253210249,0.79248047,-0.0095825195,0.63690186,0.15625,-0.59375,0.234375,595
485,1696253210289,0.79467773,-0.0015258789,0.63323975,-0.546875,-0.03125,-0.234375,596
486,1696253210329,0.79125977,0.0053100586,0.63861084,0.125,-0.453125,0.078125,597
487,1696253210369,0.78027344,-0.004699707,0.63494873,-0.28125,-1.0625,0.40625,598
488,1696253210409,0.7897949,-0.014953613,0.63153076,-0.8125,-0.84375,0.53125,599
489,1696253210449,0.78881836,-0.0015258789,0.6425171,-0.46875,-1.09375,-0.21875,600
490,1696253210489,0.7922363,-0.0025024414,0.64471436,0.296875,-0.09375,-0.28125,601
491,1696253210529,0.78027344,0.0033569336,0.6754761,0.40625,0.21875,-0.34375,602
492,1696253210569,0.7487793,-0.005432129,0.64520264,-1.53125,-2.546875,0.375,603
493,1696253210609,0.7807617,-0.009338379,0.6378784,0.3125,0.703125,-0.03125,604
494,1696253210649,0.8112793,-0.012268066,0.62005615,0.75,2.203125,-0.3125,605
495,1696253210689,0.80859375,-0.004699707,0.621521,1.6875,1.28125,0.359375,606
496,1696253210729,0.80200195,-0.0076293945,0.62176514,-0.84375,-0.078125,0.90625,607
497,1696253210769,0.7910156,-0.0032348633,0.60931396,-0.59375,-0.46875,0.71875,608
498,1696253210809,0.7849121,0.00091552734,0.6351929,0.53125,-0.46875,0.453125,609
499,1696253210849,0.81274414,-0.008850098,0.61932373,-1.046875,-1.953125,0.40625,610
500,1696253210889,0.80981445,-0.0020141602,0.6268921,-1.859375,-1.921875,-0.203125,611
501,1696253210929,0.79174805,0.00970459,0.6469116,-2.8125,-1.796875,-0.421875,612
502,1696253210969,0.7729492,-0.0115356445,0.6469116,-2.96875,-1.375,0.25,613
503,1696253211009,0.7766113,0.005065918,0.6400757,-1.234375,-0.59375,-0.09375,614
504,1696253211049,0.77612305,0.0060424805,0.6395874,0.65625,-0.734375,-0.28125,615
505,1696253211089,0.7883301,0.0026245117,0.64886475,0.75,-0.515625,0.40625,616
506,1696253211129,0.79345703,-0.004699707,0.63983154,-0.046875,-0.28125,1.15625,617
507,1696253211169,0.7937012,0.0004272461,0.6325073,0.0,0.40625,0.546875,618
508,1696253211209,0.795166,0.008483887,0.62713623,-0.125,-0.09375,0.328125,619
509,1696253211249,0.80371094,0.003112793,0.63812256,-0.65625,-0.21875,0.140625,620
510,1696253211289,0.78027344,-0.008361816,0.6244507,-1.0,-0.578125,0.421875,621
511,1696253211329,0.7883301,0.008239746,0.6310425,-0.875,-0.203125,-0.296875,622
512,1696253211369,0.7939453,0.005554199,0.6383667,-0.21875,0.1875,0.546875,623
513,1696253211409,0.7949219,-0.0032348633,0.6408081,-0.046875,-0.53125,0.53125,624
514,1696253211449,0.7751465,0.007019043,0.64105225,-1.390625,-0.78125,-0.1875,625
515,1696253211489,0.7873535,0.0138549805,0.63690186,-0.21875,-0.265625,0.046875,626
516,1696253211529,0.7858887,0.0036010742,0.6351929,0.78125,0.125,0.453125,627
517,1696253211569,0.78686523,-0.0010375977,0.63079834,-0.609375,-0.734375,0.296875,628
518,1696253211609,0.7832031,-0.0010375977,0.62957764,-0.375,-0.484375,0.15625,629
519,1696253211649,0.78930664,0.0060424805,0.6359253,0.890625,-0.46875,-0.015625,630
520,1696253211689,0.79296875,0.0014038086,0.62835693,0.09375,-0.71875,0.21875,631
521,1696253211729,0.795166,0.0026245117,0.63861084,-1.0,-0.578125,-0.015625,632
522,1696253211769,0.78393555,0.012145996,0.6400757,-1.0,-1.28125,0.171875,633
523,1696253211809,0.7895508,0.004333496,0.6342163,0.03125,-0.765625,0.140625,634
524,1696253211849,0.79003906,0.0033569336,0.63861084,-0.171875,-0.734375,0.015625,635
525,1696253211889,0.7807617,0.01361084,0.6366577,-0.484375,-1.390625,0.203125,636
526,1696253211929,0.7890625,0.010437012,0.6466675,0.71875,-1.75,0.109375,637
527,1696253211969,0.7871094,0.0004272461,0.66619873,-1.015625,-1.703125,0.359375,638
528,1696253212009,0.7585449,-0.0012817383,0.6203003,-5.140625,-3.765625,-0.109375,639
529,1696253212049,0.7824707,0.0065307617,0.62615967,-3.0,-2.125,-1.921875,640
530,1696253212089,0.8005371,0.018249512,0.6720581,5.1875,-1.265625,-1.515625,641
531,1696253212129,0.7836914,-0.008850098,0.6793823,10.015625,-4.8125,-1.65625,642
532,1696253212169,0.7570801,-0.01763916,0.6444702,4.0,-5.09375,-2.3125,643
533,1696253212209,0.76464844,-0.0032348633,0.65545654,1.640625,-0.421875,-1.5,644
534,1696253212249,0.81396484,-0.003967285,0.67718506,5.859375,0.15625,0.640625,645
535,1696253212289,0.8041992,-0.039855957,0.6781616,4.78125,-1.84375,-0.09375,646
536,1696253212329,0.7595215,-0.047424316,0.6671753,1.359375,-0.640625,0.046875,647
537,1696253212369,0.7536621,-0.02545166,0.6432495,-2.015625,-0.90625,1.78125,648
538,1696253212409,0.75219727,-0.018859863,0.6473999,0.90625,-0.5,1.140625,649
539,1696253212449,0.7541504,-0.003967285,0.668396,0.3125,-2.484375,-0.046875,650
540,1696253212489,0.7780762,-0.019348145,0.64764404,0.546875,0.96875,1.609375,651
541,1696253212529,0.78808594,-0.016662598,0.6288452,7.0625,5.890625,3.59375,652
542,1696253212569,0.77441406,-0.015930176,0.5895386,0.96875,0.0,4.015625,653
543,1696253212609,0.78271484,-0.0056762695,0.65252686,-3.828125,-1.234375,1.71875,654
544,1696253212649,0.7758789,-0.04034424,0.6539917,-0.6875,-0.6875,0.59375,655
545,1696253212689,0.79833984,-0.04864502,0.6310425,-2.3125,-3.484375,-0.53125,656
546,1696253212729,0.78100586,0.00970459,0.65667725,-5.765625,-3.390625,-2.71875,657
547,1696253212769,0.7609863,0.0060424805,0.66156006,-5.515625,-3.203125,-0.65625,658
548,1696253212809,0.76708984,-0.00030517578,0.67303467,-2.390625,-1.28125,0.34375,659
549,1696253212849,0.76708984,-0.023742676,0.6727905,0.171875,-2.0,-1.03125,660
550,1696253212889,0.77490234,-0.030334473,0.68548584,-1.21875,-2.546875,-0.96875,661
551,1696253212929,0.7607422,-0.003967285,0.67889404,-0.1875,-0.25,0.875,662
552,1696253212969,0.7548828,-6.1035156e-05,0.6635132,0.421875,-0.40625,0.59375,663
553,1696253213009,0.75439453,-0.00030517578,0.6659546,1.609375,1.6875,0.75,664
554,1696253213049,0.7687988,0.00091552734,0.6659546,1.9375,-0.03125,0.765625,665
555,1696253213089,0.7709961,-0.008361816,0.6737671,1.265625,-0.953125,0.5,666
556,1696253213129,0.77124023,-0.006164551,0.664978,-0.125,-0.265625,0.125,667
557,1696253213169,0.7692871,-0.006164551,0.66278076,-0.984375,-0.140625,0.3125,668
558,1696253213209,0.77441406,-0.0068969727,0.64764404,-0.3125,-0.390625,-0.15625,669
559,1696253213249,0.7680664,-0.0115356445,0.65911865,-1.28125,-0.484375,0.109375,670
560,1696253213289,0.7685547,-0.010559082,0.66448975,-1.546875,-1.140625,-0.046875,671
561,1696253213329,0.76538086,-0.007873535,0.6708374,-1.140625,-0.265625,-0.109375,672
562,1696253213369,0.7739258,-0.012268066,0.682312,0.578125,-0.546875,-0.03125,673
563,1696253213409,0.7663574,-0.009094238,0.6618042,-0.484375,-0.5625,0.078125,674
564,1696253213449,0.75756836,-6.1035156e-05,0.6635132,-1.734375,-0.71875,0.0625,675
565,1696253213489,0.75878906,0.002380371,0.668396,0.078125,-0.640625,0.171875,676
566,1696253213529,0.77441406,-0.013000488,0.6598511,2.265625,-0.21875,0.03125,677
567,1696253213569,0.7800293,-0.0056762695,0.6569214,-0.109375,-0.203125,-0.140625,678
568,1696253213609,0.7685547,-0.0017700195,0.6654663,-0.671875,-0.734375,0.09375,679
569,1696253213649,0.7705078,-0.005432129,0.66864014,-0.625,-0.828125,0.0,680
570,1696253213689,0.77441406,-0.019104004,0.66204834,-0.21875,-0.328125,0.21875,681
571,1696253213729,0.7741699,-0.012023926,0.66400146,-0.34375,-0.671875,0.109375,682
572,1696253213769,0.75805664,0.008972168,0.66741943,-0.4375,-0.4375,0.0625,683
573,1696253213809,0.7675781,-0.007385254,0.6732788,0.328125,-0.46875,0.28125,684
574,1696253213849,0.7614746,-0.010559082,0.66619873,-0.09375,-0.421875,0.40625,685
575,1696253213889,0.7717285,-0.008605957,0.65960693,0.40625,0.046875,0.28125,686
576,1696253213929,0.7751465,-0.009094238,0.6688843,0.78125,-0.421875,0.109375,687
577,1696253213969,0.77001953,-0.0056762695,0.6664429,-0.09375,-0.078125,0.609375,688
578,1696253214009,0.7709961,-0.005432129,0.66156006,0.0,-0.609375,0.515625,689
579,1696253214049,0.77441406,-0.010803223,0.6679077,0.203125,0.15625,0.203125,690
580,1696253214089,0.76000977,-0.0012817383,0.6539917,-1.515625,0.0625,-0.21875,691
581,1696253214129,0.7583008,-0.009338379,0.6625366,-1.921875,0.171875,0.046875,692
582,1696253214169,0.7602539,-0.0064086914,0.6664429,-1.78125,0.25,-0.1875,693
583,1696253214209,0.76904297,-0.008605957,0.6732788,0.65625,0.765625,-0.296875,694
584,1696253214249,0.7819824,-0.0032348633,0.65301514,-0.734375,-0.65625,-0.296875,695
585,1696253214289,0.77856445,0.005065918,0.65545654,-0.46875,-0.515625,-0.0625,696
586,1696253214329,0.7705078,0.002380371,0.6622925,-0.15625,-0.703125,0.46875,697
587,1696253214369,0.77197266,-0.020812988,0.6654663,0.296875,-0.640625,0.828125,698
588,1696253214409,0.7705078,-0.0178833,0.6691284,1.21875,-1.296875,0.359375,699
589,1696253214449,0.76904297,-0.0056762695,0.6654663,1.3125,-0.9375,-0.171875,700
590,1696253214489,0.7624512,-0.0032348633,0.6713257,1.109375,-1.125,0.421875,701
591,1696253214529,0.76586914,-0.00030517578,0.6647339,0.921875,-1.078125,0.296875,702
592,1696253214569,0.7739258,-0.008361816,0.6642456,2.0,0.265625,-0.34375,703
593,1696253214609,0.7805176,-0.013244629,0.67401123,4.265625,1.5625,-1.0,704
594,1696253214649,0.7717285,-0.02545166,0.65960693,4.4375,1.75,-0.875,705
595,1696253214689,0.77441406,-0.028381348,0.6593628,2.171875,-1.34375,-1.859375,706
596,1696253214729,0.7746582,-0.035217285,0.6781616,1.203125,-3.546875,-2.5625,707
597,1696253214769,0.76660156,-0.027160645,0.68304443,0.875,-1.703125,-1.796875,708
598,1696253214809,0.78149414,-0.026184082,0.6600952,-2.125,-0.875,0.359375,709
599,1696253214849,0.7614746,-0.018127441,0.65008545,-3.125,-0.015625,1.296875,710
600,1696253214889,0.7648926,-0.01373291,0.67767334,0.6875,-1.890625,0.15625,711
601,1696253214929,0.7561035,-0.023742676,0.66986084,-2.390625,-4.734375,0.21875,712
602,1696253214969,0.7541504,-0.0178833,0.6593628,-2.515625,-2.1875,2.09375,713
603,1696253215009,0.74975586,-0.007873535,0.6737671,3.1875,1.015625,2.515625,714
604,1696253215049,0.74658203,-0.019836426,0.6329956,1.828125,0.65625,1.109375,715
605,1696253215089,0.75756836,0.0021362305,0.64178467,-0.03125,-1.78125,0.515625,716
606,1696253215129,0.78881836,-0.01739502,0.6864624,1.84375,-0.15625,1.71875,717
607,1696253215169,0.79711914,-0.0491333,0.6742554,0.0625,1.25,2.1875,718
608,1696253215209,0.7805176,-0.015197754,0.6664429,-7.265625,-3.15625,0.3125,719
609,1696253215249,0.72875977,0.013366699,0.66864014,-7.4375,-3.328125,-0.671875,720
610,1696253215289,0.7402344,-0.0056762695,0.6847534,2.15625,0.359375,-0.390625,721
611,1696253215329,0.7705078,-0.04058838,0.6793823,1.390625,0.28125,0.515625,722
612,1696253215369,0.76293945,-0.016906738,0.6918335,-0.953125,-0.34375,0.40625,723
613,1696253215409,0.7597656,-0.004211426,0.6791382,0.640625,-0.078125,0.15625,724
614,1696253215449,0.74780273,0.00579834,0.6737671,1.375,0.09375,0.28125,725
615,1696253215489,0.7570801,0.0038452148,0.67596436,2.0,0.5,0.6875,726
616,1696253215529,0.7583008,-0.013000488,0.66156006,0.1875,-1.15625,0.59375,727
617,1696253215569,0.76953125,-0.009094238,0.65301514,-0.546875,-0.34375,0.359375,728
618,1696253215609,0.7648926,-0.00982666,0.6737671,-0.234375,0.578125,0.140625,729
619,1696253215649,0.7702637,-0.02178955,0.6803589,0.359375,-0.625,-0.203125,730
620,1696253215689,0.7758789,-0.018859863,0.67059326,-0.03125,-1.515625,-0.015625,731
621,1696253215729,0.77124023,-0.0044555664,0.664978,-0.75,-0.359375,-0.1875,732
622,1696253215769,0.7548828,0.0014038086,0.6791382,-0.53125,-1.375,-0.1875,733
623,1696253215809,0.7590332,-0.0154418945,0.67962646,-0.359375,-1.5,0.109375,734
624,1696253215849,0.75341797,-0.018371582,0.6713257,-0.3125,-0.1875,0.625,735
625,1696253215889,0.75756836,-0.008605957,0.6757202,0.3125,-0.671875,0.28125,736
626,1696253215929,0.7578125,-0.012512207,0.6832886,0.65625,-0.9375,-0.25,737
627,1696253215969,0.7614746,-0.013977051,0.6737671,0.28125,-0.734375,0.078125,738
628,1696253216009,0.7687988,-0.00982666,0.6713257,0.5625,-0.3125,0.5,739
629,1696253216049,0.76342773,-0.010314941,0.664978,0.625,-0.453125,0.28125,740
630,1696253216089,0.7661133,-0.014221191,0.6762085,-0.296875,-0.375,0.328125,741
631,1696253216129,0.7626953,-0.014221191,0.6696167,-0.609375,-0.875,0.078125,742
632,1696253216169,0.75561523,-0.014709473,0.6828003,0.28125,-1.078125,0.171875,743
633,1696253216209,0.74609375,-0.013244629,0.68011475,-0.078125,-0.671875,0.0625,744
634,1696253216249,0.7709961,-0.005432129,0.67474365,-1.03125,0.015625,-0.046875,745
635,1696253216289,0.7722168,-0.0044555664,0.66082764,-0.84375,0.046875,-0.375,746
636,1696253216329,0.76586914,-0.008361816,0.6832886,-1.515625,1.5625,0.140625,747
637,1696253216369,0.751709,-0.009338379,0.682312,-2.65625,0.984375,0.796875,748
638,1696253216409,0.75561523,-0.014709473,0.6671753,-0.9375,0.40625,0.375,749
639,1696253216449,0.7558594,-0.0010375977,0.66571045,0.84375,1.046875,0.03125,750
640,1696253216489,0.7631836,-0.005432129,0.6613159,0.59375,0.21875,-0.03125,751
641,1696253216529,0.7680664,-0.0064086914,0.6725464,0.109375,0.125,0.421875,752
642,1696253216569,0.7680664,-0.00982666,0.6598511,-0.703125,0.265625,0.09375,753
643,1696253216609,0.77001953,-0.006164551,0.6622925,-0.6875,-0.125,0.203125,754
644,1696253216649,0.7697754,-0.00079345703,0.67401123,0.015625,-0.234375,0.015625,755
645,1696253216689,0.76953125,-0.010559082,0.67181396,-0.359375,-1.0625,0.28125,756
646,1696253216729,0.76000977,-0.005432129,0.6664429,-0.9375,-0.390625,0.359375,757
647,1696253216769,0.76416016,-0.00982666,0.66522217,0.125,-0.390625,0.109375,758
648,1696253216809,0.76538086,-0.0049438477,0.66864014,0.546875,-0.125,0.078125,759
649,1696253216849,0.7648926,-0.0005493164,0.6593628,0.109375,-0.671875,0.390625,760
650,1696253216889,0.7675781,-0.003479004,0.66864014,0.296875,-0.84375,0.09375,761
651,1696253216929,0.76904297,-0.008605957,0.67108154,0.734375,-0.484375,0.171875,762
652,1696253216969,0.7705078,-0.0064086914,0.6671753,0.90625,-0.921875,0.328125,763
653,1696253217009,0.76538086,-0.008850098,0.6598511,1.34375,-0.75,0.15625,764
654,1696253217049,0.76538086,-0.010314941,0.66033936,0.78125,-0.1875,0.28125,765
655,1696253217089,0.7626953,-0.0005493164,0.666687,0.140625,-0.734375,0.15625,766
656,1696253217129,0.763916,-0.0134887695,0.67352295,0.8125,-1.03125,0.0,767
657,1696253217169,0.767334,-0.013977051,0.66693115,0.46875,-0.90625,-0.1875,768
658,1696253217209,0.7685547,-0.003479004,0.66082764,-0.296875,-0.4375,-0.125,769
659,1696253217249,0.7751465,-0.010559082,0.6708374,-1.65625,0.171875,0.5625,770
660,1696253217289,0.76464844,-0.02154541,0.6654663,-1.015625,0.796875,0.53125,771
661,1696253217329,0.76171875,-0.010803223,0.6732788,0.109375,0.421875,0.046875,772
662,1696253217369,0.76586914,-0.015686035,0.66082764,0.421875,0.359375,0.546875,773
663,1696253217409,0.76171875,0.00018310547,0.67059326,0.296875,1.328125,0.484375,774
664,1696253217449,0.77124023,-0.010314941,0.65789795,-0.109375,-0.375,0.703125,775
665,1696253217489,0.77783203,-0.0071411133,0.6581421,-0.046875,0.40625,0.203125,776
666,1696253217529,0.77319336,-0.010559082,0.65911865,-0.15625,0.203125,0.4375,777
667,1696253217569,0.7675781,-0.013244629,0.6593628,-0.609375,-0.21875,0.328125,778
668,1696253217609,0.77197266,-0.0115356445,0.6466675,-1.203125,0.328125,0.3125,779
669,1696253217649,0.76464844,-0.010314941,0.6581421,-1.265625,-0.265625,0.171875,780
670,1696253217689,0.7714844,-0.009094238,0.67230225,-1.0,0.609375,-0.109375,781
671,1696253217729,0.7746582,-0.004699707,0.6503296,-0.78125,-0.25,0.40625,782
672,1696253217769,0.77441406,-0.010559082,0.65057373,0.171875,0.1875,-0.015625,783
673,1696253217809,0.77490234,0.008239746,0.6552124,-0.5,0.390625,0.25,784
674,1696253217849,0.7727051,-0.008117676,0.66033936,-0.5,0.0,0.515625,785
675,1696253217889,0.77197266,-0.018615723,0.6520386,-0.296875,-1.375,0.078125,786
676,1696253217929,0.7758789,0.0065307617,0.6610718,0.78125,0.96875,-0.453125,787
677,1696253217969,0.77319336,-0.0115356445,0.6498413,-0.625,-0.296875,0.734375,788
678,1696253218009,0.7878418,-0.0032348633,0.67181396,-1.59375,0.640625,0.078125,789
679,1696253218049,0.7766113,-0.01739502,0.6469116,-2.640625,-0.390625,0.390625,790
680,1696253218089,0.77612305,0.009216309,0.6576538,-0.59375,0.125,-0.234375,791
681,1696253218129,0.7687988,-0.007385254,0.66082764,0.609375,-1.3125,0.578125,792
682,1696253218169,0.7792969,-0.006164551,0.6605835,1.1875,-0.25,0.390625,793
683,1696253218209,0.78125,0.0004272461,0.6515503,-0.375,-0.4375,0.21875,794
684,1696253218249,0.77246094,0.0018920898,0.6430054,-0.140625,-0.015625,0.3125,795
685,1696253218289,0.77856445,0.0048217773,0.6593628,0.640625,0.09375,0.078125,796
686,1696253218329,0.7805176,0.0014038086,0.6564331,-1.046875,-1.03125,0.203125,797
687,1696253218369,0.7819824,-0.0049438477,0.6600952,-0.125,-0.3125,0.5,798
688,1696253218409,0.7800293,0.0018920898,0.6520386,0.171875,-0.09375,0.203125,799
689,1696253218449,0.779541,0.003112793,0.6412964,0.84375,0.265625,0.328125,800
690,1696253218489,0.7766113,0.0028686523,0.6600952,1.15625,0.234375,0.25,801
691,1696253218529,0.779541,-0.008605957,0.6486206,-0.171875,-0.21875,0.8125,802
692,1696253218569,0.78100586,-0.0012817383,0.6552124,-0.328125,-0.140625,0.34375,803
693,1696253218609,0.78125,-0.007385254,0.6515503,-0.625,-0.140625,0.578125,804
694,1696253218649,0.77783203,0.0036010742,0.6520386,-0.96875,0.328125,0.0625,805
695,1696253218689,0.7844238,0.0072631836,0.6403198,-0.265625,-0.390625,0.203125,806
696,1696253218729,0.77319336,-0.0071411133,0.64276123,0.140625,-0.578125,0.28125,807
697,1696253218769,0.76708984,-0.003967285,0.6503296,0.515625,-0.421875,0.109375,808
698,1696253218809,0.7902832,0.0006713867,0.6478882,-0.015625,-0.75,0.59375,809
699,1696253218849,0.7939453,-0.0025024414,0.64398193,0.90625,0.078125,0.421875,810
700,1696253218889,0.79125977,-0.004211426,0.6498413,0.765625,-1.171875,-0.4375,811
701,1696253218929,0.77905273,0.0067749023,0.6461792,-2.34375,-1.125,-0.515625,812
702,1696253218969,0.7751465,0.0018920898,0.6498413,-2.0,-0.9375,0.4375,813
703,1696253219009,0.7727051,-0.007385254,0.6576538,0.59375,-0.828125,0.640625,814
704,1696253219049,0.77856445,0.005065918,0.6564331,0.703125,0.046875,0.328125,815
705,1696253219089,0.7817383,0.0004272461,0.6576538,0.21875,-0.53125,0.265625,816
706,1696253219129,0.78637695,0.0045776367,0.651062,0.640625,0.53125,0.21875,817
707,1696253219169,0.77856445,-0.004211426,0.6403198,-0.1875,-0.4375,0.3125,818
708,1696253219209,0.77246094,0.005554199,0.6376343,-1.296875,-0.875,-0.046875,819
709,1696253219249,0.78466797,0.0048217773,0.6498413,-0.171875,0.296875,0.0,820
710,1696253219289,0.77978516,-0.0017700195,0.6432495,-0.28125,-0.515625,0.0,821
711,1696253219329,0.7824707,0.00091552734,0.65374756,-0.9375,-0.296875,0.28125,822
712,1696253219369,0.78125,0.0016479492,0.6564331,-1.25,-0.578125,-0.046875,823
713,1696253219409,0.782959,-0.006164551,0.6454468,-0.0625,-0.65625,-0.125,824
714,1696253219449,0.77685547,0.0016479492,0.65057373,-0.09375,-0.453125,0.125,825
715,1696253219489,0.7805176,0.0072631836,0.6432495,-0.21875,-0.375,0.1875,826
716,1696253219529,0.7758789,0.0067749023,0.649353,0.09375,-0.28125,0.28125,827
717,1696253219569,0.77075195,-0.0037231445,0.6520386,0.765625,0.015625,0.390625,828
718,1696253219609,0.78930664,-0.00982666,0.6469116,1.0,0.1875,0.421875,829
719,1696253219649,0.7922363,0.0026245117,0.64593506,-0.109375,-0.34375,-0.203125,830
720,1696253219689,0.7727051,0.010192871,0.63861084,-0.703125,-0.84375,0.09375,831
721,1696253219729,0.78344727,0.0016479492,0.65740967,-0.75,-0.34375,0.421875,832
722,1696253219769,0.78027344,0.0065307617,0.64105225,-0.46875,-0.53125,0.40625,833
723,1696253219809,0.7861328,-0.0022583008,0.6515503,0.390625,-0.375,0.078125,834
724,1696253219849,0.78344727,0.0006713867,0.64959717,-0.03125,-0.5,0.265625,835
725,1696253219889,0.77856445,0.010192871,0.64715576,0.171875,-0.46875,0.125,836
726,1696253219929,0.7780762,-6.1035156e-05,0.6420288,-0.8125,-0.75,0.0625,837
727,1696253219969,0.7858887,0.0048217773,0.6571655,-0.421875,0.28125,0.234375,838
728,1696253220009,0.7702637,0.0072631836,0.6432495,-0.109375,-0.9375,0.625,839
729,1696253220049,0.7753906,-0.00079345703,0.649353,0.46875,-0.546875,-0.078125,840
730,1696253220089,0.79589844,-0.0025024414,0.6449585,0.296875,0.640625,-0.46875,841
731,1696253220129,0.7919922,-0.0037231445,0.6334839,-0.1875,-0.6875,-0.75,842
732,1696253220169,0.7792969,0.0048217773,0.65496826,-1.078125,-0.3125,-0.84375,843
733,1696253220209,0.7861328,0.010681152,0.68573,2.46875,2.296875,-1.65625,844
734,1696253220249,0.7841797,-0.02520752,0.633728,6.109375,-2.859375,-1.421875,845
735,1696253220289,0.78759766,-0.0029907227,0.66693115,11.25,-1.0625,-4.234375,846
736,1696253220329,0.7661133,-0.034973145,0.6557007,14.234375,7.078125,-0.375,847
737,1696253220369,0.7800293,-0.046203613,0.6334839,1.078125,-3.53125,4.109375,848
738,1696253220409,0.80371094,-0.010314941,0.62298584,-2.09375,-1.390625,3.640625,849
739,1696253220449,0.7578125,-0.011779785,0.6322632,2.40625,-2.265625,1.234375,850
740,1696253220489,0.7597656,-0.04937744,0.63153076,3.296875,-1.671875,-0.15625,851
741,1696253220529,0.79003906,-0.030334473,0.6220093,-2.328125,-0.640625,0.765625,852
742,1696253220569,0.7866211,-0.02130127,0.6137085,-1.40625,-2.921875,0.578125,853
743,1696253220609,0.782959,-0.010559082,0.6508179,-0.65625,-3.0,-0.53125,854
744,1696253220649,0.7963867,-0.051818848,0.6727905,0.25,-0.828125,-0.21875,855
745,1696253220689,0.80322266,-0.028625488,0.65960693,-3.65625,-1.609375,-0.4375,856
746,1696253220729,0.7636719,-0.010070801,0.64642334,-7.28125,-2.5,0.203125,857
747,1696253220769,0.74121094,0.007751465,0.6610718,-3.90625,-0.8125,0.0625,858
748,1696253220809,0.7585449,-0.026184082,0.664978,1.03125,-2.140625,-0.078125,859
749,1696253220849,0.7734375,-0.032287598,0.6600952,1.53125,-1.421875,-0.546875,860
750,1696253220889,0.7734375,-0.020568848,0.66278076,1.125,-1.25,-0.484375,861
751,1696253220929,0.7770996,-0.011047363,0.6688843,0.328125,-1.078125,0.484375,862
752,1696253220969,0.77490234,-0.016418457,0.6593628,0.8125,0.453125,0.578125,863
753,1696253221009,0.7763672,-0.013977051,0.65423584,-0.328125,0.46875,0.484375,864
754,1696253221049,0.77685547,-0.026916504,0.6610718,0.265625,-0.875,0.625,865
755,1696253221089,0.7714844,-0.019592285,0.6622925,0.09375,0.40625,-0.15625,866
756,1696253221129,0.7753906,-0.018127441,0.6478882,-1.09375,0.65625,0.59375,867
757,1696253221169,0.7661133,-0.012268066,0.6522827,-0.4375,-0.40625,0.359375,868
758,1696253221209,0.77734375,-0.027404785,0.6625366,-0.9375,-0.96875,-0.140625,869
759,1696253221249,0.7758789,-0.011291504,0.65179443,0.15625,0.125,0.3125,870
