# Sensor type: Respeck
# Activity type: Lying down on left
# Activity subtype: Coughing
# Subject id: s2106809
# Notes: unprocessed
timestamp,accel_x,accel_y,accel_z,gyro_x,gyro_y,gyro_z
1696253682364,-0.48413086,-0.13116455,-0.8501587,-0.25,0.078125,0.0
1696253682404,-0.48486328,-0.13995361,-0.8394165,-0.484375,0.0,0.34375
1696253682445,-0.4946289,-0.1494751,-0.84747314,-1.0,-1.015625,0.28125
1696253682485,-0.4794922,-0.12945557,-0.8284302,0.859375,-0.484375,-0.109375
1696253682525,-0.4855957,-0.1272583,-0.82598877,0.15625,-1.25,0.109375
1696253682565,-0.4934082,-0.13287354,-0.8435669,-0.796875,-2.234375,0.78125
1696253682606,-0.47729492,-0.13165283,-0.84942627,-2.5,-2.046875,1.21875
1696253682645,-0.47387695,-0.14239502,-0.8206177,-1.265625,-1.65625,0.578125
1696253682685,-0.4790039,-0.14776611,-0.8682251,-1.703125,-1.953125,0.6875
1696253682726,-0.48217773,-0.14996338,-0.85943604,-1.046875,-1.28125,0.453125
1696253682765,-0.4790039,-0.1531372,-0.84552,-0.984375,-0.921875,0.421875
1696253682805,-0.4645996,-0.15142822,-0.82281494,-1.0,1.34375,0.109375
1696253682845,-0.47802734,-0.14459229,-0.83917236,0.421875,1.5,0.453125
1696253682886,-0.48950195,-0.15020752,-0.8557739,1.9375,2.1875,1.359375
1696253682926,-0.4724121,-0.14117432,-0.83013916,0.03125,2.15625,4.046875
1696253682986,-0.49560547,-0.14385986,-0.8945923,-3.484375,4.390625,2.875
1696253683005,-0.51293945,-0.15045166,-0.8711548,-4.65625,5.609375,3.03125
1696253683045,-0.5078125,-0.18536377,-0.96710205,-17.6875,11.0625,2.71875
1696253683106,-0.48168945,-0.1897583,-0.75616455,-8.5,0.828125,-3.6875
1696253683130,-0.5012207,-0.19415283,-0.70880127,-5.5625,4.96875,-3.0625
1696253683166,-0.5126953,-0.16827393,-0.72613525,7.125,-4.375,0.109375
1696253683207,-0.51123047,-0.1807251,-0.81817627,7.546875,-4.296875,1.640625
1696253683246,-0.5180664,-0.17926025,-0.8147583,4.046875,-3.828125,3.4375
1696253683287,-0.49121094,-0.16778564,-0.90338135,4.09375,-0.0625,3.140625
1696253683325,-0.51953125,-0.17486572,-0.8945923,-1.609375,-0.609375,0.796875
1696253683367,-0.54711914,-0.18878174,-1.0720825,-12.9375,1.921875,0.890625
1696253683407,-0.28588867,-0.13238525,-0.7000122,-33.71875,14.8125,-17.703125
1696253683446,-0.5510254,-0.23468018,-0.8701782,-6.9375,-7.953125,-15.578125
1696253683485,-0.7583008,-0.21490479,-0.59161377,9.984375,-7.953125,-2.265625
1696253683527,-0.6411133,-0.15264893,-0.73638916,20.859375,-15.03125,11.484375
1696253683590,-0.40185547,-0.17852783,-0.7600708,7.34375,7.15625,18.78125
1696253683627,-0.46948242,-0.1975708,-0.8081665,8.453125,-1.359375,6.75
1696253683630,-0.49365234,-0.16925049,-0.9807739,8.921875,-7.546875,0.46875
1696253683666,-0.5336914,-0.16949463,-0.92315674,-1.953125,-0.328125,0.8125
1696253683704,-0.52075195,-0.1975708,-1.0322876,-19.328125,4.890625,1.328125
1696253683746,-0.44628906,-0.19122314,-0.6109009,-25.109375,-1.28125,-25.609375
1696253683785,-0.62524414,-0.190979,-0.61187744,6.984375,-0.953125,-9.328125
1696253683826,-0.50805664,-0.15582275,-0.7529907,12.421875,-15.4375,3.375
1696253683866,-0.5241699,-0.15093994,-0.8242798,12.234375,-3.6875,11.859375
1696253683908,-0.421875,-0.18145752,-0.8218384,5.203125,1.5625,9.375
1696253683948,-0.47094727,-0.16680908,-0.92437744,7.359375,-1.484375,3.796875
1696253683987,-0.49731445,-0.17120361,-0.9390259,-0.09375,-0.53125,1.34375
1696253684026,-0.49780273,-0.17706299,-0.86187744,-3.203125,-1.78125,0.765625
1696253684067,-0.49902344,-0.18682861,-0.86383057,-4.984375,2.203125,-0.484375
1696253684107,-0.46362305,-0.16851807,-0.7698364,-5.0,2.765625,-3.5
1696253684147,-0.32958984,-0.2144165,-0.9368286,-23.71875,2.203125,-15.296875
1696253684187,-0.5732422,-0.20806885,-0.8687134,-7.734375,-11.1875,-16.625
1696253684226,-0.64624023,-0.15411377,-0.74786377,6.5625,-2.25,-2.0625
1696253684266,-0.5124512,-0.1585083,-0.7901001,5.390625,-6.109375,4.578125
1696253684306,-0.4831543,-0.18682861,-0.80963135,3.5,-1.78125,7.34375
1696253684347,-0.4790039,-0.18536377,-0.8701782,6.703125,0.203125,5.53125
1696253684387,-0.44506836,-0.17071533,-0.83258057,9.75,0.046875,3.4375
1696253684426,-0.46191406,-0.16143799,-0.8267212,11.09375,0.578125,2.078125
1696253684468,-0.49853516,-0.15679932,-0.8569946,8.234375,-3.5625,0.140625
1696253684507,-0.49975586,-0.1404419,-0.8694458,4.703125,-0.515625,0.21875
1696253684547,-0.49438477,-0.12896729,-0.86309814,3.53125,-0.15625,1.359375
1696253684586,-0.4807129,-0.13580322,-0.8413696,-0.265625,0.90625,2.46875
1696253684626,-0.48583984,-0.1362915,-0.847229,0.1875,0.8125,2.84375
1696253684671,-0.48266602,-0.13604736,-0.85235596,-1.203125,1.78125,2.21875
1696253684705,-0.47753906,-0.13946533,-0.84210205,-2.765625,0.765625,2.09375
1696253684744,-0.47802734,-0.15118408,-0.84039307,-2.421875,-0.3125,1.015625
1696253684786,-0.48876953,-0.15460205,-0.83551025,-4.015625,-0.859375,0.984375
1696253684825,-0.4885254,-0.16168213,-0.8320923,-4.84375,-0.875,1.15625
1696253684865,-0.48291016,-0.16705322,-0.8279419,-2.25,-2.953125,0.96875
1696253684907,-0.48510742,-0.16046143,-0.8245239,-2.765625,-2.203125,1.140625
1696253684926,-0.48486328,-0.175354,-0.8687134,-0.296875,-0.703125,1.75
1696253684967,-0.4729004,-0.18170166,-0.84820557,3.265625,0.109375,1.15625
1696253685029,-0.44091797,-0.15240479,-0.82696533,3.9375,0.265625,1.890625
1696253685066,-0.48706055,-0.15118408,-0.8635864,-3.84375,3.3125,2.34375
1696253685085,-0.5124512,-0.18023682,-0.85650635,-4.09375,3.0625,1.90625
1696253685130,-0.5109863,-0.19659424,-1.0440063,-10.015625,5.578125,2.15625
1696253685170,-0.4387207,-0.19268799,-0.72857666,-8.015625,-1.171875,-7.421875
1696253685228,-0.50268555,-0.1831665,-0.7671509,-4.171875,1.140625,-7.46875
1696253685245,-0.5029297,-0.17462158,-0.7185669,4.0,-3.84375,0.0
1696253685286,-0.4633789,-0.16998291,-0.8479614,8.96875,-4.78125,2.734375
1696253685328,-0.49145508,-0.1963501,-0.8218384,2.765625,-4.46875,3.96875
1696253685369,-0.47387695,-0.16949463,-0.8609009,5.0625,-1.453125,1.515625
1696253685407,-0.49829102,-0.16485596,-0.92022705,3.234375,-3.296875,0.796875
1696253685445,-0.49536133,-0.17706299,-0.8452759,-3.0,-1.609375,1.375
1696253685486,-0.48242188,-0.1885376,-1.104065,-13.203125,2.046875,1.859375
1696253685529,-0.38916016,-0.18023682,-0.5952759,-15.71875,-3.25,-19.515625
1696253685566,-0.5258789,-0.18145752,-0.737854,3.328125,-7.875,-10.890625
1696253685605,-0.48413086,-0.15142822,-0.7522583,6.109375,-4.640625,0.140625
1696253685669,-0.50097656,-0.17828369,-0.8518677,9.40625,-6.578125,4.546875
1696253685685,-0.47460938,-0.15240479,-0.7937622,4.453125,3.875,11.59375
1696253685729,-0.42407227,-0.17633057,-0.87579346,1.78125,4.234375,4.90625
1696253685771,-0.48217773,-0.17437744,-0.940979,0.375,-2.78125,0.4375
1696253685806,-0.43432617,-0.1765747,-1.0759888,-13.625,8.046875,-0.609375
1696253685846,-0.5180664,-0.22808838,-0.7156372,-18.78125,-12.234375,-22.921875
1696253685886,-0.7426758,-0.22271729,-0.71954346,10.515625,-2.625,-0.484375
1696253685946,-0.54711914,-0.13677979,-0.69122314,9.046875,-1.0,8.203125
1696253685985,-0.4951172,-0.18341064,-0.8543091,11.484375,1.296875,14.296875
1696253686005,-0.35888672,-0.1716919,-0.76153564,4.328125,5.1875,6.296875
1696253686046,-0.44506836,-0.16339111,-0.95269775,8.90625,-6.03125,0.28125
1696253686086,-0.4711914,-0.14752197,-0.89190674,0.796875,-0.9375,-0.171875
1696253686127,-0.47485352,-0.16558838,-0.86309814,-1.640625,-2.421875,-0.03125
1696253686169,-0.49365234,-0.16143799,-0.8953247,-0.15625,-2.15625,0.015625
1696253686206,-0.4765625,-0.15924072,-0.8665161,-2.453125,1.890625,0.46875
1696253686225,-0.45458984,-0.18536377,-0.954895,-13.6875,5.765625,1.25
1696253686268,-0.41845703,-0.20904541,-0.78741455,-12.046875,-0.515625,-12.515625
1696253686307,-0.5131836,-0.15753174,-0.64923096,0.109375,5.515625,-3.3125
1696253686346,-0.48999023,-0.16900635,-0.78790283,4.15625,-3.15625,0.6875
1696253686386,-0.47924805,-0.159729,-0.76104736,5.171875,-2.9375,2.78125
1696253686427,-0.46801758,-0.16656494,-0.87335205,5.78125,-3.984375,2.421875
1696253686466,-0.47070312,-0.14752197,-0.9168091,3.71875,0.40625,1.703125
1696253686505,-0.47631836,-0.16412354,-0.8826294,0.5,-1.40625,0.71875
1696253686546,-0.47583008,-0.159729,-0.8596802,-0.109375,-2.203125,0.265625
1696253686586,-0.4650879,-0.16314697,-0.8699341,-1.1875,-0.46875,0.40625
1696253686628,-0.45483398,-0.15435791,-0.8621216,-5.796875,2.390625,0.578125
1696253686667,-0.40625,-0.17095947,-0.991272,-17.484375,10.625,-3.703125
1696253686706,-0.44726562,-0.19195557,-0.6795044,-13.625,1.625,-17.640625
1696253686747,-0.6743164,-0.18804932,-0.6777954,4.234375,1.953125,-3.46875
1696253686786,-0.49194336,-0.1716919,-0.7661743,3.53125,-3.75,2.640625
1696253686827,-0.50390625,-0.17144775,-0.7776489,6.78125,0.453125,7.875
1696253686865,-0.46142578,-0.18389893,-0.85284424,7.078125,2.171875,8.0625
1696253686906,-0.4255371,-0.16778564,-0.87286377,8.859375,0.4375,3.140625
1696253686947,-0.4814453,-0.1651001,-0.8377075,9.46875,-1.375,0.921875
1696253686989,-0.49291992,-0.14703369,-0.8674927,9.5,-1.453125,1.921875
1696253687025,-0.47143555,-0.13677979,-0.8389282,6.734375,0.4375,0.875
1696253687066,-0.49243164,-0.1338501,-0.8826294,2.515625,0.953125,1.03125
1696253687106,-0.47583008,-0.13433838,-0.8237915,0.90625,1.5625,1.96875
1696253687146,-0.47045898,-0.13336182,-0.84210205,0.3125,0.0625,1.640625
1696253687186,-0.47558594,-0.13360596,-0.85894775,0.296875,-1.390625,1.15625
1696253687226,-0.47631836,-0.1272583,-0.8513794,0.453125,-2.125,0.515625
1696253687266,-0.47729492,-0.1296997,-0.8428345,-1.0,-1.046875,0.390625
1696253687307,-0.47631836,-0.1375122,-0.84942627,-1.078125,-0.75,0.1875
1696253687347,-0.47753906,-0.13726807,-0.8435669,-2.140625,-0.6875,0.3125
1696253687386,-0.48046875,-0.13775635,-0.8521118,-3.203125,-1.25,0.546875
1696253687426,-0.47607422,-0.14703369,-0.84161377,-3.53125,-1.234375,0.4375
1696253687466,-0.47216797,-0.15240479,-0.84552,-3.875,-1.96875,0.484375
1696253687526,-0.47143555,-0.15557861,-0.8428345,-1.78125,-1.78125,0.6875
1696253687545,-0.46826172,-0.1585083,-0.85894775,-0.296875,-1.703125,1.046875
1696253687565,-0.46142578,-0.15509033,-0.8435669,3.328125,0.0625,0.625
1696253687608,-0.45214844,-0.13409424,-0.7954712,5.6875,2.15625,1.625
1696253687646,-0.45532227,-0.13653564,-0.86260986,-0.609375,3.40625,3.171875
1696253687686,-0.5073242,-0.14874268,-0.8870239,-3.65625,2.640625,1.9375
1696253687726,-0.49169922,-0.15509033,-0.81622314,-5.453125,1.65625,2.234375
1696253687790,-0.49780273,-0.17047119,-0.84698486,-9.359375,4.796875,1.1875
1696253687826,-0.45117188,-0.1873169,-0.8245239,-3.0,-1.9375,-3.921875
1696253687845,-0.48291016,-0.16778564,-0.7617798,-2.109375,-2.28125,-2.34375
1696253687888,-0.4951172,-0.1560669,-0.76153564,0.765625,0.859375,-0.09375
1696253687949,-0.4855957,-0.1843872,-0.81329346,3.640625,-1.96875,0.03125
1696253687966,-0.49047852,-0.15289307,-0.85528564,5.15625,-0.25,1.09375
1696253688006,-0.4814453,-0.1585083,-0.90167236,3.28125,-1.375,1.96875
1696253688046,-0.49658203,-0.16070557,-0.8772583,-0.3125,-0.359375,0.5
1696253688107,-0.47998047,-0.16021729,-0.85601807,-2.4375,-1.125,0.484375
1696253688146,-0.47705078,-0.16290283,-0.9024048,-7.375,1.75,-0.375
1696253688186,-0.28222656,-0.10992432,-0.7620239,-13.703125,-4.078125,-12.703125
1696253688205,-0.5541992,-0.23565674,-0.8921509,-4.765625,-14.34375,-8.53125
1696253688248,-0.5930176,-0.19488525,-0.75445557,5.65625,-0.3125,-1.078125
1696253688285,-0.5839844,-0.15802002,-0.74468994,12.421875,1.3125,4.15625
1696253688326,-0.47753906,-0.16021729,-0.8010864,10.765625,5.6875,14.671875
1696253688366,-0.4177246,-0.14385986,-0.9019165,9.484375,4.5,8.78125
1696253688407,-0.43701172,-0.13897705,-0.89263916,6.4375,1.96875,2.90625
1696253688445,-0.4885254,-0.14337158,-0.9031372,1.203125,-2.296875,0.015625
1696253688486,-0.48266602,-0.15093994,-0.8477173,-1.0625,-1.109375,0.203125
1696253688525,-0.48120117,-0.14459229,-0.8569946,-2.609375,-0.65625,0.21875
1696253688567,-0.48046875,-0.13922119,-0.90045166,-8.359375,2.78125,0.125
1696253688606,-0.25341797,-0.13482666,-0.75323486,-27.9375,7.59375,-15.078125
1696253688669,-0.60302734,-0.2234497,-0.9898071,-7.546875,-18.78125,-11.140625
1696253688685,-0.5427246,-0.19122314,-0.7341919,7.171875,-2.15625,0.484375
1696253688725,-0.57910156,-0.1375122,-0.7034302,14.6875,0.1875,7.34375
1696253688767,-0.4482422,-0.13604736,-0.7971802,12.9375,0.203125,11.03125
1696253688828,-0.46069336,-0.14215088,-0.8731079,10.875,4.53125,9.875
1696253688845,-0.39794922,-0.12310791,-0.8862915,6.90625,8.46875,5.46875
1696253688867,-0.5124512,-0.13970947,-0.9602661,0.609375,-4.6875,0.109375
1696253688907,-0.49951172,-0.14361572,-0.8916626,-0.75,-1.328125,0.109375
1696253688947,-0.47827148,-0.14068604,-0.8106079,-2.984375,0.5,-0.140625
1696253688989,-0.46533203,-0.1404419,-0.8286743,-4.84375,1.359375,-0.40625
1696253689027,-0.4560547,-0.15338135,-0.93951416,-16.796875,3.65625,-6.15625
1696253689069,-0.3959961,-0.12188721,-0.72540283,-21.046875,-1.703125,-17.671875
1696253689107,-0.52905273,-0.19122314,-0.8335571,-1.171875,-10.546875,-8.265625
1696253689147,-0.47998047,-0.14312744,-0.73223877,4.578125,-3.1875,-0.125
1696253689186,-0.50878906,-0.16339111,-0.80303955,7.9375,-5.9375,1.75
1696253689225,-0.5151367,-0.16339111,-0.8189087,8.296875,-1.1875,6.890625
1696253689269,-0.45825195,-0.16119385,-0.91192627,7.703125,1.4375,7.234375
1696253689308,-0.4506836,-0.14703369,-0.8845825,7.0625,-0.015625,2.875
1696253689347,-0.4609375,-0.1326294,-0.831604,7.03125,-4.6875,0.78125
1696253689386,-0.46118164,-0.12774658,-0.88482666,4.90625,-4.53125,0.21875
1696253689426,-0.4794922,-0.12042236,-0.8377075,1.375,0.578125,0.28125
1696253689466,-0.47094727,-0.12310791,-0.85113525,0.828125,0.859375,1.65625
1696253689506,-0.46875,-0.113342285,-0.84747314,-0.859375,0.78125,2.546875
1696253689547,-0.4658203,-0.124816895,-0.87164307,-1.28125,-0.03125,1.984375
1696253689586,-0.47070312,-0.128479,-0.8689575,-0.484375,-1.03125,1.046875
1696253689625,-0.4675293,-0.13482666,-0.850647,-0.875,-0.078125,0.8125
1696253689666,-0.47680664,-0.1326294,-0.8543091,-0.640625,0.515625,0.40625
1696253689706,-0.46777344,-0.1375122,-0.85113525,-1.984375,-1.53125,0.25
1696253689747,-0.4736328,-0.13165283,-0.83917236,-4.78125,-1.78125,0.125
1696253689787,-0.46948242,-0.13824463,-0.8567505,-3.984375,-1.53125,0.0
1696253689828,-0.46972656,-0.14849854,-0.84161377,-3.125,-1.765625,-0.125
1696253689870,-0.46679688,-0.14678955,-0.86187744,-2.671875,-2.171875,0.03125
1696253689906,-0.4711914,-0.15826416,-0.8623657,-1.3125,-1.5,1.03125
1696253689947,-0.44726562,-0.15386963,-0.8430786,3.984375,-0.015625,0.734375
1696253689986,-0.43408203,-0.13873291,-0.7876587,3.578125,0.390625,1.375
1696253690026,-0.4543457,-0.13970947,-0.87872314,-0.703125,2.578125,1.375
1696253690069,-0.4814453,-0.14434814,-0.86968994,-1.171875,2.296875,0.8125
1696253690109,-0.47753906,-0.1453247,-0.85601807,-3.90625,0.21875,1.28125
1696253690146,-0.47802734,-0.15460205,-0.84552,-3.65625,0.9375,0.90625
1696253690165,-0.50634766,-0.17340088,-1.1323853,-8.078125,4.75,1.046875
1696253690227,-0.3840332,-0.15045166,-0.60772705,-10.984375,-2.78125,-9.21875
1696253690265,-0.49902344,-0.19586182,-0.85528564,-1.671875,-9.34375,-6.1875
1696253690285,-0.46875,-0.14678955,-0.6958618,2.53125,0.5625,-0.53125
1696253690346,-0.45507812,-0.17315674,-0.7966919,7.3125,-2.484375,-0.484375
1696253690365,-0.48950195,-0.14898682,-0.8115845,8.8125,1.265625,3.390625
1696253690427,-0.43774414,-0.16729736,-0.8665161,2.21875,1.859375,4.25
1696253690447,-0.46875,-0.14971924,-0.91119385,2.484375,0.296875,0.578125
1696253690491,-0.47802734,-0.1531372,-0.91412354,-3.0,-2.234375,0.84375
1696253690524,-0.38842773,-0.15435791,-1.0181274,-11.0,1.84375,-1.234375
1696253690567,-0.4362793,-0.1987915,-0.91485596,-11.9375,-20.328125,-17.0625
1696253690605,-0.7080078,-0.21929932,-0.67803955,3.34375,0.90625,-3.640625
1696253690645,-0.49682617,-0.15411377,-0.704895,7.171875,-1.046875,3.359375
1696253690706,-0.5029297,-0.15240479,-0.7625122,12.015625,9.4375,17.796875
1696253690725,-0.32763672,-0.14801025,-0.8101196,5.6875,7.171875,9.859375
1696253690765,-0.4243164,-0.1482544,-0.93048096,2.984375,-2.578125,0.296875
1696253690806,-0.48413086,-0.14117432,-0.9898071,0.3125,-5.046875,0.921875
1696253690846,-0.4621582,-0.1560669,-0.87750244,-6.515625,-2.609375,2.859375
1696253690886,-0.45996094,-0.18878174,-0.8411255,-3.09375,-3.671875,0.359375
1696253690925,-0.45947266,-0.17071533,-0.8596802,-6.484375,-3.96875,-5.84375
1696253690967,-0.40185547,-0.19488525,-0.92266846,-12.296875,-3.546875,-6.34375
1696253691005,-0.4807129,-0.1663208,-0.819397,-6.796875,-8.59375,-8.109375
1696253691046,-0.44189453,-0.17706299,-0.80548096,2.015625,-1.390625,-0.671875
1696253691086,-0.4345703,-0.1519165,-0.75128174,3.0625,-4.78125,-0.71875
1696253691126,-0.4260254,-0.17022705,-0.82354736,7.84375,-5.53125,0.578125
1696253691167,-0.43920898,-0.16290283,-0.87506104,3.890625,3.71875,1.0
1696253691206,-0.41088867,-0.15386963,-0.94415283,4.6875,1.46875,1.015625
1696253691247,-0.44189453,-0.15264893,-0.94000244,2.171875,-1.453125,-0.0625
1696253691287,-0.44580078,-0.14337158,-0.9277954,0.046875,-0.078125,0.078125
1696253691329,-0.42089844,-0.14874268,-0.8833618,-3.1875,0.5625,0.828125
1696253691368,-0.44873047,-0.17095947,-0.9314575,-11.015625,6.578125,0.9375
1696253691409,-0.4099121,-0.16119385,-0.7593384,-4.109375,2.609375,-1.421875
1696253691467,-0.43530273,-0.18023682,-0.81695557,2.375,0.28125,-3.0
1696253691470,-0.4494629,-0.144104,-0.79034424,4.953125,-1.328125,-1.25
1696253691506,-0.43481445,-0.16363525,-0.81573486,3.390625,-1.765625,-0.90625
1696253691546,-0.44189453,-0.15777588,-0.84259033,1.703125,-1.6875,0.078125
1696253691587,-0.43701172,-0.17779541,-0.8772583,1.171875,-0.859375,0.359375
1696253691626,-0.44506836,-0.15460205,-0.881897,0.25,-0.484375,-0.3125
1696253691666,-0.44970703,-0.16925049,-0.92388916,-4.4375,-1.828125,0.515625
1696253691706,-0.43798828,-0.16363525,-0.90875244,-6.46875,-0.09375,0.65625
1696253691747,-0.4494629,-0.18096924,-0.92974854,-7.78125,0.546875,-0.25
1696253691786,-0.39916992,-0.1609497,-0.7503052,-10.375,0.40625,-6.6875
1696253691830,-0.47607422,-0.19171143,-0.8555298,5.359375,-0.859375,-1.484375
1696253691867,-0.43823242,-0.1687622,-0.803772,2.96875,0.84375,-0.171875
1696253691906,-0.43310547,-0.17633057,-0.8357544,3.84375,-0.828125,-0.046875
1696253691947,-0.44873047,-0.16998291,-0.8406372,4.140625,-0.890625,0.0
1696253691988,-0.44213867,-0.16973877,-0.850647,5.671875,-1.734375,0.109375
1696253692025,-0.44262695,-0.15582275,-0.8467407,9.5625,-1.625,0.203125
1696253692066,-0.44091797,-0.15093994,-0.8357544,8.140625,-0.078125,1.53125
1696253692106,-0.44018555,-0.1338501,-0.8689575,4.96875,0.8125,1.515625
1696253692146,-0.4375,-0.13922119,-0.8845825,3.140625,2.671875,1.8125
1696253692185,-0.45166016,-0.13677979,-0.9060669,1.640625,0.6875,1.75
1696253692227,-0.44213867,-0.13433838,-0.86065674,-0.53125,-1.203125,0.859375
1696253692267,-0.44262695,-0.12701416,-0.8621216,-1.140625,-0.78125,0.640625
1696253692307,-0.43676758,-0.13922119,-0.8557739,-0.734375,-0.09375,0.359375
1696253692347,-0.43774414,-0.1375122,-0.84210205,-0.015625,0.078125,0.125
1696253692387,-0.44482422,-0.13897705,-0.85040283,0.21875,0.171875,0.109375
1696253692427,-0.44848633,-0.13189697,-0.8557739,-0.296875,1.28125,0.265625
1696253692467,-0.453125,-0.13580322,-0.86798096,-1.875,0.609375,0.71875
1696253692508,-0.44848633,-0.1404419,-0.866272,-2.03125,-0.703125,0.796875
1696253692547,-0.45263672,-0.14239502,-0.85723877,-2.265625,-1.046875,0.84375
1696253692587,-0.44506836,-0.15216064,-0.8616333,-2.171875,-1.859375,0.5625
1696253692626,-0.44433594,-0.14190674,-0.8530884,-1.375,-1.1875,0.328125
1696253692666,-0.44067383,-0.14996338,-0.85479736,-0.59375,-1.5625,0.625
1696253692706,-0.45117188,-0.15875244,-0.8821411,1.484375,-1.484375,0.546875
1696253692767,-0.42895508,-0.15216064,-0.8352661,4.65625,-1.796875,0.53125
1696253692785,-0.41430664,-0.1375122,-0.8340454,0.734375,-1.046875,1.3125
1696253692807,-0.45043945,-0.14019775,-0.8789673,-1.71875,2.078125,1.953125
1696253692847,-0.45947266,-0.14874268,-0.895813,-1.796875,0.265625,0.796875
1696253692908,-0.4621582,-0.14312744,-0.89849854,-1.6875,0.3125,0.78125
1696253692926,-0.4411621,-0.15240479,-0.8555298,-1.34375,0.328125,0.40625
1696253692966,-0.43603516,-0.15386963,-0.84039307,0.015625,1.9375,0.296875
1696253693006,-0.44873047,-0.13677979,-0.8899536,0.3125,1.3125,1.09375
1696253693067,-0.4633789,-0.1572876,-1.0388794,-3.875,3.21875,3.546875
1696253693085,-0.38256836,-0.128479,-0.6663208,-5.296875,1.34375,0.8125
1696253693126,-0.4440918,-0.18951416,-0.88409424,0.296875,-9.34375,-3.828125
1696253693166,-0.48632812,-0.16900635,-0.7485962,2.75,-0.0625,-1.4375
1696253693227,-0.42773438,-0.16119385,-0.7776489,1.578125,0.28125,-0.0625
1696253693246,-0.45507812,-0.14874268,-0.8164673,8.25,0.78125,0.984375
1696253693308,-0.43237305,-0.16168213,-0.86553955,2.5,3.75,4.140625
1696253693347,-0.44311523,-0.1453247,-0.92266846,2.0625,-1.96875,0.328125
1696253693366,-0.45361328,-0.13946533,-0.9224243,0.296875,-2.78125,-0.03125
1696253693406,-0.44189453,-0.13922119,-0.86676025,0.109375,-1.34375,0.1875
1696253693446,-0.4494629,-0.14434814,-0.8652954,-3.109375,-2.125,0.703125
1696253693488,-0.43164062,-0.14849854,-0.9522095,-7.390625,3.390625,-0.078125
1696253693527,-0.44970703,-0.1638794,-0.767395,-10.90625,-6.796875,-10.71875
1696253693567,-0.52978516,-0.17974854,-0.7263794,3.59375,4.21875,-0.96875
1696253693606,-0.4580078,-0.13360596,-0.76446533,5.328125,0.484375,2.625
1696253693646,-0.42504883,-0.15948486,-0.78326416,3.65625,1.390625,5.796875
1696253693687,-0.43823242,-0.15802002,-0.8933716,3.03125,5.4375,3.953125
1696253693727,-0.43774414,-0.14727783,-0.8965454,1.9375,-1.328125,0.328125
1696253693768,-0.46411133,-0.14605713,-0.9439087,2.34375,-3.25,-0.171875
1696253693807,-0.44921875,-0.14263916,-0.864563,-0.296875,-1.734375,0.21875
1696253693846,-0.4560547,-0.14434814,-0.8699341,-1.609375,-1.890625,0.5625
1696253693886,-0.44458008,-0.1404419,-0.86920166,-4.09375,0.40625,0.796875
1696253693928,-0.42041016,-0.17120361,-1.0305786,-12.9375,7.6875,-1.078125
1696253693967,-0.4885254,-0.17510986,-0.8052368,-8.5625,-9.671875,-16.515625
1696253694007,-0.52197266,-0.15142822,-0.75250244,4.359375,2.421875,-0.609375
1696253694047,-0.45874023,-0.15875244,-0.75177,3.96875,-0.859375,1.84375
1696253694086,-0.42529297,-0.1519165,-0.78375244,4.375,1.375,5.078125
1696253694107,-0.4489746,-0.15875244,-0.9014282,2.78125,3.328125,2.8125
1696253694146,-0.4411621,-0.14556885,-0.9299927,0.109375,-1.375,0.25
1696253694187,-0.4494629,-0.15826416,-0.8933716,-1.0625,-1.25,0.375
1696253694228,-0.45996094,-0.16680908,-0.87872314,-1.296875,-1.3125,0.6875
1696253694268,-0.45410156,-0.14752197,-0.88116455,-3.03125,0.03125,0.890625
1696253694308,-0.39282227,-0.14459229,-0.8428345,-11.4375,7.6875,-1.96875
1696253694367,-0.501709,-0.18756104,-0.84869385,-4.21875,-4.71875,-6.71875
1696253694387,-0.43359375,-0.1494751,-0.7788696,4.09375,-1.015625,1.125
1696253694448,-0.4428711,-0.16021729,-0.77008057,4.0625,-3.65625,2.484375
1696253694487,-0.44628906,-0.16680908,-0.8616333,5.09375,1.53125,3.0
1696253694506,-0.43896484,-0.1638794,-0.88067627,3.28125,0.296875,1.03125
1696253694567,-0.46289062,-0.15289307,-0.92193604,1.421875,-1.421875,-0.328125
1696253694586,-0.4572754,-0.16119385,-0.8916626,-0.46875,-0.265625,0.109375
1696253694626,-0.45410156,-0.15142822,-0.8533325,-1.328125,0.859375,0.328125
1696253694666,-0.4741211,-0.14630127,-0.9002075,-8.203125,3.640625,1.578125
1696253694705,-0.37524414,-0.175354,-0.8518677,-5.640625,1.828125,-5.140625
1696253694746,-0.5007324,-0.18902588,-0.7752075,2.421875,-2.421875,-0.296875
1696253694786,-0.44677734,-0.15460205,-0.76763916,3.515625,-1.484375,1.78125
1696253694826,-0.4387207,-0.16851807,-0.81256104,3.84375,-2.234375,0.859375
1696253694869,-0.45947266,-0.15655518,-0.8574829,5.125,-2.796875,0.453125
1696253694906,-0.47583008,-0.1585083,-0.8965454,6.15625,-1.421875,0.6875
1696253694948,-0.46826172,-0.14874268,-0.8596802,7.390625,-1.25,1.75
1696253694987,-0.42895508,-0.14752197,-0.85821533,8.5,-4.59375,1.78125
1696253695027,-0.44140625,-0.1116333,-0.8850708,6.015625,-1.09375,0.78125
1696253695066,-0.43920898,-0.11920166,-0.86187744,1.46875,2.125,0.640625
1696253695126,-0.45654297,-0.12237549,-0.85479736,1.015625,0.953125,0.8125
1696253695166,-0.45263672,-0.121154785,-0.8858032,0.15625,0.15625,1.15625
1696253695186,-0.4477539,-0.12164307,-0.8567505,0.09375,1.546875,1.0
1696253695247,-0.45141602,-0.120666504,-0.8682251,-0.53125,0.59375,0.546875
1696253695266,-0.4501953,-0.117492676,-0.866272,-0.515625,0.40625,0.46875
1696253695327,-0.46166992,-0.12261963,-0.86846924,-0.84375,-1.015625,0.5
1696253695348,-0.4506836,-0.11968994,-0.8635864,-1.984375,-2.09375,0.46875
1696253695386,-0.43823242,-0.12994385,-0.83428955,-1.90625,-1.828125,0.265625
1696253695406,-0.44482422,-0.1350708,-0.8311157,-2.9375,-1.03125,0.203125
1696253695447,-0.45336914,-0.13922119,-0.8687134,-2.671875,-1.515625,0.8125
1696253695486,-0.4453125,-0.14508057,-0.8804321,1.140625,-1.046875,0.53125
1696253695527,-0.42163086,-0.13531494,-0.8233032,2.609375,-0.75,0.625
1696253695568,-0.42871094,-0.12945557,-0.8718872,-3.484375,1.984375,1.421875
1696253695607,-0.48388672,-0.14874268,-0.8755493,-8.75,4.625,2.1875
1696253695647,-0.45361328,-0.1531372,-0.8526001,-7.8125,3.234375,0.625
1696253695687,-0.4621582,-0.16900635,-0.79644775,-4.625,4.703125,-1.40625
1696253695728,-0.43603516,-0.1531372,-0.7835083,0.9375,-0.84375,-0.40625
1696253695767,-0.4645996,-0.15264893,-0.7839966,3.6875,0.65625,-0.109375
1696253695806,-0.45214844,-0.16705322,-0.81500244,3.34375,-4.4375,1.390625
1696253695847,-0.4494629,-0.15484619,-0.8916626,2.1875,-0.1875,1.484375
1696253695887,-0.4711914,-0.159729,-0.90411377,-0.484375,-1.09375,0.359375
1696253695928,-0.4753418,-0.16070557,-0.9295044,-0.015625,-2.0625,0.328125
1696253695967,-0.45751953,-0.14385986,-0.8225708,-2.734375,0.25,0.703125
1696253696006,-0.43286133,-0.15802002,-0.8389282,-8.4375,4.109375,-0.953125
1696253696046,-0.4633789,-0.1873169,-0.86676025,-3.71875,-6.515625,-6.46875
1696253696087,-0.4345703,-0.14703369,-0.7920532,2.25,1.5625,-0.21875
1696253696128,-0.44433594,-0.15948486,-0.7798462,1.0,-1.546875,0.90625
1696253696166,-0.45703125,-0.16461182,-0.81988525,3.90625,-0.25,0.78125
1696253696208,-0.4580078,-0.16314697,-0.88360596,3.765625,-1.234375,0.171875
1696253696246,-0.4794922,-0.15777588,-0.93048096,0.984375,0.109375,0.65625
1696253696287,-0.47509766,-0.15704346,-0.8909302,-0.765625,-1.140625,0.46875
1696253696327,-0.45947266,-0.15142822,-0.8960571,-3.078125,-0.390625,1.078125
1696253696366,-0.29174805,-0.13653564,-0.8015747,-10.625,2.171875,-5.65625
1696253696405,-0.48901367,-0.19488525,-0.8406372,-5.46875,-4.9375,-10.328125
1696253696446,-0.4284668,-0.1453247,-0.7817993,4.296875,-1.859375,0.046875
1696253696485,-0.44555664,-0.16241455,-0.772522,4.234375,-3.796875,0.984375
1696253696527,-0.4572754,-0.15582275,-0.8609009,8.15625,-2.3125,2.609375
1696253696564,-0.43432617,-0.14923096,-0.85357666,4.21875,1.578125,3.59375
1696253696605,-0.4560547,-0.14556885,-0.9631958,2.3125,-1.171875,0.6875
1696253696645,-0.47924805,-0.14337158,-0.960022,-2.625,-1.359375,0.8125
1696253696705,-0.44458008,-0.1531372,-1.019104,-9.53125,3.671875,0.234375
1696253696724,-0.2541504,-0.15484619,-0.7774048,-18.453125,-6.71875,-18.21875
1696253696745,-0.6130371,-0.18707275,-0.7810669,0.09375,-0.5625,-12.984375
1696253696805,-0.43896484,-0.15460205,-0.81134033,6.0625,-7.125,1.546875
1696253696846,-0.44458008,-0.15484619,-0.7383423,3.453125,0.203125,6.359375
1696253696866,-0.44335938,-0.1663208,-0.847229,5.59375,0.265625,5.3125
1696253696906,-0.44921875,-0.15216064,-0.92022705,4.765625,2.21875,4.078125
1696253696967,-0.45361328,-0.14727783,-0.91973877,-0.15625,1.375,0.28125
1696253696987,-0.4658203,-0.15948486,-0.95684814,-4.28125,2.859375,0.046875
1696253697028,-0.31567383,-0.16680908,-0.8670044,-13.84375,-2.578125,-11.65625
1696253697067,-0.53344727,-0.18414307,-0.8616333,-3.234375,-6.296875,-8.546875
1696253697106,-0.5686035,-0.17266846,-0.7022095,-0.75,2.375,-3.046875
1696253697147,-0.4333496,-0.14874268,-0.7913208,2.5,-2.484375,3.625
1696253697186,-0.43579102,-0.17218018,-0.8303833,4.671875,-2.75,2.640625
1696253697229,-0.45483398,-0.15924072,-0.8555298,4.703125,0.15625,3.765625
1696253697286,-0.45458984,-0.16192627,-0.8677368,5.15625,-0.203125,2.875
1696253697326,-0.45581055,-0.15142822,-0.87945557,6.703125,-1.5,3.328125
1696253697346,-0.47460938,-0.14801025,-0.8665161,8.703125,-2.140625,2.921875
1696253697387,-0.44726562,-0.1350708,-0.8323364,8.90625,-0.9375,3.703125
1696253697426,-0.45263672,-0.13653564,-0.8706665,6.296875,-1.0625,2.953125
1696253697487,-0.45898438,-0.12872314,-0.86846924,4.78125,0.015625,4.28125
1696253697506,-0.4326172,-0.12261963,-0.8657837,2.65625,-0.03125,4.1875
1696253697570,-0.43579102,-0.12213135,-0.8880005,-0.0625,-1.546875,2.875
1696253697588,-0.4169922,-0.11187744,-0.9077759,2.015625,-1.90625,1.421875
1696253697628,-0.43530273,-0.116760254,-0.84625244,0.921875,1.40625,1.046875
1696253697668,-0.43920898,-0.11846924,-0.8821411,0.484375,0.515625,0.3125
1696253697726,-0.44189453,-0.12652588,-0.8740845,-0.484375,-0.171875,0.59375
1696253697745,-0.46313477,-0.128479,-0.8599243,-0.484375,-0.203125,1.390625
1696253697787,-0.44311523,-0.13165283,-0.8569946,-0.9375,1.34375,0.953125
1696253697826,-0.4321289,-0.120910645,-0.8623657,-1.6875,0.15625,0.8125
1696253697870,-0.44555664,-0.12310791,-0.8706665,-2.40625,-1.203125,0.375
1696253697906,-0.45385742,-0.13653564,-0.86309814,-2.546875,-1.0625,0.171875
1696253697947,-0.44799805,-0.13946533,-0.85235596,-2.921875,-1.25,0.09375
1696253698009,-0.42260742,-0.12921143,-0.86187744,-1.109375,-2.25,0.84375
1696253698026,-0.43823242,-0.13873291,-0.8740845,2.25,-0.890625,0.984375
1696253698046,-0.40454102,-0.1260376,-0.80792236,-0.234375,0.234375,1.265625
1696253698086,-0.46020508,-0.13922119,-0.91119385,-4.9375,5.015625,2.390625
1696253698125,-0.46411133,-0.15362549,-1.0193481,-5.90625,-0.046875,1.390625
1696253698167,-0.4284668,-0.14556885,-0.81451416,-3.6875,5.734375,-2.0
1696253698208,-0.4543457,-0.14581299,-0.71588135,-2.8125,-1.40625,-2.109375
1696253698247,-0.45776367,-0.13653564,-0.8401489,1.40625,-0.359375,0.15625
1696253698289,-0.45092773,-0.15460205,-0.8032837,0.65625,-2.046875,0.34375
1696253698327,-0.4411621,-0.16436768,-0.8796997,1.625,-1.25,0.5625
1696253698366,-0.45654297,-0.1494751,-0.8987427,-1.0,-0.84375,0.59375
1696253698406,-0.46704102,-0.14874268,-0.9026489,-0.25,-2.015625,0.234375
1696253698446,-0.46972656,-0.14434814,-0.86383057,-1.15625,0.09375,0.609375
1696253698487,-0.44506836,-0.15411377,-0.848938,-2.984375,-0.84375,0.234375
1696253698529,-0.4333496,-0.15240479,-0.9351196,-4.65625,2.375,-0.171875
1696253698566,-0.46240234,-0.16778564,-0.7595825,-1.546875,-0.9375,-4.9375
1696253698607,-0.4790039,-0.16949463,-0.78692627,-0.4375,-0.078125,-0.734375
1696253698646,-0.45581055,-0.15093994,-0.7949829,2.265625,-0.40625,0.1875
1696253698687,-0.45288086,-0.16046143,-0.8640747,4.578125,-1.921875,0.3125
1696253698726,-0.45507812,-0.14678955,-0.85601807,3.0,-0.546875,0.71875
1696253698764,-0.44995117,-0.14434814,-0.9168091,1.09375,-1.34375,0.40625
1696253698805,-0.45361328,-0.14361572,-0.8838501,-0.71875,-0.96875,0.453125
1696253698845,-0.44213867,-0.13897705,-0.8430786,-3.0625,-0.15625,0.765625
1696253698886,-0.4465332,-0.15509033,-0.894104,-10.859375,4.28125,-0.1875
1696253698926,-0.4951172,-0.18829346,-0.7727661,-3.328125,-1.21875,-8.328125
1696253698965,-0.4326172,-0.1416626,-0.8345337,0.953125,0.984375,0.84375
1696253699007,-0.43969727,-0.16412354,-0.81866455,0.96875,-1.265625,1.21875
1696253699047,-0.4489746,-0.16998291,-0.8320923,1.6875,0.453125,0.171875
1696253699087,-0.4609375,-0.16192627,-0.86676025,2.1875,-0.59375,-0.15625
1696253699128,-0.4650879,-0.15582275,-0.87677,-0.109375,-1.484375,0.296875
1696253699166,-0.46069336,-0.1531372,-0.8538208,0.421875,-1.078125,0.1875
1696253699206,-0.4494629,-0.14971924,-0.8513794,-1.171875,-0.9375,0.53125
1696253699246,-0.4584961,-0.1572876,-0.87384033,-4.625,0.125,0.640625
1696253699287,-0.40429688,-0.1560669,-0.8374634,-6.0,3.453125,-1.875
1696253699327,-0.48168945,-0.17803955,-0.8530884,-0.1875,-2.859375,-1.546875
1696253699346,-0.44433594,-0.1638794,-0.8015747,0.71875,0.375,0.328125
1696253699386,-0.45703125,-0.16925049,-0.83477783,2.109375,-1.515625,0.0625
1696253699427,-0.45385742,-0.16217041,-0.86724854,2.484375,-0.546875,0.453125
1696253699466,-0.45703125,-0.16070557,-0.8633423,1.4375,-1.765625,0.03125
1696253699507,-0.45898438,-0.16607666,-0.89727783,-0.0625,-0.984375,0.1875
1696253699546,-0.453125,-0.1416626,-0.8550415,-3.390625,0.65625,0.609375
1696253699606,-0.4140625,-0.15631104,-0.8755493,-6.90625,-2.25,-2.953125
1696253699646,-0.48657227,-0.1843872,-0.8323364,-6.375,1.359375,-3.15625
1696253699665,-0.4362793,-0.17706299,-0.8616333,3.484375,-3.515625,0.640625
1696253699706,-0.43652344,-0.16534424,-0.7461548,0.734375,-1.078125,0.75
1696253699746,-0.453125,-0.175354,-0.8345337,4.34375,-2.515625,-0.5
1696253699807,-0.45532227,-0.16827393,-0.8362427,6.15625,-3.609375,0.3125
1696253699846,-0.46020508,-0.16168213,-0.8862915,9.984375,-4.75,1.5
1696253699867,-0.4267578,-0.13970947,-0.83795166,10.734375,-0.625,2.703125
1696253699908,-0.47851562,-0.12652588,-0.86846924,11.609375,0.1875,4.046875
1696253699946,-0.45288086,-0.109436035,-0.8735962,8.1875,1.71875,5.109375
1696253699986,-0.453125,-0.11871338,-0.9085083,4.71875,3.4375,5.328125
1696253700027,-0.40405273,-0.116760254,-0.8616333,2.046875,1.375,4.046875
1696253700067,-0.45141602,-0.117492676,-0.8674927,0.140625,-0.34375,2.3125
1696253700107,-0.44262695,-0.11578369,-0.8587036,-0.703125,-1.171875,1.75
1696253700146,-0.44799805,-0.12359619,-0.84942627,-0.96875,-1.1875,1.375
1696253700186,-0.44628906,-0.11895752,-0.84747314,-0.765625,-0.8125,0.96875
1696253700225,-0.45361328,-0.11627197,-0.8555298,-1.09375,-0.984375,1.140625
1696253700286,-0.4428711,-0.12286377,-0.8743286,-2.640625,-1.625,0.9375
1696253700306,-0.45703125,-0.12872314,-0.8682251,-3.703125,-2.34375,1.21875
1696253700346,-0.4506836,-0.13677979,-0.85284424,-3.078125,-2.375,1.15625
1696253700406,-0.43896484,-0.1350708,-0.8442993,-1.953125,-1.921875,1.078125
1696253700426,-0.43945312,-0.13482666,-0.86920166,-0.671875,-1.53125,1.765625
1696253700466,-0.42626953,-0.13677979,-0.87213135,2.3125,-0.9375,1.703125
1696253700506,-0.4104004,-0.12945557,-0.75787354,1.265625,0.265625,1.71875
1696253700567,-0.44018555,-0.14337158,-0.8689575,-6.21875,2.765625,3.609375
1696253700587,-0.4638672,-0.1638794,-0.9570923,-1.359375,7.15625,1.421875
1696253700646,-0.46948242,-0.14068604,-0.9024048,0.453125,4.5,0.046875
1696253700649,-0.4465332,-0.14898682,-0.8513794,-1.75,0.09375,0.046875
1696253700686,-0.44482422,-0.14215088,-0.8335571,-2.34375,-2.78125,0.609375
1696253700726,-0.43798828,-0.15826416,-0.8171997,-0.09375,-1.703125,0.296875
1696253700767,-0.45239258,-0.15509033,-0.82647705,1.640625,-1.421875,-0.109375
1696253700807,-0.44433594,-0.15118408,-0.84625244,0.359375,-1.125,0.1875
1696253700847,-0.46191406,-0.15216064,-0.88287354,-0.125,-1.3125,0.375
1696253700885,-0.46606445,-0.14971924,-0.8945923,-0.359375,-0.453125,0.328125
1696253700926,-0.44482422,-0.15338135,-0.84381104,-0.796875,-0.4375,0.390625
1696253700967,-0.4416504,-0.15509033,-0.895813,-3.78125,-0.859375,0.734375
1696253701007,-0.44213867,-0.15704346,-0.85894775,-0.5,-0.90625,0.015625
1696253701053,-0.44628906,-0.16583252,-0.8440552,-0.25,-0.890625,0.1875
1696253701088,-0.43066406,-0.15240479,-0.8023071,0.171875,-1.203125,0.0625
1696253701126,-0.44189453,-0.14898682,-0.8430786,0.890625,-1.921875,-0.046875
1696253701167,-0.46118164,-0.16119385,-0.8899536,0.609375,-1.28125,0.515625
1696253701207,-0.4501953,-0.15045166,-0.9175415,1.265625,0.640625,0.1875
1696253701246,-0.4736328,-0.15362549,-0.9873657,1.921875,4.4375,0.4375
1696253701287,-0.44604492,-0.1519165,-0.8491821,-1.890625,-0.1875,0.859375
1696253701326,-0.43847656,-0.16436768,-0.85406494,-5.09375,1.03125,0.9375
1696253701367,-0.4404297,-0.16119385,-0.7197876,-3.421875,1.578125,-0.609375
1696253701408,-0.4411621,-0.16851807,-0.79693604,-0.03125,-0.609375,-0.875
1696253701447,-0.43701172,-0.16290283,-0.786438,1.625,1.078125,-0.125
1696253701488,-0.45703125,-0.16534424,-0.8496704,2.09375,-0.34375,-0.21875
1696253701527,-0.46435547,-0.15533447,-0.85772705,3.71875,0.125,-0.3125
1696253701567,-0.46118164,-0.15386963,-0.8753052,3.59375,-1.21875,-0.25
1696253701608,-0.4650879,-0.1494751,-0.89141846,0.9375,-1.546875,0.046875
1696253701646,-0.46313477,-0.15020752,-0.8543091,-0.5,-0.84375,0.453125
1696253701686,-0.45458984,-0.15411377,-0.86676025,-4.234375,-2.0,1.3125
1696253701726,-0.45654297,-0.15655518,-0.80474854,-5.09375,1.109375,1.28125
1696253701767,-0.45239258,-0.18414307,-0.8550415,-1.609375,-1.4375,-0.03125
1696253701807,-0.41601562,-0.15118408,-0.76397705,1.046875,2.03125,-0.09375
1696253701846,-0.44335938,-0.16265869,-0.835022,4.4375,-0.21875,-0.734375
1696253701887,-0.45483398,-0.14996338,-0.82476807,5.078125,-0.28125,-1.015625
1696253701967,-0.46020508,-0.14996338,-0.90460205,1.171875,-0.296875,0.0
1696253701971,-0.47314453,-0.15216064,-0.8858032,-1.0625,-0.484375,0.296875
1696253701985,-0.46484375,-0.15631104,-0.8574829,-3.9375,-1.03125,1.171875
1696253702026,-0.46801758,-0.1651001,-0.9841919,-12.359375,0.0,2.359375
1696253702066,-0.41455078,-0.14678955,-0.85040283,-7.28125,-7.296875,-2.203125
1696253702126,-0.44360352,-0.20733643,-0.88897705,2.1875,-4.96875,-3.484375
1696253702146,-0.39282227,-0.17071533,-0.66534424,0.890625,1.515625,0.46875
1696253702187,-0.4296875,-0.17095947,-0.83673096,4.0,0.640625,0.09375
1696253702227,-0.42529297,-0.16583252,-0.7608032,4.296875,-1.421875,-0.765625
1696253702267,-0.4506836,-0.16021729,-0.9512329,4.0,-2.453125,-1.09375
1696253702307,-0.4663086,-0.1404419,-0.8887329,0.28125,-0.703125,-0.71875
1696253702347,-0.46362305,-0.16925049,-0.9043579,-0.84375,-2.28125,0.09375
1696253702386,-0.45166016,-0.15802002,-0.8545532,1.046875,-1.140625,0.125
1696253702426,-0.42382812,-0.15997314,-0.83135986,4.015625,-0.296875,0.171875
1696253702486,-0.41845703,-0.15777588,-0.83843994,4.796875,-1.15625,0.03125
1696253702507,-0.42773438,-0.13922119,-0.8596802,3.484375,-2.125,-0.140625
1696253702546,-0.42822266,-0.12823486,-0.86505127,1.234375,-1.203125,0.125
1696253702586,-0.43896484,-0.144104,-0.8735962,0.1875,-0.859375,0.078125
1696253702646,-0.45385742,-0.13116455,-0.8970337,0.28125,-1.21875,0.171875
1696253702665,-0.4501953,-0.13653564,-0.8809204,-0.8125,-1.203125,0.46875
1696253702727,-0.43481445,-0.15167236,-0.880188,-1.34375,-2.296875,0.34375
1696253702766,-0.42041016,-0.14093018,-0.8460083,-0.234375,-1.375,0.0625
1696253702785,-0.4255371,-0.13555908,-0.8640747,-1.234375,-2.328125,0.265625
1696253702826,-0.42797852,-0.1428833,-0.87335205,-1.1875,-2.28125,0.625
1696253702866,-0.4272461,-0.15240479,-0.87677,-1.84375,-2.390625,0.703125
1696253702910,-0.40478516,-0.14434814,-0.8491821,0.265625,-1.375,0.6875
1696253702946,-0.3918457,-0.13897705,-0.77960205,-2.703125,3.171875,1.0625
1696253702987,-0.50512695,-0.16827393,-1.0193481,-6.15625,1.78125,2.25
1696253703028,-0.4140625,-0.15557861,-0.8587036,-3.828125,3.65625,0.71875
1696253703069,-0.4272461,-0.1819458,-0.7737427,-2.59375,-0.421875,-0.34375
1696253703106,-0.40039062,-0.1506958,-0.77423096,1.25,0.125,-0.328125
1696253703147,-0.42700195,-0.1609497,-0.8296509,0.859375,-0.8125,-0.484375
1696253703186,-0.42651367,-0.17803955,-0.85406494,3.96875,-0.40625,-0.125
1696253703227,-0.4387207,-0.1609497,-0.8977661,1.546875,-1.390625,0.421875
1696253703266,-0.45410156,-0.15142822,-0.9180298,0.09375,-1.40625,0.34375
1696253703288,-0.453125,-0.16021729,-0.9043579,-1.09375,-0.234375,0.765625
1696253703326,-0.43530273,-0.16119385,-0.9060669,-2.578125,1.15625,1.203125
1696253703366,-0.4243164,-0.16265869,-0.90045166,-4.59375,2.65625,0.453125
1696253703405,-0.42089844,-0.1921997,-0.8464966,-2.1875,-2.078125,-3.65625
1696253703447,-0.42529297,-0.16119385,-0.75738525,1.40625,2.046875,-0.265625
1696253703486,-0.43798828,-0.16827393,-0.7883911,2.9375,-0.359375,-0.3125
1696253703528,-0.44677734,-0.17364502,-0.8364868,5.1875,-1.453125,-0.046875
1696253703567,-0.45141602,-0.15875244,-0.9092407,1.90625,-0.90625,0.484375
1696253703608,-0.44970703,-0.15435791,-0.9241333,-0.359375,-0.890625,0.421875
1696253703649,-0.45922852,-0.16558838,-0.92437744,-3.25,-3.03125,0.828125
1696253703688,-0.4501953,-0.1716919,-0.85528564,-7.21875,-0.53125,0.484375
1696253703727,-0.35888672,-0.15557861,-0.7678833,-6.796875,-1.03125,-3.25
1696253703770,-0.4621582,-0.16827393,-0.84942627,2.53125,-0.015625,-1.1875
1696253703807,-0.42114258,-0.16656494,-0.78863525,-1.671875,-0.84375,0.8125
1696253703847,-0.41625977,-0.18780518,-0.8220825,2.28125,-0.6875,-0.046875
1696253703891,-0.43432617,-0.17706299,-0.85821533,3.671875,-0.28125,-0.296875
1696253703928,-0.45361328,-0.17071533,-0.9260864,2.734375,-0.765625,-0.03125
1696253703968,-0.45776367,-0.16436768,-0.88848877,0.03125,-0.53125,0.078125
1696253704008,-0.4477539,-0.16265869,-0.8826294,-0.671875,-0.5,0.375
1696253704048,-0.4338379,-0.16119385,-0.88531494,-3.65625,3.171875,0.78125
1696253704087,-0.42529297,-0.17901611,-0.847229,-5.828125,4.734375,-0.015625
1696253704128,-0.49072266,-0.1921997,-0.83380127,1.796875,-0.15625,-2.4375
1696253704167,-0.4362793,-0.16070557,-0.82696533,2.40625,1.25,-0.765625
1696253704207,-0.43237305,-0.16705322,-0.80303955,1.15625,-1.109375,0.0
1696253704247,-0.4404297,-0.17218018,-0.84088135,2.03125,-1.59375,-0.09375
1696253704287,-0.44628906,-0.15679932,-0.8740845,2.640625,-0.625,-0.09375
1696253704326,-0.46118164,-0.16998291,-0.88116455,0.1875,-1.015625,0.203125
1696253704368,-0.44189453,-0.159729,-0.8491821,-0.0625,0.125,0.421875
1696253704409,-0.4711914,-0.17706299,-0.894104,-1.8125,0.40625,1.109375
1696253704447,-0.45336914,-0.16705322,-0.84161377,-5.140625,3.0,1.296875
1696253704489,-0.41918945,-0.18414307,-0.87384033,-2.421875,0.734375,-0.0625
1696253704526,-0.4482422,-0.1741333,-0.83013916,-0.140625,-1.09375,-0.078125
1696253704567,-0.4284668,-0.15533447,-0.7827759,-0.671875,-0.421875,0.34375
1696253704585,-0.43896484,-0.17681885,-0.87506104,1.4375,-2.09375,-0.234375
1696253704627,-0.45263672,-0.1663208,-0.84942627,1.421875,-0.578125,-0.28125
1696253704690,-0.45532227,-0.16558838,-0.8875122,1.453125,-1.5,-0.203125
1696253704706,-0.4465332,-0.16265869,-0.83184814,4.734375,0.578125,-0.671875
1696253704768,-0.44628906,-0.16949463,-0.8152466,8.53125,1.25,-0.375
1696253704808,-0.47192383,-0.14312744,-0.8850708,6.40625,3.1875,0.625
1696253704827,-0.45361328,-0.13775635,-0.8694458,3.890625,2.9375,0.75
1696253704887,-0.44848633,-0.1296997,-0.83013916,2.96875,-0.5,0.796875
1696253704928,-0.45336914,-0.13287354,-0.8562622,1.875,-3.53125,0.484375
1696253704945,-0.46411133,-0.13580322,-0.86138916,0.796875,-2.0,0.125
1696253704987,-0.45629883,-0.1272583,-0.86920166,0.390625,-0.984375,0.171875
1696253705027,-0.4572754,-0.13287354,-0.8587036,-0.375,-0.0625,0.265625
1696253705065,-0.4658203,-0.14068604,-0.8850708,-1.21875,-2.40625,0.53125
1696253705108,-0.4489746,-0.12994385,-0.8477173,-0.703125,-1.65625,0.484375
1696253705147,-0.4465332,-0.1416626,-0.850647,-0.40625,-1.796875,0.515625
1696253705190,-0.44067383,-0.1375122,-0.8518677,0.0,-0.25,0.6875
1696253705226,-0.42700195,-0.12042236,-0.8596802,-4.140625,7.84375,2.265625
1696253705267,-0.54052734,-0.2078247,-1.0574341,-10.546875,-4.015625,3.0
1696253705308,-0.42871094,-0.15826416,-0.8152466,-0.515625,5.296875,-1.046875
1696253705346,-0.4477539,-0.13458252,-0.76397705,1.3125,2.078125,-0.8125
1696253705388,-0.45507812,-0.14215088,-0.76885986,-0.3125,-1.078125,-0.15625
1696253705451,-0.44726562,-0.1675415,-0.84332275,2.53125,-3.09375,0.0
1696253705490,-0.4494629,-0.15948486,-0.8706665,1.328125,-0.015625,0.453125
1696253705505,-0.47509766,-0.14312744,-0.87994385,0.3125,-0.625,0.75
1696253705546,-0.47021484,-0.16046143,-0.928772,-1.09375,-1.671875,0.71875
1696253705589,-0.4777832,-0.15582275,-0.9038696,-3.265625,0.0,1.125
1696253705626,-0.44799805,-0.17315674,-0.911438,-5.40625,1.328125,0.515625
1696253705669,-0.44506836,-0.17803955,-0.79229736,-1.828125,-0.453125,-1.90625
1696253705707,-0.4423828,-0.13311768,-0.78326416,-0.703125,2.546875,0.125
1696253705750,-0.43603516,-0.17510986,-0.8164673,1.140625,0.6875,0.125
1696253705788,-0.45336914,-0.17803955,-0.8218384,0.65625,-0.890625,-0.125
1696253705828,-0.4724121,-0.17071533,-0.85040283,2.1875,-1.140625,-0.59375
1696253705890,-0.48486328,-0.16558838,-0.8945923,4.03125,-2.359375,-0.15625
1696253705906,-0.45947266,-0.15118408,-0.8430786,0.59375,-1.75,0.296875
1696253705927,-0.46240234,-0.15289307,-0.864563,-0.984375,-1.609375,0.296875
1696253705970,-0.47485352,-0.1585083,-0.94366455,-2.40625,1.21875,1.3125
1696253706008,-0.46801758,-0.16241455,-0.8303833,-6.46875,2.203125,0.625
1696253706046,-0.43945312,-0.19000244,-0.8345337,-1.4375,-1.28125,-1.609375
1696253706088,-0.42578125,-0.15142822,-0.77716064,2.46875,3.25,-0.515625
1696253706128,-0.43969727,-0.1675415,-0.81256104,1.0,-0.875,0.109375
1696253706168,-0.46728516,-0.16363525,-0.82159424,1.921875,0.484375,-0.234375
1696253706207,-0.4765625,-0.15997314,-0.88360596,2.515625,-0.8125,0.09375
1696253706246,-0.47802734,-0.16363525,-0.86798096,0.796875,-0.296875,0.1875
1696253706286,-0.47070312,-0.1638794,-0.85650635,0.765625,-1.25,-0.09375
1696253706327,-0.45776367,-0.15411377,-0.82110596,0.71875,-1.265625,-0.3125
1696253706366,-0.4621582,-0.15460205,-0.85528564,-2.140625,0.3125,0.625
1696253706407,-0.4765625,-0.15948486,-0.8098755,-5.40625,3.34375,0.6875
1696253706447,-0.45947266,-0.18463135,-0.9314575,-3.359375,-1.140625,-0.40625
1696253706491,-0.4489746,-0.15289307,-0.81915283,1.28125,2.546875,0.15625
1696253706526,-0.44702148,-0.16900635,-0.7835083,-1.40625,-1.234375,0.390625
1696253706566,-0.4675293,-0.1807251,-0.8394165,0.734375,-0.890625,-0.265625
1696253706607,-0.46948242,-0.17022705,-0.8340454,2.109375,-1.9375,-1.109375
1696253706645,-0.46606445,-0.16680908,-0.81378174,6.546875,-3.765625,-1.375
1696253706687,-0.4519043,-0.15045166,-0.7866821,11.4375,-5.09375,-0.578125
1696253706728,-0.46411133,-0.13531494,-0.8530884,5.59375,-1.796875,0.140625
1696253706767,-0.47045898,-0.13287354,-0.9026489,1.9375,-1.90625,0.28125
1696253706809,-0.46875,-0.144104,-0.9036255,-0.296875,-3.015625,0.34375
1696253706847,-0.44604492,-0.14434814,-0.878479,0.21875,-1.234375,0.21875
1696253706888,-0.45361328,-0.1404419,-0.8569946,0.8125,0.140625,-0.078125
1696253706927,-0.43823242,-0.13092041,-0.85650635,0.5625,-0.6875,-0.109375
1696253706967,-0.4465332,-0.12408447,-0.83795166,0.375,1.0,0.0
1696253707007,-0.46118164,-0.12823486,-0.8584595,-0.65625,0.546875,0.40625
1696253707044,-0.45581055,-0.1326294,-0.84820557,-1.0,0.09375,0.421875
1696253707084,-0.45776367,-0.14019775,-0.8855591,-1.734375,-2.390625,0.546875
1696253707126,-0.4580078,-0.13580322,-0.8513794,-0.5625,-1.4375,0.515625
1696253707189,-0.45288086,-0.13946533,-0.86553955,0.828125,-1.1875,0.671875
1696253707206,-0.42041016,-0.13702393,-0.84942627,0.03125,0.953125,0.90625
1696253707226,-0.46166992,-0.12286377,-0.8718872,-8.046875,9.421875,3.171875
1696253707266,-0.51171875,-0.1897583,-1.0498657,-5.765625,-3.390625,3.4375
1696253707308,-0.43579102,-0.15753174,-0.7835083,0.21875,8.046875,-0.78125
1696253707346,-0.44848633,-0.15997314,-0.77130127,0.3125,-1.015625,-0.484375
1696253707388,-0.45239258,-0.13458252,-0.756897,0.328125,0.359375,-0.6875
1696253707426,-0.4506836,-0.15167236,-0.8591919,2.703125,-2.59375,-0.09375
1696253707468,-0.46533203,-0.16314697,-0.8584595,1.0625,-0.59375,0.1875
1696253707506,-0.4909668,-0.15557861,-0.90338135,-0.890625,-0.5,0.71875
1696253707566,-0.49072266,-0.15826416,-0.90338135,0.8125,-1.078125,0.59375
1696253707585,-0.47705078,-0.15631104,-0.9072876,-2.28125,1.125,1.625
1696253707628,-0.46362305,-0.16021729,-0.8518677,-1.96875,1.15625,0.34375
1696253707686,-0.44091797,-0.15655518,-0.79351807,0.46875,3.671875,-0.453125
1696253707725,-0.4423828,-0.15167236,-0.77423096,0.265625,-1.484375,-0.1875
1696253707767,-0.45581055,-0.14434814,-0.7932739,0.546875,-0.546875,-0.0625
1696253707806,-0.4724121,-0.15484619,-0.8245239,1.578125,-1.578125,-0.078125
1696253707847,-0.48608398,-0.1531372,-0.8904419,-0.484375,-1.765625,0.3125
1696253707867,-0.5024414,-0.15948486,-0.9031372,-1.734375,-0.078125,0.5625
1696253707909,-0.48388672,-0.15924072,-0.8897095,-1.078125,0.359375,0.875
1696253707947,-0.45336914,-0.15802002,-0.82891846,-7.21875,5.84375,1.34375
1696253707987,-0.45092773,-0.18707275,-0.85162354,0.375,-1.78125,-4.359375
1696253708026,-0.47387695,-0.15362549,-0.78302,1.9375,-0.890625,-2.0
1696253708065,-0.43725586,-0.13189697,-0.74346924,0.53125,-0.171875,-0.046875
1696253708107,-0.46606445,-0.15777588,-0.8237915,2.734375,-3.28125,0.078125
1696253708148,-0.47607422,-0.15386963,-0.85357666,0.9375,-0.171875,-0.015625
1696253708187,-0.49243164,-0.15338135,-0.91778564,-0.109375,-1.890625,0.4375
1696253708230,-0.4921875,-0.15753174,-0.87994385,-0.078125,-0.25,0.296875
1696253708266,-0.48779297,-0.16485596,-0.8960571,-1.8125,0.53125,0.9375
1696253708329,-0.4885254,-0.16461182,-0.85943604,-5.828125,2.765625,0.984375
1696253708348,-0.43530273,-0.16998291,-0.82476807,-4.40625,2.453125,-3.71875
1696253708409,-0.4807129,-0.16973877,-0.7827759,0.765625,-4.359375,-0.359375
1696253708426,-0.44091797,-0.15655518,-0.7576294,1.75,-1.28125,-0.140625
1696253708465,-0.46533203,-0.16461182,-0.8479614,4.0625,-3.671875,-0.359375
1696253708507,-0.48706055,-0.1519165,-0.85821533,0.953125,-2.0625,0.28125
1696253708527,-0.48950195,-0.16412354,-0.8982544,0.671875,-0.265625,0.125
1696253708565,-0.49316406,-0.15948486,-0.92193604,-1.984375,1.15625,0.984375
1696253708609,-0.47753906,-0.18048096,-0.9663696,-8.21875,3.34375,0.59375
1696253708646,-0.42944336,-0.15997314,-0.86676025,-5.1875,0.8125,-5.921875
1696253708688,-0.52905273,-0.18829346,-0.71881104,2.734375,-2.59375,-1.828125
1696253708728,-0.4465332,-0.15704346,-0.78253174,3.0,-1.421875,-0.328125
1696253708768,-0.46044922,-0.16070557,-0.7905884,2.484375,-4.125,0.203125
1696253708807,-0.46728516,-0.16143799,-0.8435669,2.65625,-5.53125,0.21875
1696253708849,-0.4597168,-0.15435791,-0.8621216,7.015625,-6.296875,0.15625
1696253708890,-0.46044922,-0.1428833,-0.8430786,8.796875,-2.125,1.03125
1696253708927,-0.46948242,-0.13604736,-0.9065552,5.859375,0.96875,1.578125
1696253708967,-0.48266602,-0.13604736,-0.88482666,3.359375,2.75,0.984375
1696253709008,-0.46362305,-0.13140869,-0.85113525,1.78125,0.265625,2.03125
1696253709050,-0.44921875,-0.12677002,-0.84869385,1.5,-0.59375,2.078125
1696253709086,-0.4465332,-0.12530518,-0.84552,0.40625,-0.609375,0.984375
1696253709127,-0.45043945,-0.13214111,-0.8562622,-0.234375,-0.65625,0.875
1696253709166,-0.4567871,-0.13165283,-0.85772705,-0.28125,-0.203125,0.53125
1696253709208,-0.4621582,-0.1272583,-0.8591919,0.25,0.1875,0.4375
1696253709247,-0.4658203,-0.12896729,-0.86383057,-0.140625,-0.15625,0.5
1696253709288,-0.46191406,-0.13140869,-0.8557739,-1.0625,-0.140625,0.65625
1696253709327,-0.46801758,-0.13311768,-0.864563,-2.265625,-1.5625,0.46875
1696253709368,-0.46044922,-0.13946533,-0.8550415,-2.78125,-2.71875,0.390625
1696253709408,-0.45336914,-0.13580322,-0.8508911,-1.78125,-2.890625,0.078125
1696253709449,-0.44702148,-0.1416626,-0.82940674,-1.296875,-2.375,0.078125
1696253709487,-0.4519043,-0.14556885,-0.8479614,-1.171875,-2.3125,0.484375
1696253709526,-0.4543457,-0.15045166,-0.8882446,2.078125,-0.859375,0.578125
1696253709566,-0.4248047,-0.14141846,-0.8189087,4.421875,0.265625,0.75
1696253709609,-0.4411621,-0.13092041,-0.81207275,-2.453125,2.78125,1.71875
1696253709649,-0.47924805,-0.1482544,-0.9248657,-10.6875,6.53125,3.890625
1696253709687,-0.45751953,-0.16339111,-0.98760986,-7.4375,-2.796875,2.9375
1696253709726,-0.4260254,-0.15582275,-0.7827759,-1.078125,2.203125,-0.828125
1696253709768,-0.4555664,-0.14654541,-0.76446533,0.90625,-3.6875,-1.703125
1696253709808,-0.4404297,-0.1453247,-0.7810669,1.484375,-1.578125,-0.265625
1696253709827,-0.43286133,-0.15704346,-0.8057251,0.9375,-4.03125,-0.046875
1696253709886,-0.43920898,-0.17120361,-0.8491821,3.703125,0.1875,0.171875
1696253709927,-0.44726562,-0.14727783,-0.8965454,-0.46875,-0.828125,0.6875
1696253709947,-0.46728516,-0.15460205,-0.9590454,-1.15625,-1.234375,0.53125
1696253709985,-0.47045898,-0.1531372,-0.8899536,-1.96875,1.0625,0.984375
1696253710028,-0.46118164,-0.19000244,-0.93951416,-9.546875,1.265625,1.734375
1696253710066,-0.38916016,-0.16705322,-0.7383423,-5.8125,-1.6875,-4.734375
1696253710107,-0.4543457,-0.16680908,-0.77911377,3.625,0.796875,-2.03125
1696253710148,-0.4267578,-0.1572876,-0.7324829,1.84375,0.40625,-0.203125
1696253710188,-0.4494629,-0.17437744,-0.85040283,3.03125,-2.953125,0.375
1696253710229,-0.46069336,-0.1716919,-0.8591919,3.640625,-0.875,0.203125
1696253710269,-0.45996094,-0.15631104,-0.8999634,-0.328125,-0.171875,0.4375
1696253710308,-0.4807129,-0.1560669,-0.9402466,-0.9375,-0.9375,0.5625
1696253710348,-0.45874023,-0.1585083,-0.9146118,-4.65625,-2.140625,1.96875
1696253710389,-0.44995117,-0.1609497,-0.86138916,-5.421875,0.234375,-0.046875
1696253710426,-0.46362305,-0.18536377,-0.8040161,-2.140625,-0.609375,-2.96875
1696253710465,-0.40649414,-0.15386963,-0.7390747,0.90625,-0.09375,0.15625
1696253710507,-0.41455078,-0.17681885,-0.78741455,1.234375,-0.046875,0.046875
1696253710547,-0.44433594,-0.17706299,-0.84503174,2.0,-0.703125,-0.28125
1696253710607,-0.46044922,-0.1675415,-0.87506104,2.125,-0.625,-0.234375
1696253710627,-0.47802734,-0.175354,-0.9487915,0.359375,-0.25,0.125
1696253710667,-0.48046875,-0.16241455,-0.90167236,-1.265625,-0.59375,0.421875
1696253710728,-0.48168945,-0.18121338,-0.9299927,-4.5625,2.21875,0.828125
1696253710745,-0.4267578,-0.17071533,-0.7984009,-2.6875,-1.484375,-4.890625
1696253710786,-0.44433594,-0.17559814,-0.82647705,1.875,-0.125,-1.375
1696253710828,-0.42138672,-0.175354,-0.7659302,0.015625,-0.421875,-0.03125
1696253710869,-0.4296875,-0.17364502,-0.80596924,1.640625,0.1875,-0.25
1696253710908,-0.45092773,-0.16485596,-0.84039307,3.234375,-1.734375,-0.515625
1696253710946,-0.47607422,-0.16143799,-0.90704346,2.125,-1.703125,-0.171875
1696253710986,-0.4819336,-0.15655518,-0.89678955,-0.015625,-0.8125,0.5
1696253711026,-0.4638672,-0.16143799,-0.87384033,-2.140625,-0.578125,0.65625
1696253711066,-0.45507812,-0.16680908,-0.9216919,-6.75,2.40625,1.015625
1696253711125,-0.41357422,-0.1963501,-0.83966064,-4.390625,-4.03125,-5.21875
1696253711167,-0.4440918,-0.16680908,-0.8250122,0.78125,0.0,-2.546875
1696253711171,-0.41870117,-0.15411377,-0.74786377,0.234375,-0.671875,-0.78125
1696253711208,-0.45654297,-0.17022705,-0.8616333,1.828125,-1.28125,-0.453125
1696253711248,-0.45629883,-0.1585083,-0.847229,3.09375,-1.59375,-0.28125
1696253711288,-0.45410156,-0.16973877,-0.8501587,7.53125,-2.515625,-0.265625
1696253711327,-0.453125,-0.14874268,-0.84088135,9.59375,-5.046875,0.640625
1696253711368,-0.44262695,-0.13775635,-0.86846924,7.671875,-0.515625,0.4375
1696253711406,-0.45532227,-0.13482666,-0.86505127,3.65625,2.28125,1.953125
1696253711447,-0.43530273,-0.13018799,-0.8604126,1.46875,-0.734375,2.0
1696253711488,-0.4416504,-0.13336182,-0.87872314,0.078125,-1.765625,1.265625
1696253711527,-0.4506836,-0.13482666,-0.8648071,0.828125,-0.625,0.734375
1696253711568,-0.4489746,-0.13140869,-0.8723755,1.0625,-0.84375,0.609375
1696253711606,-0.4482422,-0.12530518,-0.8545532,1.890625,0.875,0.40625
1696253711646,-0.4621582,-0.12799072,-0.88116455,0.328125,-0.046875,0.46875
1696253711687,-0.45654297,-0.13409424,-0.881897,-0.984375,-1.109375,0.9375
1696253711728,-0.4465332,-0.12945557,-0.850647,-1.171875,-0.640625,1.21875
1696253711767,-0.43310547,-0.13482666,-0.84381104,-1.03125,-0.6875,1.15625
1696253711809,-0.42333984,-0.12994385,-0.85357666,-1.109375,-1.109375,1.375
1696253711847,-0.4350586,-0.13897705,-0.88775635,2.015625,0.734375,1.34375
1696253711887,-0.41503906,-0.12335205,-0.82232666,0.859375,4.546875,2.421875
1696253711928,-0.48608398,-0.16851807,-0.9397583,-12.3125,7.546875,7.359375
1696253711967,-0.43041992,-0.14923096,-0.8665161,1.671875,-2.625,0.53125
1696253712009,-0.45410156,-0.14849854,-0.7522583,-1.96875,2.578125,0.078125
1696253712047,-0.43115234,-0.14239502,-0.7334595,1.15625,-2.015625,-0.484375
1696253712088,-0.43676758,-0.14752197,-0.82476807,0.453125,-3.078125,-0.546875
1696253712129,-0.44604492,-0.14581299,-0.8562622,0.46875,-0.59375,0.125
1696253712166,-0.47143555,-0.14752197,-0.9043579,-1.828125,-0.0625,0.90625
1696253712209,-0.47802734,-0.1531372,-0.9307251,-1.984375,-1.84375,0.84375
1696253712247,-0.5029297,-0.15777588,-0.95684814,-4.578125,-1.109375,1.546875
1696253712290,-0.41674805,-0.15093994,-0.82110596,-5.796875,-0.890625,-0.4375
1696253712328,-0.4489746,-0.1795044,-0.7605591,-1.296875,-2.390625,-4.171875
1696253712368,-0.42285156,-0.1506958,-0.7546997,1.46875,-0.078125,-0.15625
1696253712409,-0.43481445,-0.1572876,-0.7942505,3.3125,-1.734375,-0.109375
1696253712448,-0.4428711,-0.1585083,-0.86798096,2.71875,-0.078125,0.25
1696253712466,-0.45825195,-0.16070557,-0.89434814,1.125,-1.546875,0.3125
1696253712508,-0.4699707,-0.16217041,-0.93218994,-1.125,-0.34375,0.609375
1696253712549,-0.4716797,-0.15924072,-0.94195557,0.03125,-0.171875,0.984375
1696253712588,-0.4663086,-0.16534424,-0.9121704,-0.8125,0.859375,1.015625
1696253712626,-0.43701172,-0.16070557,-0.83135986,1.234375,3.296875,-0.71875
1696253712668,-0.42700195,-0.15533447,-0.78253174,0.546875,0.46875,-0.171875
1696253712729,-0.4267578,-0.14190674,-0.7612915,0.078125,-0.21875,0.0
1696253712746,-0.4580078,-0.15338135,-0.84552,2.0,-2.046875,-0.265625
1696253712789,-0.45141602,-0.14678955,-0.8555298,2.359375,-1.765625,-0.234375
1696253712828,-0.46142578,-0.14215088,-0.9011841,2.734375,-1.578125,-0.421875
1696253712868,-0.45263672,-0.14263916,-0.8765259,2.015625,-1.078125,-0.546875
1696253712929,-0.44555664,-0.14312744,-0.8320923,1.921875,-0.15625,-0.40625
1696253712969,-0.4645996,-0.13409424,-0.8760376,0.9375,-1.859375,-0.125
1696253712986,-0.45288086,-0.13653564,-0.8743286,0.609375,-2.53125,0.109375
1696253713026,-0.43603516,-0.13653564,-0.8406372,0.828125,-0.984375,0.234375
1696253713068,-0.43579102,-0.12872314,-0.85479736,0.53125,-0.5,0.28125
1696253713109,-0.45361328,-0.1326294,-0.86920166,0.265625,-0.953125,0.3125
1696253713147,-0.44873047,-0.12750244,-0.8862915,-1.015625,-2.34375,0.40625
1696253713187,-0.4501953,-0.1375122,-0.88165283,-2.296875,-3.1875,0.9375
1696253713229,-0.43188477,-0.14654541,-0.861145,-1.3125,-2.6875,0.71875
1696253713266,-0.43676758,-0.14239502,-0.8557739,-0.328125,-1.578125,0.546875
1696253713307,-0.44091797,-0.14117432,-0.8838501,1.78125,-0.46875,0.21875
1696253713347,-0.39990234,-0.13458252,-0.8206177,-0.703125,-0.734375,0.6875
1696253713390,-0.44921875,-0.13604736,-0.8809204,-6.046875,4.96875,2.328125
1696253713449,-0.48217773,-0.16583252,-1.0562134,-8.640625,-3.234375,3.46875
1696253713487,-0.38598633,-0.16680908,-0.7959595,-4.9375,5.5,-0.75
1696253713507,-0.43139648,-0.1716919,-0.7515259,-3.671875,-4.171875,-1.703125
1696253713568,-0.42700195,-0.15484619,-0.79937744,-0.171875,-0.90625,0.09375
1696253713586,-0.4272461,-0.18511963,-0.8394165,0.515625,-2.25,-0.015625
1696253713650,-0.4267578,-0.17730713,-0.85113525,2.765625,0.15625,-0.03125
1696253713665,-0.42749023,-0.16925049,-0.92022705,2.171875,-1.8125,-0.015625
1696253713726,-0.44506836,-0.15655518,-0.90411377,1.0,-1.125,-0.125
1696253713745,-0.44335938,-0.15875244,-0.8862915,-0.640625,-0.796875,0.46875
1696253713767,-0.45117188,-0.17071533,-0.9402466,-2.421875,2.15625,1.125
1696253713807,-0.4008789,-0.1638794,-0.8118286,-1.578125,3.59375,-1.390625
1696253713848,-0.46044922,-0.18023682,-0.85601807,1.578125,0.203125,-1.484375
1696253713889,-0.41796875,-0.15167236,-0.7329712,1.28125,0.625,0.09375
1696253713927,-0.42333984,-0.17828369,-0.8386841,2.21875,-1.03125,0.109375
1696253713968,-0.4465332,-0.15875244,-0.8484497,1.96875,-0.4375,-0.15625
1696253714006,-0.4584961,-0.1651001,-0.9258423,-0.90625,0.453125,0.28125
1696253714047,-0.46411133,-0.16314697,-0.92852783,-1.328125,-1.203125,0.8125
1696253714089,-0.44921875,-0.16925049,-0.9143677,-1.765625,0.84375,0.578125
1696253714127,-0.42529297,-0.16827393,-0.8115845,-0.25,2.453125,-0.859375
1696253714169,-0.43969727,-0.16046143,-0.8320923,1.109375,-0.296875,-0.53125
1696253714209,-0.421875,-0.1519165,-0.7871704,0.234375,-0.828125,0.328125
1696253714247,-0.43041992,-0.17071533,-0.8340454,3.453125,-1.25,-0.046875
1696253714286,-0.43408203,-0.16143799,-0.87701416,6.625,-0.921875,0.296875
1696253714328,-0.45629883,-0.15167236,-0.9168091,0.6875,-0.59375,0.046875
1696253714370,-0.46362305,-0.14801025,-0.8970337,-1.0625,0.90625,0.5
1696253714409,-0.4741211,-0.16314697,-0.96417236,-6.859375,2.359375,2.46875
1696253714448,-0.37036133,-0.16314697,-0.90631104,-6.921875,-2.109375,-2.9375
1696253714488,-0.45825195,-0.16949463,-0.7908325,-2.828125,-2.59375,-6.609375
1696253714527,-0.3972168,-0.16168213,-0.70684814,1.71875,-2.40625,0.4375
1696253714568,-0.4177246,-0.16729736,-0.7913208,5.671875,-1.640625,-0.109375
1696253714609,-0.43530273,-0.1609497,-0.86187744,4.640625,-3.53125,0.46875
1696253714649,-0.43920898,-0.15435791,-0.94122314,1.75,-0.65625,1.09375
1696253714687,-0.4675293,-0.15533447,-0.9536743,-2.46875,0.265625,0.84375
1696253714728,-0.47753906,-0.17071533,-0.9524536,-8.796875,-0.234375,1.171875
1696253714769,-0.39379883,-0.17974854,-0.850647,-8.171875,-1.71875,-5.109375
1696253714807,-0.41674805,-0.17266846,-0.7312622,1.765625,-1.375,-0.140625
1696253714848,-0.38989258,-0.16485596,-0.7515259,3.046875,-1.359375,-0.890625
1696253714887,-0.41455078,-0.17144775,-0.7944946,8.078125,-2.828125,-0.5
1696253714927,-0.43017578,-0.13848877,-0.8584595,11.0,-1.578125,2.078125
1696253714968,-0.43920898,-0.14337158,-0.92510986,7.828125,2.9375,1.953125
1696253715007,-0.45385742,-0.12774658,-0.93927,2.875,3.1875,1.609375
1696253715070,-0.46923828,-0.1404419,-0.9224243,-1.296875,0.546875,1.0
1696253715086,-0.42944336,-0.14141846,-0.8740845,-1.28125,-1.0625,0.703125
1696253715108,-0.41625977,-0.1428833,-0.8423462,-0.21875,-1.015625,0.265625
1696253715146,-0.42285156,-0.13287354,-0.8320923,0.578125,-0.625,0.21875
1696253715210,-0.42407227,-0.12896729,-0.835022,0.53125,0.453125,0.484375
1696253715227,-0.43408203,-0.13214111,-0.84942627,-0.453125,-0.59375,0.703125
1696253715267,-0.4428711,-0.14068604,-0.8933716,-1.5,-2.171875,0.78125
1696253715310,-0.4440918,-0.14361572,-0.878479,-1.328125,-0.203125,0.421875
1696253715346,-0.43896484,-0.14752197,-0.8882446,-1.453125,-1.21875,0.40625
1696253715386,-0.4321289,-0.1453247,-0.87823486,-0.609375,-1.453125,0.671875
1696253715429,-0.43017578,-0.15777588,-0.8897095,1.734375,-1.046875,1.15625
1696253715467,-0.3918457,-0.13800049,-0.800354,4.09375,0.4375,1.0
1696253715507,-0.41186523,-0.12774658,-0.8533325,-2.234375,2.859375,1.46875
1696253715567,-0.47070312,-0.14923096,-0.94537354,-10.609375,1.265625,3.859375
1696253715607,-0.38891602,-0.1585083,-0.87286377,-2.578125,0.3125,0.484375
1696253715627,-0.43774414,-0.14703369,-0.7732544,-0.15625,5.3125,-0.734375
1696253715668,-0.44262695,-0.15435791,-0.80792236,1.953125,-0.8125,-0.59375
1696253715730,-0.44433594,-0.15460205,-0.82476807,0.578125,-1.171875,-0.09375
1696253715748,-0.43530273,-0.16925049,-0.8792114,2.703125,-2.640625,0.421875
1696253715789,-0.4399414,-0.15362549,-0.8508911,2.1875,-0.03125,0.8125
1696253715827,-0.45214844,-0.1482544,-0.88482666,-0.109375,-2.640625,0.140625
1696253715890,-0.4482422,-0.14312744,-0.925354,-0.453125,-1.484375,0.375
1696253715927,-0.4506836,-0.13604736,-0.8562622,-2.71875,0.578125,1.3125
1696253715948,-0.4597168,-0.17730713,-0.9800415,-8.828125,-1.140625,1.921875
1696253715988,-0.39501953,-0.16363525,-0.77911377,-3.140625,3.171875,-2.90625
1696253716028,-0.4152832,-0.15118408,-0.8088989,2.1875,1.265625,-0.484375
1696253716068,-0.41967773,-0.16192627,-0.75982666,0.921875,0.109375,-0.21875
1696253716107,-0.44067383,-0.17462158,-0.83380127,2.65625,-0.25,-0.03125
1696253716147,-0.45288086,-0.16290283,-0.8753052,2.609375,-0.375,0.0625
1696253716189,-0.46679688,-0.15704346,-0.91534424,-0.0625,0.03125,0.375
1696253716229,-0.4650879,-0.15264893,-0.91485596,0.375,0.125,0.5
1696253716266,-0.46826172,-0.1338501,-0.8792114,-3.5,3.890625,2.59375
1696253716329,-0.4814453,-0.19000244,-0.98883057,-4.609375,-0.015625,1.78125
1696253716346,-0.38793945,-0.159729,-0.75445557,-0.890625,5.75,-3.09375
1696253716366,-0.4309082,-0.15118408,-0.8032837,2.5,-1.796875,-0.421875
1696253716409,-0.4489746,-0.1453247,-0.7678833,0.984375,1.15625,-0.21875
1696253716446,-0.4560547,-0.1560669,-0.83062744,2.375,-2.0,0.34375
1696253716488,-0.47045898,-0.16363525,-0.88409424,1.90625,-1.1875,0.109375
1696253716527,-0.47607422,-0.15509033,-0.91607666,1.53125,-0.46875,0.203125
1696253716567,-0.48168945,-0.15631104,-0.89923096,-0.28125,-1.453125,0.25
1696253716610,-0.46484375,-0.14263916,-0.8699341,-2.9375,-1.0,0.984375
1696253716648,-0.45410156,-0.15899658,-0.9089966,-7.984375,-0.5,0.640625
1696253716688,-0.45629883,-0.16265869,-0.7883911,-1.03125,-0.3125,-3.28125
1696253716729,-0.4440918,-0.15631104,-0.81817627,1.9375,1.78125,0.453125
1696253716768,-0.4345703,-0.15386963,-0.81036377,0.65625,-1.984375,0.328125
1696253716808,-0.45141602,-0.16217041,-0.8526001,1.609375,-0.78125,0.3125
1696253716847,-0.45336914,-0.15631104,-0.8464966,2.046875,0.40625,0.109375
1696253716888,-0.453125,-0.15924072,-0.9102173,1.859375,-0.34375,0.1875
1696253716927,-0.46411133,-0.15435791,-0.8633423,-1.234375,-0.65625,0.078125
1696253716968,-0.47094727,-0.15582275,-0.92437744,-3.25,1.40625,0.484375
1696253717010,-0.47558594,-0.17047119,-0.8779907,-7.5625,2.0625,-1.53125
1696253717049,-0.46899414,-0.17242432,-0.85723877,-0.078125,-1.9375,0.203125
1696253717088,-0.42895508,-0.15753174,-0.78375244,1.03125,-0.328125,-0.046875
1696253717130,-0.43603516,-0.16607666,-0.79107666,0.921875,-1.125,-0.171875
1696253717167,-0.4482422,-0.16656494,-0.8430786,3.421875,-2.0625,-0.1875
1696253717208,-0.4597168,-0.1531372,-0.82403564,6.609375,-1.3125,0.5625
1696253717248,-0.4399414,-0.15264893,-0.848938,9.015625,-2.578125,0.75
1696253717288,-0.45092773,-0.13092041,-0.8792114,7.09375,-0.875,-0.21875
1696253717327,-0.48046875,-0.12261963,-0.8909302,2.046875,-3.96875,-0.140625
1696253717366,-0.4741211,-0.12237549,-0.9158325,1.640625,-2.203125,0.40625
1696253717409,-0.4489746,-0.124816895,-0.86846924,0.625,1.546875,0.640625
1696253717448,-0.4477539,-0.13580322,-0.86798096,-0.703125,-0.546875,0.859375
1696253717489,-0.43237305,-0.13726807,-0.84552,-0.65625,-1.1875,0.5625
1696253717528,-0.43041992,-0.124816895,-0.8291626,-1.34375,-0.75,0.546875
1696253717569,-0.4555664,-0.13238525,-0.85040283,-3.0,-2.203125,0.59375
1696253717610,-0.45361328,-0.13067627,-0.87579346,-2.421875,-3.296875,0.40625
1696253717649,-0.45263672,-0.13311768,-0.8579712,-1.421875,-2.421875,0.359375
1696253717688,-0.44384766,-0.13287354,-0.86602783,-1.921875,-1.296875,0.359375
1696253717706,-0.44262695,-0.15264893,-0.895813,1.140625,-0.46875,0.40625
1696253717750,-0.4243164,-0.14874268,-0.85284424,3.1875,0.703125,0.296875
1696253717810,-0.40698242,-0.13287354,-0.8352661,-1.96875,1.6875,0.921875
1696253717828,-0.4729004,-0.13287354,-0.81866455,-8.3125,7.515625,3.015625
1696253717867,-0.4633789,-0.18243408,-0.98516846,-5.53125,-1.546875,1.703125
1696253717910,-0.43798828,-0.15435791,-0.78619385,-3.359375,5.53125,-0.515625
1696253717948,-0.44189453,-0.14263916,-0.72540283,-3.0,1.484375,-0.03125
1696253717988,-0.44702148,-0.15386963,-0.81427,0.015625,-1.078125,0.09375
1696253718052,-0.44335938,-0.17218018,-0.8262329,2.59375,-0.53125,-0.078125
1696253718066,-0.45458984,-0.16461182,-0.86724854,3.265625,-0.75,0.375
1696253718107,-0.45996094,-0.15484619,-0.87579346,1.640625,-0.8125,0.234375
1696253718148,-0.46826172,-0.15118408,-0.90704346,0.375,-2.828125,0.15625
1696253718187,-0.4638672,-0.15045166,-0.88287354,-1.0,-0.765625,0.265625
1696253718230,-0.46923828,-0.15582275,-0.9224243,-4.953125,-0.140625,1.6875
1696253718269,-0.44702148,-0.15386963,-0.8257446,-3.15625,0.390625,0.203125
1696253718308,-0.45214844,-0.17144775,-0.89385986,0.765625,0.9375,0.46875
1696253718351,-0.4206543,-0.15655518,-0.7371216,-0.609375,0.65625,0.359375
1696253718386,-0.45117188,-0.17315674,-0.86676025,2.703125,-0.390625,-0.46875
1696253718425,-0.4638672,-0.16558838,-0.8670044,1.34375,0.890625,-0.40625
1696253718468,-0.48510742,-0.16583252,-0.8858032,-0.484375,-0.375,0.125
1696253718507,-0.46850586,-0.15655518,-0.86798096,-0.609375,-0.5625,0.390625
1696253718569,-0.45166016,-0.16534424,-0.8320923,-0.4375,-0.59375,0.46875
1696253718590,-0.44458008,-0.17144775,-0.88165283,-4.15625,1.15625,0.921875
1696253718648,-0.44262695,-0.16534424,-0.8435669,-0.828125,-1.578125,-0.4375
1696253718668,-0.4609375,-0.1609497,-0.8435669,0.3125,0.375,-0.015625
1696253718707,-0.4399414,-0.16314697,-0.8027954,-0.8125,-0.640625,0.359375
1696253718770,-0.44360352,-0.17388916,-0.84625244,1.625,-0.171875,-0.375
1696253718785,-0.45288086,-0.16192627,-0.85235596,2.53125,0.0,-0.65625
1696253718847,-0.46850586,-0.16070557,-0.88653564,0.171875,-0.1875,0.03125
1696253718889,-0.4729004,-0.16192627,-0.8550415,-1.1875,-0.578125,0.5
1696253718906,-0.4658203,-0.15582275,-0.895813,-1.859375,-0.140625,0.90625
1696253718947,-0.46899414,-0.18927002,-0.87994385,-4.71875,-0.125,0.046875
1696253718986,-0.4650879,-0.1795044,-0.8538208,0.171875,-2.53125,-1.515625
1696253719008,-0.42626953,-0.16778564,-0.80474854,-0.609375,0.03125,0.078125
1696253719047,-0.4482422,-0.15826416,-0.82647705,1.75,-0.4375,-0.578125
1696253719086,-0.45385742,-0.16265869,-0.8286743,4.0625,-0.859375,-0.859375
1696253719128,-0.45410156,-0.15753174,-0.83599854,7.640625,-0.328125,-0.703125
1696253719169,-0.4609375,-0.1506958,-0.86724854,6.4375,-0.125,-0.3125
1696253719208,-0.4633789,-0.13848877,-0.8904419,4.6875,0.0625,0.0
1696253719247,-0.46704102,-0.13043213,-0.86676025,1.65625,0.296875,0.125
1696253719288,-0.45922852,-0.14239502,-0.8687134,0.875,-0.6875,0.296875
1696253719327,-0.45483398,-0.1326294,-0.8479614,0.078125,-0.671875,0.265625
1696253719365,-0.4609375,-0.13970947,-0.866272,-0.0625,-0.9375,0.1875
1696253719406,-0.44433594,-0.14019775,-0.8401489,0.296875,-0.109375,-0.09375
1696253719449,-0.4609375,-0.12530518,-0.84161377,0.53125,-0.640625,-0.546875
1696253719489,-0.4741211,-0.1194458,-0.85943604,-0.234375,-3.0625,0.09375
1696253719529,-0.45654297,-0.13946533,-0.8574829,-1.375,-2.5625,0.734375
1696253719568,-0.44799805,-0.1428833,-0.8591919,-0.609375,-1.75,0.78125
1696253719607,-0.4338379,-0.13922119,-0.86016846,-0.765625,-2.75,0.46875
1696253719648,-0.4428711,-0.13433838,-0.85406494,1.171875,-1.1875,0.1875
1696253719688,-0.4309082,-0.14190674,-0.8530884,-2.953125,-0.421875,0.875
1696253719728,-0.48876953,-0.15264893,-0.9522095,-8.484375,2.28125,2.65625
1696253719767,-0.44311523,-0.13848877,-0.86065674,-4.578125,-1.171875,1.0625
1696253719808,-0.44018555,-0.17218018,-0.86920166,-1.25,3.328125,-1.1875
1696253719848,-0.44970703,-0.14459229,-0.74786377,-0.84375,1.96875,0.03125
1696253719888,-0.44189453,-0.15826416,-0.8098755,-0.0625,-1.84375,0.015625
1696253719929,-0.4482422,-0.16436768,-0.8428345,1.71875,-0.1875,-0.359375
1696253719969,-0.46020508,-0.15802002,-0.88116455,1.6875,-1.78125,0.328125
1696253720007,-0.4765625,-0.15655518,-0.8982544,1.328125,-0.890625,0.375
1696253720048,-0.4584961,-0.15240479,-0.87994385,0.828125,-1.078125,0.453125
1696253720088,-0.47607422,-0.15216064,-0.9314575,-1.359375,-2.0,0.9375
1696253720128,-0.42285156,-0.13897705,-0.8196411,-2.328125,4.375,-0.3125
1696253720169,-0.45336914,-0.17633057,-0.7954712,-2.703125,-3.234375,-2.15625
1696253720207,-0.42407227,-0.14117432,-0.7896118,-0.28125,1.921875,-0.078125
1696253720247,-0.4411621,-0.15655518,-0.8057251,0.890625,-0.140625,-0.046875
1696253720287,-0.45776367,-0.16485596,-0.84747314,1.9375,-0.71875,0.03125
1696253720307,-0.47143555,-0.14971924,-0.8887329,0.875,-0.6875,0.34375
1696253720349,-0.47509766,-0.15655518,-0.8887329,-0.203125,0.171875,0.296875
1696253720389,-0.46923828,-0.15679932,-0.8899536,-1.421875,-0.328125,0.65625
1696253720427,-0.46557617,-0.16314697,-0.94000244,-4.359375,0.59375,0.75
1696253720468,-0.42797852,-0.16949463,-0.8286743,-4.8125,-3.578125,-5.03125
1696253720507,-0.47314453,-0.15338135,-0.84210205,2.578125,-0.484375,-1.21875
1696253720548,-0.4272461,-0.14923096,-0.7632446,-0.046875,-0.53125,0.34375
1696253720588,-0.44189453,-0.16461182,-0.84625244,2.3125,-0.6875,0.21875
1696253720629,-0.4633789,-0.15484619,-0.8518677,1.5625,-0.59375,0.015625
1696253720687,-0.46972656,-0.15631104,-0.8921509,1.71875,0.6875,-0.078125
1696253720706,-0.47924805,-0.15655518,-0.9216919,2.078125,-2.328125,0.21875
1696253720746,-0.45751953,-0.15045166,-0.85601807,-0.09375,-0.796875,0.375
1696253720788,-0.45532227,-0.15948486,-0.8826294,-4.03125,0.46875,0.765625
1696253720827,-0.44604492,-0.16290283,-0.8604126,-0.890625,-0.609375,-0.640625
1696253720891,-0.43115234,-0.14752197,-0.8098755,1.03125,0.09375,0.078125
1696253720906,-0.4375,-0.15338135,-0.80841064,-0.296875,-1.640625,0.3125
1696253720947,-0.45410156,-0.15582275,-0.8284302,0.84375,-0.8125,-0.046875
1696253721009,-0.46606445,-0.15924072,-0.88165283,0.125,-0.625,0.28125
1696253721029,-0.46484375,-0.16070557,-0.89019775,-0.609375,-0.640625,0.265625
1696253721067,-0.46533203,-0.15924072,-0.87872314,-1.921875,0.046875,0.328125
1696253721107,-0.47143555,-0.1807251,-0.89434814,-5.453125,-3.84375,-2.4375
1696253721149,-0.44580078,-0.16143799,-0.81622314,-3.921875,-0.921875,-4.453125
1696253721190,-0.46362305,-0.15777588,-0.8279419,1.265625,-1.65625,-0.78125
1696253721227,-0.43017578,-0.1638794,-0.786438,0.875,-0.390625,0.03125
1696253721268,-0.44702148,-0.16192627,-0.8340454,1.96875,-1.984375,0.03125
1696253721308,-0.4519043,-0.16119385,-0.86602783,3.96875,-3.09375,-0.015625
1696253721369,-0.4489746,-0.15142822,-0.82110596,9.1875,-1.921875,0.890625
1696253721386,-0.4560547,-0.14263916,-0.90338135,6.640625,0.703125,1.328125
1696253721427,-0.46826172,-0.13140869,-0.8982544,3.734375,1.734375,1.390625
1696253721489,-0.4519043,-0.13214111,-0.87384033,2.15625,0.015625,1.359375
1696253721506,-0.43701172,-0.13214111,-0.850647,0.640625,1.109375,1.234375
1696253721568,-0.44726562,-0.12750244,-0.85943604,0.234375,0.3125,0.875
1696253721587,-0.45043945,-0.12896729,-0.8518677,0.3125,0.96875,0.859375
1696253721627,-0.4519043,-0.13018799,-0.861145,-1.1875,0.453125,1.0625
1696253721646,-0.46264648,-0.13214111,-0.8831177,-1.46875,-2.875,0.65625
1696253721688,-0.4506836,-0.1338501,-0.8513794,-0.90625,-2.09375,0.375
1696253721728,-0.44970703,-0.13458252,-0.85772705,-1.828125,-1.40625,0.9375
1696253721768,-0.43652344,-0.13092041,-0.85162354,-0.140625,-1.25,1.265625
1696253721809,-0.46069336,-0.14776611,-0.8987427,2.453125,-1.0625,1.65625
1696253721850,-0.3942871,-0.13922119,-0.8245239,-0.96875,0.34375,2.359375
1696253721889,-0.4543457,-0.17462158,-0.89727783,-15.1875,4.453125,4.484375
1696253721929,-0.39819336,-0.15924072,-0.82940674,-2.46875,-2.234375,-0.34375
1696253721969,-0.46142578,-0.14263916,-0.82818604,2.21875,4.5625,-1.125
1696253722009,-0.43920898,-0.13580322,-0.7490845,1.0,0.78125,-0.515625
1696253722048,-0.44799805,-0.15435791,-0.8440552,2.203125,-2.53125,0.140625
1696253722088,-0.45483398,-0.14923096,-0.87335205,0.453125,0.71875,0.53125
1696253722128,-0.46044922,-0.16314697,-0.88726807,-1.78125,-0.40625,1.296875
1696253722169,-0.47631836,-0.16143799,-0.9429321,-3.765625,-1.046875,1.578125
1696253722208,-0.45703125,-0.15655518,-0.9092407,-2.75,1.34375,0.03125
1696253722247,-0.46972656,-0.17144775,-0.8040161,-0.421875,-1.5,-2.671875
1696253722287,-0.4375,-0.14923096,-0.77008057,1.25,0.359375,-0.203125
1696253722327,-0.43164062,-0.1494751,-0.77789307,0.625,-0.671875,-0.046875
1696253722368,-0.44799805,-0.14703369,-0.84698486,3.203125,-2.40625,-0.078125
1696253722407,-0.45776367,-0.14996338,-0.88360596,-0.328125,-1.03125,0.34375
1696253722449,-0.4645996,-0.15533447,-0.8948364,-1.75,-0.828125,0.578125
1696253722487,-0.4711914,-0.15704346,-0.8855591,-3.78125,-1.75,0.921875
1696253722526,-0.45874023,-0.16192627,-0.8731079,-3.46875,0.375,-0.3125
1696253722570,-0.4501953,-0.16900635,-0.81695557,-2.421875,-2.5,-2.09375
1696253722609,-0.42041016,-0.16412354,-0.7942505,-0.15625,-1.375,-1.0
1696253722648,-0.43237305,-0.16168213,-0.82403564,1.015625,0.015625,-0.25
1696253722688,-0.44213867,-0.144104,-0.8369751,1.78125,-0.5,-0.171875
1696253722727,-0.46313477,-0.15802002,-0.87701416,0.859375,-1.90625,0.140625
1696253722767,-0.45996094,-0.15997314,-0.88604736,2.125,-2.828125,-0.171875
1696253722808,-0.4567871,-0.15045166,-0.8713989,5.0625,-1.015625,-0.453125
1696253722847,-0.42895508,-0.14263916,-0.8279419,4.6875,-0.296875,-0.21875
1696253722888,-0.4440918,-0.14312744,-0.8584595,1.734375,-0.203125,-0.046875
1696253722928,-0.44970703,-0.13897705,-0.8748169,0.8125,-0.453125,0.46875
1696253722947,-0.44702148,-0.13873291,-0.8621216,-0.015625,-0.28125,0.421875
1696253722987,-0.44189453,-0.13360596,-0.86602783,-0.078125,-0.421875,0.390625
1696253723027,-0.45263672,-0.14337158,-0.8569946,0.296875,0.34375,-0.140625
1696253723091,-0.45092773,-0.13702393,-0.8701782,0.46875,-0.015625,0.015625
1696253723107,-0.44726562,-0.13824463,-0.86187744,0.125,-0.390625,0.234375
1696253723147,-0.44506836,-0.13409424,-0.85479736,-0.046875,-0.625,0.359375
1696253723188,-0.4416504,-0.1416626,-0.8501587,-0.296875,-0.609375,0.234375
1696253723230,-0.4453125,-0.13140869,-0.84820557,0.078125,-0.28125,0.21875
