# Sensor type: Respeck
# Activity type: Standing
# Activity subtype: Hyperventilating
# Subject id: s2106809
# Notes: unprocessed
timestamp,accel_x,accel_y,accel_z,gyro_x,gyro_y,gyro_z
1696251294903,-0.036132812,-0.9795532,0.19378662,0.109375,-0.265625,-0.03125
1696251294964,-0.028564453,-0.9837036,0.20013428,-0.078125,0.25,0.0
1696251294984,-0.028320312,-0.986145,0.19891357,-1.0,-0.484375,0.078125
1696251295045,-0.01977539,-0.96539307,0.20501709,0.15625,-0.265625,-0.421875
1696251295085,-0.021728516,-0.97979736,0.19891357,-1.203125,-0.328125,-0.34375
1696251295105,-0.030029297,-0.98101807,0.2008667,-1.90625,-1.03125,-0.6875
1696251295145,-0.036132812,-0.9768677,0.20819092,-0.4375,-0.359375,-0.203125
1696251295186,-0.03100586,-0.98638916,0.19744873,-1.71875,-1.1875,-0.140625
1696251295225,-0.028076172,-0.96661377,0.20501709,-1.09375,-0.109375,-0.078125
1696251295266,-0.028808594,-0.98028564,0.22088623,-1.359375,-0.578125,-0.1875
1696251295305,-0.028564453,-0.97735596,0.22528076,-2.015625,-1.625,-0.125
1696251295368,-0.03491211,-0.96417236,0.21502686,-1.78125,-1.515625,-0.109375
1696251295385,-0.016601562,-0.96221924,0.22137451,-1.203125,-0.640625,1.0
1696251295428,-0.021972656,-0.98638916,0.23699951,-1.984375,-0.46875,1.6875
1696251295465,-0.044921875,-0.99298096,0.25579834,-1.328125,1.78125,2.140625
1696251295507,-0.041503906,-0.99053955,0.26361084,-0.5,3.265625,1.40625
1696251295546,-0.03466797,-0.9680786,0.22503662,-5.65625,2.703125,-0.703125
1696251295587,-0.02368164,-0.98028564,0.21820068,-0.84375,2.75,-0.703125
1696251295625,-0.0087890625,-1.0007935,0.21917725,0.78125,-3.90625,1.203125
1696251295686,-0.021484375,-0.95147705,0.22576904,2.953125,-4.96875,2.265625
1696251295704,-0.03881836,-0.97613525,0.23236084,5.65625,-1.640625,1.8125
1696251295768,-0.033447266,-0.9834595,0.19207764,3.1875,-0.171875,1.375
1696251295784,2.4414062E-4,-1.0020142,0.23309326,13.8125,9.375,2.578125
1696251295827,-0.02758789,-0.99176025,0.17938232,11.1875,6.015625,1.953125
1696251295888,-0.03857422,-0.95684814,0.13690186,2.84375,2.28125,2.140625
1696251295904,0.005859375,-0.94122314,0.17474365,-0.171875,2.015625,3.234375
1696251295946,0.020019531,-0.9829712,0.1942749,-0.75,-5.4375,0.484375
1696251295989,-0.0029296875,-0.97491455,0.17401123,-4.359375,-7.0625,-1.25
1696251296026,-0.010498047,-0.97320557,0.1774292,-6.34375,-4.046875,0.4375
1696251296067,-0.01928711,-0.9763794,0.19158936,-5.0,-3.921875,0.75
1696251296105,-4.8828125E-4,-0.9788208,0.16864014,-2.296875,-4.53125,-0.421875
1696251296169,0.01171875,-0.9585571,0.22406006,-1.875,-3.015625,-0.078125
1696251296184,-0.008056641,-0.9336548,0.14764404,4.125,-5.28125,0.0625
1696251296205,-0.047851562,-0.91485596,0.137146,17.765625,-8.375,-1.796875
1696251296245,0.029541016,-0.90704346,0.1408081,6.59375,-16.703125,0.828125
1696251296284,-0.036132812,-1.034729,0.26116943,7.375,-1.953125,6.328125
1696251296325,-0.014404297,-1.0493774,0.17254639,-4.078125,-4.0625,-2.234375
1696251296365,-0.064697266,-1.0042114,0.12908936,-9.6875,-6.125,-2.828125
1696251296405,0.045898438,-1.0005493,0.18157959,-1.25,4.859375,-2.140625
1696251296447,0.01586914,-0.9973755,0.1918335,-3.125,1.609375,-1.625
1696251296490,-0.05419922,-0.9758911,0.1864624,-4.140625,-1.515625,-0.8125
1696251296527,-0.056152344,-0.9378052,0.19012451,0.75,1.359375,0.359375
1696251296565,-0.008300781,-1.0039673,0.19354248,-1.484375,2.15625,1.171875
1696251296604,-0.020263672,-1.0088501,0.18817139,-2.296875,0.109375,0.171875
1696251296647,-0.022705078,-0.98565674,0.19378662,-2.578125,-0.171875,0.515625
1696251296686,-0.012451172,-0.95098877,0.18719482,-0.984375,0.859375,0.3125
1696251296725,-0.012207031,-0.99053955,0.20135498,-0.578125,0.890625,0.421875
1696251296765,-0.020019531,-0.9829712,0.20892334,-1.90625,0.75,-0.8125
1696251296807,-0.033935547,-0.98272705,0.19720459,-2.9375,-1.578125,-0.46875
1696251296846,-0.036132812,-0.97247314,0.20355225,-0.453125,2.125,-0.296875
1696251296885,-0.0146484375,-0.9763794,0.21038818,-1.625,0.953125,-0.25
1696251296926,-0.0107421875,-0.9805298,0.21063232,-5.984375,-2.03125,0.203125
1696251296966,-0.026611328,-0.97735596,0.23504639,-7.390625,-1.15625,0.46875
1696251297006,-0.016845703,-0.99298096,0.27191162,-7.421875,2.5625,-0.59375
1696251297044,-0.038085938,-0.98516846,0.2921753,-9.359375,6.8125,0.734375
1696251297085,-0.05834961,-0.96881104,0.2687378,-3.5,8.75,0.984375
1696251297127,-0.020507812,-0.98101807,0.22039795,4.421875,7.0625,0.125
1696251297168,0.013671875,-0.9927368,0.2164917,8.71875,-1.640625,-0.390625
1696251297206,-0.020507812,-0.9624634,0.20794678,9.34375,-0.078125,1.109375
1696251297247,-0.034179688,-0.9710083,0.22015381,4.625,0.671875,0.515625
1696251297285,-0.026123047,-0.9951782,0.2074585,1.984375,1.6875,0.5625
1696251297325,-0.013671875,-0.9805298,0.18914795,3.71875,1.09375,1.34375
1696251297366,0.0043945312,-1.0007935,0.19451904,6.578125,1.328125,2.046875
1696251297405,-0.014892578,-0.9793091,0.1984253,6.375,2.4375,0.4375
1696251297446,-0.026855469,-0.96466064,0.1395874,1.875,0.609375,-1.359375
1696251297485,0.015625,-0.92803955,0.18206787,0.71875,2.4375,1.921875
1696251297505,-0.001953125,-0.9776001,0.20477295,3.21875,-2.796875,1.4375
1696251297545,-0.0056152344,-0.9795532,0.18817139,-1.453125,-5.78125,0.671875
1696251297584,-0.012451172,-0.98028564,0.18133545,-0.046875,-4.046875,-0.09375
1696251297625,-0.012207031,-0.9702759,0.1539917,1.46875,-3.28125,1.03125
1696251297686,0.0048828125,-0.9636841,0.15814209,2.375,-3.15625,0.640625
1696251297726,0.0041503906,-0.9483032,0.16351318,4.828125,-6.59375,0.453125
1696251297745,-0.004638672,-0.9380493,0.1239624,13.890625,-8.21875,-1.5
1696251297808,-0.029296875,-0.9180298,0.07611084,13.0,-4.015625,-0.015625
1696251297824,0.035888672,-0.94903564,0.13006592,6.9375,-6.84375,0.953125
1696251297866,-0.028808594,-1.0842896,0.22161865,4.21875,1.03125,6.46875
1696251297906,-0.011962891,-1.0427856,0.11566162,-0.25,-3.25,-3.25
1696251297947,-0.04345703,-0.97540283,0.10003662,-7.171875,-6.296875,-2.140625
1696251298007,0.0061035156,-0.9771118,0.12249756,-5.203125,-3.484375,1.21875
1696251298027,0.02758789,-1.0117798,0.1449585,-4.984375,-1.171875,-0.703125
1696251298065,-0.026367188,-1.0061646,0.1552124,-5.796875,-1.828125,-1.953125
1696251298106,-0.046142578,-0.9614868,0.14959717,-4.609375,1.3125,0.234375
1696251298146,4.8828125E-4,-0.9612427,0.14422607,-4.265625,1.984375,-1.03125
1696251298185,0.019042969,-1.0171509,0.17474365,-3.59375,1.0,-1.25
1696251298225,-0.016113281,-1.0061646,0.17059326,-3.046875,-0.390625,-0.15625
1696251298265,-0.049316406,-0.9714966,0.18060303,-1.640625,1.03125,-0.4375
1696251298329,-0.027832031,-0.95025635,0.16815186,-1.25,0.578125,0.34375
1696251298345,0.011474609,-0.9812622,0.16497803,1.34375,1.953125,2.25
1696251298387,0.024414062,-1.0127563,0.18426514,0.484375,0.640625,0.578125
1696251298446,-0.016113281,-0.99005127,0.16497803,0.8125,-0.671875,-1.171875
1696251298465,-0.053222656,-0.96295166,0.16937256,0.421875,0.484375,0.953125
1696251298529,-0.026855469,-0.9800415,0.17230225,-1.515625,1.8125,1.203125
1696251298544,-0.008056641,-0.99468994,0.19818115,-6.09375,-0.875,1.125
1696251298586,-0.015136719,-0.9956665,0.21331787,-11.75,-4.171875,-0.09375
1696251298648,-0.04711914,-0.99346924,0.24432373,-24.390625,1.609375,0.015625
1696251298665,-0.004638672,-0.93048096,0.25872803,-0.1875,9.546875,-0.71875
1696251298706,0.0063476562,-1.093811,0.199646,14.21875,-2.109375,-0.171875
1696251298746,-0.046142578,-0.96881104,0.20648193,6.46875,2.984375,1.40625
1696251298826,-0.021240234,-0.90704346,0.19818115,2.78125,0.25,1.53125
1696251298831,0.013183594,-1.0012817,0.18670654,3.671875,0.59375,-0.859375
1696251298844,0.0043945312,-1.036438,0.18719482,6.421875,3.703125,1.078125
1696251298885,-0.013916016,-0.93536377,0.12689209,5.0,0.796875,0.609375
1696251298926,-0.03955078,-0.9697876,0.1630249,2.296875,0.828125,1.71875
1696251298966,-0.013183594,-1.003479,0.168396,5.40625,1.46875,2.109375
1696251299005,0.017089844,-0.9561157,0.17767334,0.3125,-0.03125,0.484375
1696251299049,7.324219E-4,-0.97662354,0.18475342,0.203125,-2.828125,0.984375
1696251299085,-0.014160156,-0.9951782,0.13446045,2.015625,-4.265625,0.28125
1696251299125,2.4414062E-4,-0.9649048,0.1329956,5.625,-2.953125,1.015625
1696251299166,-0.00390625,-0.9692993,0.12445068,3.40625,-3.859375,0.578125
1696251299204,0.008544922,-0.95562744,0.14447021,-0.234375,-2.171875,1.125
1696251299248,0.014160156,-0.95635986,0.1239624,2.671875,-2.90625,0.09375
1696251299285,-0.007080078,-0.9221802,0.061950684,6.140625,-5.890625,-1.203125
1696251299325,-0.009521484,-0.88653564,0.023376465,10.53125,-5.09375,-2.4375
1696251299365,0.034423828,-0.9624634,0.152771,1.640625,-7.171875,4.359375
1696251299406,0.0068359375,-1.117981,0.23406982,1.078125,-3.453125,8.453125
1696251299445,0.036865234,-1.0476685,0.121520996,-1.90625,-1.75,-2.359375
1696251299486,-0.03100586,-0.972229,0.11053467,-2.5,-1.953125,-2.96875
1696251299525,-0.030273438,-0.94244385,0.117126465,-2.359375,4.515625,3.609375
1696251299565,0.026367188,-1.0188599,0.15789795,-3.046875,4.59375,1.359375
1696251299606,0.021728516,-1.0029907,0.1408081,-1.65625,-0.296875,-2.84375
1696251299649,0.008056641,-0.9805298,0.15716553,-3.453125,0.984375,-1.515625
1696251299688,-0.026611328,-0.9612427,0.13104248,-4.34375,2.71875,0.078125
1696251299726,-0.013916016,-1.0181274,0.16522217,-4.796875,0.90625,-1.390625
1696251299766,9.765625E-4,-1.0020142,0.16595459,-3.609375,2.15625,-0.546875
1696251299806,0.008056641,-0.9500122,0.15838623,-3.4375,0.8125,-0.8125
1696251299846,-0.012939453,-0.9776001,0.15545654,-4.953125,1.140625,-0.4375
1696251299888,-0.021972656,-1.0029907,0.18597412,-4.484375,-1.0625,1.5
1696251299926,0.028564453,-0.9871216,0.184021,-3.765625,1.359375,0.578125
1696251299966,0.0034179688,-0.99298096,0.19085693,-4.640625,-0.125,0.0625
1696251300005,-0.025634766,-0.95147705,0.22283936,-6.875,-0.46875,1.421875
1696251300044,-0.020263672,-0.9990845,0.2645874,-6.234375,0.40625,0.484375
1696251300086,-0.020019531,-0.98565674,0.2514038,-11.3125,4.828125,1.453125
1696251300127,0.0087890625,-0.94976807,0.19500732,-6.203125,1.859375,1.421875
1696251300144,0.047607422,-1.008606,0.22210693,2.296875,-1.875,0.828125
1696251300186,0.018066406,-0.9907837,0.21209717,3.328125,3.734375,0.6875
1696251300226,0.015380859,-0.9331665,0.17913818,1.234375,-2.171875,2.3125
1696251300269,0.010253906,-0.96051025,0.21551514,2.640625,-6.125,2.296875
1696251300327,-0.03100586,-1.0496216,0.19915771,4.09375,0.359375,3.984375
1696251300345,0.04296875,-0.96295166,0.2086792,2.3125,1.984375,1.390625
1696251300391,0.038330078,-0.925354,0.21160889,1.828125,-5.65625,2.515625
1696251300449,0.044677734,-0.98394775,0.1876831,-0.046875,-1.703125,2.203125
1696251300466,0.0063476562,-0.9902954,0.20379639,1.78125,-2.328125,0.75
1696251300507,0.0,-0.9636841,0.18475342,2.140625,-1.0,-1.328125
1696251300566,0.018554688,-0.96661377,0.20648193,1.640625,1.390625,0.515625
1696251300586,0.016601562,-0.99176025,0.13861084,3.703125,-0.09375,0.5
1696251300649,0.052490234,-0.9373169,0.17474365,5.09375,0.328125,0.0
1696251300665,0.072021484,-0.93634033,0.17425537,4.453125,-3.578125,0.5625
1696251300725,0.0126953125,-0.95635986,0.109313965,9.71875,-7.34375,-0.9375
1696251300765,0.0087890625,-0.93634033,0.093933105,7.046875,-3.234375,-2.328125
1696251300786,0.028564453,-0.92388916,0.2020874,4.890625,-3.96875,-0.015625
1696251300825,-0.037597656,-1.0886841,0.20648193,3.484375,-0.53125,5.46875
1696251300890,0.06689453,-1.0278931,0.1642456,-1.453125,3.828125,-3.125
1696251300925,0.023925781,-0.9710083,0.16107178,-2.3125,2.421875,-5.671875
1696251300946,0.0024414062,-0.98321533,0.11956787,-0.296875,5.84375,1.40625
1696251300985,0.012207031,-0.99053955,0.14691162,0.703125,5.953125,1.421875
1696251301026,0.061767578,-1.0005493,0.15716553,1.234375,3.609375,-0.53125
1696251301069,0.044189453,-0.9817505,0.15472412,1.4375,2.75,0.28125
1696251301127,0.008544922,-0.97442627,0.14129639,-1.828125,1.734375,0.921875
1696251301146,0.017578125,-0.98101807,0.14666748,-0.140625,0.53125,-0.453125
1696251301186,0.03125,-0.9956665,0.14984131,-1.90625,-0.375,0.046875
1696251301247,0.01171875,-0.9871216,0.1605835,-2.234375,-0.421875,-0.453125
1696251301266,0.0021972656,-0.9763794,0.15423584,-2.703125,-0.140625,-0.078125
1696251301325,0.0041503906,-0.96954346,0.152771,-1.0625,-0.046875,-0.484375
1696251301365,0.010253906,-1.0025024,0.14935303,-0.34375,-0.109375,0.953125
1696251301385,0.0056152344,-0.98443604,0.1720581,-0.328125,0.5625,-0.3125
1696251301425,0.012939453,-0.96417236,0.15374756,-1.03125,-1.296875,0.09375
1696251301447,0.0126953125,-0.99053955,0.18572998,0.984375,0.140625,-0.828125
1696251301489,2.4414062E-4,-0.9885864,0.16864014,-2.171875,0.34375,0.21875
1696251301525,0.012207031,-0.99468994,0.20941162,0.546875,4.0,-2.203125
1696251301565,-0.0026855469,-0.9680786,0.1593628,-0.890625,-3.71875,1.078125
1696251301606,-0.0029296875,-0.9890747,0.15057373,-4.46875,-4.40625,-1.359375
1696251301646,0.016601562,-0.97125244,0.17645264,-9.609375,1.359375,-0.78125
1696251301689,0.013916016,-0.97052,0.16448975,-1.421875,0.78125,1.578125
1696251301725,0.0073242188,-1.0186157,0.1930542,2.78125,-3.890625,1.75
1696251301766,-0.013916016,-0.98809814,0.16107178,1.4375,-0.21875,1.53125
1696251301807,0.014160156,-1.0022583,0.15814209,9.5625,1.328125,0.3125
1696251301845,0.041992188,-0.96881104,0.17132568,5.75,-2.53125,0.828125
1696251301888,0.045410156,-0.9351196,0.16278076,3.453125,-4.765625,1.921875
1696251301926,0.013671875,-0.986145,0.14666748,0.828125,-3.4375,1.09375
1696251301967,-0.018554688,-1.0029907,0.16497803,-2.90625,-4.171875,0.078125
1696251302006,0.010253906,-0.9956665,0.16131592,-1.609375,-3.328125,0.109375
1696251302046,0.03466797,-0.9578247,0.12420654,1.828125,-2.796875,-0.296875
1696251302087,0.029541016,-0.9854126,0.15081787,3.609375,-3.25,1.21875
1696251302126,0.011962891,-0.95196533,0.11419678,3.359375,-1.8125,0.75
1696251302166,0.044677734,-0.9378052,0.06732178,8.984375,-2.265625,-0.28125
1696251302207,0.05810547,-0.9019165,0.081726074,6.78125,-4.640625,0.609375
1696251302247,0.021728516,-0.9470825,0.14178467,-0.1875,-6.59375,5.21875
1696251302286,-0.0068359375,-1.1155396,0.20135498,2.4375,-4.0,6.375
1696251302326,0.05078125,-1.0183716,0.14324951,-1.953125,0.90625,-3.03125
1696251302366,0.01928711,-0.9546509,0.09906006,-6.953125,-1.328125,-4.65625
1696251302405,0.012451172,-0.9937134,0.13665771,-2.5,5.09375,1.34375
1696251302446,0.0234375,-1.0117798,0.15447998,-4.375,3.3125,0.8125
1696251302491,0.03173828,-0.9812622,0.15374756,-3.5,0.546875,-2.84375
1696251302525,0.0390625,-0.96099854,0.14251709,-3.296875,3.109375,-1.984375
1696251302567,0.021972656,-0.9741821,0.16473389,-4.015625,1.875,-0.34375
1696251302606,0.017822266,-1.0127563,0.1593628,-4.25,-0.046875,-0.84375
1696251302648,0.004638672,-0.99713135,0.17547607,-3.140625,-0.328125,-1.65625
1696251302686,0.0034179688,-0.95928955,0.16546631,-4.1875,-0.515625,0.53125
1696251302746,-0.0056152344,-0.9771118,0.1708374,-3.546875,-0.796875,0.015625
1696251302766,0.0075683594,-0.98028564,0.18109131,-2.796875,1.1875,0.234375
1696251302785,0.014160156,-0.98760986,0.18060303,-1.328125,0.828125,-0.671875
1696251302827,0.020996094,-0.9837036,0.18743896,-2.546875,1.234375,-0.40625
1696251302887,7.324219E-4,-0.9673462,0.20550537,-4.109375,-1.5,-0.8125
1696251302903,-0.0146484375,-0.96954346,0.19989014,-1.625,0.75,0.15625
1696251302948,-0.0021972656,-1.0093384,0.22845459,-5.859375,2.1875,-1.3125
1696251302986,0.030761719,-0.9871216,0.2555542,-8.1875,4.046875,-0.140625
1696251303026,-0.033935547,-0.9468384,0.17767334,-0.234375,-0.34375,0.875
1696251303066,-0.0048828125,-1.0130005,0.20135498,2.234375,-0.046875,-0.21875
1696251303106,0.046875,-0.9541626,0.21551514,-1.0625,-0.171875,0.59375
1696251303167,0.022949219,-0.9729614,0.19720459,-1.6875,-2.125,0.875
1696251303205,-0.014160156,-0.9937134,0.21136475,2.265625,-2.4375,1.265625
1696251303225,0.008300781,-1.005188,0.21160889,0.828125,-1.390625,1.453125
1696251303265,0.005859375,-0.96051025,0.19110107,0.71875,-1.078125,0.0
1696251303307,0.018066406,-0.9714966,0.20965576,2.09375,0.09375,0.296875
1696251303346,0.015380859,-0.9710083,0.2074585,2.484375,-2.6875,1.625
1696251303389,0.0024414062,-1.0044556,0.20184326,0.25,-1.0,1.21875
1696251303426,0.010498047,-0.9729614,0.18450928,0.34375,-2.3125,-0.375
1696251303489,0.01977539,-0.9607544,0.20404053,1.3125,0.265625,0.65625
1696251303505,0.030273438,-0.96881104,0.19573975,1.234375,-2.46875,0.671875
1696251303566,0.012939453,-0.9578247,0.18475342,3.828125,-2.484375,0.75
1696251303585,0.0061035156,-0.928772,0.109069824,10.5625,-3.375,1.109375
1696251303627,0.018310547,-0.93829346,0.08465576,16.25,-6.28125,1.109375
1696251303666,0.056152344,-0.91070557,0.14984131,8.09375,-5.734375,1.75
1696251303706,-0.023925781,-0.98101807,0.18377686,2.078125,-8.984375,6.140625
1696251303765,-9.765625E-4,-1.0859985,0.18841553,-2.453125,-1.703125,5.96875
1696251303784,0.06567383,-1.0122681,0.15838623,-3.796875,1.828125,-3.265625
1696251303827,0.008544922,-0.9680786,0.14813232,-3.59375,1.4375,-2.6875
1696251303865,0.016601562,-0.9746704,0.14300537,-2.578125,5.234375,2.578125
1696251303906,0.041503906,-0.9944458,0.18890381,-5.078125,2.96875,0.0
1696251303945,0.05126953,-0.9915161,0.1762085,-3.265625,1.625,-3.28125
1696251303987,0.029052734,-0.9776001,0.17718506,-2.34375,2.046875,-1.46875
1696251304026,0.017822266,-0.96173096,0.1486206,-3.15625,1.078125,-0.609375
1696251304066,0.030273438,-0.9866333,0.18695068,-3.171875,1.203125,-1.203125
1696251304085,0.026367188,-0.9898071,0.17645264,-2.09375,0.484375,-0.4375
1696251304127,0.01977539,-0.9602661,0.20111084,-1.734375,0.953125,-0.8125
1696251304166,4.8828125E-4,-0.9663696,0.17401123,-3.359375,-1.8125,-0.6875
1696251304207,0.0073242188,-1.0112915,0.20526123,-2.09375,0.15625,-0.5
1696251304253,0.021972656,-0.96954346,0.19891357,-3.171875,1.78125,-1.171875
1696251304286,0.0031738281,-0.96832275,0.19647217,-3.21875,-0.765625,-1.40625
1696251304326,-0.0061035156,-0.9819946,0.22454834,-4.796875,0.734375,0.109375
1696251304365,0.0078125,-0.98883057,0.23406982,-1.78125,0.6875,-1.8125
1696251304407,-0.0029296875,-0.9976196,0.2374878,-9.515625,-2.578125,-1.296875
1696251304446,0.014404297,-0.9336548,0.27386475,-6.9375,3.46875,-0.8125
1696251304486,0.041748047,-0.9644165,0.2423706,-5.0625,1.484375,-0.1875
1696251304526,0.01171875,-1.0061646,0.19940186,-3.375,-0.21875,0.640625
1696251304566,0.0041503906,-0.9656372,0.22210693,1.453125,-0.953125,1.4375
1696251304607,0.010498047,-0.9690552,0.2387085,2.796875,-1.359375,1.40625
1696251304649,0.013183594,-0.99005127,0.23895264,1.71875,-0.609375,1.09375
1696251304686,0.014160156,-0.9780884,0.23504639,3.828125,-1.671875,0.734375
1696251304726,0.0087890625,-0.9746704,0.22845459,1.71875,-3.140625,1.203125
1696251304766,0.0075683594,-0.9746704,0.22015381,1.921875,-2.84375,0.125
1696251304807,0.005126953,-0.96832275,0.2177124,1.328125,-1.5,0.03125
1696251304845,0.025878906,-0.9776001,0.25579834,6.734375,5.78125,-1.078125
1696251304884,-7.324219E-4,-0.9902954,0.20233154,0.796875,-0.703125,0.328125
1696251304925,-0.0061035156,-0.9612427,0.17010498,2.828125,-0.34375,1.46875
1696251304965,0.029052734,-0.94366455,0.20111084,4.15625,-2.1875,0.203125
1696251305006,0.022216797,-0.97735596,0.21307373,2.03125,-3.03125,0.140625
1696251305045,0.009765625,-0.97076416,0.17352295,0.515625,-4.265625,0.15625
1696251305085,-0.0029296875,-0.944397,0.16229248,5.015625,-4.359375,-0.25
1696251305126,-7.324219E-4,-0.9380493,0.09222412,13.25,-9.640625,-2.046875
1696251305165,0.06713867,-0.911438,0.15447998,3.671875,-5.03125,-0.53125
1696251305227,-0.022216797,-0.99176025,0.24139404,1.328125,-6.15625,7.234375
1696251305244,0.029052734,-1.0681763,0.23699951,-0.796875,-1.21875,1.78125
1696251305286,-0.00390625,-0.9885864,0.20013428,-4.890625,-0.4375,-5.65625
1696251305325,-0.018798828,-0.9807739,0.19012451,-4.484375,2.640625,-2.6875
1696251305366,7.324219E-4,-0.9902954,0.16253662,-5.75,3.359375,-0.484375
1696251305406,0.040039062,-0.98687744,0.19744873,-4.703125,1.765625,-4.25
1696251305448,0.041015625,-0.97540283,0.20159912,-2.71875,2.328125,-3.40625
1696251305465,-0.01171875,-0.9956665,0.19403076,-2.9375,1.5,0.578125
1696251305527,-0.035888672,-0.9627075,0.21063232,-3.984375,-0.84375,-0.484375
1696251305545,-0.011962891,-0.99346924,0.21356201,-2.015625,0.765625,-0.671875
1696251305587,0.0021972656,-0.97613525,0.2189331,-1.453125,-0.09375,1.21875
1696251305627,0.01171875,-0.986145,0.21868896,-0.140625,-1.765625,0.125
1696251305668,2.4414062E-4,-0.9656372,0.22235107,-0.984375,-0.6875,0.265625
1696251305709,-0.007080078,-0.9741821,0.20501709,0.703125,-1.9375,0.515625
1696251305746,-0.016357422,-0.9771118,0.21356201,0.6875,-0.53125,0.796875
1696251305789,-0.027832031,-0.9651489,0.22161865,0.359375,0.0625,0.9375
1696251305826,-0.014404297,-0.97076416,0.21502686,-0.71875,0.625,-0.375
1696251305867,-0.018066406,-0.9758911,0.2296753,-2.09375,0.625,0.21875
1696251305906,-0.0234375,-0.97125244,0.2387085,-1.03125,1.125,0.875
1696251305970,-0.0029296875,-1.0210571,0.27264404,-3.265625,-2.328125,0.90625
1696251305984,-0.01953125,-0.97003174,0.2374878,-13.796875,5.5,0.140625
1696251306049,0.022949219,-0.9529419,0.23577881,-6.296875,5.78125,-0.625
1696251306065,0.032470703,-0.9805298,0.23602295,3.40625,1.5,1.40625
1696251306107,0.012207031,-0.98565674,0.2411499,5.78125,-0.484375,1.703125
1696251306169,-0.02709961,-0.9651489,0.23187256,4.234375,-3.796875,1.390625
1696251306206,-0.024414062,-0.97613525,0.22161865,1.765625,-2.359375,0.625
1696251306246,-0.0048828125,-1.0061646,0.22161865,2.46875,1.484375,0.546875
1696251306264,0.03125,-0.954895,0.21307373,1.609375,1.453125,0.4375
1696251306306,0.016845703,-0.9673462,0.21795654,1.765625,-1.890625,0.765625
1696251306348,-0.0043945312,-0.9907837,0.21746826,3.203125,-2.59375,0.484375
1696251306387,-0.0012207031,-0.98760986,0.22113037,2.09375,0.109375,0.40625
1696251306426,0.012451172,-0.95758057,0.20501709,-0.46875,-2.265625,0.0
1696251306469,0.01953125,-0.9590454,0.20379639,1.40625,-0.5,0.453125
1696251306506,0.020263672,-0.96417236,0.20574951,1.046875,-3.390625,1.078125
1696251306569,0.001953125,-0.95880127,0.1828003,4.359375,-3.8125,0.53125
1696251306585,0.0036621094,-0.93634033,0.13006592,9.375,-4.65625,-0.25
1696251306626,0.008300781,-0.92388916,0.089782715,15.703125,-9.4375,-1.53125
1696251306686,0.07495117,-0.8689575,0.19598389,4.5625,-5.859375,2.09375
1696251306705,-0.034423828,-1.0545044,0.23822021,1.828125,-2.796875,6.203125
1696251306725,-0.0029296875,-1.0877075,0.18475342,-1.28125,-0.5,-0.328125
1696251306766,0.018798828,-0.9663696,0.18670654,-4.765625,-0.625,-4.78125
1696251306807,-0.0075683594,-0.9871216,0.14324951,-4.625,1.46875,-1.078125
1696251306849,0.015136719,-0.98150635,0.20452881,-2.6875,3.03125,1.125
1696251306889,0.01928711,-0.97735596,0.19622803,-2.875,-2.328125,-1.859375
1696251306927,0.007080078,-0.9627075,0.17718506,-3.890625,-0.09375,-1.765625
1696251306968,-0.02758789,-1.0132446,0.1906128,-1.515625,0.5,0.4375
1696251307006,-0.0078125,-0.96051025,0.19793701,-4.96875,2.078125,-0.703125
1696251307048,0.017089844,-0.9866333,0.19769287,-1.4375,1.046875,-2.953125
1696251307087,-0.0078125,-0.975647,0.21746826,-3.359375,3.046875,1.0
1696251307129,-0.010009766,-0.9883423,0.21209717,-3.09375,-0.734375,-0.3125
1696251307167,-0.011474609,-0.95562744,0.2164917,-4.109375,0.125,-0.578125
1696251307206,-0.011230469,-0.9873657,0.21063232,-0.5625,0.484375,-1.328125
1696251307247,-0.008544922,-0.98272705,0.23382568,-1.875,0.453125,0.5
1696251307284,-0.012939453,-0.9570923,0.23895264,-5.15625,-1.125,0.125
1696251307324,-0.029541016,-0.9859009,0.24407959,-7.15625,0.96875,-0.125
1696251307366,0.0048828125,-0.987854,0.28729248,-15.015625,2.40625,-0.59375
1696251307407,0.007080078,-0.9373169,0.28216553,-1.96875,7.5,0.15625
1696251307449,-0.032714844,-0.9890747,0.23016357,4.015625,6.546875,0.671875
1696251307489,-0.02758789,-0.97442627,0.22113037,-0.421875,1.34375,2.453125
1696251307526,0.022460938,-0.9470825,0.24920654,3.21875,-0.84375,1.234375
1696251307566,0.05419922,-0.99786377,0.25531006,2.03125,-1.0625,-1.796875
1696251307607,0.0073242188,-0.9697876,0.24725342,2.71875,-2.46875,-0.453125
1696251307646,-0.030761719,-0.98028564,0.22039795,0.5,-2.5625,2.046875
1696251307688,-0.018066406,-0.9678345,0.2189331,2.828125,0.078125,0.125
1696251307728,0.008544922,-0.9690552,0.21331787,1.65625,0.203125,-0.671875
1696251307766,0.012939453,-0.99468994,0.24188232,3.546875,2.140625,-0.515625
1696251307807,-0.011474609,-0.96954346,0.21673584,0.828125,1.890625,-1.40625
1696251307847,-0.028564453,-0.9741821,0.2333374,-0.375,3.90625,-0.421875
1696251307887,-0.0053710938,-0.95684814,0.21551514,-0.890625,-1.71875,1.0625
1696251307927,0.016601562,-0.956604,0.22943115,1.609375,-1.703125,0.8125
1696251307966,0.0107421875,-0.95758057,0.2345581,0.640625,-4.140625,0.859375
1696251308006,-0.006591797,-0.9651489,0.22259521,-1.859375,-2.84375,0.265625
1696251308025,0.0078125,-0.93829346,0.16253662,1.875,-4.515625,-0.140625
1696251308067,-0.015380859,-0.9536743,0.11981201,15.28125,-8.828125,-0.609375
1696251308127,0.05078125,-0.9043579,0.1317749,15.75,-10.46875,0.453125
1696251308145,-0.010253906,-0.94854736,0.25579834,-0.390625,-6.96875,9.171875
1696251308186,-0.039794922,-1.0838013,0.24041748,-1.96875,-4.875,5.53125
1696251308226,0.030273438,-0.99102783,0.21820068,-6.484375,0.046875,-2.984375
1696251308288,-2.4414062E-4,-0.98101807,0.18450928,-3.640625,-1.6875,-0.703125
1696251308327,0.0146484375,-0.9614868,0.19866943,-5.390625,3.734375,2.0625
1696251308345,-0.0026855469,-1.0161743,0.24603271,-2.90625,-0.765625,-1.546875
1696251308406,-0.004638672,-0.9368286,0.22039795,-3.765625,1.9375,-1.578125
1696251308425,0.01171875,-0.97442627,0.21453857,-2.25,2.78125,-0.859375
1696251308466,2.4414062E-4,-0.9807739,0.2267456,-2.828125,2.84375,-0.921875
1696251308507,2.4414062E-4,-0.99298096,0.21453857,-2.734375,0.578125,-1.640625
1696251308547,0.0036621094,-0.97857666,0.23895264,-1.859375,0.328125,-0.5
1696251308587,-0.006591797,-0.9553833,0.22943115,-1.375,-0.4375,-0.578125
1696251308626,-0.011474609,-0.96295166,0.23699951,-1.359375,0.984375,-0.703125
1696251308690,-0.021972656,-0.98687744,0.24822998,-1.578125,-0.734375,-0.203125
1696251308706,-0.011474609,-0.9776001,0.24212646,-4.65625,-1.40625,0.15625
1696251308766,-0.0012207031,-0.9507446,0.24456787,-3.5625,0.46875,1.015625
1696251308787,0.0034179688,-0.9927368,0.2579956,-1.25,-1.078125,0.171875
1696251308825,-0.033203125,-0.98565674,0.2616577,-1.953125,0.125,0.296875
1696251308867,-0.022460938,-0.9663696,0.25872803,-0.53125,1.0,0.625
1696251308907,0.005859375,-0.96661377,0.29730225,-2.921875,3.5625,-0.15625
1696251308969,-0.0029296875,-0.9710083,0.26849365,-9.734375,4.34375,-1.578125
1696251308985,-0.037109375,-0.96539307,0.26312256,-4.765625,6.234375,-2.625
1696251309025,0.009277344,-0.97247314,0.2543335,3.390625,4.5625,-1.65625
1696251309089,0.034179688,-0.97198486,0.25164795,4.125,0.984375,-0.21875
1696251309105,-0.0126953125,-0.972229,0.26141357,6.234375,1.40625,0.453125
1696251309168,-0.011474609,-0.9690552,0.26312256,5.578125,-0.328125,-0.0625
1696251309186,-0.0026855469,-0.9710083,0.24456787,3.09375,-0.9375,1.28125
1696251309226,-0.0041503906,-0.98516846,0.24432373,1.78125,-1.25,1.34375
1696251309296,-0.0053710938,-0.975647,0.24041748,4.421875,-2.265625,0.515625
1696251309306,-0.008300781,-0.97198486,0.20794678,5.78125,-1.328125,0.4375
1696251309325,0.013671875,-0.98638916,0.21966553,9.25,3.234375,-0.75
1696251309367,0.0029296875,-0.9492798,0.20111084,2.875,3.203125,-0.234375
1696251309405,-0.0075683594,-0.94537354,0.18841553,-1.171875,-0.578125,1.953125
1696251309447,-0.018554688,-0.9963989,0.20843506,1.71875,-3.34375,0.453125
1696251309486,0.010009766,-0.93707275,0.20916748,-1.3125,-5.34375,0.359375
1696251309527,9.765625E-4,-0.94659424,0.14959717,1.921875,-5.828125,1.53125
1696251309570,-0.05419922,-0.9612427,0.10443115,18.046875,-12.078125,-1.578125
1696251309606,0.06518555,-0.89141846,0.17230225,4.5625,-11.796875,2.921875
1696251309648,-0.03881836,-0.98321533,0.25238037,-0.96875,-9.375,10.546875
1696251309684,0.022949219,-1.1069946,0.23529053,-3.515625,-0.546875,-1.609375
1696251309726,-0.0031738281,-0.97125244,0.18719482,-3.46875,-1.234375,-5.671875
1696251309766,-0.013916016,-0.9661255,0.16351318,-4.484375,1.9375,0.796875
1696251309806,0.010986328,-0.986145,0.23358154,-3.078125,2.5,1.125
1696251309848,0.011230469,-1.0081177,0.20281982,-2.34375,-1.1875,-1.484375
1696251309886,0.01977539,-0.94317627,0.20257568,-0.921875,1.140625,-0.359375
1696251309927,-0.0053710938,-0.98223877,0.19207764,-2.5625,0.265625,-0.0625
1696251309966,-0.028076172,-0.9834595,0.19696045,-0.484375,-0.46875,-0.609375
1696251310006,0.008056641,-0.98321533,0.20452881,-2.921875,1.34375,-0.53125
1696251310045,0.0126953125,-1.0071411,0.20452881,-0.578125,0.625,-1.171875
1696251310087,-0.013916016,-0.9324341,0.22625732,-3.75,-0.984375,0.140625
1696251310126,-0.0126953125,-0.975647,0.20037842,0.015625,0.203125,-0.84375
1696251310166,-0.010986328,-1.0073853,0.22772217,-1.140625,1.4375,0.140625
1696251310206,-0.026123047,-0.99591064,0.23187256,-0.21875,-0.3125,-1.25
1696251310247,-0.040527344,-0.95269775,0.21990967,-3.25,-0.34375,-0.046875
1696251310288,-0.010986328,-0.9663696,0.24505615,-2.828125,3.703125,-0.609375
1696251310330,-0.012451172,-1.0215454,0.27386475,-6.0,1.71875,-0.703125
1696251310366,-0.030517578,-0.942688,0.25823975,-11.15625,6.71875,-0.671875
1696251310406,0.03125,-0.9421997,0.25604248,-1.890625,5.8125,0.84375
1696251310445,0.009765625,-1.015686,0.22088623,2.578125,-0.390625,-0.09375
1696251310486,-0.021240234,-0.98809814,0.23040771,1.71875,-0.359375,0.890625
1696251310526,-0.020507812,-0.95269775,0.22894287,5.296875,2.875,0.4375
1696251310566,0.0024414062,-0.99835205,0.24749756,2.875,3.375,1.375
1696251310608,0.011474609,-0.97857666,0.23577881,4.59375,0.234375,0.0625
1696251310649,0.016357422,-0.96417236,0.21942139,4.859375,0.375,0.65625
1696251310665,-0.015625,-0.95635986,0.21014404,6.734375,1.03125,1.609375
1696251310707,-0.027832031,-0.97320557,0.21063232,4.0,0.421875,1.3125
1696251310746,-0.009521484,-0.97662354,0.19598389,0.203125,0.671875,-0.171875
1696251310810,-0.0012207031,-0.9541626,0.20477295,4.34375,1.265625,-1.046875
1696251310824,-0.0012207031,-0.96832275,0.1828003,1.296875,-1.5,0.484375
1696251310869,-0.0041503906,-0.9678345,0.1954956,1.75,-1.03125,-0.34375
1696251310907,-0.0017089844,-0.9871216,0.19012451,-0.890625,-4.015625,-0.078125
1696251310947,0.0048828125,-0.93634033,0.14129639,4.984375,-7.5625,-0.96875
1696251311008,0.0021972656,-0.91412354,0.0914917,10.578125,-9.109375,-1.078125
1696251311025,0.045166016,-0.90997314,0.14398193,8.765625,-7.140625,-1.578125
1696251311066,-0.05810547,-0.97857666,0.16668701,-0.4375,-8.21875,3.75
1696251311110,-0.01953125,-1.0862427,0.26776123,2.53125,-2.078125,4.9375
1696251311146,0.026367188,-0.99053955,0.1852417,1.203125,2.21875,-2.734375
1696251311185,0.0107421875,-0.973938,0.13885498,-2.921875,0.796875,-2.953125
1696251311249,-9.765625E-4,-0.99346924,0.17913818,-1.9375,2.421875,0.421875
1696251311286,-0.028076172,-1.015686,0.152771,-5.5,-2.71875,0.734375
1696251311304,0.0061035156,-0.9824829,0.1852417,-3.5625,0.3125,-2.359375
1696251311348,0.0012207031,-0.9561157,0.16326904,-2.28125,-0.265625,-0.71875
1696251311387,-0.01171875,-0.9944458,0.1828003,-4.59375,1.703125,0.203125
1696251311428,-0.028320312,-0.9951782,0.20477295,-2.9375,-0.625,-1.53125
1696251311468,-0.017333984,-1.000061,0.20159912,-2.03125,0.9375,-1.09375
1696251311529,-0.016601562,-0.9312134,0.17938232,-0.046875,0.53125,0.015625
1696251311544,-0.008056641,-0.9656372,0.18133545,-1.359375,-0.015625,1.0625
1696251311606,-0.01586914,-0.99786377,0.21209717,-0.46875,0.5625,0.59375
1696251311647,-0.026855469,-1.0071411,0.21795654,-1.453125,0.640625,0.453125
1696251311689,-0.024414062,-0.95098877,0.18963623,-2.109375,0.546875,-0.875
1696251311707,-0.0021972656,-0.95196533,0.20501709,-1.703125,1.609375,1.0
1696251311747,0.0026855469,-1.0352173,0.2243042,-2.546875,-1.0,1.015625
1696251311786,-0.02368164,-0.98809814,0.29364014,-6.0625,0.40625,-0.96875
1696251311825,-0.06738281,-0.9385376,0.22796631,-7.984375,5.203125,-0.3125
1696251311866,0.013916016,-0.99713135,0.21820068,-0.859375,7.09375,-0.625
1696251311906,0.053710938,-0.9985962,0.21844482,1.078125,-3.640625,-1.015625
1696251311947,-0.0068359375,-0.9573364,0.20526123,4.09375,-2.078125,0.734375
1696251311963,-0.064941406,-0.9668579,0.19329834,1.390625,1.171875,1.5625
1696251312008,-0.040283203,-0.98516846,0.2333374,2.96875,1.5625,1.71875
1696251312048,-0.0041503906,-0.99053955,0.2243042,1.578125,0.015625,2.015625
1696251312086,0.005859375,-0.98223877,0.21331787,-0.359375,-2.5625,1.53125
1696251312128,-0.017578125,-0.96051025,0.19012451,0.25,-2.125,0.65625
1696251312168,-0.009033203,-0.9729614,0.20965576,-1.140625,-0.140625,1.375
1696251312212,0.025146484,-0.96417236,0.21820068,4.203125,-0.03125,1.28125
1696251312245,0.0036621094,-0.9866333,0.21942139,0.546875,-1.75,1.953125
1696251312285,-0.010986328,-0.975647,0.20892334,0.875,-2.9375,0.21875
1696251312327,-9.765625E-4,-0.958313,0.19158936,0.171875,-3.328125,0.90625
1696251312366,0.0078125,-0.93341064,0.17645264,5.546875,-3.125,1.078125
1696251312407,0.0063476562,-0.9480591,0.15057373,5.9375,-5.5,1.359375
1696251312446,-0.020263672,-0.960022,0.09564209,14.609375,-7.453125,0.53125
1696251312488,0.009277344,-0.90948486,0.13641357,5.484375,-5.734375,3.1875
1696251312528,0.0021972656,-0.9678345,0.19573975,2.375,-2.828125,4.375
1696251312566,0.013671875,-1.0730591,0.2164917,0.359375,2.515625,2.203125
1696251312609,0.03149414,-0.9902954,0.18157959,-1.296875,1.5,-4.390625
1696251312648,-0.012207031,-0.9710083,0.13812256,-3.90625,-0.375,-2.109375
1696251312687,0.022216797,-1.0012817,0.18988037,-2.375,4.78125,0.0
1696251312726,-9.765625E-4,-0.9949341,0.16009521,-4.28125,0.265625,-1.109375
1696251312767,0.01928711,-0.95758057,0.19158936,-0.46875,1.578125,-3.0625
1696251312808,-0.0036621094,-0.9837036,0.15863037,-2.984375,0.640625,0.765625
1696251312846,-0.010986328,-1.0015259,0.21038818,-1.765625,2.046875,-1.21875
1696251312886,-0.00390625,-1.0005493,0.19940186,-0.171875,3.359375,-2.203125
1696251312928,-0.021728516,-0.97442627,0.17010498,-0.265625,-0.015625,-0.640625
1696251312969,-0.011230469,-0.9505005,0.17547607,-1.71875,0.5,2.734375
1696251313007,0.012451172,-0.9817505,0.19793701,-1.8125,0.9375,0.390625
1696251313047,0.0061035156,-0.986145,0.19158936,-4.234375,1.265625,-0.3125
1696251313086,-0.0024414062,-1.0007935,0.20257568,-1.453125,1.640625,-0.171875
1696251313127,-0.0073242188,-0.9536743,0.21868896,-3.578125,0.28125,0.265625
1696251313166,0.005859375,-1.0142212,0.21575928,-0.34375,4.234375,-1.65625
1696251313206,0.013671875,-0.9890747,0.25701904,-1.1875,6.5,-1.578125
1696251313269,-0.0056152344,-0.98150635,0.19329834,-0.6875,1.265625,-1.65625
1696251313285,-0.03173828,-0.97076416,0.17816162,-0.890625,3.0625,0.890625
1696251313305,0.01928711,-0.9505005,0.21331787,-0.40625,-0.53125,1.9375
1696251313347,0.020751953,-0.9829712,0.18670654,-1.375,-6.078125,3.578125
1696251313385,-0.0075683594,-0.98223877,0.18450928,1.46875,-2.765625,2.609375
1696251313447,-0.013671875,-1.0032349,0.2111206,2.0,-2.203125,2.421875
1696251313485,-0.0061035156,-0.98638916,0.19036865,0.390625,-3.40625,1.46875
1696251313528,-0.0056152344,-0.96295166,0.20501709,0.734375,-0.125,1.4375
1696251313545,0.011230469,-0.9717407,0.19940186,0.53125,-1.0625,0.5
1696251313585,0.0146484375,-0.97320557,0.21551514,-0.6875,-0.8125,0.03125
1696251313626,0.0012207031,-1.005188,0.19403076,-1.53125,-2.203125,0.40625
1696251313666,0.016601562,-0.95196533,0.18743896,2.34375,0.5625,0.6875
1696251313706,0.016845703,-0.97320557,0.20306396,-1.703125,0.5625,2.28125
1696251313746,0.024658203,-0.9578247,0.19744873,2.34375,-2.5625,0.140625
1696251313808,0.0048828125,-0.98443604,0.19012451,-0.578125,-5.078125,1.390625
1696251313825,0.005126953,-0.93463135,0.1564331,2.640625,-7.40625,-0.71875
1696251313867,0.020751953,-0.95977783,0.13690186,13.109375,-3.71875,-0.75
1696251313906,0.032714844,-0.88897705,0.10418701,7.90625,-4.65625,-0.71875
1696251313946,0.016113281,-0.9487915,0.19036865,7.5625,-3.46875,5.484375
1696251314008,-0.022460938,-1.0808716,0.22259521,3.296875,-2.609375,4.171875
1696251314046,0.040527344,-1.0388794,0.18157959,-0.921875,-0.21875,-1.375
1696251314065,0.007080078,-0.97052,0.14349365,-3.875,-1.125,-1.78125
1696251314107,0.018066406,-0.98931885,0.15447998,-2.890625,2.390625,0.515625
1696251314146,0.028076172,-0.97857666,0.19158936,-4.171875,0.90625,0.6875
1696251314187,0.036132812,-0.986145,0.17474365,-2.921875,-1.28125,-2.234375
1696251314226,0.005126953,-0.95318604,0.17523193,-2.484375,-0.25,-0.609375
1696251314266,-0.011230469,-0.98931885,0.15960693,-3.328125,0.375,0.875
1696251314308,2.4414062E-4,-0.9883423,0.21087646,-3.09375,1.8125,-1.9375
1696251314368,0.016357422,-0.975647,0.18475342,-1.265625,1.671875,-1.921875
1696251314384,0.015136719,-0.96710205,0.19256592,-1.53125,1.875,-0.8125
1696251314430,0.01171875,-0.97784424,0.18182373,0.4375,2.0,0.34375
1696251314466,9.765625E-4,-0.97125244,0.1954956,1.21875,1.796875,-0.265625
1696251314506,-0.013183594,-0.9841919,0.18621826,3.1875,3.421875,0.75
1696251314546,0.0056152344,-0.9763794,0.18670654,5.84375,3.75,0.84375
1696251314586,0.029052734,-0.986145,0.19403076,4.453125,3.28125,0.03125
1696251314607,-0.025390625,-0.96710205,0.18304443,5.140625,2.265625,1.140625
1696251314646,-0.01171875,-1.0186157,0.1852417,-1.03125,4.0625,1.515625
1696251314687,0.033447266,-0.9963989,0.17059326,-5.921875,1.328125,-1.34375
1696251314726,0.009521484,-0.9817505,0.1749878,-5.625,0.75,-2.0625
1696251314766,0.014160156,-0.972229,0.17523193,-1.765625,2.234375,-0.71875
1696251314808,0.010253906,-0.9973755,0.17132568,-1.890625,-1.390625,1.203125
1696251314848,0.0048828125,-0.987854,0.18865967,-3.390625,-1.4375,-0.03125
1696251314886,0.0041503906,-0.9746704,0.18670654,0.4375,0.90625,-1.09375
1696251314925,0.01171875,-0.97906494,0.18890381,3.9375,1.15625,-0.703125
1696251314966,0.008056641,-1.0073853,0.20257568,2.71875,1.703125,0.890625
1696251315005,0.01586914,-0.9602661,0.16864014,1.40625,1.3125,-1.5
1696251315046,0.013183594,-0.95928955,0.15545654,-1.203125,-0.546875,-1.390625
1696251315088,0.02709961,-0.96954346,0.17132568,-1.0625,-3.984375,0.03125
1696251315127,0.0078125,-0.99420166,0.18304443,-1.046875,-4.921875,0.71875
1696251315166,-0.01586914,-0.98687744,0.17254639,0.671875,-5.84375,1.1875
1696251315210,0.010009766,-0.954895,0.16668701,0.28125,-3.390625,1.34375
1696251315245,0.017578125,-0.93341064,0.12689209,2.9375,-7.125,1.21875
1696251315287,0.0041503906,-0.9429321,0.06756592,10.796875,-11.578125,-0.921875
1696251315325,0.017089844,-0.9421997,0.13519287,10.890625,-9.1875,0.265625
1696251315367,0.013183594,-0.9072876,0.21087646,-0.71875,-10.875,5.625
1696251315405,-0.028320312,-1.086731,0.2177124,-1.34375,-6.78125,4.953125
1696251315447,0.016845703,-1.041565,0.18792725,-5.0625,1.296875,-3.984375
1696251315486,-0.0048828125,-0.9915161,0.14056396,-5.828125,-2.78125,-5.125
1696251315528,0.019042969,-0.9612427,0.16986084,-4.234375,4.15625,-0.671875
1696251315572,-0.004638672,-0.9817505,0.18011475,-5.671875,0.828125,-1.234375
1696251315605,-0.018554688,-0.97491455,0.17572021,-2.46875,-0.203125,-3.640625
1696251315646,-0.009521484,-0.9602661,0.18304443,-3.171875,2.515625,-0.484375
1696251315685,-0.0068359375,-1.0198364,0.20355225,-2.84375,1.75,-0.6875
1696251315727,-0.03100586,-0.97198486,0.19598389,-2.328125,1.828125,-1.53125
1696251315767,-0.018554688,-0.9697876,0.19110107,-1.015625,2.25,-1.359375
1696251315807,-0.0053710938,-0.97540283,0.20477295,-3.078125,1.984375,0.515625
1696251315849,0.016357422,-0.9939575,0.20721436,-2.5625,0.53125,-0.1875
1696251315885,-0.018066406,-0.96832275,0.20721436,-3.0,0.3125,-1.171875
1696251315926,-0.014160156,-0.97247314,0.23260498,-2.796875,0.359375,-0.34375
1696251315966,-0.021972656,-0.9807739,0.215271,-3.0,0.96875,-0.234375
1696251315986,-0.0021972656,-0.9788208,0.25408936,-7.59375,2.921875,-1.265625
1696251316047,0.0,-0.9854126,0.24359131,-1.40625,2.796875,-1.6875
1696251316065,-0.021240234,-0.9927368,0.22357178,-4.4375,-0.015625,-1.6875
1696251316130,-0.0390625,-0.9429321,0.19110107,-4.046875,1.03125,0.125
1696251316168,-0.0087890625,-0.9729614,0.21063232,1.28125,1.0,0.3125
1696251316185,9.765625E-4,-0.9961548,0.2514038,1.0625,-0.3125,1.09375
1696251316249,-0.017822266,-0.98516846,0.22113037,1.296875,-3.359375,-0.03125
1696251316266,-0.026855469,-0.96051025,0.22576904,1.359375,-1.359375,0.703125
1696251316327,-0.014404297,-0.97125244,0.21136475,2.328125,-0.484375,1.25
1696251316366,-0.018066406,-0.9536743,0.21673584,1.0625,-2.609375,0.25
1696251316386,-0.0146484375,-0.9937134,0.22625732,-0.109375,-1.890625,0.078125
1696251316425,-0.02319336,-0.9690552,0.215271,4.09375,-1.671875,-0.21875
1696251316468,-0.013183594,-0.9524536,0.22845459,1.78125,-1.1875,1.40625
1696251316506,-0.017822266,-0.9663696,0.19110107,2.890625,-2.25,1.015625
1696251316545,-0.033935547,-0.986145,0.19476318,2.140625,-1.09375,0.546875
1696251316609,-0.025146484,-0.9495239,0.19256592,6.75,-0.421875,0.3125
1696251316625,-0.020263672,-0.93927,0.1539917,8.484375,-1.40625,0.796875
1696251316690,-0.03173828,-0.9529419,0.09857178,16.453125,-7.0625,1.09375
1696251316726,0.049072266,-0.90216064,0.19793701,3.1875,-1.734375,4.0625
1696251316745,-0.048583984,-1.0015259,0.22283936,4.5,-6.828125,9.421875
1696251316810,0.022216797,-1.0652466,0.19671631,-0.078125,3.015625,1.890625
1696251316826,0.012939453,-1.0044556,0.16131592,-1.984375,1.625,-5.203125
1696251316867,-0.010009766,-0.9680786,0.14837646,-3.125,1.15625,-0.859375
1696251316908,-0.01953125,-0.958313,0.17010498,-3.359375,5.375,1.765625
1696251316948,-0.0017089844,-1.0281372,0.17962646,-2.890625,-1.09375,-2.84375
1696251316986,0.0107421875,-0.9871216,0.17352295,-2.640625,2.078125,-2.328125
1696251317027,-0.0036621094,-0.96881104,0.15960693,-3.078125,0.796875,-0.84375
1696251317066,-0.03125,-0.9678345,0.1876831,-3.453125,2.390625,-1.453125
1696251317107,-0.01586914,-1.0020142,0.19378662,-2.15625,0.671875,-2.484375
1696251317150,-0.016357422,-0.97540283,0.19647217,-2.703125,0.90625,-0.796875
1696251317187,-0.032226562,-0.99835205,0.17181396,-2.78125,-0.328125,0.71875
1696251317204,-0.017578125,-0.94366455,0.18255615,-3.5,0.140625,0.265625
1696251317247,0.013916016,-0.9805298,0.2074585,-0.765625,-2.09375,-1.5625
1696251317287,-0.015625,-0.9849243,0.21722412,-4.5,-0.96875,0.109375
1696251317326,-0.034423828,-0.98638916,0.23431396,-2.921875,-1.03125,-1.46875
1696251317370,-0.033691406,-0.98272705,0.23675537,-12.5625,1.359375,-2.96875
1696251317407,-0.02368164,-0.9439087,0.2255249,-13.140625,5.328125,-2.828125
1696251317447,-0.013671875,-0.972229,0.23260498,1.53125,1.359375,-2.796875
1696251317487,-0.06225586,-0.99053955,0.23309326,2.59375,3.734375,-4.28125
1696251317528,-0.080566406,-0.97906494,0.22723389,0.984375,5.734375,-1.84375
1696251317568,-0.025634766,-0.9727173,0.24066162,1.59375,3.046875,0.453125
1696251317607,0.0048828125,-0.9800415,0.2489624,7.34375,0.40625,0.140625
1696251317646,-0.053222656,-1.0134888,0.22015381,7.375,-2.296875,2.859375
1696251317687,-0.056152344,-0.9505005,0.18792725,0.71875,-1.609375,2.921875
1696251317726,-0.02709961,-0.95391846,0.21063232,0.09375,-2.078125,2.609375
1696251317766,0.011962891,-0.98028564,0.20574951,1.890625,-2.25,1.421875
1696251317806,-0.0036621094,-0.9680786,0.21746826,-0.1875,-1.203125,1.375
1696251317848,-0.04663086,-0.96881104,0.2074585,1.828125,-2.15625,0.484375
1696251317886,-0.056640625,-0.9631958,0.19940186,1.296875,-0.15625,0.171875
1696251317925,-0.026611328,-0.9690552,0.18060303,3.84375,1.125,1.03125
1696251317967,0.010498047,-0.9414673,0.15838623,5.09375,0.109375,0.359375
1696251318008,-0.016601562,-0.9343872,0.08343506,12.921875,-6.984375,0.84375
1696251318046,0.026611328,-0.9468384,0.12200928,4.03125,-7.921875,3.1875
1696251318087,-0.04663086,-0.96466064,0.2518921,3.484375,-9.8125,6.625
1696251318128,-0.025390625,-1.0755005,0.21136475,2.78125,1.90625,5.09375
1696251318168,0.01171875,-1.0237427,0.20648193,-3.34375,0.421875,-4.453125
1696251318206,-0.036376953,-0.9663696,0.15203857,-1.4375,0.5,-2.84375
1696251318246,-0.01586914,-0.94854736,0.1696167,-2.859375,3.515625,2.65625
1696251318288,0.009277344,-0.99420166,0.18743896,-3.59375,0.65625,-0.546875
1696251318328,0.0078125,-0.98272705,0.17718506,-1.671875,-1.296875,-1.375
1696251318367,-0.010986328,-0.987854,0.18157959,-1.484375,0.984375,1.125
1696251318409,-0.028808594,-0.98321533,0.17816162,-3.015625,0.71875,0.875
1696251318446,-0.022705078,-0.9849243,0.1930542,-2.109375,1.125,-1.671875
1696251318486,0.0024414062,-0.9651489,0.18939209,-2.703125,1.390625,0.125
1696251318527,-4.8828125E-4,-0.9690552,0.18914795,-3.5625,-1.375,0.421875
1696251318567,-0.04272461,-0.98883057,0.20794678,-4.3125,-0.328125,-0.84375
1696251318586,-0.037353516,-1.0252075,0.22650146,-0.75,0.25,-1.296875
1696251318648,-0.030029297,-0.94415283,0.21917725,-3.09375,2.765625,-0.265625
1696251318665,0.005859375,-0.9871216,0.24212646,-4.46875,2.515625,-1.984375
1696251318707,-0.015625,-0.9697876,0.22943115,-10.0625,3.375,1.171875
1696251318770,-0.033203125,-0.99102783,0.21502686,-5.8125,-2.6875,-0.453125
1696251318785,-0.028320312,-0.9937134,0.22723389,1.40625,-1.890625,-1.453125
1696251318826,-0.0056152344,-0.9734497,0.22650146,-0.421875,-2.125,-0.6875
1696251318890,-0.007080078,-0.9639282,0.23480225,-0.765625,-0.78125,2.625
1696251318904,-0.018798828,-0.9771118,0.22332764,3.3125,-0.328125,1.8125
1696251318971,-0.043945312,-0.98321533,0.21038818,1.15625,-1.265625,1.125
1696251318985,-0.0012207031,-0.9649048,0.2164917,5.15625,0.390625,0.65625
1696251319027,-0.0068359375,-0.9849243,0.2345581,2.03125,-0.90625,1.625
1696251319065,-0.03125,-0.9661255,0.21282959,2.15625,-1.453125,0.265625
1696251319107,-0.028564453,-0.9717407,0.21087646,1.71875,0.875,1.171875
1696251319147,-0.0061035156,-0.96295166,0.19940186,2.265625,0.421875,1.0625
1696251319189,-0.005126953,-0.98223877,0.2074585,0.96875,-0.328125,0.734375
1696251319227,-0.020996094,-0.9614868,0.18450928,2.515625,-2.09375,0.59375
1696251319267,-0.0056152344,-0.9573364,0.18890381,4.734375,-0.59375,1.375
1696251319307,-0.012207031,-0.9417114,0.12591553,8.796875,-3.703125,0.640625
1696251319346,-0.0078125,-0.9421997,0.08856201,15.6875,-8.46875,0.515625
1696251319408,0.03466797,-0.91900635,0.16815186,2.953125,-4.390625,2.640625
1696251319426,-0.061279297,-1.0244751,0.23431396,-0.203125,-7.34375,7.859375
1696251319489,0.03540039,-1.0576782,0.2345581,-1.96875,3.09375,2.046875
1696251319508,0.025878906,-0.97857666,0.17840576,-2.046875,0.09375,-5.296875
1696251319546,-0.0087890625,-0.9776001,0.15789795,-4.921875,0.921875,-0.9375
1696251319587,-0.0063476562,-0.99298096,0.18817139,-3.421875,2.421875,1.9375
1696251319629,0.0087890625,-0.98443604,0.18231201,-3.015625,-0.390625,-2.140625
1696251319665,0.009765625,-0.9768677,0.1798706,-2.484375,-1.171875,-1.71875
1696251319707,-0.00390625,-0.975647,0.18426514,-3.28125,1.21875,-0.1875
1696251319746,-0.018554688,-0.9866333,0.19622803,-2.828125,0.765625,-2.140625
1696251319787,-0.029052734,-0.9783325,0.18939209,-1.984375,0.8125,-2.0625
1696251319827,-0.010498047,-0.98321533,0.18011475,-4.375,-0.34375,-0.4375
1696251319847,-0.0087890625,-0.9697876,0.22161865,-2.046875,0.796875,-1.234375
1696251319889,-0.033691406,-0.9734497,0.19720459,-4.21875,-1.09375,-1.046875
1696251319928,-0.020751953,-0.9819946,0.22869873,-3.6875,-0.5625,-0.921875
1696251319965,-0.0146484375,-0.97491455,0.22943115,-2.28125,2.171875,-0.21875
1696251320007,-0.018066406,-1.0166626,0.26654053,-0.875,3.71875,-0.84375
1696251320046,-0.033447266,-0.9614868,0.25531006,-9.78125,3.109375,0.140625
1696251320089,-0.023925781,-0.9558716,0.21380615,-7.515625,3.203125,1.046875
1696251320126,-0.0012207031,-0.9915161,0.23480225,0.203125,-2.203125,-1.390625
1696251320166,-0.028076172,-0.9702759,0.23651123,3.375,0.59375,-0.6875
1696251320207,-0.016357422,-0.9697876,0.22088623,3.03125,0.203125,1.734375
1696251320246,-0.030029297,-0.986145,0.23284912,0.546875,-0.671875,1.328125
1696251320287,-0.030029297,-0.9678345,0.22015381,2.3125,-2.1875,-0.734375
1696251320327,-0.018554688,-0.9661255,0.22357178,2.390625,0.078125,0.609375
1696251320366,0.009033203,-0.9627075,0.24676514,1.890625,-1.078125,1.703125
1696251320407,-0.014404297,-0.9944458,0.21209717,-0.71875,-3.703125,1.578125
1696251320447,-0.028808594,-0.9607544,0.21282959,3.578125,-1.28125,-0.5
1696251320486,-0.01586914,-0.96466064,0.20233154,2.109375,-0.765625,1.234375
1696251320527,0.010986328,-0.9561157,0.21136475,4.796875,-3.859375,0.625
1696251320568,-0.019042969,-0.9795532,0.1876831,4.9375,-2.71875,0.921875
1696251320605,-0.037841797,-0.92633057,0.13861084,12.46875,-3.0,0.015625
1696251320647,-0.016357422,-0.9324341,0.042175293,15.453125,-5.9375,1.171875
1696251320688,0.048339844,-0.9067993,0.19989014,6.0,-3.046875,3.578125
1696251320726,-0.060791016,-1.0369263,0.22161865,2.828125,-6.484375,7.34375
1696251320764,0.013916016,-1.0271606,0.18060303,-2.71875,1.828125,2.703125
1696251320807,0.034423828,-0.9993286,0.17816162,-1.609375,1.625,-5.109375
1696251320846,-0.009521484,-1.0015259,0.17645264,-3.546875,0.21875,-0.59375
1696251320887,-0.011962891,-0.97442627,0.15765381,-2.765625,1.453125,0.96875
1696251320926,-0.010498047,-0.9776001,0.18988037,-2.515625,-0.03125,-1.421875
1696251320966,0.016601562,-0.9924927,0.1618042,-1.453125,-0.6875,-1.296875
1696251321007,0.0061035156,-0.9734497,0.16351318,-2.0,-0.015625,0.84375
1696251321047,-0.018310547,-0.9714966,0.17572021,-2.25,-1.734375,-0.6875
1696251321087,-0.030273438,-1.0046997,0.16107178,-2.8125,-1.234375,-0.5
1696251321129,-0.0043945312,-0.9990845,0.20159912,0.609375,0.953125,-1.703125
1696251321146,-0.029785156,-0.9487915,0.16937256,-2.53125,-0.296875,0.3125
1696251321186,-0.014404297,-0.975647,0.18231201,-3.171875,0.421875,-0.53125
1696251321229,-0.0041503906,-1.0039673,0.20916748,-3.984375,1.109375,-0.1875
1696251321265,-0.013183594,-1.0056763,0.215271,-1.671875,0.3125,-1.5
1696251321307,0.0021972656,-0.9741821,0.22381592,-8.984375,2.84375,-0.84375
1696251321348,-0.033935547,-0.9505005,0.22772217,-11.75,1.5625,-0.1875
1696251321387,-0.022705078,-0.98516846,0.21307373,-4.140625,1.0625,-0.0625
1696251321428,0.010253906,-1.0171509,0.22821045,-1.125,-0.359375,-2.734375
1696251321486,-0.011230469,-0.9631958,0.22064209,-1.875,0.390625,-0.234375
1696251321506,-0.036621094,-0.9402466,0.22161865,0.46875,-2.84375,0.984375
1696251321568,-0.0234375,-0.9898071,0.22796631,0.375,0.9375,2.921875
1696251321584,-0.01953125,-0.9883423,0.23016357,1.015625,-2.21875,0.90625
1696251321628,-0.020996094,-0.9651489,0.21795654,0.546875,-0.703125,0.8125
1696251321687,-0.011962891,-0.96710205,0.2321167,2.515625,0.34375,0.640625
1696251321728,-0.013671875,-0.9898071,0.24407959,0.21875,-0.9375,0.453125
1696251321745,-0.029052734,-0.9631958,0.21795654,1.765625,-1.75,-0.703125
1696251321787,-0.008056641,-0.9741821,0.21307373,-0.046875,0.171875,1.109375
1696251321848,-0.001953125,-0.9570923,0.2086792,0.53125,-1.625,0.609375
1696251321865,-0.018798828,-0.9710083,0.21502686,-0.15625,-2.265625,0.3125
1696251321906,-0.030029297,-0.9570923,0.17840576,5.578125,-1.859375,-0.171875
1696251321947,-0.026367188,-0.9524536,0.08905029,16.640625,-4.375,-0.625
1696251321985,0.03466797,-0.94976807,0.19012451,11.265625,-0.453125,2.21875
1696251322049,-0.010009766,-0.9204712,0.20111084,4.828125,-7.4375,5.3125
1696251322085,-0.020019531,-1.0440063,0.23406982,1.515625,-5.5,5.015625
1696251322125,0.02758789,-1.0269165,0.20892334,-1.109375,1.484375,-1.71875
1696251322167,-0.015136719,-0.97076416,0.17034912,-4.53125,-3.734375,-2.703125
1696251322206,-0.03540039,-0.99053955,0.17962646,-3.09375,1.3125,1.03125
1696251322226,-0.015136719,-0.99346924,0.21844482,-2.515625,2.234375,-0.65625
1696251322268,0.016357422,-0.96954346,0.17279053,-1.640625,-1.453125,-4.546875
1696251322307,-0.033203125,-0.94976807,0.1618042,-3.84375,0.765625,-1.328125
1696251322369,-0.040527344,-1.0149536,0.20159912,-4.296875,3.359375,-0.6875
1696251322384,-0.036865234,-1.0261841,0.21234131,-5.09375,3.4375,-4.015625
1696251322468,-0.017089844,-0.9463501,0.20257568,-5.9375,4.34375,-3.046875
1696251322471,-0.005859375,-0.9578247,0.20037842,-4.109375,0.171875,0.046875
1696251322484,-0.0041503906,-0.9963989,0.22698975,-4.390625,-3.609375,1.140625
1696251322527,-0.0234375,-1.0071411,0.2518921,-0.890625,-1.734375,-0.03125
1696251322567,-0.031982422,-0.9819946,0.2675171,-4.09375,-1.78125,-1.34375
1696251322609,-0.021972656,-0.94903564,0.25506592,-3.921875,1.734375,-0.40625
1696251322647,-0.04638672,-0.9512329,0.19866943,-2.65625,5.15625,2.234375
1696251322687,-0.020996094,-0.99298096,0.24188232,3.421875,5.1875,2.0625
1696251322726,-0.01953125,-0.99224854,0.22576904,9.09375,0.375,0.65625
1696251322766,-0.035888672,-0.9607544,0.2020874,1.265625,-0.9375,1.1875
1696251322807,-0.036376953,-0.9573364,0.20770264,1.96875,0.21875,1.140625
1696251322847,-0.028808594,-0.99786377,0.22332764,-0.109375,-1.96875,1.640625
1696251322885,-0.0024414062,-0.99664307,0.22259521,-2.15625,-0.75,0.34375
1696251322928,-0.009033203,-0.96051025,0.19451904,-1.828125,-1.59375,0.359375
1696251322967,-0.022705078,-0.94976807,0.20159912,-0.8125,-4.625,0.140625
1696251323007,-0.03564453,-0.97052,0.22113037,0.21875,-3.15625,0.265625
1696251323048,-0.02368164,-1.0022583,0.22479248,-0.046875,0.015625,0.640625
1696251323089,-0.009277344,-0.95147705,0.2062378,1.0625,-0.640625,-0.390625
1696251323127,-0.01171875,-0.94781494,0.21356201,3.0,-1.0,-0.234375
1696251323167,-0.02734375,-0.9495239,0.15667725,7.25,-1.53125,0.203125
1696251323206,-0.041992188,-0.9746704,0.07196045,16.453125,-6.75,-1.046875
1696251323246,0.038330078,-0.9146118,0.19769287,8.421875,-2.53125,2.875
1696251323287,-0.03881836,-0.94244385,0.24945068,0.84375,-9.078125,6.796875
1696251323326,-0.023925781,-1.0725708,0.2062378,0.375,0.828125,3.0
1696251323368,0.0043945312,-1.0161743,0.20941162,-2.375,1.28125,-4.515625
1696251323408,-0.024169922,-0.9717407,0.15765381,-5.328125,-0.15625,-2.109375
1696251323446,-0.011962891,-0.9824829,0.18377686,-4.59375,4.09375,0.15625
1696251323489,-0.009033203,-0.9939575,0.20404053,-3.625,1.9375,-2.828125
1696251323526,0.011962891,-0.98516846,0.18450928,-2.984375,-0.390625,-3.1875
1696251323567,0.0036621094,-0.9624634,0.18109131,-4.625,-0.90625,-0.671875
1696251323606,-0.044189453,-0.9837036,0.2098999,-3.1875,-0.484375,-1.5625
1696251323649,-0.07324219,-0.9883423,0.19647217,-4.359375,0.15625,-2.4375
1696251323686,-0.050048828,-0.99957275,0.20843506,-4.25,2.234375,-0.734375
1696251323729,-0.018066406,-0.9627075,0.2255249,-4.40625,1.078125,-1.234375
1696251323769,-0.02319336,-0.9788208,0.22869873,-3.734375,0.59375,-1.09375
1696251323787,-0.022216797,-0.9661255,0.25042725,-1.625,1.296875,-0.765625
1696251323848,-0.03491211,-0.97735596,0.23406982,0.03125,0.578125,-0.1875
1696251323866,-0.02319336,-1.0010376,0.24432373,0.875,0.578125,0.09375
1696251323906,-0.036132812,-0.96759033,0.25946045,-0.71875,5.0,1.0625
1696251323946,-0.035888672,-0.9522095,0.23529053,10.125,3.78125,0.390625
1696251323987,-0.04248047,-1.0232544,0.17938232,12.4375,-1.84375,0.265625
1696251324026,-0.048095703,-0.96710205,0.18670654,2.703125,-0.796875,1.78125
1696251324069,-0.030029297,-0.923645,0.19744873,-1.953125,0.328125,2.765625
1696251324105,0.0053710938,-0.97979736,0.2177124,-4.640625,-0.953125,3.90625
1696251324148,-0.0024414062,-0.9963989,0.20526123,-0.984375,-5.203125,3.921875
1696251324187,-0.05493164,-0.9846802,0.1630249,1.921875,-4.234375,2.640625
1696251324227,-0.036132812,-0.9649048,0.2086792,5.71875,1.171875,2.71875
1696251324268,-0.0041503906,-0.9780884,0.21844482,5.28125,0.421875,1.4375
1696251324307,-0.015136719,-0.991272,0.2086792,2.625,0.625,0.140625
1696251324348,-0.0026855469,-0.9644165,0.19476318,2.46875,0.34375,-0.453125
1696251324388,-0.0043945312,-0.9651489,0.18157959,-3.359375,0.359375,0.625
1696251324430,-0.020263672,-0.96954346,0.17059326,-0.75,-0.328125,0.0625
1696251324489,-0.015136719,-0.9834595,0.17889404,1.84375,-0.453125,0.25
1696251324505,-0.0014648438,-0.9199829,0.105895996,9.578125,-1.71875,0.046875
1696251324547,0.015625,-0.93585205,0.0524292,14.578125,-3.9375,2.6875
1696251324587,0.08496094,-0.8887329,0.184021,6.125,-2.828125,6.0
1696251324626,-0.056152344,-1.0515747,0.21356201,3.25,-9.9375,10.984375
1696251324666,0.0390625,-1.0430298,0.17254639,0.453125,2.203125,4.09375
1696251324705,0.068359375,-0.98638916,0.14959717,-4.015625,-2.140625,-5.0
1696251324748,0.006591797,-0.9829712,0.12884521,-5.4375,0.328125,-0.34375
1696251324789,0.011474609,-0.99786377,0.16229248,-4.484375,1.59375,1.71875
1696251324827,-2.4414062E-4,-0.9998169,0.17132568,-3.046875,-0.71875,-3.59375
1696251324867,0.010009766,-0.98687744,0.17034912,-2.34375,2.25,-1.9375
1696251324906,-0.0026855469,-0.97125244,0.1605835,-4.453125,1.875,0.53125
1696251324945,0.005859375,-0.98687744,0.1630249,-4.390625,0.203125,-1.109375
1696251325008,-0.013427734,-1.0027466,0.1984253,-3.3125,2.203125,-2.28125
1696251325025,0.0014648438,-0.97613525,0.20037842,-4.109375,0.5625,-0.78125
1696251325067,0.024902344,-0.95562744,0.17913818,-5.40625,-0.953125,-0.8125
1696251325086,0.0146484375,-0.9793091,0.21282959,-5.15625,-1.46875,-0.890625
1696251325127,-0.015380859,-0.99542236,0.22283936,-3.59375,-3.671875,0.046875
1696251325168,-0.010986328,-0.98565674,0.23968506,-4.75,-2.171875,-0.40625
1696251325206,0.0087890625,-0.97052,0.2423706,-8.328125,0.453125,-0.375
1696251325247,-0.018554688,-0.97540283,0.25457764,-12.921875,1.203125,-0.4375
1696251325287,-0.016601562,-0.9771118,0.23236084,-5.578125,2.0,-1.0
1696251325328,-7.324219E-4,-0.97247314,0.22259521,0.78125,-1.4375,-0.3125
1696251325366,-0.023925781,-0.9639282,0.23114014,3.921875,2.328125,0.796875
1696251325408,-0.026855469,-0.9619751,0.24700928,4.4375,2.71875,0.171875
1696251325449,-0.009277344,-0.97735596,0.24700928,1.171875,0.125,-0.03125
1696251325488,0.012207031,-0.96221924,0.23480225,0.171875,-1.109375,0.0
1696251325526,-0.0041503906,-0.9717407,0.230896,1.984375,-1.484375,1.25
1696251325566,-0.010009766,-0.9771118,0.22039795,0.421875,-2.375,1.515625
1696251325607,-0.014404297,-0.9656372,0.2321167,0.828125,-1.1875,0.171875
1696251325647,-0.00390625,-0.96343994,0.21795654,1.75,-0.625,0.375
1696251325687,0.020996094,-0.9495239,0.215271,0.203125,-2.34375,0.453125
1696251325727,0.0036621094,-0.9595337,0.21356201,-0.3125,-2.9375,-0.109375
1696251325767,-0.014160156,-0.9475708,0.22283936,0.796875,-1.3125,0.1875
1696251325806,-0.038330078,-0.96099854,0.10687256,21.75,-7.09375,-0.8125
1696251325849,0.06298828,-0.91241455,0.16107178,14.140625,-3.140625,1.921875
1696251325887,0.029052734,-0.90411377,0.21136475,2.796875,-5.03125,6.15625
1696251325926,-0.052490234,-1.0662231,0.2177124,0.765625,-9.71875,3.390625
1696251325969,0.024902344,-1.0222778,0.21868896,-1.625,1.28125,-1.640625
1696251326006,0.017333984,-0.97784424,0.1564331,-4.546875,-4.921875,-3.171875
1696251326049,-0.024658203,-0.99298096,0.20037842,-3.515625,1.515625,0.59375
1696251326087,-0.025390625,-0.9805298,0.20648193,-2.765625,1.125,0.609375
1696251326126,0.001953125,-0.986145,0.17694092,-3.5625,1.609375,-3.09375
1696251326169,0.01953125,-0.9780884,0.19085693,-2.203125,3.890625,-1.171875
1696251326208,0.01586914,-0.9834595,0.2033081,-2.828125,1.671875,-0.015625
1696251326248,4.8828125E-4,-0.9849243,0.20111084,-1.8125,0.46875,-1.78125
1696251326288,-0.0061035156,-0.9795532,0.19866943,-2.15625,0.5625,-1.453125
1696251326325,-0.014892578,-0.96832275,0.21258545,-2.0,0.90625,-0.546875
1696251326367,-0.021240234,-0.9702759,0.20306396,-1.59375,-0.546875,-0.484375
1696251326405,-0.018554688,-0.991272,0.21746826,-2.9375,-0.796875,-0.8125
1696251326424,-0.0053710938,-0.9702759,0.25286865,-3.78125,0.734375,-0.4375
1696251326466,-0.017578125,-0.98272705,0.22039795,-3.3125,-0.671875,-0.421875
1696251326507,-0.0087890625,-1.0029907,0.26312256,-6.46875,1.203125,-0.4375
1696251326549,-0.025146484,-0.9595337,0.24627686,-12.15625,0.96875,-0.40625
1696251326588,-0.02368164,-0.954895,0.22625732,-6.109375,0.546875,-0.859375
1696251326647,-0.0107421875,-0.9981079,0.24505615,1.640625,1.859375,-0.3125
1696251326665,-0.013671875,-0.9812622,0.24725342,3.140625,-2.21875,0.40625
1696251326707,-0.015380859,-0.95318604,0.24700928,4.578125,0.375,1.203125
1696251326746,-0.017089844,-0.9624634,0.23895264,2.21875,-2.59375,1.296875
1696251326787,-0.015625,-0.98516846,0.23675537,2.5,-1.796875,0.75
1696251326825,-0.020751953,-0.96759033,0.23602295,2.0625,-1.203125,0.3125
1696251326868,-0.01928711,-0.9729614,0.24554443,3.46875,-0.046875,0.546875
1696251326906,-0.0087890625,-0.9714966,0.23040771,1.109375,-2.875,0.359375
1696251326971,-0.026367188,-0.9680786,0.22528076,0.453125,-1.421875,0.21875
1696251326986,-0.030029297,-0.96221924,0.20819092,1.3125,-1.359375,0.171875
1696251327047,-9.765625E-4,-0.9607544,0.22137451,0.4375,-2.0625,0.625
1696251327066,-0.0107421875,-0.9121704,0.12982178,5.078125,-3.828125,-0.09375
1696251327126,-0.036621094,-0.9768677,0.12054443,19.453125,-6.09375,0.28125
1696251327145,0.030273438,-0.9060669,0.1876831,10.34375,-3.890625,5.21875
1696251327188,-0.05908203,-0.9783325,0.20819092,3.546875,-6.953125,9.015625
1696251327225,-0.0014648438,-1.0637817,0.22991943,-0.421875,0.484375,2.875
1696251327270,0.041503906,-0.98809814,0.18353271,-4.34375,2.5625,-4.125
1696251327307,0.024169922,-0.98516846,0.15789795,-2.953125,-2.578125,-1.65625
1696251327346,0.0036621094,-0.9937134,0.199646,-1.578125,0.59375,2.21875
1696251327387,-0.009765625,-0.97125244,0.2062378,-1.59375,-2.0625,-0.4375
1696251327425,-0.001953125,-0.97003174,0.168396,0.609375,0.234375,-1.46875
1696251327489,0.009521484,-0.9949341,0.19940186,-0.5625,2.765625,0.671875
1696251327505,-0.005126953,-0.9741821,0.18719482,-1.875,-0.84375,1.296875
1696251327548,2.4414062E-4,-0.9871216,0.18499756,-0.90625,-0.734375,0.21875
1696251327588,-0.0061035156,-0.9805298,0.20794678,-1.890625,-1.0,0.90625
1696251327627,-0.016357422,-0.9783325,0.1954956,-4.109375,-2.03125,1.21875
1696251327666,0.00390625,-0.98394775,0.20843506,-4.9375,-0.953125,0.5
1696251327707,-0.021972656,-0.98565674,0.22698975,-1.703125,0.578125,-0.34375
1696251327726,-0.0024414062,-1.0015259,0.24310303,-4.234375,1.375,-0.09375
1696251327768,-0.013183594,-0.96881104,0.24749756,-12.15625,-0.0625,-0.6875
1696251327808,-0.022705078,-0.944397,0.2826538,-8.234375,5.453125,0.640625
1696251327847,0.02734375,-1.0037231,0.21697998,-1.765625,1.359375,0.71875
1696251327888,0.024169922,-1.0059204,0.21185303,-0.15625,-2.5,0.8125
1696251327925,-0.008300781,-0.9573364,0.21722412,3.734375,-0.65625,2.25
1696251327966,2.4414062E-4,-0.9661255,0.2267456,2.34375,2.328125,1.640625
1696251328007,0.0075683594,-0.9795532,0.23895264,1.046875,0.9375,1.671875
1696251328049,0.018310547,-0.9668579,0.23797607,3.4375,-2.0,1.765625
1696251328086,0.007080078,-0.9702759,0.22723389,0.796875,-2.640625,2.3125
1696251328126,0.009277344,-0.9866333,0.21673584,1.84375,0.234375,0.703125
1696251328169,0.0075683594,-0.96099854,0.21795654,1.265625,0.015625,-0.84375
1696251328206,0.008300781,-0.9702759,0.2140503,-0.203125,-0.5625,-0.203125
1696251328249,0.024902344,-0.97125244,0.21551514,1.5625,-0.5625,0.25
1696251328285,0.022460938,-0.9541626,0.21258545,1.53125,-1.84375,-0.1875
1696251328328,0.0024414062,-0.93536377,0.14202881,4.921875,-1.96875,-0.8125
1696251328370,-0.018066406,-0.9446411,0.11468506,15.140625,-5.890625,-1.578125
1696251328406,0.057617188,-0.93414307,0.14813232,10.953125,-4.640625,-0.3125
1696251328445,0.018310547,-0.94854736,0.2296753,3.3125,-6.34375,4.328125
1696251328487,-0.005126953,-1.0647583,0.23577881,1.03125,-2.734375,2.46875
1696251328526,0.032226562,-1.015686,0.20233154,-4.984375,2.171875,-4.671875
1696251328565,0.018310547,-0.97003174,0.15789795,-4.3125,0.578125,-4.6875
1696251328606,0.013671875,-0.97662354,0.19818115,-2.921875,3.546875,-0.984375
1696251328647,4.8828125E-4,-0.9890747,0.22283936,-3.890625,0.75,-0.4375
1696251328688,-0.0024414062,-0.97662354,0.18548584,-2.640625,-1.046875,-3.015625
1696251328730,0.0126953125,-0.9663696,0.19012451,-1.234375,3.03125,-0.265625
1696251328768,0.018066406,-0.9717407,0.215271,-1.640625,1.609375,0.65625
1696251328808,-0.022949219,-1.0022583,0.22357178,-2.75,-0.984375,-0.59375
1696251328845,-0.049072266,-0.96466064,0.20501709,-1.984375,1.046875,0.359375
1696251328889,-0.02319336,-0.95440674,0.20672607,-2.1875,2.078125,0.296875
1696251328926,0.032714844,-0.9783325,0.23236084,-2.71875,0.15625,-0.390625
1696251328967,0.02709961,-0.9817505,0.23260498,-2.375,1.953125,-0.734375
1696251329007,-0.033447266,-1.0093384,0.23114014,-1.765625,1.625,-1.296875
1696251329025,-0.041015625,-0.97857666,0.24090576,-6.53125,2.625,-1.15625
1696251329068,-0.027832031,-0.95880127,0.23114014,-3.0625,5.96875,-0.9375
1696251329106,0.005126953,-0.99102783,0.22772217,0.359375,2.609375,-1.71875
1696251329146,0.01586914,-0.97906494,0.23309326,3.96875,1.515625,-1.09375
1696251329210,-0.0021972656,-0.97735596,0.21966553,1.484375,-1.25,0.25
1696251329226,-0.008300781,-0.95758057,0.21307373,2.234375,-1.328125,-0.609375
1696251329268,-0.020263672,-0.9883423,0.21331787,2.203125,-1.734375,1.390625
1696251329306,-9.765625E-4,-0.9800415,0.22064209,1.40625,-2.8125,2.234375
1696251329346,0.0024414062,-0.986145,0.22332764,0.8125,-4.1875,1.9375
1696251329389,-0.01586914,-0.96417236,0.20135498,1.234375,-5.1875,-0.171875
1696251329427,-0.032470703,-0.9771118,0.20599365,1.296875,-2.453125,0.671875
1696251329469,-0.011474609,-0.97369385,0.20526123,0.75,-1.265625,1.015625
1696251329507,-0.0029296875,-0.9697876,0.20184326,2.734375,-2.5625,0.75
1696251329546,-0.0063476562,-0.96539307,0.19232178,2.90625,-1.359375,1.28125
1696251329588,-0.011962891,-0.9553833,0.16571045,5.359375,-1.0,0.9375
1696251329626,-0.014404297,-0.93292236,0.097839355,14.59375,-2.796875,0.984375
1696251329665,0.023925781,-0.93951416,0.10858154,15.84375,-3.34375,3.359375
1696251329728,0.06616211,-0.9360962,0.20013428,5.375,-6.1875,4.71875
1696251329746,-0.050048828,-1.0335083,0.2062378,1.734375,-10.328125,5.515625
1696251329810,-0.017333984,-1.024231,0.18060303,-4.90625,0.0,1.921875
1696251329825,0.037597656,-0.99005127,0.12542725,-5.546875,-2.75,-5.1875
1696251329870,0.011962891,-1.024231,0.16082764,-5.71875,0.640625,-0.453125
1696251329928,0.009521484,-0.972229,0.18206787,-3.953125,0.53125,0.546875
1696251329946,-0.018310547,-0.9920044,0.19378662,-4.40625,0.34375,-3.703125
1696251330008,-0.0087890625,-0.972229,0.18157959,-3.15625,2.375,-1.84375
1696251330026,0.0061035156,-0.97320557,0.18597412,-3.75,0.78125,0.25
1696251330090,-0.005859375,-0.9951782,0.18743896,-2.25,-0.25,-1.65625
1696251330105,-0.026855469,-0.9829712,0.18572998,0.515625,2.875,-1.140625
1696251330146,-0.014160156,-0.98101807,0.17816162,5.5625,3.03125,0.921875
1696251330187,0.0048828125,-0.9783325,0.17401123,0.765625,-0.796875,1.921875
1696251330247,0.007080078,-0.9690552,0.18475342,0.15625,-0.015625,1.328125
1696251330266,-0.020263672,-0.98321533,0.20477295,-2.453125,1.25,-0.484375
1696251330307,-0.012451172,-0.9805298,0.21063232,-0.078125,4.859375,-0.921875
1696251330346,-0.0041503906,-1.029602,0.20062256,-5.34375,2.421875,-0.109375
1696251330366,-0.037841797,-0.96466064,0.18572998,-8.21875,2.5,-0.59375
1696251330408,-0.016357422,-0.975647,0.20281982,3.796875,6.140625,-2.546875
1696251330447,0.036865234,-1.0266724,0.19744873,7.0,0.203125,-3.421875
1696251330487,-0.029541016,-0.9678345,0.1798706,-2.34375,-0.390625,-1.40625
1696251330527,-0.040527344,-0.9336548,0.1552124,-1.484375,2.25,-1.5625
1696251330567,0.0068359375,-0.9915161,0.17816162,-2.046875,1.546875,-0.40625
1696251330608,0.017333984,-0.99835205,0.20306396,0.015625,-2.703125,-0.03125
1696251330648,-0.012451172,-0.95684814,0.1876831,-1.171875,-4.984375,0.1875
1696251330685,-0.030273438,-0.96954346,0.17376709,3.171875,-3.921875,0.078125
1696251330726,-0.025878906,-0.9939575,0.19451904,3.140625,-2.59375,0.734375
1696251330767,-0.013183594,-0.9595337,0.1942749,0.28125,-3.75,0.03125
1696251330806,-0.0036621094,-0.9771118,0.1798706,1.28125,-2.421875,0.8125
1696251330846,-0.020507812,-0.95147705,0.11834717,3.0,-3.6875,1.171875
1696251330887,-0.040771484,-0.92681885,0.05267334,4.984375,-8.734375,0.484375
1696251330926,-0.0056152344,-0.95025635,0.13543701,19.09375,-1.53125,1.765625
1696251330966,0.037597656,-0.93292236,0.17254639,1.921875,-0.375,5.453125
1696251331006,-0.06567383,-1.0501099,0.22454834,2.265625,-5.5,9.390625
1696251331047,0.029052734,-1.0315552,0.17694092,1.140625,3.96875,-0.3125
1696251331086,-0.011230469,-0.99884033,0.12664795,-3.890625,0.140625,-2.09375
1696251331128,0.030273438,-0.9692993,0.1515503,-4.171875,2.734375,1.828125
1696251331168,0.021728516,-0.9993286,0.184021,-1.703125,2.203125,1.859375
1696251331207,-0.012207031,-0.99420166,0.17156982,-4.0625,-1.109375,-1.3125
1696251331246,-0.02319336,-0.9710083,0.14813232,-1.703125,0.109375,-0.84375
1696251331286,0.017822266,-0.99664307,0.15545654,-2.796875,1.5625,1.375
1696251331327,0.057617188,-0.99713135,0.16473389,-1.171875,-1.6875,0.71875
1696251331367,0.017822266,-0.97784424,0.18206787,-0.9375,-2.015625,-0.28125
1696251331408,-0.026367188,-0.9680786,0.17376709,-3.078125,-2.203125,0.125
1696251331447,-0.020019531,-0.9702759,0.17913818,-3.28125,-1.78125,-0.125
1696251331485,0.0041503906,-0.9956665,0.20257568,-0.953125,-0.3125,-0.203125
1696251331529,0.024169922,-1.0007935,0.20697021,4.28125,0.890625,0.3125
1696251331567,-0.01953125,-0.9805298,0.18792725,-0.328125,-5.21875,1.375
1696251331609,-0.040771484,-0.972229,0.16790771,0.546875,-5.328125,3.5625
1696251331649,-0.026123047,-1.0020142,0.20111084,-5.4375,-4.828125,0.0625
1696251331668,0.015136719,-0.9546509,0.1762085,-5.84375,-2.109375,-2.296875
1696251331726,-0.026123047,-0.9937134,0.16448975,-0.625,-1.828125,0.109375
1696251331746,-0.0014648438,-0.9920044,0.20062256,-7.015625,-4.046875,0.46875
1696251331786,0.010009766,-0.97613525,0.20452881,-5.53125,-2.546875,0.375
1696251331826,-0.016601562,-0.98516846,0.19744873,0.578125,-2.546875,0.28125
1696251331868,-0.05126953,-0.960022,0.21087646,0.28125,-3.3125,0.28125
1696251331929,-0.0078125,-0.9351196,0.1876831,4.90625,-1.578125,2.5
1696251331947,0.001953125,-0.96832275,0.22698975,2.046875,-4.15625,2.859375
1696251332009,-0.029541016,-0.9951782,0.20111084,0.296875,-3.34375,0.53125
1696251332024,-0.024902344,-0.9578247,0.17791748,2.84375,0.359375,-0.109375
1696251332088,0.0012207031,-0.93585205,0.16253662,3.125,-0.40625,-0.203125
1696251332106,0.005126953,-0.927063,0.13812256,4.03125,-0.140625,-1.375
1696251332168,0.027832031,-1.0108032,0.15496826,9.40625,2.125,-1.234375
1696251332186,-0.020507812,-1.0422974,0.16668701,3.1875,-3.46875,-1.125
1696251332249,-0.068359375,-0.97857666,0.15106201,4.140625,-5.65625,5.5
1696251332266,0.10595703,-0.9019165,0.15032959,3.46875,5.21875,6.125
1696251332307,0.14282227,-1.0278931,0.17034912,1.1875,-3.03125,0.90625
1696251332347,0.0075683594,-1.0635376,0.15863037,-2.28125,-7.09375,-2.34375
1696251332386,-0.087890625,-0.97979736,0.13519287,-2.296875,-1.484375,-0.84375
1696251332427,-0.028808594,-0.9348755,0.13885498,-1.453125,6.453125,-0.15625
1696251332469,0.08154297,-0.9734497,0.17010498,-3.453125,5.390625,-0.015625
1696251332506,0.076416016,-0.9963989,0.1852417,-4.640625,-0.921875,-0.171875
1696251332546,-0.0075683594,-1.0037231,0.16571045,-3.640625,-3.9375,-1.46875
1696251332608,-0.04296875,-0.9783325,0.15325928,-1.625,2.65625,-0.90625
1696251332646,0.00390625,-0.9649048,0.17840576,-0.515625,5.09375,-0.09375
1696251332666,0.032714844,-0.9741821,0.19573975,-1.734375,1.34375,-1.578125
1696251332707,0.01953125,-0.99542236,0.19085693,-2.296875,0.34375,-0.96875
1696251332771,-2.4414062E-4,-0.975647,0.19158936,-1.640625,-0.03125,-0.796875
1696251332807,-0.016601562,-0.97784424,0.19476318,-2.359375,-0.3125,-0.453125
1696251332825,-0.011230469,-0.9927368,0.21673584,-1.0625,1.125,-1.1875
1696251332869,-0.020996094,-0.9805298,0.20355225,-1.453125,1.234375,-1.015625
1696251332929,4.8828125E-4,-0.98760986,0.2374878,-3.75,3.453125,-0.984375
1696251332969,0.0068359375,-0.9837036,0.22894287,-8.171875,2.828125,-0.390625
1696251332973,-0.004638672,-0.9673462,0.23797607,-4.375,4.3125,-0.0625
1696251333007,0.0146484375,-0.9656372,0.20257568,-3.890625,-1.421875,-1.234375
1696251333049,-0.010253906,-0.9846802,0.20501709,-1.453125,-0.96875,-0.515625
1696251333087,-0.029785156,-0.9998169,0.2086792,1.296875,-0.921875,0.75
1696251333127,-0.008300781,-0.973938,0.2321167,0.609375,-2.453125,0.421875
1696251333166,-0.016113281,-0.9727173,0.22039795,-0.65625,-1.671875,-1.484375
1696251333208,-0.017333984,-0.9673462,0.20355225,0.484375,-0.84375,0.109375
1696251333246,-0.0017089844,-0.97369385,0.22137451,1.859375,-1.671875,0.5625
1696251333287,-0.0014648438,-0.9795532,0.22259521,0.75,-2.703125,0.0625
1696251333326,-0.0061035156,-0.9807739,0.2074585,1.5625,-2.140625,0.1875
1696251333368,-0.009277344,-0.9602661,0.21820068,1.40625,-3.203125,-0.375
1696251333408,-0.029785156,-0.9595337,0.20501709,0.90625,-0.9375,0.171875
1696251333448,-0.030273438,-0.97076416,0.21087646,-1.359375,-0.1875,-0.640625
1696251333488,-0.029541016,-0.96343994,0.24261475,-2.296875,-1.703125,-0.5625
1696251333527,-0.017822266,-0.9685669,0.14569092,14.671875,-3.265625,-0.3125
1696251333566,0.01586914,-0.90802,0.07342529,13.9375,-5.421875,-0.015625
1696251333606,0.056640625,-0.9170532,0.19012451,6.65625,-3.765625,4.078125
1696251333649,-0.07495117,-1.0579224,0.25115967,5.984375,-4.671875,6.34375
1696251333687,-0.015380859,-1.0149536,0.17596436,-0.703125,2.90625,1.1875
1696251333728,0.025390625,-0.96832275,0.15594482,-3.5,1.46875,-3.984375
1696251333767,0.021972656,-1.0010376,0.15057373,-3.03125,3.703125,-0.828125
1696251333809,-0.0012207031,-1.0003052,0.19671631,-2.28125,1.984375,1.71875
1696251333848,-0.0087890625,-0.97198486,0.17401123,-2.078125,0.34375,-2.84375
1696251333887,0.0043945312,-0.9741821,0.16693115,-1.609375,2.328125,-1.375
1696251333926,-0.009521484,-0.9898071,0.19232178,-0.03125,2.984375,0.546875
1696251333969,-0.020507812,-0.9854126,0.19158936,-1.78125,0.671875,-0.984375
1696251334006,-0.022705078,-0.98223877,0.19598389,-1.734375,3.25,-2.046875
1696251334048,0.0012207031,-0.97857666,0.1762085,-1.84375,2.75,0.125
1696251334087,0.013916016,-0.9768677,0.19525146,-1.015625,-0.796875,-0.21875
1696251334126,-0.014160156,-0.9871216,0.21551514,-2.828125,-2.03125,0.03125
1696251334166,-0.048828125,-0.9961548,0.20135498,-2.65625,0.578125,-1.078125
1696251334207,-0.022705078,-1.0115356,0.23162842,-6.640625,1.328125,-2.75
1696251334245,0.0024414062,-0.956604,0.24188232,-8.1875,1.5,-2.109375
1696251334287,-0.029541016,-0.9607544,0.23114014,-6.609375,0.78125,0.265625
1696251334304,-0.07324219,-1.013977,0.20819092,-3.453125,-0.796875,0.28125
1696251334347,-0.05126953,-1.0049438,0.22015381,0.234375,2.390625,0.3125
1696251334387,-0.005859375,-0.95977783,0.2321167,3.21875,2.828125,1.59375
1696251334427,-0.001953125,-0.9639282,0.20550537,3.28125,-0.78125,1.265625
1696251334468,-0.019042969,-0.986145,0.21673584,1.015625,-1.859375,1.640625
1696251334527,-0.011474609,-0.9727173,0.22210693,3.4375,-1.296875,2.84375
1696251334567,-0.020507812,-0.97906494,0.21087646,2.546875,-3.8125,2.03125
1696251334587,-0.029052734,-0.98565674,0.20941162,0.15625,-3.296875,1.421875
1696251334649,-0.00390625,-0.94781494,0.20257568,0.421875,-1.859375,1.21875
1696251334690,7.324219E-4,-0.9578247,0.19818115,-0.796875,-2.09375,1.9375
1696251334726,-0.013916016,-0.9644165,0.18353271,4.3125,-3.859375,1.765625
1696251334746,-0.01928711,-0.93756104,0.08709717,12.6875,-6.125,0.875
1696251334787,0.025146484,-0.9314575,0.10638428,11.515625,-7.140625,0.40625
1696251334847,0.0029296875,-0.9146118,0.22479248,-3.96875,-7.328125,3.53125
1696251334864,-0.025878906,-1.0671997,0.23968506,-1.390625,-6.21875,5.078125
1696251334906,0.029296875,-1.0459595,0.2255249,-1.203125,2.609375,-2.203125
1696251334946,-0.033447266,-0.95635986,0.17718506,-4.359375,-2.765625,-4.015625
1696251335008,-0.013916016,-0.9678345,0.1593628,-2.8125,3.28125,0.71875
1696251335026,-0.01977539,-0.9854126,0.22332764,-2.140625,3.5625,0.296875
1696251335066,-0.0026855469,-0.9944458,0.21087646,-3.609375,-0.453125,-3.625
1696251335107,-0.0029296875,-0.96343994,0.17938232,-2.71875,0.3125,-2.015625
1696251335146,-0.0073242188,-0.9795532,0.19647217,-2.640625,1.90625,-0.078125
1696251335187,-0.0107421875,-0.9871216,0.19915771,-1.90625,2.15625,-1.703125
1696251335226,0.0063476562,-0.9793091,0.2074585,-2.734375,0.796875,-0.921875
1696251335267,-0.0087890625,-0.95758057,0.21746826,-1.359375,-0.15625,0.0625
1696251335307,-0.025634766,-0.9758911,0.21307373,-1.578125,-0.96875,0.671875
1696251335347,-0.02758789,-0.9920044,0.21868896,-0.703125,-0.375,0.25
1696251335387,-0.0087890625,-0.9758911,0.23602295,-1.625,0.640625,-0.328125
1696251335449,-0.013427734,-0.97198486,0.21478271,-0.0625,0.734375,1.046875
1696251335487,-0.001953125,-1.0081177,0.25286865,3.546875,3.90625,-0.390625
1696251335506,-0.021484375,-0.9871216,0.24603271,-3.3125,2.875,-0.453125
1696251335571,-0.033447266,-0.958313,0.20477295,-4.84375,2.015625,1.09375
1696251335588,0.0146484375,-0.97003174,0.21234131,-1.984375,-0.296875,1.046875
1696251335606,0.011962891,-1.0042114,0.23406982,-0.59375,-0.8125,0.921875
1696251335649,-0.0078125,-0.9663696,0.2140503,1.125,-2.03125,2.0625
1696251335687,-0.036132812,-0.9678345,0.22650146,0.953125,-2.78125,1.671875
1696251335729,-0.016845703,-0.9746704,0.21575928,-0.671875,-3.390625,1.125
1696251335769,-0.0078125,-0.97540283,0.23822021,1.484375,-2.03125,1.109375
1696251335806,-0.013916016,-0.98150635,0.21502686,2.0625,-3.046875,1.484375
1696251335846,-0.015380859,-0.9624634,0.21209717,0.484375,-0.828125,0.765625
1696251335886,-0.005859375,-0.95562744,0.23236084,0.671875,-0.46875,0.390625
1696251335929,-0.013916016,-0.9812622,0.22088623,1.453125,-2.046875,-0.109375
1696251335969,-0.0107421875,-0.9644165,0.20770264,0.765625,-1.984375,0.34375
1696251336006,0.0036621094,-0.9343872,0.13763428,8.328125,-3.765625,0.515625
1696251336046,-0.0031738281,-0.9312134,0.11224365,14.5,-4.734375,0.15625
1696251336086,0.020507812,-0.94073486,0.16375732,10.40625,-3.53125,1.4375
1696251336125,-0.016601562,-0.95025635,0.17694092,4.03125,-8.109375,4.453125
1696251336164,-0.020019531,-1.0547485,0.24188232,-0.59375,-2.390625,3.90625
1696251336207,0.041992188,-1.0064087,0.18182373,-3.625,1.53125,-2.765625
1696251336269,0.0031738281,-0.96710205,0.15447998,-3.90625,-1.796875,-3.515625
1696251336286,-0.008056641,-0.99005127,0.18157959,-4.390625,2.421875,0.375
1696251336328,-0.0061035156,-1.00177,0.19915771,-4.546875,1.046875,-1.71875
1696251336367,-0.0078125,-0.97979736,0.18939209,-2.328125,1.171875,-3.03125
1696251336407,-0.0056152344,-0.95928955,0.18035889,-2.859375,0.453125,-0.125
1696251336447,0.0026855469,-0.986145,0.2086792,-4.265625,1.40625,-0.109375
1696251336489,-0.013427734,-0.9920044,0.20159912,-4.734375,0.21875,-1.40625
1696251336526,-0.024902344,-0.98321533,0.22137451,-3.59375,-0.375,-1.03125
1696251336568,-0.0107421875,-0.9505005,0.21746826,-3.5625,-0.109375,-0.03125
