,timestamp,accel_x,accel_y,accel_z,gyro_x,gyro_y,gyro_z,ind
0,1696253682364,-0.48413086,-0.13116455,-0.8501587,-0.25,0.078125,0.0,0
1,1696253682404,-0.48486328,-0.13995361,-0.8394165,-0.484375,0.0,0.34375,1
2,1696253682444,-0.4946289,-0.1494751,-0.84747314,-1.0,-1.015625,0.28125,2
3,1696253682484,-0.4794922,-0.12945557,-0.8284302,0.859375,-0.484375,-0.109375,3
4,1696253682524,-0.4855957,-0.1272583,-0.82598877,0.15625,-1.25,0.109375,4
5,1696253682564,-0.4934082,-0.13287354,-0.8435669,-0.796875,-2.234375,0.78125,5
6,1696253682604,-0.47729492,-0.13165283,-0.84942627,-2.5,-2.046875,1.21875,6
7,1696253682644,-0.47387695,-0.14239502,-0.8206177,-1.265625,-1.65625,0.578125,7
8,1696253682684,-0.4790039,-0.14776611,-0.8682251,-1.703125,-1.953125,0.6875,8
9,1696253682724,-0.48217773,-0.14996338,-0.85943604,-1.046875,-1.28125,0.453125,9
10,1696253682764,-0.4790039,-0.1531372,-0.84552,-0.984375,-0.921875,0.421875,10
11,1696253682804,-0.4645996,-0.15142822,-0.82281494,-1.0,1.34375,0.109375,11
12,1696253682844,-0.47802734,-0.14459229,-0.83917236,0.421875,1.5,0.453125,12
13,1696253682884,-0.48950195,-0.15020752,-0.8557739,1.9375,2.1875,1.359375,13
14,1696253682924,-0.4724121,-0.14117432,-0.83013916,0.03125,2.15625,4.046875,14
15,1696253682964,-0.47753906,-0.1453247,-0.85601807,-3.90625,0.21875,1.28125,196
16,1696253683004,-0.47802734,-0.15460205,-0.84552,-3.65625,0.9375,0.90625,197
17,1696253683044,-0.50634766,-0.17340088,-1.1323853,-8.078125,4.75,1.046875,198
18,1696253683084,-0.3840332,-0.15045166,-0.60772705,-10.984375,-2.78125,-9.21875,199
19,1696253683124,-0.49902344,-0.19586182,-0.85528564,-1.671875,-9.34375,-6.1875,200
20,1696253683164,-0.46875,-0.14678955,-0.6958618,2.53125,0.5625,-0.53125,201
21,1696253683204,-0.45507812,-0.17315674,-0.7966919,7.3125,-2.484375,-0.484375,202
22,1696253683244,-0.48950195,-0.14898682,-0.8115845,8.8125,1.265625,3.390625,203
23,1696253683284,-0.43774414,-0.16729736,-0.8665161,2.21875,1.859375,4.25,204
24,1696253683324,-0.46875,-0.14971924,-0.91119385,2.484375,0.296875,0.578125,205
25,1696253683364,-0.47802734,-0.1531372,-0.91412354,-3.0,-2.234375,0.84375,206
26,1696253683404,-0.38842773,-0.15435791,-1.0181274,-11.0,1.84375,-1.234375,207
27,1696253683444,-0.4362793,-0.1987915,-0.91485596,-11.9375,-20.328125,-17.0625,208
28,1696253683484,-0.7080078,-0.21929932,-0.67803955,3.34375,0.90625,-3.640625,209
29,1696253683524,-0.49682617,-0.15411377,-0.704895,7.171875,-1.046875,3.359375,210
30,1696253683564,-0.5029297,-0.15240479,-0.7625122,12.015625,9.4375,17.796875,211
31,1696253683604,-0.32763672,-0.14801025,-0.8101196,5.6875,7.171875,9.859375,212
32,1696253683644,-0.4243164,-0.1482544,-0.93048096,2.984375,-2.578125,0.296875,213
33,1696253683684,-0.48413086,-0.14117432,-0.9898071,0.3125,-5.046875,0.921875,214
34,1696253683724,-0.4621582,-0.1560669,-0.87750244,-6.515625,-2.609375,2.859375,215
35,1696253683764,-0.45996094,-0.18878174,-0.8411255,-3.09375,-3.671875,0.359375,216
36,1696253683804,-0.45947266,-0.17071533,-0.8596802,-6.484375,-3.96875,-5.84375,217
37,1696253683844,-0.40185547,-0.19488525,-0.92266846,-12.296875,-3.546875,-6.34375,218
38,1696253683884,-0.4807129,-0.1663208,-0.819397,-6.796875,-8.59375,-8.109375,219
39,1696253683924,-0.44189453,-0.17706299,-0.80548096,2.015625,-1.390625,-0.671875,220
40,1696253683964,-0.4345703,-0.1519165,-0.75128174,3.0625,-4.78125,-0.71875,221
41,1696253684004,-0.4260254,-0.17022705,-0.82354736,7.84375,-5.53125,0.578125,222
42,1696253684044,-0.43920898,-0.16290283,-0.87506104,3.890625,3.71875,1.0,223
43,1696253684084,-0.41088867,-0.15386963,-0.94415283,4.6875,1.46875,1.015625,224
44,1696253684124,-0.44189453,-0.15264893,-0.94000244,2.171875,-1.453125,-0.0625,225
45,1696253684164,-0.44580078,-0.14337158,-0.9277954,0.046875,-0.078125,0.078125,226
46,1696253684204,-0.42089844,-0.14874268,-0.8833618,-3.1875,0.5625,0.828125,227
47,1696253684244,-0.44873047,-0.17095947,-0.9314575,-11.015625,6.578125,0.9375,228
48,1696253684284,-0.4099121,-0.16119385,-0.7593384,-4.109375,2.609375,-1.421875,229
49,1696253684324,-0.43530273,-0.18023682,-0.81695557,2.375,0.28125,-3.0,230
50,1696253684364,-0.4494629,-0.144104,-0.79034424,4.953125,-1.328125,-1.25,231
51,1696253684404,-0.43481445,-0.16363525,-0.81573486,3.390625,-1.765625,-0.90625,232
52,1696253684444,-0.44189453,-0.15777588,-0.84259033,1.703125,-1.6875,0.078125,233
53,1696253684484,-0.43701172,-0.17779541,-0.8772583,1.171875,-0.859375,0.359375,234
54,1696253684524,-0.44506836,-0.15460205,-0.881897,0.25,-0.484375,-0.3125,235
55,1696253684564,-0.44970703,-0.16925049,-0.92388916,-4.4375,-1.828125,0.515625,236
56,1696253684604,-0.43798828,-0.16363525,-0.90875244,-6.46875,-0.09375,0.65625,237
57,1696253684644,-0.4494629,-0.18096924,-0.92974854,-7.78125,0.546875,-0.25,238
58,1696253684684,-0.39916992,-0.1609497,-0.7503052,-10.375,0.40625,-6.6875,239
59,1696253684724,-0.47607422,-0.19171143,-0.8555298,5.359375,-0.859375,-1.484375,240
60,1696253684764,-0.43823242,-0.1687622,-0.803772,2.96875,0.84375,-0.171875,241
61,1696253684804,-0.43310547,-0.17633057,-0.8357544,3.84375,-0.828125,-0.046875,242
62,1696253684844,-0.44873047,-0.16998291,-0.8406372,4.140625,-0.890625,0.0,243
63,1696253684884,-0.44213867,-0.16973877,-0.850647,5.671875,-1.734375,0.109375,244
64,1696253684924,-0.44262695,-0.15582275,-0.8467407,9.5625,-1.625,0.203125,245
65,1696253684964,-0.44091797,-0.15093994,-0.8357544,8.140625,-0.078125,1.53125,246
66,1696253685004,-0.44018555,-0.1338501,-0.8689575,4.96875,0.8125,1.515625,247
67,1696253685044,-0.4375,-0.13922119,-0.8845825,3.140625,2.671875,1.8125,248
68,1696253685084,-0.45166016,-0.13677979,-0.9060669,1.640625,0.6875,1.75,249
69,1696253685124,-0.44213867,-0.13433838,-0.86065674,-0.53125,-1.203125,0.859375,250
70,1696253685164,-0.44262695,-0.12701416,-0.8621216,-1.140625,-0.78125,0.640625,251
71,1696253685204,-0.43676758,-0.13922119,-0.8557739,-0.734375,-0.09375,0.359375,252
72,1696253685244,-0.43774414,-0.1375122,-0.84210205,-0.015625,0.078125,0.125,253
73,1696253685284,-0.44482422,-0.13897705,-0.85040283,0.21875,0.171875,0.109375,254
74,1696253685324,-0.44848633,-0.13189697,-0.8557739,-0.296875,1.28125,0.265625,255
75,1696253685364,-0.453125,-0.13580322,-0.86798096,-1.875,0.609375,0.71875,256
76,1696253685404,-0.44848633,-0.1404419,-0.866272,-2.03125,-0.703125,0.796875,257
77,1696253685444,-0.45263672,-0.14239502,-0.85723877,-2.265625,-1.046875,0.84375,258
78,1696253685484,-0.44506836,-0.15216064,-0.8616333,-2.171875,-1.859375,0.5625,259
79,1696253685524,-0.44433594,-0.14190674,-0.8530884,-1.375,-1.1875,0.328125,260
80,1696253685564,-0.44067383,-0.14996338,-0.85479736,-0.59375,-1.5625,0.625,261
81,1696253685604,-0.45117188,-0.15875244,-0.8821411,1.484375,-1.484375,0.546875,262
82,1696253685644,-0.42895508,-0.15216064,-0.8352661,4.65625,-1.796875,0.53125,263
83,1696253685684,-0.41430664,-0.1375122,-0.8340454,0.734375,-1.046875,1.3125,264
84,1696253685724,-0.45043945,-0.14019775,-0.8789673,-1.71875,2.078125,1.953125,265
85,1696253685764,-0.45947266,-0.14874268,-0.895813,-1.796875,0.265625,0.796875,266
86,1696253685804,-0.4621582,-0.14312744,-0.89849854,-1.6875,0.3125,0.78125,267
87,1696253685844,-0.4411621,-0.15240479,-0.8555298,-1.34375,0.328125,0.40625,268
88,1696253685884,-0.43603516,-0.15386963,-0.84039307,0.015625,1.9375,0.296875,269
89,1696253685924,-0.44873047,-0.13677979,-0.8899536,0.3125,1.3125,1.09375,270
90,1696253685964,-0.4633789,-0.1572876,-1.0388794,-3.875,3.21875,3.546875,271
91,1696253686004,-0.38256836,-0.128479,-0.6663208,-5.296875,1.34375,0.8125,272
92,1696253686044,-0.4440918,-0.18951416,-0.88409424,0.296875,-9.34375,-3.828125,273
93,1696253686084,-0.48632812,-0.16900635,-0.7485962,2.75,-0.0625,-1.4375,274
94,1696253686124,-0.42773438,-0.16119385,-0.7776489,1.578125,0.28125,-0.0625,275
95,1696253686164,-0.45507812,-0.14874268,-0.8164673,8.25,0.78125,0.984375,276
96,1696253686204,-0.43237305,-0.16168213,-0.86553955,2.5,3.75,4.140625,277
97,1696253686244,-0.44311523,-0.1453247,-0.92266846,2.0625,-1.96875,0.328125,278
98,1696253686284,-0.45361328,-0.13946533,-0.9224243,0.296875,-2.78125,-0.03125,279
99,1696253686324,-0.44189453,-0.13922119,-0.86676025,0.109375,-1.34375,0.1875,280
100,1696253686364,-0.4494629,-0.14434814,-0.8652954,-3.109375,-2.125,0.703125,281
101,1696253686404,-0.43164062,-0.14849854,-0.9522095,-7.390625,3.390625,-0.078125,282
102,1696253686444,-0.44970703,-0.1638794,-0.767395,-10.90625,-6.796875,-10.71875,283
103,1696253686484,-0.52978516,-0.17974854,-0.7263794,3.59375,4.21875,-0.96875,284
104,1696253686524,-0.4580078,-0.13360596,-0.76446533,5.328125,0.484375,2.625,285
105,1696253686564,-0.42504883,-0.15948486,-0.78326416,3.65625,1.390625,5.796875,286
106,1696253686604,-0.43823242,-0.15802002,-0.8933716,3.03125,5.4375,3.953125,287
107,1696253686644,-0.43774414,-0.14727783,-0.8965454,1.9375,-1.328125,0.328125,288
108,1696253686684,-0.46411133,-0.14605713,-0.9439087,2.34375,-3.25,-0.171875,289
109,1696253686724,-0.44921875,-0.14263916,-0.864563,-0.296875,-1.734375,0.21875,290
110,1696253686764,-0.4560547,-0.14434814,-0.8699341,-1.609375,-1.890625,0.5625,291
111,1696253686804,-0.44458008,-0.1404419,-0.86920166,-4.09375,0.40625,0.796875,292
112,1696253686844,-0.42041016,-0.17120361,-1.0305786,-12.9375,7.6875,-1.078125,293
113,1696253686884,-0.4885254,-0.17510986,-0.8052368,-8.5625,-9.671875,-16.515625,294
114,1696253686924,-0.52197266,-0.15142822,-0.75250244,4.359375,2.421875,-0.609375,295
115,1696253686964,-0.45874023,-0.15875244,-0.75177,3.96875,-0.859375,1.84375,296
116,1696253687004,-0.42529297,-0.1519165,-0.78375244,4.375,1.375,5.078125,297
117,1696253687044,-0.4489746,-0.15875244,-0.9014282,2.78125,3.328125,2.8125,298
118,1696253687084,-0.4411621,-0.14556885,-0.9299927,0.109375,-1.375,0.25,299
119,1696253687124,-0.4494629,-0.15826416,-0.8933716,-1.0625,-1.25,0.375,300
120,1696253687164,-0.45996094,-0.16680908,-0.87872314,-1.296875,-1.3125,0.6875,301
121,1696253687204,-0.45410156,-0.14752197,-0.88116455,-3.03125,0.03125,0.890625,302
122,1696253687244,-0.39282227,-0.14459229,-0.8428345,-11.4375,7.6875,-1.96875,303
123,1696253687284,-0.501709,-0.18756104,-0.84869385,-4.21875,-4.71875,-6.71875,304
124,1696253687324,-0.43359375,-0.1494751,-0.7788696,4.09375,-1.015625,1.125,305
125,1696253687364,-0.4428711,-0.16021729,-0.77008057,4.0625,-3.65625,2.484375,306
126,1696253687404,-0.44628906,-0.16680908,-0.8616333,5.09375,1.53125,3.0,307
127,1696253687444,-0.43896484,-0.1638794,-0.88067627,3.28125,0.296875,1.03125,308
128,1696253687484,-0.46289062,-0.15289307,-0.92193604,1.421875,-1.421875,-0.328125,309
129,1696253687524,-0.4572754,-0.16119385,-0.8916626,-0.46875,-0.265625,0.109375,310
130,1696253687564,-0.45410156,-0.15142822,-0.8533325,-1.328125,0.859375,0.328125,311
131,1696253687604,-0.4741211,-0.14630127,-0.9002075,-8.203125,3.640625,1.578125,312
132,1696253687644,-0.37524414,-0.175354,-0.8518677,-5.640625,1.828125,-5.140625,313
133,1696253687684,-0.5007324,-0.18902588,-0.7752075,2.421875,-2.421875,-0.296875,314
134,1696253687724,-0.44677734,-0.15460205,-0.76763916,3.515625,-1.484375,1.78125,315
135,1696253687764,-0.4387207,-0.16851807,-0.81256104,3.84375,-2.234375,0.859375,316
136,1696253687804,-0.45947266,-0.15655518,-0.8574829,5.125,-2.796875,0.453125,317
137,1696253687844,-0.47583008,-0.1585083,-0.8965454,6.15625,-1.421875,0.6875,318
138,1696253687884,-0.46826172,-0.14874268,-0.8596802,7.390625,-1.25,1.75,319
139,1696253687924,-0.42895508,-0.14752197,-0.85821533,8.5,-4.59375,1.78125,320
140,1696253687964,-0.44140625,-0.1116333,-0.8850708,6.015625,-1.09375,0.78125,321
141,1696253688004,-0.43920898,-0.11920166,-0.86187744,1.46875,2.125,0.640625,322
142,1696253688044,-0.45654297,-0.12237549,-0.85479736,1.015625,0.953125,0.8125,323
143,1696253688084,-0.45263672,-0.121154785,-0.8858032,0.15625,0.15625,1.15625,324
144,1696253688124,-0.4477539,-0.12164307,-0.8567505,0.09375,1.546875,1.0,325
145,1696253688164,-0.45141602,-0.120666504,-0.8682251,-0.53125,0.59375,0.546875,326
146,1696253688204,-0.4501953,-0.117492676,-0.866272,-0.515625,0.40625,0.46875,327
147,1696253688244,-0.46166992,-0.12261963,-0.86846924,-0.84375,-1.015625,0.5,328
148,1696253688284,-0.4506836,-0.11968994,-0.8635864,-1.984375,-2.09375,0.46875,329
149,1696253688324,-0.43823242,-0.12994385,-0.83428955,-1.90625,-1.828125,0.265625,330
150,1696253688364,-0.44482422,-0.1350708,-0.8311157,-2.9375,-1.03125,0.203125,331
151,1696253688404,-0.45336914,-0.13922119,-0.8687134,-2.671875,-1.515625,0.8125,332
152,1696253688444,-0.4453125,-0.14508057,-0.8804321,1.140625,-1.046875,0.53125,333
153,1696253688484,-0.42163086,-0.13531494,-0.8233032,2.609375,-0.75,0.625,334
154,1696253688524,-0.42871094,-0.12945557,-0.8718872,-3.484375,1.984375,1.421875,335
155,1696253688564,-0.48388672,-0.14874268,-0.8755493,-8.75,4.625,2.1875,336
156,1696253688604,-0.45361328,-0.1531372,-0.8526001,-7.8125,3.234375,0.625,337
157,1696253688644,-0.4621582,-0.16900635,-0.79644775,-4.625,4.703125,-1.40625,338
158,1696253688684,-0.43603516,-0.1531372,-0.7835083,0.9375,-0.84375,-0.40625,339
159,1696253688724,-0.4645996,-0.15264893,-0.7839966,3.6875,0.65625,-0.109375,340
160,1696253688764,-0.45214844,-0.16705322,-0.81500244,3.34375,-4.4375,1.390625,341
161,1696253688804,-0.4494629,-0.15484619,-0.8916626,2.1875,-0.1875,1.484375,342
162,1696253688844,-0.4711914,-0.159729,-0.90411377,-0.484375,-1.09375,0.359375,343
163,1696253688884,-0.4753418,-0.16070557,-0.9295044,-0.015625,-2.0625,0.328125,344
164,1696253688924,-0.45751953,-0.14385986,-0.8225708,-2.734375,0.25,0.703125,345
165,1696253688964,-0.43286133,-0.15802002,-0.8389282,-8.4375,4.109375,-0.953125,346
166,1696253689004,-0.4633789,-0.1873169,-0.86676025,-3.71875,-6.515625,-6.46875,347
167,1696253689044,-0.4345703,-0.14703369,-0.7920532,2.25,1.5625,-0.21875,348
168,1696253689084,-0.44433594,-0.15948486,-0.7798462,1.0,-1.546875,0.90625,349
169,1696253689124,-0.45703125,-0.16461182,-0.81988525,3.90625,-0.25,0.78125,350
170,1696253689164,-0.4580078,-0.16314697,-0.88360596,3.765625,-1.234375,0.171875,351
171,1696253689204,-0.4794922,-0.15777588,-0.93048096,0.984375,0.109375,0.65625,352
172,1696253689244,-0.47509766,-0.15704346,-0.8909302,-0.765625,-1.140625,0.46875,353
173,1696253689284,-0.45947266,-0.15142822,-0.8960571,-3.078125,-0.390625,1.078125,354
174,1696253689324,-0.29174805,-0.13653564,-0.8015747,-10.625,2.171875,-5.65625,355
175,1696253689364,-0.48901367,-0.19488525,-0.8406372,-5.46875,-4.9375,-10.328125,356
176,1696253689404,-0.4284668,-0.1453247,-0.7817993,4.296875,-1.859375,0.046875,357
177,1696253689444,-0.44555664,-0.16241455,-0.772522,4.234375,-3.796875,0.984375,358
178,1696253689484,-0.4572754,-0.15582275,-0.8609009,8.15625,-2.3125,2.609375,359
179,1696253689524,-0.43432617,-0.14923096,-0.85357666,4.21875,1.578125,3.59375,360
180,1696253689564,-0.4560547,-0.14556885,-0.9631958,2.3125,-1.171875,0.6875,361
181,1696253689604,-0.47924805,-0.14337158,-0.960022,-2.625,-1.359375,0.8125,362
182,1696253689644,-0.44458008,-0.1531372,-1.019104,-9.53125,3.671875,0.234375,363
183,1696253689684,-0.2541504,-0.15484619,-0.7774048,-18.453125,-6.71875,-18.21875,364
184,1696253689724,-0.6130371,-0.18707275,-0.7810669,0.09375,-0.5625,-12.984375,365
185,1696253689764,-0.43896484,-0.15460205,-0.81134033,6.0625,-7.125,1.546875,366
186,1696253689804,-0.44458008,-0.15484619,-0.7383423,3.453125,0.203125,6.359375,367
187,1696253689844,-0.44335938,-0.1663208,-0.847229,5.59375,0.265625,5.3125,368
188,1696253689884,-0.44921875,-0.15216064,-0.92022705,4.765625,2.21875,4.078125,369
189,1696253689924,-0.45361328,-0.14727783,-0.91973877,-0.15625,1.375,0.28125,370
190,1696253689964,-0.4658203,-0.15948486,-0.95684814,-4.28125,2.859375,0.046875,371
191,1696253690004,-0.31567383,-0.16680908,-0.8670044,-13.84375,-2.578125,-11.65625,372
192,1696253690044,-0.53344727,-0.18414307,-0.8616333,-3.234375,-6.296875,-8.546875,373
193,1696253690084,-0.5686035,-0.17266846,-0.7022095,-0.75,2.375,-3.046875,374
194,1696253690124,-0.4333496,-0.14874268,-0.7913208,2.5,-2.484375,3.625,375
195,1696253690164,-0.43579102,-0.17218018,-0.8303833,4.671875,-2.75,2.640625,376
196,1696253690204,-0.45483398,-0.15924072,-0.8555298,4.703125,0.15625,3.765625,377
197,1696253690244,-0.45458984,-0.16192627,-0.8677368,5.15625,-0.203125,2.875,378
198,1696253690284,-0.45581055,-0.15142822,-0.87945557,6.703125,-1.5,3.328125,379
199,1696253690324,-0.47460938,-0.14801025,-0.8665161,8.703125,-2.140625,2.921875,380
200,1696253690364,-0.44726562,-0.1350708,-0.8323364,8.90625,-0.9375,3.703125,381
201,1696253690404,-0.45263672,-0.13653564,-0.8706665,6.296875,-1.0625,2.953125,382
202,1696253690444,-0.45898438,-0.12872314,-0.86846924,4.78125,0.015625,4.28125,383
203,1696253690484,-0.4326172,-0.12261963,-0.8657837,2.65625,-0.03125,4.1875,384
204,1696253690524,-0.43579102,-0.12213135,-0.8880005,-0.0625,-1.546875,2.875,385
205,1696253690564,-0.4169922,-0.11187744,-0.9077759,2.015625,-1.90625,1.421875,386
206,1696253690604,-0.43530273,-0.116760254,-0.84625244,0.921875,1.40625,1.046875,387
207,1696253690644,-0.43920898,-0.11846924,-0.8821411,0.484375,0.515625,0.3125,388
208,1696253690684,-0.44189453,-0.12652588,-0.8740845,-0.484375,-0.171875,0.59375,389
209,1696253690724,-0.46313477,-0.128479,-0.8599243,-0.484375,-0.203125,1.390625,390
210,1696253690764,-0.44311523,-0.13165283,-0.8569946,-0.9375,1.34375,0.953125,391
211,1696253690804,-0.4321289,-0.120910645,-0.8623657,-1.6875,0.15625,0.8125,392
212,1696253690844,-0.44555664,-0.12310791,-0.8706665,-2.40625,-1.203125,0.375,393
213,1696253690884,-0.45385742,-0.13653564,-0.86309814,-2.546875,-1.0625,0.171875,394
214,1696253690924,-0.44799805,-0.13946533,-0.85235596,-2.921875,-1.25,0.09375,395
215,1696253690964,-0.42260742,-0.12921143,-0.86187744,-1.109375,-2.25,0.84375,396
216,1696253691004,-0.43823242,-0.13873291,-0.8740845,2.25,-0.890625,0.984375,397
217,1696253691044,-0.40454102,-0.1260376,-0.80792236,-0.234375,0.234375,1.265625,398
218,1696253691084,-0.46020508,-0.13922119,-0.91119385,-4.9375,5.015625,2.390625,399
219,1696253691124,-0.46411133,-0.15362549,-1.0193481,-5.90625,-0.046875,1.390625,400
220,1696253691164,-0.4284668,-0.14556885,-0.81451416,-3.6875,5.734375,-2.0,401
221,1696253691204,-0.4543457,-0.14581299,-0.71588135,-2.8125,-1.40625,-2.109375,402
222,1696253691244,-0.45776367,-0.13653564,-0.8401489,1.40625,-0.359375,0.15625,403
223,1696253691284,-0.45092773,-0.15460205,-0.8032837,0.65625,-2.046875,0.34375,404
224,1696253691324,-0.4411621,-0.16436768,-0.8796997,1.625,-1.25,0.5625,405
225,1696253691364,-0.45654297,-0.1494751,-0.8987427,-1.0,-0.84375,0.59375,406
226,1696253691404,-0.46704102,-0.14874268,-0.9026489,-0.25,-2.015625,0.234375,407
227,1696253691444,-0.46972656,-0.14434814,-0.86383057,-1.15625,0.09375,0.609375,408
228,1696253691484,-0.44506836,-0.15411377,-0.848938,-2.984375,-0.84375,0.234375,409
229,1696253691524,-0.4333496,-0.15240479,-0.9351196,-4.65625,2.375,-0.171875,410
230,1696253691564,-0.46240234,-0.16778564,-0.7595825,-1.546875,-0.9375,-4.9375,411
231,1696253691604,-0.4790039,-0.16949463,-0.78692627,-0.4375,-0.078125,-0.734375,412
232,1696253691644,-0.45581055,-0.15093994,-0.7949829,2.265625,-0.40625,0.1875,413
233,1696253691684,-0.45288086,-0.16046143,-0.8640747,4.578125,-1.921875,0.3125,414
234,1696253691724,-0.45507812,-0.14678955,-0.85601807,3.0,-0.546875,0.71875,415
235,1696253691764,-0.44995117,-0.14434814,-0.9168091,1.09375,-1.34375,0.40625,416
236,1696253691804,-0.45361328,-0.14361572,-0.8838501,-0.71875,-0.96875,0.453125,417
237,1696253691844,-0.44213867,-0.13897705,-0.8430786,-3.0625,-0.15625,0.765625,418
238,1696253691884,-0.4465332,-0.15509033,-0.894104,-10.859375,4.28125,-0.1875,419
239,1696253691924,-0.4951172,-0.18829346,-0.7727661,-3.328125,-1.21875,-8.328125,420
240,1696253691964,-0.4326172,-0.1416626,-0.8345337,0.953125,0.984375,0.84375,421
241,1696253692004,-0.43969727,-0.16412354,-0.81866455,0.96875,-1.265625,1.21875,422
242,1696253692044,-0.4489746,-0.16998291,-0.8320923,1.6875,0.453125,0.171875,423
243,1696253692084,-0.4609375,-0.16192627,-0.86676025,2.1875,-0.59375,-0.15625,424
244,1696253692124,-0.4650879,-0.15582275,-0.87677,-0.109375,-1.484375,0.296875,425
245,1696253692164,-0.46069336,-0.1531372,-0.8538208,0.421875,-1.078125,0.1875,426
246,1696253692204,-0.4494629,-0.14971924,-0.8513794,-1.171875,-0.9375,0.53125,427
247,1696253692244,-0.4584961,-0.1572876,-0.87384033,-4.625,0.125,0.640625,428
248,1696253692284,-0.40429688,-0.1560669,-0.8374634,-6.0,3.453125,-1.875,429
249,1696253692324,-0.48168945,-0.17803955,-0.8530884,-0.1875,-2.859375,-1.546875,430
250,1696253692364,-0.44433594,-0.1638794,-0.8015747,0.71875,0.375,0.328125,431
251,1696253692404,-0.45703125,-0.16925049,-0.83477783,2.109375,-1.515625,0.0625,432
252,1696253692444,-0.45385742,-0.16217041,-0.86724854,2.484375,-0.546875,0.453125,433
253,1696253692484,-0.45703125,-0.16070557,-0.8633423,1.4375,-1.765625,0.03125,434
254,1696253692524,-0.45898438,-0.16607666,-0.89727783,-0.0625,-0.984375,0.1875,435
255,1696253692564,-0.453125,-0.1416626,-0.8550415,-3.390625,0.65625,0.609375,436
256,1696253692604,-0.4140625,-0.15631104,-0.8755493,-6.90625,-2.25,-2.953125,437
257,1696253692644,-0.48657227,-0.1843872,-0.8323364,-6.375,1.359375,-3.15625,438
258,1696253692684,-0.4362793,-0.17706299,-0.8616333,3.484375,-3.515625,0.640625,439
259,1696253692724,-0.43652344,-0.16534424,-0.7461548,0.734375,-1.078125,0.75,440
260,1696253692764,-0.453125,-0.175354,-0.8345337,4.34375,-2.515625,-0.5,441
261,1696253692804,-0.45532227,-0.16827393,-0.8362427,6.15625,-3.609375,0.3125,442
262,1696253692844,-0.46020508,-0.16168213,-0.8862915,9.984375,-4.75,1.5,443
263,1696253692884,-0.4267578,-0.13970947,-0.83795166,10.734375,-0.625,2.703125,444
264,1696253692924,-0.47851562,-0.12652588,-0.86846924,11.609375,0.1875,4.046875,445
265,1696253692964,-0.45288086,-0.109436035,-0.8735962,8.1875,1.71875,5.109375,446
266,1696253693004,-0.453125,-0.11871338,-0.9085083,4.71875,3.4375,5.328125,447
267,1696253693044,-0.40405273,-0.116760254,-0.8616333,2.046875,1.375,4.046875,448
268,1696253693084,-0.45141602,-0.117492676,-0.8674927,0.140625,-0.34375,2.3125,449
269,1696253693124,-0.44262695,-0.11578369,-0.8587036,-0.703125,-1.171875,1.75,450
270,1696253693164,-0.44799805,-0.12359619,-0.84942627,-0.96875,-1.1875,1.375,451
271,1696253693204,-0.44628906,-0.11895752,-0.84747314,-0.765625,-0.8125,0.96875,452
272,1696253693244,-0.45361328,-0.11627197,-0.8555298,-1.09375,-0.984375,1.140625,453
273,1696253693284,-0.4428711,-0.12286377,-0.8743286,-2.640625,-1.625,0.9375,454
274,1696253693324,-0.45703125,-0.12872314,-0.8682251,-3.703125,-2.34375,1.21875,455
275,1696253693364,-0.4506836,-0.13677979,-0.85284424,-3.078125,-2.375,1.15625,456
276,1696253693404,-0.43896484,-0.1350708,-0.8442993,-1.953125,-1.921875,1.078125,457
277,1696253693444,-0.43945312,-0.13482666,-0.86920166,-0.671875,-1.53125,1.765625,458
278,1696253693484,-0.42626953,-0.13677979,-0.87213135,2.3125,-0.9375,1.703125,459
279,1696253693524,-0.4104004,-0.12945557,-0.75787354,1.265625,0.265625,1.71875,460
280,1696253693564,-0.44018555,-0.14337158,-0.8689575,-6.21875,2.765625,3.609375,461
281,1696253693604,-0.4638672,-0.1638794,-0.9570923,-1.359375,7.15625,1.421875,462
282,1696253693644,-0.46948242,-0.14068604,-0.9024048,0.453125,4.5,0.046875,463
283,1696253693684,-0.4465332,-0.14898682,-0.8513794,-1.75,0.09375,0.046875,464
284,1696253693724,-0.44482422,-0.14215088,-0.8335571,-2.34375,-2.78125,0.609375,465
285,1696253693764,-0.43798828,-0.15826416,-0.8171997,-0.09375,-1.703125,0.296875,466
286,1696253693804,-0.45239258,-0.15509033,-0.82647705,1.640625,-1.421875,-0.109375,467
287,1696253693844,-0.44433594,-0.15118408,-0.84625244,0.359375,-1.125,0.1875,468
288,1696253693884,-0.46191406,-0.15216064,-0.88287354,-0.125,-1.3125,0.375,469
289,1696253693924,-0.46606445,-0.14971924,-0.8945923,-0.359375,-0.453125,0.328125,470
290,1696253693964,-0.44482422,-0.15338135,-0.84381104,-0.796875,-0.4375,0.390625,471
291,1696253694004,-0.4416504,-0.15509033,-0.895813,-3.78125,-0.859375,0.734375,472
292,1696253694044,-0.44213867,-0.15704346,-0.85894775,-0.5,-0.90625,0.015625,473
293,1696253694084,-0.44628906,-0.16583252,-0.8440552,-0.25,-0.890625,0.1875,474
294,1696253694124,-0.43066406,-0.15240479,-0.8023071,0.171875,-1.203125,0.0625,475
295,1696253694164,-0.44189453,-0.14898682,-0.8430786,0.890625,-1.921875,-0.046875,476
296,1696253694204,-0.46118164,-0.16119385,-0.8899536,0.609375,-1.28125,0.515625,477
297,1696253694244,-0.4501953,-0.15045166,-0.9175415,1.265625,0.640625,0.1875,478
298,1696253694284,-0.4736328,-0.15362549,-0.9873657,1.921875,4.4375,0.4375,479
299,1696253694324,-0.44604492,-0.1519165,-0.8491821,-1.890625,-0.1875,0.859375,480
300,1696253694364,-0.43847656,-0.16436768,-0.85406494,-5.09375,1.03125,0.9375,481
301,1696253694404,-0.4404297,-0.16119385,-0.7197876,-3.421875,1.578125,-0.609375,482
302,1696253694444,-0.4411621,-0.16851807,-0.79693604,-0.03125,-0.609375,-0.875,483
303,1696253694484,-0.43701172,-0.16290283,-0.786438,1.625,1.078125,-0.125,484
304,1696253694524,-0.45703125,-0.16534424,-0.8496704,2.09375,-0.34375,-0.21875,485
305,1696253694564,-0.46435547,-0.15533447,-0.85772705,3.71875,0.125,-0.3125,486
306,1696253694604,-0.46118164,-0.15386963,-0.8753052,3.59375,-1.21875,-0.25,487
307,1696253694644,-0.4650879,-0.1494751,-0.89141846,0.9375,-1.546875,0.046875,488
308,1696253694684,-0.46313477,-0.15020752,-0.8543091,-0.5,-0.84375,0.453125,489
309,1696253694724,-0.45458984,-0.15411377,-0.86676025,-4.234375,-2.0,1.3125,490
310,1696253694764,-0.45654297,-0.15655518,-0.80474854,-5.09375,1.109375,1.28125,491
311,1696253694804,-0.45239258,-0.18414307,-0.8550415,-1.609375,-1.4375,-0.03125,492
312,1696253694844,-0.41601562,-0.15118408,-0.76397705,1.046875,2.03125,-0.09375,493
313,1696253694884,-0.44335938,-0.16265869,-0.835022,4.4375,-0.21875,-0.734375,494
314,1696253694924,-0.45483398,-0.14996338,-0.82476807,5.078125,-0.28125,-1.015625,495
315,1696253694964,-0.46020508,-0.14996338,-0.90460205,1.171875,-0.296875,0.0,496
316,1696253695004,-0.47314453,-0.15216064,-0.8858032,-1.0625,-0.484375,0.296875,497
317,1696253695044,-0.46484375,-0.15631104,-0.8574829,-3.9375,-1.03125,1.171875,498
318,1696253695084,-0.46801758,-0.1651001,-0.9841919,-12.359375,0.0,2.359375,499
319,1696253695124,-0.41455078,-0.14678955,-0.85040283,-7.28125,-7.296875,-2.203125,500
320,1696253695164,-0.44360352,-0.20733643,-0.88897705,2.1875,-4.96875,-3.484375,501
321,1696253695204,-0.39282227,-0.17071533,-0.66534424,0.890625,1.515625,0.46875,502
322,1696253695244,-0.4296875,-0.17095947,-0.83673096,4.0,0.640625,0.09375,503
323,1696253695284,-0.42529297,-0.16583252,-0.7608032,4.296875,-1.421875,-0.765625,504
324,1696253695324,-0.4506836,-0.16021729,-0.9512329,4.0,-2.453125,-1.09375,505
325,1696253695364,-0.4663086,-0.1404419,-0.8887329,0.28125,-0.703125,-0.71875,506
326,1696253695404,-0.46362305,-0.16925049,-0.9043579,-0.84375,-2.28125,0.09375,507
327,1696253695444,-0.45166016,-0.15802002,-0.8545532,1.046875,-1.140625,0.125,508
328,1696253695484,-0.42382812,-0.15997314,-0.83135986,4.015625,-0.296875,0.171875,509
329,1696253695524,-0.41845703,-0.15777588,-0.83843994,4.796875,-1.15625,0.03125,510
330,1696253695564,-0.42773438,-0.13922119,-0.8596802,3.484375,-2.125,-0.140625,511
331,1696253695604,-0.42822266,-0.12823486,-0.86505127,1.234375,-1.203125,0.125,512
332,1696253695644,-0.43896484,-0.144104,-0.8735962,0.1875,-0.859375,0.078125,513
333,1696253695684,-0.45385742,-0.13116455,-0.8970337,0.28125,-1.21875,0.171875,514
334,1696253695724,-0.4501953,-0.13653564,-0.8809204,-0.8125,-1.203125,0.46875,515
335,1696253695764,-0.43481445,-0.15167236,-0.880188,-1.34375,-2.296875,0.34375,516
336,1696253695804,-0.42041016,-0.14093018,-0.8460083,-0.234375,-1.375,0.0625,517
337,1696253695844,-0.4255371,-0.13555908,-0.8640747,-1.234375,-2.328125,0.265625,518
338,1696253695884,-0.42797852,-0.1428833,-0.87335205,-1.1875,-2.28125,0.625,519
339,1696253695924,-0.4272461,-0.15240479,-0.87677,-1.84375,-2.390625,0.703125,520
340,1696253695964,-0.40478516,-0.14434814,-0.8491821,0.265625,-1.375,0.6875,521
341,1696253696004,-0.3918457,-0.13897705,-0.77960205,-2.703125,3.171875,1.0625,522
342,1696253696044,-0.50512695,-0.16827393,-1.0193481,-6.15625,1.78125,2.25,523
343,1696253696084,-0.4140625,-0.15557861,-0.8587036,-3.828125,3.65625,0.71875,524
344,1696253696124,-0.4272461,-0.1819458,-0.7737427,-2.59375,-0.421875,-0.34375,525
345,1696253696164,-0.40039062,-0.1506958,-0.77423096,1.25,0.125,-0.328125,526
346,1696253696204,-0.42700195,-0.1609497,-0.8296509,0.859375,-0.8125,-0.484375,527
347,1696253696244,-0.42651367,-0.17803955,-0.85406494,3.96875,-0.40625,-0.125,528
348,1696253696284,-0.4387207,-0.1609497,-0.8977661,1.546875,-1.390625,0.421875,529
349,1696253696324,-0.45410156,-0.15142822,-0.9180298,0.09375,-1.40625,0.34375,530
350,1696253696364,-0.453125,-0.16021729,-0.9043579,-1.09375,-0.234375,0.765625,531
351,1696253696404,-0.43530273,-0.16119385,-0.9060669,-2.578125,1.15625,1.203125,532
352,1696253696444,-0.4243164,-0.16265869,-0.90045166,-4.59375,2.65625,0.453125,533
353,1696253696484,-0.42089844,-0.1921997,-0.8464966,-2.1875,-2.078125,-3.65625,534
354,1696253696524,-0.42529297,-0.16119385,-0.75738525,1.40625,2.046875,-0.265625,535
355,1696253696564,-0.43798828,-0.16827393,-0.7883911,2.9375,-0.359375,-0.3125,536
356,1696253696604,-0.44677734,-0.17364502,-0.8364868,5.1875,-1.453125,-0.046875,537
357,1696253696644,-0.45141602,-0.15875244,-0.9092407,1.90625,-0.90625,0.484375,538
358,1696253696684,-0.44970703,-0.15435791,-0.9241333,-0.359375,-0.890625,0.421875,539
359,1696253696724,-0.45922852,-0.16558838,-0.92437744,-3.25,-3.03125,0.828125,540
360,1696253696764,-0.4501953,-0.1716919,-0.85528564,-7.21875,-0.53125,0.484375,541
361,1696253696804,-0.35888672,-0.15557861,-0.7678833,-6.796875,-1.03125,-3.25,542
362,1696253696844,-0.4621582,-0.16827393,-0.84942627,2.53125,-0.015625,-1.1875,543
363,1696253696884,-0.42114258,-0.16656494,-0.78863525,-1.671875,-0.84375,0.8125,544
364,1696253696924,-0.41625977,-0.18780518,-0.8220825,2.28125,-0.6875,-0.046875,545
365,1696253696964,-0.43432617,-0.17706299,-0.85821533,3.671875,-0.28125,-0.296875,546
366,1696253697004,-0.45361328,-0.17071533,-0.9260864,2.734375,-0.765625,-0.03125,547
367,1696253697044,-0.45776367,-0.16436768,-0.88848877,0.03125,-0.53125,0.078125,548
368,1696253697084,-0.4477539,-0.16265869,-0.8826294,-0.671875,-0.5,0.375,549
369,1696253697124,-0.4338379,-0.16119385,-0.88531494,-3.65625,3.171875,0.78125,550
370,1696253697164,-0.42529297,-0.17901611,-0.847229,-5.828125,4.734375,-0.015625,551
371,1696253697204,-0.49072266,-0.1921997,-0.83380127,1.796875,-0.15625,-2.4375,552
372,1696253697244,-0.4362793,-0.16070557,-0.82696533,2.40625,1.25,-0.765625,553
373,1696253697284,-0.43237305,-0.16705322,-0.80303955,1.15625,-1.109375,0.0,554
374,1696253697324,-0.4404297,-0.17218018,-0.84088135,2.03125,-1.59375,-0.09375,555
375,1696253697364,-0.44628906,-0.15679932,-0.8740845,2.640625,-0.625,-0.09375,556
376,1696253697404,-0.46118164,-0.16998291,-0.88116455,0.1875,-1.015625,0.203125,557
377,1696253697444,-0.44189453,-0.159729,-0.8491821,-0.0625,0.125,0.421875,558
378,1696253697484,-0.4711914,-0.17706299,-0.894104,-1.8125,0.40625,1.109375,559
379,1696253697524,-0.45336914,-0.16705322,-0.84161377,-5.140625,3.0,1.296875,560
380,1696253697564,-0.41918945,-0.18414307,-0.87384033,-2.421875,0.734375,-0.0625,561
381,1696253697604,-0.4482422,-0.1741333,-0.83013916,-0.140625,-1.09375,-0.078125,562
382,1696253697644,-0.4284668,-0.15533447,-0.7827759,-0.671875,-0.421875,0.34375,563
383,1696253697684,-0.43896484,-0.17681885,-0.87506104,1.4375,-2.09375,-0.234375,564
384,1696253697724,-0.45263672,-0.1663208,-0.84942627,1.421875,-0.578125,-0.28125,565
385,1696253697764,-0.45532227,-0.16558838,-0.8875122,1.453125,-1.5,-0.203125,566
386,1696253697804,-0.4465332,-0.16265869,-0.83184814,4.734375,0.578125,-0.671875,567
387,1696253697844,-0.44628906,-0.16949463,-0.8152466,8.53125,1.25,-0.375,568
388,1696253697884,-0.47192383,-0.14312744,-0.8850708,6.40625,3.1875,0.625,569
389,1696253697924,-0.45361328,-0.13775635,-0.8694458,3.890625,2.9375,0.75,570
390,1696253697964,-0.44848633,-0.1296997,-0.83013916,2.96875,-0.5,0.796875,571
391,1696253698004,-0.45336914,-0.13287354,-0.8562622,1.875,-3.53125,0.484375,572
392,1696253698044,-0.46411133,-0.13580322,-0.86138916,0.796875,-2.0,0.125,573
393,1696253698084,-0.45629883,-0.1272583,-0.86920166,0.390625,-0.984375,0.171875,574
394,1696253698124,-0.4572754,-0.13287354,-0.8587036,-0.375,-0.0625,0.265625,575
395,1696253698164,-0.4658203,-0.14068604,-0.8850708,-1.21875,-2.40625,0.53125,576
396,1696253698204,-0.4489746,-0.12994385,-0.8477173,-0.703125,-1.65625,0.484375,577
397,1696253698244,-0.4465332,-0.1416626,-0.850647,-0.40625,-1.796875,0.515625,578
398,1696253698284,-0.44067383,-0.1375122,-0.8518677,0.0,-0.25,0.6875,579
399,1696253698324,-0.42700195,-0.12042236,-0.8596802,-4.140625,7.84375,2.265625,580
400,1696253698364,-0.54052734,-0.2078247,-1.0574341,-10.546875,-4.015625,3.0,581
401,1696253698404,-0.42871094,-0.15826416,-0.8152466,-0.515625,5.296875,-1.046875,582
402,1696253698444,-0.4477539,-0.13458252,-0.76397705,1.3125,2.078125,-0.8125,583
403,1696253698484,-0.45507812,-0.14215088,-0.76885986,-0.3125,-1.078125,-0.15625,584
404,1696253698524,-0.44726562,-0.1675415,-0.84332275,2.53125,-3.09375,0.0,585
405,1696253698564,-0.4494629,-0.15948486,-0.8706665,1.328125,-0.015625,0.453125,586
406,1696253698604,-0.47509766,-0.14312744,-0.87994385,0.3125,-0.625,0.75,587
407,1696253698644,-0.47021484,-0.16046143,-0.928772,-1.09375,-1.671875,0.71875,588
408,1696253698684,-0.4777832,-0.15582275,-0.9038696,-3.265625,0.0,1.125,589
409,1696253698724,-0.44799805,-0.17315674,-0.911438,-5.40625,1.328125,0.515625,590
410,1696253698764,-0.44506836,-0.17803955,-0.79229736,-1.828125,-0.453125,-1.90625,591
411,1696253698804,-0.4423828,-0.13311768,-0.78326416,-0.703125,2.546875,0.125,592
412,1696253698844,-0.43603516,-0.17510986,-0.8164673,1.140625,0.6875,0.125,593
413,1696253698884,-0.45336914,-0.17803955,-0.8218384,0.65625,-0.890625,-0.125,594
414,1696253698924,-0.4724121,-0.17071533,-0.85040283,2.1875,-1.140625,-0.59375,595
415,1696253698964,-0.48486328,-0.16558838,-0.8945923,4.03125,-2.359375,-0.15625,596
416,1696253699004,-0.45947266,-0.15118408,-0.8430786,0.59375,-1.75,0.296875,597
417,1696253699044,-0.46240234,-0.15289307,-0.864563,-0.984375,-1.609375,0.296875,598
418,1696253699084,-0.47485352,-0.1585083,-0.94366455,-2.40625,1.21875,1.3125,599
419,1696253699124,-0.46801758,-0.16241455,-0.8303833,-6.46875,2.203125,0.625,600
420,1696253699164,-0.43945312,-0.19000244,-0.8345337,-1.4375,-1.28125,-1.609375,601
421,1696253699204,-0.42578125,-0.15142822,-0.77716064,2.46875,3.25,-0.515625,602
422,1696253699244,-0.43969727,-0.1675415,-0.81256104,1.0,-0.875,0.109375,603
423,1696253699284,-0.46728516,-0.16363525,-0.82159424,1.921875,0.484375,-0.234375,604
424,1696253699324,-0.4765625,-0.15997314,-0.88360596,2.515625,-0.8125,0.09375,605
425,1696253699364,-0.47802734,-0.16363525,-0.86798096,0.796875,-0.296875,0.1875,606
426,1696253699404,-0.47070312,-0.1638794,-0.85650635,0.765625,-1.25,-0.09375,607
427,1696253699444,-0.45776367,-0.15411377,-0.82110596,0.71875,-1.265625,-0.3125,608
428,1696253699484,-0.4621582,-0.15460205,-0.85528564,-2.140625,0.3125,0.625,609
429,1696253699524,-0.4765625,-0.15948486,-0.8098755,-5.40625,3.34375,0.6875,610
430,1696253699564,-0.45947266,-0.18463135,-0.9314575,-3.359375,-1.140625,-0.40625,611
431,1696253699604,-0.4489746,-0.15289307,-0.81915283,1.28125,2.546875,0.15625,612
432,1696253699644,-0.44702148,-0.16900635,-0.7835083,-1.40625,-1.234375,0.390625,613
433,1696253699684,-0.4675293,-0.1807251,-0.8394165,0.734375,-0.890625,-0.265625,614
434,1696253699724,-0.46948242,-0.17022705,-0.8340454,2.109375,-1.9375,-1.109375,615
435,1696253699764,-0.46606445,-0.16680908,-0.81378174,6.546875,-3.765625,-1.375,616
436,1696253699804,-0.4519043,-0.15045166,-0.7866821,11.4375,-5.09375,-0.578125,617
437,1696253699844,-0.46411133,-0.13531494,-0.8530884,5.59375,-1.796875,0.140625,618
438,1696253699884,-0.47045898,-0.13287354,-0.9026489,1.9375,-1.90625,0.28125,619
439,1696253699924,-0.46875,-0.144104,-0.9036255,-0.296875,-3.015625,0.34375,620
440,1696253699964,-0.44604492,-0.14434814,-0.878479,0.21875,-1.234375,0.21875,621
441,1696253700004,-0.45361328,-0.1404419,-0.8569946,0.8125,0.140625,-0.078125,622
442,1696253700044,-0.43823242,-0.13092041,-0.85650635,0.5625,-0.6875,-0.109375,623
443,1696253700084,-0.4465332,-0.12408447,-0.83795166,0.375,1.0,0.0,624
444,1696253700124,-0.46118164,-0.12823486,-0.8584595,-0.65625,0.546875,0.40625,625
445,1696253700164,-0.45581055,-0.1326294,-0.84820557,-1.0,0.09375,0.421875,626
446,1696253700204,-0.45776367,-0.14019775,-0.8855591,-1.734375,-2.390625,0.546875,627
447,1696253700244,-0.4580078,-0.13580322,-0.8513794,-0.5625,-1.4375,0.515625,628
448,1696253700284,-0.45288086,-0.13946533,-0.86553955,0.828125,-1.1875,0.671875,629
449,1696253700324,-0.42041016,-0.13702393,-0.84942627,0.03125,0.953125,0.90625,630
450,1696253700364,-0.46166992,-0.12286377,-0.8718872,-8.046875,9.421875,3.171875,631
451,1696253700404,-0.51171875,-0.1897583,-1.0498657,-5.765625,-3.390625,3.4375,632
452,1696253700444,-0.43579102,-0.15753174,-0.7835083,0.21875,8.046875,-0.78125,633
453,1696253700484,-0.44848633,-0.15997314,-0.77130127,0.3125,-1.015625,-0.484375,634
454,1696253700524,-0.45239258,-0.13458252,-0.756897,0.328125,0.359375,-0.6875,635
455,1696253700564,-0.4506836,-0.15167236,-0.8591919,2.703125,-2.59375,-0.09375,636
456,1696253700604,-0.46533203,-0.16314697,-0.8584595,1.0625,-0.59375,0.1875,637
457,1696253700644,-0.4909668,-0.15557861,-0.90338135,-0.890625,-0.5,0.71875,638
458,1696253700684,-0.49072266,-0.15826416,-0.90338135,0.8125,-1.078125,0.59375,639
459,1696253700724,-0.47705078,-0.15631104,-0.9072876,-2.28125,1.125,1.625,640
460,1696253700764,-0.46362305,-0.16021729,-0.8518677,-1.96875,1.15625,0.34375,641
461,1696253700804,-0.44091797,-0.15655518,-0.79351807,0.46875,3.671875,-0.453125,642
462,1696253700844,-0.4423828,-0.15167236,-0.77423096,0.265625,-1.484375,-0.1875,643
463,1696253700884,-0.45581055,-0.14434814,-0.7932739,0.546875,-0.546875,-0.0625,644
464,1696253700924,-0.4724121,-0.15484619,-0.8245239,1.578125,-1.578125,-0.078125,645
465,1696253700964,-0.48608398,-0.1531372,-0.8904419,-0.484375,-1.765625,0.3125,646
466,1696253701004,-0.5024414,-0.15948486,-0.9031372,-1.734375,-0.078125,0.5625,647
467,1696253701044,-0.48388672,-0.15924072,-0.8897095,-1.078125,0.359375,0.875,648
468,1696253701084,-0.45336914,-0.15802002,-0.82891846,-7.21875,5.84375,1.34375,649
469,1696253701124,-0.45092773,-0.18707275,-0.85162354,0.375,-1.78125,-4.359375,650
470,1696253701164,-0.47387695,-0.15362549,-0.78302,1.9375,-0.890625,-2.0,651
471,1696253701204,-0.43725586,-0.13189697,-0.74346924,0.53125,-0.171875,-0.046875,652
472,1696253701244,-0.46606445,-0.15777588,-0.8237915,2.734375,-3.28125,0.078125,653
473,1696253701284,-0.47607422,-0.15386963,-0.85357666,0.9375,-0.171875,-0.015625,654
474,1696253701324,-0.49243164,-0.15338135,-0.91778564,-0.109375,-1.890625,0.4375,655
475,1696253701364,-0.4921875,-0.15753174,-0.87994385,-0.078125,-0.25,0.296875,656
476,1696253701404,-0.48779297,-0.16485596,-0.8960571,-1.8125,0.53125,0.9375,657
477,1696253701444,-0.4885254,-0.16461182,-0.85943604,-5.828125,2.765625,0.984375,658
478,1696253701484,-0.43530273,-0.16998291,-0.82476807,-4.40625,2.453125,-3.71875,659
479,1696253701524,-0.4807129,-0.16973877,-0.7827759,0.765625,-4.359375,-0.359375,660
480,1696253701564,-0.44091797,-0.15655518,-0.7576294,1.75,-1.28125,-0.140625,661
481,1696253701604,-0.46533203,-0.16461182,-0.8479614,4.0625,-3.671875,-0.359375,662
482,1696253701644,-0.48706055,-0.1519165,-0.85821533,0.953125,-2.0625,0.28125,663
483,1696253701684,-0.48950195,-0.16412354,-0.8982544,0.671875,-0.265625,0.125,664
484,1696253701724,-0.49316406,-0.15948486,-0.92193604,-1.984375,1.15625,0.984375,665
485,1696253701764,-0.47753906,-0.18048096,-0.9663696,-8.21875,3.34375,0.59375,666
486,1696253701804,-0.42944336,-0.15997314,-0.86676025,-5.1875,0.8125,-5.921875,667
487,1696253701844,-0.52905273,-0.18829346,-0.71881104,2.734375,-2.59375,-1.828125,668
488,1696253701884,-0.4465332,-0.15704346,-0.78253174,3.0,-1.421875,-0.328125,669
489,1696253701924,-0.46044922,-0.16070557,-0.7905884,2.484375,-4.125,0.203125,670
490,1696253701964,-0.46728516,-0.16143799,-0.8435669,2.65625,-5.53125,0.21875,671
491,1696253702004,-0.4597168,-0.15435791,-0.8621216,7.015625,-6.296875,0.15625,672
492,1696253702044,-0.46044922,-0.1428833,-0.8430786,8.796875,-2.125,1.03125,673
493,1696253702084,-0.46948242,-0.13604736,-0.9065552,5.859375,0.96875,1.578125,674
494,1696253702124,-0.48266602,-0.13604736,-0.88482666,3.359375,2.75,0.984375,675
495,1696253702164,-0.46362305,-0.13140869,-0.85113525,1.78125,0.265625,2.03125,676
496,1696253702204,-0.44921875,-0.12677002,-0.84869385,1.5,-0.59375,2.078125,677
497,1696253702244,-0.4465332,-0.12530518,-0.84552,0.40625,-0.609375,0.984375,678
498,1696253702284,-0.45043945,-0.13214111,-0.8562622,-0.234375,-0.65625,0.875,679
499,1696253702324,-0.4567871,-0.13165283,-0.85772705,-0.28125,-0.203125,0.53125,680
500,1696253702364,-0.4621582,-0.1272583,-0.8591919,0.25,0.1875,0.4375,681
501,1696253702404,-0.4658203,-0.12896729,-0.86383057,-0.140625,-0.15625,0.5,682
502,1696253702444,-0.46191406,-0.13140869,-0.8557739,-1.0625,-0.140625,0.65625,683
503,1696253702484,-0.46801758,-0.13311768,-0.864563,-2.265625,-1.5625,0.46875,684
504,1696253702524,-0.46044922,-0.13946533,-0.8550415,-2.78125,-2.71875,0.390625,685
505,1696253702564,-0.45336914,-0.13580322,-0.8508911,-1.78125,-2.890625,0.078125,686
506,1696253702604,-0.44702148,-0.1416626,-0.82940674,-1.296875,-2.375,0.078125,687
507,1696253702644,-0.4519043,-0.14556885,-0.8479614,-1.171875,-2.3125,0.484375,688
508,1696253702684,-0.4543457,-0.15045166,-0.8882446,2.078125,-0.859375,0.578125,689
509,1696253702724,-0.4248047,-0.14141846,-0.8189087,4.421875,0.265625,0.75,690
510,1696253702764,-0.4411621,-0.13092041,-0.81207275,-2.453125,2.78125,1.71875,691
511,1696253702804,-0.47924805,-0.1482544,-0.9248657,-10.6875,6.53125,3.890625,692
512,1696253702844,-0.45751953,-0.16339111,-0.98760986,-7.4375,-2.796875,2.9375,693
513,1696253702884,-0.4260254,-0.15582275,-0.7827759,-1.078125,2.203125,-0.828125,694
514,1696253702924,-0.4555664,-0.14654541,-0.76446533,0.90625,-3.6875,-1.703125,695
515,1696253702964,-0.4404297,-0.1453247,-0.7810669,1.484375,-1.578125,-0.265625,696
516,1696253703004,-0.43286133,-0.15704346,-0.8057251,0.9375,-4.03125,-0.046875,697
517,1696253703044,-0.43920898,-0.17120361,-0.8491821,3.703125,0.1875,0.171875,698
518,1696253703084,-0.44726562,-0.14727783,-0.8965454,-0.46875,-0.828125,0.6875,699
519,1696253703124,-0.46728516,-0.15460205,-0.9590454,-1.15625,-1.234375,0.53125,700
520,1696253703164,-0.47045898,-0.1531372,-0.8899536,-1.96875,1.0625,0.984375,701
521,1696253703204,-0.46118164,-0.19000244,-0.93951416,-9.546875,1.265625,1.734375,702
522,1696253703244,-0.38916016,-0.16705322,-0.7383423,-5.8125,-1.6875,-4.734375,703
523,1696253703284,-0.4543457,-0.16680908,-0.77911377,3.625,0.796875,-2.03125,704
524,1696253703324,-0.4267578,-0.1572876,-0.7324829,1.84375,0.40625,-0.203125,705
525,1696253703364,-0.4494629,-0.17437744,-0.85040283,3.03125,-2.953125,0.375,706
526,1696253703404,-0.46069336,-0.1716919,-0.8591919,3.640625,-0.875,0.203125,707
527,1696253703444,-0.45996094,-0.15631104,-0.8999634,-0.328125,-0.171875,0.4375,708
528,1696253703484,-0.4807129,-0.1560669,-0.9402466,-0.9375,-0.9375,0.5625,709
529,1696253703524,-0.45874023,-0.1585083,-0.9146118,-4.65625,-2.140625,1.96875,710
530,1696253703564,-0.44995117,-0.1609497,-0.86138916,-5.421875,0.234375,-0.046875,711
531,1696253703604,-0.46362305,-0.18536377,-0.8040161,-2.140625,-0.609375,-2.96875,712
532,1696253703644,-0.40649414,-0.15386963,-0.7390747,0.90625,-0.09375,0.15625,713
533,1696253703684,-0.41455078,-0.17681885,-0.78741455,1.234375,-0.046875,0.046875,714
534,1696253703724,-0.44433594,-0.17706299,-0.84503174,2.0,-0.703125,-0.28125,715
535,1696253703764,-0.46044922,-0.1675415,-0.87506104,2.125,-0.625,-0.234375,716
536,1696253703804,-0.47802734,-0.175354,-0.9487915,0.359375,-0.25,0.125,717
537,1696253703844,-0.48046875,-0.16241455,-0.90167236,-1.265625,-0.59375,0.421875,718
538,1696253703884,-0.48168945,-0.18121338,-0.9299927,-4.5625,2.21875,0.828125,719
539,1696253703924,-0.4267578,-0.17071533,-0.7984009,-2.6875,-1.484375,-4.890625,720
540,1696253703964,-0.44433594,-0.17559814,-0.82647705,1.875,-0.125,-1.375,721
541,1696253704004,-0.42138672,-0.175354,-0.7659302,0.015625,-0.421875,-0.03125,722
542,1696253704044,-0.4296875,-0.17364502,-0.80596924,1.640625,0.1875,-0.25,723
543,1696253704084,-0.45092773,-0.16485596,-0.84039307,3.234375,-1.734375,-0.515625,724
544,1696253704124,-0.47607422,-0.16143799,-0.90704346,2.125,-1.703125,-0.171875,725
545,1696253704164,-0.4819336,-0.15655518,-0.89678955,-0.015625,-0.8125,0.5,726
546,1696253704204,-0.4638672,-0.16143799,-0.87384033,-2.140625,-0.578125,0.65625,727
547,1696253704244,-0.45507812,-0.16680908,-0.9216919,-6.75,2.40625,1.015625,728
548,1696253704284,-0.41357422,-0.1963501,-0.83966064,-4.390625,-4.03125,-5.21875,729
549,1696253704324,-0.4440918,-0.16680908,-0.8250122,0.78125,0.0,-2.546875,730
550,1696253704364,-0.41870117,-0.15411377,-0.74786377,0.234375,-0.671875,-0.78125,731
551,1696253704404,-0.45654297,-0.17022705,-0.8616333,1.828125,-1.28125,-0.453125,732
552,1696253704444,-0.45629883,-0.1585083,-0.847229,3.09375,-1.59375,-0.28125,733
553,1696253704484,-0.45410156,-0.16973877,-0.8501587,7.53125,-2.515625,-0.265625,734
554,1696253704524,-0.453125,-0.14874268,-0.84088135,9.59375,-5.046875,0.640625,735
555,1696253704564,-0.44262695,-0.13775635,-0.86846924,7.671875,-0.515625,0.4375,736
556,1696253704604,-0.45532227,-0.13482666,-0.86505127,3.65625,2.28125,1.953125,737
557,1696253704644,-0.43530273,-0.13018799,-0.8604126,1.46875,-0.734375,2.0,738
558,1696253704684,-0.4416504,-0.13336182,-0.87872314,0.078125,-1.765625,1.265625,739
559,1696253704724,-0.4506836,-0.13482666,-0.8648071,0.828125,-0.625,0.734375,740
560,1696253704764,-0.4489746,-0.13140869,-0.8723755,1.0625,-0.84375,0.609375,741
561,1696253704804,-0.4482422,-0.12530518,-0.8545532,1.890625,0.875,0.40625,742
562,1696253704844,-0.4621582,-0.12799072,-0.88116455,0.328125,-0.046875,0.46875,743
563,1696253704884,-0.45654297,-0.13409424,-0.881897,-0.984375,-1.109375,0.9375,744
564,1696253704924,-0.4465332,-0.12945557,-0.850647,-1.171875,-0.640625,1.21875,745
565,1696253704964,-0.43310547,-0.13482666,-0.84381104,-1.03125,-0.6875,1.15625,746
566,1696253705004,-0.42333984,-0.12994385,-0.85357666,-1.109375,-1.109375,1.375,747
567,1696253705044,-0.4350586,-0.13897705,-0.88775635,2.015625,0.734375,1.34375,748
568,1696253705084,-0.41503906,-0.12335205,-0.82232666,0.859375,4.546875,2.421875,749
569,1696253705124,-0.48608398,-0.16851807,-0.9397583,-12.3125,7.546875,7.359375,750
570,1696253705164,-0.43041992,-0.14923096,-0.8665161,1.671875,-2.625,0.53125,751
571,1696253705204,-0.45410156,-0.14849854,-0.7522583,-1.96875,2.578125,0.078125,752
572,1696253705244,-0.43115234,-0.14239502,-0.7334595,1.15625,-2.015625,-0.484375,753
573,1696253705284,-0.43676758,-0.14752197,-0.82476807,0.453125,-3.078125,-0.546875,754
574,1696253705324,-0.44604492,-0.14581299,-0.8562622,0.46875,-0.59375,0.125,755
575,1696253705364,-0.47143555,-0.14752197,-0.9043579,-1.828125,-0.0625,0.90625,756
576,1696253705404,-0.47802734,-0.1531372,-0.9307251,-1.984375,-1.84375,0.84375,757
577,1696253705444,-0.5029297,-0.15777588,-0.95684814,-4.578125,-1.109375,1.546875,758
578,1696253705484,-0.41674805,-0.15093994,-0.82110596,-5.796875,-0.890625,-0.4375,759
579,1696253705524,-0.4489746,-0.1795044,-0.7605591,-1.296875,-2.390625,-4.171875,760
580,1696253705564,-0.42285156,-0.1506958,-0.7546997,1.46875,-0.078125,-0.15625,761
581,1696253705604,-0.43481445,-0.1572876,-0.7942505,3.3125,-1.734375,-0.109375,762
582,1696253705644,-0.4428711,-0.1585083,-0.86798096,2.71875,-0.078125,0.25,763
583,1696253705684,-0.45825195,-0.16070557,-0.89434814,1.125,-1.546875,0.3125,764
584,1696253705724,-0.4699707,-0.16217041,-0.93218994,-1.125,-0.34375,0.609375,765
585,1696253705764,-0.4716797,-0.15924072,-0.94195557,0.03125,-0.171875,0.984375,766
586,1696253705804,-0.4663086,-0.16534424,-0.9121704,-0.8125,0.859375,1.015625,767
587,1696253705844,-0.43701172,-0.16070557,-0.83135986,1.234375,3.296875,-0.71875,768
588,1696253705884,-0.42700195,-0.15533447,-0.78253174,0.546875,0.46875,-0.171875,769
589,1696253705924,-0.4267578,-0.14190674,-0.7612915,0.078125,-0.21875,0.0,770
590,1696253705964,-0.4580078,-0.15338135,-0.84552,2.0,-2.046875,-0.265625,771
591,1696253706004,-0.45141602,-0.14678955,-0.8555298,2.359375,-1.765625,-0.234375,772
592,1696253706044,-0.46142578,-0.14215088,-0.9011841,2.734375,-1.578125,-0.421875,773
593,1696253706084,-0.45263672,-0.14263916,-0.8765259,2.015625,-1.078125,-0.546875,774
594,1696253706124,-0.44555664,-0.14312744,-0.8320923,1.921875,-0.15625,-0.40625,775
595,1696253706164,-0.4645996,-0.13409424,-0.8760376,0.9375,-1.859375,-0.125,776
596,1696253706204,-0.45288086,-0.13653564,-0.8743286,0.609375,-2.53125,0.109375,777
597,1696253706244,-0.43603516,-0.13653564,-0.8406372,0.828125,-0.984375,0.234375,778
598,1696253706284,-0.43579102,-0.12872314,-0.85479736,0.53125,-0.5,0.28125,779
599,1696253706324,-0.45361328,-0.1326294,-0.86920166,0.265625,-0.953125,0.3125,780
600,1696253706364,-0.44873047,-0.12750244,-0.8862915,-1.015625,-2.34375,0.40625,781
601,1696253706404,-0.4501953,-0.1375122,-0.88165283,-2.296875,-3.1875,0.9375,782
602,1696253706444,-0.43188477,-0.14654541,-0.861145,-1.3125,-2.6875,0.71875,783
603,1696253706484,-0.43676758,-0.14239502,-0.8557739,-0.328125,-1.578125,0.546875,784
604,1696253706524,-0.44091797,-0.14117432,-0.8838501,1.78125,-0.46875,0.21875,785
605,1696253706564,-0.39990234,-0.13458252,-0.8206177,-0.703125,-0.734375,0.6875,786
606,1696253706604,-0.44921875,-0.13604736,-0.8809204,-6.046875,4.96875,2.328125,787
607,1696253706644,-0.48217773,-0.16583252,-1.0562134,-8.640625,-3.234375,3.46875,788
608,1696253706684,-0.38598633,-0.16680908,-0.7959595,-4.9375,5.5,-0.75,789
609,1696253706724,-0.43139648,-0.1716919,-0.7515259,-3.671875,-4.171875,-1.703125,790
610,1696253706764,-0.42700195,-0.15484619,-0.79937744,-0.171875,-0.90625,0.09375,791
611,1696253706804,-0.4272461,-0.18511963,-0.8394165,0.515625,-2.25,-0.015625,792
612,1696253706844,-0.4267578,-0.17730713,-0.85113525,2.765625,0.15625,-0.03125,793
613,1696253706884,-0.42749023,-0.16925049,-0.92022705,2.171875,-1.8125,-0.015625,794
614,1696253706924,-0.44506836,-0.15655518,-0.90411377,1.0,-1.125,-0.125,795
615,1696253706964,-0.44335938,-0.15875244,-0.8862915,-0.640625,-0.796875,0.46875,796
616,1696253707004,-0.45117188,-0.17071533,-0.9402466,-2.421875,2.15625,1.125,797
617,1696253707044,-0.4008789,-0.1638794,-0.8118286,-1.578125,3.59375,-1.390625,798
618,1696253707084,-0.46044922,-0.18023682,-0.85601807,1.578125,0.203125,-1.484375,799
619,1696253707124,-0.41796875,-0.15167236,-0.7329712,1.28125,0.625,0.09375,800
620,1696253707164,-0.42333984,-0.17828369,-0.8386841,2.21875,-1.03125,0.109375,801
621,1696253707204,-0.4465332,-0.15875244,-0.8484497,1.96875,-0.4375,-0.15625,802
622,1696253707244,-0.4584961,-0.1651001,-0.9258423,-0.90625,0.453125,0.28125,803
623,1696253707284,-0.46411133,-0.16314697,-0.92852783,-1.328125,-1.203125,0.8125,804
624,1696253707324,-0.44921875,-0.16925049,-0.9143677,-1.765625,0.84375,0.578125,805
625,1696253707364,-0.42529297,-0.16827393,-0.8115845,-0.25,2.453125,-0.859375,806
626,1696253707404,-0.43969727,-0.16046143,-0.8320923,1.109375,-0.296875,-0.53125,807
627,1696253707444,-0.421875,-0.1519165,-0.7871704,0.234375,-0.828125,0.328125,808
628,1696253707484,-0.43041992,-0.17071533,-0.8340454,3.453125,-1.25,-0.046875,809
629,1696253707524,-0.43408203,-0.16143799,-0.87701416,6.625,-0.921875,0.296875,810
630,1696253707564,-0.45629883,-0.15167236,-0.9168091,0.6875,-0.59375,0.046875,811
631,1696253707604,-0.46362305,-0.14801025,-0.8970337,-1.0625,0.90625,0.5,812
632,1696253707644,-0.4741211,-0.16314697,-0.96417236,-6.859375,2.359375,2.46875,813
633,1696253707684,-0.37036133,-0.16314697,-0.90631104,-6.921875,-2.109375,-2.9375,814
634,1696253707724,-0.45825195,-0.16949463,-0.7908325,-2.828125,-2.59375,-6.609375,815
635,1696253707764,-0.3972168,-0.16168213,-0.70684814,1.71875,-2.40625,0.4375,816
636,1696253707804,-0.4177246,-0.16729736,-0.7913208,5.671875,-1.640625,-0.109375,817
637,1696253707844,-0.43530273,-0.1609497,-0.86187744,4.640625,-3.53125,0.46875,818
638,1696253707884,-0.43920898,-0.15435791,-0.94122314,1.75,-0.65625,1.09375,819
639,1696253707924,-0.4675293,-0.15533447,-0.9536743,-2.46875,0.265625,0.84375,820
640,1696253707964,-0.47753906,-0.17071533,-0.9524536,-8.796875,-0.234375,1.171875,821
641,1696253708004,-0.39379883,-0.17974854,-0.850647,-8.171875,-1.71875,-5.109375,822
642,1696253708044,-0.41674805,-0.17266846,-0.7312622,1.765625,-1.375,-0.140625,823
643,1696253708084,-0.38989258,-0.16485596,-0.7515259,3.046875,-1.359375,-0.890625,824
644,1696253708124,-0.41455078,-0.17144775,-0.7944946,8.078125,-2.828125,-0.5,825
645,1696253708164,-0.43017578,-0.13848877,-0.8584595,11.0,-1.578125,2.078125,826
646,1696253708204,-0.43920898,-0.14337158,-0.92510986,7.828125,2.9375,1.953125,827
647,1696253708244,-0.45385742,-0.12774658,-0.93927,2.875,3.1875,1.609375,828
648,1696253708284,-0.46923828,-0.1404419,-0.9224243,-1.296875,0.546875,1.0,829
649,1696253708324,-0.42944336,-0.14141846,-0.8740845,-1.28125,-1.0625,0.703125,830
650,1696253708364,-0.41625977,-0.1428833,-0.8423462,-0.21875,-1.015625,0.265625,831
651,1696253708404,-0.42285156,-0.13287354,-0.8320923,0.578125,-0.625,0.21875,832
652,1696253708444,-0.42407227,-0.12896729,-0.835022,0.53125,0.453125,0.484375,833
653,1696253708484,-0.43408203,-0.13214111,-0.84942627,-0.453125,-0.59375,0.703125,834
654,1696253708524,-0.4428711,-0.14068604,-0.8933716,-1.5,-2.171875,0.78125,835
655,1696253708564,-0.4440918,-0.14361572,-0.878479,-1.328125,-0.203125,0.421875,836
656,1696253708604,-0.43896484,-0.14752197,-0.8882446,-1.453125,-1.21875,0.40625,837
657,1696253708644,-0.4321289,-0.1453247,-0.87823486,-0.609375,-1.453125,0.671875,838
658,1696253708684,-0.43017578,-0.15777588,-0.8897095,1.734375,-1.046875,1.15625,839
659,1696253708724,-0.3918457,-0.13800049,-0.800354,4.09375,0.4375,1.0,840
660,1696253708764,-0.41186523,-0.12774658,-0.8533325,-2.234375,2.859375,1.46875,841
661,1696253708804,-0.47070312,-0.14923096,-0.94537354,-10.609375,1.265625,3.859375,842
662,1696253708844,-0.38891602,-0.1585083,-0.87286377,-2.578125,0.3125,0.484375,843
663,1696253708884,-0.43774414,-0.14703369,-0.7732544,-0.15625,5.3125,-0.734375,844
664,1696253708924,-0.44262695,-0.15435791,-0.80792236,1.953125,-0.8125,-0.59375,845
665,1696253708964,-0.44433594,-0.15460205,-0.82476807,0.578125,-1.171875,-0.09375,846
666,1696253709004,-0.43530273,-0.16925049,-0.8792114,2.703125,-2.640625,0.421875,847
667,1696253709044,-0.4399414,-0.15362549,-0.8508911,2.1875,-0.03125,0.8125,848
668,1696253709084,-0.45214844,-0.1482544,-0.88482666,-0.109375,-2.640625,0.140625,849
669,1696253709124,-0.4482422,-0.14312744,-0.925354,-0.453125,-1.484375,0.375,850
670,1696253709164,-0.4506836,-0.13604736,-0.8562622,-2.71875,0.578125,1.3125,851
671,1696253709204,-0.4597168,-0.17730713,-0.9800415,-8.828125,-1.140625,1.921875,852
672,1696253709244,-0.39501953,-0.16363525,-0.77911377,-3.140625,3.171875,-2.90625,853
673,1696253709284,-0.4152832,-0.15118408,-0.8088989,2.1875,1.265625,-0.484375,854
674,1696253709324,-0.41967773,-0.16192627,-0.75982666,0.921875,0.109375,-0.21875,855
675,1696253709364,-0.44067383,-0.17462158,-0.83380127,2.65625,-0.25,-0.03125,856
676,1696253709404,-0.45288086,-0.16290283,-0.8753052,2.609375,-0.375,0.0625,857
677,1696253709444,-0.46679688,-0.15704346,-0.91534424,-0.0625,0.03125,0.375,858
678,1696253709484,-0.4650879,-0.15264893,-0.91485596,0.375,0.125,0.5,859
679,1696253709524,-0.46826172,-0.1338501,-0.8792114,-3.5,3.890625,2.59375,860
680,1696253709564,-0.4814453,-0.19000244,-0.98883057,-4.609375,-0.015625,1.78125,861
681,1696253709604,-0.38793945,-0.159729,-0.75445557,-0.890625,5.75,-3.09375,862
682,1696253709644,-0.4309082,-0.15118408,-0.8032837,2.5,-1.796875,-0.421875,863
683,1696253709684,-0.4489746,-0.1453247,-0.7678833,0.984375,1.15625,-0.21875,864
684,1696253709724,-0.4560547,-0.1560669,-0.83062744,2.375,-2.0,0.34375,865
685,1696253709764,-0.47045898,-0.16363525,-0.88409424,1.90625,-1.1875,0.109375,866
686,1696253709804,-0.47607422,-0.15509033,-0.91607666,1.53125,-0.46875,0.203125,867
687,1696253709844,-0.48168945,-0.15631104,-0.89923096,-0.28125,-1.453125,0.25,868
688,1696253709884,-0.46484375,-0.14263916,-0.8699341,-2.9375,-1.0,0.984375,869
689,1696253709924,-0.45410156,-0.15899658,-0.9089966,-7.984375,-0.5,0.640625,870
690,1696253709964,-0.45629883,-0.16265869,-0.7883911,-1.03125,-0.3125,-3.28125,871
691,1696253710004,-0.4440918,-0.15631104,-0.81817627,1.9375,1.78125,0.453125,872
692,1696253710044,-0.4345703,-0.15386963,-0.81036377,0.65625,-1.984375,0.328125,873
693,1696253710084,-0.45141602,-0.16217041,-0.8526001,1.609375,-0.78125,0.3125,874
694,1696253710124,-0.45336914,-0.15631104,-0.8464966,2.046875,0.40625,0.109375,875
695,1696253710164,-0.453125,-0.15924072,-0.9102173,1.859375,-0.34375,0.1875,876
696,1696253710204,-0.46411133,-0.15435791,-0.8633423,-1.234375,-0.65625,0.078125,877
697,1696253710244,-0.47094727,-0.15582275,-0.92437744,-3.25,1.40625,0.484375,878
698,1696253710284,-0.47558594,-0.17047119,-0.8779907,-7.5625,2.0625,-1.53125,879
699,1696253710324,-0.46899414,-0.17242432,-0.85723877,-0.078125,-1.9375,0.203125,880
700,1696253710364,-0.42895508,-0.15753174,-0.78375244,1.03125,-0.328125,-0.046875,881
701,1696253710404,-0.43603516,-0.16607666,-0.79107666,0.921875,-1.125,-0.171875,882
702,1696253710444,-0.4482422,-0.16656494,-0.8430786,3.421875,-2.0625,-0.1875,883
703,1696253710484,-0.4597168,-0.1531372,-0.82403564,6.609375,-1.3125,0.5625,884
704,1696253710524,-0.4399414,-0.15264893,-0.848938,9.015625,-2.578125,0.75,885
705,1696253710564,-0.45092773,-0.13092041,-0.8792114,7.09375,-0.875,-0.21875,886
706,1696253710604,-0.48046875,-0.12261963,-0.8909302,2.046875,-3.96875,-0.140625,887
707,1696253710644,-0.4741211,-0.12237549,-0.9158325,1.640625,-2.203125,0.40625,888
708,1696253710684,-0.4489746,-0.124816895,-0.86846924,0.625,1.546875,0.640625,889
709,1696253710724,-0.4477539,-0.13580322,-0.86798096,-0.703125,-0.546875,0.859375,890
710,1696253710764,-0.43237305,-0.13726807,-0.84552,-0.65625,-1.1875,0.5625,891
711,1696253710804,-0.43041992,-0.124816895,-0.8291626,-1.34375,-0.75,0.546875,892
712,1696253710844,-0.4555664,-0.13238525,-0.85040283,-3.0,-2.203125,0.59375,893
713,1696253710884,-0.45361328,-0.13067627,-0.87579346,-2.421875,-3.296875,0.40625,894
714,1696253710924,-0.45263672,-0.13311768,-0.8579712,-1.421875,-2.421875,0.359375,895
715,1696253710964,-0.44384766,-0.13287354,-0.86602783,-1.921875,-1.296875,0.359375,896
716,1696253711004,-0.44262695,-0.15264893,-0.895813,1.140625,-0.46875,0.40625,897
717,1696253711044,-0.4243164,-0.14874268,-0.85284424,3.1875,0.703125,0.296875,898
718,1696253711084,-0.40698242,-0.13287354,-0.8352661,-1.96875,1.6875,0.921875,899
719,1696253711124,-0.4729004,-0.13287354,-0.81866455,-8.3125,7.515625,3.015625,900
720,1696253711164,-0.4633789,-0.18243408,-0.98516846,-5.53125,-1.546875,1.703125,901
721,1696253711204,-0.43798828,-0.15435791,-0.78619385,-3.359375,5.53125,-0.515625,902
722,1696253711244,-0.44189453,-0.14263916,-0.72540283,-3.0,1.484375,-0.03125,903
723,1696253711284,-0.44702148,-0.15386963,-0.81427,0.015625,-1.078125,0.09375,904
724,1696253711324,-0.44335938,-0.17218018,-0.8262329,2.59375,-0.53125,-0.078125,905
725,1696253711364,-0.45458984,-0.16461182,-0.86724854,3.265625,-0.75,0.375,906
726,1696253711404,-0.45996094,-0.15484619,-0.87579346,1.640625,-0.8125,0.234375,907
727,1696253711444,-0.46826172,-0.15118408,-0.90704346,0.375,-2.828125,0.15625,908
728,1696253711484,-0.4638672,-0.15045166,-0.88287354,-1.0,-0.765625,0.265625,909
729,1696253711524,-0.46923828,-0.15582275,-0.9224243,-4.953125,-0.140625,1.6875,910
730,1696253711564,-0.44702148,-0.15386963,-0.8257446,-3.15625,0.390625,0.203125,911
731,1696253711604,-0.45214844,-0.17144775,-0.89385986,0.765625,0.9375,0.46875,912
732,1696253711644,-0.4206543,-0.15655518,-0.7371216,-0.609375,0.65625,0.359375,913
733,1696253711684,-0.45117188,-0.17315674,-0.86676025,2.703125,-0.390625,-0.46875,914
734,1696253711724,-0.4638672,-0.16558838,-0.8670044,1.34375,0.890625,-0.40625,915
735,1696253711764,-0.48510742,-0.16583252,-0.8858032,-0.484375,-0.375,0.125,916
736,1696253711804,-0.46850586,-0.15655518,-0.86798096,-0.609375,-0.5625,0.390625,917
737,1696253711844,-0.45166016,-0.16534424,-0.8320923,-0.4375,-0.59375,0.46875,918
738,1696253711884,-0.44458008,-0.17144775,-0.88165283,-4.15625,1.15625,0.921875,919
739,1696253711924,-0.44262695,-0.16534424,-0.8435669,-0.828125,-1.578125,-0.4375,920
740,1696253711964,-0.4609375,-0.1609497,-0.8435669,0.3125,0.375,-0.015625,921
741,1696253712004,-0.4399414,-0.16314697,-0.8027954,-0.8125,-0.640625,0.359375,922
742,1696253712044,-0.44360352,-0.17388916,-0.84625244,1.625,-0.171875,-0.375,923
743,1696253712084,-0.45288086,-0.16192627,-0.85235596,2.53125,0.0,-0.65625,924
744,1696253712124,-0.46850586,-0.16070557,-0.88653564,0.171875,-0.1875,0.03125,925
745,1696253712164,-0.4729004,-0.16192627,-0.8550415,-1.1875,-0.578125,0.5,926
746,1696253712204,-0.4658203,-0.15582275,-0.895813,-1.859375,-0.140625,0.90625,927
747,1696253712244,-0.46899414,-0.18927002,-0.87994385,-4.71875,-0.125,0.046875,928
748,1696253712284,-0.4650879,-0.1795044,-0.8538208,0.171875,-2.53125,-1.515625,929
749,1696253712324,-0.42626953,-0.16778564,-0.80474854,-0.609375,0.03125,0.078125,930
750,1696253712364,-0.4482422,-0.15826416,-0.82647705,1.75,-0.4375,-0.578125,931
751,1696253712404,-0.45385742,-0.16265869,-0.8286743,4.0625,-0.859375,-0.859375,932
752,1696253712444,-0.45410156,-0.15753174,-0.83599854,7.640625,-0.328125,-0.703125,933
753,1696253712484,-0.4609375,-0.1506958,-0.86724854,6.4375,-0.125,-0.3125,934
754,1696253712524,-0.4633789,-0.13848877,-0.8904419,4.6875,0.0625,0.0,935
755,1696253712564,-0.46704102,-0.13043213,-0.86676025,1.65625,0.296875,0.125,936
756,1696253712604,-0.45922852,-0.14239502,-0.8687134,0.875,-0.6875,0.296875,937
757,1696253712644,-0.45483398,-0.1326294,-0.8479614,0.078125,-0.671875,0.265625,938
758,1696253712684,-0.4609375,-0.13970947,-0.866272,-0.0625,-0.9375,0.1875,939
759,1696253712724,-0.44433594,-0.14019775,-0.8401489,0.296875,-0.109375,-0.09375,940
