# Sensor type: Respeck
# Activity type: Standing
# Activity subtype: Laughing
# Subject id: s2106809
# Notes: unprocessed
timestamp,accel_x,accel_y,accel_z,gyro_x,gyro_y,gyro_z
1696251643576,0.050048828,-0.96588135,0.23187256,-2.84375,0.78125,1.265625
1696251643636,0.068847656,-0.9578247,0.2296753,-1.875,1.46875,-0.859375
1696251643656,0.0637207,-0.9500122,0.23065186,4.0,1.5625,-0.859375
1696251643697,0.03100586,-0.98883057,0.2506714,6.265625,1.046875,-0.875
1696251643736,0.012451172,-0.9812622,0.2033081,0.515625,1.859375,-2.296875
1696251643777,0.03149414,-0.9627075,0.22698975,0.90625,5.15625,-2.296875
1696251643837,0.057128906,-0.95684814,0.22210693,4.578125,4.828125,-2.484375
1696251643857,0.05078125,-0.98321533,0.19573975,8.390625,2.40625,-1.703125
1696251643918,0.061035156,-0.9866333,0.1954956,6.75,0.65625,-2.328125
1696251643958,0.034423828,-0.96954346,0.17376709,8.109375,1.671875,-2.609375
1696251643977,0.038085938,-0.95098877,0.058532715,23.6875,5.546875,-3.234375
1696251644017,0.08251953,-1.0332642,0.08270264,9.8125,-4.421875,-3.421875
1696251644058,0.060791016,-0.83135986,0.25531006,8.703125,13.03125,-0.28125
1696251644098,0.0068359375,-1.0610962,0.19134521,-1.796875,-2.796875,4.4375
1696251644160,0.043701172,-1.0137329,0.14813232,-3.640625,7.25,-0.859375
1696251644198,0.048095703,-0.96661377,0.15130615,-2.390625,2.421875,-4.046875
1696251644201,0.029052734,-1.0598755,0.15106201,-0.40625,2.453125,0.265625
1696251644237,-0.013671875,-0.95098877,0.13519287,-0.84375,6.546875,-3.09375
1696251644278,0.045898438,-0.9102173,0.08734131,-9.359375,6.828125,-7.265625
1696251644320,0.15307617,-0.9234009,0.15032959,-4.390625,18.875,-5.875
1696251644359,0.076416016,-1.0825806,0.15301514,-4.96875,2.734375,-0.546875
1696251644398,-0.009521484,-0.98101807,0.18817139,-4.375,2.078125,-6.265625
1696251644438,-0.04711914,-0.96343994,0.14666748,-10.5,11.171875,-10.703125
1696251644479,0.016601562,-0.95269775,0.22991943,-1.546875,26.390625,-8.875
1696251644517,0.008300781,-0.9751587,0.21380615,-2.109375,11.4375,-3.3125
1696251644558,0.008544922,-1.0169067,0.16497803,-2.46875,7.8125,-2.890625
1696251644600,0.0048828125,-0.9663696,0.10345459,-1.234375,9.6875,-7.09375
1696251644638,0.09667969,-0.9507446,0.3204956,-1.1875,22.15625,-7.515625
1696251644680,0.03881836,-0.9590454,0.16937256,-2.71875,8.0625,-4.984375
1696251644717,-0.06982422,-0.92315674,0.20843506,3.15625,10.734375,0.265625
1696251644758,-0.100097656,-0.960022,0.18353271,7.265625,15.03125,1.71875
1696251644799,-0.049316406,-1.0474243,0.11810303,15.328125,14.40625,1.859375
1696251644837,-0.0012207031,-1.0120239,0.14056396,9.015625,15.0625,0.40625
1696251644876,-0.041259766,-0.94488525,0.15350342,6.078125,10.15625,-3.84375
1696251644917,-0.16064453,-0.9849243,0.086120605,6.53125,8.5,1.53125
1696251644958,-0.07739258,-1.0913696,0.081726074,3.765625,5.359375,0.671875
1696251644997,-0.0036621094,-1.0801392,0.07928467,1.15625,2.640625,-0.140625
1696251645037,-0.088134766,-0.94122314,0.10394287,0.296875,-7.203125,1.203125
1696251645078,-0.11791992,-0.9002075,0.109313965,-2.375,-6.828125,-0.078125
1696251645118,-0.15478516,-0.9590454,0.093933105,-4.5625,-4.9375,0.8125
1696251645159,-0.13208008,-1.0181274,0.09613037,-5.234375,-0.375,2.03125
1696251645198,-0.09716797,-1.052063,0.152771,-6.453125,1.859375,-0.359375
1696251645238,-0.08520508,-0.95928955,0.13153076,-4.84375,4.328125,1.078125
1696251645277,0.025390625,-1.0171509,0.13446045,-3.5625,1.984375,5.125
1696251645319,0.030029297,-0.9859009,0.14935303,0.53125,-2.78125,7.09375
1696251645362,0.06347656,-0.97442627,0.14178467,-1.46875,-5.078125,2.859375
1696251645398,0.0146484375,-0.9558716,0.16790771,-1.4375,-5.4375,1.1875
1696251645437,0.005126953,-0.9846802,0.20452881,-3.59375,-5.8125,2.21875
1696251645478,-0.011962891,-0.95269775,0.16204834,-0.890625,-5.15625,4.65625
1696251645517,0.041015625,-1.0315552,0.1552124,-0.234375,-6.96875,2.15625
1696251645537,0.0,-1.0071411,0.16229248,0.21875,-7.71875,1.46875
1696251645577,0.010498047,-0.9866333,0.17474365,-0.34375,-3.84375,2.40625
1696251645618,0.080078125,-0.9019165,0.15789795,0.890625,0.40625,-1.96875
1696251645657,0.03515625,-0.94415283,0.15960693,0.984375,-2.53125,-0.3125
1696251645696,-0.0036621094,-1.0613403,0.21966553,4.078125,-4.921875,4.140625
1696251645736,0.01953125,-1.0071411,0.18304443,-2.015625,-7.4375,1.875
1696251645778,0.0043945312,-0.91851807,0.14764404,2.0,-0.078125,2.3125
1696251645820,0.083984375,-0.9692993,0.15911865,0.34375,-3.796875,0.28125
1696251645859,0.043701172,-0.99053955,0.16937256,-2.171875,-4.84375,0.453125
1696251645898,0.033691406,-0.97735596,0.17010498,-2.609375,-4.71875,-1.421875
1696251645937,0.011962891,-0.9692993,0.18377686,-2.40625,-2.578125,-1.390625
1696251645977,0.033691406,-0.9458618,0.20819092,-5.390625,-5.875,-1.71875
1696251646017,-0.0048828125,-0.93463135,0.22113037,6.03125,-2.109375,1.0
1696251646058,-0.025878906,-1.0005493,0.20135498,14.203125,8.828125,10.703125
1696251646098,0.10205078,-1.0750122,0.1461792,11.578125,8.265625,7.703125
1696251646138,0.047607422,-1.0110474,0.12347412,6.9375,-5.1875,4.296875
1696251646178,0.017822266,-0.94903564,0.05267334,0.84375,-15.46875,0.515625
1696251646217,0.030517578,-0.91729736,0.0602417,10.359375,-27.0625,-6.765625
1696251646258,-0.060546875,-1.0481567,0.0033569336,16.765625,-24.109375,-2.515625
1696251646297,0.06298828,-0.92852783,0.11834717,-11.25,-5.765625,9.578125
1696251646336,0.08911133,-1.0630493,0.054870605,3.03125,13.015625,4.859375
1696251646378,-0.09790039,-1.0374146,0.08001709,-3.078125,-0.78125,3.390625
1696251646418,0.06274414,-0.92559814,0.1281128,2.1875,2.328125,2.90625
1696251646459,0.15698242,-0.9612427,0.21063232,-6.5625,-2.109375,-1.03125
1696251646497,0.09692383,-0.92803955,0.08050537,-3.96875,-8.0,-5.21875
1696251646538,-0.0021972656,-0.92974854,0.12640381,-7.15625,-3.0,-3.328125
1696251646576,-0.020751953,-1.03302,0.10614014,-5.03125,-5.46875,-4.25
1696251646618,0.0036621094,-1.0408325,0.11639404,-6.03125,2.5,-1.71875
1696251646660,0.012939453,-1.0413208,0.13104248,-7.390625,1.828125,-1.8125
1696251646697,0.041259766,-0.93292236,0.14447021,-5.890625,0.328125,-4.1875
1696251646739,0.028808594,-0.9758911,0.11126709,-3.453125,0.625,-1.1875
1696251646777,0.04321289,-1.0093384,0.14593506,-2.65625,-1.703125,0.5625
1696251646819,0.028076172,-1.0100708,0.14837646,-4.125,1.46875,-0.265625
1696251646836,-0.007080078,-0.9624634,0.15545654,-1.796875,-0.28125,-1.5
1696251646899,0.026367188,-0.9570923,0.14324951,-1.984375,-1.359375,0.84375
1696251646938,0.041015625,-0.9817505,0.16888428,-2.84375,-3.171875,-1.484375
1696251646957,-0.0012207031,-1.0149536,0.17059326,-1.15625,-4.203125,0.875
1696251646997,-0.05834961,-0.9343872,0.13543701,-0.4375,0.65625,4.5
1696251647037,-0.052001953,-1.0110474,0.16009521,-1.421875,2.75,4.953125
1696251647078,0.044433594,-0.9944458,0.19256592,1.890625,7.0625,2.375
1696251647118,0.05493164,-0.94781494,0.16790771,-0.375,2.734375,1.96875
1696251647158,0.0031738281,-0.92559814,0.16107178,0.0625,1.453125,1.9375
1696251647197,0.0029296875,-1.0244751,0.18743896,2.5,3.4375,2.1875
1696251647258,0.04638672,-1.0227661,0.18377686,4.6875,4.6875,1.953125
1696251647297,0.023925781,-0.9644165,0.16229248,0.859375,4.578125,4.296875
1696251647316,0.03173828,-0.99713135,0.17352295,-2.609375,-1.359375,4.390625
1696251647358,0.020751953,-0.96295166,0.18182373,0.703125,1.8125,-0.53125
1696251647397,0.035888672,-0.97735596,0.15106201,-0.875,4.8125,-0.96875
1696251647437,0.030761719,-0.9602661,0.15570068,-1.84375,8.46875,0.5
1696251647477,0.076171875,-1.013977,0.19818115,-0.265625,5.859375,-1.265625
1696251647538,0.052246094,-0.97784424,0.15814209,-1.5,4.03125,-2.96875
1696251647557,0.06274414,-0.96051025,0.17401123,-3.578125,3.515625,-2.03125
1696251647598,0.0061035156,-0.98883057,0.18304443,-4.125,5.09375,0.4375
1696251647640,-0.030029297,-1.0527954,0.16400146,-5.40625,4.90625,0.8125
1696251647679,0.02709961,-0.97003174,0.17889404,-4.890625,13.84375,-2.375
1696251647717,0.111816406,-0.91900635,0.2020874,-4.21875,14.53125,-3.65625
1696251647759,0.13232422,-0.91290283,0.168396,-4.453125,7.59375,-3.28125
1696251647801,0.08276367,-0.9920044,0.2098999,-4.453125,0.671875,-2.328125
1696251647838,-0.023925781,-1.0371704,0.21331787,-8.484375,-5.90625,-1.640625
1696251647898,-0.07763672,-0.89727783,0.15350342,-4.9375,16.984375,2.1875
1696251647940,0.09399414,-0.8928833,0.24847412,-0.546875,7.359375,4.390625
1696251647956,0.1315918,-1.0071411,0.21380615,4.546875,11.921875,3.1875
1696251648000,0.110839844,-1.00177,0.21722412,3.140625,4.390625,0.90625
1696251648039,0.032714844,-1.00177,0.19720459,9.8125,-2.15625,0.0625
1696251648079,0.010498047,-1.0088501,0.1605835,5.46875,-2.03125,1.0
1696251648141,0.037597656,-0.9651489,0.18157959,8.828125,5.984375,0.375
1696251648157,0.03466797,-1.0484009,0.17596436,7.140625,3.5,0.046875
1696251648185,0.05908203,-1.0054321,0.13446045,-2.546875,-1.109375,-2.5625
1696251648219,0.056640625,-0.90802,0.089782715,-7.3125,-7.84375,-3.1875
1696251648259,0.05859375,-0.8928833,0.07537842,19.015625,-21.25,-3.546875
1696251648300,0.034179688,-1.1694946,0.055847168,14.265625,-16.3125,2.171875
1696251648339,0.2553711,-0.7695923,0.15765381,-2.234375,12.171875,9.296875
1696251648377,0.19311523,-1.1919556,0.1852417,1.40625,-6.234375,-6.359375
1696251648417,-0.1459961,-0.9024048,0.19012451,-11.515625,-7.375,4.671875
1696251648458,-0.11254883,-0.84576416,0.07366943,-4.21875,-8.765625,5.109375
1696251648498,0.14746094,-1.0501099,0.23626709,-1.4375,7.15625,0.734375
1696251648539,0.0949707,-1.0239868,0.1552124,-4.640625,-1.78125,-0.953125
1696251648578,0.0021972656,-0.91534424,0.18475342,-3.0625,0.5,-2.828125
1696251648618,-0.04711914,-0.9524536,0.12249756,-1.84375,6.703125,-2.75
1696251648658,0.048583984,-1.0237427,0.1281128,-3.75,7.21875,-0.921875
1696251648697,0.1328125,-1.0227661,0.17694092,-2.65625,7.015625,0.0625
1696251648738,0.055908203,-0.9651489,0.1942749,-4.234375,-2.8125,-0.25
1696251648777,0.0087890625,-0.9680786,0.15350342,-1.828125,-3.484375,1.1875
1696251648818,0.033935547,-0.9800415,0.19720459,-1.796875,-0.265625,-3.046875
1696251648858,0.068603516,-1.0115356,0.16375732,-3.5625,0.4375,-1.28125
1696251648897,0.033691406,-0.95440674,0.16888428,-4.875,-2.484375,-1.703125
1696251648937,0.013183594,-0.9780884,0.1696167,-3.828125,-0.859375,-2.390625
1696251648978,0.018798828,-0.99468994,0.20135498,-0.984375,1.765625,-4.796875
1696251649017,0.060058594,-0.99224854,0.18353271,-2.09375,2.015625,-3.03125
1696251649059,0.042236328,-0.9182739,0.23358154,-0.375,-3.75,-3.234375
1696251649099,0.03125,-0.97613525,0.19818115,0.421875,-4.34375,-2.359375
1696251649137,-0.010986328,-1.0081177,0.24432373,1.4375,-5.125,-3.3125
1696251649177,-0.027832031,-1.0059204,0.2062378,-1.25,-7.328125,-1.421875
1696251649217,-0.018310547,-0.96173096,0.16619873,-1.9375,-2.015625,-1.578125
1696251649260,0.022949219,-0.9859009,0.19940186,-2.734375,-2.21875,-1.203125
1696251649299,-2.4414062E-4,-0.9517212,0.24359131,-4.296875,-4.203125,0.6875
1696251649337,-0.01171875,-0.986145,0.20892334,-5.265625,-5.75,2.03125
1696251649377,0.0107421875,-0.9351196,0.23944092,-1.34375,-1.953125,1.625
1696251649416,-0.019042969,-0.9685669,0.28167725,-0.734375,-3.75,1.75
1696251649457,-0.06567383,-0.9871216,0.2345581,-3.296875,-4.546875,2.484375
1696251649477,-0.020507812,-0.96710205,0.21014404,-2.03125,0.71875,0.109375
1696251649516,0.024658203,-0.9883423,0.21746826,-0.53125,0.609375,-0.859375
1696251649557,0.02709961,-0.95318604,0.18157959,-2.3125,0.9375,0.078125
1696251649616,0.023925781,-0.9534302,0.20501709,-1.140625,0.203125,0.375
1696251649640,0.036376953,-0.99420166,0.23431396,-0.515625,-0.125,1.890625
1696251649677,0.024414062,-0.95098877,0.260437,1.421875,-1.265625,1.71875
1696251649716,-0.049804688,-0.98223877,0.2584839,-0.390625,-2.796875,1.328125
1696251649780,-0.044921875,-0.9458618,0.24798584,0.875,2.71875,0.984375
1696251649796,-0.041015625,-0.96417236,0.23675537,1.5,3.28125,2.796875
1696251649861,0.03955078,-0.98272705,0.22283936,2.203125,7.953125,0.484375
1696251649877,0.07006836,-0.96466064,0.23065186,2.125,5.625,-0.671875
1696251649917,0.018798828,-0.97735596,0.23504639,0.390625,0.984375,1.28125
1696251649958,0.011474609,-0.97198486,0.23162842,1.5625,2.53125,0.625
1696251650001,0.01977539,-0.96099854,0.23504639,0.953125,2.015625,0.46875
1696251650039,0.026855469,-0.954895,0.21722412,-0.578125,1.703125,0.734375
1696251650078,7.324219E-4,-0.975647,0.23504639,0.453125,2.03125,-0.28125
1696251650116,-0.0029296875,-0.9585571,0.26312256,-0.703125,1.734375,-1.3125
1696251650157,-0.107910156,-0.91973877,0.2579956,-5.234375,10.421875,1.9375
1696251650199,-0.030273438,-0.9536743,0.20501709,-3.703125,14.890625,5.765625
1696251650238,0.13647461,-1.0361938,0.23480225,3.421875,17.546875,1.296875
1696251650277,0.1809082,-1.0147095,0.22576904,2.1875,5.8125,-0.4375
1696251650319,0.13452148,-0.98394775,0.26654053,10.359375,-5.15625,-2.453125
1696251650357,0.061279297,-0.9729614,0.21063232,10.390625,-7.265625,-3.625
1696251650398,-0.011962891,-0.960022,0.14764404,1.71875,-8.328125,-1.703125
1696251650438,-0.03466797,-0.9343872,0.12225342,10.71875,-17.671875,-3.515625
1696251650477,-0.013183594,-1.0125122,0.026550293,25.765625,-13.0,-4.15625
1696251650542,-0.005126953,-0.9397583,0.260437,-14.703125,-14.03125,2.828125
1696251650556,0.0061035156,-0.93536377,0.2831421,9.046875,8.0625,6.1875
1696251650596,-0.0847168,-1.0620728,0.081726074,-7.96875,-3.03125,-6.953125
1696251650637,-0.025390625,-0.93170166,0.19281006,0.078125,7.9375,-2.15625
1696251650702,0.12573242,-0.9702759,0.18475342,-3.640625,7.53125,-2.046875
1696251650738,0.05883789,-1.0515747,0.20013428,-6.546875,-2.9375,-1.84375
1696251650757,0.010009766,-0.9121704,0.1642456,-1.875,-2.53125,-2.5
1696251650777,-0.0021972656,-0.9331665,0.12567139,-3.921875,-5.390625,-0.4375
1696251650819,0.041015625,-0.98638916,0.21917725,1.8125,1.34375,-0.234375
1696251650858,-0.007080078,-1.0359497,0.21722412,-2.21875,-4.03125,1.625
1696251650898,-0.018066406,-0.9368286,0.19891357,-1.1875,-2.515625,0.078125
1696251650938,0.007080078,-0.9573364,0.18719482,-0.5,-0.96875,-0.734375
1696251650978,-0.009033203,-0.97784424,0.22088623,1.140625,1.71875,-0.734375
1696251651017,-0.045654297,-1.0134888,0.2140503,-1.875,1.828125,1.0625
1696251651057,-0.028808594,-0.97613525,0.20697021,-0.859375,2.0,-0.3125
1696251651099,0.024658203,-0.97125244,0.17816162,-2.1875,1.171875,-0.4375
1696251651138,0.046875,-0.9741821,0.23822021,1.171875,1.28125,-1.296875
1696251651177,-0.034423828,-0.9788208,0.20452881,2.3125,-0.75,1.328125
1696251651218,-0.006591797,-1.0039673,0.16644287,-1.34375,-1.890625,1.5
1696251651257,0.034179688,-0.96661377,0.21820068,-5.109375,-1.640625,0.140625
1696251651300,-0.01977539,-0.9529419,0.23626709,0.34375,0.1875,2.734375
1696251651339,-0.03540039,-0.9663696,0.20159912,-5.21875,-3.5,3.234375
1696251651379,0.02368164,-1.0020142,0.19598389,-0.890625,0.609375,3.609375
1696251651418,0.053466797,-0.9885864,0.22088623,-1.546875,-3.984375,2.453125
1696251651458,0.030761719,-0.94610596,0.23309326,-1.65625,-4.8125,0.78125
1696251651502,-0.044921875,-0.9692993,0.22625732,-2.234375,-6.140625,3.265625
1696251651537,-0.0041503906,-1.0210571,0.23040771,-0.546875,-2.859375,1.46875
1696251651580,0.084228516,-1.0012817,0.22088623,-3.78125,-2.59375,-3.484375
1696251651617,0.045166016,-0.9295044,0.22406006,-1.609375,-4.078125,-0.4375
1696251651657,0.018798828,-0.93048096,0.22894287,-3.484375,-6.828125,2.3125
1696251651697,0.045166016,-0.99786377,0.22991943,-2.765625,-7.5625,2.65625
1696251651738,0.031982422,-0.975647,0.23504639,0.03125,-8.046875,0.796875
1696251651778,-0.01171875,-0.94659424,0.23284912,0.171875,-8.078125,2.171875
1696251651818,-0.030273438,-0.94415283,0.22259521,1.34375,-4.328125,4.1875
1696251651859,-0.005859375,-0.9849243,0.24163818,1.734375,1.15625,1.046875
1696251651898,-0.0087890625,-0.9717407,0.24285889,3.21875,0.859375,-0.9375
1696251651939,0.046875,-0.9624634,0.21380615,1.875,4.390625,-0.4375
1696251651980,0.06738281,-0.96661377,0.22479248,0.125,0.875,0.078125
1696251652020,0.017578125,-0.97052,0.25115967,-1.25,-4.203125,1.453125
1696251652081,-0.028320312,-0.9326782,0.23895264,0.390625,-7.703125,1.984375
1696251652097,0.0031738281,-0.97052,0.25604248,-2.09375,0.296875,4.296875
1696251652117,0.00390625,-0.9998169,0.28167725,1.734375,-1.421875,3.984375
1696251652180,0.040771484,-0.98883057,0.23114014,2.984375,3.203125,2.78125
1696251652218,0.048583984,-0.9817505,0.17938232,-1.71875,8.46875,-0.796875
1696251652236,0.03881836,-0.9849243,0.19940186,-2.09375,6.359375,-0.1875
1696251652277,0.091796875,-0.9678345,0.23504639,-0.3125,5.984375,-0.46875
1696251652339,0.09838867,-0.9319458,0.21234131,2.765625,-5.171875,-1.78125
1696251652357,0.07495117,-0.97662354,0.21160889,11.890625,-24.84375,-0.84375
1696251652400,0.001953125,-0.97906494,0.042419434,18.90625,-10.984375,-1.03125
1696251652437,-0.08129883,-0.98687744,0.21331787,-10.40625,-10.375,5.875
1696251652478,0.06982422,-0.88604736,0.20428467,7.484375,2.1875,9.0
1696251652518,0.19506836,-1.1380005,0.16644287,0.34375,1.484375,-9.53125
1696251652558,-0.095703125,-0.8999634,0.2345581,-1.734375,-8.203125,0.46875
1696251652597,-0.013916016,-0.87677,0.19110107,-0.125,-4.0,0.46875
1696251652639,-0.04296875,-1.0715942,0.28070068,-1.765625,-0.75,-1.734375
1696251652678,-0.03955078,-0.9651489,0.13909912,2.015625,0.671875,-2.15625
1696251652720,0.060058594,-0.9456177,0.11981201,2.875,11.609375,-5.390625
1696251652757,0.16992188,-1.0564575,0.12786865,0.640625,5.921875,-7.3125
1696251652798,-0.013916016,-0.9470825,0.16473389,-2.375,-6.109375,0.421875
1696251652841,-0.076416016,-0.96661377,0.1762085,-4.203125,-7.328125,2.921875
1696251652877,-0.044921875,-1.0283813,0.23553467,-2.109375,5.21875,-0.484375
1696251652918,0.04711914,-1.0015259,0.21014404,-0.796875,5.78125,-4.84375
1696251652958,-0.010986328,-0.8447876,0.19769287,-2.671875,2.921875,0.5625
1696251652999,0.03100586,-0.98321533,0.18450928,-3.078125,1.53125,2.375
1696251653040,0.06201172,-1.1067505,0.21331787,3.640625,-0.1875,-0.28125
1696251653079,-0.05493164,-0.91363525,0.20916748,0.421875,-1.109375,-0.8125
1696251653118,-0.0390625,-0.9053345,0.17791748,0.625,4.375,3.65625
1696251653158,0.06518555,-1.0493774,0.21185303,3.703125,1.75,3.953125
1696251653198,9.765625E-4,-0.97906494,0.18353271,3.765625,-4.015625,3.0
1696251653241,0.011230469,-0.8921509,0.15814209,2.078125,0.875,5.046875
1696251653277,0.07910156,-0.9649048,0.22625732,5.046875,1.78125,1.46875
1696251653318,0.05908203,-1.0344849,0.2423706,5.40625,-2.359375,1.03125
1696251653378,-0.018066406,-0.9417114,0.21282959,2.828125,6.421875,1.359375
1696251653397,-0.041259766,-0.94854736,0.1473999,3.421875,9.75,5.796875
1696251653417,0.087646484,-1.0498657,0.18743896,7.4375,11.125,-0.3125
1696251653459,0.09399414,-1.0933228,0.21673584,6.21875,7.484375,-4.25
1696251653497,0.0146484375,-0.99468994,0.13519287,-0.4375,-6.21875,-6.15625
1696251653537,-0.014160156,-0.87677,0.03314209,-5.3125,-17.59375,-5.78125
1696251653577,-0.045166016,-0.9373169,0.05657959,14.453125,-19.265625,0.328125
1696251653618,0.033691406,-1.0718384,0.12762451,7.953125,-4.1875,6.0
1696251653658,0.1394043,-0.89312744,0.13031006,-3.515625,-3.96875,11.671875
1696251653700,0.053466797,-1.1326294,0.10858154,-0.28125,0.3125,2.609375
1696251653740,-0.025878906,-0.927063,0.26898193,-1.421875,1.40625,-4.453125
1696251653778,0.053466797,-0.9590454,0.19329834,-6.703125,-5.171875,-3.609375
1696251653816,0.0859375,-0.9221802,0.11956787,-3.765625,2.984375,-2.890625
1696251653859,0.053955078,-1.0325317,0.10076904,-2.984375,-1.578125,1.390625
1696251653897,-0.009521484,-0.9824829,0.15472412,-0.65625,-2.140625,-4.1875
1696251653938,-0.032958984,-0.9834595,0.20721436,2.25,6.75,-2.0
1696251653977,0.07299805,-1.0081177,0.14959717,-2.390625,2.0,-0.890625
1696251654018,0.021972656,-0.9194946,0.17352295,0.203125,0.6875,1.09375
1696251654058,0.015625,-1.008606,0.11639404,-5.109375,-4.375,0.890625
1696251654098,0.08081055,-1.0027466,0.22845459,0.46875,2.84375,-4.453125
1696251654139,0.016601562,-0.9573364,0.15423584,-2.34375,-4.0,-2.609375
1696251654177,-0.032958984,-0.93463135,0.13421631,-0.125,4.015625,3.5625
1696251654217,0.032470703,-1.0300903,0.18597412,-2.28125,-1.09375,-0.59375
1696251654258,0.07055664,-1.0564575,0.22894287,2.171875,0.4375,-3.921875
1696251654299,-0.027832031,-0.9077759,0.17547607,-3.28125,-6.328125,-1.875
1696251654338,-0.08251953,-0.9199829,0.101257324,-4.96875,0.015625,6.421875
1696251654379,0.017333984,-1.0408325,0.1942749,-0.34375,5.484375,3.296875
1696251654419,0.0871582,-1.0750122,0.21380615,3.703125,2.828125,-0.703125
1696251654458,0.044433594,-0.86383057,0.16986084,-0.546875,-2.390625,0.828125
1696251654498,-0.024169922,-0.9336548,0.13665771,-2.890625,-5.015625,6.25
1696251654540,0.012451172,-1.0628052,0.20404053,-1.296875,-0.9375,2.625
1696251654578,0.013427734,-1.0403442,0.1720581,-1.5625,-0.109375,-2.9375
1696251654619,0.017333984,-0.90093994,0.1539917,-1.1875,2.375,-1.171875
1696251654658,0.06298828,-0.94781494,0.17034912,-3.296875,0.859375,0.921875
1696251654698,0.06298828,-1.017395,0.1749878,-0.578125,-3.046875,-1.34375
1696251654718,-0.029052734,-0.9961548,0.20965576,-0.828125,-2.859375,-1.890625
1696251654759,-0.043701172,-0.9624634,0.1828003,-1.046875,-1.0,0.3125
1696251654798,0.059326172,-0.94903564,0.20452881,1.578125,6.65625,-1.421875
1696251654841,0.06567383,-0.9795532,0.21136475,0.1875,-0.578125,-3.734375
1696251654877,0.011962891,-0.99664307,0.15667725,-1.234375,-5.828125,-0.921875
1696251654918,-0.016357422,-0.98272705,0.18572998,-1.421875,0.171875,0.59375
1696251654958,-0.021972656,-0.98028564,0.19476318,1.15625,1.328125,1.03125
1696251654998,0.01586914,-0.98443604,0.19647217,-0.40625,0.515625,-0.921875
1696251655039,0.040527344,-0.98394775,0.19329834,-1.203125,0.78125,-0.9375
1696251655078,0.03491211,-0.9837036,0.18109131,-0.1875,-1.71875,0.46875
1696251655138,-0.007080078,-0.99884033,0.14910889,-1.546875,-3.3125,1.40625
1696251655157,0.016357422,-0.97003174,0.20477295,-1.0,-0.3125,0.4375
1696251655198,0.02758789,-0.97491455,0.1930542,-1.5625,-1.546875,-0.28125
1696251655261,0.025146484,-0.97442627,0.1906128,0.546875,-0.78125,1.4375
1696251655276,0.001953125,-0.9680786,0.18426514,1.609375,-3.484375,2.296875
1696251655341,-0.006591797,-0.98516846,0.27215576,3.0625,-3.421875,5.21875
1696251655377,-0.08105469,-0.9038696,0.17572021,0.046875,-7.859375,5.984375
1696251655396,0.068359375,-0.9470825,0.1876831,1.328125,7.0,4.671875
1696251655441,0.0793457,-1.050354,0.2399292,6.671875,14.8125,-1.1875
1696251655498,0.060546875,-1.029602,0.15472412,8.40625,3.359375,-3.921875
1696251655518,-0.017333984,-0.96954346,0.1593628,8.28125,-0.796875,-6.328125
1696251655562,0.0234375,-0.97247314,0.19232178,8.890625,12.546875,-6.96875
1696251655599,-0.008300781,-0.9529419,0.1395874,-3.0,12.875,-0.171875
1696251655638,-0.030273438,-0.9524536,0.09637451,-7.203125,0.640625,3.546875
1696251655678,0.032958984,-0.99884033,0.10784912,-1.015625,-7.328125,-1.390625
1696251655718,0.079833984,-1.0379028,0.1408081,6.953125,-13.703125,-2.296875
1696251655760,0.038330078,-1.0054321,0.0119018555,17.171875,-24.8125,1.234375
1696251655796,0.029785156,-0.7678833,0.18939209,-9.203125,-8.390625,7.140625
1696251655839,0.20996094,-1.0335083,0.19036865,-1.75,7.953125,1.515625
1696251655878,-0.28759766,-1.1106567,0.22088623,-13.203125,-18.765625,3.71875
1696251655919,-0.10473633,-0.93829346,0.17352295,2.0,4.25,-3.09375
1696251655977,0.064941406,-0.9956665,0.1486206,-0.171875,8.34375,-5.640625
1696251655996,0.19677734,-0.98687744,0.14300537,-1.53125,10.625,0.078125
1696251656018,0.076660156,-0.98101807,0.1708374,-6.09375,-9.921875,1.625
1696251656060,-0.07080078,-0.94244385,0.14984131,-2.828125,-10.484375,0.953125
1696251656100,-0.060791016,-1.0410767,0.18426514,-2.171875,1.046875,2.71875
1696251656137,9.765625E-4,-0.9768677,0.1918335,-2.46875,1.703125,-1.84375
1696251656177,0.034179688,-0.9595337,0.17938232,-3.296875,1.015625,-0.34375
1696251656218,-0.010253906,-0.9961548,0.17694092,-1.28125,0.15625,1.734375
1696251656258,0.010253906,-0.9751587,0.1786499,-2.03125,2.46875,0.6875
1696251656297,0.01977539,-0.95977783,0.18060303,-1.171875,3.515625,-2.15625
1696251656341,0.057617188,-1.0293579,0.17596436,1.015625,5.171875,1.375
1696251656377,0.0061035156,-0.9619751,0.21209717,-0.84375,1.484375,1.8125
1696251656420,-0.013427734,-0.958313,0.18304443,10.734375,3.09375,3.75
1696251656459,-0.107177734,-1.0249634,0.116882324,4.28125,-0.8125,10.28125
1696251656498,0.024902344,-0.9937134,0.1918335,0.96875,10.9375,3.4375
1696251656538,0.03955078,-0.9282837,0.14642334,0.421875,13.578125,-4.09375
1696251656577,0.11743164,-0.90704346,0.12762451,1.046875,19.296875,-3.703125
1696251656619,0.08666992,-0.9902954,0.17962646,-2.390625,7.671875,-3.46875
1696251656658,0.07421875,-1.0496216,0.16497803,-3.03125,2.046875,-2.453125
1696251656696,0.024169922,-1.0032349,0.16229248,0.140625,4.078125,-2.09375
1696251656739,0.045898438,-0.9175415,0.1593628,0.9375,4.546875,-0.59375
1696251656777,0.10498047,-0.98028564,0.17059326,-2.0625,1.046875,1.765625
1696251656819,0.06640625,-1.0095825,0.1642456,0.5625,-5.671875,0.6875
1696251656860,0.03466797,-0.99224854,0.17962646,0.0,-7.734375,1.265625
1696251656896,0.034179688,-0.9414673,0.15985107,-0.65625,-6.375,-0.90625
1696251656938,-0.01928711,-0.99298096,0.17376709,-1.296875,-3.625,0.28125
1696251656980,-0.040283203,-1.0171509,0.17108154,-2.703125,-2.203125,0.109375
1696251657017,-0.017822266,-0.98321533,0.15252686,-0.75,0.921875,-1.328125
1696251657061,0.045410156,-0.9639282,0.18841553,-0.375,4.15625,-0.546875
1696251657099,0.036621094,-0.95684814,0.16668701,-1.75,-1.875,1.03125
1696251657141,0.029296875,-1.008606,0.19329834,-3.4375,-2.921875,1.0
1696251657180,-0.0073242188,-0.99176025,0.18255615,-1.203125,-1.78125,-1.09375
1696251657220,-0.018310547,-0.96417236,0.17718506,-0.140625,0.8125,0.171875
1696251657258,0.044433594,-0.96099854,0.15106201,-0.0625,4.71875,0.6875
1696251657301,0.044189453,-0.9963989,0.2033081,0.96875,2.640625,-0.203125
1696251657338,-0.021484375,-0.99053955,0.18353271,0.53125,0.078125,0.015625
1696251657357,-0.0061035156,-0.95806885,0.1749878,-1.265625,4.546875,0.921875
1696251657396,0.06542969,-0.9714966,0.17327881,0.109375,4.0,-0.125
1696251657460,0.067871094,-0.9932251,0.18988037,0.0625,-0.71875,-0.109375
1696251657477,0.040527344,-0.95806885,0.16741943,1.0625,-1.59375,-0.828125
1696251657518,-0.0146484375,-0.99005127,0.18865967,1.265625,-1.859375,-0.0625
1696251657579,-0.033691406,-0.99786377,0.18450928,-1.296875,0.078125,-0.03125
1696251657596,-0.019042969,-0.94415283,0.18231201,-0.703125,5.3125,-0.609375
1696251657637,0.017333984,-0.96954346,0.16937256,3.90625,8.1875,1.890625
1696251657680,0.07373047,-1.0269165,0.20574951,9.1875,6.8125,0.90625
1696251657720,0.0029296875,-0.95758057,0.15203857,1.71875,2.65625,3.15625
1696251657779,0.045166016,-0.9373169,0.12908936,-5.359375,7.265625,3.515625
1696251657798,0.12792969,-0.9898071,0.20819092,-1.34375,15.4375,-4.453125
1696251657840,0.08129883,-1.09552,0.16448975,8.90625,1.0625,-3.15625
1696251657897,0.03466797,-0.9927368,0.046325684,11.578125,-6.875,0.75
1696251657918,-0.0107421875,-0.8862915,0.09710693,9.296875,-18.578125,4.375
1696251657957,-0.005859375,-0.9258423,0.062438965,13.03125,-11.9375,5.984375
1696251657998,0.06518555,-1.0127563,0.070739746,-5.640625,-8.6875,5.5625
1696251658038,0.04736328,-1.0161743,0.19281006,10.109375,4.796875,6.828125
1696251658100,0.15917969,-1.005188,0.031677246,1.625,-4.546875,3.0625
1696251658117,-0.020263672,-0.897522,0.14471436,-0.09375,-6.515625,7.71875
1696251658159,0.04296875,-0.975647,0.16790771,-3.0625,0.453125,4.84375
1696251658218,-0.0068359375,-1.0440063,0.1449585,3.671875,-0.390625,5.6875
1696251658238,0.04345703,-0.9546509,0.0836792,1.40625,0.671875,11.984375
1696251658279,0.1303711,-0.9751587,0.1239624,-1.390625,2.46875,8.453125
1696251658319,0.18554688,-1.0671997,0.12786865,-2.4375,-3.9375,-0.359375
1696251658380,0.16210938,-0.9429321,0.16326904,-2.609375,-4.15625,-4.078125
1696251658419,0.060302734,-0.9006958,0.08929443,-4.578125,-9.59375,-1.21875
1696251658436,0.10644531,-1.003479,0.089782715,-1.953125,-3.546875,0.515625
1696251658499,0.10424805,-1.045227,0.17840576,-1.9375,-8.1875,-5.53125
1696251658521,0.07104492,-0.96759033,0.1798706,-1.796875,-5.140625,-6.75
1696251658560,0.071777344,-0.92803955,0.12249756,-2.453125,-4.21875,-4.453125
1696251658598,0.11035156,-0.95318604,0.13006592,-2.96875,-2.625,-2.359375
1696251658639,0.09033203,-1.0293579,0.1539917,-2.75,-8.5625,-6.1875
1696251658659,0.028808594,-1.0361938,0.15472412,-4.40625,-6.546875,-5.234375
1696251658699,0.037353516,-0.93218994,0.1359253,-5.4375,1.3125,-5.5625
1696251658738,0.038085938,-0.92071533,0.1539917,0.234375,1.96875,-1.125
1696251658779,0.028808594,-1.0142212,0.15472412,-2.828125,-6.765625,2.9375
1696251658818,0.029785156,-1.0335083,0.1618042,0.171875,-2.46875,-0.5625
1696251658858,0.043945312,-0.97198486,0.14227295,-3.6875,-0.65625,-2.234375
1696251658900,0.027832031,-0.8970337,0.1317749,-3.328125,3.34375,0.53125
1696251658940,0.060302734,-1.0484009,0.18475342,-5.140625,-1.234375,-0.984375
1696251658979,0.06640625,-1.0513306,0.18377686,-6.265625,-2.875,-5.609375
1696251659016,0.057373047,-0.95391846,0.17376709,-4.140625,0.84375,-6.890625
1696251659060,0.07080078,-0.90289307,0.1671753,-5.59375,-3.796875,-4.875
1696251659101,0.07495117,-0.97369385,0.21942139,-3.84375,-4.234375,-0.53125
1696251659138,-0.02319336,-1.0137329,0.24310303,-5.453125,-8.328125,-1.828125
1696251659180,-0.076171875,-0.97003174,0.18328857,-2.671875,-1.078125,-2.515625
1696251659218,0.020019531,-0.9241333,0.22406006,0.859375,5.296875,-2.46875
1696251659258,0.05834961,-0.94488525,0.17767334,-0.78125,0.75,1.84375
1696251659298,0.041992188,-0.99053955,0.21868896,-0.71875,0.28125,1.828125
1696251659339,-0.0146484375,-0.9849243,0.21502686,1.875,-1.234375,1.328125
1696251659378,-0.0068359375,-0.9602661,0.1864624,2.703125,2.0,0.953125
1696251659418,0.010009766,-0.96173096,0.19525146,2.34375,1.953125,0.84375
1696251659459,0.037841797,-0.9710083,0.19647217,2.140625,2.5,2.15625
1696251659499,0.030761719,-1.0144653,0.21356201,1.4375,-1.9375,0.09375
1696251659539,0.0,-0.9771118,0.18426514,1.125,-3.90625,-0.796875
1696251659578,-0.0034179688,-0.9678345,0.20550537,0.265625,-2.0,0.390625
1696251659619,0.010009766,-0.9702759,0.1798706,-0.234375,0.796875,1.6875
1696251659659,-0.0063476562,-1.0093384,0.2111206,-0.890625,-1.984375,-0.25
1696251659700,-0.007080078,-0.9783325,0.19793701,-1.546875,-0.25,-1.453125
1696251659738,-0.0043945312,-0.92071533,0.20648193,-0.46875,1.578125,0.109375
1696251659779,0.04345703,-0.99542236,0.19085693,0.75,-0.484375,0.4375
1696251659818,0.06689453,-1.0186157,0.2111206,0.109375,-2.6875,-4.015625
1696251659858,0.0,-0.954895,0.20184326,-0.5,-6.546875,-4.0
1696251659898,-0.049316406,-0.9487915,0.19769287,-0.328125,-1.03125,-0.953125
1696251659939,-0.024414062,-0.98394775,0.21282959,2.890625,0.671875,0.34375
1696251659958,-0.02368164,-1.0066528,0.24017334,12.859375,4.921875,2.078125
1696251659997,0.035888672,-1.003479,0.24163818,19.015625,7.40625,3.515625
1696251660036,-0.018310547,-0.895813,0.12615967,5.484375,0.03125,8.046875
1696251660078,0.024414062,-0.9282837,0.13079834,5.65625,5.84375,5.34375
1696251660118,0.053955078,-1.0393677,0.12786865,1.796875,3.953125,1.4375
1696251660163,0.053222656,-1.0249634,0.09515381,2.03125,-3.609375,1.734375
1696251660199,0.037597656,-1.0213013,0.042907715,8.6875,-12.234375,0.734375
1696251660261,0.02368164,-0.9800415,0.023132324,12.21875,-22.1875,0.15625
1696251660298,0.1628418,-0.7932739,0.24993896,-7.96875,-5.484375,1.203125
1696251660316,-0.03881836,-1.0076294,0.08880615,-5.578125,-1.96875,0.21875
1696251660359,0.02709961,-1.0679321,0.15667725,-1.140625,-4.4375,0.125
1696251660422,0.061523438,-0.89556885,0.17767334,2.421875,-0.21875,-3.40625
1696251660439,-0.018066406,-1.0632935,0.1005249,-7.015625,-3.9375,4.390625
1696251660478,0.01977539,-1.0401001,0.14202881,-1.578125,0.28125,1.265625
1696251660540,0.013427734,-0.8965454,0.11907959,1.046875,-3.015625,-3.0
1696251660578,0.063964844,-0.9505005,0.09661865,-0.765625,1.4375,6.46875
1696251660598,0.08178711,-1.0498657,0.1486206,-4.875,-4.234375,5.09375
1696251660638,0.045410156,-1.0317993,0.2321167,1.09375,-2.265625,-1.171875
1696251660680,-0.018066406,-0.93218994,0.121032715,-3.09375,-5.890625,-2.515625
1696251660718,-0.0034179688,-0.9451294,0.08294678,-3.1875,3.421875,5.5
1696251660778,0.07543945,-1.0117798,0.1918335,-2.109375,-0.3125,3.328125
1696251660798,-0.05126953,-1.0049438,0.1749878,-5.0,-2.21875,0.53125
1696251660839,0.020507812,-0.94415283,0.13226318,-3.015625,2.4375,3.78125
1696251660880,0.12695312,-0.9319458,0.16131592,0.953125,6.53125,3.265625
1696251660937,0.17822266,-0.99957275,0.18743896,1.3125,2.359375,-2.703125
1696251660979,0.056152344,-0.9758911,0.16033936,-0.25,-2.84375,-5.890625
1696251661019,-0.016601562,-0.9692993,0.16741943,2.40625,3.5625,-2.5
1696251661037,0.018798828,-0.98443604,0.15814209,0.875,2.046875,-1.453125
1696251661100,0.06323242,-1.0281372,0.14178467,0.71875,5.828125,1.015625
1696251661116,0.10986328,-0.9824829,0.16595459,-0.984375,1.5625,-2.71875
1696251661159,0.055664062,-0.95635986,0.13739014,-2.28125,-0.765625,-3.109375
1696251661199,0.044921875,-0.9741821,0.1359253,-1.234375,-1.375,-0.4375
1696251661281,-0.0041503906,-0.9981079,0.13446045,-1.03125,-0.265625,1.53125
1696251661285,0.01928711,-1.0105591,0.1564331,-0.9375,0.4375,-1.109375
1696251661296,0.012939453,-0.9668579,0.15740967,-2.015625,-0.890625,-0.859375
1696251661338,0.01977539,-0.9873657,0.14886475,-3.296875,1.09375,2.25
1696251661380,0.038330078,-1.0076294,0.14837646,-2.015625,-0.53125,0.328125
1696251661419,0.08129883,-0.9121704,0.18084717,1.03125,3.5625,-1.96875
1696251661461,0.034179688,-0.9199829,0.1486206,1.34375,-1.453125,-1.703125
1696251661498,0.027832031,-1.0300903,0.16448975,0.875,-0.8125,1.140625
1696251661540,-0.0031738281,-1.0479126,0.18572998,-2.671875,-0.625,-1.21875
1696251661578,0.01171875,-0.9417114,0.15960693,1.25,5.375,-2.640625
1696251661618,0.057861328,-0.9541626,0.18011475,14.15625,16.984375,1.453125
1696251661660,0.008544922,-0.9961548,0.14349365,4.1875,12.140625,7.59375
1696251661701,0.033935547,-1.0303345,0.15081787,-0.421875,9.71875,4.953125
1696251661740,0.056396484,-1.0349731,0.16790771,1.8125,3.828125,-0.703125
1696251661778,0.055419922,-0.96466064,0.08685303,3.046875,-5.796875,-1.109375
1696251661818,0.03564453,-0.88482666,0.038024902,7.28125,-13.34375,0.546875
1696251661857,-7.324219E-4,-0.986145,0.086120605,12.375,-13.09375,1.96875
1696251661900,0.044677734,-1.0342407,0.06463623,2.4375,-2.1875,2.671875
1696251661939,0.046875,-1.0293579,0.11541748,-11.046875,-4.515625,4.78125
1696251661978,0.09887695,-0.9163208,0.12957764,-3.828125,-5.90625,-0.171875
1696251662018,0.11230469,-1.0418091,0.23236084,0.03125,7.484375,-5.171875
1696251662057,0.107666016,-0.9939575,0.070007324,-7.3125,-2.890625,-6.75
1696251662099,-0.041015625,-0.864563,0.097839355,-0.421875,-7.78125,-0.734375
1696251662142,-0.013183594,-1.0896606,0.13348389,1.15625,6.3125,3.953125
1696251662176,0.017578125,-1.0464478,0.14788818,0.6875,4.28125,-3.5
1696251662218,0.099853516,-0.928772,0.16815186,12.359375,22.3125,-2.578125
1696251662258,0.09399414,-1.0342407,0.1317749,18.90625,14.28125,2.046875
1696251662298,-0.0031738281,-0.9763794,0.06488037,-5.0,-1.421875,6.296875
1696251662339,0.014404297,-0.9595337,0.08074951,-10.921875,-1.75,5.0625
1696251662379,0.064208984,-1.0064087,-0.04083252,11.671875,-8.375,-2.796875
1696251662419,0.14428711,-0.9727173,0.058044434,6.359375,-9.03125,-0.6875
1696251662458,0.072753906,-0.86431885,0.09564209,-3.484375,-8.390625,6.703125
1696251662496,-0.02758789,-1.0132446,0.042907715,-17.21875,-17.59375,5.34375
1696251662537,0.049072266,-1.0708618,0.16595459,0.8125,-2.78125,-2.9375
1696251662579,0.1616211,-1.0108032,0.2164917,6.046875,7.921875,-9.5625
1696251662598,0.0690918,-0.90704346,0.121032715,-5.375,-7.109375,0.671875
1696251662640,0.048339844,-0.8711548,0.09637451,2.6875,0.3125,4.765625
1696251662678,0.0021972656,-1.1055298,0.15252686,-9.546875,-7.4375,-0.40625
1696251662718,0.07421875,-1.0615845,0.08807373,1.734375,-1.125,-5.421875
1696251662761,0.023925781,-0.8789673,0.13519287,-7.484375,-5.78125,-0.59375
1696251662799,0.01586914,-0.92388916,0.12542725,-0.1875,2.84375,5.34375
1696251662837,0.061767578,-1.1052856,0.16009521,-7.28125,-5.5625,0.265625
1696251662880,0.057617188,-1.0188599,0.10736084,-0.53125,0.171875,-7.09375
1696251662920,-0.010498047,-0.88897705,0.14422607,-4.875,-2.734375,-2.6875
1696251662961,0.053710938,-0.93096924,0.101257324,-4.3125,2.796875,1.96875
1696251663022,0.068847656,-1.0652466,0.18255615,-3.078125,-1.640625,-2.140625
1696251663038,0.067871094,-1.020813,0.19085693,-1.09375,1.859375,-6.546875
1696251663078,-0.036132812,-0.90216064,0.16009521,1.0,-0.484375,0.5625
1696251663119,0.020996094,-0.975647,0.16619873,0.0625,-2.59375,6.171875
1696251663182,0.059326172,-1.0466919,0.16131592,1.375,-1.171875,0.9375
1696251663200,0.04736328,-0.98272705,0.19793701,1.828125,-0.984375,-2.34375
1696251663262,-0.026123047,-0.94122314,0.11126709,-4.9375,-2.8125,3.28125
1696251663279,0.021728516,-0.9841919,0.16815186,-1.203125,6.890625,3.078125
1696251663341,0.060302734,-1.0342407,0.17645264,-3.625,2.4375,-0.578125
1696251663383,0.07373047,-0.92388916,0.15863037,-0.46875,4.1875,-0.71875
1696251663397,0.079833984,-0.9258423,0.17108154,-0.390625,-0.1875,0.9375
1696251663439,-0.03149414,-0.9932251,0.15985107,2.984375,-4.40625,2.90625
1696251663500,0.04711914,-1.0122681,0.15887451,1.8125,2.390625,-2.234375
1696251663516,0.049072266,-0.9854126,0.14886475,2.0625,-0.265625,-2.625
1696251663578,0.041992188,-0.9512329,0.12860107,-1.6875,-0.734375,2.0
1696251663619,0.009033203,-1.0081177,0.16912842,-0.765625,3.390625,0.8125
1696251663638,0.068603516,-1.0454712,0.15863037,-1.75,2.125,-3.96875
1696251663678,0.05053711,-0.93829346,0.14471436,-2.28125,1.46875,-2.296875
1696251663718,0.053222656,-0.9439087,0.13665771,-1.21875,-0.546875,2.53125
1696251663777,0.05493164,-1.0237427,0.17669678,-2.3125,-1.890625,4.640625
1696251663798,0.03955078,-0.9985962,0.19281006,-3.203125,-4.625,0.0625
1696251663862,0.040771484,-0.91778564,0.1630249,-3.359375,-3.171875,-2.4375
1696251663877,0.05053711,-0.94903564,0.15789795,-0.21875,-1.796875,1.75
1696251663898,0.045654297,-1.0076294,0.19744873,0.328125,-2.40625,1.703125
1696251663940,-7.324219E-4,-0.9927368,0.18328857,0.171875,-6.8125,-1.25
1696251663979,-0.030761719,-0.96221924,0.17962646,0.421875,-5.796875,3.578125
1696251664019,0.11767578,-1.0369263,0.16278076,1.265625,1.8125,0.9375
1696251664058,0.10449219,-0.98443604,0.14886475,-1.46875,-5.609375,-2.515625
1696251664099,0.013916016,-0.9734497,0.14422607,-7.28125,-7.65625,2.125
1696251664138,0.032226562,-0.9751587,0.21502686,-2.6875,-0.40625,2.078125
1696251664178,-0.0068359375,-1.0252075,0.2645874,1.140625,1.109375,2.390625
1696251664221,0.008300781,-0.95562744,0.16278076,3.90625,8.03125,2.8125
1696251664261,0.05810547,-0.87506104,0.16888428,-0.75,-1.6875,3.515625
1696251664302,0.11352539,-1.0227661,0.1749878,-8.109375,1.40625,3.5625
1696251664338,0.14257812,-0.9480591,0.2477417,-4.546875,-1.46875,-9.453125
1696251664377,0.036621094,-1.0281372,0.18328857,-8.875,-6.859375,-8.46875
1696251664420,-0.039794922,-0.9585571,0.19281006,-2.28125,-2.578125,-0.609375
1696251664458,-0.041748047,-0.97613525,0.25213623,-4.171875,1.140625,0.28125
1696251664499,0.040283203,-0.9805298,0.2789917,4.609375,3.828125,0.796875
1696251664538,0.0715332,-0.9483032,0.25604248,9.234375,1.203125,3.984375
1696251664579,0.033691406,-0.9607544,0.21551514,1.15625,-4.484375,5.140625
1696251664618,-9.765625E-4,-0.93756104,0.19134521,-6.46875,-4.0,4.421875
1696251664660,0.060546875,-1.003479,0.24212646,-7.046875,6.359375,3.53125
1696251664698,0.10107422,-1.0149536,0.22528076,-6.328125,3.65625,1.59375
1696251664739,0.09301758,-0.9849243,0.1630249,6.078125,-6.75,1.3125
1696251664779,0.06567383,-0.9116821,0.14324951,13.515625,-15.734375,-0.296875
1696251664818,0.115234375,-0.92755127,0.19744873,9.421875,-0.6875,-2.59375
1696251664858,0.021240234,-0.9614868,0.1798706,-13.703125,-8.71875,-2.359375
1696251664897,0.038330078,-0.942688,0.22723389,-6.78125,-14.3125,-4.625
1696251664937,0.016357422,-1.0786743,0.14788818,4.4375,0.859375,-5.78125
1696251664978,0.08569336,-0.9824829,0.3287964,5.078125,7.65625,-7.71875
1696251665018,-0.07421875,-0.92755127,0.2567749,-6.421875,-5.59375,-0.234375
1696251665057,-0.042236328,-0.8909302,0.15887451,3.96875,4.71875,6.515625
1696251665098,0.08544922,-1.034729,0.22454834,-1.046875,-1.515625,2.75
1696251665137,0.14331055,-0.95977783,0.20526123,4.0625,-3.71875,-3.84375
1696251665219,0.057128906,-0.94610596,0.30267334,1.984375,-1.671875,-2.09375
1696251665224,-0.072021484,-0.97003174,0.19818115,-3.34375,-3.796875,1.4375
1696251665237,-0.045166016,-0.9385376,0.22283936,4.34375,0.796875,1.953125
1696251665278,0.01928711,-1.0369263,0.28338623,1.125,2.5625,0.015625
1696251665319,0.13354492,-0.9939575,0.15057373,0.8125,3.515625,-3.375
1696251665359,0.111328125,-0.93170166,0.22113037,-3.359375,0.625,-1.8125
1696251665398,-0.092041016,-0.9990845,0.2243042,-3.203125,-7.25,4.71875
1696251665438,-0.095214844,-1.0195923,0.24871826,-6.296875,-2.109375,5.453125
1696251665481,-0.020507812,-0.9907837,0.2506714,-3.5,4.390625,1.421875
1696251665519,0.107177734,-0.93585205,0.19793701,-1.296875,4.453125,1.4375
1696251665560,0.123046875,-0.93707275,0.22210693,-2.40625,-1.453125,3.34375
1696251665601,0.025634766,-0.97784424,0.22259521,-3.03125,-7.921875,4.859375
1696251665641,-0.028320312,-0.97735596,0.24066162,-1.078125,-1.515625,0.796875
1696251665681,-0.018066406,-0.9673462,0.2526245,1.15625,4.390625,-3.328125
1696251665718,0.053466797,-0.9524536,0.24481201,0.59375,5.546875,-3.03125
1696251665757,0.087646484,-0.9463501,0.2399292,-3.4375,1.8125,-0.515625
1696251665798,0.067871094,-0.954895,0.24822998,-1.765625,-2.1875,0.1875
1696251665838,-0.0068359375,-0.9710083,0.26971436,-2.140625,-3.078125,-1.9375
1696251665877,-0.031982422,-0.9795532,0.23944092,-0.9375,1.109375,-2.875
1696251665918,0.014892578,-0.96832275,0.2489624,-0.484375,7.421875,-4.4375
1696251665960,0.08203125,-0.95880127,0.25042725,1.5,5.53125,-3.4375
1696251666019,0.05493164,-0.9553833,0.2543335,1.90625,0.703125,-0.890625
1696251666036,-0.006591797,-0.9553833,0.24212646,0.453125,-2.890625,0.1875
1696251666079,-0.03149414,-0.973938,0.2526245,0.421875,-1.96875,1.609375
1696251666139,0.02319336,-0.98687744,0.24359131,0.8125,2.25,0.875
1696251666179,0.04248047,-0.95977783,0.23699951,1.515625,2.234375,-2.015625
1696251666199,0.03100586,-0.96295166,0.24627686,6.046875,9.4375,1.328125
1696251666241,0.045410156,-0.99713135,0.26434326,14.203125,24.125,2.375
1696251666278,0.0390625,-0.9885864,0.17108154,3.90625,14.109375,2.609375
1696251666317,-0.011230469,-0.93878174,0.15423584,1.53125,0.171875,2.421875
1696251666379,0.057617188,-0.9968872,0.24993896,14.890625,8.15625,1.703125
1696251666398,0.13330078,-1.0266724,0.23846436,5.671875,0.390625,0.140625
1696251666462,0.03125,-0.9373169,0.07659912,5.671875,-12.796875,-0.40625
1696251666476,-0.04272461,-0.93536377,0.030944824,15.78125,-17.75,0.78125
1696251666518,0.040039062,-1.0276489,0.14324951,8.140625,-4.53125,2.484375
1696251666537,0.096191406,-0.8921509,0.152771,-5.328125,-4.25,5.03125
1696251666578,0.075683594,-1.0645142,0.21795654,-4.953125,-10.328125,1.5625
1696251666619,0.072265625,-1.0232544,0.11907959,-3.890625,-6.84375,-5.015625
1696251666659,0.05444336,-0.9570923,0.23138428,-3.890625,-0.6875,-5.453125
1696251666703,0.037841797,-0.9993286,0.10467529,-6.71875,0.03125,0.328125
1696251666738,-0.013183594,-0.944397,0.18060303,-0.875,-2.203125,2.671875
1696251666778,0.0017089844,-0.9788208,0.17352295,-3.15625,-3.03125,-0.09375
1696251666818,0.06201172,-1.008606,0.1449585,-3.453125,-2.390625,-3.59375
1696251666861,0.08203125,-0.9673462,0.22747803,0.71875,4.234375,-3.53125
1696251666900,0.0014648438,-0.9378052,0.19036865,0.375,-2.5,0.265625
1696251666939,-0.017578125,-0.9819946,0.14178467,-2.109375,-2.8125,3.21875
1696251666979,0.009521484,-1.0046997,0.19403076,-1.53125,1.828125,-0.234375
1696251667019,0.079833984,-0.99346924,0.23480225,3.34375,5.09375,-3.96875
1696251667059,0.024658203,-0.9336548,0.1593628,-1.71875,-2.578125,1.1875
1696251667099,0.016113281,-0.95928955,0.16888428,-1.234375,-1.9375,3.53125
1696251667138,0.02319336,-1.00177,0.19647217,-0.421875,-0.484375,-0.796875
1696251667179,0.028808594,-1.0081177,0.20648193,-0.171875,3.703125,-0.5
1696251667220,0.0056152344,-0.95391846,0.17718506,-1.28125,-2.46875,2.0
1696251667260,0.03857422,-0.96954346,0.16522217,-0.984375,-0.6875,1.578125
1696251667300,0.04663086,-0.9961548,0.18743896,1.109375,1.6875,-0.15625
1696251667339,0.03173828,-0.99591064,0.23577881,0.734375,1.0,-0.09375
1696251667378,0.041503906,-0.973938,0.18060303,-4.796875,-0.5625,0.9375
1696251667417,0.052001953,-0.91412354,0.17425537,-1.578125,-0.53125,-0.078125
1696251667459,0.055419922,-1.0005493,0.20281982,-1.65625,-2.09375,-2.203125
1696251667498,0.045166016,-0.9834595,0.19036865,-2.4375,-3.34375,-2.375
1696251667538,0.021728516,-0.9524536,0.18304443,-2.078125,-2.765625,-0.140625
1696251667579,-0.010253906,-0.9644165,0.19256592,0.8125,-0.734375,0.859375
1696251667617,0.0034179688,-0.9702759,0.20159912,3.328125,3.84375,0.21875
1696251667660,0.045166016,-1.0020142,0.184021,2.28125,2.015625,0.578125
1696251667699,0.0637207,-0.9780884,0.17962646,-0.8125,-1.171875,3.875
1696251667737,0.0146484375,-0.9585571,0.19329834,-0.15625,-1.609375,3.8125
1696251667777,0.020263672,-0.975647,0.1954956,0.9375,0.96875,2.78125
1696251667817,0.060546875,-1.0044556,0.19769287,1.203125,1.578125,2.1875
1696251667837,0.072509766,-0.97979736,0.20599365,0.21875,-1.140625,0.34375
1696251667878,-0.023925781,-0.960022,0.17425537,-0.34375,-0.15625,0.8125
1696251667920,0.009765625,-0.9920044,0.18206787,1.546875,3.1875,0.859375
1696251667960,0.057373047,-0.98272705,0.17767334,-0.359375,3.265625,0.203125
1696251668019,0.068115234,-0.9439087,0.1762085,-1.265625,1.578125,0.046875
1696251668036,0.045654297,-0.9729614,0.19207764,-1.875,0.65625,0.359375
1696251668081,0.05810547,-0.9973755,0.18817139,0.84375,0.59375,0.953125
1696251668118,0.033691406,-0.9758911,0.19451904,0.46875,-1.0625,0.65625
1696251668157,0.028564453,-0.92437744,0.19207764,6.421875,3.84375,0.484375
1696251668197,0.046142578,-1.0081177,0.19696045,2.109375,-1.28125,2.734375
1696251668239,0.040039062,-0.9898071,0.13690186,-0.609375,-0.21875,2.3125
1696251668278,0.050048828,-0.9890747,0.20404053,-1.546875,4.34375,-0.734375
1696251668319,0.09838867,-0.92681885,0.1564331,-1.90625,2.671875,1.03125
1696251668362,0.09765625,-0.9397583,0.16937256,-1.453125,1.375,2.6875
1696251668401,0.10571289,-1.0344849,0.21722412,-2.953125,-4.484375,0.046875
1696251668439,0.009765625,-0.9746704,0.18597412,-1.4375,-3.828125,-2.859375
1696251668500,-0.005126953,-0.9312134,0.16326904,1.140625,0.515625,-1.65625
1696251668518,-0.029296875,-0.9585571,0.16912842,6.203125,11.125,2.203125
1696251668560,0.095947266,-0.9536743,0.20477295,3.59375,5.03125,6.046875
1696251668598,0.15600586,-1.0115356,0.20281982,8.796875,8.140625,0.375
1696251668640,0.109375,-0.96343994,0.13665771,3.15625,4.09375,-0.40625
1696251668702,0.025390625,-0.9512329,0.12982178,0.40625,0.40625,2.484375
1696251668738,0.03100586,-1.0442505,0.15350342,1.484375,3.25,-0.484375
1696251668779,0.072509766,-1.0579224,0.17010498,-1.203125,5.203125,-3.46875
1696251668822,0.083496094,-0.94317627,0.086120605,-0.0625,-7.78125,-3.5
1696251668838,0.06567383,-0.9019165,0.034362793,8.296875,-20.734375,-1.9375
1696251668905,0.10644531,-1.0855103,0.15228271,4.78125,-7.203125,-2.1875
1696251668917,0.22753906,-0.784729,0.09051514,2.875,8.203125,8.140625
1696251668959,0.0146484375,-1.1345825,0.2814331,2.15625,-6.546875,5.59375
1696251669020,-0.063964844,-1.015686,0.21087646,-4.015625,-7.359375,-3.96875
1696251669058,0.056152344,-0.8440552,0.16912842,0.9375,10.65625,-6.515625
1696251669077,0.21362305,-1.0422974,0.11248779,-2.78125,2.140625,-1.421875
1696251669140,0.12866211,-0.9859009,0.18182373,-4.75,-7.421875,-1.90625
1696251669160,-0.037597656,-0.96710205,0.12860107,-7.609375,-9.484375,-3.953125
1696251669178,-0.033203125,-0.9458618,0.13079834,4.109375,3.421875,-1.5
1696251669220,0.0949707,-1.0657349,0.18939209,-0.5,3.78125,3.03125
1696251669259,0.080566406,-1.0166626,0.17156982,-7.71875,-10.015625,-2.765625
1696251669305,0.017333984,-0.9273071,0.14813232,-0.109375,-5.078125,-1.703125
1696251669338,-0.008300781,-0.9585571,0.17889404,7.046875,2.671875,3.9375
1696251669378,0.08496094,-1.0610962,0.2423706,8.8125,9.5,2.21875
1696251669420,0.031982422,-0.95806885,0.14984131,4.296875,7.359375,-0.109375
1696251669459,0.05126953,-0.95318604,0.121276855,-4.609375,2.46875,1.6875
1696251669499,0.027832031,-0.99591064,0.109802246,-8.078125,-6.5,1.875
1696251669537,0.038085938,-0.9390259,0.019226074,5.765625,-13.140625,-0.3125
1696251669579,0.037353516,-0.9651489,0.11981201,12.734375,-15.109375,-0.703125
1696251669619,0.14575195,-0.88848877,0.1486206,-3.25,-6.640625,5.453125
1696251669658,0.08227539,-1.1409302,0.16204834,-3.53125,-5.546875,7.984375
1696251669702,0.010253906,-0.9846802,0.21331787,-4.359375,-2.40625,2.5625
1696251669739,0.011474609,-0.9378052,0.21087646,2.828125,-0.015625,-6.8125
1696251669778,0.05029297,-0.89385986,0.1798706,3.5,0.203125,-3.109375
1696251669819,0.111328125,-0.958313,0.13446045,-6.296875,-1.390625,5.328125
1696251669859,0.040039062,-1.0828247,0.19232178,-5.640625,-4.34375,2.109375
1696251669899,0.026367188,-1.0200806,0.11224365,-1.375,-0.984375,-4.078125
1696251669937,-0.0041503906,-0.8809204,0.16278076,-2.5625,1.0625,1.390625
1696251669978,0.11279297,-0.96221924,0.1552124,-5.8125,-0.71875,1.578125
1696251670018,0.14477539,-1.0535278,0.22479248,0.171875,-5.140625,-2.171875
1696251670059,-0.017822266,-0.97320557,0.17572021,-1.125,-7.421875,-2.09375
1696251670097,-0.033203125,-0.90631104,0.1605835,-2.125,0.765625,0.53125
1696251670138,0.083496094,-1.0256958,0.16351318,-0.453125,4.28125,-0.703125
1696251670179,0.16259766,-1.0325317,0.2177124,3.109375,3.015625,-4.8125
1696251670218,0.0026855469,-0.91119385,0.17645264,-4.71875,-8.65625,-0.21875
1696251670257,-0.03857422,-0.9680786,0.17449951,-1.984375,-1.734375,4.0
1696251670298,0.041748047,-1.0567017,0.17962646,1.609375,4.109375,0.359375
1696251670339,0.104003906,-0.98028564,0.21917725,0.015625,4.140625,-3.78125
1696251670378,0.008544922,-0.909729,0.14007568,-4.40625,-4.5,1.96875
1696251670420,0.06616211,-0.9907837,0.17816162,-0.484375,3.296875,0.84375
1696251670458,0.017333984,-1.0435181,0.20452881,-1.921875,1.390625,-2.328125
1696251670478,0.028808594,-0.97052,0.1918335,-2.671875,2.609375,-1.796875
1696251670519,0.03881836,-0.9060669,0.16204834,-0.90625,4.328125,1.84375
1696251670559,0.09838867,-0.9956665,0.20965576,-0.8125,-1.6875,0.8125
1696251670598,0.048583984,-1.0078735,0.20794678,-0.40625,-4.03125,-0.9375
1696251670659,0.03466797,-0.9524536,0.17474365,0.28125,-0.28125,-0.078125
1696251670698,0.013427734,-0.9522095,0.16986084,-2.203125,-2.0,4.515625
1696251670717,0.118652344,-0.9788208,0.22601318,-1.125,1.421875,1.3125
1696251670758,0.084228516,-0.9998169,0.22454834,0.453125,-4.703125,-1.65625
1696251670820,0.010986328,-0.9651489,0.17230225,-2.09375,-5.75,2.53125
1696251670837,0.027832031,-0.9717407,0.19085693,-0.203125,-2.375,2.84375
1696251670879,0.052734375,-0.9717407,0.19818115,1.671875,-2.375,-0.375
1696251670919,0.044433594,-1.0093384,0.2255249,-0.421875,-0.84375,0.828125
1696251670958,0.044433594,-0.9573364,0.17913818,-0.3125,-2.46875,-1.046875
1696251670998,0.0107421875,-0.95025635,0.1984253,-0.390625,-1.65625,1.96875
1696251671039,0.015136719,-0.9807739,0.23724365,2.171875,0.3125,0.125
1696251671079,-0.039794922,-1.0090942,0.17474365,2.0625,3.015625,4.078125
1696251671119,0.08105469,-0.9873657,0.19403076,3.265625,7.390625,3.125
1696251671158,0.15698242,-0.9380493,0.1552124,2.890625,1.421875,-2.734375
1696251671200,0.08886719,-0.97320557,0.1552124,4.828125,0.90625,-0.3125
1696251671241,0.079589844,-1.0527954,0.20550537,14.859375,9.6875,2.34375
1696251671278,0.033203125,-0.96051025,0.16888428,0.46875,-0.609375,3.34375
1696251671324,-0.022949219,-0.8777466,0.1437378,-5.4375,2.421875,4.1875
1696251671359,-0.009521484,-0.98687744,0.21014404,2.078125,7.0,3.484375
1696251671400,0.07910156,-0.991272,0.10101318,0.75,-2.515625,1.640625
1696251671461,0.25830078,-1.048645,0.12200928,13.125,-9.46875,-1.5625
1696251671476,0.13354492,-0.909729,0.10321045,0.765625,-1.78125,0.234375
1696251671519,0.043701172,-0.91412354,0.10443115,-12.171875,-4.15625,2.921875
1696251671558,0.0021972656,-1.0310669,0.19134521,0.765625,-4.109375,-3.1875
1696251671620,0.114746094,-1.060852,0.27459717,0.578125,7.765625,-4.484375
1696251671638,0.055664062,-0.94854736,0.21697998,-7.3125,-9.984375,-2.71875
1696251671680,0.01977539,-0.9126587,0.11956787,-2.1875,-0.15625,1.375
1696251671718,0.051513672,-1.0283813,0.18743896,-4.484375,-5.875,-0.5625
1696251671777,0.10253906,-0.9714966,0.13031006,-3.609375,-3.0,-3.578125
1696251671798,0.080566406,-0.960022,0.13739014,-3.796875,-1.84375,-1.59375
1696251671818,0.0146484375,-0.9434204,0.21795654,-0.765625,-0.296875,2.0625
1696251671859,-0.011230469,-1.0195923,0.1762085,-4.09375,-6.140625,0.59375
1696251671899,0.03173828,-1.0325317,0.19329834,-3.65625,0.484375,-2.140625
1696251671939,0.12231445,-0.9212036,0.21697998,2.0,6.78125,-5.921875
1696251671979,0.038330078,-0.942688,0.1708374,-3.890625,-1.203125,0.6875
1696251672021,0.083496094,-0.9849243,0.20062256,0.359375,2.8125,1.078125
1696251672060,0.05834961,-1.0076294,0.21624756,2.03125,-0.84375,-1.40625
1696251672099,-0.022460938,-0.960022,0.18865967,-1.796875,-1.234375,3.015625
1696251672139,0.006591797,-0.9636841,0.21795654,-0.203125,2.15625,3.9375
1696251672179,0.06958008,-1.0459595,0.22625732,11.90625,10.859375,3.984375
1696251672218,0.056884766,-0.9199829,0.18157959,3.875,10.9375,4.84375
1696251672261,0.09692383,-0.92266846,0.1552124,-5.5625,5.75,5.984375
1696251672298,0.12109375,-1.0388794,0.18792725,0.1875,5.0625,2.1875
1696251672340,0.109375,-1.0388794,0.16790771,-2.453125,-3.640625,-2.359375
1696251672378,0.08520508,-0.90875244,0.1461792,-5.0625,-16.46875,-6.078125
1696251672419,-0.018554688,-0.93536377,0.078063965,16.921875,-11.75,-3.765625
1696251672460,0.095458984,-1.0808716,0.19818115,-7.265625,-4.5,-2.296875
1696251672500,0.06518555,-0.8809204,0.1552124,-5.09375,-2.71875,0.625
1696251672542,-0.021484375,-1.060852,0.22406006,4.171875,-6.609375,-3.21875
1696251672578,0.1550293,-0.9451294,0.18255615,0.140625,15.09375,-7.421875
1696251672617,0.051513672,-0.90753174,0.24822998,0.5,-9.359375,3.4375
1696251672660,0.057861328,-0.9614868,0.17669678,-1.75,-1.921875,3.859375
1696251672698,-0.037597656,-1.0645142,0.1852417,-3.171875,-5.265625,1.59375
1696251672739,0.08105469,-0.94122314,0.19451904,4.765625,2.015625,-3.921875
1696251672779,0.06518555,-0.93756104,0.1564331,-0.78125,0.5625,1.921875
1696251672820,0.08544922,-0.96099854,0.1749878,-3.359375,0.453125,2.609375
1696251672860,0.08935547,-1.0361938,0.18988037,-0.765625,-2.984375,-1.90625
1696251672900,0.043945312,-1.0410767,0.22259521,1.71875,-3.0,-4.28125
1696251672940,-0.02319336,-0.9573364,0.17669678,-1.453125,-4.578125,3.125
1696251672978,0.01928711,-0.8921509,0.16888428,-1.890625,-0.421875,5.609375
1696251673018,0.091308594,-1.0349731,0.18963623,1.515625,2.21875,2.578125
1696251673082,0.10473633,-1.0559692,0.23602295,-0.015625,-0.859375,-3.421875
1696251673098,0.032714844,-0.8965454,0.14959717,-0.46875,-3.25,-2.265625
1696251673118,-0.021240234,-0.9348755,0.1395874,-0.390625,-1.484375,5.0
1696251673160,0.06738281,-1.048645,0.21722412,0.125,4.359375,0.140625
1696251673219,0.11401367,-1.0281372,0.22747803,3.484375,3.078125,-4.09375
1696251673258,0.042236328,-0.8804321,0.1749878,3.4375,-0.6875,-0.90625
1696251673278,0.0048828125,-0.9126587,0.13226318,0.1875,-2.53125,7.1875
1696251673318,0.07055664,-1.0698853,0.1954956,2.75,-1.5625,5.078125
1696251673358,0.057861328,-1.0713501,0.1642456,1.78125,-5.125,-3.375
1696251673419,0.04663086,-0.8855591,0.15814209,0.65625,0.5625,-2.5625
1696251673458,0.040039062,-0.92144775,0.16473389,1.0,1.046875,3.5
1696251673478,0.05419922,-1.0271606,0.16888428,-2.921875,-1.28125,4.015625
1696251673540,0.033935547,-1.0408325,0.21331787,-0.640625,-0.734375,-2.328125
1696251673558,0.038330078,-0.956604,0.1630249,2.09375,0.640625,-2.65625
1696251673598,0.08227539,-0.9036255,0.11175537,0.734375,2.484375,0.96875
1696251673639,0.08325195,-0.94195557,0.18328857,0.6875,1.53125,3.34375
1696251673678,0.06225586,-1.0757446,0.20233154,-1.4375,-0.625,-0.796875
1696251673719,0.0234375,-1.0300903,0.1317749,3.953125,-0.828125,-1.734375
1696251673759,0.13061523,-0.90338135,0.14324951,1.984375,3.4375,-3.265625
1696251673797,0.09301758,-0.91412354,0.18621826,0.296875,-2.265625,3.59375
1696251673841,0.010009766,-1.0064087,0.19207764,-2.046875,-2.296875,4.84375
1696251673880,0.05908203,-1.0940552,0.16693115,2.859375,-1.453125,0.109375
1696251673919,0.056884766,-0.909729,0.14788818,2.078125,1.40625,-3.90625
1696251673960,0.075683594,-0.9456177,0.13812256,2.0,0.953125,4.6875
1696251673998,0.08178711,-0.954895,0.15716553,-0.90625,-1.078125,5.40625
1696251674039,0.07324219,-1.052063,0.19256592,-3.171875,0.0,-0.15625
1696251674078,0.06738281,-0.98443604,0.1539917,-0.625,-2.90625,-4.171875
1696251674118,0.06616211,-0.88482666,0.13787842,-0.046875,1.0,1.296875
1696251674160,0.0847168,-1.00177,0.18035889,-0.234375,-0.4375,5.171875
1696251674219,0.03564453,-1.0029907,0.18743896,-2.796875,-3.484375,-0.546875
1696251674240,-0.0078125,-0.95098877,0.14202881,-3.140625,2.890625,0.234375
1696251674280,0.13500977,-1.0542603,0.15008545,2.546875,0.6875,-3.859375
1696251674319,0.14501953,-0.94903564,0.13739014,-3.421875,0.265625,-7.0625
1696251674358,0.0146484375,-0.9402466,0.17376709,-0.1875,-3.375,0.390625
1696251674400,-0.0021972656,-0.97857666,0.20135498,-0.375,4.359375,2.796875
1696251674419,0.040527344,-1.0137329,0.27703857,7.9375,13.265625,-1.15625
1696251674460,0.017089844,-0.94976807,0.12054443,-2.40625,7.78125,3.609375
1696251674497,0.07543945,-0.92510986,0.10882568,-4.09375,-3.46875,4.921875
1696251674540,0.16088867,-1.0430298,0.13104248,-2.515625,4.0,4.625
1696251674580,0.20043945,-1.0310669,0.18035889,-4.953125,-8.578125,-2.75
1696251674620,0.13427734,-0.9360962,0.1852417,4.59375,-13.734375,-4.5625
1696251674661,0.05810547,-1.1221313,0.0602417,13.03125,-10.6875,2.390625
1696251674697,-0.018554688,-0.8369751,0.2526245,-5.921875,2.640625,-7.828125
1696251674739,-0.072265625,-0.8406372,0.11981201,-1.375,2.78125,3.046875
1696251674780,0.09863281,-1.1067505,0.20233154,2.6875,8.25,2.625
1696251674817,0.15942383,-0.9951782,0.21356201,-0.625,1.625,-1.546875
1696251674860,0.028076172,-1.0037231,0.04095459,-2.109375,-9.578125,1.3125
1696251674899,0.11694336,-0.9468384,0.2909546,4.0625,3.390625,-1.640625
1696251674940,-0.017822266,-0.9290161,0.12884521,3.453125,-1.015625,6.09375
1696251674978,0.11206055,-0.9890747,0.16937256,3.84375,2.21875,7.453125
1696251675019,0.08178711,-1.0586548,0.13787842,3.5,-0.078125,4.25
1696251675058,0.1538086,-0.94000244,0.18817139,5.765625,3.6875,-2.78125
1696251675101,0.06567383,-0.9102173,0.1486206,3.3125,-8.84375,-0.015625
1696251675138,0.056396484,-0.9758911,0.13763428,0.015625,1.3125,4.796875
1696251675183,0.08105469,-1.0391235,0.18011475,-0.078125,-2.578125,-0.140625
1696251675219,0.0146484375,-1.0576782,0.101257324,-2.671875,-5.234375,-0.765625
1696251675259,0.07543945,-0.9512329,0.1395874,-3.296875,0.75,-2.96875
1696251675301,0.056152344,-0.95513916,0.11663818,-4.21875,0.0625,0.765625
1696251675339,0.15161133,-0.9956665,0.15423584,-4.8125,-1.015625,-1.84375
1696251675381,0.04296875,-0.95806885,0.16351318,-4.671875,-1.453125,-5.25
1696251675422,-0.015136719,-0.98223877,0.13470459,-4.5,1.375,-2.03125
1696251675459,0.029785156,-0.9553833,0.20013428,-1.84375,10.359375,-3.796875
1696251675501,0.1340332,-0.94537354,0.17352295,1.5625,5.984375,-5.015625
1696251675538,0.13720703,-0.9014282,0.17401123,4.84375,3.953125,-6.6875
1696251675579,0.061279297,-1.0078735,0.13275146,6.1875,-3.703125,-3.953125
1696251675616,0.06640625,-1.020813,0.17303467,3.9375,-2.0,-2.046875
1696251675659,0.039794922,-1.0183716,0.1473999,2.078125,1.015625,-0.625
1696251675719,0.008300781,-0.9807739,0.14227295,0.203125,1.671875,2.609375
1696251675738,0.0925293,-0.97052,0.16473389,-0.734375,2.46875,2.046875
1696251675778,0.09472656,-0.98150635,0.17156982,-2.046875,-3.203125,1.53125
1696251675818,0.04345703,-0.9780884,0.1486206,-3.265625,-5.265625,0.125
1696251675861,0.024169922,-0.96417236,0.11468506,0.09375,-2.265625,-1.921875
1696251675877,0.04345703,-0.94537354,0.12689209,4.21875,0.21875,-4.84375
1696251675918,0.036621094,-0.9702759,0.13543701,4.125,0.828125,-5.375
1696251675958,0.03173828,-0.99298096,0.13250732,2.171875,-0.375,-4.53125
1696251675999,0.036132812,-1.0183716,0.14788818,3.125,-3.109375,-3.59375
1696251676041,-0.01586914,-0.98687744,0.13641357,0.171875,-3.546875,-3.4375
1696251676098,-0.015380859,-1.0254517,0.18792725,6.390625,4.25,-0.625
1696251676119,0.017089844,-1.0147095,0.15545654,2.6875,-0.109375,0.203125
1696251676159,-0.12426758,-0.9421997,0.1630249,-11.359375,-2.125,5.03125
1696251676200,-0.06567383,-1.0435181,0.13372803,1.921875,12.21875,5.875
1696251676258,0.13208008,-1.0542603,0.09173584,3.75,12.171875,2.015625
1696251676277,0.14404297,-0.87750244,0.039245605,4.671875,-1.296875,-1.625
1696251676318,0.048583984,-0.9060669,0.0993042,12.03125,-12.25,3.796875
1696251676381,-0.0029296875,-1.0239868,0.06488037,13.734375,-0.515625,7.40625
1696251676398,0.037109375,-1.0071411,0.09661865,-7.125,-13.84375,7.125
1696251676439,0.041259766,-0.8657837,0.13983154,-4.96875,-12.578125,7.203125
1696251676480,0.17553711,-1.0300903,0.1486206,1.46875,7.265625,-6.34375
1696251676539,-0.0078125,-1.0498657,0.0602417,2.5625,-3.390625,-3.609375
1696251676558,-0.008544922,-0.88726807,0.10418701,-2.390625,-1.640625,2.828125
1696251676601,0.030273438,-0.98809814,0.105895996,3.203125,13.921875,-1.90625
1696251676641,0.10473633,-1.0855103,0.10784912,5.140625,8.6875,-3.21875
1696251676680,0.08251953,-0.97052,0.09661865,-2.59375,0.078125,-4.21875
1696251676721,0.030029297,-0.9536743,0.09051514,-3.984375,-5.96875,2.53125
1696251676758,0.021972656,-0.92510986,0.09906006,-0.984375,-3.203125,4.9375
1696251676802,0.06933594,-1.0737915,0.1618042,2.8125,2.21875,-0.25
1696251676839,0.07421875,-0.9944458,0.16571045,3.46875,7.875,-4.75
1696251676879,-0.01928711,-0.94317627,0.097595215,3.140625,12.484375,4.640625
1696251676940,-0.014160156,-1.0066528,0.02166748,-1.296875,-0.296875,8.0
1696251676956,0.033447266,-1.0293579,0.06561279,3.59375,-0.40625,0.671875
1696251677022,0.07861328,-0.96295166,0.047546387,6.203125,-4.8125,-0.59375
1696251677038,0.08081055,-0.9639282,0.030212402,-1.75,-16.09375,3.421875
1696251677058,0.12646484,-0.9612427,0.020690918,-2.40625,-6.78125,4.09375
1696251677098,0.14916992,-0.95025635,0.097839355,-9.859375,-12.59375,3.359375
1696251677139,0.036132812,-1.08844,0.22796631,2.078125,-8.0,1.90625
1696251677181,-0.010253906,-0.95684814,0.025817871,-5.640625,-6.21875,-2.921875
1696251677220,0.0637207,-0.95391846,0.17303467,1.515625,8.59375,-4.046875
1696251677259,0.115722656,-0.97857666,0.16278076,-5.84375,-3.546875,1.0625
1696251677302,0.021240234,-0.913147,0.09197998,-3.890625,-5.40625,3.5625
1696251677342,0.016357422,-1.0230103,0.058288574,-7.53125,-2.328125,0.546875
1696251677380,0.15039062,-1.0332642,0.18988037,2.40625,3.453125,-6.28125
1696251677418,0.07470703,-0.9505005,0.15325928,-2.5,-4.859375,0.65625
1696251677459,0.02319336,-0.90338135,0.090026855,-6.25,-4.203125,2.46875
1696251677498,0.08496094,-1.0447388,0.1864624,0.734375,0.953125,-1.703125
1696251677537,0.0925293,-1.0271606,0.16790771,0.84375,-0.40625,-5.03125
1696251677581,-0.022460938,-0.9126587,0.09442139,-5.1875,-4.375,1.9375
1696251677620,0.037597656,-0.9468384,0.11175537,0.09375,2.0,0.078125
1696251677660,0.122802734,-1.0383911,0.23187256,3.25,5.078125,-2.484375
1696251677698,0.01928711,-0.9636841,0.1749878,-1.875,-5.78125,2.546875
1696251677740,-0.04248047,-0.92926025,0.10638428,-1.859375,-0.3125,7.75
1696251677779,0.076660156,-1.0684204,0.08270264,0.578125,2.375,2.078125
1696251677818,0.16381836,-1.003479,0.20379639,2.921875,3.265625,-5.21875
1696251677858,0.02734375,-0.8880005,0.12542725,-4.703125,-3.5,0.484375
1696251677899,0.06591797,-0.95391846,0.14788818,-1.9375,1.171875,2.34375
1696251677939,0.07739258,-1.0813599,0.16522217,-2.40625,-3.796875,-2.34375
1696251677979,0.05493164,-0.9636841,0.17572021,-2.1875,0.890625,-5.8125
1696251678021,0.0073242188,-0.91070557,0.137146,-3.984375,-0.203125,-0.703125
1696251678060,0.048583984,-0.96539307,0.11981201,-1.859375,-1.265625,2.265625
1696251678100,0.071777344,-1.0320435,0.17401123,-0.6875,-0.078125,-1.703125
1696251678141,0.041992188,-0.9985962,0.20159912,-0.46875,2.03125,-4.453125
1696251678180,0.0234375,-0.9378052,0.15545654,-2.34375,0.5625,0.1875
1696251678220,0.048339844,-0.9517212,0.14715576,-1.1875,0.5,1.984375
1696251678261,0.042236328,-1.0232544,0.16033936,0.109375,-0.3125,-1.515625
1696251678299,0.07446289,-0.9920044,0.17816162,-1.078125,2.09375,-2.140625
1696251678339,0.07080078,-0.95269775,0.152771,-1.484375,1.390625,0.546875
1696251678359,0.049072266,-0.9829712,0.1642456,0.140625,-0.984375,2.203125
1696251678421,0.027832031,-1.0044556,0.15765381,-2.1875,-1.796875,0.078125
1696251678437,0.037109375,-0.9534302,0.17181396,-0.65625,2.671875,-1.046875
1696251678499,0.087402344,-0.95440674,0.14764404,1.8125,5.0,1.390625
1696251678518,0.114990234,-0.9873657,0.17327881,1.796875,-1.71875,1.203125
1696251678558,0.03930664,-1.0147095,0.16815186,-1.84375,-5.34375,0.71875
1696251678599,-0.0036621094,-0.95391846,0.14813232,-0.5625,-2.015625,-3.140625
1696251678639,0.055908203,-0.9414673,0.1630249,0.328125,3.171875,-5.109375
1696251678678,0.047607422,-0.9780884,0.17889404,0.75,0.03125,0.15625
1696251678721,0.060546875,-1.0183716,0.17376709,-0.96875,-1.984375,-0.109375
1696251678759,0.0034179688,-0.9849243,0.17279053,1.078125,-3.65625,-2.65625
1696251678797,0.0146484375,-0.928772,0.16937256,1.78125,-0.234375,-1.09375
1696251678838,0.034179688,-0.9553833,0.168396,-1.234375,0.75,1.65625
1696251678879,0.045166016,-1.0271606,0.19329834,3.484375,-0.625,0.859375
1696251678919,0.048828125,-1.0078735,0.25482178,12.140625,9.078125,0.046875
1696251678958,0.033447266,-0.986145,0.14447021,5.96875,11.578125,2.96875
1696251679001,0.009765625,-0.95684814,0.06536865,-1.21875,1.453125,5.03125
1696251679040,0.0107421875,-1.010315,0.124694824,3.84375,-7.890625,1.515625
1696251679081,0.061035156,-0.98101807,0.18914795,6.296875,-1.8125,-0.328125
1696251679118,0.02709961,-0.9819946,0.13348389,0.25,5.140625,0.015625
1696251679181,0.03540039,-1.0044556,0.12542725,-8.78125,2.203125,-1.1875
1696251679197,0.029052734,-0.9480591,-0.01373291,1.84375,-17.46875,-1.375
1696251679238,0.05419922,-1.0061646,0.07635498,21.4375,-9.96875,0.3125
1696251679279,0.15209961,-0.82598877,0.23358154,-14.671875,1.03125,8.78125
1696251679340,0.057617188,-1.0337524,0.06097412,5.0625,-10.25,4.640625
1696251679359,-0.011962891,-1.2051392,0.1762085,-1.890625,5.640625,-0.734375
1696251679399,0.19311523,-0.8530884,0.2453003,5.359375,17.953125,-8.59375
1696251679459,0.011230469,-0.9619751,0.22332764,-4.953125,-13.828125,-4.484375
1696251679477,-0.109375,-0.88946533,0.059020996,-0.890625,-5.921875,1.671875
1696251679519,-0.052246094,-1.0650024,0.120788574,-7.9375,-2.609375,4.671875
1696251679560,0.12060547,-0.99102783,0.18475342,1.34375,0.203125,-1.84375
1696251679601,0.11279297,-0.93878174,0.14593506,-8.1875,0.234375,0.765625
1696251679666,0.034179688,-1.0181274,0.09832764,-4.625,-3.1875,-0.90625
1696251679677,-0.030273438,-1.0098267,0.19281006,-1.625,-1.4375,1.078125
1696251679698,0.011474609,-0.98516846,0.15594482,-4.34375,-2.234375,1.015625
1696251679738,0.03149414,-0.95684814,0.10784912,-0.71875,3.484375,-1.71875
1696251679778,0.114990234,-0.987854,0.12689209,0.3125,7.1875,-0.75
1696251679820,0.032470703,-0.9812622,0.16741943,-2.359375,-5.875,1.484375
1696251679858,0.05883789,-0.9807739,0.16107178,-1.28125,-3.546875,2.859375
1696251679900,0.0234375,-0.9751587,0.17645264,-0.765625,-3.109375,1.359375
1696251679940,0.038330078,-1.0220337,0.14910889,0.265625,2.984375,1.0625
1696251679978,0.07348633,-0.9949341,0.11199951,-1.9375,2.671875,2.140625
1696251680020,0.0769043,-0.92559814,0.16644287,-4.265625,-3.28125,4.171875
1696251680060,0.072753906,-0.98443604,0.1828003,-0.34375,-3.875,0.65625
1696251680099,0.052001953,-1.0149536,0.19281006,-1.0625,-1.09375,-0.515625
1696251680139,0.07470703,-0.9624634,0.15032959,-2.515625,0.0625,-0.34375
1696251680180,0.14257812,-0.9553833,0.09857178,-0.28125,-4.65625,0.65625
1696251680221,0.028564453,-0.9800415,0.20135498,0.546875,-6.828125,5.703125
1696251680260,0.0036621094,-0.9780884,0.20526123,-3.34375,-8.40625,4.234375
1696251680298,0.046142578,-0.9678345,0.19647217,1.390625,4.90625,-0.015625
1696251680340,0.06616211,-1.0078735,0.16790771,0.4375,-0.546875,0.0
1696251680378,0.043701172,-0.98272705,0.18304443,0.21875,-0.140625,-0.359375
1696251680418,0.016601562,-0.94976807,0.1708374,-2.15625,1.796875,3.828125
1696251680459,0.09399414,-0.9517212,0.18231201,0.109375,0.953125,1.75
1696251680500,0.076660156,-1.003479,0.1774292,-1.921875,-2.140625,-1.71875
1696251680538,0.05126953,-0.9475708,0.1906128,-0.1875,1.953125,-1.9375
1696251680578,0.064697266,-0.96466064,0.1984253,0.234375,1.53125,-1.671875
1696251680620,0.04321289,-0.98883057,0.19720459,1.1875,-0.921875,-0.40625
1696251680662,0.042236328,-0.97784424,0.20794678,-0.484375,-0.890625,-1.390625
1696251680700,0.047607422,-0.9727173,0.17938232,1.734375,3.109375,-1.65625
1696251680739,0.099853516,-0.97052,0.17669678,1.78125,2.34375,-2.421875
1696251680778,0.09350586,-0.97052,0.168396,0.9375,-0.125,-1.96875
1696251680818,0.059814453,-0.97125244,0.19476318,4.921875,0.484375,-1.65625
1696251680860,0.01953125,-1.0166626,0.23724365,14.546875,7.28125,-0.171875
1696251680899,0.034423828,-0.9661255,0.15765381,6.53125,8.078125,-0.1875
1696251680962,0.036376953,-0.9541626,0.1305542,1.890625,1.5625,-0.21875
1696251680984,0.04736328,-0.97979736,0.10614014,-3.5,-7.40625,0.671875
1696251680998,0.038330078,-0.97979736,0.011657715,1.0,-15.484375,0.3125
1696251681038,0.05810547,-1.0654907,0.09979248,12.78125,-2.171875,0.53125
1696251681079,0.10424805,-0.95758057,0.12322998,-4.546875,-1.5,1.640625
1696251681118,0.040039062,-1.0222778,0.16400146,-6.40625,2.515625,1.671875
1696251681159,0.076171875,-0.9312134,0.11419678,-7.421875,2.84375,-5.203125
1696251681221,-0.064941406,-0.90460205,0.20306396,0.625,0.234375,0.171875
1696251681239,0.044921875,-1.0247192,0.13739014,-1.234375,3.203125,2.59375
1696251681279,0.13061523,-1.0669556,0.13568115,-7.125,-3.03125,0.046875
1696251681321,0.103759766,-0.9536743,0.17694092,-2.75,6.953125,-4.46875
1696251681361,0.011962891,-0.8677368,0.1515503,1.859375,-0.96875,-1.84375
1696251681421,0.06689453,-0.93927,0.15863037,2.09375,0.8125,4.5625
1696251681437,0.07714844,-1.0762329,0.27093506,2.203125,4.03125,3.234375
1696251681479,-0.0078125,-1.0432739,0.2506714,9.46875,6.40625,3.4375
1696251681519,-0.12451172,-0.89019775,0.11248779,0.46875,9.59375,11.140625
1696251681580,-0.010253906,-0.956604,0.0914917,-1.125,7.65625,10.234375
1696251681619,0.2512207,-1.1323853,0.1461792,3.890625,2.25,1.859375
1696251681639,0.22094727,-0.92388916,0.050476074,5.203125,-10.078125,-4.015625
1696251681701,0.053955078,-0.8291626,-0.008117676,15.265625,-15.234375,0.203125
1696251681718,0.029052734,-0.975647,0.11639404,-2.34375,-10.171875,3.28125
1696251681761,0.007080078,-1.0149536,0.18450928,-13.875,-5.703125,5.484375
1696251681798,0.119140625,-1.1091919,0.19598389,-3.3125,-4.75,-3.203125
1696251681839,0.12817383,-0.9771118,0.049743652,-3.6875,-2.046875,-8.515625
1696251681879,0.17163086,-0.88897705,0.12200928,0.875,3.875,-2.25
1696251681918,0.016113281,-0.9248657,0.22113037,-0.984375,-5.59375,3.9375
1696251681958,0.036865234,-1.0264282,0.18060303,-5.28125,-0.171875,3.78125
1696251681999,0.04345703,-1.06427,0.11883545,1.53125,-1.546875,-1.90625
1696251682062,0.1352539,-0.9710083,0.11004639,1.5625,-0.5625,-2.5
1696251682077,-0.015625,-0.8657837,0.17132568,-4.0625,-5.40625,6.796875
1696251682142,0.08959961,-0.9902954,0.08758545,-2.140625,5.375,5.65625
1696251682158,0.20825195,-1.0635376,0.15252686,4.3125,1.75,-8.109375
1696251682198,0.0715332,-0.9180298,0.20306396,-0.78125,-4.59375,-4.609375
1696251682239,0.033447266,-0.8933716,0.08074951,-5.578125,-1.640625,3.34375
1696251682278,0.088134766,-1.0449829,0.1408081,-2.296875,1.0625,1.03125
1696251682298,0.10253906,-1.050354,0.20941162,-0.25,0.796875,-3.921875
1696251682338,0.041259766,-0.9006958,0.15985107,-4.859375,-2.0,-2.59375
1696251682377,0.107421875,-0.9295044,0.1251831,-6.0,-0.78125,1.078125
1696251682419,0.08276367,-0.9981079,0.19866943,-0.171875,5.296875,-3.734375
1696251682458,0.010498047,-1.0222778,0.23236084,0.453125,5.46875,-3.125
1696251682498,0.008300781,-0.9077759,0.15350342,-1.578125,3.921875,-1.609375
1696251682539,0.12719727,-0.9216919,0.18548584,2.65625,8.671875,-1.34375
1696251682579,0.079589844,-1.0244751,0.1930542,4.046875,3.34375,-1.71875
1696251682619,0.045410156,-0.9902954,0.17401123,3.203125,2.859375,-1.640625
1696251682661,0.055908203,-1.005188,0.16278076,0.875,6.640625,-1.5
1696251682700,0.06323242,-0.9805298,0.14324951,3.09375,6.859375,-0.015625
1696251682740,0.118896484,-0.9973755,0.12615967,-0.75,-0.28125,-1.296875
1696251682778,0.10253906,-1.0078735,0.14398193,-0.09375,-0.140625,1.265625
1696251682819,0.1171875,-0.97491455,0.13153076,-5.265625,-5.078125,0.34375
1696251682859,0.04272461,-0.97198486,0.15447998,-0.375,-4.046875,2.15625
1696251682899,0.064208984,-1.0132446,0.1539917,-2.109375,-6.015625,0.84375
1696251682940,0.04248047,-0.98321533,0.15667725,-3.078125,-4.859375,-0.265625
1696251682979,0.08862305,-0.9512329,0.16668701,-1.875,-4.6875,-1.28125
1696251683020,0.05102539,-0.94537354,0.14031982,-1.25,-3.46875,-0.46875
1696251683061,0.08935547,-0.97076416,0.20477295,-3.78125,-4.375,-0.328125
1696251683100,-0.0073242188,-0.94000244,0.24554443,-2.546875,-2.046875,-0.71875
1696251683140,-0.09423828,-0.989563,0.21624756,7.71875,6.125,8.703125
1696251683179,-0.048583984,-0.98223877,0.121032715,-1.609375,0.984375,14.328125
1696251683219,0.07470703,-0.99005127,0.14593506,1.84375,3.0,9.5
1696251683261,0.1665039,-1.041565,0.19329834,2.515625,10.34375,4.40625
1696251683299,0.19970703,-0.9439087,0.12615967,9.703125,1.890625,-2.21875
1696251683338,0.14331055,-0.944397,0.13934326,10.9375,-7.703125,-5.984375
1696251683380,0.04272461,-0.93927,0.12982178,1.078125,-1.234375,-2.734375
1696251683420,0.0012207031,-0.9937134,0.109069824,-6.5625,-1.46875,3.609375
1696251683459,0.047851562,-0.99957275,0.18475342,-3.0,-1.984375,-0.5
1696251683499,0.14697266,-1.0315552,0.14154053,-0.265625,1.15625,-4.546875
1696251683538,0.26953125,-1.0254517,0.22210693,-7.875,-8.375,-6.0
1696251683618,0.049316406,-0.8648071,0.18597412,-5.1875,-7.65625,-5.328125
1696251683621,-0.11010742,-0.94317627,0.09954834,-6.515625,0.09375,-3.296875
1696251683638,0.088378906,-1.1082153,0.2098999,3.703125,12.0625,-8.171875
1696251683720,0.119140625,-0.95635986,0.23065186,-4.609375,1.25,-5.109375
1696251683724,0.040039062,-0.880188,0.19940186,-4.453125,-2.78125,1.75
1696251683759,-0.038330078,-0.9795532,0.1906128,0.015625,0.0,1.984375
1696251683800,0.016357422,-1.0388794,0.27508545,9.734375,8.296875,4.0
1696251683840,0.03881836,-0.96832275,0.14471436,-1.59375,5.1875,4.828125
1696251683880,0.13696289,-0.90826416,0.14349365,3.578125,-5.734375,3.734375
1696251683939,0.16186523,-0.9714966,0.13641357,4.921875,-9.296875,3.96875
1696251683958,0.041748047,-1.0498657,0.18548584,5.328125,0.21875,7.5
1696251683998,-0.056396484,-1.0117798,0.13397217,5.796875,1.265625,7.078125
1696251684039,0.057128906,-0.94732666,0.1005249,1.796875,1.25,2.609375
1696251684080,0.1809082,-0.9299927,0.12982178,1.0,1.6875,0.71875
1696251684140,0.1352539,-0.972229,0.16522217,-0.15625,-7.5625,5.765625
1696251684159,0.11816406,-0.98443604,0.10394287,-4.703125,-9.109375,2.609375
1696251684200,0.0703125,-1.0872192,0.11199951,-5.859375,-8.125,1.46875
1696251684241,0.12084961,-0.97198486,0.15032959,1.359375,-2.046875,-3.078125
1696251684280,0.033447266,-0.89141846,0.12835693,0.09375,-4.375,0.53125
1696251684344,0.14160156,-1.0230103,0.3324585,-0.125,1.953125,2.84375
1696251684358,0.14575195,-0.97784424,0.18035889,-8.296875,-9.859375,-2.234375
1696251684399,-0.0026855469,-0.8921509,0.13885498,0.765625,-4.109375,3.90625
1696251684439,0.10058594,-1.0376587,0.124938965,-2.25,-8.40625,4.03125
1696251684479,0.1496582,-0.9890747,0.20233154,-1.9375,-7.28125,0.625
1696251684521,0.11279297,-0.93707275,0.18597412,-1.34375,-6.875,0.609375
1696251684562,0.09472656,-0.9795532,0.16156006,-0.53125,-5.46875,1.75
1696251684600,0.076660156,-0.9902954,0.16229248,-1.5625,-8.484375,4.546875
1696251684640,0.111572266,-0.97247314,0.1942749,-3.109375,-3.84375,2.546875
1696251684682,0.08935547,-0.97125244,0.19012451,1.15625,-4.859375,0.359375
1696251684720,0.111816406,-0.9793091,0.17938232,-2.828125,-5.09375,3.234375
1696251684760,0.11352539,-0.9612427,0.2111206,-0.9375,-3.0625,2.0625
1696251684821,0.04345703,-0.9763794,0.21453857,1.96875,-0.09375,3.859375
1696251684839,0.103759766,-0.9378052,0.18206787,-1.0,-0.140625,4.21875
1696251684897,0.1459961,-0.960022,0.17230225,2.46875,0.0,5.34375
1696251684917,0.18359375,-0.9702759,0.19915771,3.6875,1.15625,2.15625
1696251684938,0.14160156,-0.9697876,0.16595459,-0.484375,-6.78125,1.0625
1696251684979,0.109375,-0.9517212,0.15814209,1.265625,-2.953125,-0.75
1696251685019,0.09838867,-0.98760986,0.17401123,0.375,3.4375,-0.171875
1696251685059,0.13061523,-0.96466064,0.16522217,0.5,3.9375,-1.953125
1696251685102,0.16967773,-0.9795532,0.17449951,1.125,3.171875,-1.5
1696251685139,0.1484375,-0.96221924,0.16033936,0.5,1.953125,0.59375
1696251685179,0.15893555,-0.9854126,0.16668701,0.15625,-3.75,1.9375
1696251685218,0.14941406,-1.0020142,0.15887451,-1.0,-5.15625,2.5625
1696251685259,0.1381836,-0.95928955,0.17449951,-1.53125,-4.640625,2.625
1696251685298,0.10839844,-0.9404907,0.17156982,-0.96875,-1.65625,3.65625
1696251685339,0.12988281,-0.9841919,0.17840576,-3.5625,0.578125,4.609375
1696251685377,0.13891602,-0.9607544,0.18182373,-2.15625,-0.765625,2.53125
1696251685417,0.16577148,-0.94244385,0.20526123,-0.578125,-3.171875,1.8125
1696251685458,0.15332031,-0.9475708,0.18841553,-1.96875,-3.90625,1.71875
1696251685500,0.13256836,-0.956604,0.17230225,-0.15625,-2.21875,0.140625
1696251685539,0.11694336,-0.9717407,0.17279053,0.8125,0.40625,-0.75
1696251685579,0.1538086,-0.98101807,0.21624756,0.578125,2.734375,-2.140625
1696251685621,0.122558594,-0.95513916,0.20257568,-1.1875,1.265625,-2.5
1696251685658,0.13305664,-0.97198486,0.15106201,-1.125,2.59375,-1.25
1696251685698,0.18676758,-0.9680786,0.19793701,0.421875,1.65625,-2.0
1696251685738,0.16040039,-0.96759033,0.19036865,-0.890625,-2.328125,0.171875
1696251685780,0.1496582,-0.9602661,0.19134521,-2.453125,-4.25,0.921875
1696251685819,0.12402344,-0.9607544,0.19329834,-1.203125,-2.359375,0.84375
1696251685860,0.13916016,-0.9651489,0.20233154,0.328125,-0.859375,1.5
