# Sensor type: Respeck
# Activity type: Sitting
# Activity subtype: Laughing
# Subject id: s2106809
# Notes: unprocessed
timestamp,accel_x,accel_y,accel_z,gyro_x,gyro_y,gyro_z
1696251043775,0.27661133,-0.94659424,-0.046447754,1.546875,-0.984375,0.765625
1696251043815,0.2680664,-0.9351196,-0.045959473,0.828125,-0.59375,0.140625
1696251043855,0.2590332,-0.942688,-0.053771973,0.703125,-0.75,0.65625
1696251043916,0.2619629,-0.9402466,-0.047424316,0.78125,-0.828125,0.96875
1696251043935,0.2770996,-0.93829346,-0.043029785,0.5,-1.078125,0.421875
1696251043977,0.26000977,-0.93829346,-0.04937744,0.78125,-0.40625,0.21875
1696251044037,0.2631836,-0.944397,-0.054992676,0.71875,-1.03125,0.875
1696251044076,0.27514648,-0.93218994,-0.046447754,0.359375,-0.703125,0.921875
1696251044078,0.27270508,-0.93829346,-0.050842285,0.9375,-0.78125,0.65625
1696251044116,0.27246094,-0.9402466,-0.05987549,0.640625,-0.640625,0.5625
1696251044156,0.26879883,-0.93463135,-0.058166504,-0.125,-0.671875,0.765625
1696251044195,0.27441406,-0.9417114,-0.047424316,0.40625,-1.0625,0.796875
1696251044237,0.27856445,-0.928772,-0.05328369,0.375,-0.078125,0.5625
1696251044276,0.26660156,-0.9326782,-0.055236816,-0.515625,-1.03125,0.734375
1696251044316,0.27441406,-0.93951416,-0.04547119,0.5625,-0.796875,0.703125
1696251044358,0.27294922,-0.94732666,-0.050109863,1.765625,-0.640625,0.5625
1696251044397,0.28027344,-0.9495239,-0.06378174,1.0,-1.65625,0.859375
1696251044437,0.29077148,-0.9351196,-0.06695557,1.0625,-1.265625,0.765625
1696251044476,0.2705078,-0.9212036,-0.07208252,-0.453125,-1.140625,0.28125
1696251044516,0.2788086,-0.9324341,-0.06695557,-1.765625,-1.796875,0.828125
1696251044557,0.28857422,-0.94537354,-0.06109619,-1.25,-1.609375,0.359375
1696251044596,0.2849121,-0.95098877,-0.05303955,-0.203125,-0.9375,-0.03125
1696251044638,0.26635742,-0.93170166,-0.055725098,-2.078125,-1.453125,-0.578125
1696251044677,0.27905273,-0.93927,-0.058410645,-3.328125,-1.609375,-0.8125
1696251044716,0.27685547,-0.9302368,-0.038391113,-4.515625,-2.4375,-0.546875
1696251044755,0.27294922,-0.93878174,-0.023498535,-3.828125,-3.5,-0.296875
1696251044795,0.27197266,-0.9573364,-0.031066895,-8.109375,-5.421875,-1.71875
1696251044837,0.2788086,-0.9590454,-0.03326416,-12.828125,-5.796875,-5.953125
1696251044878,0.30249023,-0.94415283,0.026794434,-8.0625,-1.78125,-5.265625
1696251044919,0.23388672,-0.9060669,0.030212402,-2.96875,-1.609375,-0.46875
1696251044955,0.23657227,-0.9619751,9.1552734E-4,-5.34375,-3.28125,-1.34375
1696251044997,0.26611328,-0.9866333,0.02947998,-8.28125,-5.015625,-3.90625
1696251045038,0.26171875,-0.92803955,0.062927246,-1.421875,-2.125,-1.234375
1696251045077,0.21386719,-0.92755127,0.05633545,1.96875,0.421875,0.203125
1696251045116,0.19799805,-0.9495239,0.039245605,-3.0,-4.09375,0.46875
1696251045157,0.2980957,-0.9578247,-0.0095825195,-4.0625,-1.53125,-0.875
1696251045196,0.30517578,-0.90997314,0.07757568,-3.34375,3.640625,-2.546875
1696251045238,0.20239258,-0.9536743,0.08343506,-1.59375,-0.734375,-0.171875
1696251045276,0.21264648,-0.9890747,0.032409668,-1.6875,-0.65625,0.0
1696251045316,0.25805664,-0.93048096,0.02947998,-0.6875,0.734375,-0.171875
1696251045359,0.29663086,-0.9456177,0.027526855,-2.84375,-1.796875,-0.328125
1696251045396,0.25732422,-0.9607544,0.070007324,-0.65625,-0.578125,-0.9375
1696251045416,0.18945312,-0.9717407,0.07366943,0.71875,0.3125,1.078125
1696251045479,0.21875,-0.9673462,0.042907715,-2.90625,-2.359375,-0.4375
1696251045496,0.28271484,-0.9690552,0.009216309,-6.296875,-2.671875,-1.421875
1696251045536,0.2536621,-0.94122314,0.08099365,-3.046875,1.484375,-0.125
1696251045576,0.2084961,-0.9685669,0.07757568,-5.109375,-2.875,-1.640625
1696251045641,0.24584961,-0.97540283,0.0680542,-5.203125,-0.53125,-0.078125
1696251045656,0.25732422,-0.942688,0.10076904,-4.421875,-1.734375,0.265625
1696251045697,0.23071289,-0.93536377,0.12445068,-4.15625,-0.609375,-3.96875
1696251045758,0.20922852,-0.9558716,0.093444824,-4.0625,0.265625,-0.984375
1696251045776,0.22680664,-0.95147705,0.09564209,-2.734375,1.09375,0.625
1696251045838,0.22265625,-0.944397,0.11541748,-0.984375,1.390625,1.921875
1696251045856,0.22290039,-0.9558716,0.109313965,-2.078125,-2.375,2.203125
1696251045918,0.26220703,-0.925354,0.1515503,-1.453125,0.9375,-0.015625
1696251045936,0.21411133,-0.95025635,0.1083374,-0.203125,-0.0625,0.828125
1696251045998,0.26171875,-0.9414673,0.12738037,-0.484375,-0.6875,0.59375
1696251046037,0.24487305,-0.9673462,0.09857178,-0.59375,-0.03125,-0.046875
1696251046056,0.2241211,-0.9656372,0.101501465,0.140625,0.5625,-0.40625
1696251046115,0.24511719,-0.94244385,0.12835693,-1.03125,-0.765625,-0.21875
1696251046136,0.24731445,-0.94244385,0.13031006,-1.09375,-0.421875,-0.578125
1696251046198,0.21606445,-0.9651489,0.09539795,0.125,-0.4375,-1.921875
1696251046218,0.24731445,-0.94854736,0.10882568,-1.1875,1.046875,-1.484375
1696251046258,0.22021484,-0.93927,0.12982178,-1.46875,0.328125,-1.65625
1696251046298,0.23291016,-0.9524536,0.10858154,-1.203125,0.453125,-1.453125
1696251046337,0.22338867,-0.942688,0.12615967,-0.640625,0.625,-2.234375
1696251046379,0.19506836,-0.9710083,0.113464355,-1.796875,1.53125,-2.453125
1696251046418,0.19873047,-0.9558716,0.1239624,-1.03125,2.65625,-2.875
1696251046480,0.22314453,-0.97979736,0.11468506,-1.953125,2.015625,-2.296875
1696251046517,0.2211914,-0.9338989,0.13226318,-2.59375,2.421875,-3.046875
1696251046558,0.21142578,-0.94488525,0.13323975,-3.703125,1.453125,-2.015625
1696251046597,0.17993164,-0.8862915,0.1708374,-5.09375,1.546875,-1.796875
1696251046617,0.14355469,-0.862854,0.20404053,3.296875,4.484375,-1.65625
1696251046680,0.1640625,-0.9524536,0.11126709,12.1875,7.984375,6.375
1696251046716,0.2397461,-1.0003052,0.08660889,21.640625,8.84375,14.140625
1696251046720,0.31982422,-1.0178833,0.028747559,22.96875,1.203125,12.65625
1696251046758,0.2705078,-0.9800415,0.07757568,16.4375,-1.921875,7.25
1696251046797,0.19848633,-0.95196533,0.024353027,16.75,3.3125,5.8125
1696251046836,0.16601562,-0.93414307,0.006286621,10.65625,-3.109375,7.703125
1696251046879,0.27978516,-0.954895,0.009460449,9.140625,-8.578125,8.546875
1696251046918,0.34814453,-0.989563,-0.06866455,4.484375,-7.890625,3.4375
1696251046958,0.3425293,-0.9819946,-0.14337158,5.5,-0.828125,1.734375
1696251046997,0.38305664,-1.1133423,-0.09210205,-40.0625,-22.328125,-12.875
1696251047035,0.16186523,-0.6758423,0.18231201,-4.296875,6.171875,-9.359375
1696251047077,0.29858398,-0.8743286,0.14129639,-12.484375,-5.46875,3.265625
1696251047116,0.19165039,-0.99420166,0.014099121,-4.609375,5.125,-1.625
1696251047156,0.26513672,-0.895813,0.04901123,-1.03125,-0.71875,-0.28125
1696251047195,0.328125,-0.92559814,0.0836792,-5.40625,-1.203125,2.953125
1696251047236,0.17895508,-1.0425415,0.086120605,-3.515625,-0.640625,-0.28125
1696251047280,0.22192383,-1.005188,0.08099365,-2.40625,-1.234375,1.5625
1696251047320,0.31420898,-0.9102173,0.039733887,-4.140625,3.875,0.84375
1696251047358,0.33618164,-0.86260986,0.12689209,-2.71875,2.828125,-4.625
1696251047397,0.22680664,-0.91534424,0.10076904,-1.890625,-3.90625,-1.1875
1696251047441,0.23876953,-0.9414673,0.09710693,1.125,0.5,0.40625
1696251047477,0.26611328,-0.9336548,0.07196045,-2.8125,-0.25,-0.28125
1696251047517,0.30786133,-0.92633057,0.11956787,-3.65625,-1.484375,-2.515625
1696251047556,0.2397461,-0.9915161,0.09661865,-2.109375,-1.03125,-0.265625
1696251047598,0.21020508,-0.9595337,0.12884521,-1.046875,-0.828125,-1.421875
1696251047636,0.24951172,-0.9402466,0.112976074,-1.96875,0.453125,-1.90625
1696251047678,0.23510742,-0.9414673,0.113708496,-2.46875,-1.21875,-2.03125
1696251047716,0.22045898,-0.94244385,0.12298584,-2.5625,0.203125,-2.359375
1696251047758,0.21972656,-0.9541626,0.11517334,-5.703125,-2.0,-0.984375
1696251047796,0.29785156,-0.942688,0.12567139,-3.0625,-0.359375,-1.234375
1696251047836,0.24804688,-0.9524536,0.11419678,0.765625,-0.953125,-0.734375
1696251047876,0.20654297,-0.9146118,0.17108154,-0.265625,-1.90625,-1.5625
1696251047916,0.21972656,-0.95440674,0.13104248,-1.75,-0.640625,-1.625
1696251047956,0.22338867,-0.960022,0.13861084,-1.28125,-0.453125,-1.234375
1696251047997,0.20654297,-0.96417236,0.12420654,-1.8125,-1.046875,-0.0625
1696251048017,0.24316406,-0.97076416,0.12664795,-2.0,-1.8125,-0.359375
1696251048057,0.23925781,-0.9578247,0.13568115,0.28125,0.140625,-0.5625
1696251048097,0.21923828,-0.94732666,0.12908936,0.25,-0.78125,-0.5
1696251048136,0.22802734,-0.94122314,0.14324951,-0.96875,-0.8125,0.015625
1696251048199,0.24316406,-0.9439087,0.14520264,-1.09375,-2.140625,-0.28125
1696251048237,0.19628906,-0.9458618,0.16131592,-0.609375,0.46875,-0.28125
1696251048281,0.20800781,-0.9155884,0.1486206,1.484375,-0.84375,0.234375
1696251048296,0.25805664,-0.94537354,0.13543701,0.46875,1.71875,-1.890625
1696251048338,0.19946289,-0.97369385,0.11785889,0.90625,1.03125,-3.3125
1696251048377,0.21435547,-0.9649048,0.1486206,-0.421875,2.203125,-1.59375
1696251048440,0.20288086,-0.94122314,0.1293335,-1.671875,1.484375,-1.5
1696251048458,0.22460938,-0.9470825,0.13226318,-1.71875,1.28125,-1.484375
1696251048498,0.21264648,-0.96221924,0.12542725,-2.53125,-0.296875,-0.8125
1696251048539,0.21801758,-0.9602661,0.14593506,-1.171875,0.453125,-0.984375
1696251048600,0.19384766,-0.95391846,0.12664795,-3.609375,-0.609375,-1.875
1696251048617,0.19433594,-0.93292236,0.16815186,-2.390625,2.21875,-2.875
1696251048657,0.21166992,-0.93707275,0.12689209,0.28125,2.15625,-1.3125
1696251048719,0.23999023,-0.9595337,0.12884521,0.359375,-1.484375,1.09375
1696251048738,0.20996094,-0.9265747,0.14642334,1.0,1.671875,-1.640625
1696251048778,0.19189453,-0.9204712,0.18304443,9.390625,8.1875,-1.6875
1696251048817,0.17700195,-0.9505005,0.120788574,15.484375,10.0,4.078125
1696251048880,0.1352539,-0.9944458,0.058532715,20.53125,6.546875,9.125
1696251048898,0.21777344,-0.97003174,0.08880615,16.546875,-1.890625,9.765625
1696251048940,0.29785156,-0.9849243,0.05657959,17.734375,0.5,10.296875
1696251048978,0.21411133,-0.9751587,-0.0037231445,11.421875,1.875,7.0
1696251049018,0.26513672,-0.98321533,0.014343262,3.171875,-10.671875,4.34375
1696251049057,0.28442383,-0.97369385,-0.028625488,5.90625,0.71875,1.96875
1696251049098,0.3154297,-1.1616821,-0.14263916,-30.421875,-22.765625,-7.171875
1696251049139,0.27148438,-0.80303955,0.2321167,-15.578125,-1.53125,-6.109375
1696251049177,0.27392578,-0.90338135,0.14105225,-5.828125,0.265625,0.4375
1696251049219,0.15991211,-0.96221924,0.062194824,-3.171875,2.609375,-5.359375
1696251049256,0.25170898,-0.89849854,0.08416748,-7.203125,-4.5625,-4.375
1696251049299,0.36108398,-0.88897705,0.15057373,-9.40625,-3.578125,-4.296875
1696251049316,0.17773438,-0.96099854,0.13885498,-4.015625,-1.046875,-8.375
1696251049356,0.18725586,-0.9949341,0.09539795,-7.484375,-0.375,-5.46875
1696251049397,0.22387695,-0.95684814,0.066833496,-7.515625,-0.484375,-1.203125
1696251049439,0.2109375,-0.944397,0.17816162,-4.40625,0.03125,-3.015625
1696251049479,0.10888672,-0.954895,0.1564331,-4.625,-0.234375,-4.0625
1696251049519,0.1977539,-0.9883423,0.09857178,-5.640625,-3.5625,-2.109375
1696251049556,0.26171875,-0.9373169,0.18865967,-2.3125,0.3125,-1.859375
1696251049595,0.13183594,-0.9229126,0.19476318,-1.5625,-0.21875,-3.265625
1696251049636,0.13500977,-0.9612427,0.1864624,-5.34375,-2.5625,-2.109375
1696251049678,0.23535156,-0.9771118,0.15985107,-5.109375,-2.734375,-0.84375
1696251049715,0.19970703,-0.9717407,0.20111084,-1.03125,-0.21875,-0.890625
1696251049757,0.13720703,-0.9680786,0.19720459,-0.4375,-0.640625,-2.03125
1696251049797,0.16918945,-0.9570923,0.17279053,-2.78125,-1.21875,-1.03125
1696251049838,0.19116211,-0.9668579,0.15301514,-2.40625,-2.9375,-0.5625
1696251049877,0.19189453,-0.940979,0.18572998,-1.078125,0.140625,-0.984375
1696251049916,0.111328125,-0.925354,0.19720459,-4.3125,-0.765625,-1.59375
1696251049956,0.15429688,-0.9536743,0.19647217,-6.4375,-1.296875,-1.0
1696251049997,0.18798828,-0.9512329,0.22747803,-3.875,-1.65625,-1.140625
1696251050040,0.1616211,-0.9458618,0.25579834,0.421875,1.5625,-2.28125
1696251050077,0.1274414,-0.98394775,0.23187256,-1.921875,0.359375,-2.234375
1696251050118,0.1772461,-0.96588135,0.21258545,-1.640625,0.734375,-1.484375
1696251050156,0.13500977,-0.9417114,0.21234131,-2.359375,0.34375,-1.53125
1696251050198,0.12573242,-0.9343872,0.2855835,-4.171875,0.8125,-2.78125
1696251050239,0.10644531,-0.9949341,0.26898193,-5.3125,1.84375,-2.65625
1696251050277,0.2055664,-0.9932251,0.21453857,-3.1875,0.234375,3.3125
1696251050317,0.14819336,-0.95880127,0.25604248,-0.28125,-3.3125,8.5625
1696251050358,0.076171875,-0.9636841,0.2543335,0.421875,-6.8125,7.28125
1696251050398,0.06567383,-0.96417236,0.24725342,-3.140625,-5.703125,2.484375
1696251050436,0.11743164,-0.97491455,0.26922607,-0.359375,0.96875,3.3125
1696251050477,0.18774414,-0.9639282,0.23358154,1.75,-0.546875,8.0625
1696251050518,0.21362305,-0.9365845,0.24090576,2.921875,-2.359375,6.875
1696251050558,0.20483398,-0.9109497,0.2543335,-0.53125,-0.9375,1.875
1696251050597,0.21459961,-0.90948486,0.24407959,-1.578125,2.171875,1.328125
1696251050616,0.18579102,-0.9402466,0.2321167,1.234375,3.578125,1.234375
1696251050677,0.2163086,-0.9536743,0.22381592,1.34375,1.8125,2.28125
1696251050719,0.2565918,-0.9368286,0.21160889,1.59375,1.890625,2.328125
1696251050735,0.28149414,-0.94000244,0.20281982,-1.109375,0.546875,3.0625
1696251050776,0.25805664,-0.93218994,0.199646,2.578125,-0.28125,2.421875
1696251050817,0.22436523,-0.92071533,0.19403076,0.890625,-0.609375,0.28125
1696251050876,0.22558594,-0.92437744,0.21282959,-0.703125,0.28125,-1.15625
1696251050898,0.21582031,-0.9458618,0.2267456,-1.609375,-0.6875,-1.71875
1696251050941,0.2241211,-0.9680786,0.23065186,-4.390625,-1.4375,-1.546875
1696251050978,0.171875,-0.8809204,0.27264404,-4.671875,5.296875,-4.78125
1696251051018,0.22387695,-0.93634033,0.23675537,-3.0625,1.703125,-4.359375
1696251051058,0.2626953,-0.92803955,0.18182373,6.453125,5.1875,-0.625
1696251051096,0.20654297,-0.9229126,0.23187256,10.046875,4.03125,2.46875
1696251051137,0.13769531,-0.9368286,0.2489624,12.21875,6.6875,3.546875
1696251051198,0.12182617,-0.9602661,0.230896,12.015625,1.015625,5.9375
1696251051215,0.203125,-0.9627075,0.22015381,29.859375,0.015625,12.671875
1696251051279,0.28515625,-1.0076294,0.0848999,21.8125,-2.265625,11.828125
1696251051296,0.27197266,-1.0015259,0.06536865,5.9375,-1.875,3.828125
1696251051338,0.24951172,-0.9290161,0.11102295,1.96875,-6.53125,-1.0
1696251051377,0.2763672,-1.0632935,-0.022033691,-9.6875,-10.59375,-4.625
1696251051418,0.2631836,-0.9014282,0.12322998,-29.171875,-18.4375,-8.609375
1696251051457,0.25024414,-0.8562622,0.26116943,1.0,-0.78125,0.578125
1696251051496,0.33496094,-0.9890747,0.19354248,0.515625,1.578125,-2.078125
1696251051538,0.08959961,-0.925354,0.08343506,2.859375,1.265625,-4.703125
1696251051601,0.2043457,-0.92755127,0.20770264,-4.984375,-5.734375,-0.1875
1696251051616,0.21313477,-0.9534302,0.14398193,-7.015625,-1.109375,-0.875
1696251051681,0.24047852,-0.95806885,0.19915771,-2.96875,-0.125,-2.40625
1696251051696,0.20898438,-0.95147705,0.16693115,0.078125,-0.265625,-0.1875
1696251051761,0.18066406,-0.9631958,0.17059326,-1.21875,0.15625,0.59375
1696251051776,0.23852539,-0.9663696,0.16229248,-3.078125,-1.765625,-0.46875
1696251051817,0.22949219,-0.9690552,0.18011475,-0.46875,0.515625,-1.734375
1696251051858,0.19506836,-0.94537354,0.20404053,-0.15625,-0.296875,-2.015625
1696251051939,0.19848633,-0.96099854,0.16815186,-1.046875,0.453125,-1.34375
1696251051943,0.1953125,-0.9612427,0.1762085,-1.03125,-0.765625,-1.25
1696251051956,0.22265625,-0.9558716,0.16033936,-1.703125,-1.46875,-0.953125
1696251051996,0.21362305,-0.98028564,0.17303467,-1.484375,-0.03125,-0.296875
1696251052039,0.17626953,-0.9536743,0.21209717,-2.4375,-0.765625,-1.0625
1696251052078,0.20751953,-0.93927,0.18817139,-2.71875,0.21875,-0.5
1696251052117,0.20166016,-0.95098877,0.19500732,-1.296875,-1.65625,-1.765625
1696251052158,0.19140625,-0.9326782,0.22088623,-0.828125,0.984375,-1.59375
1696251052200,0.16137695,-0.954895,0.18353271,-3.34375,-0.6875,-1.96875
1696251052239,0.2097168,-0.95025635,0.19866943,-3.609375,0.4375,-1.484375
1696251052277,0.1862793,-0.96051025,0.20111084,-2.171875,-0.078125,-1.5625
1696251052316,0.16357422,-0.95977783,0.19647217,-2.1875,-0.828125,-1.21875
1696251052358,0.22265625,-0.9505005,0.20428467,-0.890625,2.46875,-1.78125
1696251052397,0.19824219,-0.94976807,0.21063232,1.859375,2.796875,-1.234375
1696251052437,0.15893555,-0.9558716,0.21478271,0.34375,0.8125,-0.40625
1696251052478,0.16870117,-0.9631958,0.21990967,-0.859375,-0.359375,0.328125
1696251052516,0.19677734,-0.9505005,0.23358154,1.703125,0.3125,0.03125
1696251052557,0.15698242,-0.95025635,0.21063232,2.546875,-1.609375,1.453125
1696251052599,0.17553711,-0.958313,0.20404053,-0.046875,-1.78125,1.5625
1696251052640,0.16674805,-0.9685669,0.20111084,-0.546875,-0.328125,0.9375
1696251052677,0.13964844,-0.9595337,0.19891357,-1.03125,-0.4375,0.640625
1696251052717,0.1652832,-0.96466064,0.21478271,-0.875,0.21875,2.53125
1696251052758,0.23388672,-0.9546509,0.20941162,-0.28125,-0.765625,2.375
1696251052796,0.21923828,-0.9385376,0.20819092,0.171875,-0.84375,0.765625
1696251052838,0.18701172,-0.9492798,0.2086792,0.53125,0.40625,-0.34375
1696251052880,0.19165039,-0.9314575,0.22479248,0.546875,1.09375,0.625
1696251052917,0.19213867,-0.95513916,0.20184326,0.1875,0.0,1.65625
1696251052957,0.19824219,-0.9468384,0.21551514,1.34375,0.53125,1.890625
1696251052996,0.19482422,-0.9578247,0.19378662,0.265625,0.03125,1.21875
1696251053036,0.1694336,-0.9524536,0.20697021,1.109375,1.578125,0.984375
1696251053075,0.17993164,-0.95318604,0.20794678,0.25,0.9375,0.59375
1696251053116,0.23168945,-0.94244385,0.2020874,-1.421875,0.15625,0.875
1696251053155,0.22485352,-0.93878174,0.1876831,2.03125,-1.546875,1.765625
1696251053196,0.19482422,-0.95196533,0.18231201,0.953125,0.046875,0.484375
1696251053236,0.2175293,-0.9534302,0.18182373,-1.453125,-0.34375,0.578125
1696251053257,0.2253418,-0.9492798,0.2086792,-1.984375,0.515625,0.5625
1696251053297,0.2019043,-0.94659424,0.20306396,0.09375,0.203125,0.875
1696251053340,0.21166992,-0.9517212,0.19744873,-0.5,-0.75,1.28125
1696251053376,0.21362305,-0.95025635,0.20721436,-0.078125,-1.3125,1.5625
1696251053440,0.20678711,-0.9673462,0.18695068,1.609375,-1.640625,1.234375
1696251053457,0.1965332,-0.9619751,0.21209717,1.09375,-1.953125,1.34375
1696251053497,0.20458984,-0.93927,0.21160889,-0.640625,1.78125,-0.125
1696251053538,0.22583008,-0.93048096,0.1774292,-1.5,-0.28125,-0.078125
1696251053600,0.21826172,-0.9522095,0.22088623,0.71875,-1.484375,-0.046875
1696251053616,0.2019043,-0.9553833,0.19769287,0.375,-0.203125,-0.125
1696251053680,0.24853516,-0.9649048,0.19110107,-0.140625,-1.71875,0.921875
1696251053698,0.18725586,-0.92266846,0.23773193,-0.171875,2.0625,-0.84375
1696251053761,0.21655273,-0.94000244,0.18426514,-0.671875,1.40625,-1.109375
1696251053775,0.18334961,-0.90753174,0.215271,-1.296875,-2.21875,-2.84375
1696251053816,0.21557617,-0.9915161,0.1906128,-3.984375,-5.421875,-3.6875
1696251053880,0.24584961,-0.9505005,0.20501709,-0.109375,1.5625,-0.3125
1696251053897,0.18823242,-0.9487915,0.21746826,2.296875,-4.34375,1.171875
1696251053939,0.13769531,-0.99224854,0.1930542,1.890625,-0.734375,-1.59375
1696251053998,0.2397461,-0.9570923,0.20306396,-0.046875,-0.9375,1.84375
1696251054015,0.21386719,-0.8928833,0.2543335,5.03125,1.796875,-0.125
1696251054057,0.1628418,-0.85943604,0.28485107,22.546875,16.609375,0.578125
1696251054097,0.18701172,-0.9529419,0.02557373,25.953125,14.609375,5.640625
1696251054156,0.17382812,-0.9807739,0.04901123,10.953125,5.390625,7.125
1696251054196,0.24853516,-0.9834595,0.16082764,9.171875,3.03125,6.53125
1696251054221,0.2553711,-0.975647,0.10028076,15.78125,-1.078125,9.046875
1696251054279,0.23510742,-0.9915161,0.00579834,14.0625,0.71875,7.90625
1696251054317,0.2722168,-1.0244751,0.050720215,4.71875,-10.640625,2.84375
1696251054336,0.33691406,-1.0715942,-0.08258057,-13.890625,-8.515625,-5.109375
1696251054398,0.14746094,-0.8130493,0.15789795,-9.734375,-20.59375,-7.34375
1696251054415,0.26660156,-0.9434204,0.20135498,-2.125,1.859375,-0.484375
1696251054482,0.25390625,-0.90167236,0.014831543,-14.671875,7.0,-3.296875
1696251054496,0.075927734,-0.8850708,0.06732178,6.59375,-3.0,-3.078125
1696251054560,0.29052734,-0.91851807,0.19110107,-11.453125,-4.734375,3.4375
1696251054563,0.25561523,-1.0005493,0.14764404,-2.171875,-3.859375,-0.5625
1696251054600,0.26391602,-1.0112915,0.13934326,-1.3125,-1.1875,-2.046875
1696251054637,0.1899414,-0.96759033,0.12347412,-0.75,0.53125,0.484375
1696251054677,0.13989258,-0.9241333,0.14398193,-4.5,1.671875,-0.828125
1696251054716,0.20483398,-0.91973877,0.14056396,-4.6875,0.96875,-0.796875
1696251054757,0.2265625,-0.9216919,0.15594482,-2.859375,-1.59375,-0.140625
1696251054798,0.25927734,-0.95318604,0.13739014,-1.375,-0.234375,-1.15625
1696251054835,0.20678711,-1.00177,0.13690186,0.53125,-0.34375,-1.203125
1696251054876,0.20019531,-0.9663696,0.15960693,0.046875,0.640625,-0.328125
1696251054917,0.22241211,-0.93292236,0.168396,-1.984375,-1.375,-0.046875
1696251054957,0.2277832,-0.92559814,0.1539917,-2.625,-0.8125,-1.046875
1696251054999,0.20263672,-0.94610596,0.1564331,-1.359375,-0.078125,-1.4375
1696251055038,0.22290039,-0.95635986,0.16107178,-3.703125,-1.171875,-0.59375
1696251055077,0.22558594,-0.9607544,0.16619873,-1.671875,-0.28125,-0.015625
1696251055118,0.20263672,-0.9644165,0.17352295,-1.75,-0.546875,-0.71875
1696251055158,0.19433594,-0.9651489,0.17327881,-1.921875,-0.296875,-1.265625
1696251055199,0.19189453,-0.95806885,0.17352295,-2.09375,-0.4375,-0.515625
1696251055240,0.19042969,-0.95635986,0.18157959,-1.4375,0.265625,-0.796875
1696251055278,0.16015625,-0.97442627,0.16448975,-4.984375,-0.625,-0.125
1696251055318,0.22143555,-0.97052,0.16107178,-4.796875,0.15625,1.0625
1696251055357,0.24584961,-0.94781494,0.199646,-4.203125,-2.890625,0.9375
1696251055398,0.20751953,-0.954895,0.21844482,-1.390625,0.453125,-1.453125
1696251055439,0.23999023,-0.9260864,0.22943115,-0.390625,-0.546875,-0.71875
1696251055477,0.19824219,-0.94195557,0.17572021,-3.046875,-2.765625,-0.125
1696251055518,0.17138672,-0.95758057,0.2255249,-2.296875,-1.1875,-0.4375
1696251055560,0.16625977,-0.9536743,0.1954956,-0.921875,1.328125,-0.578125
1696251055598,0.11352539,-1.0046997,0.17327881,-3.796875,2.984375,-0.578125
1696251055637,0.26416016,-0.9414673,0.23138428,-6.296875,1.734375,1.515625
1696251055676,0.3161621,-0.8999634,0.230896,-0.34375,-4.5625,5.0
1696251055716,0.19262695,-0.90582275,0.21575928,3.90625,-0.3125,0.171875
1696251055757,0.14355469,-0.94781494,0.22869873,-1.796875,-2.71875,-0.9375
1696251055798,0.21386719,-0.96661377,0.23406982,-2.421875,-1.5625,1.390625
1696251055836,0.22167969,-0.9402466,0.24261475,-1.234375,0.109375,1.421875
1696251055856,0.18237305,-0.9404907,0.23602295,0.328125,0.484375,2.0625
1696251055899,0.15332031,-0.9302368,0.23480225,-3.625,-0.421875,3.5
1696251055962,0.15576172,-0.960022,0.20159912,-3.40625,-1.953125,4.78125
1696251055975,0.22460938,-0.94610596,0.25653076,1.25,-5.5625,10.046875
1696251056018,0.22070312,-0.9246216,0.26141357,9.09375,2.09375,4.65625
1696251056057,0.21240234,-0.96588135,0.18206787,18.65625,9.375,1.59375
1696251056098,0.22265625,-0.95635986,0.18719482,12.953125,4.46875,9.703125
1696251056139,0.28930664,-0.8987427,0.1786499,13.390625,1.796875,10.796875
1696251056176,0.2993164,-0.8911743,0.16400146,17.078125,5.0625,5.4375
1696251056237,0.3317871,-0.9199829,0.117370605,13.71875,5.609375,4.28125
1696251056257,0.32104492,-0.96295166,0.050476074,9.5,1.75,2.78125
1696251056301,0.32543945,-0.97125244,0.04046631,8.84375,-4.78125,1.59375
1696251056357,0.39379883,-1.0376587,0.00970459,-9.203125,-12.984375,-2.546875
1696251056376,0.3100586,-0.88116455,0.078063965,-12.765625,-8.65625,-3.140625
1696251056417,0.24829102,-0.85650635,0.23602295,-2.921875,-2.609375,-4.265625
1696251056479,0.3071289,-0.97003174,0.09710693,-9.046875,3.21875,-5.640625
1696251056501,0.11694336,-0.8845825,0.18450928,-4.40625,0.046875,-6.375
1696251056538,0.27929688,-0.9277954,0.15765381,-9.5625,-5.21875,-4.078125
1696251056581,0.29296875,-0.9487915,0.13543701,-6.484375,-3.25,-5.109375
1696251056639,0.22827148,-0.960022,0.18426514,-1.53125,-0.875,-4.9375
1696251056660,0.20043945,-0.9385376,0.20184326,-3.921875,-0.859375,-3.53125
1696251056700,0.20703125,-0.9541626,0.15447998,-4.390625,1.375,-3.25
1696251056759,0.21801758,-0.9241333,0.20721436,-2.21875,0.703125,-4.015625
1696251056776,0.21020508,-0.96539307,0.1918335,-4.375,-1.453125,-2.0
1696251056839,0.20874023,-0.95513916,0.20135498,-3.421875,0.59375,-2.234375
1696251056857,0.19555664,-0.94415283,0.20111084,-2.640625,-0.28125,-2.140625
1696251056919,0.2277832,-0.95928955,0.19891357,-3.890625,-1.421875,-2.25
1696251056936,0.20825195,-0.94903564,0.21624756,-2.15625,0.9375,-1.359375
1696251056980,0.1652832,-0.9421997,0.23675537,-3.6875,0.140625,-2.4375
1696251057017,0.2084961,-0.9487915,0.21990967,-2.578125,0.9375,-1.109375
1696251057057,0.22607422,-0.944397,0.2333374,0.234375,0.34375,-0.375
1696251057098,0.16748047,-0.93414307,0.2267456,0.03125,-0.234375,-1.171875
1696251057138,0.1940918,-0.96221924,0.22357178,-1.515625,-0.703125,-0.828125
1696251057199,0.21289062,-0.95269775,0.19940186,-1.625,-1.0625,0.203125
1696251057203,0.21484375,-0.94659424,0.246521,0.421875,1.03125,-1.640625
1696251057237,0.17944336,-0.9404907,0.2230835,-0.140625,1.578125,-1.671875
1696251057277,0.2241211,-0.927063,0.21160889,0.796875,0.125,-0.453125
1696251057316,0.17895508,-0.94976807,0.22235107,0.578125,0.96875,-0.734375
1696251057357,0.1628418,-0.9680786,0.22381592,0.421875,0.65625,-0.75
1696251057398,0.16699219,-0.98516846,0.21282959,-1.375,1.328125,-0.25
1696251057436,0.18798828,-0.95684814,0.2230835,-1.625,0.0,-0.609375
1696251057477,0.18823242,-0.95318604,0.21234131,-0.78125,0.90625,-0.796875
1696251057518,0.16699219,-0.9343872,0.23577881,-0.421875,3.0625,-1.65625
1696251057556,0.16772461,-0.9541626,0.22039795,0.59375,3.453125,-1.421875
1696251057600,0.24975586,-0.9378052,0.22357178,0.078125,3.59375,0.609375
1696251057639,0.19433594,-0.95440674,0.21917725,1.546875,-1.03125,3.84375
1696251057678,0.14916992,-0.9788208,0.23382568,-0.328125,-1.578125,3.765625
1696251057719,0.14697266,-0.98394775,0.21868896,-0.9375,-0.96875,2.828125
1696251057758,0.19677734,-0.956604,0.23822021,-1.375,-0.78125,2.0625
1696251057797,0.18774414,-0.944397,0.20257568,0.328125,-0.53125,2.0
1696251057838,0.2253418,-0.9326782,0.21795654,-0.359375,0.484375,1.9375
1696251057877,0.23095703,-0.9143677,0.23529053,0.53125,2.484375,0.9375
1696251057919,0.21655273,-0.9234009,0.22357178,-0.5625,0.6875,0.9375
1696251057958,0.24169922,-0.9458618,0.20574951,-1.765625,-0.046875,1.140625
1696251057998,0.2355957,-0.94781494,0.215271,-0.640625,-0.296875,0.75
1696251058037,0.21972656,-0.9495239,0.20770264,0.015625,-0.21875,-0.140625
1696251058077,0.22460938,-0.9487915,0.20452881,-1.328125,-0.546875,-0.875
1696251058120,0.21972656,-0.9390259,0.22894287,-1.375,-1.15625,-1.546875
1696251058157,0.19726562,-0.9378052,0.21966553,-2.40625,-1.953125,-1.703125
1696251058199,0.20898438,-0.94317627,0.24163818,-2.828125,-1.171875,-1.828125
1696251058237,0.20581055,-0.9348755,0.23968506,-2.84375,-1.75,-1.984375
1696251058276,0.203125,-0.9421997,0.25115967,-1.6875,-0.953125,-2.078125
1696251058319,0.18969727,-0.9456177,0.24261475,1.234375,-1.1875,-1.265625
1696251058358,0.17285156,-0.95928955,0.23797607,-0.625,-0.546875,-0.953125
1696251058398,0.19384766,-0.95880127,0.24603271,-0.53125,-1.140625,0.140625
1696251058439,0.18823242,-0.93951416,0.24725342,-0.203125,-0.875,-0.328125
1696251058478,0.16723633,-0.954895,0.22918701,-1.328125,-1.234375,-0.84375
1696251058496,0.17578125,-0.9614868,0.24798584,-1.125,-1.296875,-0.765625
1696251058538,0.18945312,-0.9343872,0.25506592,0.328125,-1.0,-0.421875
1696251058577,0.15844727,-0.9031372,0.2904663,7.8125,3.796875,0.375
1696251058641,0.17260742,-0.9307251,0.20916748,14.921875,9.953125,1.5
1696251058658,0.17236328,-0.9573364,0.14813232,10.578125,6.359375,3.84375
1696251058699,0.25708008,-0.94244385,0.19525146,11.71875,1.703125,5.734375
1696251058758,0.2097168,-0.9649048,0.18353271,14.40625,3.421875,5.640625
1696251058777,0.19848633,-1.0056763,0.121276855,19.765625,1.4375,6.96875
1696251058819,0.24926758,-0.9824829,0.11639404,19.296875,0.296875,8.140625
1696251058860,0.23510742,-0.97320557,0.059509277,15.65625,1.171875,4.9375
1696251058898,0.22143555,-0.9536743,0.06463623,6.84375,-3.828125,1.765625
1696251058940,0.26733398,-0.9692993,0.027770996,3.765625,-4.265625,2.96875
1696251058981,0.3071289,-1.0227661,-0.04034424,-18.09375,-9.65625,-3.25
1696251059021,0.2902832,-1.0164185,0.06072998,-20.84375,-17.625,-8.828125
1696251059057,0.22851562,-0.91778564,0.34246826,5.9375,8.46875,0.609375
1696251059097,0.0793457,-0.8911743,0.10418701,2.578125,14.15625,-4.21875
1696251059162,0.12573242,-0.8706665,0.11590576,-1.265625,-3.0,-3.28125
1696251059200,0.27416992,-0.88067627,0.14837646,-9.546875,-8.90625,0.15625
1696251059217,0.2878418,-1.0718384,0.045837402,-3.796875,-7.546875,0.765625
1696251059280,0.22924805,-0.9741821,0.19598389,0.9375,0.328125,-1.734375
1696251059320,0.20336914,-0.89019775,0.17034912,-1.390625,3.9375,-2.265625
1696251059335,0.15917969,-0.93634033,0.15325928,-6.046875,-2.40625,-1.734375
1696251059398,0.23071289,-0.97784424,0.14886475,-5.859375,-7.03125,0.671875
1696251059416,0.2619629,-0.9651489,0.20599365,-0.078125,-0.6875,-0.4375
1696251059460,0.18701172,-0.95513916,0.15374756,-2.875,-2.0,-0.875
1696251059499,0.18481445,-0.9314575,0.17669678,-4.578125,-2.328125,-1.0625
1696251059561,0.18457031,-0.96295166,0.16278076,-3.875,-1.890625,0.6875
1696251059576,0.2277832,-0.93463135,0.18572998,-3.796875,-4.484375,0.15625
1696251059618,0.23168945,-0.9651489,0.19232178,-1.359375,-4.4375,1.515625
1696251059675,0.22265625,-0.94488525,0.21160889,-0.890625,-0.65625,-0.421875
1696251059716,0.15673828,-0.96343994,0.19329834,-1.828125,-1.59375,0.4375
1696251059737,0.1665039,-0.99053955,0.18206787,-1.125,-0.953125,0.796875
1696251059799,0.20532227,-0.9558716,0.18817139,-1.71875,0.953125,1.0
1696251059840,0.18164062,-0.94122314,0.19036865,-1.265625,-0.515625,0.28125
1696251059847,0.18798828,-0.9026489,0.22625732,-4.765625,-0.921875,0.421875
1696251059878,0.23535156,-0.942688,0.19622803,-3.078125,-2.65625,1.140625
1696251059918,0.24975586,-0.9307251,0.20159912,1.25,-0.96875,2.921875
1696251059960,0.19750977,-0.95684814,0.18572998,4.28125,-1.296875,2.796875
1696251059997,0.21875,-0.9837036,0.19012451,-4.84375,-1.375,-1.40625
1696251060037,0.24169922,-0.96295166,0.1942749,-5.75,-1.625,-0.125
1696251060077,0.21289062,-0.9273071,0.2374878,3.09375,-1.0,-0.28125
1696251060117,0.16430664,-0.89141846,0.28582764,12.515625,6.03125,-0.703125
1696251060157,0.14379883,-0.9234009,0.2098999,24.671875,17.4375,2.703125
1696251060197,0.14916992,-0.97076416,0.10736084,23.75,10.015625,10.421875
1696251060239,0.27172852,-0.9793091,0.03729248,10.53125,-3.296875,13.21875
1696251060277,0.35131836,-1.072815,0.031921387,0.65625,-9.59375,6.578125
1696251060320,0.40478516,-1.2124634,0.002380371,-14.59375,-8.109375,-9.828125
1696251060357,0.19799805,-0.92633057,0.24407959,12.3125,3.125,-14.984375
1696251060397,0.2854004,-0.8123169,0.027282715,-7.984375,7.109375,0.8125
1696251060438,0.16430664,-0.913147,0.15692139,-6.578125,-3.46875,-4.140625
1696251060477,0.16308594,-0.9109497,0.16033936,-7.109375,-4.125,-4.34375
1696251060518,0.2331543,-0.94976807,0.10418701,-12.15625,-10.984375,3.3125
1696251060557,0.31591797,-1.0974731,0.137146,-6.09375,-7.578125,-3.65625
1696251060598,0.27124023,-0.9348755,0.2062378,0.921875,6.171875,-1.796875
1696251060639,0.12792969,-0.88531494,0.16619873,1.0625,2.171875,-3.25
1696251060676,0.14355469,-0.97662354,0.17425537,-5.640625,-2.015625,-4.15625
1696251060717,0.21313477,-1.03302,0.12615967,-5.40625,-2.875,-2.828125
1696251060757,0.18725586,-0.9800415,0.18695068,-2.859375,2.5,0.40625
1696251060796,0.11450195,-0.9451294,0.18695068,-0.90625,2.5,0.53125
1696251060837,0.14648438,-0.9089966,0.23944092,-4.21875,1.46875,0.734375
1696251060877,0.16552734,-0.93878174,0.21234131,3.46875,9.21875,3.109375
1696251060918,0.114746094,-0.9456177,0.21209717,15.5625,6.515625,9.421875
1696251060957,0.3046875,-0.96221924,0.097839355,28.890625,2.140625,9.921875
1696251060997,0.29614258,-0.94659424,0.07977295,6.28125,3.828125,4.0
1696251061039,0.23876953,-0.9837036,0.10345459,5.859375,4.546875,3.296875
1696251061077,0.24243164,-1.0007935,0.055358887,0.703125,-10.78125,5.375
1696251061118,0.23730469,-0.9717407,0.042419434,-1.640625,-5.0625,0.4375
1696251061138,0.3125,-1.0462036,0.025817871,-31.21875,-16.75,-2.5625
1696251061180,0.16210938,-0.9390259,0.16619873,-5.703125,-4.390625,0.53125
1696251061239,0.3647461,-0.9907837,0.2267456,6.96875,0.25,-9.6875
1696251061256,0.25732422,-0.87994385,0.061950684,3.640625,13.765625,-3.84375
1696251061299,0.115234375,-0.82232666,0.24627686,1.3125,-2.796875,-5.0625
1696251061358,0.17797852,-0.9758911,0.10076904,-9.4375,-4.046875,1.8125
1696251061376,0.25097656,-1.0134888,0.17132568,-12.390625,-10.140625,0.1875
1696251061417,0.2836914,-1.0256958,0.20916748,-1.203125,-1.53125,-0.734375
1696251061457,0.13769531,-0.927063,0.19403076,0.5,3.9375,-1.171875
1696251061497,0.1706543,-0.91656494,0.18255615,-7.6875,-2.578125,0.453125
1696251061537,0.22192383,-0.9529419,0.16082764,-5.8125,-2.1875,-0.515625
1696251061597,0.21679688,-0.95391846,0.22064209,5.234375,2.171875,-1.28125
1696251061618,0.19799805,-0.8921509,0.21917725,-0.890625,0.40625,-1.953125
1696251061657,0.18798828,-0.95684814,0.21014404,-2.234375,-1.359375,-0.578125
1696251061697,0.21166992,-0.9873657,0.17181396,-1.5,-1.953125,1.890625
1696251061738,0.19238281,-0.93707275,0.246521,1.28125,-1.265625,-0.21875
1696251061778,0.19042969,-0.9199829,0.20257568,-2.796875,-0.96875,-1.359375
1696251061841,0.16821289,-0.9360962,0.18060303,-2.625,-1.109375,-0.5625
1696251061856,0.17480469,-0.9541626,0.20672607,-4.78125,-3.0,0.609375
1696251061895,0.19458008,-0.9468384,0.26361084,-1.4375,-1.171875,0.6875
1696251061959,0.1875,-0.99713135,0.20574951,1.15625,-3.15625,4.78125
1696251061976,0.17382812,-0.95513916,0.20379639,2.25,-1.9375,4.75
1696251062042,0.21142578,-0.9902954,0.22991943,-3.90625,-0.578125,3.421875
1696251062055,0.25195312,-0.94781494,0.1876831,-6.390625,-1.265625,-1.015625
1696251062100,0.28027344,-0.92510986,0.22747803,-3.640625,0.0,-3.671875
1696251062159,0.25927734,-0.90093994,0.20526123,-0.328125,0.625,-0.875
1696251062179,0.18969727,-0.9065552,0.215271,-1.8125,-0.078125,0.109375
1696251062218,0.18310547,-0.93096924,0.25653076,0.453125,0.234375,1.203125
1696251062280,0.22753906,-0.9812622,0.22796631,8.109375,-0.765625,6.875
1696251062317,0.16259766,-0.93756104,0.19818115,1.21875,-1.453125,3.84375
1696251062339,0.20141602,-0.9763794,0.21844482,-6.75,-4.9375,0.671875
1696251062377,0.27490234,-0.9338989,0.24041748,-5.453125,0.875,-1.78125
1696251062438,0.2397461,-0.911438,0.23602295,-2.34375,0.28125,-2.8125
1696251062456,0.19042969,-0.928772,0.2243042,-1.484375,-0.640625,-2.578125
1696251062477,0.20947266,-0.940979,0.24188232,-1.4375,-0.84375,0.203125
1696251062516,0.2043457,-0.960022,0.24066162,1.25,-2.25,2.421875
1696251062556,0.18969727,-0.9710083,0.26263428,1.46875,-2.015625,0.78125
1696251062597,0.21069336,-0.9338989,0.24505615,-1.796875,1.0,-1.1875
1696251062637,0.20410156,-0.92071533,0.25897217,-1.546875,1.90625,-1.421875
1696251062677,0.1850586,-0.9146118,0.2843628,3.78125,6.84375,-1.453125
1696251062720,0.1784668,-0.89141846,0.26434326,16.546875,17.140625,-3.03125
1696251062757,0.15698242,-0.9595337,0.14056396,12.9375,8.421875,8.59375
1696251062798,0.24560547,-0.94610596,0.17474365,12.515625,-0.984375,12.515625
1696251062837,0.3034668,-0.9356079,0.23236084,28.453125,3.3125,12.03125
1696251062877,0.2121582,-0.9771118,0.085632324,24.046875,9.390625,6.328125
1696251062916,0.28100586,-1.0283813,0.04486084,-0.3125,-7.671875,1.5
1696251062958,0.36694336,-0.9819946,0.04046631,-2.78125,-4.46875,1.546875
1696251062999,0.3203125,-0.9656372,0.0072631836,-22.796875,-10.0625,-7.578125
1696251063040,0.22338867,-0.7979126,0.31365967,-11.75,-19.984375,-9.265625
1696251063077,0.43823242,-0.87994385,0.17962646,11.1875,8.40625,1.171875
1696251063118,0.052978516,-0.82037354,0.12762451,3.828125,-0.875,-0.28125
1696251063156,0.10449219,-1.0288696,0.12200928,-7.078125,-7.5625,-2.125
1696251063199,0.3540039,-1.017395,0.14300537,-23.59375,-9.96875,-1.296875
1696251063241,0.38085938,-0.87872314,0.24383545,-8.046875,2.0625,-5.671875
1696251063281,0.18261719,-0.8982544,0.18719482,-6.921875,-2.90625,-6.53125
1696251063316,0.19189453,-0.9385376,0.199646,-5.421875,-0.640625,-5.09375
1696251063360,0.17797852,-0.9368286,0.19940186,-6.6875,-1.515625,-4.46875
1696251063400,0.21923828,-0.92388916,0.24554443,-6.59375,-3.1875,-5.03125
1696251063438,0.17553711,-0.9702759,0.24163818,-6.265625,-1.34375,-3.359375
1696251063480,0.1887207,-0.9463501,0.2880249,-5.375,0.296875,-4.578125
1696251063516,0.18066406,-0.9158325,0.27191162,-1.34375,1.875,-2.578125
1696251063557,0.12915039,-0.97979736,0.22210693,-0.359375,-2.21875,-1.75
1696251063597,0.20214844,-0.9470825,0.2658081,-2.015625,-2.046875,-1.859375
1696251063637,0.20092773,-0.9429321,0.2538452,-5.296875,-4.4375,-1.609375
1696251063679,0.16894531,-0.9512329,0.2855835,1.03125,-1.171875,-3.625
1696251063762,0.14135742,-0.94122314,0.25653076,-0.453125,-1.09375,-1.53125
1696251063766,0.16381836,-0.9011841,0.2909546,-0.484375,-3.328125,-1.4375
1696251063776,0.1665039,-0.96343994,0.2584839,-1.734375,-2.96875,-0.28125
1696251063838,0.13378906,-0.9746704,0.26385498,0.21875,-1.25,-0.6875
1696251063857,0.14477539,-0.9607544,0.27313232,-0.0625,-0.9375,0.921875
1696251063898,0.15942383,-0.9534302,0.27020264,-0.421875,-1.3125,-0.8125
1696251063960,0.16235352,-0.9534302,0.27459717,-0.265625,1.03125,0.34375
1696251063976,0.14453125,-0.9470825,0.26385498,0.40625,-1.109375,0.9375
1696251064021,0.1418457,-0.9397583,0.2584839,-0.296875,-0.625,0.25
1696251064059,0.16210938,-0.9866333,0.23822021,-3.0625,-0.109375,-1.25
1696251064121,0.19970703,-0.93048096,0.30511475,-4.234375,3.15625,-3.203125
1696251064137,0.21044922,-0.909729,0.26116943,0.03125,1.953125,0.34375
1696251064176,0.10986328,-0.89141846,0.2748413,3.578125,-0.40625,3.671875
1696251064236,0.1081543,-0.9522095,0.3007202,-2.03125,-2.640625,1.09375
1696251064256,0.17260742,-0.98931885,0.3143921,-0.125,0.375,-0.625
1696251064297,0.1850586,-0.95147705,0.29144287,4.5625,1.859375,-0.03125
1696251064336,0.14990234,-0.9248657,0.27264404,5.578125,0.84375,0.453125
1696251064376,0.16186523,-0.94537354,0.23284912,1.34375,0.71875,1.515625
1696251064417,0.16064453,-0.9336548,0.2399292,-0.125,-1.359375,3.421875
1696251064456,0.18969727,-0.9414673,0.25531006,1.15625,-0.03125,1.46875
1696251064496,0.16040039,-0.9295044,0.24407959,1.234375,2.265625,-0.84375
1696251064536,0.14819336,-0.9314575,0.260437,4.03125,6.34375,-0.109375
1696251064576,0.16235352,-0.95440674,0.23553467,13.265625,12.609375,2.5
1696251064617,0.16748047,-0.9788208,0.18743896,9.9375,13.0,3.40625
1696251064656,0.22436523,-0.98809814,0.1486206,0.46875,0.671875,6.46875
1696251064698,0.20166016,-0.92559814,0.22698975,9.421875,2.46875,7.625
1696251064759,0.20336914,-0.9170532,0.215271,20.8125,3.625,7.53125
1696251064798,0.20288086,-0.9795532,0.14300537,19.484375,3.75,6.984375
1696251064816,0.23583984,-1.0169067,0.10394287,9.8125,1.390625,5.59375
1696251064879,0.30151367,-0.9924927,0.11468506,-4.640625,-9.484375,2.515625
1696251064896,0.28930664,-0.9795532,0.059753418,-9.171875,-6.296875,-3.5
1696251064957,0.22753906,-0.98565674,0.082458496,-34.75,-22.21875,-3.84375
1696251064975,0.17041016,-0.8591919,0.3427124,-5.0,-12.75,-3.890625
1696251065019,0.42138672,-0.9558716,0.17132568,1.625,9.1875,-3.53125
1696251065079,0.043701172,-0.86505127,0.15765381,7.453125,4.734375,-4.796875
1696251065082,0.15771484,-0.9595337,0.21429443,-6.375,-8.21875,0.296875
1696251065124,0.24414062,-0.9746704,0.19818115,-7.109375,-0.625,2.578125
1696251065159,0.20996094,-0.97784424,0.20379639,-3.515625,-0.65625,-5.140625
1696251065198,0.21875,-0.94366455,0.1984253,-1.875,-0.71875,-1.40625
1696251065236,0.16357422,-0.892395,0.23187256,-1.703125,2.5,-1.59375
1696251065279,0.14868164,-0.90948486,0.24945068,-3.46875,3.25,-3.0
1696251065317,0.19458008,-0.9314575,0.27313232,-2.765625,4.78125,-2.078125
1696251065357,0.14624023,-0.9168091,0.2423706,7.953125,11.15625,0.296875
1696251065400,0.15893555,-0.9402466,0.2682495,23.984375,2.6875,9.140625
1696251065436,0.27294922,-1.0037231,0.054870605,34.421875,5.59375,12.28125
1696251065479,0.2163086,-0.9780884,0.07977295,16.65625,3.125,8.0625
1696251065521,0.24780273,-0.9710083,0.1161499,7.1875,-5.59375,3.171875
1696251065559,0.26733398,-1.0169067,0.024108887,-2.46875,-4.59375,-1.21875
1696251065598,0.25048828,-0.93585205,0.043884277,-14.421875,-6.640625,-3.3125
1696251065639,0.2685547,-0.99542236,0.10809326,-34.640625,-19.921875,-2.953125
1696251065679,0.18481445,-0.9631958,0.22015381,-8.171875,-6.3125,-3.140625
1696251065720,0.32958984,-0.9336548,0.26409912,-6.03125,-3.390625,-9.296875
1696251065758,0.23779297,-0.86846924,0.06317139,0.578125,7.8125,-2.984375
1696251065799,0.0637207,-0.9089966,0.22991943,-0.96875,-5.046875,-3.125
1696251065839,0.18383789,-1.0015259,0.20892334,-15.3125,-5.703125,1.28125
1696251065879,0.23730469,-1.0354614,0.17645264,-5.921875,-5.046875,-0.984375
1696251065917,0.23022461,-0.93341064,0.27630615,0.40625,2.03125,-4.21875
1696251065958,0.12207031,-0.94073486,0.24749756,-4.0,-0.546875,-4.8125
1696251065997,0.17285156,-0.9277954,0.2423706,-6.171875,-0.421875,-4.578125
1696251066038,0.21289062,-0.944397,0.22845459,-4.203125,-3.125,-4.015625
1696251066078,0.14941406,-0.94854736,0.23822021,-3.765625,-2.171875,-5.8125
1696251066120,0.13183594,-0.97857666,0.2802124,-8.546875,-3.65625,-5.5
1696251066159,0.15039062,-0.9624634,0.28411865,-9.65625,-2.140625,-5.75
1696251066198,0.13061523,-0.9710083,0.2567749,-4.609375,-1.109375,-6.28125
1696251066239,0.1418457,-0.9624634,0.31048584,-5.71875,-1.984375,-6.828125
1696251066281,0.122802734,-0.93463135,0.29315186,-2.703125,-0.21875,-4.546875
1696251066325,0.1003418,-0.94000244,0.29901123,2.640625,2.15625,-4.34375
1696251066378,0.1159668,-0.9612427,0.23846436,1.28125,1.59375,-4.546875
1696251066397,0.12915039,-0.95269775,0.25946045,-0.03125,4.125,-3.828125
1696251066419,0.123535156,-0.87701416,0.3060913,-4.375,1.828125,-5.71875
1696251066501,0.111083984,-0.92266846,0.25360107,-2.0,-0.84375,-2.5625
1696251066504,0.09472656,-0.9690552,0.29486084,-6.265625,1.203125,-4.171875
1696251066539,0.08105469,-0.991272,0.3139038,-2.703125,0.125,-2.671875
1696251066578,0.1237793,-0.9522095,0.3102417,-1.78125,-0.09375,-3.75
1696251066640,0.10864258,-0.9085083,0.34344482,-3.796875,0.6875,-5.40625
1696251066680,0.051513672,-0.9360962,0.309021,-3.296875,-1.953125,-3.15625
1696251066719,0.03100586,-0.92755127,0.31341553,-1.390625,-0.953125,-3.1875
1696251066737,0.08227539,-0.9546509,0.30511475,-0.6875,-0.796875,-2.8125
1696251066782,0.037597656,-0.9343872,0.36834717,-2.953125,-1.4375,-5.515625
1696251066817,0.016113281,-0.94415283,0.31292725,-0.0625,-0.390625,-1.390625
1696251066858,0.03515625,-0.9282837,0.35247803,-2.859375,-0.828125,-0.453125
1696251066898,0.07910156,-0.9397583,0.32733154,-0.171875,-3.046875,0.265625
1696251066957,-0.0078125,-0.923645,0.3258667,-1.265625,-5.9375,1.375
1696251066978,-0.0075683594,-0.9402466,0.38201904,-2.90625,-1.015625,0.71875
1696251067040,0.06640625,-0.95977783,0.3632202,0.21875,2.71875,0.96875
1696251067078,0.08569336,-0.9121704,0.3751831,-0.265625,-2.75,2.671875
1696251067096,-4.8828125E-4,-0.92755127,0.3793335,0.296875,-3.859375,1.15625
1696251067139,0.010253906,-0.9937134,0.35125732,-0.375,0.4375,-2.328125
1696251067178,0.08227539,-0.98883057,0.34295654,2.546875,1.734375,2.59375
1696251067219,0.05126953,-0.91778564,0.3036499,1.4375,-2.296875,3.90625
1696251067257,0.034179688,-0.8609009,0.3168335,6.28125,4.96875,4.296875
1696251067301,0.1538086,-0.9656372,0.31903076,15.6875,2.28125,5.203125
1696251067337,0.063964844,-0.93927,0.2892456,21.0,5.96875,8.53125
1696251067379,0.016113281,-0.98101807,0.14715576,16.28125,4.453125,11.953125
1696251067418,0.045166016,-0.96417236,0.262146,8.03125,0.15625,12.078125
1696251067457,0.15844727,-1.0110474,0.30682373,12.078125,-2.40625,13.234375
1696251067499,0.12109375,-0.9854126,0.23602295,17.875,8.65625,11.78125
1696251067537,0.08862305,-0.9805298,0.15985107,18.390625,10.359375,11.359375
1696251067578,0.16186523,-0.8982544,0.15570068,6.65625,2.625,8.359375
1696251067618,0.21850586,-1.0427856,0.06048584,1.25,-2.640625,7.515625
1696251067682,0.29125977,-0.9402466,0.1359253,2.28125,-0.5,3.390625
1696251067717,0.29125977,-0.9209595,0.1083374,2.21875,-6.5,-0.015625
1696251067721,0.27807617,-0.9849243,0.097351074,-12.265625,-12.703125,-4.671875
1696251067759,0.20385742,-0.9373169,0.17132568,-28.90625,-8.53125,-9.9375
1696251067798,0.21411133,-0.89263916,0.33148193,-9.421875,1.3125,-2.96875
1696251067838,0.17211914,-0.88775635,0.22991943,-8.4375,-4.78125,-1.53125
1696251067876,0.10668945,-0.89019775,0.21600342,-7.671875,-0.328125,-3.5
1696251067918,0.17382812,-1.0308228,0.29901123,-9.828125,-2.875,-0.390625
1696251067959,0.18969727,-0.9800415,0.31488037,-5.609375,-3.609375,-2.28125
1696251068000,0.1496582,-0.9685669,0.25823975,2.359375,5.0,-3.046875
1696251068038,0.13110352,-0.91485596,0.27069092,-1.1875,-0.90625,-5.109375
1696251068078,0.13012695,-0.90167236,0.2579956,-2.28125,0.328125,-3.296875
1696251068119,0.1003418,-0.9133911,0.26556396,5.3125,5.53125,-0.34375
1696251068160,0.11254883,-0.9751587,0.28631592,18.375,-2.609375,5.0625
1696251068200,0.16821289,-1.0166626,0.1383667,21.28125,1.375,8.765625
1696251068237,0.14990234,-0.94415283,0.17376709,17.859375,5.265625,9.859375
1696251068280,0.13696289,-0.9751587,0.20013428,11.4375,-0.328125,6.140625
1696251068316,0.14477539,-1.0007935,0.1774292,12.109375,1.703125,2.9375
1696251068357,0.24365234,-0.9993286,0.1329956,16.671875,7.109375,1.8125
1696251068397,0.18188477,-0.9260864,0.07757568,13.21875,2.140625,3.953125
1696251068440,0.17480469,-0.9421997,0.08001709,5.0625,-4.234375,3.140625
1696251068478,0.19555664,-0.9729614,0.08392334,0.625,-2.59375,1.625
1696251068519,0.23510742,-0.9631958,0.06976318,3.078125,-0.375,0.984375
1696251068559,0.2084961,-0.9480591,0.055603027,-3.421875,-2.796875,0.40625
1696251068599,0.19580078,-0.97076416,0.08270264,-6.609375,-5.546875,-0.515625
1696251068640,0.20874023,-1.0083618,0.09466553,-14.59375,-9.828125,-2.75
1696251068678,0.17822266,-0.94781494,0.11834717,-24.328125,-11.640625,-6.515625
1696251068719,0.21850586,-1.0518188,0.17132568,-21.984375,-11.171875,-11.0
1696251068757,0.24267578,-0.8599243,0.30340576,-11.046875,10.140625,-19.09375
1696251068799,0.040771484,-0.8616333,0.12054443,-1.90625,2.609375,-1.9375
1696251068837,0.103515625,-0.9368286,0.25042725,-3.234375,-2.875,2.015625
1696251068878,0.2019043,-1.0354614,0.23260498,-11.15625,-7.921875,2.15625
1696251068917,0.18823242,-0.9898071,0.1720581,-0.578125,-2.4375,-0.46875
1696251068960,0.16796875,-0.89385986,0.31976318,-3.6875,3.765625,-4.578125
1696251068999,0.07446289,-0.9351196,0.25360107,-1.96875,-2.46875,0.53125
1696251069017,0.04663086,-0.9380493,0.20599365,-0.015625,2.453125,1.671875
1696251069059,0.14819336,-1.0061646,0.19744873,-7.25,-4.59375,0.703125
1696251069098,0.23046875,-1.0523071,0.29534912,-9.5,-2.953125,-5.171875
1696251069137,0.1459961,-0.9163208,0.30975342,-0.8125,3.875,-8.078125
1696251069177,-0.047607422,-0.89727783,0.28411865,0.859375,2.09375,-1.9375
1696251069218,0.09350586,-0.90216064,0.25823975,0.96875,6.796875,0.25
1696251069277,0.19189453,-1.0039673,0.22698975,-5.0625,-6.71875,4.21875
1696251069298,0.22070312,-0.9336548,0.34124756,-6.28125,-4.328125,-1.78125
1696251069360,0.125,-0.9404907,0.30706787,-2.671875,-1.6875,-2.296875
1696251069377,0.024902344,-0.91534424,0.2584839,-1.578125,1.609375,0.796875
1696251069417,0.10253906,-0.97906494,0.2633667,-5.25,-0.109375,-0.828125
1696251069458,0.12646484,-1.0256958,0.25750732,-5.5625,-0.015625,0.71875
1696251069496,0.103759766,-0.9456177,0.32659912,-0.03125,-0.71875,1.09375
1696251069537,0.06762695,-0.8989868,0.27581787,-1.078125,0.875,3.078125
1696251069578,0.1105957,-0.9385376,0.35272217,0.84375,0.890625,1.328125
1696251069618,0.17358398,-0.9487915,0.2994995,1.3125,-3.421875,0.96875
1696251069658,0.16723633,-0.92388916,0.307312,1.390625,-4.6875,2.734375
1696251069698,0.08691406,-0.9390259,0.27313232,0.15625,-3.59375,4.03125
1696251069758,0.08496094,-0.9636841,0.2670288,-1.53125,-0.59375,1.78125
1696251069778,0.13842773,-0.93756104,0.31610107,1.25,2.140625,3.875
1696251069840,0.16064453,-0.9229126,0.3180542,9.046875,-2.796875,5.09375
1696251069877,0.10839844,-0.928772,0.3007202,20.140625,6.78125,4.953125
1696251069897,0.048095703,-0.98565674,0.14202881,16.484375,7.84375,10.59375
1696251069938,0.16821289,-0.97003174,0.16693115,4.34375,2.6875,11.546875
1696251069978,0.26831055,-0.94903564,0.28485107,2.703125,1.109375,7.6875
1696251070022,0.2685547,-0.9480591,0.24334717,7.875,6.984375,7.296875
1696251070060,0.19921875,-0.9351196,0.19940186,12.640625,8.921875,4.515625
1696251070097,0.19726562,-0.95098877,0.1605835,9.765625,1.09375,3.71875
1696251070137,0.22851562,-0.9468384,0.17376709,0.90625,-8.8125,5.109375
1696251070180,0.26635742,-0.93634033,0.20599365,2.5625,-8.21875,4.828125
1696251070239,0.27197266,-0.942688,0.1918335,5.203125,-6.3125,1.484375
1696251070257,0.25024414,-0.97247314,0.09075928,-2.875,-4.203125,-0.484375
1696251070321,0.23950195,-0.98809814,0.12298584,-14.1875,-12.9375,-1.4375
1696251070336,0.2097168,-0.95977783,0.18377686,-18.375,-14.390625,-5.578125
1696251070356,0.29174805,-0.9360962,0.4015503,-16.53125,-2.46875,-14.359375
1696251070439,0.21044922,-0.9116821,0.14813232,-5.625,1.359375,-4.9375
1696251070442,0.012207031,-0.87750244,0.21575928,-0.359375,-2.234375,0.515625
1696251070477,0.19628906,-1.0752563,0.2958374,-13.015625,-9.078125,-1.140625
1696251070518,0.18579102,-0.9314575,0.28900146,-4.6875,-0.421875,1.765625
1696251070561,0.13623047,-0.8904419,0.26019287,2.25,2.984375,-1.34375
1696251070599,0.18408203,-0.911438,0.3192749,-7.8125,-4.8125,-3.28125
1696251070642,0.18798828,-0.9692993,0.2929077,-7.203125,-0.3125,0.09375
1696251070679,0.171875,-0.93218994,0.31829834,-1.203125,1.71875,-2.203125
1696251070717,0.14526367,-0.95806885,0.2765503,-3.65625,-1.765625,0.5
1696251070759,0.20507812,-0.95098877,0.29974365,-3.421875,1.953125,-1.046875
1696251070798,0.19384766,-0.9385376,0.31219482,-1.984375,0.46875,0.8125
1696251070840,0.13183594,-0.923645,0.3085327,-2.578125,1.046875,-0.5625
1696251070877,0.16967773,-0.9138794,0.32781982,-4.25,1.09375,-3.75
1696251070919,0.2434082,-0.9692993,0.28338623,-7.96875,-2.625,-3.265625
1696251070960,0.20727539,-0.90875244,0.3619995,-5.796875,-2.40625,-5.09375
1696251070997,0.19067383,-0.8965454,0.30877686,-1.75,-4.34375,-2.078125
1696251071039,0.17480469,-0.9077759,0.30267334,-5.171875,-7.03125,1.796875
1696251071077,0.07763672,-0.90582275,0.35516357,1.75,-1.84375,1.5625
1696251071119,0.038330078,-0.9507446,0.38763428,-0.03125,-1.546875,-1.765625
1696251071159,0.13891602,-0.99664307,0.35272217,-6.453125,-2.578125,-0.25
1696251071198,0.16796875,-0.9495239,0.38983154,-0.59375,-1.390625,0.8125
1696251071240,0.19067383,-0.8909302,0.37982178,-5.28125,-4.765625,0.28125
1696251071278,0.16845703,-0.8821411,0.38031006,-3.734375,-5.0,0.375
1696251071318,0.17089844,-0.9024048,0.3637085,1.1875,-4.84375,1.59375
1696251071357,0.08227539,-0.90631104,0.34613037,2.890625,-2.421875,1.546875
1696251071398,0.1171875,-0.94854736,0.3949585,2.875,0.296875,-1.5625
1696251071439,0.16503906,-0.94610596,0.35614014,-2.40625,-2.09375,2.078125
1696251071478,0.09667969,-0.90509033,0.39422607,3.25,2.4375,1.171875
1696251071521,0.13061523,-0.9302368,0.37420654,-2.546875,-0.25,-1.359375
1696251071559,0.15527344,-0.91534424,0.35076904,-3.34375,3.140625,-1.375
1696251071620,0.18774414,-0.9048462,0.36932373,-2.734375,0.65625,-2.484375
1696251071638,0.17333984,-0.8989868,0.39007568,-3.25,-1.65625,0.15625
1696251071656,0.095214844,-0.8945923,0.38006592,-1.984375,-0.140625,0.1875
1696251071698,-0.018798828,-0.9168091,0.38104248,-4.140625,0.296875,-0.953125
1696251071738,0.14746094,-0.9873657,0.41082764,-5.828125,-1.140625,0.109375
1696251071799,0.203125,-0.9234009,0.36932373,-2.234375,0.546875,1.359375
1696251071818,0.15234375,-0.8867798,0.4052124,12.0,10.375,1.390625
1696251071879,0.16137695,-0.9092407,0.39544678,17.578125,13.046875,5.078125
1696251071896,0.1381836,-0.8345337,0.35809326,23.484375,15.703125,6.59375
1696251071938,0.12109375,-0.87994385,0.28729248,37.984375,15.078125,13.0
1696251071977,0.19970703,-0.97198486,0.21990967,32.21875,11.375,11.453125
1696251072017,0.23583984,-0.96295166,0.19598389,10.546875,11.625,4.78125
1696251072058,0.29052734,-0.9746704,0.1852417,4.703125,-1.03125,4.015625
1696251072117,0.31567383,-0.9944458,0.18939209,3.671875,-13.609375,4.234375
1696251072136,0.27197266,-0.9924927,0.109313965,6.140625,-5.453125,-2.140625
1696251072200,0.26171875,-1.069397,0.10614014,-14.921875,-16.34375,-9.171875
1696251072215,0.09399414,-0.80426025,0.38226318,-12.234375,1.046875,-11.5
1696251072280,0.19799805,-1.0462036,0.18426514,-7.515625,-0.078125,1.4375
1696251072317,0.027832031,-0.94659424,0.16033936,-21.578125,5.0,-5.234375
1696251072337,0.2788086,-0.92315674,0.26654053,-13.25,-0.296875,-0.71875
1696251072378,0.30932617,-0.892395,0.32904053,-10.703125,-6.203125,-2.046875
1696251072417,0.25073242,-0.8870239,0.3480835,2.671875,-2.4375,-9.625
1696251072458,0.18432617,-0.95928955,0.31365967,0.046875,-4.3125,-8.5625
1696251072518,0.12866211,-0.94366455,0.31341553,-1.5,3.203125,-5.21875
1696251072536,0.14916992,-0.9314575,0.30755615,-6.6875,-2.328125,-3.59375
1696251072598,0.18408203,-0.942688,0.29412842,-6.78125,2.140625,-3.6875
1696251072616,0.18920898,-0.927063,0.2929077,-2.15625,-5.125,0.671875
1696251072658,0.0769043,-0.9402466,0.30511475,-0.4375,-9.15625,-0.390625
1696251072698,-0.010498047,-0.9627075,0.28656006,1.15625,-3.546875,-4.375
1696251072737,0.063964844,-0.9614868,0.3151245,-0.078125,2.625,-4.484375
1696251072778,0.18066406,-0.9187622,0.36810303,-1.5,3.5,-2.046875
1696251072818,0.1430664,-0.92681885,0.34075928,-3.21875,-3.21875,0.75
1696251072858,0.09692383,-0.93218994,0.33807373,-1.4375,-1.984375,0.359375
1696251072897,0.09033203,-0.9602661,0.31756592,-4.859375,-3.046875,3.0
1696251072939,0.12011719,-0.95635986,0.29925537,-5.265625,-2.40625,3.140625
1696251072957,0.16503906,-0.89923096,0.36883545,-2.0625,0.796875,-1.09375
1696251072998,0.16796875,-0.91851807,0.34539795,-0.046875,-3.3125,0.90625
1696251073039,0.13427734,-0.928772,0.3312378,4.390625,0.15625,-1.75
1696251073078,0.14086914,-0.94073486,0.33148193,1.609375,0.59375,-2.109375
1696251073118,0.14379883,-0.92755127,0.31341553,-1.515625,-0.453125,-1.0
1696251073160,0.125,-0.89801025,0.3756714,-0.578125,0.3125,-1.21875
1696251073199,0.10229492,-0.9483032,0.31121826,-4.21875,-3.453125,-0.125
1696251073239,0.1159668,-0.9849243,0.29925537,-3.703125,-2.34375,0.078125
1696251073278,0.15429688,-1.0025024,0.3319702,-4.78125,-6.3125,1.390625
1696251073320,0.20532227,-0.95098877,0.35491943,-5.875,-6.796875,1.703125
1696251073358,0.10961914,-0.87286377,0.3546753,2.53125,-4.90625,1.359375
1696251073400,0.025634766,-0.87750244,0.35760498,5.078125,-3.984375,-0.0625
1696251073438,0.029052734,-0.9404907,0.3546753,-3.921875,-3.21875,-0.03125
1696251073478,0.08105469,-0.9546509,0.39056396,-4.265625,-1.3125,0.8125
1696251073517,0.13500977,-0.9390259,0.40789795,-4.234375,-5.15625,2.8125
1696251073558,0.14379883,-0.9019165,0.39886475,-5.515625,-5.9375,3.84375
1696251073598,0.11376953,-0.8858032,0.41326904,0.359375,-2.6875,2.171875
1696251073637,0.025390625,-0.9194946,0.36029053,2.921875,2.53125,0.1875
1696251073680,0.05883789,-0.92633057,0.39154053,0.984375,4.53125,0.390625
1696251073718,0.16625977,-0.8862915,0.4225464,9.546875,10.046875,6.0625
1696251073759,0.15600586,-0.92926025,0.3036499,25.546875,14.390625,9.703125
1696251073799,0.16064453,-0.96710205,0.2897339,14.9375,6.640625,7.546875
1696251073838,0.23486328,-0.9631958,0.291687,8.515625,4.671875,6.5
1696251073879,0.2277832,-0.9053345,0.25604248,6.25,5.0,3.796875
1696251073918,0.19897461,-0.93878174,0.23944092,9.765625,1.109375,0.25
1696251073960,0.2019043,-0.9727173,0.26385498,9.953125,-5.53125,3.890625
1696251073998,0.24047852,-1.0562134,0.1720581,0.90625,-11.296875,-0.328125
1696251074038,0.29736328,-1.0317993,0.22723389,-9.515625,-9.34375,-10.625
1696251074077,0.1340332,-0.86920166,0.33319092,5.515625,17.03125,-4.3125
1696251074119,0.026611328,-0.8257446,0.21600342,-10.484375,-9.4375,-1.0
1696251074157,0.0925293,-0.9690552,0.2506714,-7.015625,-0.671875,-3.109375
1696251074199,0.24243164,-0.94732666,0.29022217,-12.53125,-3.0,-1.390625
1696251074261,0.09375,-0.9602661,0.3414917,-3.453125,-0.40625,-3.640625
1696251074264,0.0793457,-1.0457153,0.26116943,-0.34375,12.546875,-3.03125
1696251074299,0.12133789,-0.97247314,0.30413818,-6.78125,4.59375,-5.140625
1696251074381,0.28173828,-0.8765259,0.32806396,-2.625,6.203125,-1.328125
1696251074386,0.20336914,-0.8792114,0.30584717,-5.90625,-3.390625,-0.046875
1696251074420,0.08300781,-0.9365845,0.3078003,3.375,2.640625,-2.5625
1696251074458,0.12109375,-0.9338989,0.31195068,-6.609375,-1.09375,-3.75
1696251074520,0.16845703,-0.9241333,0.34857178,0.40625,2.15625,-1.796875
1696251074538,0.103759766,-0.94732666,0.32781982,-2.640625,-0.96875,-0.125
1696251074580,0.11352539,-0.97442627,0.30389404,-0.515625,0.015625,0.671875
1696251074640,0.14916992,-0.94073486,0.3163452,-5.046875,-1.0625,1.515625
1696251074657,0.18164062,-0.9175415,0.3336792,-0.3125,-1.25,-0.125
1696251074699,0.12646484,-0.9290161,0.3204956,-1.015625,-0.21875,-2.453125
1696251074738,0.123535156,-0.9331665,0.33758545,3.03125,3.125,-3.03125
1696251074801,0.13989258,-0.92510986,0.32513428,-1.234375,-1.3125,-1.40625
1696251074817,0.13500977,-0.9417114,0.31414795,1.171875,-0.40625,0.0
1696251074880,0.060302734,-0.94122314,0.31463623,-0.90625,0.296875,1.296875
1696251074897,0.1340332,-0.9817505,0.32562256,-3.484375,-2.0625,3.84375
1696251074940,0.11401367,-0.9390259,0.3468628,0.5,0.8125,0.984375
1696251074978,0.13354492,-0.92437744,0.33685303,2.734375,1.046875,-0.484375
1696251075041,0.14086914,-0.9446411,0.32562256,6.09375,5.203125,1.9375
1696251075056,0.12670898,-0.9151001,0.32366943,1.34375,1.109375,2.90625
1696251075121,0.13134766,-0.9138794,0.3065796,0.453125,1.984375,3.515625
1696251075158,0.18579102,-0.97125244,0.28045654,-3.171875,-2.953125,3.15625
1696251075177,0.18041992,-0.9529419,0.32391357,0.609375,-3.46875,2.84375
1696251075218,0.15332031,-0.92437744,0.33758545,-0.875,-2.09375,0.46875
1696251075280,0.15551758,-0.93292236,0.3126831,-3.765625,-0.515625,-1.5
1696251075320,0.05493164,-0.9187622,0.35516357,4.328125,4.75,-0.890625
1696251075336,0.028076172,-0.9780884,0.30828857,10.953125,8.328125,3.390625
1696251075400,0.19165039,-0.9663696,0.21356201,3.671875,3.546875,6.046875
1696251075438,0.2446289,-0.87994385,0.32537842,-1.734375,-0.078125,6.109375
1696251075458,0.24633789,-0.90411377,0.35662842,13.421875,3.34375,6.296875
1696251075500,0.18237305,-0.9404907,0.293396,22.125,5.3125,7.359375
1696251075558,0.203125,-0.95928955,0.23699951,19.640625,4.6875,5.328125
1696251075564,0.20458984,-0.96099854,0.1864624,2.40625,-5.078125,-0.6875
1696251075598,0.18408203,-0.9373169,0.16204834,-7.375,-7.671875,-1.34375
1696251075638,0.21313477,-1.078186,0.19989014,-26.984375,-18.375,-3.109375
1696251075678,0.17285156,-0.83966064,0.38153076,-6.3125,-3.109375,-1.375
1696251075718,0.30981445,-0.91973877,0.24383545,-3.34375,0.375,-5.078125
1696251075759,0.11206055,-0.8479614,0.3661499,5.53125,0.328125,-6.78125
1696251075799,0.06713867,-0.9680786,0.24920654,1.484375,-0.140625,-2.0
1696251075839,0.13793945,-0.9439087,0.338562,-9.3125,-3.484375,2.3125
1696251075877,0.17700195,-0.92926025,0.324646,-7.34375,-2.5,0.09375
1696251075918,0.16772461,-0.9299927,0.30926514,0.84375,1.78125,-1.359375
1696251075959,0.12548828,-0.86602783,0.39300537,12.328125,12.640625,0.109375
1696251075997,0.07885742,-0.9368286,0.23797607,35.953125,17.3125,6.4375
1696251076038,0.1940918,-1.0066528,0.14422607,24.484375,3.484375,12.59375
1696251076078,0.27294922,-0.98101807,0.10076904,7.046875,-2.6875,9.90625
1696251076118,0.27905273,-0.98516846,0.1473999,-0.765625,-8.609375,0.46875
1696251076158,0.27075195,-1.0498657,0.25360107,-6.984375,-11.171875,-6.359375
1696251076198,0.15844727,-0.8892212,0.14007568,-8.578125,0.828125,-1.875
1696251076239,0.13183594,-0.96343994,0.262146,-16.390625,-12.9375,-7.25
1696251076279,0.27270508,-0.9468384,0.291687,1.921875,7.359375,-7.15625
1696251076318,0.07470703,-0.8345337,0.18548584,2.28125,-2.03125,0.421875
1696251076358,0.14697266,-0.93927,0.2748413,-2.28125,1.265625,-0.921875
1696251076398,0.25976562,-1.0684204,0.17889404,-13.09375,-10.28125,-0.0625
1696251076439,0.2841797,-0.90093994,0.2670288,9.90625,7.90625,-3.5625
1696251076479,0.008544922,-0.8609009,0.2616577,3.171875,5.6875,-4.9375
1696251076519,0.091308594,-0.8826294,0.17547607,-2.0625,2.5625,0.40625
1696251076558,0.23413086,-1.0723267,0.19989014,-12.78125,-8.546875,0.84375
1696251076600,0.2590332,-1.0237427,0.27874756,4.4375,4.0,-3.59375
1696251076638,0.100097656,-0.8411255,0.2453003,2.671875,3.828125,-2.78125
1696251076679,0.09057617,-0.91119385,0.21502686,-4.046875,-1.390625,1.34375
1696251076717,0.21484375,-1.0696411,0.22528076,-10.0,-7.578125,0.953125
1696251076758,0.20288086,-0.9741821,0.30267334,8.78125,4.171875,-2.296875
1696251076798,0.10424805,-0.8352661,0.2526245,1.78125,2.09375,-0.71875
1696251076837,0.099121094,-0.9089966,0.23016357,-4.96875,-0.953125,0.65625
1696251076878,0.22509766,-1.0151978,0.26312256,-11.765625,-5.96875,1.375
1696251076896,0.2319336,-1.1133423,0.22796631,2.75,-1.796875,-0.15625
1696251076938,0.1381836,-0.90997314,0.25482178,3.484375,4.984375,-2.125
1696251076978,0.07885742,-0.8550415,0.25164795,-0.8125,1.1875,0.0625
1696251077021,0.14453125,-1.0071411,0.24139404,-9.15625,-3.140625,1.203125
1696251077058,0.1862793,-0.9824829,0.27801514,-0.75,-1.484375,0.84375
1696251077100,0.18432617,-0.95147705,0.28704834,0.359375,0.359375,-0.796875
1696251077138,0.15258789,-0.89727783,0.2772827,-2.078125,2.90625,-0.78125
1696251077179,0.12646484,-0.9299927,0.26556396,-0.875,-1.125,1.796875
1696251077241,0.1694336,-0.9751587,0.29632568,-5.59375,-3.734375,0.796875
1696251077257,0.17651367,-0.94610596,0.31292725,-2.109375,-0.71875,-1.734375
1696251077318,0.14990234,-0.93878174,0.29681396,-6.203125,-2.546875,-0.125
1696251077336,0.12231445,-0.92144775,0.2826538,-8.078125,-0.0625,-2.15625
1696251077376,0.14624023,-0.93048096,0.2975464,-2.953125,2.234375,-1.78125
1696251077441,0.18774414,-0.91070557,0.3619995,2.078125,0.421875,1.390625
1696251077456,0.17700195,-0.89678955,0.3131714,12.03125,7.890625,5.1875
1696251077501,0.091552734,-0.9234009,0.2662964,20.96875,11.078125,7.046875
1696251077539,0.09790039,-1.02594,0.24920654,14.796875,2.9375,8.796875
1696251077578,0.16503906,-1.0327759,0.21551514,9.203125,-2.953125,11.359375
1696251077640,0.2800293,-0.9595337,0.21697998,18.15625,4.578125,9.234375
1696251077659,0.2578125,-0.9126587,0.18084717,16.359375,8.40625,3.203125
1696251077698,0.22290039,-0.9085083,0.12908936,3.375,-2.53125,-1.09375
1696251077739,0.2163086,-0.97052,0.18206787,-2.078125,-13.03125,0.765625
1696251077776,0.2619629,-0.9817505,0.07098389,-10.53125,-6.8125,-2.484375
1696251077818,0.22680664,-1.0066528,0.17401123,-28.375,-23.703125,-2.4375
1696251077858,0.20678711,-0.94659424,0.3612671,-8.3125,-4.6875,-5.984375
1696251077920,0.30126953,-0.8477173,0.42425537,10.65625,5.609375,-13.828125
1696251077936,0.0715332,-0.8401489,0.16766357,-1.234375,-0.84375,-1.84375
1696251077978,0.032958984,-0.9788208,0.24627686,-1.21875,-1.203125,-0.65625
1696251078018,0.21118164,-1.0205688,0.22747803,-13.0625,-4.9375,5.390625
1696251078059,0.3239746,-1.0083618,0.2140503,-0.953125,-6.71875,-4.3125
1696251078120,0.2121582,-0.9258423,0.27313232,11.265625,12.171875,-5.015625
1696251078139,-0.010009766,-0.8213501,0.22235107,-3.453125,1.671875,-0.640625
1696251078200,0.17211914,-0.9902954,0.20819092,-12.890625,-4.21875,-0.34375
1696251078204,0.26245117,-0.98931885,0.33880615,-5.390625,-6.28125,-1.328125
1696251078238,0.14086914,-0.87457275,0.32928467,6.09375,3.46875,0.15625
1696251078321,-0.01977539,-0.9468384,0.28094482,-2.5625,-1.71875,-0.90625
1696251078324,0.08886719,-0.96295166,0.3217163,-6.390625,-0.421875,3.96875
1696251078358,0.08154297,-0.91363525,0.34832764,4.234375,7.421875,9.34375
1696251078399,0.18603516,-0.97198486,0.18328857,23.703125,5.6875,13.046875
1696251078438,0.24633789,-0.9434204,0.14837646,9.96875,-1.625,9.359375
1696251078480,0.26245117,-0.89141846,0.2831421,5.5625,-1.125,3.9375
1696251078519,0.2578125,-0.942688,0.23236084,15.625,1.8125,6.5625
1696251078557,0.25,-1.003479,0.10369873,10.984375,-2.0625,4.296875
1696251078598,0.23217773,-0.9727173,0.12567139,-0.78125,-5.859375,0.765625
1696251078638,0.22021484,-1.0108032,0.16497803,-14.796875,-7.78125,-1.875
1696251078678,0.1887207,-0.9636841,0.26531982,-19.5,-9.53125,-3.1875
1696251078719,0.29467773,-0.9590454,0.23675537,-10.828125,-0.359375,-12.078125
1696251078758,0.24584961,-0.80474854,0.2694702,-0.78125,5.796875,-9.03125
1696251078798,0.08105469,-0.8726196,0.23822021,-2.15625,-1.359375,-0.421875
1696251078838,0.14013672,-1.0205688,0.24822998,-6.0,-5.890625,1.140625
1696251078877,0.22387695,-0.98931885,0.3007202,-0.9375,2.40625,1.46875
1696251078918,0.21240234,-0.8892212,0.24822998,-1.75,-1.28125,-3.234375
1696251078957,0.14355469,-0.92510986,0.26361084,-2.109375,0.03125,-3.921875
1696251078998,0.16894531,-0.9944458,0.25457764,-5.46875,0.0625,-0.40625
1696251079038,0.15795898,-0.93341064,0.24945068,-2.25,0.109375,-1.96875
1696251079079,0.18188477,-0.9729614,0.28875732,-1.34375,-1.875,-0.6875
1696251079119,0.2043457,-0.92852783,0.26141357,-1.90625,-2.609375,-0.203125
1696251079157,0.16601562,-0.954895,0.28070068,-1.109375,-2.109375,0.65625
1696251079198,0.12109375,-0.9619751,0.29534912,-2.359375,-1.765625,-2.09375
1696251079238,0.13745117,-0.9138794,0.3007202,0.609375,0.390625,1.1875
1696251079278,0.1796875,-0.96954346,0.26361084,11.875,6.5625,3.28125
1696251079318,0.14208984,-0.95684814,0.22601318,5.1875,1.65625,5.796875
1696251079360,0.14086914,-0.91192627,0.29119873,-2.796875,0.46875,-0.0625
1696251079398,0.24145508,-0.95684814,0.29144287,-3.15625,4.53125,-0.125
1696251079440,0.24365234,-0.9336548,0.25897217,-2.859375,-2.375,-0.1875
1696251079478,0.14990234,-0.92755127,0.2567749,2.5625,-1.171875,-1.28125
1696251079498,0.11767578,-0.9534302,0.2518921,-5.03125,-2.890625,-0.296875
1696251079561,0.16503906,-0.9314575,0.28631592,-1.0625,1.1875,-0.375
1696251079576,0.19604492,-0.9378052,0.24139404,0.296875,-1.40625,2.828125
1696251079639,0.18945312,-0.9307251,0.3060913,1.734375,1.84375,2.75
1696251079657,0.19702148,-0.9793091,0.2880249,-3.296875,2.234375,0.484375
1696251079701,0.22583008,-0.91290283,0.28167725,0.328125,2.0,-0.390625
1696251079738,0.19946289,-0.94415283,0.2772827,0.578125,0.40625,1.078125
1696251079778,0.14916992,-0.93927,0.24993896,3.328125,-0.453125,-0.4375
1696251079819,0.17553711,-0.9295044,0.27508545,-2.953125,0.625,0.359375
1696251079860,0.20117188,-0.9602661,0.27996826,-1.09375,-2.5625,1.984375
1696251079898,0.22875977,-0.9534302,0.26409912,-0.25,-0.34375,0.484375
1696251079939,0.18798828,-0.9324341,0.25994873,0.5625,0.453125,-1.609375
1696251079979,0.18481445,-0.9180298,0.26385498,-1.109375,0.046875,-0.40625
1696251080017,0.1550293,-0.9031372,0.2843628,-0.796875,4.328125,0.046875
1696251080058,0.15771484,-0.9002075,0.309021,6.40625,10.03125,0.953125
1696251080096,0.18432617,-0.94732666,0.25091553,18.03125,4.796875,7.921875
1696251080156,0.23095703,-0.98394775,0.22943115,21.140625,0.203125,11.3125
1696251080176,0.25512695,-1.0110474,0.20697021,21.015625,-0.5,10.109375
1696251080219,0.20214844,-0.9483032,0.17181396,22.015625,2.328125,8.609375
1696251080281,0.24853516,-0.9541626,0.078063965,16.171875,1.515625,5.984375
1696251080297,0.27392578,-0.9590454,0.073913574,-4.6875,-10.4375,-2.453125
1696251080338,0.37402344,-1.062561,0.078308105,-14.5625,-8.28125,-7.609375
1696251080380,0.26367188,-0.8804321,0.18548584,-25.09375,-11.328125,-10.6875
1696251080420,0.11254883,-0.9116821,0.23040771,-13.171875,-1.4375,0.453125
1696251080482,0.21923828,-0.927063,0.26190186,-13.484375,-3.640625,-6.953125
1696251080498,0.25073242,-0.9324341,0.22064209,-5.421875,3.40625,-4.75
1696251080560,0.19506836,-0.9229126,0.24359131,-3.65625,-5.0,-1.90625
1696251080598,0.12475586,-0.94488525,0.22650146,-3.328125,-1.140625,-0.703125
1696251080617,0.2133789,-0.9585571,0.21429443,-6.140625,2.796875,-1.390625
1696251080681,0.23852539,-0.9182739,0.32537842,-3.59375,0.0625,-3.9375
1696251080698,0.16430664,-0.92755127,0.2994995,-0.890625,-2.1875,-2.28125
1696251080739,0.11767578,-0.9282837,0.26483154,-0.328125,1.546875,0.671875
1696251080802,0.1862793,-0.9463501,0.26776123,-6.046875,-3.140625,-1.078125
1696251080817,0.19091797,-0.9619751,0.27288818,-1.296875,1.828125,-1.3125
1696251080840,0.17919922,-0.94976807,0.2975464,-2.171875,0.0,0.328125
1696251080881,0.2133789,-0.927063,0.27679443,-0.796875,0.953125,0.0625
1696251080918,0.20458984,-0.9002075,0.2609253,-1.328125,0.0625,-0.765625
1696251080962,0.20166016,-0.91119385,0.29730225,-2.921875,1.484375,-1.484375
1696251080997,0.18603516,-0.909729,0.27142334,-2.71875,2.296875,-0.953125
1696251081039,0.14111328,-0.8699341,0.3036499,1.40625,6.296875,-1.046875
1696251081079,0.11303711,-0.9258423,0.34490967,16.671875,8.09375,4.828125
1696251081121,0.2290039,-1.0095825,0.22772217,27.140625,4.828125,12.78125
1696251081158,0.23486328,-0.96539307,0.19940186,27.046875,9.765625,10.890625
1696251081200,0.22802734,-0.95269775,0.15350342,22.1875,5.6875,9.5625
1696251081239,0.23876953,-0.9619751,0.14447021,10.015625,-9.234375,7.25
1696251081280,0.27734375,-0.98565674,0.109558105,12.265625,-4.515625,5.6875
1696251081320,0.27978516,-0.94317627,0.09124756,-2.453125,-5.09375,-0.46875
1696251081360,0.23486328,-0.9163208,0.1227417,-8.84375,-4.953125,-2.3125
1696251081400,0.28979492,-1.0339966,0.090026855,-20.578125,-10.890625,-3.75
1696251081438,0.2607422,-0.9194946,0.26507568,-9.71875,-3.65625,-4.8125
1696251081479,0.18969727,-0.9417114,0.21453857,17.34375,5.15625,2.765625
1696251081518,0.10620117,-0.9963989,0.034362793,-13.078125,-3.203125,-0.75
1696251081559,0.28808594,-0.9360962,0.19403076,-6.25,9.5625,-1.28125
1696251081599,0.3239746,-0.8858032,0.21429443,-9.5,-2.84375,-4.15625
1696251081639,0.25634766,-0.8911743,0.17938232,-5.71875,2.15625,-3.71875
1696251081678,0.2529297,-0.94903564,0.18670654,-12.1875,-3.3125,-2.328125
1696251081718,0.26416016,-0.92852783,0.215271,-7.0625,-0.453125,-4.15625
1696251081758,0.2631836,-0.923645,0.23187256,-6.421875,-0.890625,-3.40625
1696251081798,0.16967773,-0.94366455,0.24310303,-7.328125,-2.34375,-4.359375
1696251081838,0.2055664,-0.97491455,0.25042725,-4.28125,-0.65625,-2.96875
1696251081878,0.21191406,-0.9204712,0.2850952,-5.109375,-2.109375,-2.609375
1696251081919,0.18530273,-0.89263916,0.31170654,-0.640625,-1.390625,-2.78125
1696251081961,0.13110352,-0.9483032,0.26800537,-3.890625,-2.90625,-0.59375
1696251081998,0.18408203,-0.94488525,0.28240967,-5.03125,-1.015625,-1.171875
1696251082038,0.19848633,-0.9685669,0.3283081,-0.5,0.03125,-0.046875
1696251082078,0.17016602,-0.9024048,0.2855835,-0.703125,-0.796875,-0.375
1696251082139,0.16772461,-0.91485596,0.28900146,1.578125,2.078125,-0.34375
1696251082143,0.17797852,-0.94317627,0.28656006,-0.5625,1.25,-0.78125
1696251082177,0.20776367,-0.9536743,0.25213623,-0.359375,1.734375,-0.28125
1696251082261,0.1928711,-0.9224243,0.2850952,2.390625,3.0625,-1.046875
1696251082264,0.21240234,-0.95928955,0.25946045,4.046875,1.265625,0.1875
1696251082298,0.22558594,-0.928772,0.2597046,2.03125,3.09375,1.375
1696251082338,0.19726562,-0.9038696,0.25506592,-1.03125,-2.703125,-1.75
1696251082400,0.1850586,-0.9602661,0.2555542,-2.0,-1.515625,-1.015625
1696251082438,0.2055664,-0.96466064,0.27459717,-1.609375,-2.46875,-0.34375
1696251082457,0.16381836,-0.93218994,0.27947998,-2.71875,-0.25,-3.359375
1696251082498,0.1887207,-0.92559814,0.28289795,1.3125,2.4375,-2.4375
1696251082537,0.15771484,-0.895813,0.27264404,-0.78125,-0.3125,-0.515625
1696251082579,0.15698242,-0.9351196,0.27972412,-2.25,-1.640625,-0.21875
1696251082620,0.16186523,-0.99542236,0.27288818,-1.78125,0.453125,0.859375
1696251082661,0.1875,-0.958313,0.27703857,-0.75,0.03125,1.859375
1696251082698,0.18530273,-0.9324341,0.28753662,2.625,-0.15625,1.765625
1696251082739,0.18115234,-0.9373169,0.27166748,0.609375,0.71875,0.21875
1696251082778,0.16552734,-0.93048096,0.27801514,1.28125,1.5625,0.359375
1696251082819,0.14672852,-0.8845825,0.35931396,16.390625,10.65625,3.234375
1696251082858,0.14819336,-0.92755127,0.17694092,24.015625,10.671875,9.328125
1696251082898,0.19335938,-0.9788208,0.14276123,12.390625,5.28125,7.90625
1696251082937,0.3166504,-0.9697876,0.2489624,8.609375,-3.78125,4.90625
1696251082979,0.31298828,-0.9644165,0.13665771,14.03125,1.703125,7.390625
1696251083018,0.1784668,-0.9578247,0.06829834,4.125,-4.296875,-0.46875
1696251083058,0.25170898,-1.0449829,0.1605835,-3.15625,-11.015625,-2.28125
1696251083098,0.2902832,-1.0657349,0.113220215,-28.546875,-12.4375,-9.5625
1696251083159,0.17553711,-0.8464966,0.276062,-7.921875,0.0,-2.71875
1696251083179,0.17211914,-0.788147,0.29144287,-9.40625,-8.546875,-6.921875
1696251083220,0.14233398,-0.9170532,0.21551514,-4.796875,2.296875,-4.6875
1696251083259,0.22436523,-0.96954346,0.22332764,-8.4375,-6.171875,-0.125
1696251083302,0.2121582,-0.9690552,0.27947998,-0.203125,-0.4375,-1.28125
1696251083360,0.15942383,-0.9439087,0.27923584,-0.0625,-1.703125,0.84375
1696251083377,0.19506836,-0.9446411,0.22601318,-4.734375,-3.0,-1.203125
1696251083438,0.18334961,-0.97198486,0.2514038,1.40625,1.21875,-0.046875
1696251083442,0.14672852,-0.94366455,0.26361084,-2.921875,-1.5625,-1.84375
1696251083478,0.17553711,-0.95318604,0.2399292,-1.546875,-1.875,-0.90625
1696251083519,0.18554688,-0.9446411,0.25286865,-3.5625,-2.3125,-1.171875
1696251083558,0.16064453,-0.9319458,0.31414795,-2.390625,1.8125,-3.1875
1696251083599,0.16040039,-0.94732666,0.2694702,-2.328125,0.921875,0.765625
1696251083640,0.17211914,-0.8987427,0.27972412,-4.09375,2.359375,0.359375
1696251083679,0.15795898,-0.9043579,0.34539795,5.078125,5.875,1.265625
1696251083716,0.19604492,-0.96759033,0.2670288,11.71875,2.15625,3.328125
