# Sensor type: Respeck
# Activity type: Standing
# Activity subtype: Eating
# Subject id: s2106809
# Notes: unprocessed
timestamp,accel_x,accel_y,accel_z,gyro_x,gyro_y,gyro_z
1696251571073,0.036376953,-0.97076416,0.20550537,0.015625,3.9375,-1.328125
1696251571113,0.05053711,-0.9685669,0.21478271,-0.5,4.1875,-2.859375
1696251571153,0.061767578,-0.95025635,0.2177124,-0.484375,3.921875,-3.21875
1696251571195,0.037597656,-0.9837036,0.21624756,-1.09375,3.859375,-3.390625
1696251571236,0.02734375,-0.9746704,0.22845459,-2.21875,5.4375,-4.578125
1696251571274,-0.0034179688,-0.9793091,0.2111206,-0.9375,4.359375,-4.28125
1696251571314,-0.006591797,-0.9741821,0.22943115,-2.25,5.78125,-3.046875
1696251571375,0.03149414,-0.97540283,0.22210693,-2.25,7.453125,-3.15625
1696251571414,0.041259766,-0.97125244,0.22235107,-1.640625,7.34375,-4.015625
1696251571454,0.034179688,-0.9644165,0.21624756,-0.765625,8.015625,-4.53125
1696251571474,0.005126953,-0.9771118,0.20452881,-0.984375,8.65625,-4.59375
1696251571536,-0.0068359375,-0.9963989,0.21160889,-0.078125,10.21875,-3.984375
1696251571554,0.015380859,-0.97052,0.20452881,-1.203125,12.515625,-4.4375
1696251571597,0.028564453,-0.9595337,0.21868896,0.421875,14.6875,-4.015625
1696251571635,0.046875,-0.9602661,0.2074585,-2.046875,11.734375,-4.171875
1696251571698,0.036376953,-0.986145,0.2345581,-1.65625,9.8125,-3.1875
1696251571714,0.02709961,-0.98931885,0.23016357,-2.296875,7.5,-2.5625
1696251571755,0.013183594,-0.99102783,0.23968506,-3.078125,3.875,-1.734375
1696251571796,0.005126953,-0.96954346,0.23431396,-7.234375,3.734375,-1.59375
1696251571835,0.01953125,-0.9512329,0.21429443,3.390625,7.828125,-1.359375
1696251571877,0.028564453,-0.97540283,0.21380615,-0.265625,5.25,-0.625
1696251571937,-0.02368164,-0.9841919,0.2567749,0.5,3.546875,0.828125
1696251571953,-0.006591797,-0.973938,0.23358154,2.40625,3.0,-1.71875
1696251571974,-0.0068359375,-0.9763794,0.20770264,0.125,3.234375,-1.140625
1696251572017,0.0029296875,-0.9661255,0.21746826,1.828125,3.5,0.40625
1696251572056,0.022216797,-0.9710083,0.22235107,1.5625,0.34375,1.40625
1696251572096,0.024414062,-0.9829712,0.22845459,0.5,-0.109375,-0.015625
1696251572134,-0.009521484,-0.96710205,0.23822021,-0.015625,-0.34375,-0.8125
1696251572174,-0.0073242188,-0.96710205,0.22576904,-0.265625,-2.0625,0.828125
1696251572220,0.001953125,-0.97442627,0.22796631,1.140625,-2.21875,0.609375
1696251572255,-0.0017089844,-0.98028564,0.22235107,0.375,-1.796875,1.40625
1696251572295,-0.00390625,-0.97735596,0.21673584,1.40625,-3.65625,1.5625
1696251572336,-0.0024414062,-0.96343994,0.23065186,1.453125,-3.59375,0.796875
1696251572376,-0.01928711,-0.99224854,0.20965576,1.203125,-1.34375,1.328125
1696251572415,-0.004638672,-0.9783325,0.21185303,0.078125,-1.109375,1.3125
1696251572456,0.0031738281,-0.94317627,0.21600342,1.671875,-1.328125,0.96875
1696251572494,0.008544922,-0.9644165,0.20965576,2.453125,-0.84375,1.375
1696251572534,0.007080078,-0.9981079,0.21429443,1.796875,-0.828125,1.046875
1696251572576,0.00390625,-0.97662354,0.20697021,2.109375,-1.703125,0.921875
1696251572616,0.013916016,-0.96832275,0.18988037,2.875,-1.234375,0.8125
1696251572655,0.03564453,-0.9678345,0.20037842,2.390625,-1.34375,0.796875
1696251572694,0.016113281,-0.986145,0.19818115,1.3125,-2.453125,1.078125
1696251572734,-0.007080078,-0.98565674,0.18939209,1.53125,-2.546875,1.171875
1696251572775,0.0146484375,-0.9678345,0.18206787,3.21875,-2.40625,0.921875
1696251572816,0.014892578,-0.97491455,0.1774292,2.09375,-3.203125,1.046875
1696251572856,0.010009766,-0.98760986,0.20452881,0.09375,-1.09375,0.609375
1696251572897,-0.0014648438,-0.98883057,0.19915771,0.8125,-0.296875,0.203125
1696251572934,0.010253906,-0.96954346,0.18035889,0.859375,-0.25,-0.6875
1696251572976,0.020751953,-0.97198486,0.18963623,0.328125,0.9375,-0.046875
1696251573015,0.01171875,-0.99005127,0.18695068,1.140625,-0.5625,0.515625
1696251573055,0.01586914,-0.986145,0.17279053,0.234375,-1.53125,0.515625
1696251573095,0.014404297,-0.97857666,0.18377686,-0.40625,-1.0,0.359375
1696251573135,0.030273438,-0.9612427,0.18304443,0.796875,-1.546875,-0.109375
1696251573175,0.011962891,-0.972229,0.18328857,-0.640625,-1.234375,0.09375
1696251573218,0.007080078,-0.99053955,0.18157959,-0.078125,-1.359375,0.0625
1696251573256,0.008544922,-0.98321533,0.18426514,-1.75,-0.765625,0.265625
1696251573295,0.011962891,-0.96588135,0.18670654,-0.09375,0.046875,-0.21875
1696251573314,0.01586914,-0.97906494,0.19256592,1.65625,0.140625,0.296875
1696251573377,0.00390625,-0.98687744,0.18328857,-0.296875,-0.953125,0.46875
1696251573395,0.0075683594,-0.9812622,0.17279053,1.0625,-0.453125,-0.03125
1696251573437,0.021728516,-0.9636841,0.18060303,0.78125,0.484375,-0.4375
1696251573474,0.012207031,-0.9788208,0.18963623,-0.140625,0.078125,-0.09375
1696251573536,0.010498047,-0.9812622,0.18084717,-0.78125,-1.15625,-0.21875
1696251573554,0.010498047,-0.97857666,0.17376709,-1.078125,-0.890625,-0.71875
1696251573616,0.0024414062,-0.9776001,0.1876831,-0.703125,-0.046875,-0.125
1696251573635,0.01928711,-0.9788208,0.19036865,0.28125,0.34375,0.46875
1696251573676,0.015136719,-0.98394775,0.18988037,0.015625,-1.109375,-0.015625
1696251573717,-2.4414062E-4,-0.98321533,0.1786499,-0.0625,-1.21875,-0.375
1696251573775,0.0012207031,-0.9758911,0.17279053,0.640625,-0.1875,0.09375
1696251573794,0.009033203,-0.9819946,0.18841553,1.25,0.5,0.203125
1696251573857,0.0107421875,-0.98638916,0.1774292,0.6875,0.0,-0.34375
1696251573897,0.0087890625,-0.9751587,0.17059326,0.328125,0.03125,-0.453125
1696251573913,0.0043945312,-0.9776001,0.1774292,0.5,0.765625,0.046875
1696251573955,0.00390625,-0.97613525,0.17938232,0.265625,0.1875,0.421875
1696251574017,0.013427734,-0.97735596,0.184021,0.5625,0.953125,-0.484375
1696251574035,0.013916016,-0.9758911,0.1671753,-0.484375,0.34375,-0.3125
1696251574076,0.008544922,-0.9902954,0.17474365,0.03125,-0.53125,0.015625
1696251574136,0.0073242188,-0.96881104,0.18499756,-0.703125,-0.46875,-0.171875
1696251574155,-0.007080078,-0.97052,0.17547607,-1.625,-0.53125,-0.140625
1696251574217,-0.0034179688,-0.98394775,0.18597412,-1.328125,0.53125,-0.046875
1696251574235,0.007080078,-0.98150635,0.19281006,-0.84375,0.84375,-0.0625
1696251574274,0.009277344,-0.973938,0.18743896,-0.921875,-0.484375,-0.078125
1696251574317,-0.004638672,-0.97491455,0.18328857,-2.328125,-0.734375,0.484375
1696251574355,-0.007080078,-0.98516846,0.20355225,-1.953125,0.15625,0.546875
1696251574396,0.0063476562,-0.9729614,0.18817139,-1.953125,1.03125,0.375
1696251574434,0.009521484,-0.9734497,0.18304443,-0.171875,-1.0,1.265625
1696251574480,0.0014648438,-0.97613525,0.20550537,-1.46875,-1.0,1.921875
1696251574516,0.00390625,-0.98223877,0.20574951,-0.140625,-0.21875,0.5625
1696251574555,0.0014648438,-0.97784424,0.19500732,-3.140625,-0.8125,0.875
1696251574595,0.020019531,-0.96539307,0.19696045,-2.78125,0.484375,0.28125
1696251574615,0.0026855469,-0.98321533,0.20159912,0.0,-0.6875,0.640625
1696251574656,0.0078125,-0.9859009,0.20257568,-1.875,-1.640625,0.65625
1696251574695,0.009765625,-0.96832275,0.21014404,-2.5,-0.9375,0.140625
1696251574735,9.765625E-4,-0.9639282,0.20648193,-0.609375,-0.265625,0.53125
1696251574774,0.018554688,-0.9849243,0.20843506,0.328125,-1.453125,0.75
1696251574815,0.012451172,-0.9741821,0.21380615,-1.0,-2.234375,0.46875
1696251574856,0.0061035156,-0.97003174,0.2074585,0.5,-0.921875,0.015625
1696251574896,0.0041503906,-0.9734497,0.20526123,1.5625,-0.6875,0.859375
1696251574937,0.015136719,-0.9841919,0.20965576,1.4375,0.046875,0.46875
1696251574975,0.0073242188,-0.9746704,0.20697021,-1.046875,-0.671875,0.71875
1696251575016,0.010986328,-0.9668579,0.21014404,1.78125,-0.015625,0.46875
1696251575056,0.018798828,-0.9819946,0.20184326,2.375,-0.265625,0.53125
1696251575095,0.0234375,-0.97442627,0.20281982,1.484375,-0.390625,0.703125
1696251575137,0.020751953,-0.9697876,0.19891357,1.28125,-0.6875,0.390625
1696251575175,0.018310547,-0.9727173,0.19891357,2.46875,-1.1875,0.6875
1696251575215,0.007080078,-0.99053955,0.19915771,1.96875,-1.09375,1.203125
1696251575255,0.016601562,-0.9685669,0.19110107,1.84375,-1.03125,0.5625
1696251575295,0.018554688,-0.9829712,0.1876831,1.34375,-0.796875,1.03125
1696251575336,0.020507812,-0.9751587,0.18865967,0.703125,-1.203125,1.078125
1696251575375,0.021728516,-0.9758911,0.18572998,1.421875,-0.640625,0.34375
1696251575416,0.020263672,-0.9692993,0.17181396,1.234375,-1.40625,0.0625
1696251575454,0.029296875,-0.9741821,0.1786499,1.78125,-1.078125,0.109375
1696251575495,0.016357422,-0.98443604,0.18426514,0.65625,-0.328125,-0.296875
1696251575534,0.018798828,-0.9951782,0.17938232,1.15625,-0.78125,-0.40625
1696251575575,0.017822266,-0.9663696,0.17523193,0.703125,-0.328125,-0.5
1696251575619,0.009277344,-0.97613525,0.17327881,0.40625,-0.6875,-0.34375
1696251575654,0.013183594,-0.986145,0.17254639,-0.15625,-0.28125,0.046875
1696251575695,0.024658203,-0.98101807,0.18255615,-0.546875,-0.609375,-0.046875
1696251575736,0.016357422,-0.97784424,0.17352295,0.0625,-0.53125,-0.59375
1696251575776,0.017578125,-0.975647,0.17547607,0.0625,-0.671875,-0.0625
1696251575815,0.010498047,-0.97613525,0.1749878,-0.3125,-1.015625,0.046875
1696251575855,0.017089844,-0.9883423,0.17767334,-0.40625,-0.78125,-0.34375
1696251575896,0.02368164,-0.9717407,0.17840576,-0.640625,0.09375,-1.40625
1696251575915,-0.009521484,-0.98321533,0.17474365,-2.21875,-0.546875,-0.359375
1696251575956,0.013916016,-0.98028564,0.184021,-0.390625,0.765625,-0.40625
1696251575996,0.011962891,-0.986145,0.17889404,-0.890625,0.90625,-0.515625
1696251576037,0.01977539,-0.9795532,0.1774292,-1.03125,0.265625,-0.875
1696251576077,0.010009766,-0.98223877,0.19525146,-0.265625,0.90625,0.15625
1696251576135,0.0031738281,-0.98028564,0.18743896,-1.234375,-0.515625,0.328125
1696251576154,0.011962891,-0.97540283,0.18719482,-0.390625,-0.34375,-0.109375
1696251576214,0.005126953,-0.97540283,0.18475342,-1.3125,-0.84375,0.15625
1696251576236,-0.0024414062,-0.98565674,0.18719482,-0.90625,-0.21875,0.421875
1696251576295,0.009033203,-0.9824829,0.18743896,-0.796875,0.71875,0.03125
1696251576335,0.0075683594,-0.97442627,0.18890381,-0.09375,-0.359375,-0.0625
1696251576353,0.0075683594,-0.9758911,0.18792725,0.03125,-0.90625,-0.21875
1696251576393,0.012451172,-0.9817505,0.1852417,-0.828125,-0.234375,0.53125
1696251576455,0.014892578,-0.9727173,0.19525146,0.40625,-0.53125,-0.078125
1696251576498,0.008300781,-0.9751587,0.18743896,-0.203125,-0.453125,0.078125
1696251576513,0.0012207031,-0.97906494,0.19354248,0.15625,-0.34375,0.328125
1696251576554,-0.0031738281,-0.98321533,0.1918335,-0.390625,-0.125,-0.125
1696251576595,0.010009766,-0.98321533,0.1930542,-0.453125,-0.015625,-0.40625
1696251576657,0.005126953,-0.9780884,0.18304443,-0.421875,-0.921875,-0.109375
1696251576695,0.01586914,-0.9776001,0.20379639,-0.421875,-0.03125,-0.390625
1696251576713,0.018066406,-0.98272705,0.18817139,-0.125,0.15625,-0.40625
1696251576757,0.008544922,-0.97198486,0.18939209,0.046875,-1.015625,-0.296875
1696251576815,0.0061035156,-0.9834595,0.19403076,-0.671875,-1.0625,0.078125
1696251576836,0.0026855469,-0.9758911,0.19085693,-2.203125,-0.1875,-0.4375
1696251576875,0.009521484,-0.9639282,0.20184326,-1.40625,0.375,0.0625
1696251576936,0.001953125,-0.97857666,0.20550537,-1.453125,0.46875,0.453125
1696251576975,0.011962891,-0.98687744,0.21478271,-0.546875,0.328125,0.265625
1696251576995,-0.007080078,-0.987854,0.19158936,-1.25,-0.109375,0.359375
1696251577034,0.0126953125,-0.9714966,0.19720459,0.453125,0.125,0.953125
1696251577075,0.008300781,-0.9692993,0.20819092,0.375,-1.15625,1.609375
1696251577115,0.0063476562,-0.98516846,0.20233154,0.25,-0.59375,1.40625
1696251577155,-2.4414062E-4,-0.9795532,0.19891357,1.25,-0.125,0.625
1696251577196,2.4414062E-4,-0.9702759,0.184021,2.703125,1.0625,0.953125
1696251577257,0.024414062,-0.9871216,0.1930542,6.0,1.9375,0.25
1696251577261,0.012451172,-0.975647,0.18963623,3.796875,-0.578125,0.46875
1696251577297,-0.0041503906,-0.9758911,0.17962646,1.328125,0.3125,0.71875
1696251577338,0.0048828125,-0.9717407,0.18597412,0.328125,0.5625,0.109375
1696251577375,0.017089844,-0.99298096,0.17230225,-0.078125,-0.234375,0.078125
1696251577415,0.022949219,-0.9768677,0.18035889,0.578125,-0.1875,0.203125
1696251577456,0.011474609,-0.975647,0.17840576,0.71875,-0.140625,0.65625
1696251577494,0.018310547,-0.9800415,0.17767334,0.21875,-0.765625,-0.28125
1696251577536,0.0126953125,-0.9846802,0.18060303,-0.015625,-0.828125,0.53125
1696251577575,0.0126953125,-0.9898071,0.17816162,-0.21875,-0.984375,0.96875
1696251577615,0.012939453,-0.9741821,0.17913818,-1.140625,-1.09375,0.625
1696251577655,0.016357422,-0.98931885,0.184021,-2.234375,-0.625,1.078125
1696251577695,-0.00390625,-0.98883057,0.18231201,-2.65625,-0.90625,0.8125
1696251577735,0.024658203,-0.975647,0.18597412,-1.453125,-0.015625,0.609375
1696251577784,0.04296875,-0.96295166,0.18621826,-1.890625,0.609375,0.21875
1696251577814,0.034423828,-0.97540283,0.19525146,-0.46875,-0.421875,-0.34375
1696251577857,0.017822266,-0.98223877,0.19500732,-0.640625,-2.53125,0.015625
1696251577895,0.0031738281,-0.9871216,0.18743896,-1.03125,-2.15625,0.515625
1696251577935,0.017822266,-0.9651489,0.18719482,-1.203125,-1.46875,0.375
1696251577977,0.013427734,-0.9824829,0.18499756,0.625,-0.859375,0.96875
1696251578014,0.033447266,-0.9800415,0.2008667,0.28125,-1.046875,-0.015625
1696251578058,0.0126953125,-0.97906494,0.19671631,0.5625,-1.21875,-0.171875
1696251578095,0.006591797,-0.97247314,0.19940186,1.421875,-0.734375,-0.203125
1696251578136,0.009765625,-0.9734497,0.1954956,0.6875,-0.421875,0.0
1696251578176,0.024658203,-0.98760986,0.18890381,0.9375,-0.53125,-0.1875
1696251578213,0.029296875,-0.98272705,0.1864624,0.78125,-1.8125,-0.34375
1696251578256,0.007080078,-0.9758911,0.19110107,1.171875,-1.71875,0.359375
1696251578296,0.0026855469,-0.972229,0.1828003,0.75,-1.59375,0.421875
1696251578335,-0.008544922,-0.9805298,0.1786499,0.21875,-0.796875,0.546875
1696251578378,0.015380859,-0.9812622,0.1906128,1.484375,0.921875,0.171875
1696251578415,0.020263672,-0.97247314,0.1786499,0.15625,0.015625,-0.140625
1696251578459,0.018066406,-0.9795532,0.1942749,0.71875,0.765625,-0.21875
1696251578497,-0.0048828125,-0.98809814,0.1786499,-1.34375,-0.203125,0.40625
1696251578536,0.01953125,-0.98223877,0.18890381,0.53125,1.25,-0.5
1696251578574,0.025390625,-0.9741821,0.17913818,-0.796875,-0.203125,-0.46875
1696251578616,0.011230469,-0.9776001,0.17694092,-0.828125,-0.296875,-0.203125
1696251578635,0.009033203,-0.9783325,0.19281006,-1.671875,-0.015625,-0.40625
1696251578696,0.0043945312,-0.9871216,0.18963623,-0.703125,-0.125,-0.296875
1696251578714,0.032226562,-0.97125244,0.18157959,-0.796875,-0.71875,-0.28125
1696251578756,0.016601562,-0.97125244,0.1954956,0.625,-0.046875,-0.8125
1696251578795,0.0017089844,-0.98443604,0.18792725,0.171875,-0.984375,0.1875
1696251578835,0.0,-0.9907837,0.1828003,0.515625,-0.75,0.359375
1696251578876,0.008300781,-0.98101807,0.18206787,-1.140625,-0.953125,-0.203125
1696251578914,0.013183594,-0.96881104,0.19158936,0.265625,0.015625,-0.0625
1696251578955,0.023925781,-0.9746704,0.19378662,0.03125,0.3125,-0.234375
1696251578998,0.0026855469,-0.9871216,0.18988037,-1.203125,-1.640625,0.015625
1696251579037,-0.0017089844,-0.9771118,0.19793701,-0.140625,-1.0625,-0.03125
1696251579076,0.008300781,-0.9780884,0.18963623,-0.390625,0.703125,-0.171875
1696251579135,0.0026855469,-0.98687744,0.19110107,0.203125,-0.28125,-0.015625
1696251579155,0.0031738281,-0.97735596,0.1930542,-0.703125,-0.6875,0.0625
1696251579194,0.001953125,-0.9817505,0.19232178,-0.484375,0.109375,0.015625
1696251579236,0.0078125,-0.96759033,0.18939209,-1.578125,0.125,-0.4375
1696251579276,0.0041503906,-0.9837036,0.19281006,-2.515625,-0.890625,-0.296875
1696251579336,0.009521484,-0.986145,0.21453857,-1.53125,0.71875,0.03125
1696251579357,0.004638672,-0.9697876,0.1918335,-2.03125,-0.84375,0.25
1696251579395,-0.0021972656,-0.9751587,0.1984253,-3.234375,-1.109375,0.609375
1696251579454,0.0026855469,-0.9768677,0.22039795,-7.828125,-1.703125,1.3125
1696251579474,0.0043945312,-0.956604,0.2255249,-2.546875,0.859375,1.65625
1696251579516,0.018310547,-1.0056763,0.2267456,0.859375,-0.296875,0.140625
1696251579556,0.0078125,-0.9768677,0.21234131,-0.359375,1.625,0.515625
1696251579596,-0.0026855469,-0.9573364,0.21209717,1.90625,0.015625,1.109375
1696251579635,0.016601562,-0.96343994,0.2267456,1.09375,-0.4375,0.828125
1696251579677,0.0075683594,-0.9829712,0.2218628,-0.34375,-0.25,0.75
1696251579737,0.005859375,-0.99591064,0.21282959,-0.453125,0.4375,0.5625
1696251579776,4.8828125E-4,-0.96343994,0.21356201,0.890625,0.046875,0.046875
1696251579818,0.020751953,-0.9627075,0.20452881,0.046875,-0.734375,0.5625
1696251579855,0.026367188,-0.9800415,0.22625732,-0.734375,-0.359375,0.515625
1696251579895,0.0048828125,-0.9898071,0.21234131,-0.59375,-0.875,0.609375
1696251579898,0.008056641,-0.975647,0.21380615,0.21875,-0.6875,-0.015625
1696251579935,0.021972656,-0.9607544,0.20892334,1.5625,-0.5,0.390625
1696251579976,0.01586914,-0.973938,0.21575928,0.03125,-0.953125,0.765625
1696251580015,0.020751953,-0.9751587,0.21722412,-0.375,-0.484375,0.53125
1696251580054,-0.0017089844,-0.9854126,0.20526123,0.53125,-1.546875,0.359375
1696251580094,0.020507812,-0.98101807,0.20941162,1.078125,-0.078125,0.265625
1696251580137,0.013671875,-0.97003174,0.2098999,0.921875,-0.890625,0.5625
1696251580174,0.022460938,-0.9751587,0.20599365,1.390625,-0.5625,0.21875
1696251580217,0.017822266,-0.972229,0.20721436,0.125,-0.578125,0.21875
1696251580258,0.019042969,-0.97491455,0.21087646,0.78125,-1.21875,0.125
1696251580296,0.009521484,-0.9714966,0.20111084,0.0625,-0.40625,0.34375
1696251580336,0.029541016,-0.9758911,0.19989014,1.765625,-1.40625,0.546875
1696251580376,0.029541016,-0.97491455,0.21160889,0.8125,-1.21875,0.328125
1696251580417,0.011962891,-0.9829712,0.20404053,0.953125,-0.90625,-0.34375
1696251580455,-0.0026855469,-0.973938,0.2020874,0.5,-1.234375,-0.171875
1696251580497,0.015136719,-0.96881104,0.20452881,-0.03125,-0.125,0.046875
1696251580536,0.024658203,-0.972229,0.19622803,0.4375,-0.21875,-0.03125
1696251580577,0.018066406,-0.975647,0.20355225,-0.046875,-1.640625,-0.0625
1696251580616,4.8828125E-4,-0.97906494,0.19598389,-0.1875,-0.75,-0.015625
1696251580656,0.010986328,-0.9714966,0.20281982,0.34375,-0.28125,0.109375
1696251580697,0.017822266,-0.97125244,0.19403076,0.796875,-0.125,-0.640625
1696251580736,0.0078125,-0.9734497,0.19671631,0.90625,-0.625,0.0625
1696251580775,0.0056152344,-0.9846802,0.19500732,0.0625,-0.890625,0.046875
1696251580815,0.004638672,-0.9793091,0.2062378,-0.296875,-0.71875,-0.21875
1696251580856,0.0036621094,-0.9692993,0.20428467,-0.8125,-0.03125,0.0
1696251580895,0.006591797,-0.98321533,0.20013428,0.046875,-0.5,-0.390625
1696251580936,0.008300781,-0.97540283,0.20111084,-0.859375,-0.125,-0.234375
1696251580976,0.0021972656,-0.97857666,0.20111084,0.3125,0.109375,-0.328125
1696251581016,0.020996094,-0.9758911,0.20526123,-0.5,-0.1875,-0.34375
1696251581055,0.008300781,-0.9812622,0.19354248,-0.859375,-0.40625,-0.40625
1696251581095,-0.0012207031,-0.97613525,0.19671631,0.484375,-0.484375,0.0625
1696251581135,-0.0021972656,-0.9871216,0.20281982,-0.640625,-0.984375,0.15625
1696251581176,0.006591797,-0.97320557,0.19696045,0.09375,0.421875,-0.265625
1696251581215,0.0048828125,-0.9771118,0.20281982,-0.546875,-0.171875,0.046875
1696251581237,0.008056641,-0.9819946,0.20599365,0.96875,-0.390625,0.375
1696251581275,-4.8828125E-4,-0.9824829,0.19720459,-0.578125,-1.453125,1.1875
1696251581315,0.012451172,-0.96710205,0.19915771,0.109375,-0.125,-0.296875
1696251581355,0.010498047,-0.96661377,0.2008667,0.125,0.421875,-0.09375
1696251581395,0.011474609,-0.9807739,0.1930542,-0.171875,-0.875,0.84375
1696251581438,0.012939453,-0.97979736,0.20404053,-1.21875,-0.28125,0.59375
1696251581476,-0.006591797,-0.9771118,0.19769287,-0.765625,-0.46875,-0.09375
1696251581516,0.004638672,-0.96661377,0.20526123,-0.078125,0.328125,0.328125
1696251581555,0.010498047,-0.9776001,0.2062378,-0.203125,-0.875,0.65625
1696251581596,0.009765625,-0.98223877,0.20501709,0.0,-1.09375,0.640625
1696251581636,0.0087890625,-0.9717407,0.21453857,0.09375,-0.15625,0.234375
1696251581676,0.0026855469,-0.97613525,0.20697021,1.234375,-0.578125,0.28125
1696251581716,0.0053710938,-0.9668579,0.19793701,-0.5625,-0.71875,0.390625
1696251581753,0.011962891,-0.9717407,0.20599365,0.875,0.0625,0.3125
1696251581795,0.010498047,-0.9783325,0.20428467,0.0625,-1.4375,0.6875
1696251581836,0.018066406,-0.9714966,0.20037842,-0.4375,-0.796875,0.09375
1696251581898,-0.0078125,-0.9678345,0.19696045,-0.109375,0.359375,-0.453125
1696251581915,0.005859375,-0.98883057,0.20111084,0.84375,0.484375,0.046875
1696251581955,0.019042969,-0.9727173,0.21234131,0.609375,-0.296875,-0.171875
1696251582016,0.0012207031,-0.9663696,0.19525146,0.5625,-0.75,-0.25
1696251582058,0.006591797,-0.9746704,0.19598389,1.609375,0.109375,-0.3125
1696251582074,-9.765625E-4,-0.98760986,0.19500732,0.453125,-0.78125,0.296875
1696251582116,0.009033203,-0.9859009,0.19476318,-0.546875,-1.140625,0.046875
1696251582154,0.013916016,-0.9714966,0.2062378,0.15625,0.296875,-0.28125
1696251582194,0.0126953125,-0.98516846,0.19378662,-0.171875,-0.59375,-0.015625
1696251582257,-0.0026855469,-0.96539307,0.19989014,-1.125,-0.96875,0.375
1696251582277,-0.0036621094,-0.97979736,0.20037842,-0.5625,-0.015625,-0.25
1696251582338,0.016113281,-0.9758911,0.19500732,0.0625,1.0625,-0.640625
1696251582354,0.008056641,-0.9849243,0.19696045,-0.21875,-0.046875,-0.140625
1696251582416,0.0031738281,-0.9729614,0.20135498,0.109375,-0.140625,-0.53125
1696251582434,-0.0012207031,-0.9751587,0.19647217,0.390625,-0.234375,-0.296875
1696251582499,-0.001953125,-0.973938,0.2020874,0.0625,-0.1875,0.46875
1696251582503,-7.324219E-4,-0.9854126,0.19793701,0.125,0.21875,-0.1875
1696251582537,2.4414062E-4,-0.9837036,0.20257568,-1.390625,-0.078125,0.109375
1696251582576,0.0053710938,-0.96099854,0.20159912,-0.65625,0.90625,0.796875
1696251582615,0.0146484375,-0.9807739,0.21038818,-1.09375,0.25,0.53125
1696251582656,0.0048828125,-0.9968872,0.19866943,-0.28125,-0.703125,0.703125
1696251582697,0.0017089844,-0.96759033,0.2020874,0.609375,0.125,1.03125
1696251582735,0.0043945312,-0.9644165,0.1984253,-0.296875,-0.203125,0.359375
1696251582775,0.01171875,-0.9793091,0.21185303,-0.59375,-0.015625,1.015625
1696251582815,0.006591797,-1.0042114,0.20159912,-1.25,-0.78125,1.421875
1696251582857,0.011230469,-0.972229,0.199646,-0.125,-0.75,0.078125
1696251582896,0.009033203,-0.9546509,0.20697021,-0.453125,-1.109375,0.75
1696251582937,0.0034179688,-0.9758911,0.2062378,0.34375,-0.234375,1.421875
1696251582975,0.017822266,-0.98883057,0.20770264,-0.484375,-0.6875,0.234375
1696251583015,0.0073242188,-0.96832275,0.19671631,1.0625,-0.8125,0.484375
1696251583055,0.013916016,-0.9627075,0.19720459,1.0,-1.390625,1.03125
1696251583094,0.016113281,-0.9717407,0.20477295,0.34375,-0.9375,0.84375
1696251583134,0.010498047,-0.98321533,0.20379639,0.71875,-1.109375,0.734375
1696251583176,0.012451172,-0.98150635,0.2008667,0.328125,-0.984375,0.078125
1696251583215,0.017333984,-0.9817505,0.1954956,-0.015625,-0.515625,0.578125
1696251583257,0.01586914,-0.98516846,0.19891357,1.359375,-0.78125,0.484375
1696251583295,0.0146484375,-0.9817505,0.19622803,0.9375,-0.984375,0.21875
1696251583335,0.020019531,-0.9788208,0.19598389,0.359375,-0.421875,0.203125
1696251583374,0.014404297,-0.9741821,0.1828003,0.15625,-1.390625,0.421875
1696251583417,0.021240234,-0.97442627,0.19207764,0.96875,-0.921875,0.234375
1696251583455,0.020019531,-0.97125244,0.18743896,0.734375,-1.734375,0.21875
1696251583495,0.011474609,-0.97857666,0.18328857,-0.390625,-1.1875,0.21875
1696251583535,0.017333984,-0.9819946,0.1906128,0.28125,-1.078125,-0.1875
1696251583576,0.012207031,-0.97979736,0.20501709,-0.5,-1.046875,0.078125
1696251583615,0.011474609,-0.9729614,0.1906128,0.078125,-0.71875,-0.3125
1696251583656,0.010253906,-0.972229,0.18841553,-0.046875,-0.90625,-0.03125
1696251583697,0.013671875,-0.9819946,0.19012451,-0.1875,-0.609375,-0.125
1696251583736,0.015625,-0.9873657,0.19354248,-0.015625,-0.734375,0.015625
1696251583798,0.016845703,-0.97735596,0.199646,0.59375,-0.625,-0.46875
1696251583814,0.0075683594,-0.973938,0.19036865,-0.546875,-1.40625,-0.375
1696251583835,-0.0073242188,-0.9780884,0.19354248,-0.046875,-0.3125,-0.03125
1696251583878,0.01171875,-0.9834595,0.19622803,-0.03125,0.15625,0.109375
1696251583917,0.016113281,-0.97052,0.19036865,-0.375,-0.328125,-0.515625
1696251583955,0.013183594,-0.9729614,0.1918335,-0.53125,-0.25,-0.296875
1696251584017,0.0075683594,-0.98272705,0.1876831,-1.21875,-0.984375,-0.375
1696251584038,0.0034179688,-0.96661377,0.20404053,0.015625,0.203125,-0.21875
1696251584076,-0.004638672,-0.9692993,0.20257568,-0.6875,-0.796875,0.28125
1696251584116,0.009033203,-0.9788208,0.19915771,-0.109375,-0.4375,0.0
1696251584157,0.024169922,-0.97784424,0.19622803,0.359375,0.03125,-0.09375
1696251584216,0.0041503906,-0.9788208,0.18963623,-0.1875,-0.859375,-0.109375
1696251584235,9.765625E-4,-0.96832275,0.18817139,0.1875,-1.03125,0.203125
1696251584277,0.0043945312,-0.97857666,0.20257568,-0.25,-0.234375,0.359375
1696251584317,0.0021972656,-0.9859009,0.20697021,-0.796875,0.3125,0.21875
1696251584357,0.0053710938,-0.972229,0.1930542,-0.828125,-0.671875,-0.15625
1696251584396,0.010009766,-0.97052,0.19696045,-0.890625,-0.234375,-0.15625
1696251584437,0.0041503906,-0.9829712,0.2074585,-0.796875,0.40625,0.234375
1696251584476,0.01171875,-0.9758911,0.20355225,-0.640625,-0.203125,-0.46875
1696251584518,-9.765625E-4,-0.97052,0.19647217,-1.40625,-0.890625,-0.234375
1696251584558,-0.0078125,-0.97613525,0.2086792,-0.171875,0.34375,0.171875
1696251584621,0.0107421875,-0.9890747,0.2086792,-1.03125,0.78125,0.203125
1696251584635,0.014404297,-0.97076416,0.20574951,-0.515625,-0.234375,-0.515625
1696251584678,2.4414062E-4,-0.9727173,0.20941162,-1.109375,-0.234375,0.09375
1696251584715,-0.007080078,-0.9824829,0.20477295,-1.984375,0.40625,0.1875
1696251584757,-0.00390625,-0.98321533,0.21453857,0.546875,1.625,0.84375
1696251584794,0.008300781,-0.97125244,0.20184326,-0.390625,-0.6875,0.921875
1696251584836,0.011230469,-0.9656372,0.20648193,0.8125,0.734375,0.578125
1696251584878,0.013427734,-0.97491455,0.2074585,0.203125,0.40625,0.84375
1696251584939,0.0063476562,-0.9871216,0.20941162,-0.328125,-0.546875,0.5625
1696251584954,0.0063476562,-0.97198486,0.21087646,-1.96875,0.03125,0.640625
1696251585018,0.014404297,-0.96295166,0.20233154,0.171875,0.421875,0.96875
1696251585034,0.00390625,-0.9824829,0.21063232,-0.34375,-2.15625,1.140625
1696251585076,0.014404297,-0.9807739,0.21307373,0.375,-1.578125,0.515625
1696251585116,0.006591797,-0.9727173,0.20794678,-0.5,-1.1875,0.453125
1696251585137,0.006591797,-0.9661255,0.20819092,-0.765625,-1.484375,0.40625
1696251585177,0.010986328,-0.96954346,0.21258545,-0.640625,-0.796875,0.453125
1696251585217,0.013427734,-0.9819946,0.21795654,-0.203125,-0.609375,0.5625
1696251585257,0.014160156,-0.9768677,0.21038818,-0.046875,-0.859375,-0.234375
1696251585295,0.011474609,-0.96661377,0.20550537,0.625,-0.21875,-0.234375
1696251585335,0.009521484,-0.97662354,0.20672607,1.3125,0.09375,0.125
1696251585377,0.015136719,-0.9788208,0.20965576,-0.171875,0.359375,-0.40625
1696251585418,0.0126953125,-0.9758911,0.2098999,0.65625,-0.390625,-0.6875
1696251585457,-2.4414062E-4,-0.9788208,0.2074585,-0.03125,-0.28125,-0.140625
1696251585496,0.015625,-0.96588135,0.20648193,0.671875,-0.09375,0.109375
1696251585535,0.0048828125,-0.9751587,0.20281982,1.359375,-0.921875,0.40625
1696251585578,0.005126953,-0.9837036,0.19476318,1.375,-1.15625,0.21875
1696251585615,0.0061035156,-0.98150635,0.20843506,0.515625,-0.296875,-0.1875
1696251585657,0.007080078,-0.9668579,0.20526123,1.015625,-1.203125,-0.0625
1696251585694,0.020019531,-0.975647,0.2020874,0.359375,-1.484375,-0.03125
1696251585736,0.0053710938,-0.9795532,0.20062256,0.21875,-2.5625,0.34375
1696251585777,0.00390625,-0.9834595,0.20770264,-0.265625,-1.1875,-0.359375
1696251585817,0.0017089844,-0.9758911,0.20184326,0.734375,-1.1875,-0.40625
1696251585856,-0.0146484375,-0.9812622,0.19769287,0.5,-1.28125,0.109375
1696251585897,-0.010986328,-0.9776001,0.19622803,-1.4375,-0.34375,0.59375
1696251585936,0.01953125,-0.973938,0.20794678,-0.765625,0.125,-0.359375
1696251585977,0.017089844,-0.9751587,0.20526123,-0.28125,-0.671875,-0.46875
1696251586017,-0.0026855469,-0.9758911,0.20599365,-0.890625,-1.203125,0.140625
1696251586057,-0.0031738281,-0.9817505,0.20184326,-0.140625,-0.734375,-0.296875
1696251586097,0.004638672,-0.9763794,0.20452881,0.0,0.0,-0.234375
1696251586136,0.01171875,-0.9717407,0.20037842,-1.0625,-0.734375,-0.71875
1696251586176,-0.0041503906,-0.9678345,0.21014404,-0.390625,0.171875,-0.140625
1696251586215,-0.010009766,-0.98883057,0.20306396,-0.75,-0.15625,0.25
1696251586255,0.0078125,-0.973938,0.21478271,-0.28125,0.859375,-0.484375
1696251586295,0.007080078,-0.97613525,0.20013428,-1.234375,0.375,0.296875
1696251586334,0.0043945312,-0.9807739,0.2177124,-0.125,-0.296875,0.53125
1696251586377,0.0024414062,-0.98687744,0.21356201,-0.5,-0.984375,0.625
1696251586416,-0.010498047,-0.97198486,0.20550537,-1.46875,-0.640625,0.1875
1696251586437,0.0014648438,-0.96539307,0.21868896,0.453125,0.25,0.203125
1696251586476,0.0026855469,-0.97320557,0.21063232,-1.03125,0.28125,0.484375
1696251586516,-0.0075683594,-0.97369385,0.20404053,-1.171875,0.0625,0.46875
1696251586555,-2.4414062E-4,-0.9741821,0.21600342,0.375,-0.21875,0.15625
1696251586597,0.0048828125,-0.96832275,0.21356201,-0.4375,0.578125,0.171875
1696251586635,4.8828125E-4,-0.98028564,0.21307373,-0.15625,-0.453125,0.421875
1696251586699,-0.0012207031,-0.975647,0.22161865,-0.203125,-0.109375,0.28125
1696251586713,0.0031738281,-0.97247314,0.21234131,0.328125,-0.59375,0.375
1696251586777,0.010498047,-0.97125244,0.2111206,0.53125,-1.46875,0.15625
1696251586796,0.0031738281,-0.97662354,0.20892334,0.296875,-0.5625,0.625
1696251586837,0.0056152344,-0.973938,0.22283936,-0.859375,-1.125,-0.015625
1696251586878,-9.765625E-4,-0.9829712,0.21624756,1.296875,0.125,-0.421875
1696251586918,-9.765625E-4,-0.96881104,0.21087646,0.015625,-0.703125,0.375
1696251586957,-0.0048828125,-0.9680786,0.20916748,0.0,-0.375,-0.078125
1696251586999,7.324219E-4,-0.98638916,0.21258545,-0.046875,0.21875,0.328125
1696251587038,0.0068359375,-0.9837036,0.21160889,0.125,-1.578125,0.25
1696251587076,0.013183594,-0.9673462,0.21453857,0.265625,-0.78125,-0.5625
1696251587115,-0.014404297,-0.9776001,0.20965576,0.15625,-0.96875,0.109375
1696251587157,-0.0021972656,-0.9834595,0.2098999,0.046875,-0.828125,0.171875
1696251587196,0.0031738281,-0.9795532,0.20648193,-0.046875,-0.84375,-0.484375
1696251587236,-0.0068359375,-0.97735596,0.20428467,0.0,-0.734375,-0.140625
1696251587275,-4.8828125E-4,-0.96417236,0.21185303,-0.34375,-0.78125,0.0
1696251587316,-4.8828125E-4,-0.9746704,0.2177124,-0.328125,-0.828125,0.046875
1696251587356,-0.0078125,-0.97906494,0.21429443,-0.625,-1.0,-0.109375
1696251587395,-0.005859375,-0.9780884,0.21063232,-0.28125,-0.734375,-0.421875
1696251587436,-0.005126953,-0.97784424,0.22210693,0.21875,0.109375,0.203125
1696251587498,0.0034179688,-0.97003174,0.21038818,-0.109375,-0.53125,-0.53125
1696251587514,-0.008056641,-0.9783325,0.21136475,-0.5,-0.34375,-0.21875
1696251587557,-0.008544922,-0.9702759,0.20794678,-1.109375,-0.546875,-0.21875
1696251587596,-0.0087890625,-0.9817505,0.21868896,-0.171875,0.515625,0.078125
1696251587659,2.4414062E-4,-0.9771118,0.21917725,-0.625,-0.421875,-0.390625
1696251587697,2.4414062E-4,-0.9727173,0.2164917,-0.046875,-0.125,0.125
1696251587715,-0.0053710938,-0.9727173,0.22161865,0.34375,-0.03125,-0.03125
1696251587737,-0.0041503906,-0.98760986,0.2177124,-0.953125,-0.078125,-0.125
1696251587776,-0.006591797,-0.9727173,0.22113037,-0.546875,-0.3125,-0.171875
1696251587819,-0.009277344,-0.97320557,0.21624756,-0.5,-0.6875,-0.015625
1696251587857,-0.008544922,-0.9746704,0.22064209,-1.09375,0.1875,0.703125
1696251587897,-0.0053710938,-0.9788208,0.21697998,-1.125,-0.25,0.5
1696251587936,-0.010253906,-0.9727173,0.22137451,-0.609375,-0.703125,0.640625
1696251587976,-0.0078125,-0.9702759,0.21917725,-0.734375,-0.015625,1.59375
1696251588016,-4.8828125E-4,-0.97052,0.22113037,0.46875,0.59375,1.46875
1696251588055,-0.001953125,-0.9788208,0.2255249,0.046875,-0.046875,0.875
1696251588095,-0.020996094,-0.9780884,0.23114014,-0.21875,0.4375,1.28125
1696251588134,4.8828125E-4,-0.9780884,0.21722412,0.359375,1.890625,1.0625
1696251588177,0.03540039,-0.9656372,0.2177124,0.46875,2.671875,0.5
1696251588215,0.020019531,-0.9639282,0.20892334,0.78125,-0.375,0.09375
1696251588256,-0.001953125,-0.97735596,0.22381592,0.5625,-1.109375,1.09375
1696251588296,0.0034179688,-0.97857666,0.23822021,0.421875,-0.359375,0.78125
1696251588335,0.0021972656,-0.97247314,0.20819092,-0.703125,-1.796875,0.828125
1696251588377,0.0021972656,-0.96466064,0.21966553,-0.5,-1.484375,0.9375
1696251588416,0.021240234,-0.9788208,0.2267456,0.0625,-0.546875,0.671875
1696251588456,2.4414062E-4,-0.96710205,0.21673584,-0.953125,-1.09375,0.296875
1696251588498,-0.0043945312,-0.97540283,0.22137451,0.375,-0.359375,0.21875
1696251588534,-0.0014648438,-0.98565674,0.21795654,0.5,-0.8125,0.578125
1696251588577,0.014892578,-0.9607544,0.22039795,0.75,-0.421875,0.296875
1696251588617,0.018798828,-0.9656372,0.22137451,1.234375,-1.0625,0.453125
1696251588656,0.0061035156,-0.98883057,0.2189331,1.03125,-2.0,0.640625
1696251588696,2.4414062E-4,-0.9746704,0.22015381,0.671875,-0.84375,0.421875
1696251588736,0.0078125,-0.9656372,0.19866943,1.640625,-0.859375,-0.1875
1696251588778,0.009277344,-0.9824829,0.20111084,1.046875,-1.234375,0.375
1696251588815,-0.0048828125,-0.9890747,0.21551514,0.0625,-0.40625,0.359375
1696251588855,0.023925781,-0.9624634,0.20697021,0.9375,0.609375,-0.21875
1696251588896,0.010986328,-0.96759033,0.20526123,0.046875,-0.046875,0.125
1696251588939,0.006591797,-0.97906494,0.20819092,-0.328125,-0.671875,0.546875
1696251588976,0.0031738281,-0.98028564,0.21722412,0.15625,-0.03125,0.0625
1696251589056,-9.765625E-4,-0.9812622,0.21063232,-0.890625,-1.390625,0.453125
1696251589059,0.020263672,-0.96832275,0.21844482,0.609375,0.078125,0.015625
1696251589077,0.0048828125,-0.9758911,0.21038818,0.953125,0.15625,0.328125
1696251589116,-0.0056152344,-0.9907837,0.21282959,-1.078125,-1.109375,0.5625
1696251589157,0.011474609,-0.9614868,0.21453857,0.203125,0.921875,-0.90625
1696251589216,-0.0012207031,-0.975647,0.19989014,-0.21875,0.203125,0.5625
1696251589256,0.0014648438,-0.9741821,0.20550537,-0.6875,0.140625,0.6875
1696251589275,0.025878906,-0.9763794,0.2020874,-0.21875,0.71875,0.234375
1696251589316,0.041992188,-0.96661377,0.21331787,0.359375,0.203125,-0.09375
1696251589355,0.016113281,-0.97076416,0.20111084,0.4375,-2.515625,0.390625
1696251589396,-0.010009766,-0.9920044,0.20599365,0.09375,-3.71875,0.84375
1696251589435,-0.00390625,-0.9788208,0.2074585,-0.203125,-1.234375,0.375
1696251589476,0.012207031,-0.96466064,0.20574951,0.234375,-1.09375,0.328125
1696251589516,0.018554688,-0.96759033,0.19915771,0.0,-1.25,-0.21875
1696251589578,0.005859375,-0.9924927,0.21160889,-0.078125,-1.125,0.09375
1696251589618,-0.006591797,-0.9854126,0.19500732,-0.796875,-0.25,-0.421875
1696251589634,-0.010253906,-0.96759033,0.20819092,-0.6875,-0.078125,-0.515625
1696251589676,0.021484375,-0.9651489,0.21087646,0.09375,1.296875,-0.53125
1696251589718,0.01977539,-0.9805298,0.20452881,-0.640625,-0.515625,0.203125
1696251589780,0.007080078,-0.9837036,0.21966553,-0.40625,-0.25,-0.53125
1696251589794,-0.0021972656,-0.9746704,0.21429443,0.109375,-0.375,-0.15625
1696251589837,0.0068359375,-0.97613525,0.21014404,0.125,-0.34375,0.0625
1696251589879,0.010253906,-0.9729614,0.2189331,-0.4375,-0.625,-0.109375
1696251589917,0.010498047,-0.9807739,0.21429443,0.1875,-0.390625,0.328125
1696251589956,0.0,-0.97320557,0.21234131,0.3125,-0.875,-0.0625
1696251589996,-0.0026855469,-0.97491455,0.21746826,-0.03125,-0.3125,-0.296875
1696251590039,0.0014648438,-0.97052,0.21234131,0.265625,0.296875,0.0
1696251590075,0.0073242188,-0.97784424,0.21136475,0.84375,-0.375,0.1875
1696251590118,-0.0012207031,-0.972229,0.21673584,-0.515625,-0.640625,-0.140625
1696251590155,-0.008300781,-0.98028564,0.20770264,0.28125,-0.5625,-0.0625
1696251590195,-0.00390625,-0.9829712,0.21502686,0.0,0.0625,-0.140625
1696251590235,0.0056152344,-0.9734497,0.20599365,0.5,0.625,-0.640625
1696251590277,0.009033203,-0.9663696,0.21746826,-0.5,0.125,-0.703125
1696251590315,-0.009033203,-0.9734497,0.19989014,-1.703125,-0.53125,-0.484375
1696251590356,-0.0087890625,-0.9849243,0.2164917,-0.296875,0.328125,0.140625
1696251590378,7.324219E-4,-0.97540283,0.20843506,-0.09375,-0.53125,-0.59375
1696251590418,-0.005126953,-0.97662354,0.20843506,-0.828125,-0.6875,-0.25
1696251590455,-2.4414062E-4,-0.9763794,0.22283936,-0.671875,0.234375,-0.1875
1696251590498,-0.009033203,-0.9793091,0.2255249,-1.453125,-0.28125,0.0
1696251590539,-0.0043945312,-0.9795532,0.22235107,-1.109375,0.109375,-0.46875
1696251590576,-0.019042969,-0.99176025,0.21453857,-2.4375,-0.296875,0.390625
1696251590615,-0.0073242188,-0.9663696,0.20721436,0.140625,0.59375,1.03125
1696251590656,-0.0026855469,-0.97442627,0.22332764,0.90625,-0.125,1.171875
1696251590698,-0.0048828125,-0.9751587,0.22650146,-0.046875,1.859375,0.703125
1696251590736,7.324219E-4,-0.9780884,0.21697998,1.15625,0.640625,0.796875
1696251590779,0.014160156,-0.97442627,0.2218628,1.328125,-1.03125,0.734375
1696251590818,-0.001953125,-0.97540283,0.21966553,0.28125,-0.40625,0.84375
1696251590857,0.0014648438,-0.973938,0.22015381,-1.109375,-0.109375,0.71875
1696251590896,0.008300781,-0.97735596,0.21234131,1.140625,-0.734375,0.125
1696251590934,0.009765625,-0.97076416,0.21600342,-0.71875,-1.921875,0.796875
1696251590976,-0.011962891,-0.97662354,0.21722412,-0.890625,-1.421875,0.265625
1696251591016,-0.0087890625,-0.975647,0.22283936,-0.828125,0.28125,0.515625
1696251591055,0.015380859,-0.9690552,0.21356201,-0.25,-0.1875,-0.03125
1696251591096,0.010253906,-0.97247314,0.21673584,-0.421875,-0.625,0.328125
1696251591135,-0.007080078,-0.973938,0.21746826,0.015625,-1.203125,0.6875
1696251591176,0.009277344,-0.9729614,0.22357178,0.34375,-0.9375,0.328125
1696251591217,0.009033203,-0.9690552,0.2177124,-0.015625,-1.5625,0.046875
1696251591256,-0.0026855469,-0.9751587,0.20843506,0.21875,-1.640625,0.546875
1696251591297,0.0017089844,-0.98028564,0.22039795,0.84375,-1.75,0.3125
1696251591337,0.005126953,-0.96759033,0.21746826,-0.265625,-0.890625,-0.203125
1696251591376,0.0029296875,-0.9656372,0.21990967,-0.140625,-0.421875,-0.0625
1696251591417,0.0034179688,-0.99420166,0.22235107,-0.03125,-1.21875,0.4375
1696251591456,-7.324219E-4,-0.98272705,0.2255249,-0.28125,-1.03125,0.671875
1696251591496,0.0036621094,-0.9624634,0.21820068,-0.5625,-0.171875,0.390625
1696251591536,0.011962891,-0.96173096,0.21380615,-0.4375,-0.421875,0.046875
1696251591577,-2.4414062E-4,-0.97784424,0.21722412,-1.09375,-0.65625,0.6875
1696251591617,-0.004638672,-0.97906494,0.22454834,-1.78125,-1.265625,0.1875
1696251591656,0.0029296875,-0.97320557,0.23114014,-0.828125,-0.3125,0.28125
1696251591676,0.010009766,-0.9763794,0.22601318,-0.75,-0.25,0.015625
1696251591717,0.0017089844,-0.9741821,0.22503662,0.234375,-0.921875,-0.140625
1696251591756,-0.0014648438,-0.9776001,0.2321167,0.40625,-0.671875,-0.015625
1696251591795,-4.8828125E-4,-0.97613525,0.23284912,0.6875,-0.53125,0.15625
1696251591858,0.010253906,-0.9690552,0.22381592,0.296875,-0.859375,-0.234375
1696251591896,-0.0017089844,-0.97540283,0.21795654,0.0625,-0.5625,0.578125
1696251591914,7.324219E-4,-0.98516846,0.22406006,-0.3125,-0.953125,0.75
1696251591956,0.010986328,-0.9595337,0.22332764,-0.703125,0.109375,-0.453125
1696251591997,0.0126953125,-0.9685669,0.21746826,0.203125,-0.046875,-0.046875
1696251592056,-0.0087890625,-0.9729614,0.22161865,-0.25,-0.90625,0.578125
1696251592097,-0.00390625,-0.9768677,0.21722412,0.078125,-0.75,-0.1875
1696251592114,0.0068359375,-0.97662354,0.23236084,0.0,-0.109375,0.03125
1696251592156,0.008056641,-0.9788208,0.22332764,1.4375,0.46875,-0.1875
1696251592216,0.00390625,-0.9714966,0.22381592,0.375,-0.359375,-0.453125
1696251592236,0.0026855469,-0.97540283,0.21282959,0.375,-0.96875,-0.25
1696251592280,0.0056152344,-0.97662354,0.230896,0.765625,-1.34375,-0.15625
1696251592316,-0.0021972656,-0.9776001,0.23236084,-0.578125,-1.484375,0.21875
1696251592356,-0.0036621094,-0.9639282,0.21014404,1.796875,-0.9375,-0.078125
1696251592395,-0.0031738281,-0.9824829,0.21600342,1.296875,-0.578125,0.328125
1696251592438,0.0043945312,-0.9751587,0.22747803,1.109375,0.328125,-0.1875
1696251592476,-0.013916016,-0.96759033,0.21673584,-0.4375,0.078125,-0.109375
1696251592518,-0.011230469,-0.9746704,0.21234131,0.21875,-0.34375,0.671875
1696251592556,2.4414062E-4,-0.9800415,0.22650146,-0.25,0.5625,0.359375
1696251592596,0.017333984,-0.9717407,0.22479248,1.0625,0.671875,-0.34375
1696251592636,0.0017089844,-0.9776001,0.21575928,0.484375,-0.03125,0.1875
1696251592697,-0.012207031,-0.9663696,0.21478271,1.546875,-0.28125,0.421875
1696251592716,-0.010009766,-0.98028564,0.21966553,0.78125,0.40625,0.40625
1696251592758,0.0107421875,-0.97857666,0.21746826,1.3125,0.671875,0.046875
1696251592796,-0.010498047,-0.9776001,0.19915771,0.078125,-0.546875,0.40625
1696251592837,-0.008056641,-0.97735596,0.20013428,-0.953125,-0.234375,0.03125
1696251592875,-0.0031738281,-0.97369385,0.21673584,-0.6875,0.625,-0.015625
1696251592915,-0.001953125,-0.9771118,0.21478271,-0.546875,0.328125,-0.046875
1696251592997,0.0036621094,-0.9697876,0.21209717,-0.625,-0.03125,-0.078125
1696251593000,-0.005859375,-0.9834595,0.22137451,-0.734375,0.390625,-0.046875
1696251593018,0.0031738281,-0.9793091,0.2074585,0.125,0.28125,0.03125
1696251593057,0.008300781,-0.9678345,0.21087646,-0.328125,0.25,0.03125
1696251593095,0.0031738281,-0.9651489,0.21575928,4.453125,2.171875,0.734375
1696251593136,0.007080078,-1.0083618,0.19500732,7.625,3.71875,1.1875
1696251593183,0.017578125,-0.96759033,0.18817139,3.15625,0.515625,1.28125
1696251593215,-0.007080078,-0.9541626,0.19403076,1.6875,-1.171875,1.515625
1696251593256,-0.011962891,-0.9717407,0.19476318,-1.0625,-1.140625,0.34375
1696251593294,0.0041503906,-1.0054321,0.20037842,-2.609375,-0.921875,0.421875
1696251593336,0.011474609,-0.9866333,0.20233154,-3.09375,-0.1875,0.21875
1696251593376,0.0,-0.9807739,0.20184326,-5.453125,-1.3125,-0.078125
1696251593415,0.0031738281,-0.9590454,0.20672607,-6.5,-0.171875,-0.203125
1696251593456,9.765625E-4,-0.9734497,0.2243042,-2.140625,0.859375,0.46875
1696251593495,0.01171875,-0.987854,0.22772217,-0.09375,-1.5,0.359375
1696251593536,0.009765625,-0.9727173,0.2098999,-1.34375,-1.703125,0.21875
1696251593578,-0.0036621094,-0.95635986,0.22235107,0.078125,-0.609375,0.765625
1696251593617,0.017333984,-0.9837036,0.22650146,-0.265625,-0.921875,0.4375
1696251593658,0.0078125,-0.9849243,0.22723389,-2.484375,-1.6875,0.84375
1696251593695,-0.005126953,-0.96661377,0.2243042,-2.453125,-1.875,0.609375
1696251593737,4.8828125E-4,-0.96099854,0.22601318,-1.375,-0.171875,0.609375
1696251593777,0.014160156,-0.9780884,0.22845459,-1.1875,-0.328125,0.953125
1696251593816,0.023925781,-0.96661377,0.22943115,0.484375,-1.09375,0.5
1696251593856,0.005859375,-0.96539307,0.2243042,0.8125,-2.546875,0.328125
1696251593895,-0.0024414062,-0.9678345,0.23260498,1.53125,-1.796875,0.671875
1696251593938,0.0012207031,-0.9866333,0.22747803,1.890625,-0.828125,1.203125
1696251593976,0.015136719,-0.9758911,0.22454834,1.9375,-0.734375,0.703125
1696251594018,0.016357422,-0.9727173,0.21356201,2.296875,-0.015625,0.609375
1696251594055,-9.765625E-4,-0.9624634,0.21209717,1.078125,-0.640625,0.671875
1696251594095,-0.007080078,-0.97198486,0.21990967,0.828125,0.171875,0.5625
1696251594136,0.017333984,-0.9746704,0.20037842,2.28125,-0.125,0.078125
1696251594175,0.029052734,-0.9780884,0.21014404,1.328125,-1.203125,-0.46875
1696251594215,0.01977539,-0.9661255,0.21429443,1.625,-0.078125,-0.421875
1696251594256,0.0021972656,-0.9859009,0.21453857,0.625,-1.578125,0.40625
1696251594296,-4.8828125E-4,-0.97125244,0.20916748,-0.375,-1.046875,0.109375
1696251594315,0.007080078,-0.9717407,0.20721436,0.234375,-0.546875,0.359375
1696251594378,0.021972656,-0.97125244,0.21282959,0.828125,0.703125,0.03125
1696251594394,0.014892578,-0.9788208,0.20599365,0.75,-0.328125,0.078125
1696251594436,0.010986328,-0.97735596,0.20721436,0.421875,-0.75,-0.140625
1696251594497,0.012451172,-0.9849243,0.20526123,1.171875,0.140625,0.265625
1696251594515,-0.0017089844,-0.9898071,0.20184326,0.296875,-0.578125,1.0625
1696251594558,0.016845703,-0.9751587,0.19476318,1.8125,0.203125,0.34375
1696251594616,0.015625,-0.9734497,0.1954956,0.5625,-0.40625,0.828125
1696251594656,0.01928711,-0.97906494,0.19915771,1.171875,-0.28125,0.265625
1696251594676,0.0053710938,-0.97857666,0.19744873,0.9375,0.171875,-0.109375
1696251594715,0.0036621094,-0.9680786,0.19281006,1.171875,-0.796875,0.328125
1696251594778,0.0073242188,-0.97613525,0.18988037,0.0625,-0.03125,0.03125
1696251594797,0.0234375,-0.9771118,0.20184326,0.796875,1.125,-0.28125
1696251594858,0.012207031,-0.9841919,0.19354248,-0.0625,-0.921875,0.203125
1696251594874,0.0031738281,-0.96173096,0.1930542,-0.34375,-0.46875,-0.203125
1696251594915,0.011474609,-0.98101807,0.19989014,-0.921875,0.546875,-0.109375
1696251594978,0.018554688,-0.9902954,0.19891357,0.140625,-0.28125,0.109375
1696251594996,0.01586914,-0.97320557,0.19720459,-0.296875,-0.4375,-0.140625
1696251595035,0.0053710938,-0.9768677,0.19671631,-1.015625,-1.453125,0.03125
1696251595078,0.0026855469,-0.9819946,0.20135498,-0.671875,-0.3125,0.234375
1696251595115,0.010986328,-0.9776001,0.20184326,-0.5625,0.046875,-0.5
1696251595155,0.008056641,-0.9834595,0.19769287,-0.5625,-0.578125,0.359375
1696251595196,0.013183594,-0.9758911,0.20843506,-0.28125,0.734375,0.0625
1696251595235,-4.8828125E-4,-0.97369385,0.20111084,0.609375,-0.125,0.171875
1696251595278,0.013916016,-0.97613525,0.19354248,-1.28125,-1.078125,0.171875
1696251595337,0.015625,-0.97784424,0.21014404,-0.296875,0.125,0.015625
1696251595355,-0.001953125,-0.9741821,0.2164917,-0.5625,-0.109375,0.421875
1696251595396,0.004638672,-0.98565674,0.19378662,-1.859375,-0.03125,0.171875
1696251595435,-0.0041503906,-0.97979736,0.19696045,-1.0,0.78125,0.390625
1696251595477,0.021240234,-0.97735596,0.20965576,0.34375,0.84375,0.015625
1696251595516,0.014160156,-0.96832275,0.20477295,-0.609375,-0.296875,0.25
1696251595557,0.0041503906,-0.98150635,0.20916748,-0.25,-0.390625,0.0
1696251595596,-0.0036621094,-0.97906494,0.20184326,0.453125,-0.421875,0.34375
1696251595614,0.008300781,-0.9741821,0.20404053,0.15625,-0.546875,0.578125
1696251595657,0.010253906,-0.97857666,0.2086792,-0.015625,-0.78125,0.171875
1696251595696,0.010253906,-0.9819946,0.21478271,0.78125,-0.328125,0.03125
1696251595736,0.0041503906,-0.97198486,0.19720459,-0.28125,-0.890625,0.125
1696251595777,-0.0034179688,-0.9741821,0.20184326,0.5625,-0.75,0.28125
1696251595818,0.0073242188,-0.9859009,0.2074585,0.234375,0.328125,0.109375
1696251595857,0.014892578,-0.9734497,0.20526123,-0.34375,-0.46875,-0.171875
1696251595898,0.008300781,-0.9627075,0.2020874,0.53125,0.21875,-0.046875
1696251595938,0.0017089844,-0.9898071,0.20452881,0.171875,-1.296875,0.65625
1696251595975,0.005859375,-0.9866333,0.2111206,0.65625,0.34375,-0.015625
1696251596018,0.010253906,-0.97003174,0.1954956,0.375,-0.6875,-0.578125
1696251596056,0.0056152344,-0.97784424,0.19256592,0.390625,-1.03125,-0.109375
1696251596095,0.004638672,-0.9866333,0.21063232,-0.25,-0.375,0.140625
1696251596136,0.01586914,-0.98101807,0.20672607,0.78125,0.375,-0.453125
1696251596176,0.0053710938,-0.97003174,0.19573975,-0.015625,-0.28125,-0.171875
1696251596216,0.013916016,-0.9834595,0.20819092,0.859375,-0.453125,-0.125
1696251596256,0.0075683594,-0.9788208,0.19940186,-0.109375,-0.5,-0.140625
1696251596296,-0.0053710938,-0.975647,0.20404053,0.484375,-0.21875,0.109375
1696251596336,9.765625E-4,-0.97857666,0.1942749,0.5625,-0.265625,-0.09375
1696251596377,0.0053710938,-0.98150635,0.20184326,-0.28125,-0.03125,0.171875
1696251596415,0.0068359375,-0.9746704,0.20013428,0.453125,-0.96875,0.078125
1696251596457,0.0024414062,-0.97662354,0.20135498,0.171875,-0.078125,-0.0625
1696251596497,-7.324219E-4,-0.9793091,0.20452881,-0.453125,-0.171875,0.375
1696251596536,0.021484375,-0.97857666,0.19525146,-0.140625,-0.3125,-0.359375
1696251596575,-0.014404297,-0.9829712,0.20770264,-1.125,-1.296875,-0.03125
1696251596619,-0.004638672,-0.9697876,0.21844482,-1.828125,0.4375,0.375
1696251596657,-0.0034179688,-0.97369385,0.19866943,-2.125,-0.234375,-0.125
1696251596696,0.0053710938,-0.98638916,0.2111206,-2.03125,0.578125,0.359375
1696251596736,0.0036621094,-0.9819946,0.20306396,-1.609375,-0.484375,1.453125
1696251596777,0.0029296875,-0.9746704,0.21014404,-0.53125,-0.640625,0.890625
1696251596816,0.008300781,-0.97247314,0.22210693,0.453125,0.203125,0.015625
1696251596855,-0.0029296875,-0.97735596,0.22406006,3.6875,0.609375,1.0
1696251596896,-0.01953125,-1.0007935,0.18841553,3.875,-1.453125,2.6875
1696251596917,0.016601562,-0.96881104,0.17156982,2.578125,0.265625,0.15625
1696251596955,0.045898438,-0.9585571,0.2074585,1.859375,-0.1875,-0.640625
1696251596997,0.0146484375,-0.9783325,0.19622803,0.515625,-0.484375,0.40625
1696251597036,-0.013916016,-0.99224854,0.19354248,-0.09375,-1.78125,0.28125
1696251597077,-0.016601562,-0.9871216,0.18939209,-1.34375,-0.5,0.421875
1696251597138,0.01171875,-0.9800415,0.19696045,-1.96875,2.421875,0.0625
1696251597156,0.034179688,-0.9746704,0.19818115,-4.1875,0.5625,0.0
1696251597197,0.021240234,-0.9807739,0.20648193,-3.8125,-2.40625,0.109375
1696251597236,-0.010009766,-0.9741821,0.20501709,-1.40625,-1.203125,0.078125
1696251597297,-0.001953125,-0.98443604,0.20526123,0.8125,0.078125,-0.578125
1696251597335,0.012451172,-0.9614868,0.20135498,0.0,-0.5,0.109375
1696251597375,0.022216797,-0.9692993,0.21136475,0.640625,-1.0625,1.203125
1696251597396,0.015625,-0.97442627,0.21551514,0.3125,-2.609375,0.96875
1696251597459,7.324219E-4,-0.97125244,0.1984253,0.25,-3.0625,0.671875
1696251597475,9.765625E-4,-0.98638916,0.20404053,1.0,-1.484375,0.453125
1696251597518,0.008056641,-0.9710083,0.20184326,0.734375,-1.453125,0.890625
1696251597556,0.001953125,-0.9639282,0.1930542,1.25,-1.71875,0.890625
1696251597597,0.001953125,-0.9800415,0.20892334,1.09375,-1.0625,0.390625
1696251597637,0.016845703,-0.97198486,0.19256592,1.15625,-1.390625,0.234375
1696251597677,0.012451172,-0.97442627,0.19793701,1.09375,-2.34375,0.4375
1696251597739,0.0068359375,-0.9714966,0.20281982,0.640625,-0.796875,-0.109375
1696251597756,0.0,-0.9807739,0.20355225,1.40625,-1.21875,0.53125
1696251597817,0.0087890625,-0.97784424,0.18817139,0.8125,-1.296875,0.078125
1696251597837,0.009765625,-0.9849243,0.19451904,1.34375,-0.90625,0.078125
1696251597877,0.0087890625,-0.9837036,0.19818115,0.125,-1.703125,-0.15625
1696251597939,-0.0041503906,-0.97613525,0.20574951,-0.53125,0.109375,-0.09375
1696251597955,-0.004638672,-0.986145,0.19085693,-1.046875,0.03125,-0.578125
1696251598019,0.016845703,-0.98394775,0.20159912,0.09375,-0.25,-0.78125
1696251598034,0.01171875,-0.97540283,0.1930542,-0.390625,-1.140625,0.046875
1696251598080,-0.004638672,-0.97003174,0.19085693,0.125,-0.59375,0.15625
1696251598117,-0.0012207031,-0.9776001,0.19818115,0.015625,0.234375,-0.125
1696251598176,0.0,-0.97735596,0.19085693,-0.296875,-0.34375,0.203125
1696251598196,0.005126953,-0.9776001,0.19476318,0.046875,-0.625,0.390625
1696251598256,0.0029296875,-0.9776001,0.20037842,0.578125,0.796875,0.484375
1696251598259,0.009277344,-0.9680786,0.18743896,-0.03125,0.28125,-0.125
1696251598296,0.020019531,-0.9763794,0.19085693,0.546875,-0.203125,0.25
1696251598337,0.011230469,-0.9915161,0.19354248,0.53125,-0.390625,0.46875
1696251598377,-0.0036621094,-0.9866333,0.19256592,-0.84375,-0.46875,0.109375
1696251598418,-0.012451172,-0.97369385,0.19354248,-0.4375,0.328125,-0.03125
1696251598455,2.4414062E-4,-0.98223877,0.1954956,0.109375,1.046875,-0.359375
1696251598497,0.017822266,-0.9817505,0.19451904,-0.4375,0.765625,0.40625
1696251598538,0.021240234,-0.97125244,0.19476318,-0.8125,-0.53125,0.203125
1696251598577,0.009765625,-0.97857666,0.19012451,-0.921875,-1.046875,0.5625
1696251598639,0.0053710938,-0.9783325,0.19671631,-0.53125,-0.3125,0.84375
1696251598654,0.0078125,-0.97491455,0.19158936,-0.359375,-0.515625,0.125
1696251598696,0.01586914,-0.9741821,0.1930542,-0.421875,0.15625,0.21875
1696251598736,0.014404297,-0.9776001,0.19134521,-0.6875,-0.84375,0.390625
1696251598776,0.0061035156,-0.9751587,0.20233154,-0.65625,-0.453125,-0.171875
1696251598836,0.0014648438,-0.975647,0.19647217,-1.203125,0.40625,-0.078125
1696251598854,0.017089844,-0.9727173,0.2020874,-0.5625,-0.09375,0.0625
1696251598898,0.0146484375,-0.98516846,0.19891357,-0.515625,-0.125,0.171875
1696251598935,0.0029296875,-0.97979736,0.20477295,-0.09375,-0.296875,0.046875
1696251598976,0.014160156,-0.97052,0.21063232,-0.453125,0.625,-0.984375
1696251599015,4.8828125E-4,-0.9776001,0.20306396,-0.34375,0.234375,-0.5625
1696251599077,0.0036621094,-0.9883423,0.20941162,-0.390625,-0.890625,-0.234375
1696251599096,0.009765625,-0.9819946,0.20672607,-0.09375,-0.328125,-0.296875
1696251599158,0.0043945312,-0.9746704,0.20965576,0.1875,-0.25,-0.0625
1696251599174,-0.0075683594,-0.972229,0.21160889,-0.59375,-0.34375,0.140625
1696251599237,0.006591797,-0.98101807,0.20404053,0.3125,-0.6875,0.109375
1696251599256,0.0024414062,-0.9780884,0.20452881,-1.5625,-1.15625,0.5
1696251599297,0.001953125,-0.96051025,0.20013428,-1.953125,-1.375,-1.0625
1696251599337,-0.0034179688,-0.97613525,0.21453857,-0.6875,1.0625,-0.296875
1696251599377,0.008544922,-0.973938,0.21868896,-0.09375,1.84375,0.078125
1696251599418,0.0075683594,-0.9702759,0.21429443,-0.453125,-0.234375,-0.125
1696251599456,-4.8828125E-4,-0.9751587,0.21258545,-0.09375,-0.125,-0.109375
1696251599517,-0.00390625,-0.9824829,0.22015381,-0.71875,-1.015625,0.734375
1696251599535,0.0014648438,-0.98028564,0.20599365,-1.703125,-1.328125,0.203125
1696251599556,-0.009521484,-0.97857666,0.2074585,-2.640625,-1.796875,0.09375
1696251599597,-0.004638672,-0.9668579,0.23187256,-1.375,0.046875,-0.375
1696251599637,0.0029296875,-0.9668579,0.22064209,-2.203125,0.890625,-0.296875
1696251599677,-0.0014648438,-0.97857666,0.22406006,-1.015625,0.453125,0.546875
1696251599718,-0.0036621094,-0.96881104,0.22454834,1.296875,0.25,0.84375
1696251599755,0.0061035156,-0.98101807,0.22796631,0.296875,-0.15625,0.90625
1696251599799,0.0043945312,-0.9631958,0.21551514,-0.140625,-1.953125,1.03125
1696251599837,0.008300781,-0.9697876,0.22332764,0.515625,-1.875,1.96875
1696251599881,0.018310547,-0.9692993,0.22406006,0.578125,-2.109375,1.15625
1696251599916,0.004638672,-0.97906494,0.2345581,-0.078125,-0.21875,0.515625
1696251599955,-0.010498047,-0.9702759,0.21942139,-0.703125,-0.8125,0.546875
1696251599997,-0.0068359375,-0.9812622,0.21087646,-0.890625,-1.875,1.421875
1696251600034,0.009277344,-0.973938,0.22113037,0.375,1.875,-0.03125
1696251600074,0.029541016,-0.9729614,0.23406982,-0.234375,0.78125,0.828125
1696251600114,0.018310547,-0.96539307,0.21160889,0.984375,-0.71875,0.859375
1696251600154,0.013671875,-0.9751587,0.2189331,0.96875,-1.53125,0.359375
1696251600194,0.0048828125,-0.97662354,0.22479248,0.46875,-0.40625,0.859375
1696251600234,0.0021972656,-0.97735596,0.22088623,0.109375,-0.28125,0.859375
1696251600274,0.018310547,-0.9788208,0.21185303,1.0625,-1.171875,0.484375
1696251600314,0.010009766,-0.96881104,0.21380615,1.1875,-1.0,0.875
1696251600354,0.0073242188,-0.97613525,0.22015381,0.453125,-0.15625,0.859375
1696251600394,0.023925781,-0.96954346,0.21478271,1.390625,-0.046875,0.078125
1696251600435,0.005859375,-0.97491455,0.21282959,0.640625,-0.671875,0.0625
1696251600495,0.015625,-0.9837036,0.22210693,1.046875,0.40625,0.375
1696251600536,-0.0021972656,-0.9805298,0.19866943,-0.4375,-0.375,0.46875
1696251600554,0.028320312,-0.97662354,0.20648193,1.453125,1.453125,0.28125
1696251600616,0.016601562,-0.98272705,0.21331787,0.859375,0.125,0.53125
1696251600655,0.022216797,-0.9751587,0.20916748,0.25,-0.375,0.296875
1696251600675,0.010986328,-0.9859009,0.20452881,0.359375,-1.375,0.421875
1696251600715,0.026367188,-0.972229,0.20281982,1.328125,-0.765625,0.125
1696251600755,0.026123047,-0.9751587,0.20501709,0.4375,-0.75,-0.09375
1696251600817,2.4414062E-4,-0.9793091,0.20062256,0.15625,-1.96875,0.375
1696251600836,0.0014648438,-0.9817505,0.20574951,-0.34375,-0.953125,-0.125
1696251600855,0.016357422,-0.9644165,0.20721436,0.640625,0.6875,-0.703125
1696251600894,0.021240234,-0.96759033,0.19915771,-0.1875,0.421875,0.203125
1696251600934,0.0126953125,-0.9871216,0.20428467,-0.03125,-0.96875,0.15625
1696251600975,0.024414062,-0.9873657,0.21722412,0.234375,-0.4375,-0.171875
1696251601014,0.013671875,-0.958313,0.19378662,0.359375,-0.34375,-0.125
1696251601054,0.008544922,-0.9697876,0.19744873,0.53125,-1.203125,0.765625
1696251601094,0.0056152344,-0.9866333,0.20843506,-0.046875,-0.84375,1.0625
1696251601134,0.022460938,-0.9788208,0.20648193,0.859375,0.109375,-0.3125
1696251601175,0.011474609,-0.9734497,0.19476318,0.625,-0.609375,-0.1875
1696251601215,0.010986328,-0.9727173,0.19281006,0.953125,-0.140625,0.734375
1696251601257,0.005859375,-0.99053955,0.19940186,0.6875,0.234375,0.453125
1696251601296,0.019042969,-0.97247314,0.19769287,0.3125,0.25,-0.40625
1696251601339,0.025146484,-0.9824829,0.18841553,0.515625,0.328125,0.078125
1696251601378,0.027832031,-0.9812622,0.19403076,1.03125,-0.828125,0.296875
1696251601417,0.010009766,-0.97198486,0.19403076,-0.21875,-0.953125,0.0625
1696251601458,0.009521484,-0.96295166,0.18719482,-0.140625,0.359375,-0.171875
1696251601496,0.009277344,-0.98565674,0.19012451,-0.90625,-0.703125,0.515625
1696251601535,0.03100586,-0.98101807,0.21160889,-0.671875,-0.109375,-0.140625
1696251601576,0.019042969,-0.9727173,0.19598389,-0.65625,-0.625,-0.140625
1696251601616,0.0063476562,-0.97613525,0.19915771,-0.84375,-0.546875,-0.21875
1696251601657,0.010009766,-0.9834595,0.20306396,-0.875,-0.015625,-0.015625
1696251601695,0.013916016,-0.97247314,0.20428467,-0.671875,-0.3125,-0.1875
1696251601736,0.010009766,-0.96661377,0.20477295,-1.171875,-0.296875,-0.265625
1696251601778,0.025390625,-0.97906494,0.20306396,-0.421875,-0.796875,0.21875
1696251601816,0.0146484375,-0.98638916,0.21136475,-0.265625,-0.75,0.15625
1696251601856,0.0034179688,-0.9812622,0.20843506,-0.359375,-0.734375,-0.140625
1696251601897,0.0068359375,-0.97198486,0.21209717,-0.484375,-0.21875,-0.0625
1696251601940,0.010253906,-0.9692993,0.20428467,0.21875,0.265625,0.3125
1696251601975,0.018310547,-0.9837036,0.20794678,-0.375,-1.03125,0.40625
1696251602018,9.765625E-4,-0.9763794,0.19940186,-0.328125,-0.640625,-0.140625
1696251602057,0.0029296875,-0.97198486,0.2140503,-0.84375,0.421875,-0.109375
1696251602096,0.010986328,-0.9734497,0.19744873,-0.3125,-0.671875,0.0625
1696251602138,0.017822266,-0.97857666,0.21038818,-1.28125,-0.90625,0.203125
1696251602174,0.005859375,-0.98150635,0.20843506,-0.34375,-0.109375,-0.546875
1696251602195,-0.0021972656,-0.97491455,0.2074585,-0.53125,-0.171875,0.078125
1696251602235,0.0061035156,-0.97052,0.21478271,-0.0625,-0.171875,0.375
1696251602274,0.014160156,-0.98687744,0.20794678,-1.125,0.0,0.15625
1696251602316,0.016845703,-0.9763794,0.21258545,-0.078125,0.0,-0.4375
1696251602357,0.011962891,-0.9661255,0.20965576,-0.875,-0.234375,-0.015625
1696251602396,0.011962891,-0.9727173,0.20819092,-0.1875,-0.4375,0.3125
1696251602436,-2.4414062E-4,-0.9783325,0.215271,-1.265625,-0.703125,0.375
1696251602477,0.0036621094,-0.9741821,0.21722412,0.140625,-0.5625,-0.15625
1696251602515,0.009521484,-0.97369385,0.20965576,-0.046875,0.25,0.125
1696251602556,0.013916016,-0.9776001,0.21356201,0.3125,-0.75,0.6875
1696251602598,0.0036621094,-0.9829712,0.21331787,-0.609375,-0.703125,0.53125
1696251602636,0.015380859,-0.97540283,0.21624756,-0.28125,0.03125,-0.078125
1696251602679,0.0087890625,-0.9656372,0.21697998,-0.984375,-0.484375,0.453125
1696251602717,0.0078125,-0.96466064,0.20941162,0.4375,0.125,0.234375
1696251602758,0.011230469,-0.9866333,0.21429443,-0.625,-0.234375,0.59375
1696251602796,0.018066406,-0.9776001,0.21429443,-0.125,-0.296875,-0.453125
1696251602858,-0.010009766,-0.97125244,0.22137451,-0.84375,-0.71875,0.28125
1696251602875,-2.4414062E-4,-0.9702759,0.2164917,-0.4375,-0.671875,0.75
1696251602920,0.016357422,-0.973938,0.21673584,-0.4375,0.015625,0.53125
1696251602958,0.018066406,-0.9890747,0.21942139,0.03125,-0.34375,0.328125
1696251602995,0.018310547,-0.972229,0.21624756,0.40625,-0.9375,0.0
1696251603037,0.008544922,-0.9541626,0.21820068,-0.25,-0.578125,0.15625
1696251603077,-0.0063476562,-0.975647,0.22161865,-0.015625,-0.6875,0.28125
1696251603117,0.008544922,-0.9746704,0.22821045,-0.84375,0.203125,0.109375
1696251603157,0.015136719,-0.98321533,0.22113037,-0.21875,-0.6875,-0.25
1696251603196,0.014160156,-0.9612427,0.21966553,0.359375,-1.140625,-0.0625
1696251603236,-0.0034179688,-0.96759033,0.22406006,-0.296875,-0.484375,0.25
1696251603276,2.4414062E-4,-0.9873657,0.23358154,-3.6875,-0.03125,0.578125
1696251603317,0.010498047,-0.9834595,0.23699951,-8.9375,-1.296875,0.515625
1696251603356,0.024414062,-0.93096924,0.22479248,0.34375,1.53125,-0.296875
1696251603418,0.022705078,-0.9871216,0.22332764,1.390625,-2.109375,0.5
1696251603460,0.00390625,-0.97198486,0.23919678,-0.40625,-0.390625,1.234375
1696251603495,0.006591797,-0.9690552,0.25091553,-0.671875,-0.546875,0.3125
1696251603517,0.0146484375,-0.9636841,0.23626709,0.390625,-1.21875,0.015625
1696251603535,0.0107421875,-0.99053955,0.23529053,-3.625,-1.5625,1.265625
1696251603578,0.0048828125,-0.96881104,0.24212646,-5.765625,-0.859375,1.140625
1696251603616,0.025146484,-0.960022,0.25115967,1.8125,0.453125,-0.25
1696251603657,0.004638672,-0.97198486,0.24920654,-0.625,-1.125,-0.5625
1696251603695,0.00390625,-0.9639282,0.24725342,0.390625,0.59375,0.484375
1696251603737,0.014892578,-0.9717407,0.24700928,-0.46875,-1.0625,0.859375
1696251603777,0.032714844,-0.9746704,0.2399292,1.34375,0.046875,0.125
1696251603815,0.0034179688,-0.9573364,0.23626709,1.546875,-2.40625,0.671875
1696251603857,0.009277344,-0.9678345,0.2453003,1.796875,-2.421875,1.359375
1696251603896,0.011230469,-0.96588135,0.24359131,1.140625,-1.734375,0.96875
1696251603936,0.01928711,-0.9692993,0.23553467,2.578125,-0.515625,0.046875
1696251603976,0.0061035156,-0.972229,0.21575928,2.234375,-1.0,0.15625
1696251604016,0.010498047,-0.9627075,0.22747803,1.546875,-1.78125,0.25
1696251604058,0.012451172,-0.975647,0.23358154,0.625,-0.921875,0.078125
1696251604095,0.01953125,-0.97662354,0.23162842,0.796875,-0.8125,0.15625
1696251604143,0.018798828,-0.9558716,0.23065186,0.5,-1.25,-0.515625
1696251604177,0.001953125,-0.9663696,0.22503662,0.765625,-0.8125,0.15625
1696251604216,-0.00390625,-0.98223877,0.22894287,0.265625,-1.671875,0.015625
1696251604255,0.011962891,-0.97369385,0.22625732,0.171875,0.046875,-0.6875
1696251604296,0.0053710938,-0.9800415,0.21917725,-0.453125,0.1875,0.15625
1696251604336,0.016845703,-0.9663696,0.22503662,-0.609375,-1.453125,0.640625
1696251604376,0.0048828125,-0.98883057,0.23553467,0.09375,-0.25,0.375
1696251604416,0.01586914,-0.9768677,0.22381592,0.078125,-0.375,-0.046875
1696251604459,0.017578125,-0.9585571,0.23040771,0.9375,-0.140625,-0.515625
1696251604499,0.009033203,-0.9685669,0.21966553,0.828125,-0.390625,0.46875
1696251604538,0.010009766,-0.97320557,0.22113037,0.984375,-0.25,0.59375
1696251604577,0.01586914,-0.9690552,0.23382568,1.1875,1.09375,-0.234375
1696251604617,0.009033203,-0.97247314,0.21673584,0.25,-0.859375,-0.09375
1696251604658,0.012939453,-0.9793091,0.22088623,0.21875,0.3125,0.359375
1696251604700,0.016845703,-0.9768677,0.21942139,0.375,-0.265625,-0.234375
1696251604736,0.0043945312,-0.9734497,0.21820068,-0.703125,0.3125,-0.265625
1696251604779,0.014160156,-0.9771118,0.21868896,-0.34375,0.21875,-0.03125
1696251604816,0.017333984,-0.97369385,0.22113037,-0.40625,-0.875,0.046875
1696251604835,0.012207031,-0.96539307,0.22088623,-0.328125,-0.046875,0.046875
1696251604875,0.0107421875,-0.97735596,0.21331787,-0.21875,-0.78125,0.203125
1696251604938,0.0063476562,-0.97491455,0.22454834,-0.296875,0.109375,0.140625
1696251604955,0.0053710938,-0.97857666,0.22235107,0.875,-0.421875,0.5
1696251604997,0.016113281,-0.97613525,0.22259521,0.265625,-0.015625,0.46875
1696251605058,0.0075683594,-0.9771118,0.21209717,-0.359375,-0.390625,0.4375
1696251605076,0.01171875,-0.96881104,0.22381592,0.375,-0.5625,0.3125
1696251605137,0.015136719,-0.9697876,0.2177124,0.03125,-0.578125,0.5625
1696251605155,0.018798828,-0.9807739,0.22210693,-0.75,-0.171875,0.34375
1696251605217,0.004638672,-0.97125244,0.21697998,-1.03125,-0.609375,-0.296875
1696251605256,0.004638672,-0.9717407,0.23162842,-0.53125,0.5625,0.859375
1696251605275,0.012451172,-0.97125244,0.22528076,-0.453125,0.28125,0.453125
1696251605315,0.0146484375,-0.9717407,0.21795654,0.21875,0.953125,0.484375
1696251605355,0.010498047,-0.9883423,0.22845459,-1.15625,1.125,1.6875
1696251605395,0.036865234,-0.95440674,0.2062378,1.09375,1.765625,0.546875
1696251605436,0.03881836,-0.9507446,0.22650146,2.890625,-0.625,0.515625
1696251605476,0.01586914,-0.987854,0.2189331,1.390625,-0.59375,0.390625
1696251605538,0.0,-0.99420166,0.20721436,0.4375,-0.703125,1.046875
1696251605555,0.010253906,-0.96759033,0.21160889,1.828125,0.234375,0.75
1696251605595,0.03857422,-0.96343994,0.21697998,1.125,0.9375,0.59375
1696251605659,0.036132812,-0.97613525,0.21917725,0.171875,0.484375,0.625
1696251605676,0.020019531,-0.9763794,0.21478271,0.453125,-1.296875,0.484375
1696251605719,0.014160156,-0.9595337,0.2062378,0.1875,-1.0,0.15625
1696251605757,0.014160156,-0.9768677,0.2098999,-0.296875,1.03125,0.125
1696251605797,0.020751953,-0.9849243,0.21136475,-0.984375,-0.234375,0.0
1696251605835,0.026855469,-0.97247314,0.22015381,0.34375,-0.546875,0.375
1696251605876,0.029785156,-0.972229,0.21478271,-0.1875,-1.453125,0.484375
1696251605917,0.022216797,-0.98101807,0.20379639,0.234375,-1.21875,-0.0625
1696251605956,0.0087890625,-0.9783325,0.21258545,-0.40625,-1.0,-0.015625
1696251606017,0.026367188,-0.9805298,0.21746826,-0.578125,-0.359375,-0.265625
1696251606056,0.013183594,-0.9734497,0.21331787,-0.65625,-1.921875,0.515625
1696251606118,0.018798828,-0.96881104,0.21453857,0.75,-1.65625,0.9375
1696251606120,0.010009766,-0.97442627,0.21429443,-0.359375,-2.0625,0.25
1696251606134,0.021972656,-0.9663696,0.20941162,0.296875,-1.015625,-0.078125
1696251606176,0.018554688,-0.9680786,0.20257568,0.328125,-2.46875,0.515625
1696251606216,0.020263672,-0.97320557,0.21624756,0.0625,-1.671875,0.140625
1696251606256,0.013916016,-0.9651489,0.2140503,-0.15625,-0.53125,-0.28125
1696251606296,0.0043945312,-0.9771118,0.21331787,-0.203125,-1.1875,0.171875
1696251606336,0.025878906,-0.9619751,0.21063232,-0.109375,-0.5,-0.078125
1696251606375,0.018310547,-0.9673462,0.2098999,-0.0625,-0.9375,-0.171875
1696251606418,0.015136719,-0.9793091,0.21551514,-0.390625,-0.203125,-0.40625
1696251606457,0.011474609,-0.9751587,0.2164917,-0.796875,0.03125,0.09375
1696251606499,0.01928711,-0.9746704,0.21795654,-0.3125,-0.53125,-0.46875
1696251606539,0.017089844,-0.9763794,0.21453857,-0.546875,-0.015625,-0.328125
1696251606576,0.014404297,-0.9795532,0.22161865,0.484375,-0.34375,0.1875
1696251606616,0.01586914,-0.975647,0.21795654,0.296875,-0.9375,0.328125
1696251606655,0.013183594,-0.96588135,0.2098999,-0.671875,-1.3125,0.03125
1696251606698,0.015136719,-0.97442627,0.21380615,0.0625,0.1875,0.0
1696251606734,0.030517578,-0.97735596,0.21502686,-0.015625,0.25,-0.03125
1696251606778,0.017333984,-0.9763794,0.215271,-0.3125,-1.125,-0.140625
1696251606816,-0.0021972656,-0.9793091,0.21673584,-0.734375,-0.640625,-0.40625
1696251606856,0.011474609,-0.97442627,0.2189331,-0.640625,0.3125,-0.234375
1696251606899,0.021484375,-0.973938,0.21600342,0.0625,0.015625,0.0625
1696251606936,0.010009766,-0.9807739,0.21551514,-0.640625,-0.921875,0.0
1696251606976,0.010253906,-0.97442627,0.22943115,0.328125,0.15625,-0.546875
1696251607017,0.005126953,-0.97052,0.2062378,-0.09375,-0.71875,0.125
1696251607056,0.011474609,-0.9729614,0.22406006,-0.171875,-0.75,0.203125
1696251607096,0.0061035156,-0.98028564,0.21942139,-0.96875,-0.140625,-0.1875
1696251607137,0.012451172,-0.9656372,0.22357178,0.171875,0.125,-0.125
1696251607175,0.014160156,-0.9697876,0.21844482,-0.359375,-0.609375,0.203125
1696251607220,0.015380859,-0.9834595,0.215271,-0.515625,0.078125,-0.234375
1696251607258,0.013916016,-0.97442627,0.22039795,-0.046875,0.21875,-0.359375
1696251607298,0.009277344,-0.97003174,0.21868896,-0.265625,-0.90625,0.0625
1696251607336,0.0056152344,-0.9692993,0.2230835,-0.734375,0.453125,-0.15625
1696251607376,0.0087890625,-0.9734497,0.22454834,-0.078125,0.03125,0.09375
1696251607437,0.010009766,-0.9854126,0.21942139,-1.140625,-0.96875,0.28125
1696251607456,0.012451172,-0.9727173,0.22796631,-1.203125,-0.53125,0.171875
1696251607497,0.006591797,-0.97076416,0.23480225,-0.453125,-0.265625,0.53125
1696251607517,0.001953125,-0.97613525,0.2243042,-0.34375,-0.21875,0.875
1696251607557,0.010253906,-0.96954346,0.21942139,-0.6875,-0.15625,0.8125
1696251607595,0.0073242188,-0.9780884,0.230896,-1.125,0.34375,1.0625
1696251607636,0.014160156,-0.96832275,0.230896,1.46875,0.125,0.734375
1696251607700,0.016601562,-0.9849243,0.22357178,1.171875,-0.28125,0.5
1696251607714,0.0075683594,-0.9651489,0.22113037,0.109375,-0.21875,0.875
1696251607780,0.013183594,-0.9690552,0.21942139,0.109375,-0.09375,-0.28125
1696251607819,0.018310547,-0.97735596,0.22918701,-0.515625,0.515625,0.21875
1696251607835,0.010986328,-0.97052,0.23382568,-0.421875,-0.53125,0.59375
1696251607877,0.016845703,-0.97369385,0.22772217,-0.78125,0.59375,-0.203125
1696251607918,0.016845703,-0.96759033,0.21868896,-1.09375,0.5625,-0.21875
1696251607957,0.01953125,-0.97369385,0.22650146,-0.109375,-0.59375,0.265625
1696251608021,0.018310547,-0.9656372,0.23504639,-0.625,-0.828125,0.46875
1696251608035,0.007080078,-0.9714966,0.2243042,-0.203125,-0.5,0.234375
1696251608076,0.016601562,-0.97247314,0.23309326,0.5625,-0.75,0.0625
1696251608119,0.013916016,-0.96539307,0.22137451,-0.296875,-1.453125,0.3125
1696251608156,0.0036621094,-0.9837036,0.23236084,0.234375,-0.953125,0.546875
1696251608196,0.013916016,-0.98272705,0.2333374,0.46875,-0.28125,0.265625
1696251608239,0.017822266,-0.9680786,0.22625732,0.734375,-0.6875,0.125
1696251608279,0.022949219,-0.96881104,0.22943115,0.328125,-0.359375,0.25
1696251608317,0.014160156,-0.9702759,0.23309326,0.34375,-0.171875,-0.0625
1696251608355,9.765625E-4,-0.987854,0.2140503,5.28125,0.015625,0.109375
1696251608398,0.030761719,-0.9849243,0.22235107,3.96875,-1.015625,-0.859375
1696251608455,0.0012207031,-0.95513916,0.20428467,1.3125,-1.96875,0.4375
1696251608476,0.010253906,-0.96173096,0.20892334,0.84375,-1.296875,0.09375
1696251608539,9.765625E-4,-0.98931885,0.21160889,-0.828125,0.15625,-0.078125
1696251608577,0.0075683594,-0.9819946,0.21502686,-0.90625,0.0,-0.109375
1696251608618,0.017333984,-0.9612427,0.2111206,-1.6875,0.65625,-1.3125
1696251608635,0.012939453,-0.97247314,0.21380615,-0.546875,0.484375,-0.765625
1696251608699,0.014160156,-0.9783325,0.21746826,-0.875,0.078125,-0.53125
1696251608715,-0.0014648438,-0.9729614,0.22503662,-1.015625,-1.046875,-0.296875
1696251608737,0.0068359375,-0.9697876,0.21697998,-0.625,0.1875,-0.71875
1696251608776,-0.0078125,-0.9834595,0.2164917,-1.125,-0.859375,0.109375
1696251608818,0.0063476562,-0.9758911,0.22210693,-0.71875,-0.078125,0.140625
1696251608858,0.0107421875,-0.9763794,0.22698975,-0.6875,-0.53125,0.40625
1696251608897,0.008300781,-0.96710205,0.22357178,-0.609375,-0.828125,0.5
1696251608936,-0.008056641,-0.96881104,0.2296753,-0.5,-0.5,0.515625
1696251608977,-0.0078125,-0.9829712,0.22381592,-0.09375,0.53125,0.875
1696251609016,0.020019531,-0.96710205,0.22601318,-0.59375,0.21875,1.3125
1696251609058,0.018554688,-0.9776001,0.23309326,1.421875,-1.046875,1.546875
1696251609101,0.0126953125,-0.96759033,0.20306396,0.453125,-1.96875,1.015625
1696251609136,0.0012207031,-0.97320557,0.22845459,-0.734375,-3.21875,0.703125
1696251609176,0.015625,-0.9800415,0.22698975,0.890625,-0.8125,0.6875
1696251609220,0.0063476562,-0.97442627,0.22894287,2.171875,0.625,0.875
1696251609257,0.007080078,-0.96661377,0.22113037,0.703125,0.0625,0.0625
1696251609298,0.009033203,-0.9776001,0.21453857,2.171875,0.390625,0.203125
1696251609336,0.016845703,-0.98223877,0.21331787,0.96875,-0.453125,0.75
1696251609378,0.021972656,-0.9710083,0.21185303,0.203125,-1.421875,0.515625
1696251609417,0.016845703,-0.9507446,0.21624756,0.84375,-2.359375,0.578125
1696251609455,9.765625E-4,-0.98101807,0.2111206,2.0,-0.171875,0.578125
1696251609497,0.013183594,-0.9859009,0.20697021,1.078125,-0.421875,0.421875
1696251609536,0.020507812,-0.9714966,0.20648193,2.515625,-0.453125,0.484375
1696251609578,0.014892578,-0.9714966,0.20159912,0.890625,-1.359375,1.109375
1696251609618,0.024902344,-0.9902954,0.21014404,2.53125,-0.390625,0.796875
1696251609657,0.022460938,-0.9663696,0.19671631,1.703125,-1.65625,0.46875
1696251609698,0.012207031,-0.97662354,0.19403076,1.46875,-1.25,0.65625
1696251609738,0.009033203,-0.9690552,0.18963623,0.46875,-0.90625,0.609375
1696251609776,0.018310547,-0.989563,0.19281006,-0.375,-0.921875,0.359375
1696251609818,0.024902344,-0.9685669,0.18963623,-0.53125,-0.375,-0.53125
1696251609855,0.029541016,-0.97442627,0.18572998,-0.546875,-0.4375,-0.15625
1696251609897,0.014892578,-0.97613525,0.19647217,-0.546875,-0.640625,-0.015625
1696251609936,0.012207031,-0.97540283,0.20477295,-0.625,0.0625,-0.265625
1696251609979,0.017578125,-0.9819946,0.19769287,0.171875,-0.328125,-0.3125
1696251610018,0.01171875,-0.97491455,0.19500732,-0.890625,-1.078125,-0.046875
1696251610057,0.016845703,-0.96759033,0.19329834,-0.484375,-1.421875,-0.1875
1696251610075,0.014160156,-0.97906494,0.20257568,-1.046875,-0.90625,-0.109375
1696251610117,0.013183594,-0.97906494,0.20184326,-0.859375,-0.75,-0.234375
1696251610176,0.0,-0.97125244,0.2008667,-1.859375,0.15625,-0.421875
1696251610219,0.013671875,-0.97906494,0.20379639,-0.671875,0.328125,-0.4375
1696251610234,0.021240234,-0.97491455,0.20721436,-1.828125,0.03125,0.15625
1696251610276,0.009277344,-0.98028564,0.21282959,-0.875,-1.0625,0.09375
1696251610337,0.0126953125,-0.9783325,0.20062256,-1.296875,-0.3125,-0.078125
1696251610355,0.026367188,-0.9776001,0.2098999,-1.078125,-0.34375,-0.734375
1696251610395,0.0029296875,-0.97662354,0.20111084,-0.96875,-1.734375,0.96875
1696251610435,0.0107421875,-0.97198486,0.21868896,-1.40625,-1.078125,0.828125
1696251610476,0.005126953,-0.9631958,0.21942139,-0.828125,-0.421875,-0.0625
1696251610517,0.0036621094,-0.9717407,0.21942139,-0.75,-0.828125,0.359375
1696251610556,0.008056641,-0.97540283,0.21966553,-0.234375,-0.21875,0.453125
1696251610595,0.014160156,-0.9776001,0.21673584,-0.515625,0.3125,0.03125
1696251610659,0.0075683594,-0.97662354,0.21502686,-0.796875,-0.28125,-0.03125
1696251610675,0.011962891,-0.96954346,0.22625732,-0.40625,0.015625,0.4375
1696251610719,0.0126953125,-0.9692993,0.22137451,-0.8125,-0.328125,0.375
1696251610778,0.011474609,-0.9663696,0.22869873,-0.84375,-0.0625,-0.1875
1696251610798,0.008300781,-0.97540283,0.23236084,-1.140625,-0.453125,0.8125
1696251610839,0.0063476562,-0.97906494,0.23651123,0.046875,-0.796875,0.734375
1696251610877,0.0075683594,-0.9661255,0.21502686,-0.828125,-0.3125,0.40625
1696251610917,4.8828125E-4,-0.9717407,0.22113037,-0.78125,-0.34375,1.21875
1696251610956,0.0146484375,-0.9783325,0.2255249,-1.328125,-0.65625,0.875
1696251610995,0.051757812,-0.9651489,0.22601318,-1.84375,0.8125,-0.734375
1696251611035,0.015136719,-0.97125244,0.22381592,0.359375,-0.6875,0.25
1696251611076,0.0056152344,-0.9883423,0.22113037,0.78125,-0.625,1.453125
1696251611116,0.010009766,-0.97003174,0.23553467,0.171875,0.40625,1.234375
1696251611157,0.041748047,-0.9619751,0.22528076,0.640625,-0.140625,0.84375
1696251611198,0.03540039,-0.9714966,0.22576904,1.71875,-1.03125,1.078125
1696251611260,0.009277344,-0.97662354,0.21990967,1.21875,-2.140625,1.21875
1696251611294,0.009521484,-0.97662354,0.23114014,1.609375,-1.5,0.6875
1696251611316,0.017578125,-0.9741821,0.22137451,0.703125,-1.078125,0.859375
1696251611377,0.025390625,-0.9768677,0.21136475,1.515625,-1.421875,0.046875
1696251611396,0.020263672,-0.973938,0.21234131,-0.9375,-1.28125,0.484375
1696251611418,0.01928711,-0.975647,0.2086792,0.484375,-0.46875,-0.09375
1696251611497,0.01953125,-0.972229,0.22161865,-0.109375,0.78125,-0.171875
1696251611507,0.028808594,-0.97198486,0.2230835,-0.1875,-0.40625,-0.109375
1696251611536,0.020019531,-0.97369385,0.20892334,0.5625,-0.65625,0.5
1696251611576,0.038330078,-0.9668579,0.21307373,-0.28125,-0.953125,-0.078125
1696251611616,0.029785156,-0.9727173,0.21209717,1.453125,-1.296875,0.5
1696251611657,0.010986328,-0.9649048,0.20843506,0.203125,-3.28125,1.109375
1696251611696,0.0056152344,-0.97003174,0.22064209,-0.25,-3.40625,0.34375
1696251611736,0.020507812,-0.99468994,0.21453857,1.046875,-1.078125,1.265625
1696251611775,0.018066406,-0.94659424,0.23016357,-1.28125,-1.515625,0.1875
1696251611817,0.016601562,-0.98760986,0.21380615,1.0,-1.34375,0.078125
1696251611856,0.029785156,-0.9758911,0.2255249,0.015625,-0.953125,0.34375
1696251611899,0.016357422,-0.98638916,0.21746826,0.171875,-2.390625,0.4375
1696251611936,0.00390625,-0.9595337,0.20819092,-0.328125,-2.875,0.09375
1696251611977,0.017578125,-0.96417236,0.2243042,-0.046875,-1.796875,1.1875
1696251612015,0.037597656,-0.9763794,0.21746826,-0.59375,-1.328125,0.546875
1696251612056,0.024414062,-0.9763794,0.21356201,-0.59375,-2.171875,-0.09375
1696251612098,0.012451172,-0.9800415,0.21624756,-0.375,-2.4375,0.28125
1696251612138,-9.765625E-4,-0.97125244,0.21282959,-0.59375,-1.546875,0.125
1696251612176,0.011230469,-0.97247314,0.21942139,-1.28125,-0.859375,-0.03125
1696251612216,0.009277344,-0.9883423,0.21307373,-1.03125,-0.140625,0.015625
1696251612256,0.028076172,-0.9734497,0.23040771,-0.359375,1.234375,-0.625
1696251612297,0.032470703,-0.9522095,0.21234131,-0.171875,1.15625,-1.3125
1696251612337,0.020263672,-0.9697876,0.21063232,-0.546875,0.046875,-0.03125
1696251612376,0.02709961,-0.9812622,0.22113037,0.265625,-0.53125,-0.5
1696251612417,0.016357422,-0.98394775,0.2255249,-1.40625,-1.875,0.6875
1696251612457,0.024658203,-0.954895,0.21942139,-0.578125,-1.71875,0.296875
1696251612500,0.022460938,-0.97369385,0.21844482,-0.296875,-1.40625,1.515625
1696251612538,0.025634766,-0.97662354,0.2230835,-0.265625,-1.453125,0.984375
1696251612578,0.020263672,-0.954895,0.21966553,-0.671875,-2.0625,0.671875
1696251612616,0.020263672,-0.97906494,0.21795654,0.328125,-2.03125,1.609375
1696251612656,0.020996094,-0.987854,0.23724365,-0.453125,-2.4375,0.96875
1696251612677,0.012207031,-0.9595337,0.22845459,-0.9375,-4.21875,0.484375
1696251612739,0.022216797,-0.96295166,0.22528076,-0.453125,-4.015625,0.953125
1696251612758,0.021728516,-0.97784424,0.23968506,-1.84375,-4.578125,1.984375
1696251612816,0.022460938,-0.9751587,0.23919678,-0.671875,-5.28125,-0.046875
1696251612835,0.008056641,-0.9649048,0.24041748,-1.25,-7.0,0.4375
1696251612877,0.0031738281,-0.9768677,0.22821045,-0.265625,-7.296875,1.59375
1696251612917,0.040039062,-0.9607544,0.23577881,-1.0,-2.78125,0.34375
1696251612955,0.0061035156,-0.96661377,0.22601318,-0.484375,-1.84375,0.375
1696251612997,-0.0048828125,-0.96588135,0.24041748,-0.65625,-1.125,1.828125
1696251613057,0.03515625,-0.9680786,0.24945068,0.3125,-2.578125,1.28125
1696251613097,0.044677734,-0.97906494,0.2411499,-0.015625,-4.03125,1.796875
1696251613116,0.016113281,-0.97198486,0.2555542,0.15625,-6.171875,2.59375
1696251613180,0.016845703,-0.9898071,0.24310303,-0.5,-8.34375,0.921875
1696251613194,0.032714844,-0.954895,0.23846436,-3.546875,-5.796875,-0.015625
1696251613257,0.0126953125,-0.95562744,0.24163818,-2.796875,-3.859375,1.234375
1696251613276,-0.014892578,-0.9644165,0.2399292,-3.3125,-2.265625,1.3125
1696251613314,0.0014648438,-0.98443604,0.26556396,0.375,-0.0625,1.46875
1696251613356,0.015136719,-0.96954346,0.2687378,0.90625,0.65625,2.78125
