# Sensor type: Respeck
# Activity type: Lying down right
# Activity subtype: Laughing
# Subject id: s2106809
# Notes: unprocessed
timestamp,accel_x,accel_y,accel_z,gyro_x,gyro_y,gyro_z
1696253451717,0.7402344,-0.03717041,0.7189331,-0.015625,0.234375,0.109375
1696253451758,0.7302246,-0.044006348,0.7189331,0.71875,-0.65625,0.03125
1696253451797,0.7253418,-0.042053223,0.72406006,0.828125,-0.578125,0.1875
1696253451837,0.72387695,-0.042785645,0.7091675,1.0625,0.0625,0.25
1696253451878,0.7236328,-0.042297363,0.7211304,1.328125,-0.234375,0.421875
1696253451918,0.72021484,-0.047668457,0.71795654,1.59375,-0.125,0.5625
1696253451958,0.7285156,-0.046936035,0.7177124,1.890625,0.234375,0.3125
1696253451999,0.7270508,-0.039611816,0.7057495,1.5625,0.015625,0.203125
1696253452039,0.7312012,-0.04425049,0.7116089,1.625,0.15625,0.203125
1696253452077,0.72436523,-0.053771973,0.7164917,0.34375,-0.03125,0.421875
1696253452118,0.7336426,-0.04840088,0.7182007,1.09375,-0.109375,0.328125
1696253452158,0.7351074,-0.04547119,0.7160034,0.625,0.59375,0.453125
1696253452197,0.7290039,-0.06817627,0.70965576,0.515625,0.953125,0.84375
1696253452239,0.73217773,-0.054504395,0.7133179,-0.34375,-0.140625,0.8125
1696253452280,0.72998047,-0.04937744,0.7074585,-1.171875,0.328125,0.515625
1696253452319,0.72998047,-0.040100098,0.696228,-1.15625,0.875,0.421875
1696253452360,0.7246094,-0.041809082,0.70965576,-1.09375,0.078125,0.6875
1696253452397,0.7380371,-0.038879395,0.7091675,-0.34375,0.21875,0.6875
1696253452438,0.7426758,-0.04473877,0.69158936,0.390625,0.96875,0.75
1696253452478,0.7451172,-0.0413208,0.6774292,2.96875,3.46875,0.765625
1696253452519,0.7421875,-0.03302002,0.66815186,4.59375,4.828125,0.0625
1696253452560,0.73413086,-0.042053223,0.6781616,12.0,7.328125,-0.171875
1696253452623,0.74072266,-0.05303955,0.7057495,19.78125,10.765625,0.984375
1696253452638,0.8371582,-0.13946533,0.6437378,31.984375,35.609375,12.234375
1696253452684,1.0371094,-0.09136963,0.5072632,-2.296875,27.0625,22.203125
1696253452719,0.72265625,0.059509277,0.7411499,-9.8125,-18.921875,17.90625
1696253452738,0.55126953,-0.007873535,0.55096436,-3.3125,-8.40625,-3.484375
1696253452779,0.80249023,-0.117492676,0.60858154,-3.5625,8.546875,-3.609375
1696253452822,0.84472656,-0.073791504,0.5734253,1.03125,6.390625,2.40625
1696253452858,0.85717773,-0.14508057,0.64837646,-1.046875,-7.234375,-0.015625
1696253452899,0.8227539,0.009216309,0.60565186,-1.75,-0.90625,0.640625
1696253452962,0.8046875,0.0067749023,0.6154175,-4.171875,6.1875,5.0625
1696253453000,0.7980957,-0.015930176,0.64349365,0.75,-2.453125,0.890625
1696253453019,0.7895508,-0.038879395,0.57611084,-0.921875,-1.65625,-1.4375
1696253453060,0.7878418,0.049987793,0.5722046,-3.234375,0.5625,1.734375
1696253453099,0.8059082,-0.012023926,0.61883545,-2.703125,-1.796875,1.390625
1696253453139,0.77124023,-0.06036377,0.6066284,0.40625,1.640625,0.03125
1696253453179,0.83447266,-0.062561035,0.6017456,-3.515625,3.65625,0.109375
1696253453220,0.83984375,-0.014221191,0.5897827,-3.59375,0.15625,0.8125
1696253453262,0.8339844,0.0040893555,0.63397217,-1.796875,-3.09375,-0.953125
1696253453298,0.7922363,-0.0029907227,0.6144409,-6.125,-2.5,0.5
1696253453339,0.7907715,1.8310547E-4,0.60028076,-4.546875,-1.734375,0.640625
1696253453379,0.7770996,-0.0032348633,0.6141968,-2.546875,-2.828125,-1.171875
1696253453419,0.7675781,-0.0049438477,0.6310425,-0.921875,-5.921875,-0.796875
1696253453459,0.80322266,-0.018371582,0.6630249,-1.203125,-0.953125,0.65625
1696253453500,0.83374023,-0.03668213,0.5824585,-3.625,6.140625,1.6875
1696253453540,0.81347656,0.019958496,0.62298584,0.3125,4.21875,2.296875
1696253453579,0.8469238,0.003112793,0.6010132,-2.71875,0.34375,-0.203125
1696253453641,0.8149414,-0.006164551,0.5595093,1.375,5.15625,1.84375
1696253453661,0.8244629,-0.01763916,0.57611084,-0.390625,3.953125,1.65625
1696253453700,0.80078125,0.0048217773,0.5692749,-4.03125,-2.5,1.53125
1696253453741,0.7512207,0.059509277,0.63494873,1.046875,0.4375,-0.765625
1696253453778,0.8273926,0.018249512,0.60565186,0.03125,3.828125,-1.28125
1696253453820,0.8742676,0.0014038086,0.6281128,2.046875,4.46875,1.15625
1696253453860,0.8195801,-0.01373291,0.59417725,-1.921875,-2.59375,1.359375
1696253453898,0.81591797,0.013122559,0.6034546,-1.703125,-1.84375,-1.234375
1696253453939,0.80078125,0.009460449,0.57928467,0.515625,-0.328125,-0.3125
1696253453978,0.81518555,-0.004699707,0.5722046,-0.03125,0.671875,0.84375
1696253454040,0.83081055,0.015075684,0.57244873,-1.953125,-0.796875,1.1875
1696253454059,0.8227539,0.024841309,0.60272217,-0.65625,-1.015625,0.1875
1696253454081,0.8149414,0.0211792,0.604187,0.21875,-0.3125,0.171875
1696253454119,0.8383789,0.0067749023,0.6034546,-1.5625,-0.640625,0.171875
1696253454157,0.81152344,0.009216309,0.602478,-1.921875,0.546875,0.859375
1696253454197,0.8347168,-0.016662598,0.56414795,3.578125,9.515625,0.015625
1696253454237,0.81225586,0.00970459,0.5758667,7.96875,1.71875,0.125
1696253454278,0.8105469,0.01776123,0.57684326,2.890625,-1.359375,-0.40625
1696253454318,0.8251953,0.020935059,0.5739136,-0.796875,-0.234375,0.984375
1696253454362,0.8486328,-0.002746582,0.5668335,0.359375,1.5625,1.75
1696253454400,0.8522949,-0.0012817383,0.5807495,0.140625,-0.328125,1.421875
1696253454440,0.8220215,0.0026245117,0.5685425,-0.796875,-1.84375,0.078125
1696253454478,0.8171387,0.011657715,0.5717163,-0.453125,-0.8125,-0.0625
1696253454518,0.8269043,1.8310547E-4,0.55804443,-2.015625,0.046875,-0.359375
1696253454562,0.8540039,-0.0051879883,0.5963745,-0.75,0.609375,-1.203125
1696253454598,0.81469727,0.011169434,0.5897827,-0.5625,-3.03125,-0.28125
1696253454639,0.82910156,0.035583496,0.5739136,-2.171875,-1.25,0.828125
1696253454681,0.8251953,0.029968262,0.58465576,-2.4375,-0.609375,0.625
1696253454720,0.8276367,-0.023498535,0.5997925,-7.265625,-7.25,-0.546875
1696253454758,0.78027344,0.03778076,0.64471436,-10.0625,-7.09375,-8.0625
1696253454799,0.74780273,0.023132324,0.59417725,2.5625,-7.984375,-10.96875
1696253454840,0.77905273,0.017028809,0.6129761,13.984375,-4.5625,-11.484375
1696253454879,0.83447266,-0.019836426,0.60565186,23.984375,4.75,-9.578125
1696253454918,0.8696289,-0.097961426,0.6144409,18.8125,-1.421875,-8.03125
1696253454958,0.85009766,-0.12579346,0.6256714,1.1875,-13.421875,-5.984375
1696253454998,0.84033203,-0.105773926,0.5883179,-8.015625,-11.96875,-4.265625
1696253455038,0.8054199,-0.07330322,0.58343506,-6.203125,-6.15625,-0.8125
1696253455078,0.74780273,-0.062805176,0.6347046,2.078125,-2.375,3.234375
1696253455118,0.78271484,-0.035949707,0.5973511,-1.921875,0.6875,15.109375
1696253455160,1.0087891,-0.028625488,0.50775146,7.953125,43.0625,31.046875
1696253455198,1.0478516,-0.14239502,0.5289917,-4.25,7.09375,20.09375
1696253455238,0.6455078,0.030944824,0.61932373,12.390625,-18.71875,-4.4375
1696253455285,0.66748047,-0.073791504,0.6144409,-12.25,-10.03125,-2.578125
1696253455339,0.70654297,0.043640137,0.5778198,-1.234375,4.28125,-2.390625
1696253455359,0.8054199,-0.047912598,0.5673218,0.703125,-0.125,-1.984375
1696253455379,0.9255371,-0.04522705,0.5482788,-3.4375,4.609375,1.796875
1696253455418,0.80737305,0.0045776367,0.6364136,-6.328125,-8.90625,0.65625
1696253455460,0.7668457,-0.019348145,0.61224365,-1.6875,-2.078125,-0.875
1696253455499,0.8063965,0.018249512,0.63201904,0.578125,8.8125,1.109375
1696253455538,0.8859863,-0.008850098,0.590271,-4.59375,5.125,2.375
1696253455580,0.8522949,-0.022033691,0.6268921,0.375,-6.71875,0.609375
1696253455618,0.7897949,-0.031311035,0.5380249,-2.40625,-4.109375,-0.71875
1696253455658,0.7753906,0.020935059,0.5722046,0.8125,1.765625,0.21875
1696253455724,0.8232422,-0.006164551,0.590271,-0.28125,1.390625,2.53125
1696253455739,0.8352051,-0.0134887695,0.5993042,-2.3125,-2.046875,-0.359375
1696253455778,0.85131836,0.018005371,0.6259155,-0.671875,0.921875,-0.6875
1696253455820,0.8178711,-0.007385254,0.60809326,-1.984375,-0.140625,1.28125
1696253455858,0.75634766,0.018005371,0.61224365,-0.578125,-5.046875,-1.046875
1696253455899,0.7753906,-3.0517578E-4,0.5841675,-0.8125,-0.328125,-2.6875
1696253455939,0.86279297,-0.0032348633,0.59198,0.828125,5.640625,1.15625
1696253456003,0.8359375,-0.014709473,0.61224365,-1.03125,-0.859375,2.875
1696253456018,0.8161621,0.0079956055,0.6063843,-1.796875,-2.25,-1.15625
1696253456059,0.83251953,0.007751465,0.5372925,2.0625,5.296875,0.359375
1696253456101,0.8876953,0.0036010742,0.6051636,5.734375,2.546875,4.28125
1696253456140,0.7675781,-0.007873535,0.6515503,-1.6875,-8.640625,0.1875
1696253456186,0.7446289,0.019958496,0.57562256,-1.375,-1.046875,-0.4375
1696253456219,0.8713379,0.003112793,0.58099365,3.8125,4.46875,1.296875
1696253456261,0.8203125,0.0036010742,0.63446045,-1.75,-1.859375,0.140625
1696253456300,0.78759766,0.013122559,0.57806396,-5.5,-5.109375,-1.5
1696253456338,0.828125,0.022888184,0.5734253,-2.703125,2.375,-0.703125
1696253456377,0.83325195,1.8310547E-4,0.6039429,1.640625,1.9375,0.578125
1696253456420,0.82788086,-0.030578613,0.5980835,-3.46875,-3.203125,-2.0
1696253456460,0.83862305,-0.0049438477,0.5700073,-1.75,-1.96875,-1.546875
1696253456497,0.8408203,0.009460449,0.57928467,2.359375,1.5,-0.203125
1696253456540,0.8046875,-0.0056762695,0.60369873,-0.421875,-3.203125,1.703125
1696253456581,0.8039551,0.010681152,0.6034546,-2.703125,-2.171875,2.015625
1696253456619,0.7788086,0.031188965,0.59954834,-1.890625,-3.0,0.46875
1696253456659,0.80322266,0.04168701,0.5961304,-1.765625,-0.828125,-0.875
1696253456678,0.7988281,0.018249512,0.62615967,-0.53125,-0.5,0.484375
1696253456718,0.8227539,-0.0095825195,0.6090698,0.34375,0.640625,-0.34375
1696253456760,0.8273926,0.0065307617,0.5975952,-1.125,1.40625,-0.546875
1696253456799,0.8330078,0.011657715,0.58709717,-0.171875,1.453125,0.5625
1696253456839,0.8586426,-0.0017700195,0.5758667,-0.546875,2.609375,2.875
1696253456879,0.8330078,-0.0037231445,0.5795288,-0.296875,-2.5,1.859375
1696253456919,0.7805176,0.0048217773,0.59588623,0.140625,-4.1875,0.53125
1696253456958,0.7741699,0.031188965,0.60687256,-2.4375,-3.15625,-1.71875
1696253457000,0.79956055,0.015563965,0.6124878,-7.515625,-3.5625,-2.578125
1696253457039,0.7536621,0.046569824,0.7040405,0.90625,0.53125,-8.125
1696253457079,0.6623535,-0.0032348633,0.61932373,8.421875,-2.78125,-13.609375
1696253457119,0.7583008,0.013122559,0.6461792,10.65625,-4.25,-14.078125
1696253457157,0.89624023,0.0060424805,0.62542725,14.046875,1.96875,-5.921875
1696253457221,0.9104004,-0.11895752,0.59588623,19.25,2.828125,-4.859375
1696253457241,0.8483887,-0.16656494,0.586853,5.28125,-6.984375,-8.09375
1696253457280,0.8129883,-0.12335205,0.59490967,-6.734375,-10.8125,-3.28125
1696253457320,0.779541,-0.036193848,0.59832764,-9.3125,-8.59375,4.46875
1696253457358,0.7507324,-0.0071411133,0.59661865,-5.109375,-3.71875,7.953125
1696253457400,0.8054199,-0.045715332,0.6119995,4.40625,0.640625,12.609375
1696253457439,1.0009766,-0.03692627,0.5807495,5.375,31.859375,19.5
1696253457478,0.8955078,-0.06939697,0.49871826,1.03125,11.375,19.109375
1696253457517,0.7495117,0.0036010742,0.66400146,9.328125,-14.53125,-2.546875
1696253457558,0.6381836,-0.054992676,0.60687256,-13.0,-8.859375,-6.53125
1696253457597,0.70288086,0.015319824,0.57318115,-5.375,1.28125,-2.75
1696253457638,0.81884766,-0.047180176,0.6364136,2.484375,-1.59375,-1.203125
1696253457678,0.8815918,-0.04034424,0.60272217,-4.828125,3.171875,1.0625
1696253457719,0.84472656,-0.018859863,0.6569214,-7.765625,-7.796875,-1.78125
1696253457759,0.7998047,-0.016418457,0.62420654,1.734375,-0.03125,-1.09375
1696253457798,0.8256836,0.005065918,0.6132202,-0.1875,8.015625,1.390625
1696253457858,0.8359375,-0.005432129,0.6107788,-2.390625,1.765625,5.0
1696253457878,0.7961426,-0.019348145,0.6156616,-2.296875,-5.140625,1.125
1696253457920,0.77319336,-0.011047363,0.5890503,-1.515625,-2.78125,-1.59375
1696253457980,0.7753906,0.02923584,0.6227417,0.265625,3.28125,-0.21875
1696253457999,0.81591797,0.010437012,0.6137085,-0.8125,0.96875,1.578125
1696253458020,0.8300781,-0.018127441,0.61761475,-1.109375,-0.640625,0.8125
1696253458100,0.8383789,-0.014709473,0.586853,-3.328125,1.15625,0.671875
1696253458103,0.81225586,-0.0010375977,0.62298584,-0.0625,0.953125,1.03125
1696253458139,0.80688477,0.00579834,0.58148193,-0.109375,0.1875,0.625
1696253458200,0.80029297,-0.0051879883,0.6054077,-0.34375,-2.171875,0.0
1696253458217,0.7824707,-6.1035156E-5,0.56414795,0.515625,-0.40625,0.53125
1696253458281,0.85961914,-0.009094238,0.60614014,1.96875,3.71875,1.515625
1696253458298,0.80859375,-0.0068969727,0.6432495,0.359375,-3.15625,1.109375
1696253458339,0.76293945,0.030456543,0.62542725,-2.5625,-2.25,-0.484375
1696253458379,0.8535156,0.024353027,0.61761475,-0.671875,3.046875,0.21875
1696253458419,0.80249023,-0.0076293945,0.6166382,1.765625,1.6875,1.4375
1696253458459,0.7871094,-0.034484863,0.55267334,-2.75,-2.390625,-1.78125
1696253458520,0.85058594,0.028747559,0.55682373,-0.8125,0.4375,-3.25
1696253458565,0.81811523,0.010681152,0.57366943,0.4375,1.265625,0.734375
1696253458578,0.81762695,-0.00592041,0.5985718,-1.625,-2.28125,1.828125
1696253458640,0.8112793,-0.012268066,0.5934448,-2.484375,-1.765625,0.28125
1696253458659,0.8239746,0.019714355,0.6281128,0.359375,0.96875,-0.046875
1696253458701,0.80859375,0.009216309,0.6149292,0.328125,-3.984375,-1.0
1696253458757,0.7807617,-0.011779785,0.602478,-0.6875,-1.359375,-1.140625
1696253458778,0.8059082,-0.0020141602,0.59295654,-1.0625,2.703125,-1.015625
1696253458819,0.86499023,0.0040893555,0.5956421,-0.828125,1.359375,-0.3125
1696253458859,0.83813477,-0.008117676,0.5812378,-0.875,-1.59375,1.171875
1696253458919,0.8076172,0.0016479492,0.5980835,-2.09375,-1.296875,1.59375
1696253458940,0.7741699,0.0099487305,0.60150146,0.203125,-0.9375,0.15625
1696253458980,0.8244629,-0.0115356445,0.5897827,-1.890625,-1.6875,-0.171875
1696253459019,0.8144531,0.007751465,0.5997925,-4.6875,-6.328125,-1.140625
1696253459081,0.78149414,0.039489746,0.64593506,-5.046875,-9.28125,-4.4375
1696253459098,0.72558594,0.012634277,0.5988159,2.984375,-7.28125,-5.890625
1696253459140,0.77978516,-0.016906738,0.64056396,7.78125,2.140625,-9.4375
1696253459179,0.81274414,-0.008117676,0.69744873,13.484375,4.171875,-10.1875
1696253459219,0.8083496,-0.06329346,0.62908936,17.125,4.625,-9.28125
1696253459259,0.8486328,-0.12213135,0.61395264,9.0,-3.90625,-5.578125
1696253459278,0.8552246,-0.086242676,0.58709717,-2.8125,-10.515625,-0.78125
1696253459319,0.795166,-0.07891846,0.58758545,-6.484375,-10.78125,-1.8125
1696253459359,0.75634766,-0.07696533,0.6444702,-3.78125,-8.78125,-0.28125
1696253459399,0.7902832,-0.013244629,0.5504761,-6.453125,5.65625,13.046875
1696253459439,0.9772949,0.019958496,0.5477905,-2.171875,26.203125,23.703125
1696253459477,0.84106445,-0.07110596,0.58026123,5.9375,3.09375,15.140625
1696253459521,0.7355957,-0.08331299,0.65130615,-1.859375,-9.203125,-5.359375
1696253459559,0.67333984,-0.0029907227,0.6166382,-11.875,-5.484375,-3.28125
1696253459603,0.75219727,0.058044434,0.6491089,-4.703125,0.015625,-1.0
1696253459639,0.8276367,-0.018615723,0.64471436,-1.640625,-4.0625,-2.234375
1696253459679,0.83935547,-0.07183838,0.6547241,-15.890625,-8.265625,-4.375
1696253459720,0.7468262,0.03387451,0.7045288,-12.9375,-6.765625,-10.75
1696253459759,0.72094727,-0.009338379,0.69451904,17.609375,-3.859375,-8.625
1696253459798,0.7570801,-0.08013916,0.66741943,16.5625,-3.984375,-8.875
1696253459839,0.8017578,-0.043762207,0.62298584,0.234375,-4.65625,1.90625
1696253459879,0.83740234,-0.02960205,0.6022339,4.640625,-1.0625,6.125
1696253459920,0.8173828,-0.006164551,0.670105,6.203125,2.671875,4.1875
1696253459960,0.78515625,-0.0056762695,0.5438843,9.265625,11.78125,9.5
1696253460000,0.84033203,-0.06866455,0.6137085,6.359375,14.109375,16.28125
1696253460038,0.96484375,-0.09210205,0.5055542,1.671875,15.484375,11.265625
1696253460078,0.86450195,-0.02520752,0.7289429,-3.484375,-4.53125,-3.796875
1696253460119,0.6020508,0.04144287,0.6598511,-15.09375,-12.859375,-1.0625
1696253460158,0.6669922,0.0045776367,0.5951538,-1.484375,-3.671875,1.5625
1696253460199,0.77319336,-0.04473877,0.62542725,4.796875,2.703125,-0.53125
1696253460238,0.9013672,-0.058410645,0.68548584,-1.109375,3.4375,1.375
1696253460278,0.8371582,-0.045715332,0.63079834,-6.671875,-7.5,0.171875
1696253460319,0.7651367,-0.0012817383,0.61517334,0.703125,-3.0,-0.421875
1696253460360,0.75683594,0.019714355,0.61761475,-1.234375,8.0,1.5
1696253460401,0.8276367,0.014587402,0.61468506,-4.5,7.59375,3.9375
1696253460441,0.83081055,-0.024719238,0.6264038,-0.9375,-3.1875,1.328125
1696253460479,0.8063965,-0.038879395,0.57684326,-1.53125,-1.828125,-1.125
1696253460521,0.8215332,0.05633545,0.6412964,-1.078125,2.671875,-2.0
1696253460580,0.8137207,0.024108887,0.5951538,-1.46875,0.046875,2.078125
1696253460599,0.82836914,-0.0056762695,0.62835693,-0.875,-2.1875,0.734375
1696253460618,0.7939453,-0.011291504,0.61102295,-5.265625,-2.046875,0.0625
1696253460677,0.8156738,0.019470215,0.63690186,0.3125,1.1875,-0.9375
1696253460721,0.79663086,-0.0010375977,0.6100464,-0.703125,-0.65625,0.140625
1696253460738,0.7675781,0.0048217773,0.63739014,-3.03125,-1.828125,0.328125
1696253460799,0.795166,-6.1035156E-5,0.59368896,-1.546875,0.328125,1.21875
1696253460818,0.81933594,0.03778076,0.6598511,1.4375,2.765625,0.140625
1696253460879,0.82055664,0.007507324,0.6259155,-1.4375,0.59375,1.828125
1696253460899,0.79589844,0.006286621,0.62371826,-1.890625,-0.953125,1.328125
1696253460940,0.80810547,0.0138549805,0.58880615,0.765625,0.171875,0.71875
1696253460980,0.8112793,0.040222168,0.6195679,1.46875,1.640625,-1.4375
1696253461019,0.8239746,0.011169434,0.6090698,-0.859375,-0.0625,0.515625
1696253461058,0.81518555,0.015075684,0.5975952,-2.21875,-2.390625,1.140625
1696253461122,0.80688477,0.025817871,0.6095581,-0.5625,-0.0625,0.140625
1696253461137,0.82910156,0.007751465,0.604187,0.265625,0.0,-1.1875
1696253461178,0.8005371,0.013122559,0.6149292,-1.453125,-0.703125,0.703125
1696253461220,0.79541016,0.029968262,0.6119995,-1.78125,-1.453125,0.796875
1696253461263,0.7961426,0.003112793,0.6029663,1.28125,1.15625,0.359375
1696253461319,0.80737305,0.001159668,0.5975952,-0.171875,0.046875,0.28125
1696253461338,0.8034668,0.023132324,0.61224365,0.78125,1.078125,0.828125
1696253461401,0.8071289,0.015319824,0.5951538,0.28125,2.328125,0.96875
1696253461440,0.8093262,0.015563965,0.6107788,0.5625,-0.203125,0.3125
1696253461481,0.829834,0.0138549805,0.5841675,-0.203125,0.75,-0.890625
1696253461520,0.8312988,0.030456543,0.60565186,1.0,-0.390625,-0.078125
1696253461541,0.8149414,0.023132324,0.5973511,-1.71875,-1.1875,0.75
1696253461598,0.8208008,0.012878418,0.59539795,-0.890625,0.234375,0.875
1696253461619,0.81103516,0.0028686523,0.59783936,0.234375,-0.796875,-0.09375
1696253461660,0.8203125,0.02947998,0.6144409,-1.265625,-1.046875,-0.734375
1696253461699,0.79907227,0.019470215,0.6185913,-1.796875,-2.546875,0.0625
1696253461739,0.7939453,0.014587402,0.6071167,2.546875,0.65625,-0.734375
1696253461779,0.8342285,-0.016418457,0.57611084,0.125,1.890625,-0.65625
1696253461819,0.82421875,0.0289917,0.57977295,0.671875,-1.1875,-0.015625
1696253461861,0.83081055,0.04119873,0.5824585,0.640625,2.0,0.59375
1696253461899,0.8076172,0.024353027,0.5975952,-1.28125,-1.015625,1.875
1696253461918,0.81274414,0.014099121,0.6010132,-1.671875,-0.546875,0.953125
1696253461960,0.8173828,0.019958496,0.6022339,-3.578125,-3.59375,-0.484375
1696253462000,0.81640625,0.024353027,0.62176514,-3.875,-5.15625,-1.171875
1696253462038,0.75683594,0.015075684,0.5975952,-1.34375,-12.5,-3.390625
1696253462079,0.7438965,0.035339355,0.65423584,7.875,-4.34375,-7.890625
1696253462119,0.7409668,-0.016174316,0.6454468,17.0625,-0.71875,-8.703125
1696253462162,0.74243164,-0.049865723,0.64886475,19.4375,3.21875,-8.40625
1696253462197,0.7998047,-0.07550049,0.6246948,11.765625,2.484375,-8.046875
1696253462240,0.8886719,-0.08380127,0.6576538,4.953125,-5.9375,-7.703125
1696253462280,0.89160156,-0.077941895,0.61590576,-7.75,-9.421875,-5.515625
1696253462318,0.8317871,-0.058410645,0.5873413,-12.9375,-10.25,-0.90625
1696253462359,0.7421875,-0.034484863,0.5897827,-5.375,-6.28125,2.296875
1696253462399,0.7429199,-0.027160645,0.63861084,5.671875,2.953125,9.03125
1696253462439,0.94018555,-0.013977051,0.6286011,3.640625,22.203125,20.8125
1696253462479,0.95043945,-0.11798096,0.48944092,-0.765625,24.265625,24.234375
1696253462517,0.7216797,-0.01739502,0.7592163,-0.890625,-10.46875,2.890625
1696253462558,0.6374512,-0.0071411133,0.6124878,-4.296875,-12.25,-9.453125
1696253462598,0.71313477,0.0014038086,0.605896,-1.125,3.46875,-3.109375
1696253462639,0.82373047,0.0021362305,0.5951538,2.734375,0.375,1.953125
1696253462679,0.84472656,-0.050354004,0.5787964,0.4375,5.234375,3.4375
1696253462720,0.8408203,-0.0335083,0.5795288,-3.890625,0.875,1.828125
1696253462759,0.7805176,0.022644043,0.64837646,-3.234375,-5.203125,-0.15625
1696253462799,0.7751465,-0.0064086914,0.5988159,3.21875,2.71875,-0.203125
1696253462839,0.83935547,-3.0517578E-4,0.61932373,-1.4375,3.0,1.609375
1696253462881,0.8395996,-0.0022583008,0.5968628,-5.265625,-2.703125,2.890625
1696253462920,0.7937012,-0.008117676,0.6078491,-0.09375,-4.71875,-1.34375
1696253462960,0.7624512,0.019226074,0.5824585,-2.28125,-0.15625,-1.703125
1696253463001,0.828125,-0.020324707,0.5778198,-3.484375,1.515625,2.0625
1696253463038,0.82592773,-0.006164551,0.60565186,-0.4375,-1.125,0.5625
1696253463078,0.8466797,-0.0012817383,0.63690186,-4.09375,-2.234375,-0.359375
1696253463140,0.7902832,0.028015137,0.6071167,-3.375,-1.71875,0.734375
1696253463158,0.8066406,-0.0029907227,0.60076904,1.1875,0.46875,-1.046875
1696253463221,0.8039551,0.007507324,0.61468506,1.78125,2.890625,-1.25
1696253463238,0.8222656,-0.013244629,0.6078491,-3.203125,-0.828125,0.203125
1696253463259,0.7988281,0.005554199,0.62127686,-1.03125,-1.9375,-1.390625
1696253463300,0.79003906,0.024597168,0.6029663,-6.84375,4.765625,-1.765625
1696253463363,0.9182129,0.014343262,0.54803467,-6.203125,-0.453125,-1.984375
1696253463378,0.80566406,0.023620605,0.6054077,-1.5,-2.125,-2.984375
1696253463442,0.74316406,0.019714355,0.6137085,-6.0,-6.328125,1.96875
1696253463458,0.76660156,-0.024719238,0.63812256,-3.046875,-0.828125,2.546875
1696253463520,0.8273926,-0.016418457,0.6378784,2.671875,4.609375,0.421875
1696253463538,0.8173828,0.006286621,0.6286011,-0.25,-3.203125,-0.203125
1696253463581,0.81640625,0.023620605,0.6046753,-1.84375,-3.765625,-0.375
1696253463620,0.7961426,0.02142334,0.6132202,-3.125,-1.328125,-1.03125
1696253463660,0.77490234,0.031677246,0.6552124,5.0625,-0.828125,-4.15625
1696253463719,0.7470703,0.0079956055,0.64056396,9.40625,-5.34375,-7.78125
1696253463739,0.76586914,0.0028686523,0.59417725,15.375,-3.453125,-8.609375
1696253463781,0.7260742,-0.0071411133,0.6207886,16.234375,-0.34375,-4.109375
1696253463822,0.8149414,-0.08380127,0.6366577,13.734375,0.015625,-3.796875
1696253463861,0.91748047,-0.13165283,0.6552124,3.0625,-5.1875,-4.65625
1696253463899,0.8703613,-0.09552002,0.6022339,-11.515625,-8.828125,-3.28125
1696253463960,0.8210449,-0.023010254,0.5961304,-9.078125,-7.65625,1.484375
1696253463979,0.79248047,0.0067749023,0.5499878,3.59375,6.921875,13.0
1696253464040,0.9187012,-0.0569458,0.5350952,4.90625,31.0,22.875
1696253464057,0.8742676,-0.04937744,0.56463623,-2.6875,9.421875,16.546875
1696253464121,0.8198242,0.026550293,0.73553467,3.609375,-9.5,-3.625
1696253464161,0.68066406,0.015563965,0.5944214,-11.671875,-9.734375,0.625
1696253464178,0.65063477,0.05657959,0.63812256,-0.46875,-5.390625,-0.96875
1696253464219,0.83081055,-0.050354004,0.6535034,1.8125,-1.203125,-3.453125
1696253464259,0.8720703,-0.08087158,0.6012573,-5.484375,4.78125,1.25
1696253464300,0.8251953,0.0014038086,0.62615967,-2.765625,-0.65625,-0.1875
1696253464339,0.78759766,0.0072631836,0.58514404,-0.890625,-1.28125,-2.53125
1696253464380,0.7817383,0.02532959,0.557312,1.578125,6.1875,1.78125
1696253464421,0.82910156,0.015319824,0.5939331,-1.34375,-0.125,2.546875
1696253464458,0.8442383,0.023132324,0.62786865,-3.296875,-2.609375,0.734375
1696253464540,0.78466797,0.0289917,0.5997925,-2.828125,-2.15625,0.65625
1696253464542,0.78125,0.020690918,0.6144409,0.109375,-2.421875,-1.078125
1696253464558,0.814209,-0.018615723,0.60614014,-1.9375,0.8125,0.09375
1696253464599,0.8364258,-0.011291504,0.62542725,-2.75,-0.734375,0.015625
1696253464641,0.79663086,0.024597168,0.6676636,1.046875,0.984375,-0.59375
1696253464681,0.7775879,-0.00592041,0.6029663,-1.46875,6.8125,1.03125
1696253464719,0.77197266,-0.00982666,0.5565796,-0.28125,3.578125,3.78125
1696253464761,0.87939453,0.014587402,0.5675659,-0.640625,2.0625,-1.8125
1696253464799,0.88256836,0.02166748,0.5560913,1.3125,-1.90625,-1.625
1696253464838,0.80566406,0.051208496,0.5829468,-2.8125,-5.015625,1.8125
1696253464879,0.77001953,0.035583496,0.604187,-3.671875,-2.25,2.859375
1696253464921,0.8322754,-0.0025024414,0.6190796,0.28125,2.75,-0.34375
1696253464961,0.8300781,-0.027893066,0.61395264,-1.75,-0.46875,-1.796875
1696253464999,0.810791,-0.010559082,0.59490967,1.5,-2.984375,-0.046875
1696253465041,0.81933594,0.020202637,0.5831909,3.484375,-0.171875,1.21875
1696253465081,0.79663086,0.030456543,0.5932007,-0.875,-0.75,2.15625
1696253465122,0.8137207,0.023132324,0.5787964,-0.453125,1.421875,2.15625
1696253465159,0.81225586,0.06732178,0.61834717,-1.96875,-1.296875,0.421875
1696253465198,0.79125977,0.057556152,0.5883179,-2.3125,-0.953125,-0.25
1696253465240,0.8161621,0.0028686523,0.59417725,-1.953125,-1.25,-0.609375
1696253465281,0.8457031,-0.00982666,0.5946655,-0.90625,1.171875,-0.4375
1696253465320,0.8352051,-0.003967285,0.5751343,-0.640625,-0.171875,-0.328125
1696253465361,0.82836914,0.03753662,0.61151123,-1.3125,-1.5,-0.578125
1696253465403,0.8078613,0.030700684,0.6124878,-0.421875,-1.34375,1.140625
1696253465441,0.8234863,0.026550293,0.62420654,1.109375,-0.546875,0.46875
1696253465479,0.8063965,0.032165527,0.6195679,3.09375,-2.859375,-0.046875
1696253465521,0.782959,0.024108887,0.6034546,1.375,-0.046875,0.015625
1696253465559,0.7805176,0.018005371,0.60809326,-0.265625,2.109375,-1.90625
1696253465597,0.8078613,0.030212402,0.5961304,1.65625,0.234375,-6.140625
1696253465637,0.72631836,0.018737793,0.52923584,8.921875,-3.859375,-6.59375
1696253465679,0.7841797,-0.015930176,0.59198,22.40625,-1.65625,-7.484375
1696253465720,0.84228516,-0.08721924,0.61517334,17.546875,1.25,-8.015625
1696253465759,0.86450195,-0.08111572,0.664978,8.109375,1.84375,-6.75
1696253465803,0.8859863,-0.07940674,0.65252686,0.765625,-5.171875,-6.25
1696253465838,0.888916,-0.06817627,0.5722046,-4.15625,-8.734375,-3.8125
1696253465859,0.81811523,-0.055480957,0.54559326,-4.9375,-3.921875,-1.578125
1696253465899,0.7783203,-0.06378174,0.58514404,-0.359375,-6.53125,-0.03125
1696253465939,0.7558594,-0.07159424,0.6246948,1.6875,-7.828125,0.375
1696253465980,0.7043457,-0.051818848,0.6503296,-1.328125,-9.140625,2.78125
1696253466019,0.751709,-0.038146973,0.56707764,-0.078125,-2.5625,11.046875
1696253466059,0.9733887,-0.027648926,0.5805054,3.53125,31.46875,20.34375
1696253466098,0.9440918,-0.14630127,0.5241089,-3.421875,18.640625,21.765625
1696253466141,0.85058594,-0.034729004,0.7518921,6.390625,-8.984375,-1.65625
1696253466178,0.6411133,-0.042297363,0.5848999,-18.59375,-16.046875,-6.796875
1696253466220,0.6254883,0.06854248,0.5609741,-4.765625,-3.453125,-3.84375
1696253466260,0.82373047,-0.0010375977,0.602478,9.0625,4.0,-0.140625
1696253466301,0.88012695,-0.0725708,0.57684326,-1.703125,2.828125,4.4375
1696253466359,0.86499023,0.016296387,0.6618042,-6.921875,-6.28125,-2.875
1696253466379,0.77856445,0.014831543,0.63446045,-3.34375,-3.875,-0.5
1696253466420,0.7939453,-0.026184082,0.58880615,4.09375,5.515625,1.109375
1696253466461,0.8342285,-0.008605957,0.6498413,-2.390625,1.0625,0.40625
1696253466500,0.8054199,-0.02960205,0.59490967,-4.609375,-0.34375,3.640625
1696253466539,0.7895508,-0.0025024414,0.5946655,0.875,-2.5,0.109375
1696253466602,0.7910156,0.020446777,0.6161499,0.015625,1.328125,-2.953125
1696253466620,0.8327637,0.010681152,0.5939331,-0.71875,4.0,-0.90625
1696253466658,0.80200195,0.028259277,0.6124878,-1.4375,-2.0,1.609375
1696253466700,0.85668945,-0.03302002,0.62493896,-0.640625,-2.59375,1.625
1696253466761,0.8137207,-0.012756348,0.6317749,-3.28125,-1.59375,0.9375
1696253466780,0.7883301,0.010681152,0.618103,-1.84375,-1.171875,-0.75
1696253466819,0.7746582,-0.009338379,0.57489014,-0.65625,-2.0625,-1.125
1696253466861,0.8234863,0.0119018555,0.63275146,2.765625,7.59375,0.546875
1696253466899,0.83740234,-0.023986816,0.576355,0.015625,5.6875,4.109375
1696253466961,0.85717773,0.014343262,0.5997925,-4.109375,-5.75,-0.578125
1696253466979,0.8039551,0.04437256,0.62323,-1.953125,-0.140625,-0.9375
1696253467020,0.7800293,0.018005371,0.6178589,-3.28125,0.125,0.328125
1696253467079,0.8015137,-0.0134887695,0.5890503,-5.1875,-0.46875,-0.328125
1696253467098,0.8210449,-5.493164E-4,0.60614014,-2.71875,2.140625,-0.84375
1696253467162,0.8581543,0.0060424805,0.55389404,-1.796875,2.96875,-0.875
1696253467178,0.8527832,-0.003479004,0.57318115,1.875,1.984375,-0.53125
1696253467199,0.81811523,0.010925293,0.5639038,-6.078125,-3.46875,-0.6875
1696253467238,0.8017578,0.04486084,0.6054077,0.0,-2.046875,-0.90625
1696253467278,0.8132324,0.0119018555,0.6090698,1.75,0.125,1.359375
1696253467319,0.79785156,1.8310547E-4,0.59002686,-1.625,-1.78125,2.234375
1696253467359,0.7883301,0.007751465,0.6161499,-0.15625,-0.21875,0.0625
1696253467400,0.79589844,0.012145996,0.5795288,-1.71875,1.640625,-0.265625
1696253467439,0.8383789,0.032409668,0.6107788,1.421875,2.28125,-0.5
1696253467478,0.8654785,-0.008850098,0.56463623,-1.921875,0.09375,-0.640625
1696253467519,0.8132324,0.031677246,0.59198,-1.140625,0.546875,-0.421875
1696253467558,0.8120117,0.02508545,0.5866089,0.6875,3.421875,0.9375
1696253467600,0.7841797,0.010925293,0.5470581,1.328125,-2.671875,0.640625
1696253467639,0.8391113,0.034606934,0.59417725,-0.71875,-0.875,-0.53125
1696253467680,0.86499023,0.0014038086,0.58709717,0.234375,-0.875,0.296875
1696253467720,0.8100586,0.02142334,0.6022339,0.59375,-1.6875,0.28125
1696253467759,0.80737305,-0.0029907227,0.59588623,-2.265625,-0.75,0.28125
1696253467801,0.8273926,0.007507324,0.62005615,1.21875,2.171875,0.609375
1696253467839,0.82250977,0.014587402,0.5927124,-0.703125,-0.015625,0.78125
1696253467878,0.83935547,0.03729248,0.5853882,0.96875,0.546875,-0.828125
1696253467918,0.85717773,-0.010803223,0.5548706,-0.265625,-0.015625,-0.59375
1696253467959,0.79785156,0.019714355,0.5734253,1.234375,-1.84375,0.296875
1696253467999,0.82666016,0.029724121,0.57562256,0.21875,-0.921875,0.015625
1696253468038,0.826416,0.017028809,0.5829468,-0.109375,0.6875,0.71875
1696253468078,0.8249512,0.0138549805,0.588562,-1.59375,-1.84375,0.828125
1696253468122,0.81933594,0.020935059,0.6017456,-0.21875,-1.4375,0.03125
1696253468159,0.8195801,0.003112793,0.5873413,-0.015625,-0.78125,0.546875
1696253468199,0.83691406,-0.009338379,0.58270264,-0.8125,-0.25,-0.1875
1696253468241,0.8405762,0.008972168,0.58026123,-2.5,-1.375,-0.859375
1696253468278,0.8112793,0.026062012,0.5790405,-2.109375,-2.25,-0.46875
1696253468319,0.8195801,0.032165527,0.60150146,-4.0,-2.171875,-0.78125
1696253468358,0.7458496,0.043640137,0.6185913,1.375,-6.5625,-4.421875
1696253468408,0.701416,0.030700684,0.60980225,5.953125,-10.578125,-6.265625
1696253468480,0.7434082,-0.012268066,0.5988159,18.96875,0.265625,-8.96875
1696253468483,0.84716797,-0.07598877,0.6156616,21.046875,1.609375,-9.21875
1696253468500,0.935791,-0.10406494,0.67962646,12.234375,-4.59375,-10.609375
1696253468562,0.9067383,-0.08062744,0.6347046,-7.03125,-9.0,-5.8125
1696253468599,0.8220215,-0.045959473,0.58026123,-4.828125,-2.765625,-0.703125
1696253468619,0.77197266,-0.06549072,0.55340576,3.625,-1.328125,-0.875
1696253468661,0.75341797,-0.086242676,0.6107788,3.671875,-5.859375,0.578125
1696253468699,0.75683594,-0.07965088,0.62323,-6.859375,-10.171875,3.75
1696253468740,0.76293945,-0.032043457,0.680603,-5.796875,-5.703125,8.640625
1696253468780,0.9091797,-0.024230957,0.5548706,-5.890625,21.375,17.421875
1696253468818,0.9638672,-0.108947754,0.4701538,-3.359375,33.96875,20.328125
1696253468858,0.9277344,0.07952881,0.8241577,6.78125,-4.734375,0.09375
1696253468899,0.6435547,-0.02130127,0.6029663,-9.4375,-13.640625,-3.0
1696253468940,0.60498047,0.021911621,0.6012573,-7.359375,-7.703125,-1.828125
1696253468980,0.7993164,-0.05670166,0.6168823,4.953125,1.28125,-0.609375
1696253469019,0.8630371,-0.062072754,0.5848999,-0.53125,4.671875,1.65625
1696253469059,0.9057617,0.013122559,0.6383667,-2.25,-3.390625,-2.734375
1696253469122,0.7956543,0.03656006,0.63201904,-3.0,-3.90625,0.6875
1696253469161,0.8076172,-0.013000488,0.60614014,2.5,7.9375,0.765625
1696253469178,0.8232422,-0.02130127,0.57611084,-2.375,-0.125,0.921875
1696253469238,0.8417969,-0.013244629,0.6017456,-5.609375,-0.828125,3.671875
1696253469257,0.7609863,0.022888184,0.58929443,-1.71875,-4.84375,1.875
1696253469320,0.75756836,0.008483887,0.59832764,-4.421875,-3.765625,-1.625
1696253469338,0.77612305,-0.013000488,0.5775757,-10.15625,-6.203125,-2.234375
1696253469400,0.80981445,0.059265137,0.6664429,-9.953125,-5.6875,-5.171875
1696253469418,0.74731445,0.04534912,0.70965576,-0.59375,-6.0625,-6.546875
1696253469482,0.77441406,-0.0071411133,0.6251831,6.515625,-9.578125,-7.4375
1696253469498,0.7675781,-0.050842285,0.65960693,21.015625,-0.890625,-9.359375
1696253469540,0.8327637,-0.105285645,0.6486206,16.5,-3.640625,-8.015625
1696253469579,0.8586426,-0.077697754,0.62176514,-2.625,-10.828125,-1.90625
1696253469640,0.81030273,0.031188965,0.6334839,-13.140625,-3.984375,6.34375
1696253469682,0.7648926,0.03753662,0.5360718,4.046875,11.140625,12.9375
1696253469697,0.8901367,-0.11871338,0.56048584,20.671875,31.1875,14.125
1696253469763,0.9621582,-0.113342285,0.5578003,0.46875,16.15625,12.609375
1696253469778,0.78222656,0.054382324,0.607605,-3.046875,-12.90625,0.984375
1696253469799,0.6569824,0.05316162,0.56536865,-0.90625,-2.109375,-1.828125
1696253469840,0.6894531,0.059509277,0.6430054,-2.140625,-1.4375,-1.078125
1696253469882,0.79248047,-0.105773926,0.6576538,4.421875,0.796875,-4.640625
1696253469924,0.87475586,-0.15411377,0.5939331,-10.09375,-1.625,-1.640625
1696253469961,0.92041016,-0.019592285,0.59539795,-4.4375,1.46875,-0.96875
1696253469999,0.78466797,0.05267334,0.63934326,3.15625,-5.1875,-1.0
1696253470039,0.7475586,-0.008361816,0.5778198,-0.6875,3.515625,3.265625
1696253470080,0.8405762,0.022399902,0.6234741,-2.078125,8.359375,2.78125
1696253470120,0.8496094,0.008239746,0.58880615,9.625,5.71875,5.59375
1696253470161,0.748291,0.020690918,0.57928467,2.796875,-4.640625,2.625
1696253470199,0.79418945,0.023376465,0.58270264,-0.40625,2.71875,0.015625
1696253470241,0.82666016,0.00970459,0.6276245,1.34375,5.84375,-0.03125
1696253470282,0.8432617,-0.047668457,0.5997925,-4.328125,-0.453125,-0.671875
1696253470320,0.8535156,-0.06402588,0.61761475,-5.15625,-1.046875,-3.625
1696253470361,0.8300781,-0.013244629,0.5790405,-1.25,-0.0625,-2.109375
1696253470399,0.8059082,-0.023742676,0.5216675,-1.421875,0.5,-0.75
1696253470439,0.8391113,0.0014038086,0.58148193,0.65625,-0.0625,2.3125
1696253470479,0.8203125,-0.023742676,0.5778198,-4.6875,-3.546875,-0.265625
1696253470520,0.8322754,-0.012268066,0.590271,-4.21875,-2.140625,-2.5
1696253470559,0.83618164,-0.0056762695,0.54364014,3.765625,-1.671875,-0.484375
1696253470599,0.8310547,0.00970459,0.62786865,6.375,-0.0625,2.546875
1696253470640,0.7697754,-0.019104004,0.6119995,-4.03125,-2.78125,4.234375
1696253470680,0.82910156,-0.010803223,0.5709839,-3.8125,1.90625,1.5
1696253470722,0.82128906,-0.0032348633,0.58929443,2.421875,-0.421875,-0.75
1696253470760,0.8166504,0.007751465,0.58880615,-1.59375,0.625,0.25
1696253470802,0.7805176,0.0060424805,0.57318115,-3.21875,-2.03125,1.21875
1696253470840,0.83569336,-0.0095825195,0.55755615,-1.578125,3.265625,-0.390625
1696253470879,0.84399414,-0.0020141602,0.57073975,0.578125,0.0625,-1.03125
1696253470921,0.87719727,0.018981934,0.5907593,-1.796875,-0.109375,-1.203125
1696253470960,0.8046875,-0.0037231445,0.59246826,-0.59375,-2.234375,1.234375
1696253471000,0.81811523,-0.012756348,0.5848999,-2.296875,0.484375,0.9375
1696253471040,0.82470703,-7.9345703E-4,0.58758545,0.921875,0.53125,-0.265625
1696253471101,0.82470703,0.0014038086,0.5866089,-0.796875,-0.328125,0.140625
1696253471104,0.8166504,0.0038452148,0.5841675,-0.84375,-0.609375,0.734375
1696253471140,0.8251953,0.013366699,0.58099365,-0.921875,0.515625,1.25
1696253471203,0.8186035,-0.0051879883,0.5651245,0.09375,0.25,1.046875
1696253471218,0.82910156,-3.0517578E-4,0.5829468,0.1875,-0.59375,0.96875
1696253471261,0.8120117,0.008483887,0.57928467,-0.9375,0.25,1.28125
1696253471301,0.8347168,0.008239746,0.5778198,-0.953125,0.640625,1.125
1696253471340,0.8483887,0.0016479492,0.55804443,-0.953125,0.171875,-0.109375
1696253471403,0.85253906,0.014099121,0.57073975,-0.046875,1.09375,-0.34375
1696253471421,0.8413086,-0.002746582,0.5726929,0.265625,0.84375,1.03125
1696253471461,0.82006836,0.00970459,0.56781006,-0.671875,-1.140625,1.1875
1696253471501,0.80493164,0.013122559,0.56170654,-1.921875,-1.796875,0.109375
1696253471543,0.8276367,0.013366699,0.5807495,-1.3125,0.796875,-1.09375
1696253471584,0.8366699,0.032165527,0.59173584,2.53125,3.40625,-1.9375
1696253471618,0.7949219,0.021911621,0.60028076,6.734375,-7.765625,0.09375
1696253471660,0.75756836,-0.012512207,0.5697632,7.515625,-6.6875,0.140625
1696253471700,0.79174805,-0.059631348,0.5700073,2.0625,-4.859375,-1.1875
1696253471741,0.857666,-0.003967285,0.63861084,-0.0625,1.5,-5.1875
1696253471780,0.87158203,-0.0056762695,0.64959717,2.609375,5.84375,-7.140625
1696253471842,0.8359375,-0.046691895,0.5585327,3.84375,-4.625,-7.546875
1696253471858,0.8034668,-0.038146973,0.5553589,5.34375,-10.546875,-9.3125
1696253471900,0.79956055,-0.041809082,0.5704956,3.0625,-10.046875,-7.53125
1696253471940,0.8249512,-0.035949707,0.58099365,-2.71875,-5.78125,-1.75
1696253471979,0.8076172,-0.058654785,0.60321045,-6.46875,-5.84375,2.140625
1696253472021,0.78637695,-0.078186035,0.61712646,-9.3125,-10.484375,1.421875
1696253472061,0.75634766,-0.0056762695,0.670105,-5.390625,-8.15625,-0.71875
1696253472101,0.79467773,-0.046936035,0.6664429,8.453125,2.015625,1.578125
1696253472161,0.8144531,-0.045959473,0.66815186,11.265625,13.1875,12.15625
1696253472179,0.8798828,-0.05206299,0.54071045,5.4375,30.15625,18.8125
1696253472219,0.91625977,-0.051574707,0.39569092,6.390625,14.421875,16.015625
1696253472262,0.8417969,0.0289917,0.7262573,7.859375,-7.125,-3.484375
1696253472300,0.720459,-0.050842285,0.55096436,-9.3125,-3.796875,-1.40625
1696253472363,0.7297363,0.043151855,0.58221436,-9.984375,-2.8125,-0.421875
1696253472378,0.80981445,-0.035949707,0.5922241,-0.28125,-1.71875,-0.875
1696253472399,0.86157227,-0.07940674,0.5668335,-3.640625,-2.453125,-2.78125
1696253472438,0.8713379,-0.027893066,0.5975952,-2.578125,-2.078125,-1.9375
1696253472478,0.8149414,0.009216309,0.6168823,-2.703125,-3.65625,-0.078125
1696253472518,0.79296875,-0.008605957,0.59246826,-3.421875,1.65625,1.3125
1696253472558,0.79125977,-0.014221191,0.5856323,-3.90625,-0.59375,2.21875
1696253472598,0.81762695,-0.019836426,0.58807373,0.125,2.1875,2.328125
1696253472639,0.81469727,0.0067749023,0.59368896,-1.109375,-2.140625,1.078125
1696253472680,0.7770996,0.0119018555,0.5475464,-1.703125,1.15625,0.09375
1696253472721,0.89038086,0.012390137,0.6156616,-0.140625,4.21875,0.28125
1696253472760,0.8911133,-0.047424316,0.58929443,3.078125,1.515625,5.265625
1696253472799,0.8378906,0.002380371,0.62835693,-1.21875,-6.25,2.234375
1696253472839,0.74560547,0.038269043,0.6137085,-3.734375,-4.703125,1.046875
1696253472879,0.75146484,0.042175293,0.5841675,1.390625,0.84375,-0.125
1696253472921,0.8046875,0.018249512,0.5848999,0.90625,-0.609375,-1.296875
1696253472960,0.8491211,-0.0012817383,0.53704834,-3.4375,-0.15625,-0.4375
1696253472999,0.8618164,0.02923584,0.59124756,0.578125,1.484375,0.40625
1696253473043,0.83862305,-0.0051879883,0.6046753,-4.40625,-1.5625,-0.03125
1696253473079,0.8378906,0.026062012,0.61761475,-0.71875,-0.015625,-0.453125
1696253473120,0.8195801,0.006286621,0.5878296,2.453125,0.171875,-1.203125
1696253473161,0.8779297,-0.016174316,0.5829468,3.0,2.859375,0.328125
1696253473199,0.8171387,-0.023010254,0.56829834,3.09375,-0.03125,1.28125
1696253473239,0.7766113,6.713867E-4,0.5944214,1.15625,-4.703125,-1.453125
1696253473280,0.7766113,0.023620605,0.56781006,-1.15625,-0.5625,-1.546875
1696253473322,0.7976074,0.03265381,0.59002686,-3.640625,-1.15625,-0.65625
1696253473360,0.82177734,0.012145996,0.59954834,-0.390625,1.359375,1.203125
1696253473400,0.8444824,-0.014465332,0.60150146,-2.375,-1.53125,0.609375
1696253473440,0.79541016,0.014587402,0.60809326,-0.953125,-3.765625,-2.125
1696253473480,0.83081055,-0.0037231445,0.60614014,2.59375,3.375,-2.296875
1696253473518,0.8083496,-0.0025024414,0.6088257,2.328125,1.921875,-0.015625
1696253473561,0.8166504,-0.0049438477,0.5968628,-0.984375,0.046875,0.875
1696253473600,0.82788086,-0.010803223,0.5531616,0.109375,0.453125,0.453125
1696253473639,0.8430176,-0.0020141602,0.5673218,0.546875,0.140625,0.71875
1696253473680,0.8251953,0.011169434,0.56243896,-1.390625,-1.59375,-0.5
1696253473719,0.83154297,0.0033569336,0.5704956,0.234375,0.75,0.03125
1696253473739,0.8322754,0.0033569336,0.5895386,0.140625,0.015625,0.421875
1696253473780,0.8310547,-7.9345703E-4,0.5890503,0.71875,-1.046875,-0.453125
1696253473839,0.83496094,-0.014953613,0.57928467,-0.828125,-1.25,-0.203125
1696253473858,0.8359375,-0.010070801,0.5841675,0.53125,0.9375,0.125
1696253473899,0.81884766,0.008483887,0.56781006,-1.484375,-1.203125,0.25
1696253473939,0.78881836,0.036315918,0.5836792,-1.046875,-1.421875,0.1875
1696253474002,0.814209,0.007507324,0.59490967,-1.3125,0.1875,-0.15625
1696253474019,0.8046875,-0.010314941,0.5856323,-2.125,-3.1875,0.578125
1696253474080,0.75024414,0.03265381,0.5946655,-6.921875,-13.46875,0.21875
1696253474120,0.68847656,0.050720215,0.60614014,2.71875,-8.984375,-3.265625
1696253474139,0.7780762,-0.010803223,0.62005615,10.609375,2.453125,-9.09375
1696253474201,0.8742676,-0.046203613,0.6552124,14.125,1.78125,-14.359375
1696253474220,0.9074707,-0.055725098,0.64520264,13.390625,-5.46875,-14.40625
1696253474259,0.9086914,-0.059387207,0.6522827,8.78125,-5.59375,-7.71875
1696253474300,0.8564453,-0.10601807,0.6190796,6.84375,-0.59375,0.828125
1696253474339,0.78930664,-0.13922119,0.57318115,0.59375,-5.359375,3.53125
1696253474379,0.74731445,-0.09039307,0.58148193,-6.546875,-9.796875,2.625
1696253474422,0.7404785,-0.05596924,0.6334839,-4.875,-8.796875,2.0
1696253474460,0.7746582,-0.061340332,0.6203003,-5.703125,0.671875,9.953125
1696253474499,0.99658203,-0.014709473,0.59588623,0.0625,32.703125,23.640625
1696253474561,0.95336914,-0.019348145,0.4743042,-0.890625,20.5,19.921875
1696253474599,0.734375,0.12664795,0.80804443,14.984375,-13.6875,-0.625
1696253474618,0.6472168,-0.101379395,0.5980835,-13.453125,-15.640625,-2.515625
1696253474659,0.7050781,0.0138549805,0.61517334,-3.65625,1.15625,-5.109375
1696253474720,0.87890625,-0.089416504,0.57928467,4.75,-1.875,-5.125
1696253474738,0.8835449,-0.022766113,0.5656128,-4.0625,-2.046875,3.640625
1696253474781,0.7468262,0.054138184,0.65496826,-5.03125,-5.578125,2.328125
1696253474841,0.7819824,0.030700684,0.65179443,-4.515625,2.984375,2.75
1696253474880,0.80078125,-0.0115356445,0.6220093,3.203125,11.0,1.90625
1696253474899,0.8935547,-0.07232666,0.62249756,-2.265625,0.40625,0.09375
1696253474960,0.8288574,-0.010559082,0.56463623,-1.890625,-4.625,-0.5625
1696253474979,0.75512695,0.03265381,0.5602417,0.046875,-0.03125,0.265625
1696253475020,0.7897949,-0.014953613,0.5853882,-2.125,1.90625,0.625
1696253475037,0.7897949,-0.01739502,0.5932007,1.328125,4.15625,0.484375
1696253475079,0.8552246,-0.012268066,0.5709839,-1.6875,-0.4375,0.0625
1696253475121,0.84936523,0.04949951,0.6310425,-1.53125,-1.8125,0.65625
1696253475159,0.826416,0.0072631836,0.62176514,-5.765625,-2.046875,0.21875
1696253475199,0.77441406,-0.022033691,0.607605,-4.59375,-2.359375,-1.515625
1696253475240,0.798584,-0.019348145,0.6100464,-7.78125,-3.734375,-2.609375
1696253475279,0.7663574,0.04119873,0.6954956,-6.859375,-0.078125,-5.09375
1696253475320,0.7421875,0.04949951,0.62054443,5.765625,2.703125,-6.046875
1696253475360,0.69433594,0.0014038086,0.57733154,19.21875,-1.96875,-9.28125
1696253475398,0.77685547,-0.04888916,0.58587646,18.96875,1.96875,-12.03125
1696253475439,0.8696289,-0.09161377,0.6119995,15.0625,-4.578125,-8.0
1696253475479,0.93725586,-0.15118408,0.64471436,3.328125,-16.203125,-3.015625
1696253475520,0.9494629,-0.077941895,0.5770874,-15.1875,-6.03125,1.703125
1696253475560,0.8330078,0.0072631836,0.48895264,-0.203125,14.4375,17.59375
1696253475601,0.8664551,-0.05206299,0.5758667,4.375,9.921875,22.375
1696253475640,0.79052734,-0.022277832,0.5907593,-5.09375,2.359375,14.046875
1696253475681,0.8688965,0.04559326,0.6859741,-4.328125,0.609375,-5.46875
1696253475722,0.67749023,0.034362793,0.6195679,-10.640625,-7.453125,1.34375
1696253475759,0.65600586,0.055114746,0.63323975,-0.765625,-6.46875,2.828125
1696253475800,0.7746582,-0.10040283,0.64227295,7.53125,0.8125,-0.53125
1696253475841,0.9519043,-0.08868408,0.6051636,-5.96875,1.265625,-4.46875
1696253475881,0.91381836,0.0680542,0.6727905,-8.390625,-2.4375,-3.484375
1696253475918,0.7766113,0.08441162,0.64593506,-6.21875,-8.03125,3.671875
1696253475958,0.67333984,0.046081543,0.61883545,-0.5,1.65625,3.796875
1696253475999,0.8208008,-0.03326416,0.6051636,-0.53125,6.796875,1.03125
1696253476038,0.85546875,-0.025939941,0.6173706,-4.0,3.046875,1.375
1696253476079,0.814209,0.020446777,0.58221436,3.453125,3.359375,-2.734375
1696253476121,0.8249512,0.017028809,0.5170288,-6.59375,-5.859375,4.390625
1696253476159,0.8640137,0.06365967,0.6342163,-0.6875,9.453125,4.875
1696253476200,0.84594727,0.016052246,0.69525146,2.265625,-3.671875,2.546875
1696253476240,0.7348633,0.0026245117,0.60858154,-9.140625,-12.3125,-4.46875
1696253476279,0.7890625,4.272461E-4,0.60028076,0.953125,2.921875,-1.609375
1696253476319,0.8095703,0.0099487305,0.5692749,4.296875,2.03125,1.03125
1696253476339,0.85375977,0.042175293,0.5951538,-1.53125,0.078125,0.859375
1696253476379,0.75,0.07098389,0.62615967,-4.21875,-5.859375,0.53125
1696253476443,0.7805176,0.031677246,0.6005249,-1.046875,1.84375,-0.421875
1696253476458,0.8378906,-6.1035156E-5,0.60491943,1.09375,5.390625,-0.546875
1696253476501,0.85839844,0.01776123,0.62005615,-2.203125,2.125,0.875
1696253476541,0.796875,0.05316162,0.5817261,-3.421875,-4.984375,0.265625
1696253476580,0.8078613,0.05731201,0.5844116,1.796875,1.21875,1.4375
1696253476641,0.82592773,0.0033569336,0.5819702,-0.53125,0.875,2.359375
1696253476660,0.78125,0.013366699,0.6141968,-1.4375,-3.953125,1.671875
1696253476722,0.7763672,-0.0071411133,0.5946655,-7.625,-6.984375,-2.28125
1696253476738,0.7475586,0.09515381,0.64593506,-4.046875,-6.765625,-5.1875
1696253476780,0.7192383,0.06121826,0.62908936,0.59375,-9.328125,-7.96875
1696253476820,0.7565918,0.026550293,0.6234741,3.46875,-9.828125,-9.140625
1696253476859,0.8327637,-0.02130127,0.6420288,8.5625,-4.078125,-9.96875
1696253476900,0.86621094,-0.0491333,0.666687,5.0625,-4.890625,-7.75
1696253476940,0.8828125,-0.01763916,0.70843506,1.234375,-4.96875,-6.484375
1696253476980,0.8491211,0.0048217773,0.6798706,-0.796875,-1.140625,0.25
1696253477019,0.7619629,-0.02545166,0.6095581,6.46875,6.03125,4.375
1696253477079,0.7199707,-0.085754395,0.57025146,9.15625,-4.875,2.078125
1696253477098,0.7463379,-0.034729004,0.66278076,6.921875,-6.3125,0.421875
1696253477141,0.7607422,0.01751709,0.6588745,-1.578125,-5.265625,2.359375
1696253477180,0.6928711,0.03314209,0.61346436,-9.6875,-9.625,4.1875
1696253477220,0.7739258,0.058288574,0.66448975,-2.59375,-0.546875,3.90625
1696253477259,0.9165039,-0.044006348,0.6586304,17.078125,26.90625,11.234375
1696253477303,0.98657227,-0.14337158,0.449646,2.328125,33.40625,15.078125
1696253477339,0.8405762,9.1552734E-4,0.7340698,-8.328125,-9.234375,0.203125
1696253477400,0.61694336,0.070251465,0.58026123,-6.0625,-11.234375,-4.34375
1696253477418,0.6870117,0.046325684,0.6288452,2.09375,-1.265625,-0.203125
1696253477481,0.7687988,-0.0095825195,0.64959717,5.953125,3.296875,3.453125
1696253477498,0.8220215,-0.06451416,0.604187,-5.75,0.953125,-0.5625
1696253477540,0.83691406,0.035583496,0.62298584,-2.9375,-5.5,-4.46875
1696253477579,0.82421875,0.07147217,0.6481323,0.109375,1.640625,-0.09375
1696253477640,0.8137207,-0.028381348,0.635437,0.359375,5.8125,3.59375
1696253477659,0.85180664,-0.042541504,0.6234741,-5.109375,2.140625,1.78125
1696253477679,0.7944336,0.014343262,0.61224365,-2.4375,-1.390625,1.96875
1696253477720,0.7648926,0.05682373,0.590271,0.421875,-2.109375,0.546875
1696253477759,0.74975586,0.066589355,0.63934326,0.625,-2.046875,-0.6875
1696253477800,0.7404785,0.011413574,0.6029663,-0.953125,-2.015625,1.28125
1696253477841,0.8208008,0.027770996,0.65179443,-1.03125,3.765625,-2.609375
1696253477880,0.8720703,-0.015686035,0.63079834,-1.078125,-0.890625,-3.1875
1696253477919,0.83984375,0.010192871,0.62493896,-5.046875,-4.5625,-0.984375
1696253477981,0.80200195,0.0016479492,0.6117554,-4.0,-0.78125,1.796875
1696253477999,0.8015137,0.016052246,0.64715576,2.046875,4.125,1.375
1696253478039,0.76171875,0.018493652,0.62176514,3.34375,1.15625,1.171875
1696253478078,0.8161621,-0.0095825195,0.5993042,2.3125,0.296875,-0.375
1696253478119,0.8190918,0.043640137,0.6166382,1.203125,1.578125,-0.265625
1696253478160,0.8000488,0.034118652,0.5980835,0.234375,0.921875,-0.015625
1696253478200,0.8234863,0.015808105,0.6005249,-0.5,3.375,2.140625
1696253478239,0.79418945,0.020202637,0.60565186,0.125,1.109375,1.265625
1696253478279,0.8078613,0.0065307617,0.59417725,0.65625,0.046875,-0.53125
1696253478319,0.8249512,-5.493164E-4,0.5631714,-0.0625,0.90625,1.28125
1696253478360,0.8154297,0.028259277,0.6185913,0.484375,0.703125,0.5625
1696253478400,0.8129883,0.012390137,0.60198975,2.21875,-0.546875,-0.84375
1696253478440,0.79907227,0.020935059,0.6312866,5.21875,-4.046875,0.21875
1696253478480,0.7751465,0.030700684,0.6129761,10.15625,-7.078125,1.359375
1696253478519,0.7871094,-0.047668457,0.60198975,15.765625,4.21875,-4.921875
1696253478562,0.829834,-0.03741455,0.6124878,9.859375,5.75,-7.15625
1696253478599,0.80493164,-0.034484863,0.58221436,5.015625,2.375,-7.5625
1696253478640,0.80566406,-0.0335083,0.58514404,8.96875,-2.78125,-7.640625
1696253478681,0.8354492,-0.049865723,0.6141968,3.28125,-10.578125,-8.375
1696253478744,0.84643555,-0.06768799,0.64056396,-5.953125,-11.078125,-5.703125
1696253478758,0.8161621,-0.06329346,0.6288452,-8.5,-7.78125,-0.375
1696253478798,0.7692871,-0.08087158,0.5597534,-5.4375,-7.78125,0.25
1696253478839,0.75341797,-0.07647705,0.6185913,0.40625,-6.265625,-0.828125
1696253478880,0.7861328,-0.055725098,0.7033081,-6.015625,-9.0,3.34375
1696253478919,0.82055664,-0.028869629,0.5841675,-4.703125,2.0625,13.625
1696253478961,0.9123535,-0.05206299,0.5595093,-1.265625,20.796875,18.234375
1696253478979,0.763916,-0.008361816,0.70184326,1.546875,0.90625,8.953125
1696253479020,0.7939453,-0.019592285,0.62127686,-0.921875,0.34375,-4.34375
1696253479083,0.7368164,0.015563965,0.6095581,-10.765625,0.671875,-1.734375
1696253479098,0.7158203,0.055603027,0.6220093,-3.25,-5.796875,0.140625
1696253479141,0.7849121,-0.02935791,0.65618896,7.90625,0.296875,0.921875
1696253479178,0.83325195,-0.0635376,0.62713623,-4.359375,0.109375,-0.734375
1696253479220,0.7871094,0.0067749023,0.64056396,-8.53125,-5.8125,-2.828125
1696253479259,0.7998047,0.023376465,0.6317749,-0.4375,2.0625,-5.25
1696253479300,0.7973633,-0.073791504,0.61468506,-6.40625,2.734375,-8.96875
1696253479343,0.67407227,0.039978027,0.6847534,-9.46875,-3.6875,-11.171875
1696253479384,0.84594727,0.034118652,0.715271,5.984375,-18.28125,-4.796875
1696253479421,0.8105469,-0.07501221,0.5897827,9.328125,-7.65625,2.40625
1696253479483,0.7685547,-0.06939697,0.62249756,7.703125,4.3125,2.078125
1696253479498,0.8112793,-0.014465332,0.69818115,16.640625,7.171875,3.53125
1696253479539,0.907959,-0.01763916,0.46844482,5.75,15.015625,13.203125
1696253479580,0.907959,-0.03375244,0.60198975,-1.703125,16.296875,18.1875
1696253479641,0.73706055,-0.026672363,0.59832764,1.890625,-2.40625,7.609375
1696253479658,0.77734375,-0.04425049,0.6359253,-4.890625,-0.09375,-6.046875
1696253479700,0.68847656,0.039489746,0.62957764,-9.0625,-6.921875,-2.8125
1696253479739,0.78271484,0.0053100586,0.64276123,3.0,-1.796875,0.78125
1696253479781,0.83935547,-0.053771973,0.60980225,-1.703125,-1.0625,-1.0
1696253479821,0.8654785,-0.006652832,0.6737671,-0.859375,4.140625,-0.34375
1696253479861,0.7932129,0.012145996,0.6742554,-3.265625,-2.75,2.3125
1696253479919,0.78027344,-0.03717041,0.5673218,-5.53125,3.671875,0.609375
1696253479938,0.7546387,0.010437012,0.5795288,-1.5,6.390625,-1.125
1696253479980,0.84765625,0.008972168,0.5831909,-5.046875,5.828125,0.390625
1696253480020,0.8588867,0.026794434,0.5722046,-3.359375,-0.9375,2.609375
1696253480061,0.80493164,-0.0051879883,0.602478,0.703125,-3.625,-0.390625
1696253480101,0.78100586,-0.030090332,0.5704956,-0.578125,0.828125,-0.15625
1696253480140,0.8417969,0.0016479492,0.61053467,0.171875,2.203125,0.71875
1696253480201,0.85668945,0.007019043,0.60491943,-2.375,-1.0,-0.046875
1696253480240,0.8095703,0.050964355,0.619812,0.921875,1.53125,-0.015625
1696253480282,0.78100586,-0.0010375977,0.5404663,-2.21875,-1.875,1.65625
1696253480286,0.84594727,9.1552734E-4,0.58880615,4.1875,3.375,2.390625
1696253480319,0.81811523,-0.021057129,0.6239624,-0.28125,-1.625,1.765625
1696253480402,0.7819824,0.026794434,0.60491943,-7.265625,-3.15625,0.15625
1696253480407,0.81152344,0.049987793,0.58465576,-1.515625,5.15625,-0.4375
1696253480439,0.82006836,0.028015137,0.59368896,0.703125,1.078125,-0.84375
1696253480481,0.8222656,0.010925293,0.57611084,-0.53125,-3.578125,0.390625
1696253480520,0.85131836,0.0138549805,0.572937,-2.328125,-3.34375,1.515625
1696253480561,0.81518555,-0.018127441,0.59954834,2.5625,0.921875,1.546875
1696253480600,0.82788086,-0.0015258789,0.5548706,-0.40625,0.359375,-0.28125
1696253480639,0.84643555,0.059020996,0.618103,-0.703125,1.171875,-0.90625
1696253480679,0.83618164,0.035827637,0.5651245,-0.546875,3.171875,1.34375
1696253480721,0.82299805,0.024108887,0.6022339,-1.71875,-1.75,0.46875
1696253480762,0.7915039,0.024108887,0.5895386,-2.15625,-4.328125,-1.59375
1696253480800,0.8054199,0.028503418,0.59954834,0.171875,1.0625,-0.78125
1696253480839,0.81933594,0.0060424805,0.586853,-0.375,0.78125,0.828125
1696253480881,0.83496094,0.009460449,0.6083374,0.15625,-0.484375,-0.109375
1696253480920,0.8227539,0.010437012,0.5790405,0.0625,-0.546875,0.546875
1696253480959,0.8244629,0.027038574,0.6112671,0.03125,-0.75,0.1875
1696253481000,0.8051758,0.01751709,0.6022339,-0.390625,-1.4375,0.4375
1696253481040,0.81274414,0.038269043,0.6005249,-1.0,-1.078125,0.8125
1696253481080,0.80249023,0.034606934,0.5692749,-0.296875,-0.875,-0.046875
1696253481119,0.83251953,-0.007385254,0.58758545,1.328125,0.21875,-1.34375
1696253481159,0.8234863,0.0014038086,0.59124756,-3.0,-3.671875,-0.578125
1696253481200,0.8010254,0.030456543,0.59710693,-6.4375,-9.15625,-2.921875
1696253481241,0.7368164,0.07244873,0.62298584,7.1875,-4.71875,-4.6875
1696253481281,0.86035156,-0.014221191,0.59246826,4.40625,-10.28125,-2.296875
1696253481319,0.80200195,-0.016662598,0.57489014,1.734375,-4.25,-1.078125
1696253481359,0.85009766,0.031677246,0.6659546,6.296875,0.21875,-4.375
1696253481398,0.85595703,0.0018920898,0.6635132,7.265625,5.0,-8.390625
1696253481441,0.7956543,-0.02154541,0.5914917,3.34375,-0.46875,-8.453125
1696253481480,0.7558594,-0.05621338,0.6310425,5.90625,-4.6875,-7.71875
1696253481520,0.76220703,-0.05596924,0.666687,4.203125,-9.140625,-7.21875
1696253481563,0.79248047,-0.07086182,0.64764404,0.8125,-8.75,-3.03125
1696253481578,0.78125,-0.070373535,0.6364136,-7.578125,-8.6875,1.484375
1696253481640,0.7385254,-0.04522705,0.6207886,-6.765625,-6.796875,2.484375
1696253481658,0.7609863,-0.020324707,0.6622925,4.03125,0.75,5.15625
1696253481700,0.8864746,-0.057434082,0.51678467,2.671875,20.671875,15.9375
1696253481761,0.99853516,-0.05987549,0.55267334,-2.0,27.03125,22.890625
1696253481778,0.79418945,0.0099487305,0.6696167,-2.5,-7.84375,7.546875
1696253481841,0.7089844,0.04095459,0.6132202,1.765625,-5.859375,-8.859375
1696253481883,0.7219238,0.02142334,0.5697632,-5.8125,1.4375,-1.0
1696253481897,0.7697754,0.043884277,0.66741943,4.390625,-1.078125,1.140625
1696253481940,0.8781738,-0.11212158,0.61883545,-0.6875,3.8125,2.5
1696253481983,0.8444824,-0.046447754,0.5895386,-7.09375,-6.375,-2.125
1696253482021,0.8310547,0.05340576,0.63861084,2.84375,-3.859375,-2.265625
1696253482060,0.7446289,0.012878418,0.6378784,2.859375,0.28125,2.515625
1696253482101,0.7751465,-0.009338379,0.5985718,-4.15625,3.828125,4.40625
1696253482163,0.796875,-0.008117676,0.5963745,-0.828125,-0.875,0.609375
1696253482179,0.8405762,0.022888184,0.61883545,4.859375,3.6875,-0.09375
1696253482221,0.77978516,0.018005371,0.6066284,-4.015625,-4.203125,0.59375
1696253482263,0.7922363,0.020446777,0.6102905,-0.859375,2.03125,-0.15625
1696253482322,0.8457031,-0.016662598,0.5866089,-3.296875,1.125,0.84375
1696253482339,0.8444824,0.017028809,0.64105225,-2.171875,-1.0625,-1.0625
1696253482402,0.79785156,-0.008117676,0.62957764,-7.40625,-4.921875,-1.53125
1696253482419,0.7849121,0.0053100586,0.6325073,-16.109375,-5.359375,-5.328125
1696253482459,0.70092773,0.06317139,0.63153076,-6.328125,-4.59375,-7.75
1696253482501,0.7224121,0.030944824,0.64178467,11.296875,-8.28125,-9.75
1696253482540,0.7817383,-0.03643799,0.6376343,20.703125,-5.265625,-11.03125
1696253482602,0.8508301,-0.08892822,0.65301514,12.953125,-8.65625,-7.953125
1696253482620,0.8798828,-0.08673096,0.67718506,-2.0625,-11.109375,-3.0
1696253482661,0.8354492,-0.022521973,0.6503296,-8.875,-4.625,4.1875
1696253482723,0.7626953,0.04876709,0.66204834,2.703125,11.765625,9.78125
1696253482738,0.9016113,-0.03277588,0.4713745,20.515625,34.734375,16.859375
1696253482782,0.9094238,-0.10699463,0.5272827,3.828125,9.546875,21.046875
1696253482821,0.7392578,0.004333496,0.6454468,3.140625,-8.859375,7.578125
1696253482861,0.74316406,0.03753662,0.6835327,-10.515625,-7.390625,-10.140625
1696253482902,0.6459961,0.034362793,0.5897827,-11.078125,-2.84375,-3.890625
1696253482921,0.77197266,0.010192871,0.69451904,7.421875,-1.859375,-3.6875
1696253482959,0.9135742,-0.07501221,0.6395874,-2.6875,2.609375,0.4375
1696253483000,0.8339844,-0.0413208,0.55755615,-3.6875,5.421875,4.109375
1696253483039,0.7775879,0.062927246,0.67645264,3.625,0.546875,0.8125
1696253483082,0.810791,-0.02154541,0.5795288,-6.421875,2.453125,0.75
1696253483120,0.81274414,0.04534912,0.6154175,1.203125,2.90625,1.015625
1696253483159,0.7937012,-0.038635254,0.56707764,-7.890625,-6.859375,1.40625
1696253483201,0.779541,0.05657959,0.5951538,-1.328125,2.90625,-1.015625
1696253483241,0.8249512,0.006286621,0.60809326,0.484375,0.140625,0.140625
1696253483280,0.8137207,0.0018920898,0.6286011,-2.265625,0.5,-0.734375
1696253483319,0.84765625,-0.01373291,0.58392334,-2.9375,0.453125,0.765625
1696253483359,0.8483887,0.027526855,0.63397217,1.234375,1.3125,-0.015625
1696253483401,0.8144531,-0.0068969727,0.63446045,0.140625,0.390625,0.984375
1696253483439,0.8022461,-0.0020141602,0.6051636,-1.3125,-1.375,0.546875
1696253483481,0.7854004,0.028015137,0.6117554,0.453125,-0.859375,0.53125
1696253483520,0.8022461,0.02532959,0.56658936,-0.71875,1.484375,-0.515625
1696253483559,0.81591797,0.03289795,0.58221436,4.046875,5.0,2.21875
1696253483600,0.826416,0.018493652,0.6071167,-5.953125,-2.171875,1.375
1696253483639,0.8215332,0.03338623,0.6083374,-1.515625,1.03125,1.453125
1696253483681,0.8305664,0.020446777,0.5866089,-0.375,1.96875,0.734375
1696253483719,0.8251953,-0.004211426,0.60614014,1.15625,-0.5,-0.578125
1696253483758,0.8220215,-0.0037231445,0.5621948,0.109375,3.125,1.078125
1696253483799,0.8208008,0.03363037,0.574646,1.046875,0.625,-0.328125
1696253483841,0.82421875,0.030944824,0.58026123,0.546875,-2.5625,0.84375
1696253483881,0.80810547,0.042907715,0.602478,-1.5,-0.890625,-0.125
1696253483920,0.8027344,0.0099487305,0.6022339,-2.375,-1.9375,-0.234375
1696253483959,0.8095703,0.010192871,0.605896,0.859375,1.1875,-0.46875
1696253484000,0.8378906,0.02532959,0.59954834,3.46875,2.8125,0.09375
1696253484040,0.8967285,0.0053100586,0.52630615,2.34375,2.765625,3.421875
1696253484080,0.859375,0.014343262,0.5722046,4.375,-0.3125,1.9375
1696253484121,0.78808594,0.016784668,0.57733154,-2.40625,-4.0625,2.125
1696253484161,0.74121094,0.047790527,0.59661865,-0.859375,-1.6875,0.09375
1696253484200,0.8029785,0.0065307617,0.5790405,0.515625,1.109375,-1.734375
1696253484219,0.82421875,0.016052246,0.58929443,-0.453125,0.21875,-0.625
1696253484260,0.8601074,0.027526855,0.5997925,-1.984375,-0.703125,-0.671875
1696253484299,0.81469727,0.034606934,0.5819702,-5.625,-2.75,-0.578125
1696253484341,0.8232422,0.018493652,0.5829468,-1.4375,1.9375,0.25
1696253484402,0.8347168,0.0016479492,0.5836792,-3.53125,-4.046875,0.984375
1696253484418,0.81591797,0.0138549805,0.58221436,-6.921875,-7.6875,-0.0625
1696253484459,0.7524414,0.05267334,0.6083374,-1.53125,-6.03125,-2.8125
1696253484500,0.8479004,0.04949951,0.588562,-0.15625,-4.78125,-2.484375
1696253484539,0.81689453,0.043151855,0.5890503,0.171875,-3.9375,-0.984375
1696253484582,0.81762695,0.018737793,0.59490967,-2.953125,-3.703125,-0.46875
1696253484639,0.82299805,0.035339355,0.6334839,-1.0,-2.59375,-0.015625
1696253484659,0.80444336,0.012390137,0.61761475,-0.453125,2.546875,1.734375
1696253484700,0.80737305,0.023132324,0.6227417,2.671875,2.25,2.0625
1696253484761,0.80444336,0.015075684,0.5922241,3.9375,1.75,1.96875
1696253484778,0.8171387,0.046325684,0.5934448,-1.8125,-3.0625,0.03125
1696253484821,0.8190918,0.043884277,0.62664795,0.125,-4.15625,-2.0
1696253484879,0.8232422,0.005065918,0.6473999,-1.6875,-0.859375,-2.75
1696253484898,0.75683594,0.021911621,0.6107788,-6.5,-3.78125,-4.828125
1696253484941,0.7709961,0.041931152,0.619812,5.703125,-4.765625,-8.203125
1696253484979,0.79956055,0.013122559,0.6605835,22.625,-0.203125,-12.34375
1696253485021,0.77783203,-0.03277588,0.6456909,18.46875,-3.28125,-8.078125
1696253485061,0.76220703,-0.0569458,0.6259155,5.640625,-7.3125,-2.890625
1696253485121,0.7907715,-0.054504395,0.619812,-0.09375,-1.53125,-0.53125
1696253485138,0.8171387,-0.04547119,0.60858154,-0.421875,-3.375,-1.921875
1696253485181,0.8071289,-0.03765869,0.67840576,-2.5625,-7.65625,0.171875
1696253485220,0.8327637,-0.06304932,0.5595093,-4.390625,2.421875,12.34375
1696253485279,0.986084,0.0016479492,0.42547607,3.078125,37.59375,26.515625
1696253485299,0.85913086,-0.07720947,0.66033936,-3.953125,-3.59375,13.6875
1696253485340,0.611084,0.034362793,0.71429443,4.0,-14.1875,-8.546875
1696253485401,0.67626953,-0.03643799,0.59417725,-12.828125,-4.890625,-4.71875
1696253485441,0.7548828,0.05291748,0.6124878,-4.1875,-4.515625,-2.734375
1696253485458,0.8364258,-0.023498535,0.63275146,-3.875,-12.890625,-0.765625
1696253485500,0.8078613,-0.018371582,0.6647339,-12.5,-9.640625,-5.390625
1696253485519,0.7692871,0.027770996,0.7665405,-4.21875,-3.359375,-10.984375
1696253485561,0.7302246,-0.02520752,0.6950073,13.9375,2.046875,-11.5625
1696253485600,0.75927734,-0.051330566,0.64056396,9.234375,4.546875,-9.734375
1696253485641,0.86450195,-0.030578613,0.6342163,-3.515625,-5.46875,-0.828125
1696253485681,0.8312988,-0.024963379,0.6112671,0.96875,-5.640625,6.0625
1696253485720,0.7585449,-0.010803223,0.61590576,11.625,3.234375,5.625
1696253485760,0.7687988,-0.05718994,0.52508545,8.453125,9.609375,11.359375
1696253485801,0.8486328,-0.06036377,0.6300659,1.234375,12.515625,13.59375
1696253485839,0.82250977,-0.031311035,0.57684326,0.515625,5.453125,6.203125
1696253485881,0.8623047,-0.018615723,0.6884155,-6.40625,-4.078125,-5.8125
1696253485920,0.7192383,0.062683105,0.6154175,-14.453125,-11.390625,-2.609375
1696253485960,0.6760254,0.04901123,0.60858154,-5.015625,-6.984375,0.09375
1696253486000,0.7390137,-0.06109619,0.6679077,3.859375,1.09375,1.015625
1696253486040,0.8754883,-0.10675049,0.67230225,-4.484375,1.921875,-0.796875
1696253486081,0.84399414,-0.0032348633,0.6820679,-1.65625,-5.75,-1.5
1696253486120,0.7602539,0.027770996,0.6239624,3.03125,-3.140625,-0.328125
1696253486159,0.7219238,0.04168701,0.60028076,5.015625,7.90625,3.859375
1696253486200,0.8796387,0.018737793,0.61639404,-2.21875,10.78125,4.1875
1696253486241,0.7607422,0.026306152,0.6598511,-1.734375,-2.90625,2.78125
1696253486280,0.7416992,-0.012268066,0.6017456,-2.53125,-4.53125,-0.34375
1696253486320,0.7709961,-0.007385254,0.59783936,2.765625,4.328125,-0.25
1696253486358,0.8708496,-0.011291504,0.6293335,-1.40625,5.84375,-0.03125
1696253486400,0.8010254,0.016540527,0.64398193,-4.34375,-2.890625,1.59375
1696253486440,0.78027344,-0.007873535,0.61224365,-3.5625,-3.0,0.71875
1696253486479,0.7980957,0.00970459,0.6029663,-1.078125,6.484375,-0.53125
1696253486521,0.8066406,0.029724121,0.6679077,0.515625,6.953125,-0.953125
1696253486560,0.7915039,-0.011047363,0.6083374,-4.421875,-2.96875,0.921875
1696253486598,0.8149414,0.014831543,0.61151123,-1.125,2.703125,1.359375
1696253486639,0.79296875,0.03314209,0.57928467,0.203125,2.921875,1.734375
1696253486679,0.8327637,0.039245605,0.64349365,1.515625,0.953125,0.078125
1696253486721,0.84375,0.02142334,0.60491943,-0.78125,1.109375,1.15625
1696253486765,0.77783203,0.038757324,0.61932373,1.71875,0.5625,2.1875
1696253486821,0.8234863,-0.028137207,0.57244873,1.796875,2.453125,0.703125
1696253486840,0.8520508,0.008728027,0.5704956,1.234375,3.078125,-0.328125
1696253486881,0.8630371,0.019958496,0.576355,2.109375,3.546875,0.609375
1696253486920,0.80688477,0.010925293,0.5878296,0.328125,-2.65625,1.21875
1696253486940,0.7717285,-6.1035156E-5,0.58709717,-0.453125,0.453125,-0.546875
1696253486980,0.8132324,0.0138549805,0.56243896,-1.375,-0.359375,-1.234375
1696253487020,0.84350586,0.038757324,0.5922241,-0.9375,-0.96875,0.734375
1696253487060,0.8388672,0.035095215,0.6010132,-1.296875,-1.703125,0.859375
1696253487098,0.8022461,0.012634277,0.60687256,-1.03125,-1.6875,0.40625
1696253487143,0.79296875,0.0018920898,0.6090698,-1.203125,-2.0,-1.34375
1696253487198,0.829834,0.014831543,0.590271,-1.5625,-0.25,-0.9375
1696253487241,0.83862305,0.043640137,0.60931396,-0.84375,-0.84375,1.484375
1696253487281,0.79418945,0.03363037,0.6054077,-1.03125,-1.234375,1.40625
1696253487299,0.81030273,0.0045776367,0.58758545,2.078125,1.734375,-0.046875
1696253487362,0.82788086,0.014831543,0.5861206,0.171875,0.15625,-1.59375
1696253487380,0.85058594,0.024841309,0.58929443,-0.390625,0.171875,-0.640625
1696253487420,0.81274414,0.018737793,0.5765991,-1.734375,-2.578125,1.96875
1696253487461,0.8100586,0.0060424805,0.586853,2.1875,1.34375,0.9375
1696253487521,0.83496094,0.011657715,0.58514404,-0.171875,-0.015625,0.125
1696253487560,0.83862305,0.007751465,0.57196045,1.796875,-0.9375,0.359375
1696253487578,0.84106445,0.0211792,0.59539795,2.03125,-0.984375,0.671875
1696253487619,0.80615234,0.030456543,0.60028076,0.0625,-0.34375,1.1875
1696253487660,0.80029297,0.02508545,0.59198,-0.359375,0.15625,0.125
1696253487720,0.80126953,0.020446777,0.5848999,-0.5,-2.328125,-0.140625
1696253487739,0.8154297,0.025817871,0.6141968,-0.578125,-1.09375,-0.421875
1696253487802,0.79052734,0.015319824,0.6034546,-3.078125,-2.96875,-0.390625
1696253487823,0.795166,-7.9345703E-4,0.59002686,-8.03125,-7.421875,-0.984375
1696253487859,0.75927734,0.047058105,0.63983154,0.453125,-5.953125,-2.75
1696253487921,0.84643555,0.0079956055,0.6017456,0.703125,-5.046875,-2.625
1696253487961,0.81811523,0.012390137,0.6017456,-6.96875,-8.484375,-0.09375
1696253487978,0.8496094,0.028503418,0.61883545,-11.75,-7.28125,-1.296875
1696253488020,0.8730469,0.06536865,0.64764404,-1.5,-4.1875,-1.046875
1696253488062,0.78222656,0.023376465,0.62957764,0.59375,-2.3125,1.71875
1696253488100,0.73535156,0.018493652,0.62908936,-0.671875,-4.828125,0.640625
1696253488140,0.7651367,0.015075684,0.64276123,6.21875,0.890625,-4.421875
1696253488161,0.7368164,0.014587402,0.65252686,13.078125,4.359375,-5.859375
1696253488201,0.7651367,-0.011291504,0.6727905,14.71875,2.21875,-7.5
1696253488239,0.7832031,-0.02520752,0.7157593,16.015625,0.828125,-9.34375
1696253488281,0.8317871,-0.01739502,0.66522217,5.15625,-1.046875,-6.1875
1696253488320,0.79956055,0.0038452148,0.6408081,-3.078125,-2.296875,-1.015625
1696253488360,0.7651367,-0.06304932,0.60614014,3.703125,-0.96875,-1.140625
1696253488401,0.78686523,-0.0869751,0.60272217,8.046875,-4.09375,-1.75
1696253488439,0.80078125,-0.066223145,0.64471436,4.953125,-2.6875,1.828125
1696253488483,0.7993164,-0.04815674,0.649353,3.34375,0.53125,5.09375
1696253488520,0.8461914,-0.078186035,0.5307007,6.796875,12.15625,11.234375
1696253488561,0.8845215,0.0048217773,0.5499878,-2.46875,23.71875,19.203125
1696253488601,0.9160156,-0.08013916,0.5302124,0.796875,12.34375,19.328125
1696253488639,0.86157227,0.043884277,0.727478,2.375,-10.953125,-1.96875
1696253488680,0.66918945,0.007019043,0.5980835,-12.6875,-14.421875,-5.890625
1696253488718,0.6303711,0.04046631,0.6119995,-4.15625,-4.6875,-4.390625
1696253488762,0.826416,-0.081848145,0.6046753,1.203125,4.1875,1.875
1696253488799,0.86328125,-0.07550049,0.6195679,-3.96875,2.875,1.71875
1696253488839,0.8652344,-0.012023926,0.59832764,-8.828125,-6.125,-2.75
1696253488880,0.826416,0.030700684,0.60736084,-2.6875,-1.234375,-0.1875
1696253488922,0.78881836,0.035095215,0.5980835,1.671875,3.984375,3.6875
1696253488960,0.83496094,-0.042785645,0.5878296,-3.96875,1.46875,5.625
1696253489001,0.79418945,0.042419434,0.6637573,-1.71875,-1.125,1.53125
1696253489039,0.76049805,0.02142334,0.60980225,-0.046875,-2.390625,-0.890625
1696253489083,0.7963867,0.01751709,0.5783081,-0.75,0.625,-1.890625
1696253489122,0.7963867,-0.0076293945,0.6039429,0.0,-0.375,0.859375
1696253489162,0.84594727,-0.013244629,0.59368896,-4.28125,-1.546875,-0.765625
1696253489200,0.84716797,0.05267334,0.64715576,-0.75,-1.015625,-1.546875
1696253489241,0.814209,0.017028809,0.6256714,-3.4375,-1.90625,0.640625
1696253489281,0.7687988,0.011413574,0.6173706,-0.390625,0.53125,1.671875
1696253489321,0.79589844,-0.031799316,0.5841675,-0.75,-1.328125,0.53125
1696253489361,0.8041992,0.02557373,0.59661865,1.21875,0.78125,0.328125
1696253489402,0.80126953,0.044128418,0.633728,3.015625,-0.09375,2.515625
1696253489462,0.79248047,0.0211792,0.6117554,-0.6875,-1.140625,2.046875
1696253489465,0.7902832,-0.008850098,0.62127686,1.9375,-0.015625,1.515625
1696253489523,0.82788086,-0.003967285,0.5883179,-1.546875,0.703125,-0.40625
1696253489583,0.81811523,0.08538818,0.61224365,1.875,0.875,-0.296875
1696253489587,0.8144531,0.026062012,0.59198,-1.703125,-2.0,0.6875
1696253489621,0.81225586,0.019226074,0.59368896,-1.609375,1.046875,1.046875
1696253489660,0.8330078,0.002380371,0.5890503,-0.546875,0.453125,0.09375
1696253489699,0.8251953,0.02508545,0.62615967,-2.25,-1.640625,-0.53125
1696253489740,0.8171387,0.042419434,0.62127686,-3.46875,-2.609375,0.78125
1696253489782,0.7824707,0.0368042,0.62420654,-2.140625,-2.484375,2.421875
1696253489821,0.80200195,0.014343262,0.62420654,-0.671875,-0.84375,0.875
1696253489861,0.81396484,0.01751709,0.64105225,1.765625,2.078125,-1.4375
1696253489901,0.79589844,0.013366699,0.6039429,-1.890625,-2.84375,-0.90625
1696253489943,0.79296875,0.051696777,0.61102295,0.21875,0.21875,0.015625
1696253489981,0.8071289,0.027526855,0.60369873,-0.0625,0.46875,1.203125
1696253490020,0.8249512,0.013122559,0.6005249,0.4375,0.765625,0.09375
1696253490059,0.83374023,0.040222168,0.6220093,-1.71875,0.75,-0.3125
1696253490121,0.8083496,0.051940918,0.6005249,-1.15625,-0.609375,1.3125
1696253490140,0.78027344,0.038757324,0.6119995,-1.078125,-1.6875,1.140625
1696253490180,0.81884766,0.0053100586,0.60028076,-0.3125,1.109375,-0.15625
1696253490240,0.8305664,0.026306152,0.61102295,-1.78125,-1.09375,-1.421875
1696253490258,0.80981445,0.028503418,0.59783936,-0.390625,-0.296875,-0.34375
1696253490324,0.8093262,0.030944824,0.60076904,0.140625,-0.578125,0.421875
1696253490361,0.7937012,0.032165527,0.61468506,1.203125,0.328125,0.140625
1696253490380,0.8232422,0.022155762,0.607605,2.375,0.953125,-0.21875
1696253490420,0.88378906,-0.008361816,0.5844116,1.375,-0.78125,1.328125
1696253490481,0.829834,0.03265381,0.5956421,0.59375,-2.578125,1.765625
1696253490498,0.7495117,0.06414795,0.60272217,-0.28125,-5.546875,-0.171875
1696253490539,0.7495117,0.05291748,0.6017456,-0.890625,-2.296875,-1.21875
1696253490580,0.7763672,0.02947998,0.60028076,-1.625,-1.453125,0.109375
1696253490622,0.80615234,0.011657715,0.6239624,-5.171875,-7.703125,-1.109375
1696253490662,0.7636719,0.039489746,0.63494873,-3.59375,-9.78125,-4.125
1696253490721,0.72094727,0.04534912,0.6757202,7.40625,-1.484375,-5.734375
1696253490738,0.8076172,0.0026245117,0.6884155,10.78125,5.5625,-2.5625
1696253490759,0.8791504,-0.020568848,0.63275146,2.84375,-1.578125,-1.640625
1696253490799,0.8117676,0.0038452148,0.6293335,-2.15625,-1.90625,0.828125
1696253490837,0.85131836,0.020202637,0.6774292,4.484375,6.296875,2.046875
1696253490879,0.9580078,-0.034729004,0.42669678,6.515625,31.765625,11.9375
1696253490921,0.9663086,0.028259277,0.5272827,0.671875,6.890625,11.53125
1696253490958,0.671875,0.124694824,0.64520264,5.296875,-3.984375,9.234375
1696253490998,0.7709961,-0.007873535,0.5319214,-8.328125,-1.578125,7.6875
1696253491039,0.7585449,0.05267334,0.6918335,3.78125,-1.84375,0.4375
1696253491079,0.68774414,-0.03741455,0.5946655,9.828125,-6.78125,-8.359375
1696253491120,0.99853516,-0.035705566,0.5668335,-5.359375,-1.609375,-5.515625
1696253491160,0.8161621,0.08856201,0.60809326,-2.296875,-8.53125,3.765625
1696253491198,0.72387695,0.08001709,0.6454468,-3.140625,-6.96875,2.0625
1696253491238,0.75927734,0.04827881,0.638855,1.453125,5.4375,-1.59375
1696253491279,0.88134766,-0.043762207,0.6124878,3.765625,9.203125,-0.875
1696253491319,0.85498047,-0.03741455,0.5973511,-4.265625,-7.921875,-0.484375
1696253491360,0.7373047,0.08880615,0.61346436,-4.015625,-1.515625,-0.84375
1696253491398,0.7573242,0.073913574,0.5934448,0.296875,1.703125,-1.921875
1696253491438,0.83618164,-0.021057129,0.5787964,0.0625,5.4375,-2.78125
1696253491478,0.8544922,-0.020324707,0.5961304,-4.46875,-1.4375,-0.9375
1696253491518,0.8300781,0.022155762,0.59490967,-5.375,-5.0625,0.09375
1696253491560,0.78125,0.06854248,0.664978,-6.28125,-6.609375,-4.171875
1696253491599,0.71655273,0.05267334,0.59368896,2.1875,-1.890625,-7.0
1696253491638,0.7548828,-0.0071411133,0.590271,6.53125,1.296875,-7.15625
1696253491679,0.82299805,-0.03375244,0.59173584,13.5,4.796875,-7.515625
1696253491719,0.90063477,-0.016418457,0.6300659,15.65625,-1.28125,-10.515625
1696253491759,0.8811035,-0.05206299,0.6244507,5.53125,-8.578125,-10.265625
1696253491799,0.83935547,-0.06915283,0.5890503,-4.53125,-8.421875,-2.953125
1696253491839,0.8239746,-0.06890869,0.5951538,-6.234375,-6.734375,4.125
1696253491879,0.7644043,-0.023986816,0.6366577,-6.875,-5.5625,6.046875
1696253491919,0.77978516,0.0040893555,0.6222534,5.015625,3.234375,11.125
1696253491959,0.9890137,-0.06011963,0.5194702,10.09375,27.515625,22.0
1696253491999,1.0432129,-0.08306885,0.5282593,-24.296875,14.328125,13.359375
1696253492040,0.6022949,0.12005615,0.61151123,-1.109375,-17.671875,-1.0
1696253492079,0.6706543,0.018493652,0.6366577,-7.796875,-16.46875,-5.703125
1696253492100,0.6984863,0.07513428,0.6376343,6.421875,2.765625,-0.5625
1696253492139,0.8232422,-0.07940674,0.5985718,6.140625,-1.53125,3.71875
1696253492198,0.8979492,-0.06768799,0.69573975,-0.625,4.3125,-0.640625
1696253492218,0.8383789,0.031188965,0.6029663,-6.234375,-5.0,0.515625
1696253492258,0.7792969,0.11102295,0.6195679,1.953125,1.046875,0.890625
1696253492298,0.7824707,0.057556152,0.62127686,5.734375,6.203125,0.5625
1696253492339,0.84375,-0.04547119,0.5741577,-4.796875,4.453125,1.84375
1696253492379,0.8171387,-0.00592041,0.6259155,-3.921875,-4.453125,3.6875
1696253492439,0.71655273,0.022399902,0.59417725,-2.875,-6.625,-1.390625
1696253492479,0.77001953,0.057800293,0.56365967,-2.25,3.1875,-2.90625
1696253492499,0.9074707,0.023620605,0.5800171,-0.90625,5.453125,-0.28125
1696253492538,0.8833008,0.0018920898,0.6195679,-0.234375,-1.96875,3.03125
1696253492579,0.78686523,0.018005371,0.6461792,-6.578125,-8.0625,2.015625
1696253492619,0.7783203,0.026550293,0.6124878,-3.71875,-2.3125,0.296875
1696253492659,0.78393555,0.007507324,0.6078491,4.140625,1.078125,-1.0
1696253492701,0.8261719,0.027038574,0.63494873,-0.03125,0.3125,-0.640625
1696253492740,0.7883301,0.049743652,0.5844116,-3.28125,-2.140625,1.0625
1696253492779,0.7680664,0.05218506,0.619812,1.90625,0.03125,1.796875
1696253492843,0.82592773,0.0099487305,0.6005249,1.375,2.21875,-0.359375
1696253492858,0.86743164,0.0060424805,0.60321045,-2.453125,-0.6875,-1.328125
1696253492904,0.8190918,0.0446167,0.6029663,-3.53125,-3.65625,0.765625
1696253492941,0.77563477,0.055358887,0.60272217,0.078125,-1.28125,0.703125
1696253492980,0.8078613,0.010681152,0.6207886,1.28125,1.109375,-1.1875
1696253493020,0.81030273,-0.0012817383,0.588562,-1.78125,-1.828125,-0.71875
1696253493081,0.81689453,0.03265381,0.60980225,-1.21875,-0.578125,0.046875
1696253493101,0.78125,0.04559326,0.6220093,-1.3125,-2.296875,0.421875
1696253493161,0.80615234,0.022155762,0.61468506,-1.28125,-1.96875,-0.828125
1696253493182,0.8203125,0.012634277,0.6185913,-4.203125,-4.921875,-2.6875
1696253493223,0.7993164,0.0138549805,0.6090698,-7.390625,-5.75,-3.5
1696253493283,0.80566406,-0.0037231445,0.65057373,-14.046875,-8.8125,-4.171875
1696253493299,0.7644043,0.070007324,0.6913452,-9.71875,-10.21875,-8.484375
1696253493362,0.73095703,0.042663574,0.64593506,-1.15625,-5.171875,-8.96875
1696253493380,0.7006836,-0.010070801,0.6039429,6.3125,-2.453125,-4.390625
1696253493400,0.8022461,0.08343506,0.6810913,15.171875,3.078125,1.359375
1696253493441,0.7866211,0.001159668,0.66156006,20.0,4.625,0.171875
1696253493482,0.7817383,-0.022521973,0.6576538,10.65625,0.5,-7.265625
1696253493524,0.79956055,-0.0071411133,0.6715698,10.203125,-3.171875,-7.75
1696253493561,0.8269043,-0.03741455,0.65618896,4.421875,-2.046875,-4.625
1696253493603,0.77490234,-0.047912598,0.66204834,0.046875,-4.59375,0.671875
1696253493643,0.71655273,-0.070617676,0.6227417,-4.3125,-7.453125,3.984375
1696253493683,0.72802734,-0.025939941,0.6251831,-10.40625,-6.265625,3.21875
1696253493719,0.76123047,-0.023742676,0.64056396,6.359375,11.421875,8.453125
1696253493761,0.8898926,-0.05279541,0.618103,7.578125,20.34375,14.671875
1696253493801,0.921875,-0.081604004,0.50994873,-5.921875,14.34375,10.984375
1696253493839,0.8625488,0.08123779,0.74627686,-2.796875,-0.28125,0.734375
1696253493884,0.69750977,0.06756592,0.65545654,-5.15625,-13.625,2.5
1696253493921,0.69189453,0.06097412,0.649353,-0.578125,-2.453125,0.703125
1696253493963,0.79418945,-0.054016113,0.64471436,6.046875,4.453125,-0.984375
1696253494000,0.8474121,-0.061828613,0.60491943,-3.609375,0.90625,-2.421875
1696253494040,0.8161621,0.04901123,0.6552124,-4.359375,-6.953125,-1.578125
1696253494080,0.78808594,0.04949951,0.61151123,-0.546875,2.828125,2.046875
1696253494120,0.8078613,0.039489746,0.67889404,6.59375,11.21875,2.125
1696253494160,0.8544922,-0.07720947,0.5717163,2.265625,6.125,6.09375
1696253494200,0.82666016,0.039001465,0.62298584,-2.25,-6.625,4.1875
1696253494241,0.7597656,0.04949951,0.6083374,4.0,0.328125,1.03125
1696253494280,0.7458496,-0.0032348633,0.60565186,-2.921875,-0.125,-1.5625
1696253494321,0.80249023,-0.014709473,0.6071167,-1.203125,2.84375,-1.015625
1696253494361,0.8220215,0.009216309,0.604187,-5.421875,-3.90625,-1.28125
1696253494401,0.8100586,0.04876709,0.6141968,-4.0625,-4.265625,-1.78125
1696253494440,0.8183594,0.023132324,0.6366577,-5.140625,-6.96875,-3.0
1696253494480,0.8078613,0.002380371,0.6129761,-3.921875,-5.53125,-2.25
1696253494523,0.7993164,0.013366699,0.61395264,-3.5,-6.09375,-0.875
1696253494561,0.75683594,0.010192871,0.61224365,-8.046875,-10.203125,-1.703125
1696253494602,0.72094727,0.07244873,0.7243042,3.5,-0.125,-3.1875
