,timestamp,accel_x,accel_y,accel_z,gyro_x,gyro_y,gyro_z,ind
0,1696254750037,-0.025146484,-0.96466064,0.1149292,4.890625,-2.15625,1.6875,0
1,1696254750077,-0.053222656,-0.9834595,0.1828003,-0.4375,0.71875,-0.03125,16
2,1696254750117,-0.043945312,-0.97491455,0.1876831,-0.75,0.34375,-0.296875,17
3,1696254750157,-0.05419922,-0.97906494,0.19012451,-0.96875,-0.03125,-0.3125,18
4,1696254750197,-0.061279297,-0.97491455,0.18988037,-1.109375,-0.3125,0.015625,19
5,1696254750237,-0.060058594,-0.9849243,0.19134521,-0.15625,-0.28125,-0.015625,20
6,1696254750277,-0.05029297,-0.96588135,0.19207764,-0.0625,0.046875,-0.34375,21
7,1696254750317,-0.051513672,-0.9729614,0.1906128,0.46875,0.328125,0.390625,22
8,1696254750357,-0.06542969,-0.9807739,0.1852417,0.328125,-0.140625,0.046875,23
9,1696254750397,-0.056640625,-0.9829712,0.19622803,2.015625,1.015625,0.390625,24
10,1696254750437,-0.052734375,-0.9746704,0.18499756,1.109375,-0.453125,0.0,25
11,1696254750477,-0.059570312,-0.97369385,0.18695068,0.09375,0.265625,-0.078125,26
12,1696254750517,-0.056152344,-0.98223877,0.18865967,0.53125,0.34375,-0.484375,27
13,1696254750557,-0.061767578,-0.98687744,0.18792725,0.140625,0.21875,-0.109375,28
14,1696254750597,-0.05102539,-0.972229,0.18719482,0.765625,-0.171875,0.125,29
15,1696254750637,-0.048339844,-0.97369385,0.19134521,1.390625,0.1875,0.53125,30
16,1696254750677,-0.052734375,-0.97735596,0.18670654,1.171875,-0.109375,0.84375,31
17,1696254750717,-0.056152344,-0.9795532,0.18182373,1.640625,-0.296875,0.71875,32
18,1696254750757,-0.056640625,-0.9690552,0.18109131,1.796875,-0.78125,0.546875,33
19,1696254750797,-0.053466797,-0.97442627,0.17669678,0.34375,-1.109375,0.640625,34
20,1696254750837,-0.061279297,-0.98516846,0.1798706,1.015625,-0.921875,0.5,35
21,1696254750877,-0.051757812,-0.9771118,0.17010498,-0.296875,-0.734375,-0.265625,36
22,1696254750917,-0.04711914,-0.97247314,0.16546631,-0.859375,-0.4375,-0.328125,37
23,1696254750957,-0.048828125,-0.975647,0.17376709,-0.953125,-1.578125,-0.21875,38
24,1696254750997,-0.051757812,-0.9824829,0.1786499,-1.0,-0.84375,-0.28125,39
25,1696254751037,-0.052734375,-0.98272705,0.16448975,-1.78125,-1.34375,-0.53125,40
26,1696254751077,-0.042236328,-0.97247314,0.17303467,-1.359375,-1.265625,-0.671875,41
27,1696254751117,-0.056884766,-0.9771118,0.18475342,-1.828125,-2.203125,-0.640625,42
28,1696254751157,-0.064453125,-0.98443604,0.18865967,-0.328125,-0.6875,0.03125,43
29,1696254751197,-0.053466797,-0.98101807,0.17425537,0.390625,0.3125,-0.453125,44
30,1696254751237,-0.064208984,-0.98394775,0.1539917,-0.828125,-0.8125,0.0625,61
31,1696254751277,-0.06274414,-0.9837036,0.16204834,0.40625,-0.15625,0.28125,62
32,1696254751317,-0.06591797,-0.98223877,0.15325928,-0.421875,-0.640625,0.078125,63
33,1696254751357,-0.061279297,-0.97857666,0.15496826,-0.703125,-0.296875,-0.21875,64
34,1696254751397,-0.064941406,-0.986145,0.15057373,-0.640625,-0.640625,0.265625,65
35,1696254751437,-0.057861328,-0.9841919,0.15667725,-0.21875,-0.609375,0.0,66
36,1696254751477,-0.07104492,-0.9834595,0.15203857,-0.03125,-0.59375,-0.296875,67
37,1696254751517,-0.06518555,-0.9824829,0.14984131,-1.5,-0.609375,-0.28125,68
38,1696254751557,-0.05810547,-0.9800415,0.16082764,-0.46875,0.515625,-0.078125,69
39,1696254751597,-0.063964844,-0.9793091,0.15887451,-0.359375,0.015625,-0.0625,70
40,1696254751637,-0.064941406,-0.9807739,0.15692139,0.234375,-0.203125,-0.109375,71
41,1696254751677,-0.064453125,-0.98101807,0.1539917,0.046875,-0.390625,-0.03125,72
42,1696254751717,-0.06591797,-0.98883057,0.16400146,0.609375,0.0,0.296875,73
43,1696254751757,-0.06347656,-0.9795532,0.1552124,-0.328125,-0.40625,0.125,74
44,1696254751797,-0.0715332,-0.9819946,0.15740967,-0.109375,-0.546875,0.125,75
45,1696254751837,-0.07128906,-0.9871216,0.1618042,-0.5625,-0.5,0.015625,76
46,1696254751877,-0.06982422,-0.9771118,0.16448975,-1.125,-0.3125,-0.15625,77
47,1696254751917,-0.07397461,-0.9837036,0.16033936,-0.84375,-0.34375,-0.21875,78
48,1696254751957,-0.07080078,-0.9807739,0.15911865,0.15625,-0.25,0.0625,79
49,1696254751997,-0.07006836,-0.9807739,0.16082764,-0.40625,-0.625,0.46875,80
50,1696254752037,-0.06616211,-0.9800415,0.16082764,0.125,-0.234375,0.28125,81
51,1696254752077,-0.07080078,-0.9805298,0.1593628,-0.015625,-0.359375,0.84375,82
52,1696254752117,-0.07006836,-0.9780884,0.1593628,-0.953125,-0.578125,0.1875,83
53,1696254752157,-0.076660156,-0.98638916,0.1708374,-0.265625,0.296875,0.3125,84
54,1696254752197,-0.072509766,-0.9800415,0.17132568,-0.46875,0.109375,0.109375,85
55,1696254752237,-0.060058594,-0.9717407,0.16741943,-0.59375,0.21875,0.140625,86
56,1696254752277,-0.06542969,-0.98028564,0.16033936,-0.296875,-0.28125,0.34375,87
57,1696254752317,-0.064697266,-0.989563,0.16790771,-0.015625,-0.34375,0.328125,88
58,1696254752357,-0.06640625,-0.97857666,0.16156006,-0.203125,0.015625,0.21875,89
59,1696254752397,-0.059814453,-0.98272705,0.16107178,0.015625,-0.34375,0.328125,90
60,1696254752437,-0.06201172,-0.9788208,0.1618042,0.53125,-0.328125,0.390625,91
61,1696254752477,-0.064208984,-0.97906494,0.16522217,-0.46875,-0.46875,0.0625,92
62,1696254752517,-0.064941406,-0.9768677,0.15789795,-0.265625,-0.171875,0.0625,93
63,1696254752557,-0.06323242,-0.9834595,0.15887451,-0.15625,-0.578125,0.34375,94
64,1696254752597,-0.055419922,-0.9793091,0.1605835,0.25,-0.703125,0.34375,95
65,1696254752637,-0.07104492,-0.98028564,0.16668701,-0.046875,-0.765625,0.25,96
66,1696254752677,-0.072265625,-0.9800415,0.15838623,0.046875,-0.4375,0.265625,97
67,1696254752717,-0.06298828,-0.98223877,0.15838623,-0.25,0.015625,0.203125,98
68,1696254752757,-0.057373047,-0.9780884,0.15692139,-1.328125,-0.140625,-0.03125,99
69,1696254752797,-0.0637207,-0.97662354,0.16571045,-0.203125,0.21875,0.203125,100
70,1696254752837,-0.075683594,-0.98321533,0.16278076,-0.203125,0.1875,0.109375,101
71,1696254752877,-0.07128906,-0.98638916,0.15863037,0.109375,0.109375,-0.140625,102
72,1696254752917,-0.068847656,-0.9873657,0.17181396,0.015625,-0.140625,-0.09375,103
73,1696254752957,-0.06689453,-0.9771118,0.17010498,-0.234375,0.0,0.0,104
74,1696254752997,-0.06640625,-0.97906494,0.15838623,-0.65625,-0.53125,-0.046875,105
75,1696254753037,-0.06274414,-0.98638916,0.1630249,0.1875,-0.5625,0.375,106
76,1696254753077,-0.07104492,-0.9829712,0.17254639,-0.203125,-0.953125,0.296875,107
77,1696254753117,-0.07299805,-0.98101807,0.16815186,0.09375,-0.359375,0.25,108
78,1696254753157,-0.075683594,-0.97662354,0.16253662,0.078125,-0.078125,0.3125,109
79,1696254753197,-0.06567383,-0.98028564,0.16986084,0.171875,-0.21875,0.1875,110
80,1696254753237,-0.07348633,-0.9768677,0.16864014,-0.515625,-0.171875,0.328125,111
81,1696254753277,-0.0690918,-0.9768677,0.16107178,-0.4375,-0.46875,0.328125,112
82,1696254753317,-0.06274414,-0.9714966,0.16766357,0.234375,-0.21875,0.328125,113
83,1696254753357,-0.05908203,-0.98760986,0.16278076,-0.34375,-0.390625,0.265625,114
84,1696254753397,-0.072265625,-0.9866333,0.1630249,-1.65625,-0.6875,-0.1875,115
85,1696254753437,-0.07104492,-0.97906494,0.16766357,-0.953125,0.078125,0.296875,116
86,1696254753477,-0.055419922,-0.97979736,0.17181396,-1.4375,-0.421875,0.5625,117
87,1696254753517,-0.060302734,-0.9866333,0.16937256,-1.5,-0.515625,0.5625,118
88,1696254753557,-0.068847656,-0.9780884,0.17352295,-0.59375,-0.1875,0.046875,119
89,1696254753597,-0.05859375,-0.9871216,0.1708374,0.171875,-0.5,0.578125,120
90,1696254753637,-0.053710938,-0.9758911,0.17230225,-0.84375,-0.71875,0.3125,121
91,1696254753677,-0.06567383,-0.9817505,0.17401123,0.5,-0.015625,0.546875,122
92,1696254753717,-0.060302734,-0.98272705,0.16668701,-0.21875,-0.921875,0.546875,123
93,1696254753757,-0.057617188,-0.9824829,0.17108154,-0.796875,-0.796875,0.34375,124
94,1696254753797,-0.05859375,-0.9741821,0.17840576,-0.625,-0.59375,0.625,125
95,1696254753837,-0.0703125,-0.97979736,0.16546631,0.484375,-0.21875,0.34375,126
96,1696254753877,-0.06738281,-0.98223877,0.17449951,0.453125,-0.34375,0.25,127
97,1696254753917,-0.068115234,-0.9854126,0.17547607,-0.078125,-0.296875,0.4375,128
98,1696254753957,-0.056640625,-0.9795532,0.17059326,0.484375,0.15625,0.1875,129
99,1696254753997,-0.064208984,-0.98321533,0.16864014,-0.578125,-0.390625,0.296875,130
100,1696254754037,-0.059570312,-0.9849243,0.17401123,-0.59375,0.015625,0.125,131
101,1696254754077,-0.067871094,-0.9819946,0.16986084,0.453125,-0.296875,0.375,132
102,1696254754117,-0.056396484,-0.9697876,0.17645264,0.34375,-0.453125,0.484375,133
103,1696254754157,-0.064697266,-0.97540283,0.17449951,-0.296875,-0.96875,0.28125,134
104,1696254754197,-0.05126953,-0.98150635,0.15789795,-0.875,-0.90625,0.5,151
105,1696254754237,-0.05444336,-0.9849243,0.1564331,0.09375,-0.9375,0.21875,152
106,1696254754277,-0.057128906,-0.97442627,0.16741943,-0.578125,-0.265625,-0.078125,153
107,1696254754317,-0.06298828,-0.98101807,0.16278076,-0.40625,-0.390625,-0.046875,154
108,1696254754357,-0.05444336,-0.9812622,0.1671753,-0.875,-0.546875,0.078125,155
109,1696254754397,-0.053955078,-0.97442627,0.17108154,-0.390625,-0.328125,-0.046875,156
110,1696254754437,-0.06542969,-0.9846802,0.17303467,-0.453125,-0.3125,-0.25,157
111,1696254754477,-0.056396484,-0.9800415,0.16668701,-0.75,-0.28125,-0.34375,158
112,1696254754517,-0.061767578,-0.9800415,0.16522217,-0.15625,-0.046875,-0.4375,159
113,1696254754557,-0.06640625,-0.9758911,0.17596436,0.375,-0.515625,-0.375,160
114,1696254754597,-0.071777344,-0.98443604,0.16790771,0.65625,-0.203125,-0.640625,161
115,1696254754637,-0.06201172,-0.98223877,0.16888428,1.15625,0.90625,-0.296875,162
116,1696254754677,-0.056152344,-0.9841919,0.16644287,-0.078125,-0.515625,-0.46875,163
117,1696254754717,-0.07543945,-0.9788208,0.16156006,-0.28125,-0.8125,-0.140625,164
118,1696254754757,-0.07006836,-0.98028564,0.17401123,-0.359375,-0.4375,-0.046875,165
119,1696254754797,-0.06982422,-0.97979736,0.17449951,-0.296875,-0.171875,-0.125,166
120,1696254754837,-0.067871094,-0.9714966,0.16448975,-1.546875,-1.03125,-0.109375,167
121,1696254754877,-0.06933594,-0.98223877,0.17254639,-0.859375,-1.421875,0.09375,168
122,1696254754917,-0.05444336,-0.9805298,0.17449951,1.171875,-0.25,0.265625,169
123,1696254754957,-0.06274414,-0.98223877,0.16937256,0.375,-0.421875,0.484375,170
124,1696254754997,-0.079833984,-0.97735596,0.16448975,0.453125,-1.140625,0.6875,171
125,1696254755037,-0.068115234,-0.98638916,0.15863037,0.6875,-0.515625,0.65625,172
126,1696254755077,-0.06689453,-0.9805298,0.16864014,0.3125,-0.40625,0.796875,173
127,1696254755117,-0.0690918,-0.9837036,0.16326904,0.953125,-0.171875,0.484375,174
128,1696254755157,-0.060302734,-0.98565674,0.15911865,0.203125,-0.078125,0.296875,175
129,1696254755197,-0.06591797,-0.98394775,0.15618896,0.265625,-0.421875,0.328125,176
130,1696254755237,-0.06591797,-0.98272705,0.16375732,0.40625,0.15625,-0.078125,177
131,1696254755277,-0.057128906,-0.97369385,0.1671753,0.125,-0.4375,0.0625,178
132,1696254755317,-0.060302734,-0.9805298,0.16448975,-0.671875,-0.65625,0.171875,179
133,1696254755357,-0.06713867,-0.9807739,0.16107178,-1.140625,-0.640625,-0.0625,180
134,1696254755397,-0.06616211,-0.97784424,0.16815186,0.0625,-0.421875,0.40625,181
135,1696254755437,-0.064941406,-0.9817505,0.15887451,0.171875,-1.453125,-0.1875,182
136,1696254755477,-0.05810547,-0.9812622,0.15814209,-0.296875,-1.015625,0.0625,183
137,1696254755517,-0.06567383,-0.98443604,0.16741943,-0.140625,-0.234375,0.46875,184
138,1696254755557,-0.0703125,-0.9812622,0.16790771,0.28125,-0.6875,0.375,185
139,1696254755597,-0.068115234,-0.9788208,0.15545654,-1.09375,-0.140625,0.0,186
140,1696254755637,-0.060302734,-0.98394775,0.16400146,-0.21875,-0.234375,0.3125,187
141,1696254755677,-0.064453125,-0.9819946,0.16473389,-0.8125,-1.265625,0.328125,188
142,1696254755717,-0.07128906,-0.97491455,0.16937256,-1.328125,-0.53125,0.078125,189
143,1696254755757,-0.072753906,-0.9854126,0.15960693,-0.828125,0.046875,-0.015625,190
144,1696254755797,-0.06591797,-0.9859009,0.1749878,-0.578125,0.0,0.21875,191
145,1696254755837,-0.064453125,-0.9805298,0.17181396,0.0625,-0.5,0.390625,192
146,1696254755877,-0.0690918,-0.97198486,0.17327881,-0.28125,-0.265625,0.078125,193
147,1696254755917,-0.07324219,-0.9873657,0.1696167,-0.625,-0.6875,0.34375,194
148,1696254755957,-0.06689453,-0.9734497,0.16326904,-0.078125,-0.421875,0.0625,195
149,1696254755997,-0.057861328,-0.98565674,0.17010498,0.109375,-0.328125,0.390625,196
150,1696254756037,-0.06542969,-0.97198486,0.16107178,-1.046875,-0.78125,0.03125,197
151,1696254756077,-0.06591797,-0.9902954,0.17474365,-0.171875,-0.171875,0.484375,198
152,1696254756117,-0.07080078,-0.9780884,0.17645264,-1.046875,-0.03125,0.28125,199
153,1696254756157,-0.068115234,-0.9795532,0.16937256,-1.09375,-0.6875,-0.03125,200
154,1696254756197,-0.060791016,-0.9807739,0.17449951,-0.46875,-0.515625,0.40625,201
155,1696254756237,-0.067871094,-0.9837036,0.18060303,-0.1875,-0.625,0.421875,202
156,1696254756277,-0.06518555,-0.9714966,0.17132568,-0.640625,-0.53125,0.21875,203
157,1696254756317,-0.06640625,-0.9758911,0.17181396,0.515625,0.09375,0.453125,204
158,1696254756357,-0.056640625,-0.975647,0.17572021,0.546875,-0.671875,0.421875,205
159,1696254756397,-0.06616211,-0.9824829,0.17474365,0.09375,-0.515625,0.15625,206
160,1696254756437,-0.060791016,-0.9829712,0.17181396,0.203125,-0.40625,0.03125,207
161,1696254756477,-0.05834961,-0.9780884,0.17694092,0.1875,-0.265625,0.21875,208
162,1696254756517,-0.06567383,-0.9805298,0.17938232,0.09375,-0.328125,0.203125,209
163,1696254756557,-0.061523438,-0.9849243,0.16864014,0.015625,-0.125,0.21875,210
164,1696254756597,-0.06689453,-0.97320557,0.17352295,-0.109375,-0.21875,0.078125,211
165,1696254756637,-0.059570312,-0.98272705,0.1774292,0.140625,-0.40625,0.109375,212
166,1696254756677,-0.064453125,-0.98321533,0.17572021,-0.421875,-0.578125,0.296875,213
167,1696254756717,-0.06347656,-0.9795532,0.17156982,-0.96875,-0.671875,0.234375,214
168,1696254756757,-0.06713867,-0.9812622,0.17010498,-0.6875,-0.828125,0.203125,215
169,1696254756797,-0.0625,-0.986145,0.18792725,0.984375,0.078125,0.390625,216
170,1696254756837,-0.059570312,-0.9734497,0.17254639,0.375,-0.421875,0.734375,217
171,1696254756877,-0.06201172,-0.97540283,0.17010498,-0.125,-0.375,0.421875,218
172,1696254756917,-0.06225586,-0.9819946,0.1696167,-0.859375,-0.5625,0.078125,219
173,1696254756957,-0.06298828,-0.98028564,0.18109131,-0.234375,-0.203125,0.671875,220
174,1696254756997,-0.06713867,-0.97369385,0.17279053,-0.75,-0.640625,0.046875,221
175,1696254757037,-0.06567383,-0.98028564,0.17816162,-0.59375,0.015625,0.03125,222
176,1696254757077,-0.061767578,-0.9841919,0.18011475,-1.53125,0.078125,-0.046875,223
177,1696254757117,-0.0637207,-0.9807739,0.1774292,-0.828125,-0.25,0.265625,224
178,1696254757157,-0.056396484,-0.9678345,0.17572021,-1.609375,-0.765625,-0.03125,225
179,1696254757197,-0.06518555,-0.9793091,0.18035889,-1.625,-0.8125,0.171875,226
180,1696254757237,-0.06201172,-0.9819946,0.18963623,-2.15625,-0.65625,0.265625,227
181,1696254757277,-0.056884766,-0.9727173,0.19354248,-2.734375,-0.453125,0.40625,228
182,1696254757317,-0.0703125,-0.9829712,0.18231201,-0.5,-0.75,0.1875,229
183,1696254757357,-0.06738281,-0.9805298,0.19158936,-0.484375,-0.265625,0.515625,230
184,1696254757397,-0.0637207,-0.9783325,0.1942749,-0.84375,-0.25,0.5,231
185,1696254757437,-0.056152344,-0.97613525,0.19354248,-0.90625,-0.328125,0.28125,232
186,1696254757477,-0.064697266,-0.9793091,0.18841553,-0.953125,-0.515625,0.265625,233
187,1696254757517,-0.061279297,-0.98028564,0.19622803,-0.515625,-0.65625,0.375,234
188,1696254757557,-0.061523438,-0.9805298,0.19793701,-1.171875,-0.328125,0.109375,235
189,1696254757597,-0.06689453,-0.9807739,0.19451904,-0.78125,-0.625,0.140625,236
190,1696254757637,-0.07080078,-0.9727173,0.20013428,-0.1875,-0.6875,0.1875,237
191,1696254757677,-0.061767578,-0.9837036,0.19281006,-0.828125,-0.828125,0.125,238
192,1696254757717,-0.06298828,-0.9746704,0.20233154,-0.71875,-1.140625,0.296875,239
193,1696254757757,-0.072265625,-0.97857666,0.20111084,0.015625,-0.828125,0.140625,240
194,1696254757797,-0.05859375,-0.97369385,0.2020874,-0.0625,-0.65625,0.1875,241
195,1696254757837,-0.057373047,-0.9776001,0.2086792,-0.40625,-0.875,0.125,242
196,1696254757877,-0.061523438,-0.97662354,0.19940186,-0.765625,-1.40625,0.171875,243
197,1696254757917,-0.06298828,-0.972229,0.20721436,0.140625,-0.5,0.4375,244
198,1696254757957,-0.076171875,-0.96954346,0.1984253,1.640625,-0.59375,0.421875,245
199,1696254757997,-0.061279297,-0.97369385,0.19134521,1.0625,-0.484375,0.71875,246
200,1696254758037,-0.057617188,-0.9793091,0.20452881,0.890625,-1.203125,0.5625,247
201,1696254758077,-0.060058594,-0.97320557,0.1942749,0.640625,-0.921875,0.78125,248
202,1696254758117,-0.06298828,-0.9602661,0.19354248,0.5,-0.40625,0.3125,249
203,1696254758157,-0.059326172,-0.986145,0.19476318,1.15625,-0.25,0.5625,250
204,1696254758197,-0.061523438,-0.97979736,0.19525146,0.5625,-0.46875,0.328125,251
205,1696254758237,-0.05908203,-0.9768677,0.19134521,0.3125,-0.890625,0.34375,252
206,1696254758277,-0.057373047,-0.97491455,0.18939209,0.984375,-1.15625,0.578125,253
207,1696254758317,-0.06323242,-0.973938,0.1918335,0.296875,-1.234375,0.546875,254
208,1696254758357,-0.063964844,-0.9763794,0.18743896,0.140625,-1.171875,0.40625,255
209,1696254758397,-0.059814453,-0.9734497,0.19281006,0.578125,-0.671875,0.453125,256
210,1696254758437,-0.0637207,-0.975647,0.18841553,-0.015625,-1.125,0.296875,257
211,1696254758477,-0.063964844,-0.9702759,0.17596436,1.125,-1.046875,-0.078125,258
212,1696254758517,-0.063964844,-0.9829712,0.1930542,2.625,-0.484375,0.046875,259
213,1696254758557,-0.06567383,-0.9795532,0.18377686,1.03125,-1.015625,0.234375,260
214,1696254758597,-0.052246094,-0.9758911,0.17669678,-0.0625,-0.6875,0.078125,261
215,1696254758637,-0.0637207,-0.973938,0.18988037,0.359375,-1.296875,0.296875,262
216,1696254758677,-0.057861328,-0.97491455,0.17230225,-0.234375,-0.921875,0.140625,263
217,1696254758717,-0.056884766,-0.9783325,0.18255615,-0.203125,0.078125,0.1875,264
218,1696254758757,-0.06567383,-0.9795532,0.184021,-0.203125,-0.375,0.1875,265
219,1696254758797,-0.06298828,-0.97442627,0.17962646,-0.625,-0.1875,0.078125,266
220,1696254758837,-0.053710938,-0.9771118,0.18231201,-0.15625,-0.046875,0.203125,267
221,1696254758877,-0.064697266,-0.9805298,0.1798706,-0.265625,-0.265625,-0.046875,268
222,1696254758917,-0.061767578,-0.9788208,0.18084717,-0.6875,-0.3125,0.078125,269
223,1696254758957,-0.053466797,-0.97857666,0.18157959,-0.59375,-0.34375,-0.265625,270
224,1696254758997,-0.052490234,-0.97540283,0.18231201,-0.453125,-0.75,0.1875,271
225,1696254759037,-0.057861328,-0.97491455,0.18084717,-0.140625,-0.640625,0.0625,272
226,1696254759077,-0.061523438,-0.9819946,0.1876831,0.265625,-0.25,0.359375,273
227,1696254759117,-0.053466797,-0.9783325,0.17840576,0.609375,-0.453125,0.03125,274
228,1696254759157,-0.05493164,-0.9751587,0.18060303,0.46875,0.09375,0.03125,275
229,1696254759197,-0.06518555,-0.98101807,0.17474365,0.546875,-0.34375,0.0,276
230,1696254759237,-0.06225586,-0.97906494,0.18255615,0.40625,-0.09375,0.125,277
231,1696254759277,-0.0703125,-0.97540283,0.18304443,-0.28125,-0.71875,0.078125,278
232,1696254759317,-0.06567383,-0.9793091,0.17352295,-0.53125,-0.578125,-0.1875,279
233,1696254759357,-0.07006836,-0.98223877,0.18695068,-0.390625,-0.828125,-0.234375,280
234,1696254759397,-0.063964844,-0.97735596,0.18572998,-0.140625,-0.796875,-0.1875,281
235,1696254759437,-0.06616211,-0.9812622,0.17816162,0.78125,-0.59375,0.015625,282
236,1696254759477,-0.068115234,-0.9741821,0.1798706,0.234375,-0.546875,-0.0625,283
237,1696254759517,-0.0625,-0.97662354,0.17889404,0.5,-0.3125,0.1875,284
238,1696254759557,-0.07006836,-0.9758911,0.17962646,1.25,-0.46875,-0.0625,285
239,1696254759597,-0.06689453,-0.9783325,0.1786499,0.515625,-0.65625,0.234375,286
240,1696254759637,-0.059814453,-0.9846802,0.17449951,0.28125,-0.078125,-0.15625,287
241,1696254759677,-0.07470703,-0.98272705,0.17425537,-0.15625,-0.25,-0.046875,288
242,1696254759717,-0.061279297,-0.9768677,0.17938232,0.375,0.359375,0.3125,289
243,1696254759757,-0.064697266,-0.97442627,0.17694092,-0.359375,-0.671875,0.03125,290
244,1696254759797,-0.072753906,-0.9805298,0.18109131,-0.375,-0.640625,0.09375,291
245,1696254759837,-0.060791016,-0.9783325,0.18328857,-1.265625,-0.296875,0.046875,292
246,1696254759877,-0.07080078,-0.97857666,0.18084717,-0.71875,-0.453125,0.359375,293
247,1696254759917,-0.059326172,-0.98516846,0.18231201,1.09375,-0.5625,0.453125,294
248,1696254759957,-0.06567383,-0.9727173,0.17401123,0.015625,-0.28125,0.328125,295
249,1696254759997,-0.06982422,-0.9771118,0.17938232,1.09375,-0.6875,0.375,296
250,1696254760037,-0.06298828,-0.98883057,0.16912842,0.734375,-0.84375,0.21875,297
251,1696254760077,-0.063964844,-0.9783325,0.1852417,-0.703125,-0.703125,0.203125,298
252,1696254760117,-0.0703125,-0.9805298,0.18328857,-0.96875,-0.890625,0.015625,299
253,1696254760157,-0.06567383,-0.9829712,0.1786499,-0.28125,-0.1875,-0.015625,300
254,1696254760197,-0.059814453,-0.9837036,0.18133545,-0.21875,-0.546875,0.109375,301
255,1696254760237,-0.06738281,-0.9776001,0.18157959,0.296875,-0.21875,0.171875,302
256,1696254760277,-0.072021484,-0.9795532,0.17596436,0.5,-0.484375,0.25,303
257,1696254760317,-0.068603516,-0.9771118,0.18255615,0.015625,-0.203125,0.09375,304
258,1696254760357,-0.0637207,-0.97613525,0.18206787,0.140625,-0.453125,0.40625,305
259,1696254760397,-0.064941406,-0.9817505,0.17889404,0.15625,-0.5,0.25,306
260,1696254760437,-0.06616211,-0.98394775,0.18353271,0.328125,-0.421875,0.203125,307
261,1696254760477,-0.0690918,-0.972229,0.17352295,0.390625,-0.40625,0.359375,308
262,1696254760517,-0.064453125,-0.9776001,0.17474365,0.109375,-0.390625,0.296875,309
263,1696254760557,-0.06982422,-0.98272705,0.17694092,0.25,-0.296875,0.375,310
264,1696254760597,-0.061279297,-0.98101807,0.17254639,0.359375,-0.390625,0.125,311
265,1696254760637,-0.06591797,-0.97857666,0.17303467,0.109375,-0.28125,0.21875,312
266,1696254760677,-0.06567383,-0.9807739,0.16693115,-0.78125,-0.6875,-0.375,313
267,1696254760717,-0.06201172,-0.9873657,0.17669678,-0.515625,-0.109375,0.28125,314
268,1696254760757,-0.06640625,-0.9817505,0.17913818,-0.3125,-0.375,0.078125,315
269,1696254760797,-0.06738281,-0.9763794,0.18011475,-0.6875,-0.3125,0.046875,316
270,1696254760837,-0.06713867,-0.9817505,0.17718506,-0.75,-0.421875,0.125,317
271,1696254760877,-0.07104492,-0.98272705,0.18182373,-0.25,-0.25,0.078125,318
272,1696254760917,-0.06640625,-0.9746704,0.18060303,-1.625,-0.65625,-0.0625,319
273,1696254760957,-0.06689453,-0.97247314,0.17108154,-0.703125,-1.109375,-0.21875,320
274,1696254760997,-0.063964844,-0.98516846,0.18109131,0.65625,-0.4375,0.515625,321
275,1696254761037,-0.06762695,-0.97442627,0.18792725,0.34375,-0.375,0.671875,322
276,1696254761077,-0.067871094,-0.97857666,0.17181396,0.125,-0.34375,0.46875,323
277,1696254761117,-0.061523438,-0.9795532,0.17596436,0.828125,-0.21875,0.34375,324
278,1696254761157,-0.06713867,-0.9829712,0.1798706,0.40625,-0.515625,0.421875,325
279,1696254761197,-0.06713867,-0.98443604,0.17938232,0.140625,-0.09375,0.390625,326
280,1696254761237,-0.06762695,-0.9729614,0.17108154,0.671875,0.734375,0.359375,327
281,1696254761277,-0.06689453,-0.9793091,0.17913818,0.453125,-0.34375,0.4375,328
282,1696254761317,-0.059570312,-0.9780884,0.18011475,-0.125,-0.71875,0.328125,329
283,1696254761357,-0.06518555,-0.9741821,0.17767334,0.046875,-0.84375,0.328125,330
284,1696254761397,-0.072265625,-0.98028564,0.17645264,-0.328125,-0.640625,0.171875,331
285,1696254761437,-0.064941406,-0.9837036,0.1749878,0.265625,0.203125,0.203125,332
286,1696254761477,-0.05883789,-0.9751587,0.1762085,0.4375,-0.328125,0.21875,333
287,1696254761517,-0.06933594,-0.97784424,0.1749878,-0.046875,-0.265625,0.25,334
288,1696254761557,-0.06640625,-0.9824829,0.18353271,0.21875,-0.296875,0.375,335
289,1696254761597,-0.06274414,-0.97735596,0.17327881,0.203125,-0.5,0.390625,336
290,1696254761637,-0.064453125,-0.973938,0.17547607,0.78125,-0.109375,0.40625,337
291,1696254761677,-0.061279297,-0.9824829,0.17352295,-0.140625,-0.3125,0.125,338
292,1696254761717,-0.061035156,-0.98516846,0.17840576,1.125,0.90625,0.859375,339
293,1696254761757,-0.060546875,-0.97540283,0.17034912,0.625,-0.46875,0.6875,340
294,1696254761797,-0.061035156,-0.97906494,0.1708374,1.671875,0.59375,0.484375,341
295,1696254761837,-0.056396484,-0.98638916,0.16473389,1.890625,0.359375,0.734375,342
296,1696254761877,-0.053222656,-0.9841919,0.16229248,1.96875,-0.125,1.046875,343
297,1696254761917,-0.060791016,-0.9817505,0.16668701,1.375,-0.515625,0.953125,344
298,1696254761957,-0.06298828,-0.9807739,0.15545654,0.875,-0.484375,0.453125,345
299,1696254761997,-0.053955078,-0.9805298,0.1642456,0.28125,-0.59375,0.703125,346
300,1696254762037,-0.055664062,-0.987854,0.15740967,1.09375,-0.515625,0.78125,347
301,1696254762077,-0.05517578,-0.987854,0.16448975,-0.421875,-0.09375,0.53125,348
302,1696254762117,-0.0637207,-0.98150635,0.16278076,-0.359375,-0.296875,0.578125,349
303,1696254762157,-0.051757812,-0.9795532,0.15911865,-1.703125,-1.453125,0.59375,350
304,1696254762197,-0.04711914,-0.9788208,0.16448975,-1.453125,-1.484375,-0.109375,351
305,1696254762237,-0.045410156,-0.9805298,0.15325928,0.53125,0.203125,0.21875,352
306,1696254762277,-0.05419922,-0.98101807,0.15911865,1.25,-1.171875,0.578125,353
307,1696254762317,-0.051513672,-0.98321533,0.15496826,3.28125,-0.09375,0.953125,354
308,1696254762357,-0.060302734,-0.9812622,0.15887451,1.59375,-0.28125,0.484375,355
309,1696254762397,-0.060058594,-0.9788208,0.1515503,1.609375,0.390625,0.453125,356
310,1696254762437,-0.048095703,-0.9800415,0.15203857,1.15625,-0.171875,0.21875,357
311,1696254762477,-0.052490234,-0.98272705,0.1461792,0.578125,-0.421875,-0.015625,358
312,1696254762517,-0.047851562,-0.986145,0.14788818,0.3125,0.5,0.0625,359
313,1696254762557,-0.040283203,-0.9841919,0.1539917,0.171875,-0.046875,0.296875,360
314,1696254762597,-0.039794922,-0.9800415,0.13494873,0.84375,-0.921875,0.28125,361
315,1696254762637,-0.05444336,-0.9873657,0.14813232,0.46875,-1.15625,0.25,362
316,1696254762677,-0.06665039,-0.9902954,0.15252686,-1.0,-0.859375,0.125,363
317,1696254762717,-0.053710938,-0.97857666,0.14154053,-0.96875,-1.15625,0.109375,364
318,1696254762757,-0.048339844,-0.9819946,0.15203857,-1.296875,-1.109375,-0.015625,365
319,1696254762797,-0.055419922,-0.9805298,0.15008545,-1.8125,-1.09375,0.203125,366
320,1696254762837,-0.05419922,-0.9795532,0.14788818,-0.03125,-0.53125,-0.296875,386
321,1696254762877,-0.049804688,-0.98028564,0.14910889,0.34375,0.140625,-0.1875,387
322,1696254762917,-0.049072266,-0.98394775,0.15570068,0.34375,-0.28125,0.28125,388
323,1696254762957,-0.059570312,-0.9920044,0.15179443,0.140625,0.0,0.40625,389
324,1696254762997,-0.060546875,-0.98150635,0.1515503,0.046875,-0.359375,0.0,390
325,1696254763037,-0.057373047,-0.98150635,0.15228271,0.703125,-0.203125,0.453125,391
326,1696254763077,-0.055908203,-0.9834595,0.14715576,1.171875,-0.3125,0.125,392
327,1696254763117,-0.052001953,-0.97979736,0.15203857,0.828125,-0.5625,0.0625,393
328,1696254763157,-0.05493164,-0.9837036,0.14544678,1.015625,-0.40625,0.546875,394
329,1696254763197,-0.049804688,-0.9795532,0.14276123,-0.3125,-0.53125,0.03125,395
330,1696254763237,-0.048095703,-0.97979736,0.14910889,-0.578125,-1.0,0.421875,396
331,1696254763277,-0.050048828,-0.9805298,0.14593506,0.28125,-1.53125,0.5,397
332,1696254763317,-0.04736328,-0.9981079,0.14227295,0.125,0.265625,-0.125,398
333,1696254763357,-0.061279297,-0.9741821,0.15374756,0.171875,-0.046875,-0.234375,399
334,1696254763397,-0.05883789,-0.9834595,0.14715576,0.140625,-0.125,-0.53125,400
335,1696254763437,-0.052490234,-0.9824829,0.13812256,-0.421875,0.03125,-0.484375,401
336,1696254763477,-0.040039062,-0.97442627,0.1486206,-0.984375,-0.53125,-0.125,402
337,1696254763517,-0.061523438,-0.9795532,0.15570068,0.796875,-0.796875,0.484375,403
338,1696254763557,-0.07739258,-0.9963989,0.15057373,0.609375,-0.890625,1.234375,404
339,1696254763597,-0.064208984,-0.9849243,0.14813232,1.03125,0.9375,0.078125,405
340,1696254763637,-0.04711914,-0.97491455,0.14105225,0.828125,0.8125,0.09375,406
341,1696254763677,-0.052734375,-0.99224854,0.1437378,1.390625,-0.390625,0.3125,407
342,1696254763717,-0.05810547,-0.9920044,0.14300537,1.609375,-0.015625,0.21875,408
343,1696254763757,-0.07470703,-0.9907837,0.13861084,0.390625,-0.28125,0.59375,409
344,1696254763797,-0.05419922,-0.98150635,0.1239624,0.25,0.4375,0.125,410
345,1696254763837,-0.039794922,-0.9656372,0.13494873,1.3125,0.0625,0.4375,411
346,1696254763877,-0.053222656,-0.99468994,0.13275146,0.953125,-1.109375,2.109375,412
347,1696254763917,-0.05517578,-0.98150635,0.14129639,0.28125,-1.140625,1.265625,413
348,1696254763957,-0.055908203,-0.98223877,0.12615967,0.4375,0.25,0.703125,414
349,1696254763997,-0.044189453,-0.9795532,0.13250732,1.046875,0.359375,0.75,415
350,1696254764037,-0.045166016,-0.9849243,0.13153076,0.453125,-0.734375,1.15625,416
351,1696254764077,-0.049560547,-0.98638916,0.12786865,-0.5625,-0.671875,0.609375,417
352,1696254764117,-0.057617188,-0.98443604,0.12957764,0.046875,-0.203125,0.375,418
353,1696254764157,-0.05517578,-0.987854,0.13031006,-0.015625,-0.21875,0.328125,419
354,1696254764197,-0.03955078,-0.98028564,0.1305542,0.078125,-0.484375,0.0625,420
355,1696254764237,-0.041748047,-0.9859009,0.13128662,-0.3125,-0.296875,0.203125,421
356,1696254764277,-0.047851562,-0.9854126,0.12957764,0.125,-0.953125,0.046875,422
357,1696254764317,-0.044433594,-0.9898071,0.12713623,0.578125,-0.109375,0.140625,423
358,1696254764357,-0.037597656,-0.9859009,0.12982178,0.828125,0.046875,0.34375,424
359,1696254764397,-0.0390625,-0.9859009,0.12664795,0.359375,-0.90625,0.171875,425
360,1696254764437,-0.050048828,-0.9824829,0.12762451,0.015625,-0.6875,0.09375,426
361,1696254764477,-0.049804688,-0.9902954,0.12176514,-0.296875,-0.34375,0.1875,427
362,1696254764517,-0.04248047,-0.97857666,0.13201904,-0.546875,-0.546875,0.125,428
363,1696254764557,-0.051513672,-0.9849243,0.1359253,-0.4375,-0.671875,0.5,429
364,1696254764597,-0.055419922,-0.9834595,0.13519287,-0.53125,-0.75,-0.109375,430
365,1696254764637,-0.051757812,-0.98565674,0.1359253,-0.75,-0.59375,-0.0625,431
366,1696254764677,-0.044433594,-0.97906494,0.13104248,-1.28125,-0.296875,-0.015625,432
367,1696254764717,-0.041992188,-0.9783325,0.13519287,-0.5625,-0.859375,0.15625,433
368,1696254764757,-0.056152344,-0.9819946,0.13983154,-0.84375,-0.953125,0.171875,434
369,1696254764797,-0.059814453,-0.98150635,0.13739014,-0.578125,-0.328125,-0.078125,435
370,1696254764837,-0.052734375,-0.98809814,0.13983154,-0.453125,0.109375,-0.09375,436
371,1696254764877,-0.045166016,-0.98272705,0.13934326,-0.078125,-0.859375,0.015625,437
372,1696254764917,-0.056640625,-0.9846802,0.14202881,-0.421875,-0.671875,0.515625,438
373,1696254764957,-0.055419922,-0.98272705,0.13323975,-0.875,-0.140625,-0.03125,439
374,1696254764997,-0.04663086,-0.98321533,0.14300537,0.109375,-0.21875,0.40625,440
375,1696254765037,-0.049560547,-0.9795532,0.14349365,0.09375,-0.359375,0.296875,441
376,1696254765077,-0.052490234,-0.9885864,0.13568115,-0.140625,-0.140625,0.375,442
377,1696254765117,-0.04663086,-0.98443604,0.13787842,-0.265625,-0.234375,0.46875,443
378,1696254765157,-0.04296875,-0.98687744,0.13812256,0.015625,-0.46875,0.328125,444
379,1696254765197,-0.05078125,-0.98443604,0.1395874,-0.578125,-0.546875,0.5,445
380,1696254765237,-0.049316406,-0.9793091,0.13494873,-0.515625,-0.671875,0.453125,446
381,1696254765277,-0.05078125,-0.987854,0.13568115,0.125,-0.546875,0.734375,447
382,1696254765317,-0.05126953,-0.98394775,0.1408081,0.140625,-0.578125,0.4375,448
383,1696254765357,-0.050048828,-0.98150635,0.14276123,0.03125,-0.65625,0.515625,449
384,1696254765397,-0.049072266,-0.9788208,0.13763428,-0.234375,-0.703125,0.3125,450
385,1696254765437,-0.056152344,-0.9829712,0.14398193,-0.25,-0.546875,0.296875,451
386,1696254765477,-0.05126953,-0.98516846,0.14251709,-0.015625,-1.078125,0.125,452
387,1696254765517,-0.041503906,-0.9841919,0.14544678,0.359375,-0.859375,0.0625,453
388,1696254765557,-0.044433594,-0.9837036,0.13861084,0.90625,-0.25,0.484375,454
389,1696254765597,-0.036621094,-0.98516846,0.13787842,-2.125,0.359375,-0.296875,471
390,1696254765637,-0.041748047,-0.9805298,0.13446045,-2.6875,-0.1875,-0.046875,472
391,1696254765677,-0.043945312,-0.9859009,0.14276123,-2.6875,-0.78125,0.453125,473
392,1696254765717,-0.04272461,-0.9859009,0.14764404,-2.359375,-0.34375,-0.078125,474
393,1696254765757,-0.04345703,-0.9807739,0.13885498,-1.25,-1.09375,-0.25,475
394,1696254765797,-0.037109375,-0.9859009,0.1539917,-1.234375,-1.015625,-0.46875,476
395,1696254765837,-0.052978516,-0.98101807,0.15496826,-1.234375,-1.59375,0.109375,477
396,1696254765877,-0.056152344,-0.98516846,0.15081787,-1.8125,-1.078125,0.015625,478
397,1696254765917,-0.05444336,-0.9729614,0.14886475,-2.171875,-0.515625,0.078125,479
398,1696254765957,-0.04272461,-0.98101807,0.1515503,-1.015625,-0.953125,0.453125,480
399,1696254765997,-0.05444336,-0.9793091,0.16131592,-1.140625,-1.078125,0.296875,481
400,1696254766037,-0.057617188,-0.9819946,0.15570068,-1.0625,-0.828125,0.5,482
401,1696254766077,-0.04272461,-0.9846802,0.15594482,-0.515625,-0.28125,0.296875,483
402,1696254766117,-0.04296875,-0.9805298,0.16033936,-0.171875,-1.15625,0.375,484
403,1696254766157,-0.04345703,-0.972229,0.16619873,-0.5,-0.96875,0.234375,485
404,1696254766197,-0.051757812,-0.9837036,0.16204834,-0.625,-0.859375,0.34375,486
405,1696254766237,-0.03930664,-0.97979736,0.16375732,0.1875,-0.1875,0.0625,487
406,1696254766277,-0.05029297,-0.9807739,0.1593628,0.015625,-0.75,0.03125,488
407,1696254766317,-0.05834961,-0.9746704,0.16400146,1.078125,-0.6875,0.078125,489
408,1696254766357,-0.05078125,-0.98223877,0.15203857,0.625,0.25,0.109375,490
409,1696254766397,-0.045898438,-0.98223877,0.16595459,0.0625,0.015625,-0.015625,491
410,1696254766437,-0.04345703,-0.9829712,0.15301514,-0.0625,-0.15625,-0.34375,492
411,1696254766477,-0.043701172,-0.97662354,0.15545654,-0.875,-0.4375,-0.203125,493
412,1696254766517,-0.05444336,-0.98809814,0.15985107,-0.71875,-0.53125,0.078125,494
413,1696254766557,-0.03930664,-0.9837036,0.16156006,0.03125,-0.09375,-0.0625,495
414,1696254766597,-0.04345703,-0.972229,0.15814209,0.0,-0.4375,-0.25,496
415,1696254766637,-0.047607422,-0.97857666,0.16278076,0.0,-0.796875,0.234375,497
416,1696254766677,-0.053710938,-0.9793091,0.16107178,-0.140625,-0.5,0.421875,498
417,1696254766717,-0.046875,-0.9819946,0.15496826,0.265625,0.25,0.3125,499
418,1696254766757,-0.049804688,-0.9795532,0.16400146,0.625,-0.578125,0.140625,500
419,1696254766797,-0.05419922,-0.9805298,0.16009521,0.1875,-0.484375,-0.078125,501
420,1696254766837,-0.05444336,-0.98443604,0.152771,0.078125,-0.296875,-0.375,502
421,1696254766877,-0.04663086,-0.9834595,0.15203857,-0.25,-0.328125,-0.28125,503
422,1696254766917,-0.046875,-0.975647,0.16082764,-0.203125,-0.328125,-0.5625,504
423,1696254766957,-0.055419922,-0.99102783,0.1539917,-0.0625,-0.328125,-0.359375,505
424,1696254766997,-0.04638672,-0.9837036,0.1593628,-0.34375,-0.546875,0.234375,506
425,1696254767037,-0.048095703,-0.9758911,0.15863037,-0.375,-0.484375,0.25,507
426,1696254767077,-0.04711914,-0.97784424,0.15350342,0.296875,-1.390625,0.1875,508
427,1696254767117,-0.041015625,-0.98516846,0.15911865,0.109375,-0.984375,0.609375,509
428,1696254767157,-0.0637207,-0.97979736,0.16473389,-0.1875,-0.640625,0.34375,510
429,1696254767197,-0.0637207,-0.97857666,0.15081787,-0.09375,0.078125,0.125,511
430,1696254767237,-0.05834961,-0.97076416,0.16009521,-0.53125,-0.046875,0.234375,512
431,1696254767277,-0.052978516,-0.97613525,0.17327881,1.0625,0.453125,-0.046875,513
432,1696254767317,-0.059814453,-0.9854126,0.1630249,-0.875,0.984375,0.03125,514
433,1696254767357,-0.05126953,-0.9817505,0.14813232,-0.1875,0.53125,-0.140625,515
434,1696254767397,-0.038085938,-0.9702759,0.15301514,0.640625,-0.203125,-0.328125,516
435,1696254767437,-0.045654297,-0.98516846,0.1630249,1.046875,-0.34375,0.203125,517
436,1696254767477,-0.061035156,-0.989563,0.14813232,0.328125,-0.1875,-0.046875,518
437,1696254767517,-0.056640625,-0.98883057,0.14788818,1.9375,0.46875,0.28125,519
438,1696254767557,-0.039794922,-0.9788208,0.1539917,1.640625,0.015625,0.59375,520
439,1696254767597,-0.048583984,-0.98638916,0.1486206,0.96875,-0.34375,0.421875,521
440,1696254767637,-0.053710938,-0.991272,0.15374756,-0.640625,-1.015625,0.484375,522
441,1696254767677,-0.056640625,-0.9898071,0.14886475,-0.203125,-0.765625,0.21875,523
442,1696254767717,-0.049560547,-0.9824829,0.15692139,-1.203125,-0.21875,0.328125,524
443,1696254767757,-0.052490234,-0.98028564,0.14691162,-0.21875,-0.625,-0.203125,525
444,1696254767797,-0.05859375,-0.9841919,0.16400146,1.46875,0.765625,0.140625,526
445,1696254767837,-0.057128906,-0.9837036,0.15301514,-0.84375,0.515625,0.15625,527
446,1696254767877,-0.048583984,-0.9788208,0.13690186,-0.015625,-0.03125,-0.265625,528
447,1696254767917,-0.04345703,-0.9793091,0.14715576,0.25,-0.84375,0.203125,529
448,1696254767957,-0.051513672,-0.9812622,0.15911865,-0.03125,-0.921875,0.234375,530
449,1696254767997,-0.06567383,-0.9812622,0.1486206,0.015625,-0.359375,0.1875,531
450,1696254768037,-0.046142578,-0.98028564,0.15203857,0.03125,-0.109375,0.015625,532
451,1696254768077,-0.04321289,-0.97613525,0.14984131,-0.03125,0.03125,0.359375,533
452,1696254768117,-0.051513672,-0.9788208,0.15032959,0.3125,-0.796875,0.34375,534
453,1696254768157,-0.060546875,-0.98394775,0.1539917,-0.25,-0.953125,0.421875,535
454,1696254768197,-0.05908203,-0.9885864,0.15472412,-0.765625,-1.046875,0.328125,536
455,1696254768237,-0.044921875,-0.98101807,0.14666748,0.125,-0.21875,0.015625,537
456,1696254768277,-0.045654297,-0.98394775,0.15301514,0.40625,-0.90625,0.296875,538
457,1696254768317,-0.053466797,-0.98687744,0.1473999,-0.484375,-0.671875,-0.078125,539
458,1696254768357,-0.055664062,-0.97491455,0.14788818,-0.421875,-0.140625,0.46875,540
459,1696254768397,-0.051757812,-0.9817505,0.14935303,0.078125,0.015625,0.4375,541
460,1696254768437,-0.051757812,-0.98101807,0.14935303,-0.046875,-0.625,0.046875,542
461,1696254768477,-0.056884766,-0.98687744,0.14544678,0.03125,-0.34375,0.25,543
462,1696254768517,-0.055664062,-0.98321533,0.14959717,-0.046875,-0.484375,0.125,544
463,1696254768557,-0.05029297,-0.97784424,0.152771,0.078125,-0.484375,0.1875,545
464,1696254768597,-0.049560547,-0.973938,0.15228271,0.0,-0.1875,-0.046875,546
465,1696254768637,-0.04736328,-0.98443604,0.15325928,-0.359375,-0.328125,0.546875,547
466,1696254768677,-0.053955078,-0.99005127,0.1618042,-2.578125,-0.234375,0.546875,548
467,1696254768717,-0.05102539,-0.975647,0.14984131,-3.5,0.3125,0.234375,549
468,1696254768757,-0.041503906,-0.9788208,0.1473999,-1.328125,-0.5625,0.1875,550
469,1696254768797,-0.055419922,-0.98101807,0.16815186,-1.71875,-0.921875,0.40625,551
470,1696254768837,-0.059570312,-0.97979736,0.16448975,-2.28125,-0.546875,0.453125,552
471,1696254768877,-0.048339844,-0.97979736,0.16619873,-2.59375,-0.40625,0.296875,553
472,1696254768917,-0.052001953,-0.9717407,0.16766357,-1.859375,-0.265625,0.59375,554
473,1696254768957,-0.047851562,-0.98394775,0.1720581,-1.453125,-0.546875,0.546875,555
474,1696254768997,-0.05078125,-0.9849243,0.17181396,-0.390625,-0.859375,0.203125,556
475,1696254769037,-0.05419922,-0.9741821,0.17327881,-0.125,-0.5,0.1875,557
476,1696254769077,-0.05102539,-0.97906494,0.18084717,-0.15625,-0.859375,0.46875,558
477,1696254769117,-0.045898438,-0.9771118,0.16912842,-0.40625,-0.546875,0.28125,559
478,1696254769157,-0.051513672,-0.9751587,0.17791748,-0.84375,-0.640625,0.453125,560
479,1696254769197,-0.04321289,-0.97906494,0.1774292,-1.28125,-0.609375,0.09375,561
480,1696254769237,-0.055419922,-0.9834595,0.1798706,-0.109375,-0.375,0.484375,562
481,1696254769277,-0.046875,-0.98223877,0.17816162,-0.375,-0.375,0.296875,563
482,1696254769317,-0.04736328,-0.9780884,0.17913818,-0.109375,-0.921875,0.046875,564
483,1696254769357,-0.05102539,-0.97906494,0.17303467,0.0625,-0.78125,0.234375,565
484,1696254769397,-0.055908203,-0.99102783,0.1774292,0.84375,-0.40625,0.046875,566
485,1696254769437,-0.048583984,-0.975647,0.17547607,-0.328125,-0.46875,-0.109375,567
486,1696254769477,-0.048828125,-0.9771118,0.17425537,-0.234375,-0.265625,-0.09375,568
487,1696254769517,-0.049804688,-0.9871216,0.17449951,-0.4375,-0.890625,0.34375,569
488,1696254769557,-0.05029297,-0.98101807,0.17254639,-0.53125,-0.234375,0.296875,570
489,1696254769597,-0.04321289,-0.97442627,0.16888428,-0.125,-0.640625,0.1875,571
490,1696254769637,-0.053466797,-0.97613525,0.18035889,-0.1875,-0.65625,0.5,572
491,1696254769677,-0.048828125,-0.9841919,0.18035889,-0.234375,-1.109375,0.234375,573
492,1696254769717,-0.049560547,-0.9805298,0.1762085,0.03125,-0.46875,0.125,574
493,1696254769757,-0.04638672,-0.9805298,0.17767334,-0.140625,-0.96875,0.25,575
494,1696254769797,-0.05078125,-0.9817505,0.17767334,-0.5,-0.546875,0.21875,576
495,1696254769837,-0.04736328,-0.9805298,0.17572021,0.0625,-0.421875,0.109375,577
496,1696254769877,-0.04638672,-0.97540283,0.17449951,-0.96875,-0.5,0.1875,578
497,1696254769917,-0.060058594,-0.97906494,0.18377686,-0.203125,-0.21875,0.53125,579
498,1696254769957,-0.05126953,-0.98223877,0.17767334,1.0,0.109375,0.078125,580
499,1696254769997,-0.045410156,-0.98028564,0.18231201,0.453125,0.078125,-0.03125,581
500,1696254770037,-0.044433594,-0.972229,0.17254639,0.171875,-0.5,0.1875,582
501,1696254770077,-0.055664062,-0.9788208,0.1774292,0.71875,-0.546875,0.0625,583
502,1696254770117,-0.05419922,-0.9824829,0.17889404,0.734375,-0.078125,-0.078125,584
503,1696254770157,-0.049560547,-0.9771118,0.1720581,-0.375,-0.1875,-0.0625,585
504,1696254770197,-0.045410156,-0.97491455,0.17132568,-0.265625,-0.171875,-0.046875,586
505,1696254770237,-0.052734375,-0.9829712,0.17059326,1.09375,-0.4375,-0.109375,587
506,1696254770277,-0.048828125,-0.9824829,0.17547607,0.46875,0.28125,-0.171875,588
507,1696254770317,-0.05053711,-0.9678345,0.1720581,0.171875,-0.859375,-0.203125,589
508,1696254770357,-0.05053711,-0.98443604,0.17327881,0.6875,-1.140625,0.328125,590
509,1696254770397,-0.042236328,-0.9846802,0.17376709,1.109375,-0.6875,0.046875,591
510,1696254770437,-0.044433594,-0.98321533,0.16986084,1.078125,-0.296875,0.109375,592
511,1696254770477,-0.056152344,-0.9837036,0.17401123,0.984375,-0.84375,0.203125,593
512,1696254770517,-0.049804688,-0.9817505,0.16668701,0.375,-0.578125,0.109375,594
513,1696254770557,-0.055664062,-0.9805298,0.16864014,0.640625,-0.03125,0.109375,595
514,1696254770597,-0.052490234,-0.9807739,0.16448975,0.671875,-0.484375,0.015625,596
515,1696254770637,-0.051757812,-0.98565674,0.1642456,0.203125,-0.375,-0.015625,597
516,1696254770677,-0.048339844,-0.97979736,0.16595459,-0.046875,-0.296875,0.09375,598
517,1696254770717,-0.05444336,-0.97784424,0.16375732,0.28125,-0.015625,0.234375,599
518,1696254770757,-0.049072266,-0.97857666,0.16571045,0.03125,-0.4375,0.21875,600
519,1696254770797,-0.05493164,-0.97857666,0.16571045,-0.203125,-0.3125,0.234375,601
520,1696254770837,-0.048095703,-0.97662354,0.16693115,-0.328125,-0.40625,0.203125,602
521,1696254770877,-0.05078125,-0.98443604,0.17156982,0.328125,-0.390625,0.296875,603
522,1696254770917,-0.049560547,-0.98809814,0.15863037,-1.140625,-0.546875,-0.21875,604
523,1696254770957,-0.055664062,-0.9771118,0.16033936,-0.09375,-0.078125,0.53125,605
524,1696254770997,-0.05078125,-0.9829712,0.168396,-0.390625,-0.359375,0.015625,606
525,1696254771037,-0.055664062,-0.9771118,0.16278076,-0.46875,-0.515625,0.015625,607
526,1696254771077,-0.05517578,-0.9890747,0.16326904,-0.921875,-0.421875,-0.015625,608
527,1696254771117,-0.05419922,-0.9812622,0.16888428,-0.375,-0.015625,-0.03125,609
528,1696254771157,-0.045654297,-0.9812622,0.1762085,-0.546875,-0.390625,0.015625,610
529,1696254771197,-0.047851562,-0.9817505,0.16668701,-0.734375,-0.3125,0.0,611
530,1696254771237,-0.056152344,-0.98321533,0.17059326,-0.234375,-0.578125,0.46875,612
531,1696254771277,-0.05029297,-0.97857666,0.17596436,-0.453125,-0.90625,0.140625,613
532,1696254771317,-0.0546875,-0.97979736,0.17059326,-0.75,-0.71875,0.40625,614
533,1696254771357,-0.0546875,-0.97857666,0.17913818,-0.78125,-1.234375,-0.046875,615
534,1696254771397,-0.06274414,-0.9783325,0.17303467,-0.84375,-1.65625,0.0625,616
535,1696254771437,-0.05810547,-0.975647,0.17376709,-0.09375,-0.75,-0.03125,617
536,1696254771477,-0.06274414,-0.9807739,0.17913818,0.703125,-0.140625,0.03125,618
537,1696254771517,-0.05883789,-0.9841919,0.17279053,0.125,-0.3125,0.3125,619
538,1696254771557,-0.053710938,-0.98687744,0.17230225,0.203125,-0.671875,0.0625,620
539,1696254771597,-0.055664062,-0.9829712,0.16986084,0.171875,-1.0,0.34375,621
540,1696254771637,-0.053466797,-0.98223877,0.1720581,-0.25,-1.109375,0.484375,622
541,1696254771677,-0.053955078,-0.9793091,0.16937256,0.375,-0.3125,0.109375,623
542,1696254771717,-0.055419922,-0.98101807,0.1696167,0.03125,-0.90625,0.59375,624
543,1696254771757,-0.059326172,-0.98028564,0.16473389,-0.328125,-0.5625,0.515625,625
544,1696254771797,-0.059570312,-0.98272705,0.16693115,-0.375,-0.453125,0.34375,626
545,1696254771837,-0.053710938,-0.9829712,0.17449951,-0.078125,-0.140625,0.640625,627
546,1696254771877,-0.04638672,-0.9729614,0.17108154,-0.296875,-0.765625,0.28125,628
547,1696254771917,-0.05517578,-0.9805298,0.16351318,-0.1875,-0.3125,0.46875,629
548,1696254771957,-0.052734375,-0.98223877,0.17449951,-0.234375,-0.171875,0.28125,630
549,1696254771997,-0.050048828,-0.9817505,0.1786499,-0.78125,-0.359375,0.359375,631
550,1696254772037,-0.052246094,-0.97076416,0.17279053,0.046875,-0.625,0.15625,632
551,1696254772077,-0.052001953,-0.9846802,0.1749878,0.609375,-0.125,0.390625,633
552,1696254772117,-0.052978516,-0.9854126,0.17425537,0.140625,-0.359375,0.59375,634
553,1696254772157,-0.050048828,-0.9771118,0.16912842,0.03125,-0.390625,0.390625,635
554,1696254772197,-0.052246094,-0.98150635,0.17230225,-0.015625,-0.546875,0.296875,636
555,1696254772237,-0.049804688,-0.9898071,0.17791748,-0.078125,-0.375,0.421875,637
556,1696254772277,-0.05493164,-0.97784424,0.17889404,-0.859375,-0.6875,0.109375,638
557,1696254772317,-0.047851562,-0.973938,0.17645264,-1.9375,-0.640625,0.0625,639
558,1696254772357,-0.052246094,-0.98516846,0.17816162,-3.25,-0.921875,0.59375,640
559,1696254772397,-0.047851562,-0.98321533,0.18182373,-2.609375,-0.1875,0.46875,641
560,1696254772437,-0.056152344,-0.9734497,0.17718506,-0.734375,-0.90625,-0.03125,642
561,1696254772477,-0.051757812,-0.9746704,0.18988037,-0.59375,-0.453125,-0.03125,643
562,1696254772517,-0.05102539,-0.9690552,0.19378662,-1.265625,-0.625,0.28125,644
563,1696254772557,-0.052001953,-0.97784424,0.18670654,-1.671875,-0.6875,0.1875,645
564,1696254772597,-0.05029297,-0.9793091,0.18914795,-0.40625,-0.109375,0.0625,646
565,1696254772637,-0.057128906,-0.9807739,0.19012451,0.109375,-0.671875,0.28125,647
566,1696254772677,-0.057128906,-0.9776001,0.18939209,-1.171875,-0.859375,-0.015625,648
567,1696254772717,-0.06323242,-0.9763794,0.19207764,-0.546875,-0.046875,0.28125,649
568,1696254772757,-0.048828125,-0.9793091,0.1930542,-0.671875,-0.0625,0.109375,650
569,1696254772797,-0.051757812,-0.97735596,0.1876831,-0.609375,-0.5,0.21875,651
570,1696254772837,-0.0546875,-0.9866333,0.19354248,-0.875,-0.703125,0.265625,652
571,1696254772877,-0.053222656,-0.9812622,0.19573975,0.015625,-0.390625,0.21875,653
572,1696254772917,-0.045410156,-0.9734497,0.19647217,-0.359375,-0.34375,0.390625,654
573,1696254772957,-0.055664062,-0.9685669,0.18988037,-0.53125,-0.5625,0.53125,655
574,1696254772997,-0.056396484,-0.9763794,0.1918335,0.046875,-1.015625,0.671875,656
575,1696254773037,-0.049804688,-0.9783325,0.18890381,0.015625,-0.28125,0.46875,657
576,1696254773077,-0.046142578,-0.96710205,0.1876831,-0.03125,0.265625,0.421875,658
577,1696254773117,-0.04321289,-0.9800415,0.19256592,1.390625,-0.1875,0.359375,659
578,1696254773157,-0.060058594,-0.9859009,0.1918335,0.46875,-0.046875,0.234375,660
579,1696254773197,-0.055908203,-0.96954346,0.19232178,0.0,-0.09375,0.0625,661
580,1696254773237,-0.049560547,-0.96759033,0.1906128,-0.171875,-0.46875,0.09375,662
581,1696254773277,-0.049804688,-0.9807739,0.1930542,-0.0625,-0.53125,0.421875,663
582,1696254773317,-0.057617188,-0.9776001,0.1918335,0.078125,-0.78125,-0.078125,664
583,1696254773357,-0.049804688,-0.97979736,0.18914795,-0.125,-0.28125,-0.078125,665
584,1696254773397,-0.044433594,-0.97540283,0.1876831,-0.28125,-0.375,0.03125,666
585,1696254773437,-0.05126953,-0.9776001,0.19329834,0.265625,-0.703125,0.109375,667
586,1696254773477,-0.044433594,-0.9783325,0.18670654,0.0625,-1.46875,0.078125,668
587,1696254773517,-0.05126953,-0.9734497,0.18499756,0.25,-0.203125,-0.015625,669
588,1696254773557,-0.05029297,-0.97662354,0.19696045,-0.09375,-0.8125,0.03125,670
589,1696254773597,-0.052490234,-0.973938,0.18475342,0.03125,-0.140625,-0.0625,671
590,1696254773637,-0.05102539,-0.97052,0.1864624,-0.0625,-0.8125,-0.09375,672
591,1696254773677,-0.060791016,-0.9783325,0.18817139,0.46875,-0.4375,-0.4375,673
592,1696254773717,-0.064697266,-0.9849243,0.19012451,-0.34375,-0.078125,-0.375,674
593,1696254773757,-0.056396484,-0.9812622,0.18475342,-0.0625,-0.203125,-0.328125,675
594,1696254773797,-0.052001953,-0.9746704,0.18914795,0.578125,-0.703125,-0.4375,676
595,1696254773837,-0.06323242,-0.9780884,0.18817139,0.15625,-0.953125,-0.453125,677
596,1696254773877,-0.056152344,-0.9824829,0.18450928,0.5625,-0.6875,-0.0625,678
597,1696254773917,-0.05908203,-0.9771118,0.18597412,0.5,-0.640625,-0.015625,679
598,1696254773957,-0.057861328,-0.97003174,0.18475342,1.640625,-0.640625,-0.078125,680
599,1696254773997,-0.0637207,-0.9788208,0.19110107,0.6875,-0.90625,0.28125,681
600,1696254774037,-0.06567383,-0.9805298,0.18865967,0.421875,-0.640625,-0.15625,682
601,1696254774077,-0.060058594,-0.98565674,0.17694092,0.34375,-0.3125,-0.203125,683
602,1696254774117,-0.05859375,-0.97320557,0.18963623,-0.421875,-0.46875,-0.09375,684
603,1696254774157,-0.055908203,-0.9734497,0.184021,-0.171875,-0.5625,-0.03125,685
604,1696254774197,-0.05444336,-0.98638916,0.18450928,-0.328125,-0.703125,-0.109375,686
605,1696254774237,-0.056152344,-0.9763794,0.18109131,-0.21875,-0.328125,-0.25,687
606,1696254774277,-0.059570312,-0.9805298,0.18719482,0.1875,-0.21875,0.03125,688
607,1696254774317,-0.05810547,-0.9768677,0.18548584,-0.15625,-1.171875,0.265625,689
608,1696254774357,-0.07006836,-0.98150635,0.18572998,-0.1875,-0.671875,0.203125,690
609,1696254774397,-0.064208984,-0.975647,0.1774292,-1.328125,-0.34375,-0.34375,691
610,1696254774437,-0.053466797,-0.975647,0.18450928,-0.375,0.46875,-0.296875,692
611,1696254774477,-0.061767578,-0.9771118,0.18621826,-0.03125,-0.984375,0.203125,693
612,1696254774517,-0.07104492,-0.9800415,0.1828003,-0.296875,-0.34375,0.21875,694
613,1696254774557,-0.06665039,-0.97540283,0.18450928,-0.46875,-0.03125,-0.09375,695
614,1696254774597,-0.057128906,-0.9758911,0.18695068,0.28125,-0.5,0.203125,696
615,1696254774637,-0.052734375,-0.9793091,0.1906128,-0.546875,-0.875,0.15625,697
616,1696254774677,-0.0637207,-0.9768677,0.18475342,-0.296875,-0.671875,-0.015625,698
617,1696254774717,-0.060546875,-0.9817505,0.19598389,0.03125,-0.5625,0.15625,699
618,1696254774757,-0.063964844,-0.9776001,0.18621826,0.21875,-0.25,-0.234375,700
619,1696254774797,-0.06738281,-0.9768677,0.18743896,-0.40625,-0.171875,-0.078125,701
620,1696254774837,-0.061523438,-0.9776001,0.18841553,-0.421875,-0.515625,0.109375,702
621,1696254774877,-0.06201172,-0.9758911,0.18963623,-0.171875,-0.53125,0.3125,703
622,1696254774917,-0.068603516,-0.9763794,0.18841553,-0.3125,-0.484375,0.1875,704
623,1696254774957,-0.06518555,-0.9793091,0.18475342,-0.078125,-0.6875,0.25,705
624,1696254774997,-0.068847656,-0.9800415,0.18792725,0.0625,-0.453125,0.46875,706
625,1696254775037,-0.061035156,-0.973938,0.18695068,-0.34375,-0.546875,0.265625,707
626,1696254775077,-0.06542969,-0.98809814,0.1906128,-0.640625,-0.65625,0.34375,708
627,1696254775117,-0.0637207,-0.9824829,0.19671631,-0.046875,0.015625,0.078125,709
628,1696254775157,-0.06542969,-0.97857666,0.1864624,0.546875,-0.703125,0.234375,710
629,1696254775197,-0.0715332,-0.9746704,0.18914795,0.390625,-0.296875,0.34375,711
630,1696254775237,-0.05908203,-0.9780884,0.18206787,-0.046875,-0.53125,-0.0625,712
631,1696254775277,-0.06201172,-0.97979736,0.18865967,0.625,0.09375,0.65625,713
632,1696254775317,-0.060302734,-0.9771118,0.184021,0.546875,-0.515625,0.265625,714
633,1696254775357,-0.06542969,-0.9800415,0.18206787,0.328125,0.09375,0.328125,715
634,1696254775397,-0.05810547,-0.98223877,0.18670654,0.453125,0.140625,0.09375,716
635,1696254775437,-0.064208984,-0.97540283,0.1906128,0.65625,-0.59375,0.375,717
636,1696254775477,-0.061767578,-0.9776001,0.18182373,-0.078125,-0.375,-0.03125,718
637,1696254775517,-0.059326172,-0.9812622,0.18939209,0.140625,-0.25,0.265625,719
638,1696254775557,-0.061035156,-0.9746704,0.18353271,0.375,-0.765625,0.15625,720
639,1696254775597,-0.05883789,-0.9751587,0.18353271,-0.125,-0.46875,0.375,721
640,1696254775637,-0.06298828,-0.96710205,0.18597412,-0.171875,-0.453125,0.125,722
641,1696254775677,-0.064453125,-0.9817505,0.18719482,0.015625,-0.46875,0.328125,723
642,1696254775717,-0.06616211,-0.9807739,0.18817139,-0.09375,-0.28125,0.421875,724
643,1696254775757,-0.06274414,-0.97442627,0.18499756,0.078125,-0.046875,0.328125,725
644,1696254775797,-0.059570312,-0.9783325,0.18182373,-0.03125,-0.25,0.390625,726
645,1696254775837,-0.060791016,-0.9834595,0.18450928,-0.21875,-0.828125,0.359375,727
646,1696254775877,-0.06542969,-0.98321533,0.18206787,-0.25,-0.8125,0.1875,728
647,1696254775917,-0.060058594,-0.9746704,0.1906128,0.234375,0.03125,0.03125,729
648,1696254775957,-0.06518555,-0.9812622,0.18963623,0.0625,-0.375,0.390625,730
649,1696254775997,-0.05908203,-0.97857666,0.18157959,-0.515625,-0.40625,0.078125,731
650,1696254776037,-0.061035156,-0.9800415,0.18255615,-1.6875,-0.890625,0.109375,732
651,1696254776077,-0.0637207,-0.9780884,0.19451904,-1.5,0.1875,0.578125,733
652,1696254776117,-0.057373047,-0.9783325,0.19622803,-1.953125,-0.78125,0.3125,734
653,1696254776157,-0.060546875,-0.9859009,0.19403076,-2.328125,-1.0,0.390625,735
654,1696254776197,-0.05859375,-0.9763794,0.19085693,-2.296875,-0.359375,0.328125,736
655,1696254776237,-0.05126953,-0.9717407,0.19525146,-2.4375,-1.328125,0.890625,737
656,1696254776277,-0.061279297,-0.9678345,0.19329834,-0.4375,-0.6875,0.34375,738
657,1696254776317,-0.06689453,-0.9927368,0.19134521,0.40625,-0.40625,0.296875,739
658,1696254776357,-0.064697266,-0.97247314,0.20672607,-0.328125,-0.46875,0.8125,740
659,1696254776397,-0.057128906,-0.975647,0.20379639,-0.328125,-0.203125,0.609375,741
660,1696254776437,-0.052978516,-0.96954346,0.20037842,-1.0625,-0.625,0.53125,742
661,1696254776477,-0.061279297,-0.9834595,0.20550537,-1.71875,-0.828125,0.65625,743
662,1696254776517,-0.05883789,-0.98321533,0.20941162,-1.671875,-1.25,0.1875,744
663,1696254776557,-0.059570312,-0.96832275,0.20477295,-1.171875,-0.390625,0.015625,745
664,1696254776597,-0.056640625,-0.9727173,0.20062256,0.828125,0.515625,0.078125,746
665,1696254776637,-0.05102539,-0.9780884,0.20794678,0.984375,-0.828125,0.171875,747
666,1696254776677,-0.059570312,-0.9729614,0.21185303,-0.15625,-1.46875,0.453125,748
667,1696254776717,-0.061767578,-0.97198486,0.2086792,0.734375,-0.390625,0.28125,749
668,1696254776757,-0.0625,-0.98101807,0.20428467,0.234375,-0.75,0.328125,750
669,1696254776797,-0.05517578,-0.9771118,0.20257568,-0.53125,-0.53125,0.609375,751
670,1696254776837,-0.06982422,-0.97491455,0.199646,-0.75,-1.1875,0.171875,752
671,1696254776877,-0.060791016,-0.97320557,0.20843506,0.28125,-0.21875,0.359375,753
672,1696254776917,-0.052734375,-0.9734497,0.20770264,0.171875,-0.15625,0.15625,754
673,1696254776957,-0.06274414,-0.97320557,0.2008667,-0.421875,-0.453125,0.15625,755
674,1696254776997,-0.05908203,-0.96539307,0.2074585,0.578125,-0.59375,0.28125,756
675,1696254777037,-0.056396484,-0.97906494,0.20794678,0.046875,-1.0625,0.375,757
676,1696254777077,-0.05883789,-0.9763794,0.2033081,-0.390625,-0.5,0.171875,758
677,1696254777117,-0.0546875,-0.9819946,0.2074585,-0.390625,-0.515625,0.40625,759
678,1696254777157,-0.061767578,-0.9758911,0.20794678,-0.609375,-0.515625,0.125,760
679,1696254777197,-0.05834961,-0.9729614,0.20819092,-0.09375,-0.25,0.125,761
680,1696254777237,-0.05859375,-0.97369385,0.2033081,-0.671875,-0.609375,0.109375,762
681,1696254777277,-0.05908203,-0.97052,0.2062378,-0.40625,-0.296875,0.109375,763
682,1696254777317,-0.064941406,-0.97784424,0.20892334,-0.25,-0.34375,0.296875,764
683,1696254777357,-0.056152344,-0.9746704,0.20501709,-0.421875,-0.71875,0.25,765
684,1696254777397,-0.060302734,-0.97320557,0.2111206,-0.03125,-0.765625,0.046875,766
685,1696254777437,-0.06640625,-0.9768677,0.1930542,0.53125,-0.84375,-0.015625,767
686,1696254777477,-0.053222656,-0.97369385,0.20965576,0.515625,-0.375,-0.109375,768
687,1696254777517,-0.06591797,-0.9714966,0.21209717,-0.484375,-1.109375,-0.21875,769
688,1696254777557,-0.06274414,-0.97784424,0.20257568,-0.4375,0.234375,-0.203125,770
689,1696254777597,-0.05859375,-0.9763794,0.21087646,-0.734375,-0.484375,-0.09375,771
690,1696254777637,-0.057128906,-0.97076416,0.21160889,-0.453125,-0.40625,-0.015625,772
691,1696254777677,-0.060791016,-0.9692993,0.20501709,-0.0625,-0.359375,-0.125,773
692,1696254777717,-0.057861328,-0.9734497,0.20843506,-0.09375,-0.453125,-0.15625,774
693,1696254777757,-0.053955078,-0.9812622,0.2111206,0.4375,-0.109375,0.046875,775
694,1696254777797,-0.0637207,-0.975647,0.21087646,0.234375,-0.90625,0.203125,776
695,1696254777837,-0.05908203,-0.97076416,0.20672607,-0.015625,-0.28125,-0.15625,777
696,1696254777877,-0.05859375,-0.9702759,0.20281982,0.453125,-0.203125,-0.0625,778
697,1696254777917,-0.064453125,-0.9800415,0.20672607,0.125,-0.984375,0.140625,779
698,1696254777957,-0.06225586,-0.975647,0.20355225,-0.921875,-0.5625,-0.03125,780
699,1696254777997,-0.068847656,-0.9673462,0.20477295,-1.84375,-0.265625,0.03125,781
700,1696254778037,-0.0625,-0.975647,0.20501709,0.296875,-0.09375,0.15625,782
701,1696254778077,-0.056152344,-0.9793091,0.22137451,2.234375,1.3125,0.5,783
702,1696254778117,-0.06518555,-0.97613525,0.20379639,0.796875,-0.09375,0.359375,784
703,1696254778157,-0.06738281,-0.9663696,0.20574951,0.421875,0.046875,0.3125,785
704,1696254778197,-0.060791016,-0.97784424,0.20159912,1.046875,-0.703125,0.546875,786
705,1696254778237,-0.056640625,-0.98565674,0.20404053,1.125,0.453125,0.203125,787
706,1696254778277,-0.05883789,-0.9746704,0.2033081,1.078125,-0.34375,0.109375,788
707,1696254778317,-0.059570312,-0.97613525,0.19647217,0.546875,-0.53125,0.140625,789
708,1696254778357,-0.06347656,-0.9763794,0.19354248,0.125,-1.0,0.1875,790
709,1696254778397,-0.060302734,-0.9780884,0.20477295,0.671875,-0.078125,0.34375,791
710,1696254778437,-0.057373047,-0.97540283,0.20135498,0.625,-0.6875,0.171875,792
711,1696254778477,-0.057128906,-0.9763794,0.19793701,0.5,-0.734375,0.21875,793
712,1696254778517,-0.060058594,-0.9729614,0.19671631,1.203125,-0.28125,0.125,794
713,1696254778557,-0.057861328,-0.98150635,0.19281006,1.203125,-0.21875,0.03125,795
714,1696254778597,-0.05834961,-0.97003174,0.19085693,0.125,-0.40625,-0.140625,796
715,1696254778637,-0.0625,-0.97979736,0.18621826,1.125,-0.5,0.1875,797
716,1696254778677,-0.06274414,-0.97979736,0.19354248,0.4375,-1.125,0.28125,798
717,1696254778717,-0.064697266,-0.98150635,0.1876831,0.578125,-0.453125,0.078125,799
718,1696254778757,-0.060546875,-0.9680786,0.18548584,0.265625,-0.4375,0.03125,800
719,1696254778797,-0.06323242,-0.9746704,0.18792725,0.5,-0.546875,0.140625,801
720,1696254778837,-0.061767578,-0.972229,0.18743896,0.421875,-0.5,0.40625,802
721,1696254778877,-0.064453125,-0.986145,0.18841553,-0.1875,-0.375,0.078125,803
722,1696254778917,-0.064208984,-0.97125244,0.18597412,0.234375,-0.078125,0.078125,804
723,1696254778957,-0.06591797,-0.98394775,0.1918335,0.15625,-0.21875,0.390625,805
724,1696254778997,-0.06298828,-0.97247314,0.19110107,0.125,-0.3125,0.125,806
725,1696254779037,-0.061767578,-0.97857666,0.18109131,0.40625,-0.328125,0.25,807
726,1696254779077,-0.05493164,-0.97784424,0.1852417,-0.640625,-0.703125,0.125,808
727,1696254779117,-0.063964844,-0.9837036,0.19085693,-0.1875,-0.4375,0.265625,809
728,1696254779157,-0.068847656,-0.9793091,0.1906128,0.09375,-0.296875,0.078125,810
729,1696254779197,-0.060058594,-0.9741821,0.19232178,-0.328125,-0.09375,0.078125,811
730,1696254779237,-0.060791016,-0.98272705,0.19232178,-0.890625,-0.390625,0.125,812
731,1696254779277,-0.059570312,-0.9849243,0.19085693,0.703125,-0.609375,0.1875,813
732,1696254779317,-0.052490234,-0.9656372,0.18011475,-0.71875,-0.84375,0.140625,814
733,1696254779357,-0.06762695,-0.97735596,0.18621826,0.03125,-0.1875,0.46875,815
734,1696254779397,-0.057373047,-0.98101807,0.1918335,0.015625,-1.03125,0.703125,816
735,1696254779437,-0.06298828,-0.9807739,0.18817139,0.015625,-0.640625,0.265625,817
736,1696254779477,-0.057861328,-0.9768677,0.1864624,-0.09375,-0.3125,0.203125,818
737,1696254779517,-0.06762695,-0.97369385,0.18988037,-0.125,-0.375,0.1875,819
738,1696254779557,-0.068603516,-0.987854,0.1906128,0.0,-0.25,0.234375,820
739,1696254779597,-0.06542969,-0.97662354,0.1828003,-0.203125,0.015625,0.09375,821
740,1696254779637,-0.061279297,-0.97320557,0.18841553,-0.046875,-0.359375,0.375,822
741,1696254779677,-0.056152344,-0.9710083,0.18988037,-0.390625,-0.515625,0.359375,823
742,1696254779717,-0.060791016,-0.991272,0.19207764,-0.375,-0.5,0.421875,824
743,1696254779757,-0.049560547,-0.9763794,0.19281006,0.484375,-0.234375,0.046875,825
744,1696254779797,-0.061767578,-0.9795532,0.19012451,0.359375,-0.6875,0.5625,826
745,1696254779837,-0.05859375,-0.9854126,0.1864624,-0.34375,-0.09375,0.109375,827
746,1696254779877,-0.068603516,-0.97320557,0.19525146,-0.140625,-0.234375,0.15625,828
747,1696254779917,-0.061035156,-0.9685669,0.19158936,0.296875,-0.125,0.203125,829
748,1696254779957,-0.053955078,-0.9729614,0.18621826,-0.359375,-0.5625,0.390625,830
749,1696254779997,-0.059570312,-0.98443604,0.18206787,-0.375,-0.3125,0.109375,831
750,1696254780037,-0.053955078,-0.9817505,0.19158936,0.40625,-0.390625,0.1875,832
751,1696254780077,-0.056640625,-0.97198486,0.19110107,-0.109375,-0.890625,0.328125,833
752,1696254780117,-0.06274414,-0.975647,0.19110107,-0.0625,-0.21875,0.171875,834
753,1696254780157,-0.0637207,-0.9800415,0.1876831,-0.03125,-0.765625,0.296875,835
754,1696254780197,-0.059326172,-0.9800415,0.19232178,0.3125,-0.4375,0.46875,836
755,1696254780237,-0.052490234,-0.97003174,0.1864624,0.515625,-0.46875,0.484375,837
756,1696254780277,-0.056640625,-0.9729614,0.1906128,0.3125,-0.25,0.328125,838
757,1696254780317,-0.061035156,-0.9783325,0.18963623,-0.03125,-0.5,0.375,839
758,1696254780357,-0.06201172,-0.97857666,0.18792725,-0.234375,-0.46875,-0.03125,840
759,1696254780397,-0.055664062,-0.9710083,0.18719482,-0.59375,-0.25,0.109375,841
