,timestamp,accel_x,accel_y,accel_z,gyro_x,gyro_y,gyro_z,ind
0,1696258405290,-0.08984375,-0.95440674,0.24407959,-3.09375,8.015625,-0.9375,0
1,1696258405330,-0.080566406,-0.9483032,0.28729248,-3.09375,7.875,2.546875,1
2,1696258405370,-0.096191406,-1.0037231,0.26971436,-8.21875,0.984375,4.25,2
3,1696258405410,-0.095458984,-0.95513916,0.27703857,-7.953125,2.3125,3.8125,3
4,1696258405450,0.0146484375,-0.93463135,0.33416748,2.390625,1.140625,1.25,4
5,1696258405490,0.021484375,-0.9751587,0.3143921,3.21875,0.921875,0.9375,5
6,1696258405530,-0.041503906,-0.96295166,0.3012085,-0.59375,0.625,-0.046875,6
7,1696258405570,-0.095214844,-0.92388916,0.29119873,0.125,1.65625,0.125,7
8,1696258405610,-0.0769043,-0.95977783,0.2597046,2.78125,0.96875,2.03125,8
9,1696258405650,-0.025390625,-0.9006958,0.22698975,7.9375,2.875,1.296875,9
10,1696258405690,-0.072021484,-0.84332275,0.22039795,10.25,7.203125,0.890625,10
11,1696258405730,-0.14916992,-0.9031372,0.21917725,4.78125,9.125,5.6875,11
12,1696258405770,-0.1694336,-1.1404419,0.20037842,7.0,8.828125,9.609375,12
13,1696258405810,-0.06982422,-1.2007446,0.27850342,6.5,5.515625,4.875,13
14,1696258405850,0.043701172,-1.0383911,0.36761475,3.453125,-5.390625,-2.1875,14
15,1696258405890,0.00390625,-0.9089966,0.29388428,6.203125,-15.78125,-1.453125,15
16,1696258405930,-0.09008789,-0.7996216,0.20135498,1.046875,-16.125,2.375,16
17,1696258405970,-0.16381836,-0.8291626,0.105651855,-0.203125,-14.765625,6.296875,17
18,1696258406010,-0.10668945,-0.93463135,0.058044434,8.40625,-11.078125,8.140625,18
19,1696258406050,0.012939453,-0.88409424,0.199646,5.78125,-2.796875,5.484375,19
20,1696258406090,0.0053710938,-0.86676025,0.2682495,10.65625,-8.1875,5.15625,20
21,1696258406130,-0.057373047,-0.78863525,0.13763428,2.515625,-25.484375,6.390625,21
22,1696258406170,-0.088134766,-0.69537354,0.1671753,3.734375,-17.328125,8.71875,22
23,1696258406210,-0.17285156,-0.815979,0.0927124,3.8125,-11.53125,8.90625,23
24,1696258406250,-0.07910156,-0.9404907,0.1749878,2.125,0.78125,10.921875,24
25,1696258406290,-0.17016602,-0.9158325,0.1852417,-2.90625,-4.234375,10.59375,25
26,1696258406330,-0.21801758,-1.0137329,0.047790527,0.28125,2.875,-2.78125,26
27,1696258406370,0.008056641,-0.6921997,0.09442139,-1.203125,3.328125,-4.53125,27
28,1696258406410,0.23364258,-0.6921997,0.00579834,9.578125,-5.625,6.203125,28
29,1696258406450,0.35009766,-1.1587524,0.33441162,7.234375,6.984375,11.984375,29
30,1696258406490,0.26049805,-2.0,0.2723999,-24.6875,-16.28125,24.015625,30
31,1696258406530,0.15673828,-1.486145,0.5673218,-15.46875,-4.640625,-32.25,31
32,1696258406570,0.0769043,-1.1377563,0.13250732,-5.265625,-34.546875,-19.5,32
33,1696258406610,0.08496094,-0.85235596,0.1786499,1.65625,4.1875,-5.984375,33
34,1696258406650,-0.0053710938,-0.70513916,0.27313232,11.625,-1.109375,8.921875,34
35,1696258406690,-0.044921875,-0.7954712,0.26678467,-2.84375,2.28125,7.703125,35
36,1696258406730,-0.049804688,-0.8765259,0.1515503,-1.0625,11.703125,-6.71875,36
37,1696258406770,0.015136719,-0.78692627,0.20819092,6.125,12.765625,-14.5,37
38,1696258406810,0.029052734,-0.694397,0.27288818,2.96875,4.265625,-10.484375,38
39,1696258406850,0.030029297,-0.69659424,0.2592163,0.015625,3.828125,-3.59375,39
40,1696258406890,-0.056884766,-0.7998657,0.2296753,-3.265625,4.984375,0.0625,40
41,1696258406930,0.016845703,-0.7842407,0.355896,0.15625,7.515625,-4.796875,41
42,1696258406970,0.03491211,-0.7424927,0.2062378,0.03125,-8.46875,-0.21875,42
43,1696258407010,0.0009765625,-0.6795044,0.10809326,16.21875,3.0625,0.703125,43
44,1696258407050,0.12939453,-0.59991455,0.008483887,10.375,17.40625,6.53125,44
45,1696258407090,0.24951172,-0.99713135,0.34979248,-4.21875,-5.65625,9.921875,45
46,1696258407130,0.25732422,-2.0,-0.1375122,-7.15625,-26.828125,28.90625,46
47,1696258407170,-0.5344238,-1.8684692,-0.19000244,-33.0,38.34375,-10.359375,47
48,1696258407210,-0.04248047,-1.2820435,0.6803589,-4.265625,-12.796875,-2.25,48
49,1696258407250,-0.21704102,-1.1172485,0.4533081,20.046875,8.34375,-19.328125,49
50,1696258407290,-0.2824707,-1.0161743,-0.004699707,3.078125,32.34375,-3.703125,50
51,1696258407330,0.032470703,-0.81988525,-0.09112549,-12.203125,5.0625,-0.625,51
52,1696258407370,0.28027344,-0.7119751,0.02923584,11.046875,0.375,4.09375,52
53,1696258407410,0.08300781,-0.80474854,0.20428467,11.0,-10.59375,5.484375,53
54,1696258407450,-0.09399414,-0.9492798,0.20599365,10.796875,-10.140625,-1.375,54
55,1696258407490,-0.17675781,-0.9800415,0.05218506,-8.734375,-9.328125,-1.71875,55
56,1696258407530,-0.07324219,-0.6397095,0.09881592,-13.484375,-11.625,5.0,56
57,1696258407570,-0.16870117,-0.6621704,0.14544678,4.015625,6.4375,9.0,57
58,1696258407610,-0.05078125,-0.75128174,0.18255615,-5.484375,-0.765625,9.59375,58
59,1696258407650,0.072509766,-0.77716064,0.19891357,3.3125,-15.6875,2.359375,59
60,1696258407690,-0.0703125,-0.74786377,0.14984131,4.578125,-19.8125,-2.578125,60
61,1696258407730,-0.2548828,-0.6602173,0.09320068,-2.96875,-6.78125,0.0,61
62,1696258407770,-0.016845703,-0.53326416,-0.029846191,14.921875,-16.28125,1.828125,62
63,1696258407810,0.36743164,-1.0117798,-0.058898926,2.578125,-2.515625,16.171875,63
64,1696258407850,0.8527832,-2.0,0.21844482,3.28125,-3.484375,42.171875,64
65,1696258407890,0.20605469,-1.8157349,0.74334717,-4.65625,6.890625,-30.953125,65
66,1696258407930,-0.16381836,-1.2085571,-0.059387207,-2.828125,-38.625,-31.359375,66
67,1696258407970,-0.32495117,-0.97076416,0.059509277,-2.6875,1.640625,-14.875,67
68,1696258408010,-0.12060547,-0.8735962,0.40374756,14.96875,23.046875,6.390625,68
69,1696258408050,0.15332031,-0.78790283,0.34246826,-17.015625,3.5,21.484375,69
70,1696258408090,0.29663086,-1.0440063,0.2819214,-18.28125,-17.15625,-8.515625,70
71,1696258408130,0.076171875,-0.8225708,0.17108154,8.1875,13.265625,-22.171875,71
72,1696258408170,-0.088134766,-0.42877197,0.23162842,7.4375,0.59375,-22.265625,72
73,1696258408210,-0.17944336,-0.17681885,0.20281982,0.453125,2.34375,-14.53125,73
74,1696258408250,0.00390625,-0.3706665,0.12664795,-5.0,16.09375,-2.09375,74
75,1696258408290,0.015136719,-0.62506104,0.11151123,-4.828125,12.453125,10.46875,75
76,1696258408330,-0.011962891,-1.2559204,-0.050109863,0.484375,-1.328125,21.8125,76
77,1696258408370,0.3881836,-1.6773071,0.009216309,8.375,5.953125,9.0625,77
78,1696258408410,-0.2607422,-2.0,-0.1338501,-1.734375,-8.34375,27.625,78
79,1696258408450,-0.4416504,-1.75177,0.4677124,9.875,29.03125,-16.109375,79
80,1696258408490,0.14453125,-1.0357056,0.55340576,3.390625,30.546875,-13.265625,80
81,1696258408530,-0.16259766,-0.8699341,-0.077941895,-5.921875,-15.765625,-3.140625,81
82,1696258408570,-0.04272461,-1.0110474,0.0026245117,-8.328125,-0.09375,22.78125,82
83,1696258408610,-0.022216797,-0.8110962,0.15887451,-12.140625,-7.421875,6.390625,83
84,1696258408650,0.07324219,-0.69488525,0.14593506,9.59375,-8.046875,-9.609375,84
85,1696258408690,-0.006591797,-0.51763916,0.09222412,-5.71875,-3.96875,-5.984375,85
86,1696258408730,-0.07299805,-0.41778564,0.09661865,-20.078125,-13.453125,0.34375,86
87,1696258408770,-0.11816406,-0.4265747,0.04559326,-14.78125,-9.125,1.390625,87
88,1696258408810,-0.2097168,-0.49273682,0.0211792,7.703125,-10.15625,6.15625,88
89,1696258408850,-0.11645508,-0.58380127,0.029724121,3.265625,10.859375,8.359375,89
90,1696258408890,0.28076172,-1.2078247,0.12884521,12.953125,22.796875,19.671875,90
91,1696258408930,0.75146484,-2.0,0.5807495,-2.1875,3.4375,24.59375,91
92,1696258408970,0.21606445,-1.7783813,0.8173218,-12.078125,-14.3125,-18.671875,92
93,1696258409010,0.041503906,-1.28302,0.22015381,-12.28125,-34.40625,-22.921875,93
94,1696258409050,-0.2199707,-1.2158813,0.1329956,-0.640625,-3.9375,-11.578125,94
95,1696258409090,-0.0690918,-0.9102173,0.3866577,18.859375,10.15625,-0.25,95
96,1696258409130,0.11303711,-0.74786377,0.28240967,5.15625,9.3125,-4.984375,96
97,1696258409170,0.053710938,-0.7554321,0.13568115,0.109375,7.78125,-12.671875,97
98,1696258409210,-0.021240234,-0.58258057,0.1852417,16.78125,13.953125,-13.9375,98
99,1696258409250,-0.033935547,-0.45025635,0.21331787,2.8125,-0.046875,-9.078125,99
100,1696258409290,0.049560547,-0.46368408,0.2243042,-0.171875,10.265625,-5.140625,100
101,1696258409330,0.010498047,-0.6865845,0.2140503,-4.609375,2.734375,-1.296875,101
102,1696258409370,-0.052246094,-0.8587036,0.13812256,1.0625,0.46875,-3.265625,102
103,1696258409410,0.0126953125,-0.69610596,0.22161865,5.734375,9.359375,-6.90625,103
104,1696258409450,0.051513672,-0.7073364,0.03265381,-2.75,4.65625,1.828125,104
105,1696258409490,0.05493164,-1.1709595,0.07318115,10.4375,11.578125,17.09375,105
106,1696258409530,0.20654297,-2.0,0.055358887,-8.109375,-12.046875,47.375,106
107,1696258409570,-0.47094727,-2.0,0.5211792,-21.125,0.859375,-26.890625,107
108,1696258409610,-0.17919922,-1.2869263,0.4401245,-25.921875,19.28125,-11.6875,108
109,1696258409650,-0.050048828,-0.6223755,-0.004211426,18.796875,-13.96875,-25.40625,109
110,1696258409690,0.07421875,-0.91778564,0.014831543,18.75,9.171875,8.140625,110
111,1696258409730,0.12646484,-0.7798462,0.12860107,-5.609375,-9.921875,18.3125,111
112,1696258409770,0.110839844,-0.65167236,0.05657959,22.15625,-22.546875,-1.859375,112
113,1696258409810,-0.17236328,-0.6265259,0.046813965,9.375,-20.765625,-1.296875,113
114,1696258409850,-0.2849121,-0.7359009,0.1149292,-8.328125,-10.53125,11.65625,114
115,1696258409890,-0.20898438,-0.89019775,0.04925537,-7.984375,-2.109375,8.546875,115
116,1696258409930,-0.13989258,-0.8411255,0.07977295,3.609375,-14.09375,5.078125,116
117,1696258409970,-0.02319336,-0.41705322,0.23065186,-6.328125,0.453125,1.171875,117
118,1696258410010,-0.22021484,-0.35430908,0.16546631,-1.40625,-5.5625,-10.640625,118
119,1696258410050,-0.21777344,-0.65045166,0.029968262,0.5625,-5.03125,-0.015625,119
120,1696258410090,0.087402344,-1.0090942,-0.04058838,4.59375,-0.65625,31.421875,120
121,1696258410130,0.8508301,-2.0,0.39007568,-8.890625,2.46875,20.53125,121
122,1696258410170,0.2241211,-1.9299927,0.6449585,32.34375,-13.3125,-6.671875,122
123,1696258410210,0.17211914,-1.3826294,0.09173584,-18.5,-27.34375,-6.796875,123
124,1696258410250,0.009521484,-1.1653442,0.046813965,5.78125,-23.171875,-10.28125,124
125,1696258410290,0.06347656,-0.7908325,0.38934326,28.28125,-6.609375,6.53125,125
126,1696258410330,0.091552734,-0.9512329,0.2543335,-4.0625,-18.125,7.765625,126
127,1696258410370,0.038330078,-0.91485596,0.19793701,-12.125,-18.84375,-14.46875,127
128,1696258410410,-0.123046875,-0.6345825,0.08514404,2.984375,-6.9375,-22.34375,128
129,1696258410450,-0.08984375,-0.40631104,0.18060303,-4.21875,2.5,-13.65625,129
130,1696258410490,0.059814453,-0.3291626,0.19744873,5.28125,1.671875,-7.234375,130
131,1696258410530,0.18066406,-0.47125244,0.22772217,1.890625,-14.625,-2.4375,131
132,1696258410570,0.033447266,-0.7835083,0.006286621,6.734375,-35.453125,-1.25,132
133,1696258410610,0.03881836,-1.1826782,0.054382324,-15.03125,-18.375,15.625,133
134,1696258410650,0.047851562,-1.3591919,0.05291748,3.515625,-8.953125,5.03125,134
135,1696258410690,-0.010009766,-0.82769775,-0.093322754,15.171875,-14.703125,8.84375,166
136,1696258410730,0.055419922,-0.9990845,0.06903076,27.25,-2.921875,14.828125,167
137,1696258410770,0.14672852,-1.0430298,0.18206787,0.4375,-16.203125,6.546875,168
138,1696258410810,0.09423828,-0.8413696,0.0524292,8.671875,-31.515625,-6.03125,169
139,1696258410850,-0.0012207031,-0.5935669,-0.02520752,4.84375,-26.65625,0.65625,170
140,1696258410890,-0.072265625,-0.5527954,0.07757568,-3.515625,-18.625,9.796875,171
141,1696258410930,-0.060058594,-0.8130493,0.09661865,1.3125,-8.921875,12.953125,172
142,1696258410970,0.11010742,-0.92755127,0.18841553,-3.46875,-7.609375,7.0625,173
143,1696258411010,0.09765625,-0.8491821,0.137146,-0.34375,-30.53125,-7.15625,174
144,1696258411050,-0.072021484,-0.5886841,0.0524292,-3.828125,-34.21875,-12.1875,175
145,1696258411090,-0.25756836,-0.67803955,0.13641357,-20.546875,-4.21875,-5.21875,176
146,1696258411130,-0.32104492,-1.0300903,-0.09942627,1.28125,-3.546875,-5.3125,177
147,1696258411170,0.009521484,-0.87994385,-0.01373291,5.78125,5.859375,-9.421875,178
148,1696258411210,0.37670898,-0.7695923,0.4003296,-4.8125,18.5,-10.671875,179
149,1696258411250,0.65234375,-2.0,-0.25054932,-10.65625,-9.859375,59.203125,180
150,1696258411290,0.13305664,-1.4214478,0.47210693,1.984375,-13.671875,-20.171875,181
151,1696258411330,0.040039062,-1.0066528,-0.24346924,0.71875,-14.96875,-18.828125,182
152,1696258411370,-0.24414062,-0.83917236,0.1906128,16.84375,7.171875,-6.90625,183
153,1696258411410,-0.30859375,-0.7185669,0.35906982,6.125,19.984375,15.140625,184
154,1696258411450,0.1459961,-1.0003052,0.038757324,-17.34375,6.03125,6.09375,185
155,1696258411490,0.33544922,-1.097229,0.20501709,-20.359375,25.796875,-13.015625,186
156,1696258411530,0.07543945,-0.49273682,0.45233154,0.953125,-2.296875,-21.96875,187
157,1696258411570,-0.0056152344,-0.34820557,0.09051514,-3.28125,-28.5,-13.234375,188
158,1696258411610,-0.071777344,-0.4055786,-0.035705566,-5.6875,-11.96875,-0.046875,189
159,1696258411650,-0.011474609,-0.7202759,0.0138549805,-19.5,16.0625,20.09375,190
160,1696258411690,-0.06591797,-1.5979614,0.034362793,-10.09375,31.5625,28.0,191
161,1696258411730,0.15234375,-1.4949341,0.1251831,4.015625,30.359375,-3.421875,192
162,1696258411770,0.30908203,-1.336731,0.4100952,-22.546875,-19.453125,11.234375,193
163,1696258411810,-0.06567383,-2.0,0.2662964,2.5,-18.234375,10.390625,194
164,1696258411850,-0.23046875,-1.4734497,0.28289795,-1.21875,-3.28125,-14.8125,195
165,1696258411890,0.018310547,-0.7920532,0.19134521,-7.890625,-8.921875,-21.203125,196
166,1696258411930,0.03466797,-0.40777588,0.10443115,12.296875,-16.625,-5.484375,197
167,1696258411970,-0.022705078,-0.46710205,0.10345459,-0.140625,-14.546875,5.921875,198
168,1696258412010,-0.03540039,-0.72247314,0.06854248,2.015625,-4.1875,11.546875,199
169,1696258412050,0.0126953125,-0.80303955,0.10028076,4.765625,-10.765625,3.421875,200
170,1696258412090,0.004638672,-0.6038208,0.25408936,14.421875,-20.25,-5.890625,201
171,1696258412130,-0.19238281,-0.7324829,0.090026855,-2.90625,-21.640625,3.265625,202
172,1696258412170,-0.13061523,-0.7966919,0.059020996,-4.3125,-11.546875,3.03125,203
173,1696258412210,-0.10864258,-0.61383057,0.1593628,7.78125,-0.796875,-1.859375,204
174,1696258412250,0.00024414062,-0.44659424,0.0053100586,22.125,-11.640625,-5.25,205
175,1696258412290,0.06298828,-0.69854736,0.09173584,14.34375,8.34375,8.484375,206
176,1696258412330,0.23120117,-2.0,0.17034912,-19.765625,-11.5,53.53125,207
177,1696258412370,0.39331055,-1.7537231,0.8161011,-6.5,-42.46875,-33.359375,208
178,1696258412410,-0.20166016,-1.4295044,0.13641357,-26.59375,-53.78125,-12.09375,209
179,1696258412450,-0.36767578,-0.8369751,0.26556396,1.9375,-17.984375,1.09375,241
180,1696258412490,-0.4272461,-0.66412354,0.00018310547,5.265625,-15.640625,3.5,242
181,1696258412530,-0.13183594,-0.9968872,-0.6235962,19.375,9.0625,25.28125,243
182,1696258412570,1.1081543,-1.5449829,1.9472046,-32.1875,65.6875,30.21875,244
183,1696258412610,0.7937012,-1.3882446,0.2345581,0.265625,-50.765625,-14.21875,245
184,1696258412650,-0.50268555,-1.8401489,-0.16949463,-20.65625,-4.078125,-14.28125,246
185,1696258412690,-0.27319336,-0.85894775,0.4767456,22.078125,24.109375,-15.703125,247
186,1696258412730,0.8093262,-0.74005127,0.11126709,14.921875,-8.515625,11.28125,248
187,1696258412770,0.6191406,-0.7737427,0.14471436,-7.671875,-9.8125,12.796875,249
188,1696258412810,-0.040039062,-0.772522,0.08026123,-21.390625,-38.03125,19.6875,250
189,1696258412850,-0.31176758,-0.80426025,0.13885498,7.28125,-42.921875,1.921875,251
190,1696258412890,-0.1328125,-0.6709595,0.1798706,11.765625,5.453125,-6.484375,252
191,1696258412930,-0.020996094,-0.6404419,0.22772217,13.4375,14.296875,5.8125,253
192,1696258412970,0.079833984,-1.0244751,0.27215576,1.4375,1.875,6.328125,254
193,1696258413010,0.06689453,-1.1238403,0.2501831,-11.90625,-3.015625,-4.5,255
194,1696258413050,-0.018798828,-0.81744385,0.3192749,-3.1875,4.984375,-9.5625,256
195,1696258413090,0.013427734,-0.6338501,0.44989014,-11.40625,1.421875,-9.390625,257
196,1696258413130,-0.021484375,-0.80963135,0.050720215,1.4375,-17.796875,-2.234375,258
197,1696258413170,0.024902344,-0.85040283,0.09320068,0.46875,4.9375,-10.59375,259
198,1696258413210,0.05517578,-0.66778564,0.31170654,-0.1875,28.046875,-8.4375,260
199,1696258413250,0.032958984,-0.7661743,0.15350342,-21.234375,9.734375,-6.859375,261
200,1696258413290,0.28710938,-1.5447388,-0.008117676,8.296875,-5.34375,15.15625,262
201,1696258413330,0.17749023,-1.409729,0.19207764,-19.71875,14.546875,7.546875,263
202,1696258413370,0.08666992,-1.6577759,0.10028076,-37.96875,-34.328125,14.234375,264
203,1696258413410,-0.32006836,-1.4976196,0.447937,9.484375,-17.421875,-21.0625,265
204,1696258413450,-0.15966797,-1.2627563,0.36151123,-10.640625,4.375,-7.09375,266
205,1696258413490,0.021728516,-0.79522705,0.24456787,7.453125,6.90625,-8.40625,267
206,1696258413530,-0.13012695,-0.58380127,0.16815186,-0.34375,-4.171875,1.828125,268
207,1696258413570,-0.15527344,-0.52960205,0.0053100586,5.96875,-22.421875,3.53125,269
208,1696258413610,-0.09863281,-0.7234497,0.081970215,5.65625,-0.8125,-0.265625,270
209,1696258413650,-0.109375,-0.8711548,0.168396,0.359375,-6.890625,4.03125,271
210,1696258413690,-0.06347656,-0.9248657,0.22210693,3.5625,-5.046875,7.5,272
211,1696258413730,-0.083984375,-0.7866821,0.2789917,-4.109375,-17.46875,2.046875,273
212,1696258413770,-0.21264648,-0.6914673,0.2296753,-6.125,-18.15625,1.15625,274
213,1696258413810,-0.24267578,-0.6782837,0.1149292,-4.34375,-6.71875,-2.21875,275
214,1696258413850,-0.05517578,-0.5244751,0.21258545,-0.875,-3.5,2.71875,276
215,1696258413890,0.068847656,-0.536438,0.08050537,14.609375,1.28125,5.296875,277
216,1696258413930,0.12060547,-1.0166626,-0.16705322,14.75,-10.703125,14.578125,278
217,1696258413970,0.33496094,-1.7410278,0.55267334,1.71875,38.359375,20.703125,279
218,1696258414010,0.07763672,-2.0,0.84173584,23.515625,-20.9375,-6.5625,280
219,1696258414050,0.015380859,-1.3450317,0.27947998,2.453125,1.046875,-33.75,281
220,1696258414090,-0.03149414,-0.97003174,0.09637451,5.1875,-5.671875,-12.65625,282
221,1696258414130,0.056640625,-0.6814575,0.27435303,15.109375,-7.296875,2.65625,283
222,1696258414170,-0.063964844,-0.64923096,0.23773193,7.265625,-9.296875,8.53125,284
223,1696258414210,-0.23144531,-0.82818604,0.13250732,-7.578125,2.515625,-2.828125,285
224,1696258414250,-0.28930664,-0.7022095,0.070007324,13.625,21.796875,-23.609375,286
225,1696258414290,-0.11669922,-0.44537354,0.19866943,5.703125,37.625,-22.125,287
226,1696258414330,0.12963867,-0.4439087,0.16497803,-21.296875,17.265625,-3.15625,288
227,1696258414370,0.22998047,-0.6392212,0.1539917,-7.015625,3.375,8.8125,289
228,1696258414410,0.041259766,-1.4158325,-0.02911377,-4.796875,24.328125,25.453125,290
229,1696258414450,0.15332031,-1.5029907,-0.06768799,6.203125,2.203125,8.46875,291
230,1696258414490,0.022216797,-1.6651001,0.19622803,-10.171875,-14.59375,17.46875,292
231,1696258414530,-0.55200195,-2.0,0.46453857,-1.03125,4.03125,-6.984375,293
232,1696258414570,0.010498047,-1.30719,0.39007568,-16.671875,15.640625,-11.1875,294
233,1696258414610,0.016845703,-0.7522583,0.1593628,14.515625,-8.84375,-21.5,295
234,1696258414650,0.013671875,-0.4915161,0.043151855,15.546875,2.15625,-5.5,296
235,1696258414690,-0.118896484,-0.30255127,0.11199951,-15.21875,-9.953125,12.15625,297
236,1696258414730,-0.14501953,-0.49005127,0.061706543,-5.59375,-13.984375,16.578125,298
237,1696258414770,-0.11010742,-0.8257446,0.08319092,-10.203125,-4.046875,11.875,299
238,1696258414810,0.0949707,-0.98223877,0.05731201,9.71875,-9.96875,16.03125,300
239,1696258414850,0.122802734,-0.67852783,0.1852417,-8.46875,-8.65625,8.328125,301
240,1696258414890,-0.32080078,-0.4492798,0.23577881,-0.359375,-23.234375,-17.140625,302
241,1696258414930,-0.36572266,-0.5745239,0.10345459,2.453125,6.484375,-2.546875,303
242,1696258414970,-0.15625,-0.72540283,-0.10748291,-2.84375,-7.25,25.453125,304
243,1696258415010,0.6057129,-1.5266724,0.28729248,13.96875,33.515625,38.28125,305
244,1696258415050,0.75561523,-2.0,0.75994873,-5.15625,-7.40625,15.375,306
245,1696258415090,0.26293945,-1.5305786,0.901062,-9.046875,-5.78125,-32.921875,307
246,1696258415130,-0.14770508,-1.1397095,0.12860107,-8.921875,-29.765625,-31.203125,308
247,1696258415170,-0.40429688,-0.7715454,0.058288574,11.453125,-8.78125,-19.15625,309
248,1696258415210,-0.27075195,-0.39190674,0.082458496,38.34375,16.765625,-0.0625,310
249,1696258415250,0.057861328,-0.40142822,0.15911865,18.90625,27.34375,11.75,311
250,1696258415290,0.36767578,-0.6350708,0.31829834,-11.328125,31.515625,5.9375,312
251,1696258415330,0.31933594,-0.7012329,0.17816162,-10.15625,0.125,-15.453125,313
252,1696258415370,0.123291016,-0.45977783,0.12225342,-2.53125,-21.015625,-11.65625,314
253,1696258415410,-0.19165039,-0.37750244,0.047058105,10.078125,-21.390625,-1.140625,315
254,1696258415450,-0.17211914,-0.83477783,-0.14630127,-17.140625,3.671875,11.390625,316
255,1696258415490,0.3671875,-1.5205688,-0.0037231445,18.859375,28.5,25.25,317
256,1696258415530,-0.0009765625,-1.9453735,0.08685303,-22.546875,-20.625,23.0,318
257,1696258415570,-0.2705078,-2.0,0.12908936,-18.984375,0.21875,-15.03125,319
258,1696258415610,0.103271484,-1.4172974,0.45892334,8.265625,5.53125,-11.265625,320
259,1696258415650,-0.110839844,-0.8665161,0.31170654,-1.21875,-20.234375,-21.109375,321
260,1696258415690,-0.12939453,-0.81695557,0.023376465,13.8125,-3.203125,1.03125,322
261,1696258415730,-0.15454102,-0.6001587,0.044128418,-12.28125,-7.328125,8.734375,323
262,1696258415770,-0.039794922,-0.55255127,-0.097229004,11.015625,-9.421875,-4.765625,324
263,1696258415810,0.024169922,-0.58477783,0.09515381,0.578125,-0.96875,-12.78125,325
264,1696258415850,-0.051513672,-0.6265259,0.14691162,8.328125,-4.3125,3.75,326
265,1696258415890,-0.20141602,-0.78912354,0.105651855,-6.25,-1.90625,8.390625,327
266,1696258415930,-0.35107422,-0.7210083,0.07098389,-10.5625,-15.140625,-3.046875,328
267,1696258415970,-0.15234375,-0.45562744,0.10784912,9.46875,1.484375,-8.1875,329
268,1696258416010,0.18945312,-0.9475708,0.20159912,2.09375,-9.078125,4.765625,366
269,1696258416050,0.05053711,-0.8284302,0.21624756,-2.90625,-19.9375,-1.296875,367
270,1696258416090,-0.095947266,-0.47174072,0.18011475,4.34375,-26.3125,-13.265625,368
271,1696258416130,-0.103515625,-0.37530518,0.10662842,3.78125,-19.171875,-4.28125,369
272,1696258416170,-0.045166016,-0.34503174,0.2008667,9.203125,-10.78125,13.796875,370
273,1696258416210,-0.045654297,-0.7937622,0.18890381,-1.359375,-16.0,13.609375,371
274,1696258416250,-0.10839844,-1.2556763,0.3414917,-14.71875,0.296875,-4.203125,372
275,1696258416290,-0.21362305,-1.0054321,0.40179443,-0.671875,-0.375,-19.453125,373
276,1696258416330,-0.3857422,-0.68463135,0.18206787,-11.28125,28.734375,-20.96875,374
277,1696258416370,-0.14331055,-0.66534424,0.3131714,-23.78125,37.015625,-14.453125,375
278,1696258416410,0.072509766,-0.52789307,0.093688965,11.09375,21.3125,-16.859375,376
279,1696258416450,0.18920898,-1.1008911,-0.46954346,-35.015625,15.984375,16.984375,377
280,1696258416490,1.050293,-2.0,-0.45465088,-6.546875,6.78125,58.4375,378
281,1696258416530,0.11816406,-1.5706177,0.27947998,-12.5,-52.125,-9.328125,379
282,1696258416570,-0.2890625,-1.8499146,0.32806396,20.71875,7.625,-27.75,380
283,1696258416610,-0.1171875,-1.0842896,0.19500732,-2.703125,12.15625,-17.0,381
284,1696258416650,0.16870117,-0.8543091,-0.023742676,-5.109375,-11.25,3.8125,382
285,1696258416690,0.26220703,-0.6734009,0.19012451,7.046875,-18.984375,-4.015625,383
286,1696258416730,-0.13867188,-0.647522,0.07342529,-5.640625,-26.875,-5.296875,384
287,1696258416770,-0.27905273,-0.6724243,0.24432373,2.765625,-20.15625,-4.953125,385
288,1696258416810,-0.34350586,-0.56695557,-0.13604736,-9.421875,-14.96875,10.671875,386
289,1696258416850,0.3779297,-0.96343994,-0.13165283,12.25,3.90625,27.703125,387
290,1696258416890,0.055908203,-1.0547485,0.3834839,14.140625,1.125,19.765625,388
291,1696258416930,-0.26831055,-1.149231,0.27679443,0.515625,-20.390625,7.015625,389
292,1696258416970,-0.21923828,-0.9011841,0.01751709,0.75,-13.9375,-1.9375,390
293,1696258417010,0.10961914,-0.57110596,0.09075928,3.90625,-27.265625,1.578125,391
294,1696258417050,0.32299805,-0.44293213,0.2098999,3.34375,-29.078125,10.921875,392
295,1696258417090,-0.18676758,-0.7752075,0.024353027,1.515625,-47.328125,1.5,393
296,1696258417130,-0.5505371,-0.98101807,0.0211792,-2.234375,-30.859375,-0.625,394
297,1696258417170,-0.061279297,-0.20806885,0.0026245117,17.453125,-8.28125,-5.875,395
298,1696258417210,0.32006836,-0.22491455,-0.11627197,6.171875,-20.484375,6.0625,396
299,1696258417250,0.21459961,-2.0,0.26776123,31.96875,19.0,60.453125,397
300,1696258417290,0.62353516,-2.0,0.67181396,-4.5,-43.484375,-42.359375,398
301,1696258417330,0.017089844,-1.3682251,-0.37677002,23.109375,-26.5,-38.546875,399
302,1696258417370,-0.092041016,-0.9763794,-0.06939697,0.265625,6.40625,-5.359375,400
303,1696258417410,-0.0146484375,-0.7307739,0.59002686,12.078125,-0.984375,18.75,401
304,1696258417450,0.24047852,-0.9558716,0.17645264,0.140625,-26.0,8.46875,402
305,1696258417490,0.2734375,-1.0818481,0.14959717,-10.125,-10.109375,-5.140625,403
306,1696258417530,-0.014892578,-0.7505493,0.15496826,7.390625,-14.4375,-22.65625,404
307,1696258417570,-0.07348633,-0.34649658,0.16912842,0.6875,-20.453125,-23.0,405
308,1696258417610,-0.119384766,-0.17755127,0.17767334,4.046875,-13.59375,-10.671875,406
309,1696258417650,0.059814453,-0.2805786,0.11810303,3.90625,-11.234375,5.796875,407
310,1696258417690,0.032958984,-0.4998169,0.12200928,-7.796875,-5.296875,11.828125,408
311,1696258417730,-0.064453125,-0.7805786,0.08929443,-0.171875,-24.15625,5.1875,409
312,1696258417770,-0.2524414,-1.8601685,-0.045959473,2.546875,-15.859375,-2.625,410
313,1696258417810,0.27246094,-1.5806274,0.14837646,-4.578125,15.125,10.828125,411
314,1696258417850,0.43041992,-2.0,0.31219482,-47.6875,-23.4375,17.53125,412
315,1696258417890,-0.27490234,-1.6712036,0.3991089,-11.734375,-25.921875,-20.1875,413
316,1696258417930,-0.10595703,-1.1265259,0.28753662,-29.328125,-16.921875,-13.65625,414
317,1696258417970,-0.20629883,-1.0134888,0.12542725,-4.140625,-3.359375,-14.484375,415
318,1696258418010,0.08081055,-0.82598877,0.21624756,-6.5625,4.546875,0.609375,416
319,1696258418050,0.29248047,-0.7263794,0.14544678,-4.703125,-21.015625,7.453125,417
320,1696258418090,-0.017822266,-0.6199341,0.24725342,4.953125,-47.171875,-0.828125,418
321,1696258418130,-0.3359375,-0.56695557,0.027526855,-0.828125,-49.34375,4.484375,419
322,1696258418170,-0.25756836,-0.51568604,0.09661865,-5.71875,-30.828125,4.609375,420
323,1696258418210,-0.17333984,-0.45367432,0.32904053,3.09375,-24.578125,-0.78125,421
324,1696258418250,-0.16967773,-0.65753174,0.24993896,-8.578125,-30.4375,4.828125,422
325,1696258418290,-0.23168945,-0.7571411,0.36273193,-6.703125,-20.453125,-2.59375,423
326,1696258418330,-0.22680664,-0.6765747,0.17034912,-6.0625,-27.25,-8.609375,424
327,1696258418370,-0.0007324219,-0.80474854,0.078308105,19.21875,-38.265625,2.59375,425
328,1696258418410,0.9440918,-2.0,0.4442749,18.203125,-43.921875,46.40625,426
329,1696258418450,0.49926758,-1.6838989,0.77093506,-14.671875,-51.203125,5.5625,427
330,1696258418490,-0.18066406,-1.6660767,0.04876709,10.9375,-49.390625,7.859375,428
331,1696258418530,-0.46044922,-1.248352,0.109558105,-2.28125,-31.640625,-4.09375,429
332,1696258418570,-0.26000977,-0.9260864,0.43621826,25.84375,-1.0625,13.25,430
333,1696258418610,-0.026855469,-0.58673096,0.29779053,24.09375,2.0,4.640625,431
334,1696258418650,0.118652344,-0.46417236,0.051940918,8.984375,-16.796875,0.5625,432
335,1696258418690,0.041992188,-0.5454712,0.07318115,5.4375,-20.015625,12.8125,433
336,1696258418730,-0.025146484,-0.6963501,0.152771,8.5625,-12.5625,16.5625,434
337,1696258418770,-0.06713867,-1.0630493,0.2501831,2.953125,-17.921875,16.25,435
338,1696258418810,0.063964844,-1.0527954,0.32440186,4.53125,-19.875,5.609375,436
339,1696258418850,-0.029541016,-1.0317993,0.32196045,-1.03125,-22.78125,-6.515625,437
340,1696258418890,-0.2211914,-1.9544067,-0.030090332,-2.453125,-26.09375,18.546875,438
341,1696258418930,0.28125,-1.5159302,0.23699951,2.8125,9.015625,-2.96875,439
342,1696258418970,0.016113281,-0.9793091,0.12908936,-17.1875,6.15625,-21.90625,440
343,1696258419010,-0.010986328,-0.59698486,-0.1638794,-2.28125,-19.90625,-16.34375,441
344,1696258419050,0.030029297,-0.5354614,-0.18414307,1.546875,-6.578125,1.875,442
345,1696258419090,0.14770508,-1.0899048,-0.039123535,20.984375,0.5,29.75,443
346,1696258419130,0.22827148,-1.4500122,0.23724365,-13.1875,-15.390625,21.1875,444
347,1696258419170,-0.05834961,-1.0657349,0.10443115,-24.53125,-33.359375,-18.640625,445
348,1696258419210,-0.12939453,-0.68829346,-0.028137207,-19.65625,-18.359375,-5.015625,446
349,1696258419250,-0.064697266,-0.5388794,0.08270264,-9.8125,-18.1875,7.75,447
350,1696258419290,0.110839844,-0.5942993,0.16766357,0.40625,-31.859375,10.859375,448
351,1696258419330,0.12939453,-0.6445923,0.15081787,-0.359375,-32.328125,8.875,449
352,1696258419370,-0.079833984,-0.6213989,0.05340576,-9.109375,-27.125,5.46875,450
353,1696258419410,-0.23803711,-0.6057739,0.10272217,-12.9375,-35.625,1.359375,451
354,1696258419450,-0.30371094,-0.98272705,0.13079834,-13.625,-2.1875,-0.078125,452
355,1696258419490,-0.1328125,-1.0181274,-0.02545166,-7.046875,13.03125,-2.484375,453
356,1696258419530,0.0073242188,-0.47052002,0.059265137,-0.328125,-22.5,-3.578125,454
357,1696258419570,0.49780273,-0.64190674,0.2140503,37.984375,-17.828125,6.40625,455
358,1696258419610,0.5197754,-2.0,0.7182007,-3.203125,1.078125,67.75,456
359,1696258419650,-0.03881836,-1.7940063,0.7741089,9.21875,-8.96875,-15.171875,457
360,1696258419690,0.06982422,-1.2459106,-0.019592285,-10.921875,4.359375,-17.59375,458
361,1696258419730,0.2607422,-0.88897705,0.1876831,19.515625,-4.0625,-3.875,459
362,1696258419770,0.064453125,-0.7595825,0.33685303,25.359375,4.125,6.234375,460
363,1696258419810,0.12573242,-1.0386353,0.17108154,-8.375,-2.703125,9.53125,461
364,1696258419850,0.08105469,-0.95440674,0.08148193,-2.796875,4.484375,-2.421875,462
365,1696258419890,-0.055664062,-0.581604,0.13470459,11.0625,8.890625,-12.703125,463
366,1696258419930,-0.045410156,-0.30108643,0.12786865,-4.15625,16.015625,-12.953125,464
367,1696258419970,-0.0021972656,-0.23199463,0.1630249,2.1875,10.984375,-14.0625,465
368,1696258420010,-0.020751953,-0.43780518,0.0067749023,7.484375,8.515625,-8.28125,466
369,1696258420050,0.026855469,-0.7415161,0.08905029,0.6875,15.84375,13.15625,467
370,1696258420090,0.20239258,-1.0615845,0.090026855,-2.390625,20.625,25.046875,468
371,1696258420130,0.5307617,-1.7007446,-0.093322754,6.953125,-3.6875,18.203125,469
372,1696258420170,0.45263672,-2.0,0.016052246,-10.09375,5.875,11.234375,470
373,1696258420210,-0.16699219,-1.9580688,0.101989746,-3.265625,-7.5,-16.609375,471
374,1696258420250,-0.12988281,-1.4341431,0.32611084,-8.53125,8.34375,-7.40625,472
375,1696258420290,0.009277344,-0.958313,0.18914795,-2.890625,-8.765625,-18.109375,473
376,1696258420330,0.072021484,-0.68585205,-0.109680176,23.09375,0.90625,-7.140625,474
377,1696258420370,0.018310547,-0.50201416,0.016052246,-8.625,1.171875,1.0,475
378,1696258420410,0.09326172,-0.56988525,0.046325684,-4.859375,-8.09375,0.9375,476
379,1696258420450,-0.016845703,-0.8128052,0.1359253,-3.484375,-1.078125,2.65625,477
380,1696258420490,-0.16625977,-1.0466919,0.10394287,-13.125,-14.828125,0.59375,478
381,1696258420530,-0.09814453,-0.9585571,0.043395996,-13.1875,-7.546875,-0.640625,479
382,1696258420570,0.06738281,-0.6135864,0.06390381,-10.46875,-10.21875,2.71875,480
383,1696258420610,0.028564453,-0.3267212,0.37542725,-17.734375,-18.78125,8.359375,481
384,1696258420650,-0.6604004,-0.83795166,0.14349365,-31.59375,-0.09375,7.328125,482
385,1696258420690,-0.2734375,-1.142395,0.19207764,-3.5,31.5625,-1.5,483
386,1696258420730,0.22705078,-0.46148682,0.30413818,1.15625,-11.34375,0.15625,484
387,1696258420770,0.6113281,-0.63604736,-0.08843994,27.75,-13.328125,-7.296875,485
388,1696258420810,0.5830078,-1.7612915,0.3710327,26.09375,19.34375,31.703125,486
389,1696258420850,0.0014648438,-2.0,0.82611084,-5.15625,-13.515625,8.421875,487
390,1696258420890,-0.00024414062,-1.3884888,0.2694702,-7.546875,-18.28125,-45.53125,488
391,1696258420930,0.0793457,-1.0574341,0.04486084,-19.328125,7.546875,-14.671875,489
392,1696258420970,0.1772461,-0.6292114,0.45843506,13.1875,6.6875,-2.859375,490
393,1696258421010,0.118896484,-0.63775635,0.27996826,9.421875,-28.265625,2.609375,491
394,1696258421050,-0.103271484,-0.7312622,0.23162842,-8.828125,-3.0625,0.40625,492
395,1696258421090,-0.29370117,-0.6201782,0.054138184,-5.75,12.296875,-14.890625,493
396,1696258421130,-0.092041016,-0.44293213,0.17840576,2.03125,21.375,-24.96875,494
397,1696258421170,0.08203125,-0.3723755,0.1329956,7.421875,22.34375,-10.71875,495
398,1696258421210,0.12158203,-0.5420532,0.016052246,9.65625,7.484375,7.734375,496
399,1696258421250,0.1586914,-0.5696411,0.007019043,-0.875,5.84375,-0.078125,497
400,1696258421290,0.26049805,-1.0877075,0.15667725,13.53125,-18.03125,9.8125,498
401,1696258421330,0.17602539,-2.0,-0.10601807,6.734375,-6.234375,14.515625,499
402,1696258421370,-0.40698242,-2.0,0.30926514,-25.125,-11.875,8.421875,500
403,1696258421410,-0.4440918,-1.6792603,0.6017456,6.703125,-0.265625,-12.578125,501
404,1696258421450,-0.16503906,-1.010315,0.2189331,-13.90625,-2.9375,-19.609375,502
405,1696258421490,0.08544922,-0.8323364,0.051208496,33.5,0.3125,-1.015625,503
406,1696258421530,0.265625,-0.6773071,0.10321045,0.375,3.609375,12.921875,504
407,1696258421570,0.059326172,-0.569397,0.032165527,6.359375,-24.65625,9.0,505
408,1696258421610,-0.1977539,-0.5869751,0.105163574,3.296875,-23.46875,1.671875,506
409,1696258421650,-0.35888672,-0.72076416,-0.02520752,5.6875,-3.09375,1.90625,507
410,1696258421690,-0.17871094,-0.85479736,-0.032287598,-6.125,13.625,9.1875,508
411,1696258421730,0.045410156,-0.68414307,0.17816162,-6.140625,-2.6875,6.109375,509
412,1696258421770,-0.05053711,-0.6460571,0.21453857,-11.515625,-10.78125,1.484375,510
413,1696258421810,-0.35961914,-0.9614868,0.07977295,-12.8125,3.5625,-4.890625,511
414,1696258421850,-0.03100586,-0.8093872,0.14959717,-13.765625,-0.328125,-0.46875,512
415,1696258421890,0.15234375,-0.5835571,0.07171631,1.21875,-19.265625,-5.171875,513
416,1696258421930,0.1027832,-1.1860962,-0.012756348,22.34375,14.71875,8.640625,514
417,1696258421970,0.057617188,-2.0,0.3998413,0.75,19.0625,26.0,515
418,1696258422010,0.21972656,-2.0,0.38690186,-3.421875,-8.28125,-26.859375,516
419,1696258422050,0.1508789,-1.2971802,0.19354248,-3.5,-3.546875,-28.28125,517
420,1696258422090,-0.171875,-0.9963989,0.2296753,-4.015625,-2.578125,-3.40625,518
421,1696258422130,-0.13012695,-0.802063,0.26483154,8.96875,-12.828125,-1.015625,519
422,1696258422170,-0.057128906,-0.7398071,0.10784912,-0.890625,14.09375,3.796875,520
423,1696258422210,-0.008300781,-0.7390747,0.15252686,-1.671875,15.609375,-2.359375,521
424,1696258422250,-0.08300781,-0.60772705,0.18548584,8.171875,18.609375,-10.21875,522
425,1696258422290,-0.100097656,-0.49761963,0.22332764,10.21875,17.6875,-9.578125,523
426,1696258422330,-0.123291016,-0.5874634,0.14959717,9.96875,1.640625,1.078125,524
427,1696258422370,0.020507812,-0.52130127,-0.05303955,10.21875,20.078125,8.046875,525
428,1696258422410,0.31201172,-0.7463989,0.1864624,-0.265625,15.09375,14.28125,526
429,1696258422450,0.17749023,-0.81451416,0.33343506,6.03125,-10.84375,3.921875,527
430,1696258422490,-0.083984375,-1.2556763,-0.2078247,7.78125,-13.546875,3.828125,528
431,1696258422530,-0.15527344,-1.3091431,-0.054992676,-6.828125,16.515625,3.84375,529
432,1696258422570,0.2734375,-2.0,-0.26568604,-15.6875,-5.46875,24.296875,530
433,1696258422610,-0.103027344,-1.3782349,0.5543823,13.234375,1.546875,-15.375,531
434,1696258422650,-0.022949219,-1.1575317,0.37445068,-13.578125,-9.71875,-20.46875,532
435,1696258422690,-0.07763672,-0.89019775,0.097351074,4.09375,4.765625,-11.78125,533
436,1696258422730,-0.00390625,-0.647522,0.11077881,-36.546875,-14.484375,8.90625,534
437,1696258422770,0.06298828,-0.50372314,-0.019592285,-9.75,-44.84375,12.71875,535
438,1696258422810,0.057861328,-0.46905518,-0.0032348633,12.796875,-18.3125,4.4375,536
439,1696258422850,-0.111328125,-0.44561768,0.09954834,7.5,-16.703125,1.890625,537
440,1696258422890,-0.2199707,-0.69073486,0.023620605,-0.1875,-6.09375,-2.21875,538
441,1696258422930,-0.122802734,-0.5598755,0.019958496,19.890625,-14.640625,-5.09375,539
442,1696258422970,-0.1928711,-0.3032837,0.070007324,36.25,-24.234375,5.703125,540
443,1696258423010,0.071777344,-0.36260986,-0.003479004,4.484375,-24.09375,22.515625,541
444,1696258423050,0.51123047,-2.0,0.2843628,37.875,45.4375,75.65625,542
445,1696258423090,0.6135254,-2.0,0.7892456,-31.90625,-22.71875,-38.953125,543
446,1696258423130,0.19824219,-1.4934692,-0.046936035,3.625,-36.40625,-37.109375,544
447,1696258423170,-0.32641602,-1.1970825,0.13690186,18.9375,-2.484375,-19.90625,545
448,1696258423210,-0.31640625,-0.7703247,0.3078003,4.515625,-19.6875,-2.109375,546
449,1696258423250,-0.1262207,-0.48980713,0.13787842,-6.625,-3.21875,-1.3125,547
450,1696258423290,0.053222656,-0.5510864,0.010681152,7.890625,23.953125,-5.296875,548
451,1696258423330,-0.03881836,-0.39605713,0.06439209,6.421875,16.890625,-10.734375,549
452,1696258423370,0.020507812,-0.21588135,0.14300537,-2.359375,7.40625,-5.078125,550
453,1696258423410,0.041992188,-0.36798096,0.051940918,10.96875,0.84375,-1.0,551
454,1696258423450,0.0859375,-0.61016846,0.047058105,4.453125,-1.8125,7.765625,552
455,1696258423490,0.103759766,-0.9338989,0.13323975,-5.546875,3.46875,18.4375,553
456,1696258423530,-0.072265625,-1.4697876,-0.14996338,-4.453125,-24.3125,23.4375,554
457,1696258423570,0.6118164,-2.0,-0.39385986,-2.0,-39.8125,44.375,555
458,1696258423610,-0.3984375,-1.722229,0.34661865,-19.328125,-20.546875,-22.46875,556
459,1696258423650,-0.0847168,-1.2610474,0.46722412,-21.65625,-3.796875,-10.65625,557
460,1696258423690,-0.11791992,-0.81085205,0.05633545,-2.78125,-33.546875,-27.84375,558
461,1696258423730,-0.115478516,-0.9795532,-0.07086182,-6.890625,-2.90625,8.703125,559
462,1696258423770,0.22607422,-0.70147705,0.032409668,-6.953125,-33.1875,23.1875,560
463,1696258423810,0.2915039,-0.67266846,0.24383545,7.640625,-40.640625,6.90625,561
464,1696258423850,-0.24316406,-0.75006104,0.2098999,-8.078125,-53.125,-4.609375,562
465,1696258423890,-0.6125488,-0.6506958,0.11517334,-16.890625,-40.25,-2.1875,563
466,1696258423930,-0.36914062,-0.5215454,0.07293701,-9.390625,-18.375,-5.828125,564
467,1696258423970,-0.005859375,-0.54229736,0.16888428,-1.796875,-1.765625,3.5625,565
468,1696258424010,-0.05883789,-0.7119751,0.23968506,-1.953125,-11.484375,6.1875,566
469,1696258424050,-0.25634766,-0.6577759,0.18548584,-14.875,-24.765625,-6.40625,567
470,1696258424090,-0.09423828,-1.5264282,0.074645996,-14.125,-36.1875,15.609375,568
471,1696258424130,1.1374512,-2.0,0.5778198,-26.703125,-39.84375,27.640625,569
472,1696258424170,0.7487793,-1.5042114,0.7328491,-30.765625,-44.234375,4.109375,570
473,1696258424210,-0.4423828,-1.833313,0.24041748,-2.078125,-53.9375,7.921875,571
474,1696258424250,-0.46850586,-1.1694946,0.08319092,8.59375,-28.90625,-14.390625,572
475,1696258424290,0.016113281,-0.5796509,0.29193115,34.421875,10.046875,4.84375,573
476,1696258424330,0.10620117,-0.4229126,0.26068115,35.53125,10.84375,3.515625,574
477,1696258424370,0.056884766,-0.5286255,0.10345459,18.78125,-7.625,4.0625,575
478,1696258424410,0.04248047,-0.5852661,0.12298584,7.140625,-19.75,6.546875,576
479,1696258424450,0.0690918,-0.68292236,0.22503662,-5.6875,-29.046875,4.796875,577
480,1696258424490,0.15771484,-0.892395,0.34979248,-0.46875,-42.125,5.984375,578
481,1696258424530,-0.1015625,-1.2432251,0.2518921,9.015625,-27.5625,6.375,579
482,1696258424570,-0.2800293,-1.1914673,0.27459717,-0.546875,-18.5,-12.828125,580
483,1696258424610,-0.21289062,-1.2283325,0.23406982,-4.21875,-11.71875,-10.765625,581
484,1696258424650,0.32666016,-1.5213013,0.19134521,-6.953125,-9.359375,7.015625,582
485,1696258424690,0.46948242,-1.2627563,0.14178467,8.90625,-10.109375,-14.375,583
486,1696258424730,0.059570312,-0.7324829,-0.1921997,-4.390625,-31.875,-9.34375,584
487,1696258424770,-0.1184082,-0.7185669,-0.21539307,-5.5,-38.171875,14.234375,585
488,1696258424810,-0.029541016,-1.0579224,-0.010070801,26.109375,-27.109375,24.5625,586
489,1696258424850,0.053955078,-1.2620239,0.11907959,16.171875,-12.203125,21.5,587
490,1696258424890,0.19262695,-1.0557251,0.09295654,-1.125,-41.03125,-9.234375,588
491,1696258424930,0.11010742,-0.77716064,-0.034240723,5.34375,-49.65625,-4.0625,589
492,1696258424970,0.10986328,-0.61724854,0.035827637,-5.8125,-48.28125,15.3125,590
493,1696258425010,-0.057373047,-0.772522,0.06390381,-9.5625,-50.5625,10.8125,591
494,1696258425050,-0.25585938,-1.0064087,0.008728027,-6.5625,-30.40625,9.90625,592
495,1696258425090,-0.13964844,-0.8777466,0.03753662,0.046875,-20.875,8.40625,593
496,1696258425130,-0.022216797,-0.5413208,0.11590576,5.515625,-16.75,-5.1875,594
497,1696258425170,-0.07299805,-0.5588989,0.03363037,0.4375,-9.296875,-9.6875,595
498,1696258425210,-0.064453125,-0.7803345,0.029968262,-0.46875,-4.640625,-1.21875,596
499,1696258425250,-0.0053710938,-0.77593994,0.2074585,-9.53125,4.046875,1.609375,597
500,1696258425290,-0.10253906,-0.60650635,0.04046631,0.265625,-9.015625,-6.0625,598
501,1696258425330,0.26220703,-0.7131958,-0.18951416,17.078125,-8.4375,7.0,599
502,1696258425370,1.6679688,-2.0,-0.093566895,2.421875,-22.09375,88.0,600
503,1696258425410,-0.16723633,-1.8933716,0.70648193,9.953125,-16.28125,-16.25,601
504,1696258425450,-0.1159668,-1.3626099,-0.22906494,-20.046875,-71.859375,-31.3125,602
505,1696258425490,-0.31591797,-1.1599731,-0.030334473,1.046875,34.171875,-26.109375,603
506,1696258425530,-0.075927734,-0.66851807,0.39886475,10.765625,19.53125,1.0625,604
507,1696258425570,0.32470703,-0.802063,0.30511475,-8.4375,9.84375,-1.296875,605
508,1696258425610,0.41625977,-0.892395,0.10003662,-18.390625,-17.328125,-7.578125,606
509,1696258425650,-0.09057617,-0.58599854,0.10687256,-7.328125,-2.1875,-2.75,607
510,1696258425690,-0.09106445,-0.43292236,0.18914795,-7.5625,-15.5,-8.0625,608
511,1696258425730,-0.24902344,-0.49591064,0.1642456,1.28125,3.5625,-5.96875,609
512,1696258425770,-0.2199707,-0.6567993,0.2584839,20.4375,29.9375,1.9375,610
513,1696258425810,-0.047851562,-0.9163208,0.27557373,-3.09375,15.15625,1.453125,611
514,1696258425850,0.29711914,-0.85528564,0.16937256,-9.015625,7.09375,-12.0,612
515,1696258425890,0.35913086,-0.8965454,0.14227295,-18.625,0.703125,3.796875,613
516,1696258425930,0.10571289,-1.104065,0.0026245117,16.65625,-10.9375,12.171875,614
517,1696258425970,-0.22021484,-1.7268677,0.023864746,-5.640625,-6.296875,17.875,615
518,1696258426010,-0.35498047,-2.0,0.066101074,-2.328125,-4.515625,-6.5,616
519,1696258426050,0.017333984,-1.4873657,0.54803467,-12.9375,1.40625,-1.53125,617
520,1696258426090,0.051757812,-0.847229,0.2970581,11.46875,-25.25,-18.0625,618
521,1696258426130,-0.020019531,-0.5808716,-0.02520752,32.609375,-12.140625,-4.171875,619
522,1696258426170,-0.2277832,-0.5510864,-0.010314941,-7.125,-12.40625,15.875,620
523,1696258426210,0.018310547,-0.6367798,-0.047668457,14.359375,-8.28125,9.4375,621
524,1696258426250,0.044189453,-0.7437134,0.027038574,6.59375,-7.875,2.546875,622
525,1696258426290,0.08300781,-0.76690674,0.08758545,5.5625,-11.96875,8.640625,623
526,1696258426330,-0.11767578,-0.81451416,0.22698975,-9.5,-10.71875,1.515625,624
527,1696258426370,-0.55737305,-0.9678345,0.10736084,-20.40625,-25.96875,-6.484375,625
528,1696258426410,-0.4831543,-1.0288696,0.036315918,-8.59375,4.84375,-5.359375,626
529,1696258426450,0.029052734,-0.4109497,0.12542725,-14.59375,25.515625,-7.625,627
530,1696258426490,0.1652832,-0.28082275,-0.08892822,19.046875,4.0625,-13.375,628
531,1696258426530,0.43847656,-0.9463501,-0.15875244,18.046875,6.53125,18.375,629
532,1696258426570,0.41723633,-2.0,0.53338623,4.75,11.359375,38.734375,630
533,1696258426610,0.17773438,-2.0,0.65179443,-10.0625,-44.8125,-24.015625,631
534,1696258426650,-0.14404297,-1.3001099,0.05731201,15.96875,-29.15625,-37.421875,632
535,1696258426690,-0.19726562,-1.0859985,-0.0115356445,-6.984375,5.96875,-11.703125,633
536,1696258426730,-0.075927734,-0.83673096,0.5228882,11.984375,9.140625,5.671875,634
537,1696258426770,0.051757812,-0.85040283,0.24310303,0.921875,1.609375,8.875,635
538,1696258426810,0.15185547,-0.91900635,0.046081543,-15.796875,0.03125,-7.84375,636
539,1696258426850,-0.07006836,-0.6670532,0.16766357,6.890625,3.890625,-15.75,637
540,1696258426890,-0.030029297,-0.42559814,0.32757568,1.234375,-5.46875,-10.859375,638
541,1696258426930,-0.12548828,-0.5120239,0.22161865,-7.078125,-17.53125,1.109375,639
542,1696258426970,-0.07128906,-0.7654419,0.18597412,-5.734375,-13.578125,12.1875,640
543,1696258427010,0.12646484,-1.0374146,0.46673584,0.484375,-12.75,3.84375,641
544,1696258427050,0.016601562,-1.0545044,0.49456787,-1.359375,-29.71875,-6.546875,642
545,1696258427090,-0.092041016,-0.80670166,0.22283936,-12.484375,-27.71875,-9.671875,643
546,1696258427130,-0.15942383,-0.74420166,0.124938965,-0.515625,-28.90625,-5.015625,644
547,1696258427170,0.29638672,-0.7476196,0.33563232,-5.234375,-11.21875,-9.53125,666
548,1696258427210,0.09375,-0.7341919,0.17059326,7.59375,-20.015625,1.0625,667
549,1696258427250,-0.012207031,-0.7739868,0.16131592,-7.078125,-19.65625,18.53125,668
550,1696258427290,0.055664062,-0.8987427,0.2177124,1.953125,-11.234375,9.921875,669
551,1696258427330,-0.061035156,-0.99835205,0.22625732,10.28125,-7.921875,-9.109375,670
552,1696258427370,-0.1796875,-0.7944946,0.1461792,15.0,10.703125,-13.1875,671
553,1696258427410,-0.17089844,-0.57647705,0.13616943,1.953125,23.328125,-18.390625,672
554,1696258427450,-0.06762695,-0.49468994,0.28875732,-4.875,18.796875,-12.984375,673
555,1696258427490,0.078125,-0.864563,0.19476318,-3.765625,3.4375,-4.78125,674
556,1696258427530,0.21240234,-0.94732666,0.23236084,1.015625,-3.140625,-1.578125,675
557,1696258427570,-0.052734375,-0.8262329,0.04949951,-12.5625,5.765625,2.328125,676
558,1696258427610,0.041015625,-1.2166138,-0.0947876,-6.15625,-5.53125,5.609375,677
559,1696258427650,0.60253906,-2.0,-0.11260986,3.5625,-11.703125,31.125,678
560,1696258427690,-0.03515625,-2.0,0.33758545,-38.46875,-18.15625,2.40625,679
561,1696258427730,-0.49682617,-1.4116821,0.27972412,7.65625,-22.34375,-22.609375,680
562,1696258427770,-0.10449219,-0.79571533,0.109558105,-7.015625,-7.90625,-16.15625,681
563,1696258427810,-0.21875,-0.64849854,0.10467529,17.640625,-4.546875,4.296875,682
564,1696258427850,-0.06762695,-0.7293091,0.0016479492,-10.90625,5.171875,11.46875,683
565,1696258427890,0.08496094,-0.7871704,-0.0005493164,-3.390625,9.609375,5.78125,684
566,1696258427930,0.015625,-0.8267212,0.05316162,8.21875,-2.171875,6.15625,685
567,1696258427970,-0.07470703,-0.8286743,0.090270996,2.578125,-12.78125,0.90625,686
568,1696258428010,-0.2006836,-0.8843384,0.13470459,-4.515625,5.8125,3.0,687
569,1696258428050,-0.122558594,-0.73394775,0.15472412,-17.875,0.328125,6.28125,688
570,1696258428090,0.001953125,-0.66973877,0.14129639,-5.734375,-4.0,5.5,689
571,1696258428130,-0.091552734,-0.6592407,0.04144287,2.5625,-3.84375,5.90625,690
572,1696258428170,-0.2368164,-0.74835205,0.13323975,4.375,-9.671875,3.78125,691
573,1696258428210,-0.14916992,-0.9241333,0.17254639,12.609375,20.1875,0.390625,692
574,1696258428250,0.07543945,-0.7503052,0.093933105,5.5,23.078125,-1.46875,693
575,1696258428290,0.3125,-0.89556885,0.0040893555,7.875,5.6875,8.328125,694
576,1696258428330,0.3557129,-1.5046997,0.16375732,16.453125,16.609375,20.625,695
577,1696258428370,0.37158203,-2.0,0.69329834,-5.28125,-8.234375,30.15625,696
578,1696258428410,0.3005371,-1.5464478,0.2711792,-10.265625,-29.0625,-27.140625,697
579,1696258428450,-0.11987305,-1.2293091,0.16156006,-1.546875,-13.6875,-17.734375,698
580,1696258428490,-0.15820312,-0.9002075,0.3085327,9.390625,1.546875,-8.921875,699
581,1696258428530,-0.14453125,-0.5606079,0.09906006,10.34375,7.125,-1.078125,700
582,1696258428570,-0.053710938,-0.47564697,0.06365967,-2.640625,20.5625,1.484375,701
583,1696258428610,0.06201172,-0.642395,0.13226318,1.234375,21.90625,-0.890625,702
584,1696258428650,0.11743164,-0.8640747,0.24920654,2.125,14.265625,-8.03125,703
585,1696258428690,0.042236328,-0.9902954,0.26727295,-4.125,3.4375,-10.0,704
586,1696258428730,-0.078125,-0.9158325,0.28631592,-0.71875,1.1875,-12.109375,705
587,1696258428770,-0.14550781,-0.7608032,0.15228271,-5.0,7.140625,-12.34375,706
588,1696258428810,-0.10083008,-0.57232666,0.22332764,-6.8125,4.671875,-5.21875,707
589,1696258428850,-0.018798828,-0.8447876,0.24822998,0.3125,10.78125,3.09375,708
590,1696258428890,0.17211914,-0.95147705,0.22723389,5.078125,0.46875,-3.15625,709
591,1696258428930,0.10546875,-0.8604126,0.22357178,2.546875,5.9375,-3.53125,710
592,1696258428970,-0.014404297,-0.7666626,0.1005249,0.671875,-0.84375,-2.1875,711
593,1696258429010,-0.014160156,-1.0291138,-0.038391113,3.484375,4.59375,9.28125,712
594,1696258429050,0.12768555,-1.2886353,0.17840576,-1.25,-0.75,23.921875,713
595,1696258429090,-0.42504883,-2.0,0.23382568,-31.90625,-32.6875,33.828125,714
596,1696258429130,-0.29370117,-1.3948364,0.61468506,16.765625,17.5,-26.90625,715
597,1696258429170,0.24829102,-0.75665283,0.32684326,-6.921875,-25.078125,-26.75,716
598,1696258429210,0.0847168,-0.59552,0.06585693,17.484375,-12.34375,1.03125,717
599,1696258429250,-0.0043945312,-0.6709595,0.16912842,-36.265625,-20.96875,30.0625,718
600,1696258429290,0.0043945312,-0.7217407,-0.070129395,3.40625,-24.109375,20.34375,719
601,1696258429330,-0.13134766,-0.7366333,0.10101318,-2.015625,-3.875,-4.359375,720
602,1696258429370,-0.26708984,-0.75201416,0.16595459,13.65625,-8.640625,-5.125,721
603,1696258429410,-0.28320312,-0.72369385,0.17645264,1.71875,2.453125,-9.578125,722
604,1696258429450,-0.36791992,-0.6382446,0.1564331,-12.453125,-4.65625,-7.625,723
605,1696258429490,-0.26879883,-0.6067505,0.12567139,-10.796875,14.40625,-0.578125,724
606,1696258429530,-0.033447266,-0.54693604,0.1918335,-8.09375,21.890625,3.296875,725
607,1696258429570,0.26000977,-0.9348755,-0.2078247,18.640625,-13.203125,4.296875,726
608,1696258429610,0.6767578,-1.6218872,0.23773193,19.515625,6.34375,21.359375,727
609,1696258429650,0.61279297,-1.7844849,0.5993042,-1.90625,-17.65625,27.28125,728
610,1696258429690,-0.2434082,-2.0,0.7243042,-9.375,-4.4375,-14.890625,729
611,1696258429730,-0.31225586,-1.3584595,0.034118652,-10.109375,-17.109375,-18.453125,730
612,1696258429770,0.12817383,-0.90997314,0.21575928,8.234375,19.0625,-11.890625,731
613,1696258429810,0.119384766,-0.7451782,0.3595581,13.0,6.140625,-6.5,732
614,1696258429850,-0.03955078,-0.6675415,0.27313232,-6.5625,6.5625,-2.53125,733
615,1696258429890,-0.08862305,-0.6729126,0.10321045,-5.625,12.609375,-8.734375,734
616,1696258429930,-0.022705078,-0.44317627,0.09954834,12.0,22.46875,-9.078125,735
617,1696258429970,0.14746094,-0.30255127,0.16473389,6.46875,16.59375,-4.90625,736
618,1696258430010,0.13647461,-0.3352661,0.3048706,3.78125,5.984375,-0.765625,737
619,1696258430050,0.025878906,-0.6243286,0.042907715,-0.09375,-15.671875,3.765625,738
620,1696258430090,-0.050048828,-1.0979614,0.15716553,6.5625,10.40625,-0.390625,739
621,1696258430130,0.032958984,-1.6780396,-0.2571411,13.3125,-2.546875,8.765625,740
622,1696258430170,0.32495117,-1.461731,0.32537842,6.546875,9.65625,7.609375,741
623,1696258430210,-0.6503906,-2.0,-0.07647705,-38.34375,-10.59375,6.375,742
624,1696258430250,-0.51220703,-1.5291138,0.46624756,-4.8125,39.25,-25.5625,743
625,1696258430290,0.24267578,-0.7991333,0.14227295,-5.84375,12.796875,-26.890625,744
626,1696258430330,0.36816406,-0.56915283,0.055847168,21.53125,-1.359375,-3.6875,745
627,1696258430370,-0.09863281,-0.68414307,0.08709717,-13.90625,-15.65625,28.703125,746
628,1696258430410,-0.20996094,-0.69854736,-0.04522705,-16.015625,-37.453125,20.875,747
629,1696258430450,-0.1796875,-0.63946533,-0.024963379,3.78125,-10.296875,-6.390625,748
630,1696258430490,0.01586914,-0.59210205,0.14129639,11.8125,2.65625,-0.5,749
631,1696258430530,0.009277344,-0.5791626,0.23773193,-1.578125,-7.75,8.671875,750
632,1696258430570,-0.24707031,-0.8508911,0.12835693,-16.84375,-12.953125,9.59375,751
633,1696258430610,-0.4230957,-0.7918091,0.06756592,-6.453125,-9.8125,3.828125,752
634,1696258430650,-0.16015625,-0.43121338,0.14300537,-3.34375,24.65625,-3.203125,753
635,1696258430690,0.10058594,-0.36553955,-0.0029907227,13.859375,-2.6875,-0.6875,754
636,1696258430730,0.34448242,-1.4099731,-0.016906738,28.9375,1.578125,20.015625,755
637,1696258430770,0.32666016,-2.0,0.57684326,-0.28125,15.578125,16.78125,756
638,1696258430810,0.15942383,-1.4338989,0.94744873,3.046875,-0.140625,-46.09375,757
639,1696258430850,-0.3059082,-1.1414185,-0.17901611,-19.515625,-22.28125,-31.71875,758
640,1696258430890,-0.24389648,-0.93048096,0.12542725,-8.46875,10.75,-4.703125,759
641,1696258430930,0.1538086,-0.74224854,0.494812,12.46875,9.734375,13.625,760
642,1696258430970,0.27685547,-1.1138306,0.21917725,-8.265625,4.5,10.640625,761
643,1696258431010,0.048339844,-0.8106079,0.06585693,5.109375,-16.65625,-11.453125,762
644,1696258431050,-0.13208008,-0.28790283,0.043884277,20.828125,5.328125,-15.765625,763
645,1696258431090,-0.12060547,-0.11602783,0.055603027,15.75,10.734375,-7.328125,764
646,1696258431130,-0.060058594,-0.300354,0.10491943,19.03125,27.296875,3.21875,765
647,1696258431170,0.1628418,-0.6033325,0.12567139,8.609375,19.171875,19.828125,766
648,1696258431210,0.30419922,-1.223938,0.12957764,-6.359375,-22.421875,20.46875,767
649,1696258431250,0.30371094,-1.3372192,-0.08380127,4.234375,-32.296875,4.328125,768
650,1696258431290,-0.11206055,-1.3806763,-0.10406494,-7.921875,-16.0625,10.234375,769
651,1696258431330,-0.104003906,-2.0,-0.43951416,3.390625,-6.109375,10.46875,770
652,1696258431370,-0.23168945,-1.7075806,0.83026123,12.0,10.28125,-19.75,771
653,1696258431410,-0.099365234,-1.2647095,0.17230225,-16.734375,11.1875,-27.1875,772
654,1696258431450,-0.15991211,-0.7944946,-0.09429932,4.234375,12.28125,-19.265625,773
655,1696258431490,-0.16308594,-0.5220337,-0.058166504,-4.734375,-9.546875,1.28125,774
656,1696258431530,0.13232422,-0.4229126,-0.05206299,6.21875,-3.203125,7.421875,775
657,1696258431570,-0.064941406,-0.7046509,0.051940918,6.578125,-0.484375,4.265625,776
658,1696258431610,-0.2290039,-1.0059204,0.07122803,-2.203125,0.953125,9.953125,777
659,1696258431650,-0.19580078,-1.3154907,0.12713623,-7.328125,11.953125,8.234375,778
660,1696258431690,-0.045654297,-1.1133423,0.18206787,-12.0625,-5.859375,-11.15625,779
661,1696258431730,0.1003418,-0.82647705,0.13616943,-10.890625,-9.71875,-5.765625,780
662,1696258431770,0.0009765625,-0.50201416,0.097595215,-7.15625,-17.75,-0.53125,781
663,1696258431810,-0.21313477,-0.458313,0.10369873,-15.8125,-28.96875,2.28125,782
664,1696258431850,-0.5605469,-0.76934814,0.15594482,-19.671875,-9.890625,6.015625,783
665,1696258431890,-0.3486328,-1.0130005,0.0602417,-22.21875,10.21875,-2.234375,784
666,1696258431930,0.02709961,-0.74102783,0.18572998,-8.3125,31.0625,-2.859375,785
667,1696258431970,0.12792969,-0.5064087,-0.037902832,2.84375,-18.046875,-7.0,786
668,1696258432010,0.14526367,-1.1873169,-0.08404541,16.859375,-32.78125,9.78125,787
669,1696258432050,0.9436035,-2.0,0.47869873,-8.796875,13.796875,55.96875,788
670,1696258432090,-0.040039062,-2.0,0.7987671,6.578125,-9.859375,-29.3125,789
671,1696258432130,-0.39990234,-1.185852,0.35028076,-21.109375,-42.265625,-27.328125,790
672,1696258432170,-0.26049805,-0.84991455,-0.047668457,-7.890625,23.421875,-12.53125,791
673,1696258432210,-0.05834961,-0.50006104,0.45843506,32.28125,35.625,0.109375,792
674,1696258432250,0.068359375,-0.61846924,0.2682495,5.0,22.1875,6.4375,793
675,1696258432290,0.25390625,-0.7866821,0.19012451,-1.90625,-2.796875,0.796875,794
676,1696258432330,-0.099609375,-0.7686157,0.11029053,-0.9375,-15.765625,8.109375,826
677,1696258432370,0.03564453,-0.83013916,0.3475952,4.09375,3.4375,3.703125,827
678,1696258432410,0.010253906,-0.81134033,0.38397217,8.625,-2.015625,-9.921875,828
679,1696258432450,-0.11401367,-0.63653564,0.28997803,-1.796875,-12.28125,-14.6875,829
680,1696258432490,-0.20654297,-0.50201416,0.054626465,-6.671875,-1.328125,-17.015625,830
681,1696258432530,0.018310547,-0.5918579,0.18255615,-8.15625,9.234375,-11.15625,831
682,1696258432570,0.24609375,-0.8755493,0.27020264,9.65625,7.890625,2.453125,832
683,1696258432610,0.15698242,-1.062561,-0.032287598,10.140625,9.65625,-3.578125,833
684,1696258432650,0.21313477,-0.9951782,0.094177246,-0.578125,10.609375,4.71875,834
685,1696258432690,0.171875,-1.5623169,-0.16339111,-3.171875,-14.546875,23.90625,835
686,1696258432730,-0.4033203,-2.0,0.0289917,17.84375,-0.25,-2.765625,836
687,1696258432770,-0.053955078,-1.5044556,0.7719116,-8.703125,29.671875,-3.59375,837
688,1696258432810,-0.041992188,-0.9558716,0.20965576,-3.390625,-6.46875,-22.765625,838
689,1696258432850,-0.041259766,-0.49298096,-0.11651611,26.3125,-6.71875,-18.59375,839
690,1696258432890,0.07348633,-0.4570923,0.012145996,-2.03125,-1.859375,11.609375,840
691,1696258432930,-0.013916016,-0.61065674,-0.0154418945,7.359375,-12.6875,14.265625,841
692,1696258432970,-0.1105957,-0.9360962,0.038513184,10.171875,-6.515625,1.390625,842
693,1696258433010,-0.14916992,-1.1846313,0.097595215,3.90625,-1.171875,0.453125,843
694,1696258433050,0.029541016,-1.0737915,0.10101318,-4.78125,-1.390625,-1.015625,844
695,1696258433090,0.08642578,-0.70318604,0.10101318,-5.96875,-22.265625,-1.3125,845
696,1696258433130,-0.118896484,-0.35601807,0.2086792,-13.109375,-15.484375,8.484375,846
697,1696258433170,-0.47460938,-0.83917236,0.019470215,-6.390625,1.15625,11.84375,847
698,1696258433210,-0.14453125,-0.9678345,0.1864624,10.3125,25.671875,5.375,848
699,1696258433250,0.22167969,-0.7371216,0.2501831,0.046875,18.453125,-0.359375,849
700,1696258433290,0.10473633,-0.6824341,0.09881592,6.0,-2.25,-17.515625,850
701,1696258433330,-0.18530273,-0.7456665,0.0079956055,2.125,-10.984375,1.765625,851
702,1696258433370,-0.13549805,-1.3545532,-0.07232666,-3.484375,8.3125,20.4375,852
703,1696258433410,0.4345703,-2.0,0.37420654,14.171875,-6.640625,14.625,853
704,1696258433450,0.1352539,-1.6062622,0.59173584,-20.0625,4.359375,-47.15625,854
705,1696258433490,-0.16455078,-1.2659302,0.038269043,-11.28125,-10.109375,-14.421875,855
706,1696258433530,-0.007080078,-0.90460205,0.1251831,-4.53125,-7.421875,-5.96875,856
707,1696258433570,0.10229492,-0.694397,0.3554077,19.109375,-11.6875,13.9375,857
708,1696258433610,0.032226562,-0.7346802,0.2255249,-4.828125,-7.578125,19.203125,858
709,1696258433650,-0.056396484,-0.89556885,0.16204834,3.640625,-15.296875,-5.203125,859
710,1696258433690,-0.42211914,-0.7937622,0.012390137,3.890625,8.421875,-19.015625,860
711,1696258433730,-0.20361328,-0.5376587,0.08929443,1.40625,30.59375,-20.703125,861
712,1696258433770,0.061767578,-0.50616455,0.230896,5.140625,35.265625,-14.96875,862
713,1696258433810,0.2319336,-0.73443604,0.17303467,-7.828125,20.515625,-1.4375,863
714,1696258433850,0.3059082,-0.9055786,0.28582764,-6.859375,-13.265625,3.46875,864
715,1696258433890,0.24780273,-1.0115356,0.23529053,-20.5625,-32.734375,11.578125,865
716,1696258433930,0.049316406,-1.2944946,0.12445068,-14.609375,-31.03125,22.125,866
717,1696258433970,-0.23461914,-1.5803833,-0.032043457,-12.5,-23.0,7.328125,867
718,1696258434010,-0.31445312,-1.9243774,0.32122803,-10.390625,-20.328125,4.796875,868
719,1696258434050,-0.3317871,-1.4829712,0.4845581,-1.828125,-11.109375,-17.03125,869
720,1696258434090,-0.06518555,-0.82354736,0.3258667,-16.84375,-4.265625,-19.59375,870
721,1696258434130,0.014160156,-0.4656372,0.05657959,25.71875,-15.765625,-7.125,871
722,1696258434170,0.22753906,-0.58673096,-0.05621338,0.953125,-32.109375,11.953125,872
723,1696258434210,0.03564453,-0.7102661,0.07537842,7.296875,-41.265625,21.1875,873
724,1696258434250,-0.13647461,-0.94610596,0.13690186,9.484375,-51.671875,8.46875,874
725,1696258434290,-0.36401367,-1.0767212,0.1383667,6.890625,-37.59375,0.40625,875
726,1696258434330,-0.32592773,-0.82403564,0.13323975,0.484375,-12.953125,0.96875,876
727,1696258434370,-0.25952148,-0.7451782,0.19085693,-5.59375,-23.1875,5.84375,877
728,1696258434410,-0.19116211,-0.73638916,0.24383545,-0.796875,-19.03125,3.921875,878
729,1696258434450,-0.23754883,-0.7007446,0.20599365,1.953125,-12.28125,1.0,879
730,1696258434490,-0.15283203,-0.7764282,0.09246826,2.390625,-13.734375,2.21875,880
731,1696258434530,0.007080078,-0.6104126,0.1281128,2.21875,-22.09375,1.046875,881
732,1696258434570,-0.0007324219,-0.51226807,-0.089904785,14.03125,-39.796875,4.203125,882
733,1696258434610,0.25024414,-1.2710571,0.07293701,2.375,-37.78125,32.515625,883
734,1696258434650,0.7717285,-2.0,0.5272827,-19.28125,-18.203125,46.21875,884
735,1696258434690,-0.004638672,-1.5967407,0.8016968,-13.875,-45.75,-23.171875,885
736,1696258434730,0.030273438,-1.4092407,-0.28253174,25.9375,-29.421875,-7.125,886
737,1696258434770,0.1027832,-1.0220337,0.418396,23.171875,-1.234375,11.4375,887
738,1696258434810,0.18408203,-0.9224243,0.27459717,16.390625,-35.8125,12.921875,888
739,1696258434850,0.064941406,-0.84747314,0.030944824,-0.25,-43.84375,8.84375,889
740,1696258434890,-0.15722656,-0.6560669,0.06414795,5.953125,-19.1875,2.671875,890
741,1696258434930,-0.23999023,-0.48150635,0.16619873,5.890625,-12.484375,-8.734375,891
742,1696258434970,-0.1772461,-0.38238525,0.12371826,-0.3125,-1.609375,-15.453125,892
743,1696258435010,-0.12426758,-0.5388794,0.19989014,14.59375,10.890625,-7.46875,893
744,1696258435050,-0.049316406,-1.1394653,0.27801514,-9.484375,-2.171875,5.296875,894
745,1696258435090,0.28393555,-1.5239868,0.37786865,-10.546875,-11.796875,-9.15625,895
746,1696258435130,-0.043701172,-1.7634888,-0.023498535,-42.484375,-27.515625,-7.109375,896
747,1696258435170,0.4177246,-1.5911255,-0.16851807,-28.3125,-21.984375,9.4375,897
748,1696258435210,0.30639648,-0.8526001,-0.05328369,-9.65625,-7.171875,-2.203125,898
749,1696258435250,0.076171875,-0.88946533,-0.024475098,-2.265625,-45.859375,-9.984375,899
750,1696258435290,-0.08666992,-1.0283813,0.11029053,-3.015625,-6.890625,10.203125,900
751,1696258435330,0.022949219,-0.9890747,0.062683105,24.75,-28.84375,21.203125,901
752,1696258435370,0.2578125,-0.94000244,0.16815186,1.03125,-27.4375,2.546875,902
753,1696258435410,0.08154297,-0.8826294,0.08758545,-1.375,-47.828125,-1.296875,903
754,1696258435450,-0.08154297,-0.90338135,-0.010803223,-3.96875,-51.296875,7.34375,904
755,1696258435490,-0.12963867,-0.862854,0.11590576,-2.0,-34.421875,5.125,905
756,1696258435530,-0.087646484,-0.89263916,0.029968262,8.6875,-33.921875,4.046875,906
757,1696258435570,-0.0026855469,-0.9697876,0.15692139,-3.109375,-25.125,1.78125,907
758,1696258435610,0.047607422,-0.9495239,0.19598389,-2.921875,-30.328125,-0.828125,908
759,1696258435650,-0.00390625,-0.8267212,0.074401855,-4.296875,-46.53125,0.078125,909
