# Sensor type: Respeck
# Activity type: Lying down back
# Activity subtype: Laughing
# Subject id: s2106809
# Notes: unprocessed
timestamp,accel_x,accel_y,accel_z,gyro_x,gyro_y,gyro_z
1696252523649,-0.59765625,-0.05987549,0.88153076,0.25,0.125,-0.46875
1696252523686,-0.6022949,-0.074523926,0.8759155,-0.546875,-0.578125,0.0625
1696252523727,-0.6044922,-0.08721924,0.8847046,-0.734375,-0.375,0.078125
1696252523766,-0.6027832,-0.08526611,0.91033936,1.75,1.109375,0.03125
1696252523807,-0.5949707,-0.0791626,0.8825073,-0.21875,-1.921875,-0.421875
1696252523827,-0.6208496,-0.06500244,0.86590576,-0.578125,-1.703125,-0.375
1696252523868,-0.59521484,-0.06451416,0.87420654,0.296875,0.484375,-0.59375
1696252523907,-0.5805664,-0.066223145,0.88568115,0.375,0.359375,-0.515625
1696252523946,-0.58081055,-0.07598877,0.8978882,2.171875,1.125,-0.734375
1696252523986,-0.59033203,-0.08258057,0.8925171,0.546875,-0.453125,-0.21875
1696252524026,-0.6125488,-0.0881958,0.8842163,-0.515625,-2.65625,1.046875
1696252524067,-0.62768555,-0.06060791,0.86932373,-0.46875,-1.171875,0.40625
1696252524108,-0.58862305,-0.062561035,0.86883545,-0.46875,-1.09375,-0.328125
1696252524147,-0.59277344,-0.062561035,0.8678589,-0.203125,-2.671875,-0.078125
1696252524188,-0.5979004,-0.04815674,0.838562,1.859375,-3.5,-0.359375
1696252524228,-0.6296387,-0.055480957,0.72650146,10.890625,-20.1875,-0.875
1696252524269,-0.63842773,-0.09552002,0.7880249,-3.21875,-25.109375,-2.734375
1696252524308,-0.54345703,-0.018859863,0.9447632,0.109375,4.125,0.359375
1696252524370,-0.5998535,-0.16461182,0.8798218,-2.15625,-8.53125,9.828125
1696252524388,-0.8208008,-0.15020752,0.8685913,2.84375,-9.34375,5.953125
1696252524429,-0.68969727,-0.11627197,0.83270264,-0.421875,-2.015625,-7.21875
1696252524470,-0.6044922,-5.493164E-4,0.79974365,-3.78125,3.078125,-6.953125
1696252524508,-0.638916,-0.020324707,0.8151245,-5.078125,-1.859375,2.796875
1696252524548,-0.7211914,-0.117248535,0.8065796,0.921875,-5.109375,2.984375
1696252524587,-0.6862793,-0.15704346,0.8397827,-0.171875,-0.734375,-1.140625
1696252524649,-0.6003418,-0.04058838,0.87127686,-3.25,2.15625,-4.953125
1696252524669,-0.657959,-0.049621582,0.79119873,-9.1875,-12.265625,4.703125
1696252524730,-0.75097656,-0.059631348,0.7963257,7.6875,5.453125,4.1875
1696252524747,-0.70458984,-0.13677979,0.8666382,-1.09375,-1.21875,-3.53125
1696252524810,-0.6364746,-0.062561035,0.8551636,1.515625,4.171875,-3.71875
1696252524827,-0.6755371,-0.05230713,0.80389404,-2.53125,-4.96875,0.28125
1696252524870,-0.6953125,-0.039855957,0.8126831,2.921875,3.671875,-0.875
1696252524906,-0.6503906,-0.0803833,0.80633545,-3.28125,3.078125,-0.59375
1696252524952,-0.6125488,-0.06402588,0.8759155,0.4375,-0.625,-0.96875
1696252524988,-0.6442871,-0.0491333,0.83148193,-1.390625,-4.234375,-1.65625
1696252525028,-0.69873047,-0.043273926,0.7987671,-2.90625,-4.703125,-1.4375
1696252525087,-0.6542969,-0.062316895,0.8121948,-0.859375,0.015625,-1.140625
1696252525111,-0.6953125,-0.05596924,0.81903076,0.890625,-3.203125,-2.0
1696252525126,-0.7363281,-0.069885254,0.79974365,-4.59375,-6.109375,-0.53125
1696252525168,-0.7050781,-0.036193848,0.80389404,-0.984375,-0.90625,0.125
1696252525208,-0.7114258,-0.023742676,0.8197632,2.265625,1.34375,-0.546875
1696252525249,-0.6804199,-0.059631348,0.85980225,-0.09375,1.515625,-0.015625
1696252525288,-0.67089844,-0.05328369,0.81414795,1.265625,-2.140625,1.015625
1696252525329,-0.64941406,-0.054748535,0.82562256,0.5625,1.5625,-0.046875
1696252525368,-0.6464844,-0.033996582,0.83099365,-1.5625,-0.140625,0.21875
1696252525407,-0.6687012,-0.04083252,0.8168335,-0.671875,-1.296875,0.84375
1696252525449,-0.6628418,-0.04498291,0.82562256,-0.59375,-3.203125,0.875
1696252525487,-0.71728516,-0.06011963,0.8029175,-0.3125,-3.59375,0.0625
1696252525530,-0.6989746,-0.06329346,0.80145264,-0.625,-1.265625,-1.171875
1696252525571,-0.7077637,-0.042297363,0.80511475,0.046875,-2.734375,-1.03125
1696252525609,-0.71362305,-0.04498291,0.8004761,-2.40625,-0.15625,-0.625
1696252525649,-0.6855469,-0.03277588,0.79681396,-0.171875,1.8125,-1.34375
1696252525687,-0.67871094,-0.035217285,0.8222046,-2.234375,-0.5,0.203125
1696252525727,-0.6894531,-0.035217285,0.8209839,-1.0,-0.15625,0.796875
1696252525768,-0.6621094,-0.039855957,0.8307495,-0.234375,1.46875,-0.40625
1696252525807,-0.6738281,-0.05670166,0.8295288,0.109375,0.875,0.109375
1696252525850,-0.67407227,-0.030822754,0.8121948,0.765625,-2.265625,-0.390625
1696252525888,-0.6826172,-0.044006348,0.80340576,-1.71875,-0.4375,-0.09375
1696252525928,-0.704834,-0.016418457,0.8053589,-0.203125,-0.28125,-0.203125
1696252525967,-0.71484375,-0.032287598,0.79315186,-0.578125,0.546875,1.34375
1696252526007,-0.6982422,-0.044006348,0.81658936,-1.390625,1.671875,0.9375
1696252526048,-0.6633301,-0.039367676,0.8295288,-0.390625,2.8125,-0.203125
1696252526088,-0.673584,-0.031311035,0.8241577,-0.265625,0.015625,0.0625
1696252526127,-0.6567383,-0.035949707,0.85150146,-2.296875,1.40625,0.171875
1696252526166,-0.6645508,-0.04425049,0.89520264,-4.96875,6.921875,0.203125
1696252526217,-0.6816406,-0.016418457,0.9088745,0.21875,19.84375,0.6875
1696252526248,-0.7026367,-0.016906738,0.89764404,6.171875,16.71875,3.34375
1696252526290,-0.62353516,-0.022766113,0.8048706,5.46875,14.796875,6.171875
1696252526327,-0.623291,-0.039123535,0.82073975,6.46875,13.8125,8.203125
1696252526370,-0.60595703,-0.11578369,0.85028076,8.09375,5.421875,4.46875
1696252526410,-0.5744629,-0.1326294,0.8571167,1.015625,0.03125,-1.796875
1696252526448,-0.5444336,-0.04425049,0.81414795,-0.203125,-5.40625,-3.875
1696252526488,-0.56225586,0.046569824,0.76483154,3.203125,-17.359375,-3.484375
1696252526507,-0.70458984,-0.10406494,0.73968506,-4.796875,-36.125,0.03125
1696252526549,-0.47753906,0.04510498,0.9645386,4.421875,-3.5625,-3.09375
1696252526587,-0.49609375,-0.13580322,0.9747925,-2.25,-12.3125,-0.1875
1696252526628,-0.8378906,-0.10040283,0.8444214,-1.46875,-12.578125,0.28125
1696252526668,-0.85498047,-0.07232666,0.8012085,-0.015625,-8.0,-1.15625
1696252526708,-0.7207031,-0.039367676,0.68377686,-4.78125,4.359375,-3.84375
1696252526747,-0.5793457,-0.042785645,0.8258667,-3.859375,4.046875,0.46875
1696252526787,-0.6628418,-0.02960205,0.8456421,0.71875,-2.875,-0.484375
1696252526848,-0.7414551,-0.09307861,0.8102417,-1.53125,-3.1875,1.09375
1696252526868,-0.6809082,-0.030822754,0.83587646,-0.796875,1.84375,-1.140625
1696252526929,-0.62109375,-0.013000488,0.8427124,-0.890625,0.203125,-0.90625
1696252526967,-0.70214844,-0.06060791,0.8151245,-1.328125,-3.84375,0.0625
1696252526986,-0.7072754,-0.058654785,0.7992554,-4.109375,0.203125,0.6875
1696252527049,-0.66186523,-0.023742676,0.7848511,-4.40625,-1.890625,-2.875
1696252527068,-0.62524414,-0.009094238,0.84124756,-2.796875,0.25,-4.859375
1696252527111,-0.6760254,-0.026428223,0.8217163,-0.078125,-4.234375,-1.90625
1696252527147,-0.7375488,-0.034729004,0.8019409,-0.265625,-2.75,2.125
1696252527189,-0.7651367,-0.018859863,0.8143921,0.828125,2.140625,0.984375
1696252527229,-0.6948242,-0.043029785,0.80462646,-0.765625,3.1875,0.4375
1696252527268,-0.64453125,-0.023498535,0.8185425,1.453125,2.15625,-0.03125
1696252527309,-0.69311523,-0.009094238,0.8070679,2.546875,-1.140625,0.765625
1696252527348,-0.7685547,-0.012023926,0.8053589,1.1875,-3.359375,1.40625
1696252527387,-0.65063477,-0.050109863,0.81658936,-3.5,6.0625,1.265625
1696252527428,-0.55493164,-0.05230713,0.8649292,2.375,0.875,-2.4375
1696252527468,-0.66015625,-0.03692627,0.81781006,1.359375,-4.328125,-0.75
1696252527508,-0.72436523,-0.023010254,0.7975464,-2.328125,-2.640625,0.078125
1696252527549,-0.70288086,-0.018615723,0.8239136,-0.28125,1.53125,1.5625
1696252527590,-0.6677246,-0.013000488,0.8161011,0.625,-0.578125,1.65625
1696252527628,-0.6911621,-0.043518066,0.82733154,0.09375,-1.109375,0.84375
1696252527669,-0.6982422,-0.03668213,0.80926514,-0.578125,-2.0,-0.1875
1696252527708,-0.69018555,-0.035705566,0.80462646,-0.171875,-0.03125,-0.0625
1696252527748,-0.6567383,-0.034729004,0.8287964,-0.8125,-0.78125,0.109375
1696252527767,-0.6994629,-0.007385254,0.8234253,1.296875,-2.5625,0.53125
1696252527809,-0.6940918,-0.028381348,0.8156128,-0.796875,0.8125,1.296875
1696252527850,-0.68603516,-0.04425049,0.84198,2.65625,0.234375,2.453125
1696252527888,-0.6760254,-0.053771973,0.7875366,-0.234375,-1.25,1.359375
1696252527928,-0.7133789,-0.051574707,0.78826904,-1.953125,-1.40625,0.890625
1696252527969,-0.6677246,-0.023742676,0.8019409,-0.109375,0.671875,-0.0625
1696252528010,-0.69506836,-0.022277832,0.79681396,-0.953125,-1.59375,1.140625
1696252528049,-0.6623535,-0.034240723,0.8305054,1.578125,-0.59375,1.390625
1696252528089,-0.64624023,-0.027404785,0.8463745,0.90625,0.3125,-1.734375
1696252528128,-0.70214844,-0.03692627,0.8197632,1.125,-2.6875,-0.734375
1696252528167,-0.7043457,-0.054016113,0.79241943,-1.640625,-0.75,1.015625
1696252528208,-0.6899414,-0.04107666,0.8275757,0.671875,-0.125,0.484375
1696252528249,-0.671875,-0.034484863,0.82244873,-0.296875,1.359375,-0.140625
1696252528287,-0.71655273,-0.031555176,0.809021,0.328125,-2.703125,1.078125
1696252528329,-0.7067871,-0.042785645,0.8019409,-0.765625,0.125,0.359375
1696252528371,-0.6623535,-0.023254395,0.78045654,0.609375,0.953125,-1.046875
1696252528408,-0.6413574,-0.02935791,0.8414917,0.4375,0.15625,-0.609375
1696252528447,-0.67089844,-0.035217285,0.8383179,0.421875,-1.640625,0.21875
1696252528488,-0.7158203,-0.038635254,0.7926636,-0.90625,-2.546875,1.125
1696252528528,-0.6928711,-0.039367676,0.7926636,0.765625,-0.296875,0.390625
1696252528569,-0.6633301,-0.03765869,0.826355,0.21875,-0.75,-0.71875
1696252528608,-0.67285156,-0.040100098,0.82562256,-0.75,1.03125,-0.609375
1696252528647,-0.7011719,-0.028137207,0.8366089,2.640625,-0.546875,0.328125
1696252528689,-0.74365234,-0.04156494,0.7758179,-2.203125,-2.125,1.609375
1696252528729,-0.69384766,-0.050354004,0.79901123,0.734375,1.671875,0.375
1696252528771,-0.6335449,-0.03643799,0.8317261,2.15625,2.734375,-0.5625
1696252528810,-0.6911621,-0.031555176,0.81463623,-0.75,-0.03125,1.109375
1696252528849,-0.6989746,-0.040100098,0.82977295,-1.75,1.90625,1.25
1696252528888,-0.68359375,-0.06304932,0.899353,-7.875,9.765625,0.4375
1696252528927,-0.71191406,-0.033996582,0.96868896,-2.875,31.84375,2.328125
1696252528969,-0.6743164,-0.049865723,0.84490967,8.125,22.28125,5.59375
1696252529008,-0.6191406,0.0065307617,0.8336792,15.640625,18.40625,7.5625
1696252529070,-0.57299805,-0.04107666,0.8139038,9.90625,11.578125,9.421875
1696252529087,-0.5270996,-0.12945557,0.8786011,5.375,5.359375,4.375
1696252529129,-0.51904297,-0.12799072,0.85272217,-1.90625,-1.40625,-1.09375
1696252529147,-0.52368164,-0.058898926,0.84173584,4.265625,-10.203125,-4.9375
1696252529187,-0.6320801,-0.09283447,0.68548584,4.046875,-39.890625,-2.515625
1696252529228,-0.69628906,-0.09820557,0.9398804,-6.5625,-31.40625,-5.921875
1696252529268,-0.40600586,0.028747559,0.91937256,-3.75,7.21875,-2.921875
1696252529332,-0.6479492,-0.16046143,0.9279175,-5.515625,-10.609375,1.75
1696252529348,-0.9177246,-0.07989502,0.8029175,6.5625,-15.765625,4.0625
1696252529409,-0.8066406,-0.14727783,0.75897217,-7.59375,5.375,-3.25
1696252529449,-0.54174805,-0.058166504,0.8085327,-3.3125,8.0,-2.859375
1696252529467,-0.6098633,-0.034729004,0.84246826,0.171875,-0.65625,-0.171875
1696252529530,-0.70751953,-0.07159424,0.77215576,-2.1875,-9.875,0.375
1696252529567,-0.6906738,-0.06060791,0.8637085,-2.28125,0.796875,-1.953125
1696252529610,-0.6479492,-0.020568848,0.84417725,0.234375,1.859375,-0.90625
1696252529626,-0.673584,-0.08428955,0.8060913,-0.34375,-4.296875,1.140625
1696252529667,-0.65478516,-0.08721924,0.8239136,-1.0,0.46875,-0.46875
1696252529709,-0.6574707,-0.042785645,0.8312378,0.5625,-1.90625,-1.234375
1696252529769,-0.6503906,-0.034484863,0.8353882,-2.25,-0.78125,0.5625
1696252529809,-0.72265625,-0.062072754,0.81414795,0.125,-4.0,1.828125
1696252529826,-0.7236328,-0.077697754,0.74139404,-1.046875,-2.015625,0.734375
1696252529888,-0.67163086,-0.05987549,0.85736084,0.578125,3.765625,-2.328125
1696252529907,-0.6459961,-0.042297363,0.8722534,-0.5625,1.671875,-1.21875
1696252529947,-0.69628906,-0.05645752,0.789978,-2.03125,-4.171875,1.6875
1696252529988,-0.6711426,-0.045959473,0.79803467,0.5625,-1.078125,-0.84375
1696252530029,-0.6501465,-0.051574707,0.8439331,-1.921875,1.8125,-1.671875
1696252530067,-0.6508789,-0.027160645,0.8522339,-0.140625,0.046875,-0.359375
1696252530109,-0.7363281,-0.061340332,0.7514038,0.6875,-6.828125,2.5625
1696252530149,-0.6789551,-0.06427002,0.8307495,-2.375,2.140625,-1.03125
1696252530187,-0.64990234,-0.04083252,0.8554077,1.0625,2.984375,-1.453125
1696252530252,-0.7180176,-0.037902832,0.79608154,-0.875,-5.21875,1.5
1696252530287,-0.7385254,-0.051330566,0.8041382,-2.0625,-1.96875,-0.671875
1696252530308,-0.6125488,-0.02935791,0.84002686,0.359375,8.71875,-1.84375
1696252530371,-0.6274414,-0.038635254,0.89178467,0.625,-0.484375,0.59375
1696252530386,-0.7441406,-0.04888916,0.82806396,-2.953125,-3.921875,2.828125
1696252530408,-0.7363281,-0.07330322,0.72772217,-3.078125,-4.578125,0.09375
1696252530449,-0.5654297,-0.020568848,0.82073975,3.671875,7.953125,-3.671875
1696252530487,-0.61621094,-0.028869629,0.91326904,-0.171875,-5.296875,-1.921875
1696252530531,-0.7675781,-0.034729004,0.8121948,-4.734375,-5.96875,2.859375
1696252530568,-0.77612305,-0.036193848,0.7753296,-0.578125,-1.6875,1.359375
1696252530609,-0.6008301,-0.04449463,0.84246826,4.21875,7.953125,-2.5
1696252530649,-0.64624023,-0.054748535,0.8859253,-1.9375,-2.59375,-0.15625
1696252530689,-0.7426758,-0.020812988,0.8156128,-2.65625,0.3125,2.984375
1696252530730,-0.6921387,-0.041809082,0.71136475,-2.25,-1.640625,1.359375
1696252530771,-0.62475586,-0.016906738,0.855896,3.671875,5.46875,-0.578125
1696252530808,-0.6520996,-0.065979004,0.8678589,-0.3125,-4.015625,-0.578125
1696252530850,-0.7409668,-0.051818848,0.791687,-0.828125,-2.015625,3.0
1696252530890,-0.67407227,-0.0056762695,0.8109741,2.125,0.71875,1.75
1696252530931,-0.6418457,-0.043273926,0.8529663,1.09375,1.921875,-1.4375
1696252530980,-0.67456055,-0.06524658,0.8312378,-2.21875,-2.546875,-0.765625
1696252531008,-0.70654297,-0.03253174,0.80462646,0.828125,0.265625,1.15625
1696252531051,-0.6777344,-0.008605957,0.7946167,-0.015625,-0.703125,-1.25
1696252531090,-0.6538086,-0.03668213,0.83465576,0.890625,2.515625,-0.359375
1696252531130,-0.65966797,-0.057678223,0.84173584,0.5625,-0.875,1.75
1696252531168,-0.71533203,-0.054016113,0.76849365,-0.03125,-2.28125,1.890625
1696252531209,-0.66748047,-0.027160645,0.8414917,1.875,2.765625,-0.65625
1696252531249,-0.6520996,-0.043029785,0.84490967,0.578125,-0.796875,0.15625
1696252531293,-0.6948242,-0.04864502,0.83392334,-0.546875,-1.71875,2.015625
1696252531331,-0.7036133,-0.062805176,0.7662964,-1.265625,-2.5,-0.03125
1696252531368,-0.65234375,-0.04425049,0.83587646,1.484375,3.21875,-1.421875
1696252531410,-0.6538086,-0.04888916,0.8583374,0.265625,-0.84375,0.234375
1696252531452,-0.72387695,-0.053527832,0.8078003,-0.625,-2.625,1.640625
1696252531488,-0.71118164,-0.043762207,0.8007202,0.515625,-0.625,-0.890625
1696252531527,-0.6159668,-0.039611816,0.83465576,1.65625,2.59375,-2.328125
1696252531570,-0.62475586,-0.054504395,0.8915405,-1.953125,-1.734375,-0.234375
1696252531608,-0.77441406,-0.023010254,0.81585693,0.015625,-3.140625,3.46875
1696252531647,-0.7050781,-0.07696533,0.746521,-3.734375,-4.0,0.65625
1696252531688,-0.6269531,-0.028381348,0.83270264,1.953125,4.8125,-2.078125
1696252531707,-0.6491699,-0.044006348,0.8461304,-0.671875,-3.796875,-0.75
1696252531748,-0.73339844,-0.0178833,0.8500366,1.0,1.609375,1.1875
1696252531789,-0.7192383,-0.0647583,0.77679443,0.484375,-1.796875,2.328125
1696252531828,-0.61499023,-0.043273926,0.8373413,-1.078125,2.65625,-1.8125
1696252531890,-0.6633301,-0.061584473,0.89227295,-0.171875,-1.140625,0.15625
1696252531908,-0.7404785,-0.043029785,0.8185425,0.71875,0.859375,2.453125
1696252531950,-0.6604004,-0.050842285,0.7719116,-0.84375,-3.21875,0.859375
1696252531991,-0.6074219,-0.023986816,0.8275757,-0.046875,1.0,-2.1875
1696252532028,-0.6850586,-0.044006348,0.87127686,-3.1875,-4.4375,-1.546875
1696252532071,-0.76831055,-0.039611816,0.84295654,1.828125,2.5625,2.53125
1696252532132,-0.6687012,-0.0725708,0.7440796,-0.03125,-0.4375,2.1875
1696252532171,-0.6032715,-0.035461426,0.83636475,0.234375,-0.875,-2.1875
1696252532187,-0.7011719,-0.027893066,0.8414917,0.046875,-1.875,-2.046875
1696252532227,-0.71728516,-0.028381348,0.84832764,-0.734375,3.15625,1.578125
1696252532267,-0.66430664,-0.050842285,0.84954834,3.5625,5.484375,2.46875
1696252532329,-0.6220703,-0.07891846,0.77386475,-3.453125,-7.046875,0.046875
1696252532370,-0.68774414,-0.03741455,0.8187866,-2.203125,-3.640625,-1.71875
1696252532389,-0.71362305,-0.0134887695,0.8241577,0.5,1.859375,-1.703125
1696252532428,-0.6574707,-0.022277832,0.8463745,3.515625,4.5625,1.703125
1696252532490,-0.6503906,-0.07110596,0.826355,-1.921875,-0.8125,3.8125
1696252532527,-0.6777344,-0.06109619,0.77874756,-3.515625,-6.046875,-0.0625
1696252532547,-0.6984863,-0.01739502,0.8307495,2.140625,1.28125,-3.046875
1696252532607,-0.657959,-0.026672363,0.854187,0.734375,1.84375,-1.5625
1696252532628,-0.6479492,-0.043273926,0.8451538,2.0625,1.96875,2.71875
1696252532689,-0.6713867,-0.086242676,0.78289795,-3.328125,-6.15625,2.75
1696252532706,-0.7080078,-0.03692627,0.80584717,-1.046875,-2.125,-1.78125
1696252532768,-0.67407227,-0.0134887695,0.82977295,1.84375,2.390625,-2.484375
1696252532787,-0.64746094,-0.028625488,0.87786865,0.8125,1.546875,0.875
1696252532830,-0.69384766,-0.062316895,0.8407593,-0.65625,0.765625,3.375
1696252532867,-0.65771484,-0.06744385,0.777771,-3.0625,-5.359375,-0.03125
1696252532910,-0.6933594,-0.027648926,0.8148804,1.109375,-0.921875,-2.953125
1696252532949,-0.6616211,-0.010314941,0.83514404,0.28125,-0.234375,-2.15625
1696252533010,-0.70947266,-0.0413208,0.85809326,-0.296875,3.609375,2.59375
1696252533014,-0.68115234,-0.0713501,0.86273193,-0.015625,0.015625,3.390625
1696252533048,-0.6779785,-0.08258057,0.75775146,-5.140625,-3.390625,-0.890625
1696252533131,-0.6894531,-0.0032348633,0.80462646,1.859375,1.828125,-2.546875
1696252533134,-0.64746094,-0.0051879883,0.85736084,1.671875,1.546875,-2.0625
1696252533169,-0.6621094,-0.0256958,0.8200073,0.921875,0.328125,2.765625
1696252533208,-0.6594238,-0.07550049,0.8114624,-1.875,-2.578125,2.96875
1696252533249,-0.7067871,-0.050354004,0.82196045,-1.0625,-2.3125,-0.40625
1696252533287,-0.6809082,-0.017150879,0.8373413,1.84375,2.234375,-2.0625
1696252533331,-0.6179199,-0.042053223,0.82928467,0.765625,0.5,0.046875
1696252533371,-0.6672363,-0.04815674,0.87615967,0.984375,0.578125,3.28125
1696252533410,-0.6960449,-0.070129395,0.9423218,2.765625,1.125,5.5
1696252533449,-0.7211914,-0.022766113,0.9164429,5.421875,10.640625,3.59375
1696252533489,-0.77905273,-0.02911377,0.7819214,-1.421875,18.765625,4.46875
1696252533528,-0.6220703,-0.10357666,0.7218628,3.515625,22.828125,6.09375
1696252533568,-0.5109863,-0.12652588,0.81658936,8.140625,14.25,8.0
1696252533608,-0.51953125,-0.13214111,0.8695679,8.921875,0.0,0.953125
1696252533649,-0.6381836,-0.10357666,0.8348999,-1.015625,-8.65625,-7.328125
1696252533688,-0.60253906,1.8310547E-4,0.7301636,-3.953125,-25.3125,-8.359375
1696252533727,-0.6826172,-0.047668457,0.94647217,-3.671875,-27.140625,-4.15625
1696252533767,-0.3996582,-0.030822754,0.9154663,-8.546875,11.1875,-5.828125
1696252533810,-0.64160156,-0.12579346,0.92962646,-6.109375,-17.328125,3.3125
1696252533849,-0.8894043,-0.028137207,0.76971436,6.375,-5.03125,7.203125
1696252533889,-0.6850586,-0.07305908,0.78900146,-6.46875,3.1875,-3.453125
1696252533928,-0.5559082,-0.077697754,0.8746948,3.96875,2.390625,-2.96875
1696252533968,-0.7121582,-0.097229004,0.7831421,-0.828125,-11.9375,-0.671875
1696252534007,-0.7661133,-0.03643799,0.826355,0.046875,-0.640625,-1.515625
1696252534047,-0.6789551,-0.024230957,0.8773804,1.1875,4.453125,0.140625
1696252534089,-0.6098633,-0.047424316,0.81243896,-1.484375,-2.546875,0.890625
1696252534127,-0.65405273,-0.077697754,0.8278198,-0.921875,-1.921875,0.3125
1696252534168,-0.671875,-0.057434082,0.795105,0.546875,-1.140625,-0.28125
1696252534211,-0.65478516,-0.019592285,0.83514404,-0.25,-1.6875,0.296875
1696252534248,-0.6821289,-0.046447754,0.8317261,-1.109375,-2.40625,0.71875
1696252534289,-0.7067871,-0.07989502,0.8004761,-1.0,-1.984375,0.546875
1696252534307,-0.69970703,-0.05328369,0.821228,1.015625,0.40625,-1.328125
1696252534348,-0.67871094,-0.046691895,0.81658936,0.21875,-0.546875,-1.46875
1696252534391,-0.68115234,-0.04425049,0.8197632,-0.5,0.421875,0.375
1696252534428,-0.67456055,-0.049621582,0.8200073,-0.625,0.90625,1.125
1696252534468,-0.671875,-0.05621338,0.8226929,0.359375,-0.578125,-1.296875
1696252534509,-0.6755371,-0.054992676,0.822937,-0.546875,-0.453125,-0.625
1696252534548,-0.6911621,-0.04522705,0.8336792,0.890625,1.0625,1.0
1696252534609,-0.6682129,-0.051574707,0.8222046,-0.03125,0.15625,0.90625
1696252534627,-0.66381836,-0.057922363,0.8131714,0.5,-1.890625,-0.90625
1696252534670,-0.670166,-0.050842285,0.8395386,-1.421875,0.734375,-0.46875
1696252534708,-0.68530273,-0.030822754,0.7999878,0.0625,-0.25,0.984375
1696252534770,-0.67749023,-0.04815674,0.80755615,0.203125,0.359375,0.4375
1696252534808,-0.6652832,-0.0569458,0.83929443,0.171875,-0.59375,-0.796875
1696252534828,-0.70410156,-0.055236816,0.8239136,-1.296875,0.203125,0.015625
1696252534868,-0.6804199,-0.027648926,0.8966675,3.671875,6.609375,0.46875
1696252534909,-0.68652344,-0.09210205,0.9320679,3.359375,14.328125,3.46875
1696252534949,-0.6335449,-0.05645752,0.85321045,-0.109375,15.125,3.25
1696252534990,-0.6640625,-0.046691895,0.809021,4.84375,13.609375,7.078125
1696252535031,-0.5961914,-0.08502197,0.8019409,6.046875,12.46875,6.015625
1696252535067,-0.5673828,-0.101867676,0.8209839,5.453125,3.796875,2.609375
1696252535109,-0.5866699,-0.12432861,0.86468506,1.984375,-5.234375,-1.140625
1696252535170,-0.5949707,-0.09039307,0.88201904,-1.734375,-7.84375,-5.6875
1696252535187,-0.59521484,-0.034729004,0.8468628,-4.109375,-12.375,-5.296875
1696252535229,-0.6772461,-0.042297363,0.77801514,-4.921875,-19.640625,0.671875
1696252535290,-0.6796875,-0.0569458,0.83099365,-5.46875,-22.765625,-0.609375
1696252535307,-0.595459,-0.0134887695,0.8566284,0.71875,-1.25,-1.453125
1696252535350,-0.6057129,-0.12823486,0.8590698,-2.640625,-11.09375,-3.828125
1696252535389,-0.6816406,-0.07086182,0.8290405,-3.8125,-1.859375,-5.109375
1696252535428,-0.7553711,-0.034973145,0.82318115,-6.15625,-5.078125,-1.140625
1696252535469,-0.73535156,-0.019836426,0.789978,-2.921875,1.734375,0.078125
1696252535507,-0.6767578,-0.042785645,0.793396,-3.4375,-2.4375,-1.09375
1696252535547,-0.68969727,-0.059631348,0.84002686,0.1875,-4.359375,-2.03125
1696252535588,-0.7080078,-0.015197754,0.8348999,-0.234375,1.8125,-1.46875
1696252535628,-0.73950195,-0.023254395,0.795105,-0.03125,0.515625,1.046875
1696252535647,-0.68115234,-0.013000488,0.8161011,0.6875,-2.328125,-0.40625
1696252535689,-0.6748047,-0.05718994,0.8497925,-0.8125,3.46875,-1.703125
1696252535730,-0.6870117,-0.04425049,0.79681396,1.0625,1.140625,-0.546875
1696252535768,-0.6916504,-0.043029785,0.795105,-0.390625,-0.9375,2.140625
1696252535809,-0.63623047,4.272461E-4,0.8180542,1.21875,-0.5,-0.8125
1696252535847,-0.7043457,-0.06524658,0.8253784,0.484375,-3.4375,0.140625
1696252535888,-0.689209,-0.04425049,0.8439331,-1.0625,2.40625,-0.875
1696252535929,-0.7368164,-0.022521973,0.77215576,1.40625,-1.71875,1.046875
1696252535967,-0.68310547,-0.02960205,0.8012085,0.078125,-0.8125,0.40625
1696252536011,-0.66503906,-0.038635254,0.8434448,0.421875,1.828125,0.09375
1696252536046,-0.68310547,-0.039367676,0.8139038,-0.703125,0.5625,0.1875
1696252536091,-0.72998047,-0.024719238,0.79901123,1.078125,2.515625,0.359375
1696252536134,-0.6713867,-0.04815674,0.8121948,0.3125,1.890625,-0.15625
1696252536168,-0.60913086,-0.05279541,0.8517456,0.5,5.21875,0.109375
1696252536209,-0.65356445,-0.03717041,0.83807373,2.109375,-1.75,0.9375
1696252536249,-0.69799805,-0.02960205,0.78167725,-1.03125,-5.40625,0.21875
1696252536291,-0.6791992,-0.04522705,0.8444214,2.015625,-0.84375,-0.421875
1696252536330,-0.6530762,-0.045715332,0.8383179,-2.140625,1.890625,-0.140625
1696252536369,-0.7348633,-0.03302002,0.7975464,1.015625,-1.171875,1.1875
1696252536411,-0.69018555,-0.050109863,0.8109741,-1.90625,4.3125,0.203125
1696252536450,-0.64038086,-0.03375244,0.8275757,-0.796875,0.25,-1.078125
1696252536490,-0.6621094,-0.031799316,0.8427124,-0.3125,-1.078125,-1.5
1696252536527,-0.6999512,-0.034484863,0.8200073,-0.09375,-2.0,0.171875
1696252536570,-0.689209,-0.031311035,0.8336792,2.28125,-2.078125,0.96875
1696252536608,-0.59887695,-0.05279541,0.8278198,-3.609375,5.328125,-0.375
1696252536647,-0.6508789,0.0036010742,0.8563843,0.4375,0.859375,0.625
1696252536689,-0.73291016,-0.010803223,0.77508545,3.015625,-0.75,3.34375
1696252536729,-0.6699219,-0.054504395,0.8305054,1.703125,1.09375,0.40625
1696252536768,-0.6279297,-0.07550049,0.8493042,0.078125,0.984375,-0.09375
1696252536808,-0.69506836,-0.05279541,0.82562256,-1.046875,-4.65625,0.1875
1696252536848,-0.7067871,-0.035461426,0.7994995,0.125,-0.359375,-0.578125
1696252536888,-0.6430664,-0.026916504,0.838562,-0.15625,0.640625,-0.453125
1696252536928,-0.6491699,-0.04058838,0.8432007,0.0625,0.578125,0.953125
1696252536948,-0.6530762,-0.044006348,0.82733154,0.5,-2.234375,1.1875
1696252537011,-0.67211914,-0.030578613,0.8329468,-0.4375,-1.921875,-0.078125
1696252537029,-0.6906738,-0.039367676,0.82806396,0.1875,-2.328125,-0.609375
1696252537068,-0.69677734,-0.046936035,0.8283081,0.0625,0.453125,0.890625
1696252537109,-0.68188477,-0.04888916,0.8168335,0.890625,-0.125,1.53125
1696252537148,-0.6520996,-0.024719238,0.8085327,1.25,-2.328125,-0.765625
1696252537190,-0.6635742,-0.061828613,0.83587646,0.609375,-2.21875,-0.265625
1696252537230,-0.66796875,-0.03253174,0.83758545,-1.296875,2.359375,0.546875
1696252537289,-0.7163086,-0.028137207,0.81121826,0.53125,-0.84375,1.484375
1696252537307,-0.66552734,-0.05230713,0.81414795,0.046875,-0.203125,-0.53125
1696252537351,-0.640625,-0.06793213,0.84906006,-1.21875,1.265625,-0.46875
1696252537410,-0.67333984,-0.030334473,0.8468628,1.28125,0.3125,0.40625
1696252537429,-0.6801758,-0.059387207,0.918396,-4.671875,13.5625,1.484375
1696252537469,-0.6796875,0.020202637,0.93133545,1.09375,15.375,4.109375
1696252537508,-0.70532227,-0.066223145,0.82196045,7.09375,8.796875,9.453125
1696252537570,-0.61572266,-0.116760254,0.7645874,11.859375,13.828125,9.671875
1696252537587,-0.50341797,-0.11773682,0.8666382,13.90625,20.46875,6.0625
1696252537649,-0.4765625,-0.116760254,0.94158936,15.453125,7.671875,-0.0625
1696252537669,-0.7050781,-0.18829346,0.84710693,3.546875,-5.21875,2.0625
1696252537711,-0.7397461,-0.089904785,0.8251343,-2.609375,3.984375,4.84375
1696252537752,-0.58984375,-0.0095825195,0.8690796,0.0,10.4375,1.46875
1696252537789,-0.4453125,-0.0791626,0.9003296,3.21875,5.34375,-2.40625
1696252537849,-0.43432617,-0.17608643,0.8912964,-8.015625,-12.234375,-2.53125
1696252537868,-0.53344727,-0.15167236,0.7875366,-28.515625,-38.25,-3.203125
1696252537932,-0.657959,0.014831543,0.87420654,-6.984375,-29.5625,-6.796875
1696252537947,-0.75341797,-0.055480957,0.84417725,-0.9375,-16.875,-1.203125
1696252537991,-0.6154785,-0.08648682,0.78411865,-5.96875,-11.53125,-0.171875
1696252538028,-0.62158203,-0.07354736,0.9418335,-0.96875,-5.5,-1.1875
1696252538091,-0.65771484,-0.034484863,0.88323975,5.25,2.828125,-4.203125
1696252538107,-0.75756836,-0.0635376,0.80999756,-3.0625,-8.390625,0.265625
1696252538169,-0.73339844,-0.07208252,0.81365967,0.078125,1.375,3.328125
1696252538209,-0.68237305,-0.08673096,0.7235718,0.8125,-5.40625,-2.15625
1696252538249,-0.64868164,-0.040100098,0.84295654,-3.203125,7.453125,-5.0625
1696252538266,-0.7211914,-0.050598145,0.83514404,-1.59375,-1.46875,0.375
1696252538287,-0.7175293,-0.02935791,0.7963257,-0.296875,-1.046875,4.125
1696252538328,-0.64941406,-0.031066895,0.8539429,0.46875,4.4375,0.890625
1696252538368,-0.66308594,-0.08892822,0.9706421,7.84375,5.640625,1.203125
1696252538407,-0.73876953,-0.13287354,0.95062256,4.890625,20.90625,4.390625
1696252538449,-0.64501953,-0.07525635,0.71673584,-4.78125,22.265625,-1.234375
1696252538490,-0.57910156,0.043640137,0.7692261,-0.734375,8.125,-1.90625
1696252538530,-0.6052246,-0.003967285,0.7826538,5.0625,-8.28125,1.015625
1696252538568,-0.64282227,-0.11920166,0.7626343,5.578125,-11.6875,2.515625
1696252538609,-0.6452637,-0.11480713,0.8600464,5.0,-9.390625,2.578125
1696252538648,-0.63671875,-0.06109619,0.838562,-6.28125,-16.640625,1.875
1696252538689,-0.5830078,-0.05303955,0.82855225,-1.484375,-15.625,-2.5
1696252538728,-0.7084961,-0.11578369,0.9076538,-0.1875,-6.34375,-6.140625
1696252538770,-0.60253906,-0.04449463,0.81365967,-9.484375,0.890625,-4.421875
1696252538810,-0.75878906,0.009460449,0.8624878,-0.21875,-2.03125,1.859375
1696252538849,-0.7963867,-0.077941895,0.7706909,2.375,1.65625,4.640625
1696252538889,-0.670166,-0.13067627,0.76190186,-3.15625,2.328125,-1.078125
1696252538928,-0.6135254,-0.07696533,0.8878784,3.25,3.71875,-3.53125
1696252538970,-0.70825195,-0.038635254,0.7994995,-0.078125,-7.40625,0.03125
1696252539009,-0.72802734,-6.1035156E-5,0.7435913,-1.53125,-4.984375,0.59375
1696252539048,-0.6418457,-0.010314941,0.90545654,3.296875,9.125,-1.03125
1696252539088,-0.6298828,-0.08502197,0.84539795,0.046875,0.015625,-0.109375
1696252539130,-0.71435547,-0.11480713,0.77752686,-1.4375,-3.84375,2.5625
1696252539169,-0.65625,-0.059631348,0.8344116,0.40625,0.3125,-3.21875
1696252539209,-0.64086914,-0.023986816,0.84661865,-0.078125,2.5,-0.828125
1696252539248,-0.74121094,-0.058410645,0.7821655,-0.984375,-5.75,4.328125
1696252539292,-0.73046875,-0.07281494,0.7404175,-0.140625,-5.765625,1.03125
1696252539330,-0.640625,-0.04937744,0.8624878,2.46875,4.796875,-2.984375
1696252539370,-0.6359863,-0.042053223,0.868103,-1.296875,1.6875,-1.703125
1696252539410,-0.7458496,-0.06451416,0.7716675,-1.078125,-5.78125,3.0625
1696252539450,-0.68652344,-0.058410645,0.78900146,0.875,0.796875,0.25
1696252539487,-0.64208984,-0.051330566,0.8617554,2.28125,4.96875,-0.34375
1696252539530,-0.67871094,-0.06695557,0.79852295,0.703125,-3.25,1.125
1696252539569,-0.7158203,-0.07965088,0.77874756,3.1875,-3.5,2.71875
1696252539588,-0.7404785,-0.062316895,0.82611084,2.484375,-4.421875,1.046875
1696252539649,-0.59936523,-0.05230713,0.8312378,-4.265625,10.78125,-2.125
1696252539690,-0.6398926,-0.06109619,0.89764404,-2.625,-1.609375,-3.234375
1696252539708,-0.8071289,-0.06011963,0.7550659,1.859375,-4.546875,3.984375
1696252539768,-0.65527344,-0.06817627,0.7797241,-2.875,2.09375,-0.609375
1696252539788,-0.60839844,-0.043273926,0.8661499,1.640625,5.046875,-1.25
1696252539829,-0.68725586,-0.06402588,0.82318115,-2.9375,-7.28125,-0.25
1696252539869,-0.7446289,-0.07159424,0.77142334,-0.5625,-2.84375,1.625
1696252539909,-0.6809082,-0.031066895,0.84002686,1.796875,7.0625,0.640625
1696252539948,-0.6237793,-0.061584473,0.87615967,1.5625,4.5625,1.796875
1696252539989,-0.68652344,-0.10821533,0.8114624,-0.671875,-4.984375,3.46875
1696252540032,-0.6743164,-0.07720947,0.7706909,-0.59375,-4.5625,-0.828125
1696252540069,-0.6706543,-0.010803223,0.8414917,-0.203125,3.4375,-1.6875
1696252540133,-0.67456055,-0.038879395,0.83587646,0.53125,-1.890625,0.9375
1696252540147,-0.7067871,-0.081604004,0.7802124,-1.4375,-4.96875,1.078125
1696252540189,-0.7126465,-0.06744385,0.7975464,1.359375,0.171875,-0.15625
1696252540229,-0.66259766,-0.058654785,0.838562,-1.046875,2.453125,-1.234375
1696252540292,-0.642334,-0.07208252,0.84173584,-1.328125,-0.9375,-0.4375
1696252540307,-0.6972656,-0.07208252,0.8029175,-0.765625,-4.390625,0.9375
1696252540369,-0.6982422,-0.043029785,0.81170654,-0.265625,-0.0625,-0.953125
1696252540388,-0.65234375,-0.04498291,0.83343506,0.78125,2.734375,-1.03125
1696252540429,-0.638916,-0.06939697,0.8200073,1.0625,-3.078125,-0.78125
1696252540468,-0.6828613,-0.06085205,0.8048706,0.078125,-3.109375,-0.328125
1696252540529,-0.7331543,-0.054260254,0.7658081,-0.078125,-3.09375,0.875
1696252540547,-0.7272949,-0.058654785,0.8143921,-0.140625,-0.265625,0.890625
1696252540590,-0.69677734,-0.062561035,0.8473511,1.828125,3.546875,1.03125
1696252540629,-0.67700195,-0.07501221,0.79559326,1.125,0.71875,0.28125
1696252540668,-0.6467285,-0.059387207,0.8143921,-0.390625,0.6875,-0.34375
1696252540728,-0.6645508,-0.054260254,0.79681396,-0.390625,-3.0625,-0.25
1696252540749,-0.69018555,-0.06085205,0.81536865,0.0,-1.6875,0.09375
1696252540809,-0.6940918,-0.055236816,0.8451538,1.390625,0.5,-0.140625
1696252540827,-0.67749023,-0.074279785,0.8031616,-0.5,-1.28125,0.234375
1696252540872,-0.6647949,-0.055236816,0.8004761,0.578125,-3.453125,-1.015625
1696252540887,-0.70336914,-0.055725098,0.81243896,-0.4375,-0.09375,-0.203125
1696252540929,-0.7414551,-0.057434082,0.8070679,-0.6875,-0.59375,0.546875
1696252540968,-0.7133789,-0.06304932,0.80096436,-0.421875,1.0,0.703125
1696252541009,-0.64282227,-0.062561035,0.82025146,1.015625,1.53125,-0.109375
1696252541049,-0.65185547,-0.055725098,0.83270264,-0.703125,-0.390625,-0.921875
1696252541089,-0.7080078,-0.054016113,0.8139038,-0.703125,-2.09375,0.796875
1696252541131,-0.7019043,-0.053771973,0.78704834,-1.359375,-0.359375,0.75
1696252541170,-0.66503906,-0.054504395,0.8265991,2.78125,1.109375,-0.359375
1696252541208,-0.68359375,-0.08111572,0.8148804,-0.265625,-2.4375,0.03125
1696252541248,-0.70947266,-0.06842041,0.79852295,0.640625,-1.859375,1.25
1696252541288,-0.6821289,-0.059143066,0.80877686,0.65625,0.765625,0.03125
1696252541329,-0.671875,-0.04449463,0.8048706,2.5625,-2.28125,-0.390625
1696252541368,-0.6855469,-0.08282471,0.8175659,-0.484375,-1.796875,0.359375
1696252541407,-0.71362305,-0.057434082,0.81170654,0.234375,-0.59375,0.5
1696252541451,-0.7023926,-0.05987549,0.78704834,-0.5625,-0.859375,0.734375
1696252541490,-0.6723633,-0.06427002,0.8024292,0.875,0.140625,0.109375
1696252541531,-0.6828613,-0.06744385,0.81903076,0.765625,-1.453125,-0.09375
1696252541568,-0.7133789,-0.06524658,0.7880249,0.578125,-2.265625,0.828125
1696252541608,-0.70336914,-0.06427002,0.7992554,-1.5625,1.875,1.8125
1696252541647,-0.66967773,-0.06573486,0.8251343,-0.296875,1.53125,0.359375
1696252541690,-0.68115234,-0.081848145,0.8114624,1.234375,-0.5625,-1.078125
1696252541735,-0.6713867,-0.069885254,0.7958374,-2.328125,-3.046875,-1.484375
1696252541770,-0.6958008,-0.030822754,0.8031616,-0.578125,0.6875,0.765625
1696252541808,-0.7036133,-0.058166504,0.81781006,0.15625,-1.1875,0.046875
1696252541848,-0.69091797,-0.081604004,0.8217163,-1.53125,2.578125,-1.0
1696252541889,-0.6694336,-0.074035645,0.82684326,-5.046875,1.078125,0.203125
1696252541929,-0.7375488,-0.03643799,0.8878784,-2.875,8.421875,0.03125
1696252541967,-0.751709,-0.05670166,0.87054443,3.015625,16.0,2.9375
1696252542006,-0.65283203,-0.06011963,0.8319702,4.171875,16.296875,5.75
1696252542047,-0.6152344,-0.039611816,0.83807373,9.609375,18.609375,8.1875
1696252542086,-0.5769043,-0.09674072,0.8151245,7.046875,11.390625,6.078125
1696252542128,-0.60595703,-0.109436035,0.86468506,1.921875,5.71875,3.328125
1696252542189,-0.6015625,-0.116760254,0.901062,3.421875,4.953125,1.5625
1696252542206,-0.5617676,-0.12310791,0.81585693,-0.515625,-1.671875,-0.25
1696252542249,-0.5551758,-0.073791504,0.8361206,-1.21875,-8.875,-2.546875
1696252542268,-0.5974121,-0.05230713,0.7680054,-2.59375,-19.5625,-3.734375
1696252542310,-0.69311523,-0.11016846,0.8251343,-2.5,-30.96875,-3.265625
1696252542348,-0.5708008,-0.04034424,0.9039917,-4.203125,-4.65625,-1.78125
1696252542389,-0.51831055,-0.10870361,0.87713623,-4.5625,-11.296875,-1.90625
1696252542430,-0.8310547,-0.08428955,0.8344116,-1.890625,-7.625,-3.125
1696252542471,-0.78125,-0.074523926,0.82928467,-0.328125,-5.609375,-1.96875
1696252542532,-0.7331543,-0.077941895,0.76239014,-3.71875,1.671875,1.3125
1696252542547,-0.64990234,-0.07989502,0.8036499,-3.390625,4.296875,-1.546875
1696252542609,-0.6213379,-0.023010254,0.8600464,-1.90625,0.625,-6.28125
1696252542628,-0.6413574,-0.04522705,0.87298584,-3.875,-2.390625,-2.65625
1696252542671,-0.7055664,-0.07476807,0.8788452,-3.46875,10.515625,2.96875
1696252542709,-0.6870117,-0.085754395,0.8859253,-4.171875,16.171875,2.3125
1696252542749,-0.734375,-0.055480957,0.80926514,0.34375,9.046875,3.828125
1696252542788,-0.66430664,-0.035949707,0.76068115,7.90625,2.0625,5.953125
1696252542829,-0.6123047,-0.032287598,0.8143921,7.109375,2.609375,3.328125
1696252542888,-0.59594727,-0.0803833,0.7982788,3.1875,-1.625,-1.21875
1696252542911,-0.5822754,-0.04156494,0.7572632,2.859375,-20.3125,-6.140625
1696252542949,-0.69506836,-0.06036377,0.8065796,1.453125,-29.21875,-2.921875
1696252542989,-0.65722656,-0.0635376,0.85491943,-3.453125,-3.015625,3.171875
1696252543030,-0.69970703,-0.07574463,0.8859253,3.09375,0.15625,1.765625
1696252543068,-0.7077637,-0.109191895,0.8278198,-4.53125,-1.59375,-4.75
1696252543109,-0.69970703,-0.066711426,0.80999756,-2.484375,-5.328125,-6.65625
1696252543148,-0.7114258,-0.031799316,0.7770386,-3.90625,0.359375,-0.578125
1696252543192,-0.72265625,0.0060424805,0.8019409,-1.53125,-5.3125,-1.828125
1696252543229,-0.68408203,-0.05621338,0.8226929,-0.71875,-1.71875,-5.453125
1696252543268,-0.71899414,-0.059631348,0.8060913,-2.484375,-1.890625,-0.09375
1696252543308,-0.73706055,-0.031799316,0.7687378,1.03125,-0.8125,2.6875
1696252543369,-0.6984863,-0.05670166,0.7494507,-1.4375,-2.359375,0.703125
1696252543388,-0.67456055,-0.046691895,0.83709717,0.96875,0.53125,-2.078125
1696252543429,-0.73950195,-0.023986816,0.7880249,0.0,0.359375,-0.015625
1696252543489,-0.7470703,-0.027648926,0.76898193,1.328125,-2.078125,1.265625
1696252543507,-0.67626953,-0.03326416,0.7977905,1.015625,0.484375,-1.734375
1696252543528,-0.70288086,-0.066711426,0.7992554,-1.8125,-0.25,-0.1875
1696252543571,-0.7216797,-0.028381348,0.7904663,1.15625,0.859375,0.09375
1696252543610,-0.7272949,-0.038391113,0.7597046,-2.65625,-1.890625,0.734375
1696252543650,-0.6567383,0.006286621,0.8156128,-0.015625,0.546875,-1.375
1696252543690,-0.7265625,-0.061340332,0.80633545,1.390625,-1.3125,0.515625
1696252543729,-0.75756836,-0.06939697,0.78338623,-0.859375,-0.46875,1.171875
1696252543767,-0.72021484,-0.04107666,0.7692261,-0.734375,-1.078125,0.75
1696252543808,-0.689209,-0.013977051,0.79608154,0.703125,0.625,-0.671875
1696252543850,-0.72875977,-0.03692627,0.78656006,-1.09375,-1.109375,0.796875
1696252543888,-0.76049805,-0.058898926,0.79119873,-0.640625,0.21875,1.53125
1696252543928,-0.7297363,-0.02911377,0.80218506,0.109375,3.171875,1.09375
1696252543969,-0.701416,-0.02154541,0.8395386,3.875,5.375,1.1875
1696252544007,-0.66430664,-0.06842041,0.9406128,5.53125,19.6875,2.84375
1696252544049,-0.6767578,-0.08428955,0.8463745,6.109375,21.703125,6.9375
1696252544088,-0.6882324,-0.093566895,0.777771,2.984375,13.640625,8.75
1696252544128,-0.6437988,-0.08770752,0.7938843,3.21875,12.203125,5.09375
1696252544173,-0.60253906,-0.0725708,0.79437256,1.359375,2.40625,0.34375
1696252544210,-0.5830078,-0.053527832,0.79486084,-0.15625,-2.96875,-2.859375
1696252544249,-0.59277344,-0.042297363,0.72283936,-6.015625,-12.140625,-1.875
1696252544290,-0.7553711,-0.06744385,0.71014404,-2.734375,-42.109375,1.84375
1696252544330,-0.53271484,-0.038391113,1.0263062,10.34375,2.015625,-4.25
1696252544369,-0.6008301,-0.116760254,0.90789795,-8.5,-8.640625,-5.0625
1696252544410,-0.8063965,-0.022521973,0.8043823,-8.0625,-8.921875,2.59375
1696252544448,-0.7458496,-0.047668457,0.6039429,6.015625,-5.875,0.515625
1696252544492,-0.59716797,-0.074523926,0.840271,-4.3125,2.625,-4.109375
1696252544530,-0.6904297,-0.066711426,0.899353,-3.5625,0.375,-1.96875
1696252544569,-0.7885742,-0.028381348,0.7340698,1.765625,-7.984375,2.921875
1696252544611,-0.7409668,-0.074279785,0.7123413,-3.4375,-5.234375,-0.359375
1696252544650,-0.63720703,-0.0076293945,0.8617554,-0.234375,10.953125,-2.515625
1696252544688,-0.68310547,-0.028381348,0.8397827,-0.84375,-4.296875,1.140625
1696252544729,-0.7805176,-0.08428955,0.68426514,-1.828125,-7.09375,2.453125
1696252544770,-0.6484375,-0.06329346,0.8226929,-0.640625,7.0,-3.75
1696252544808,-0.6489258,0.016296387,0.8612671,1.40625,1.703125,-1.09375
1696252544829,-0.7531738,-0.0335083,0.78826904,-1.78125,-4.875,2.671875
1696252544870,-0.73583984,-0.070373535,0.7218628,-1.578125,-3.96875,0.125
1696252544910,-0.6567383,-0.014953613,0.83026123,2.796875,9.765625,-2.296875
1696252544951,-0.7038574,-0.0020141602,0.8739624,-1.734375,-4.5,-0.671875
1696252544989,-0.75512695,-0.066711426,0.7506714,-1.46875,-2.09375,4.390625
1696252545028,-0.6923828,-0.045959473,0.75823975,2.28125,0.890625,-0.6875
1696252545069,-0.6347656,-0.014953613,0.8600464,1.40625,5.59375,-3.5625
1696252545109,-0.7216797,-0.028869629,0.85614014,-2.65625,-4.84375,0.125
1696252545169,-0.7290039,-0.05255127,0.70648193,-0.921875,-3.84375,4.125
1696252545188,-0.67089844,-0.016174316,0.7860718,3.28125,3.078125,-2.4375
1696252545229,-0.63720703,-0.04107666,0.88079834,-4.5,0.4375,-3.515625
1696252545289,-0.7595215,-0.018859863,0.8463745,0.0625,-3.703125,2.78125
1696252545308,-0.7597656,-0.04034424,0.6815796,0.609375,-1.59375,5.078125
1696252545349,-0.6479492,-0.04083252,0.79241943,0.5,4.078125,-2.84375
1696252545389,-0.63793945,-0.02911377,0.8695679,0.71875,2.28125,-2.9375
1696252545429,-0.767334,-0.03277588,0.7880249,-1.078125,-5.71875,2.484375
1696252545470,-0.7282715,-0.031066895,0.7609253,-0.359375,0.921875,1.5
1696252545508,-0.6726074,-0.0095825195,0.8048706,4.78125,2.78125,-1.65625
1696252545549,-0.67285156,-0.057922363,0.83221436,-2.171875,-2.671875,-0.828125
1696252545589,-0.7355957,-0.044006348,0.8065796,0.984375,-0.6875,3.015625
1696252545648,-0.7348633,-0.028137207,0.7843628,0.296875,4.390625,3.5
1696252545668,-0.67456055,-0.005432129,0.84124756,2.046875,3.390625,2.75
1696252545709,-0.63671875,-0.07110596,0.83099365,1.578125,0.296875,0.921875
1696252545750,-0.6882324,-0.07550049,0.8500366,3.09375,1.65625,-1.453125
1696252545789,-0.7114258,-0.051818848,0.7506714,-3.796875,0.796875,-0.546875
1696252545832,-0.6833496,0.007751465,0.7941284,-2.671875,-0.640625,-3.015625
1696252545891,-0.7182617,-0.04058838,0.8366089,3.96875,8.59375,-1.0625
1696252545907,-0.6730957,-0.08428955,0.89764404,12.78125,12.515625,4.125
1696252545947,-0.72314453,-0.08648682,0.8305054,8.8125,15.890625,11.34375
1696252545988,-0.69018555,-0.08306885,0.83221436,13.34375,15.828125,10.453125
1696252546049,-0.5966797,-0.11090088,0.855896,9.0,9.96875,1.234375
1696252546068,-0.5065918,-0.13165283,0.8217163,3.671875,1.21875,-3.265625
1696252546132,-0.51953125,-0.09503174,0.821228,-4.4375,-8.25,-2.671875
1696252546137,-0.6154785,-0.06939697,0.7601929,-8.0,-22.078125,0.5625
1696252546171,-0.82006836,-0.17388916,0.7147827,-12.59375,-42.0625,0.171875
1696252546249,-0.60961914,0.058532715,0.8563843,-6.765625,15.671875,-12.328125
1696252546251,-0.59716797,-0.13360596,0.92523193,-9.734375,-11.921875,-2.59375
1696252546287,-0.8210449,-0.06719971,0.8563843,1.0,-7.09375,6.859375
1696252546329,-0.7805176,-0.1687622,0.6635132,-1.53125,-7.9375,-1.53125
1696252546370,-0.5983887,-0.061340332,0.8583374,-5.078125,7.765625,-7.921875
1696252546410,-0.65527344,-0.0012817383,0.8727417,-0.078125,-1.515625,-1.421875
1696252546448,-0.7832031,-0.011047363,0.7172241,0.15625,-8.34375,4.265625
1696252546491,-0.7314453,-0.04449463,0.8192749,-4.015625,6.671875,-1.859375
1696252546528,-0.61572266,-0.022033691,0.84783936,5.671875,5.28125,-0.921875
1696252546569,-0.7077637,-0.10455322,0.81658936,-1.828125,-6.40625,0.984375
1696252546611,-0.71313477,-0.082092285,0.7868042,-1.59375,-2.890625,0.078125
1696252546649,-0.6599121,0.004333496,0.8378296,4.375,6.1875,-1.078125
1696252546690,-0.6706543,-0.042541504,0.85076904,1.25,-2.140625,-0.140625
1696252546730,-0.7043457,-0.09429932,0.9696655,5.21875,15.328125,3.984375
1696252546769,-0.7138672,-0.07354736,0.8612671,5.796875,24.140625,7.71875
1696252546808,-0.7080078,-0.05621338,0.77874756,4.515625,15.625,5.53125
1696252546850,-0.61499023,-0.061828613,0.74823,3.140625,5.265625,3.09375
1696252546889,-0.5720215,-0.06890869,0.6630249,2.8125,-6.984375,-0.125
1696252546930,-0.6516113,-0.11895752,0.8095093,6.53125,-24.65625,-1.859375
1696252546967,-0.61157227,-0.04034424,0.97406006,-6.484375,-15.203125,-8.25
1696252547008,-0.578125,-0.07696533,0.932312,-16.0,-9.03125,-4.515625
1696252547048,-0.736084,-0.038879395,0.8578491,-2.171875,-3.1875,2.6875
1696252547088,-0.8208008,-0.053771973,0.8060913,5.328125,-1.171875,6.171875
1696252547129,-0.68481445,-0.1560669,0.63568115,-6.046875,-9.4375,-0.96875
1696252547168,-0.5751953,-0.05670166,0.9022827,-1.90625,7.53125,-6.4375
1696252547208,-0.65185547,-0.009338379,0.8566284,1.40625,-4.40625,-2.34375
1696252547253,-0.845459,-0.05230713,0.7616577,-3.203125,-5.125,4.625
1696252547288,-0.72924805,-0.086242676,0.77801514,0.328125,3.015625,1.609375
1696252547328,-0.6242676,-0.05621338,0.80267334,4.3125,3.3125,-2.5
1696252547369,-0.6191406,-0.06842041,0.8798218,-1.640625,3.0625,-2.953125
1696252547408,-0.6779785,-0.08502197,0.92840576,-0.390625,11.34375,3.25
1696252547448,-0.70043945,-0.047668457,0.87615967,-4.171875,21.6875,5.828125
1696252547468,-0.7109375,-0.05303955,0.81170654,3.53125,11.890625,4.890625
1696252547532,-0.64404297,-0.093322754,0.81365967,4.296875,3.875,1.828125
1696252547569,-0.5852051,-0.08746338,0.8241577,3.09375,6.359375,3.03125
1696252547587,-0.6088867,-0.05987549,0.82928467,0.625,0.015625,3.71875
1696252547629,-0.63500977,-0.059631348,0.8348999,-1.25,-1.671875,1.15625
1696252547667,-0.6171875,-0.06085205,0.8727417,4.671875,4.828125,-0.875
1696252547709,-0.5900879,-0.10479736,0.86224365,5.25,3.53125,1.109375
1696252547750,-0.59350586,-0.101135254,0.88690186,2.84375,0.828125,2.671875
1696252547789,-0.6081543,-0.097229004,0.86761475,4.0,-3.296875,3.375
1696252547830,-0.61328125,-0.10455322,0.8319702,1.4375,-4.296875,1.34375
1696252547891,-0.6203613,-0.09063721,0.836853,3.046875,-7.59375,0.03125
1696252547907,-0.65112305,-0.12554932,0.822937,-2.0625,-13.46875,-1.171875
1696252547948,-0.65966797,-0.10821533,0.82318115,-10.390625,-18.375,-2.8125
1696252547991,-0.6555176,-0.019104004,0.86761475,-4.078125,-13.21875,-2.875
1696252548029,-0.62768555,-0.09576416,0.8102417,-3.0,-10.390625,-0.25
1696252548091,-0.6699219,-0.12042236,0.8539429,-1.21875,-11.03125,-0.65625
1696252548108,-0.72631836,-0.077941895,0.8173218,1.734375,-8.6875,-2.265625
1696252548151,-0.7180176,-0.06695557,0.78900146,-1.59375,-1.171875,-3.6875
1696252548189,-0.68188477,-0.069885254,0.8126831,-2.125,3.984375,-1.15625
1696252548230,-0.7116699,-0.082336426,0.8329468,-2.984375,2.65625,1.015625
1696252548271,-0.73535156,-0.070617676,0.8043823,1.703125,4.03125,-0.15625
1696252548309,-0.7084961,-0.06011963,0.7921753,-0.03125,-1.328125,-1.234375
1696252548350,-0.6616211,-0.05596924,0.75994873,1.296875,-2.46875,0.75
1696252548388,-0.66796875,-0.065979004,0.809021,0.9375,-2.4375,0.984375
1696252548429,-0.61694336,-0.07232666,0.8305054,-4.25,0.578125,-2.296875
1696252548467,-0.73583984,-0.070373535,0.8185425,-2.96875,-6.5625,-1.953125
1696252548508,-0.76220703,-0.027648926,0.8131714,0.078125,0.09375,0.53125
1696252548549,-0.7307129,-0.05279541,0.8710327,1.546875,9.625,1.203125
1696252548611,-0.6525879,-0.112854004,0.9191284,-0.421875,21.890625,0.28125
1696252548627,-0.68237305,-0.04937744,0.8529663,3.21875,21.296875,1.15625
1696252548689,-0.7324219,-0.06500244,0.7736206,2.59375,7.453125,5.265625
1696252548731,-0.63134766,-0.053771973,0.7736206,7.15625,7.484375,1.875
1696252548749,-0.56811523,-0.09088135,0.7872925,6.765625,-2.03125,-0.78125
1696252548767,-0.5883789,-0.09136963,0.7855835,2.859375,-12.578125,-1.078125
1696252548809,-0.61376953,-0.06890869,0.85443115,1.84375,-15.640625,0.1875
1696252548849,-0.6652832,-0.04058838,0.85687256,-1.109375,-17.609375,3.0625
1696252548890,-0.67871094,-0.10235596,0.8012085,0.609375,-15.9375,0.6875
1696252548928,-0.7216797,-0.15362549,0.934021,-1.625,2.078125,-7.46875
1696252548974,-0.60961914,-0.077697754,0.8192749,-10.21875,-1.390625,-6.078125
1696252549010,-0.7937012,0.0072631836,0.8109741,0.0,-1.875,2.125
1696252549050,-0.79418945,-0.06573486,0.7675171,1.765625,4.84375,4.890625
1696252549091,-0.63671875,-0.14678955,0.7711792,-3.625,-1.875,-1.78125
1696252549128,-0.6118164,-0.08502197,0.8690796,0.734375,1.4375,-4.21875
1696252549169,-0.71533203,-0.050109863,0.82025146,-1.1875,-2.171875,-0.859375
1696252549208,-0.70166016,-0.034240723,0.71698,-5.3125,0.234375,-0.296875
1696252549249,-0.65966797,-0.01763916,0.88397217,6.71875,-1.25,-1.21875
1696252549290,-0.66381836,-0.097229004,0.84490967,-3.9375,0.1875,0.71875
1696252549329,-0.7697754,-0.08746338,0.80755615,-0.125,-1.765625,3.625
1696252549371,-0.74438477,-0.10284424,0.7453003,-0.109375,-0.546875,1.265625
1696252549408,-0.62768555,-0.057678223,0.8121948,-0.421875,5.40625,-2.90625
1696252549450,-0.67993164,-0.074035645,0.8336792,-1.421875,-2.78125,-0.078125
1696252549489,-0.7248535,-0.051574707,0.7992554,-0.171875,-1.59375,0.6875
1696252549530,-0.6870117,-0.03692627,0.82196045,-0.671875,3.640625,-1.109375
1696252549571,-0.64868164,-0.031555176,0.821228,-0.953125,-0.78125,-0.78125
1696252549610,-0.6633301,-0.053527832,0.7970581,-0.265625,-4.625,1.484375
1696252549648,-0.69262695,-0.08135986,0.84417725,0.75,-0.625,-0.015625
1696252549688,-0.7141113,-0.07501221,0.7982788,-3.484375,-1.78125,-1.203125
1696252549731,-0.7246094,-0.04815674,0.7953491,-0.6875,-1.8125,-1.0
1696252549772,-0.73999023,-0.06817627,0.8070679,-0.4375,0.453125,0.421875
1696252549809,-0.732666,-0.054016113,0.7848511,-3.5,1.234375,1.0625
1696252549849,-0.6530762,-0.034240723,0.82977295,-0.5,2.734375,0.265625
1696252549887,-0.6347656,-0.023254395,0.83514404,0.421875,0.265625,-0.125
1696252549929,-0.65771484,-0.04937744,0.82562256,0.140625,-1.703125,-0.15625
1696252549968,-0.66845703,-0.074279785,0.84124756,0.25,0.609375,-0.09375
1696252550011,-0.67456055,-0.074279785,0.82855225,-1.453125,1.140625,-0.125
1696252550052,-0.6855469,-0.030578613,0.7802124,-1.109375,-2.203125,-0.125
1696252550068,-0.71435547,-0.026672363,0.8024292,1.421875,-2.40625,-0.1875
1696252550109,-0.72753906,-0.042541504,0.8041382,0.5,-1.59375,-0.515625
1696252550169,-0.72143555,-0.06451416,0.82147217,-1.25,0.671875,1.125
1696252550187,-0.6870117,-0.04888916,0.8126831,0.375,1.296875,0.15625
1696252550230,-0.6555176,-0.050598145,0.7880249,0.703125,0.03125,-0.515625
1696252550269,-0.6755371,-0.049621582,0.8290405,-0.53125,-1.375,-0.34375
1696252550310,-0.67993164,-0.042297363,0.82855225,-0.96875,1.9375,-0.140625
1696252550349,-0.6777344,-0.034973145,0.81829834,-1.921875,0.640625,0.28125
1696252550410,-0.69140625,-0.04864502,0.81292725,-3.640625,0.3125,0.03125
1696252550428,-0.69970703,-0.05230713,0.87323,-6.03125,5.21875,-0.75
1696252550469,-0.6989746,-0.00982666,0.83465576,-0.125,7.453125,1.109375
1696252550532,-0.69384766,-0.030334473,0.7687378,7.0625,-0.75,2.984375
1696252550550,-0.67700195,-0.034484863,0.8505249,9.71875,7.484375,2.375
1696252550589,-0.64404297,-0.06402588,0.89471436,16.46875,14.265625,1.953125
1696252550629,-0.6364746,-0.124572754,0.85858154,10.625,9.28125,4.09375
1696252550668,-0.6323242,-0.12335205,0.7719116,0.34375,0.875,2.8125
1696252550710,-0.6455078,-0.047912598,0.8043823,0.828125,-4.265625,0.78125
1696252550770,-0.6171875,-0.055480957,0.81463623,3.015625,-3.625,-0.046875
1696252550788,-0.6208496,-0.07305908,0.7662964,5.0625,-10.421875,0.671875
1696252550830,-0.6833496,-0.13897705,0.83270264,-0.046875,-21.375,3.65625
1696252550888,-0.70166016,-0.07745361,0.8461304,-0.0625,-10.734375,4.078125
1696252550929,-0.6015625,-0.17340088,0.7694702,-3.03125,-7.875,-1.515625
1696252550948,-0.6401367,-0.10064697,0.84539795,-5.734375,3.84375,-7.65625
1696252550987,-0.7421875,-0.06719971,0.8019409,-5.71875,-8.625,-1.6875
1696252551029,-0.7871094,-0.0256958,0.7821655,0.046875,1.5625,3.34375
1696252551068,-0.7097168,-0.10455322,0.81903076,0.4375,3.96875,2.625
1696252551109,-0.6826172,-0.13043213,0.7875366,3.046875,-1.109375,0.109375
1696252551149,-0.66625977,-0.09820557,0.81829834,-1.453125,0.046875,0.015625
1696252551190,-0.6801758,-0.070617676,0.8041382,-2.6875,3.25,-0.53125
1696252551229,-0.6689453,-0.07867432,0.77557373,0.609375,0.59375,-0.25
1696252551292,-0.65600586,-0.09893799,0.79241943,-3.59375,-3.265625,-2.640625
1696252551308,-0.6652832,-0.06915283,0.85614014,-4.0,0.671875,-1.71875
1696252551372,-0.7233887,-0.04058838,0.8119507,-0.140625,-3.28125,0.859375
1696252551376,-0.703125,-0.066711426,0.7860718,-1.90625,-4.078125,-0.34375
1696252551409,-0.68237305,-0.06500244,0.80926514,-0.421875,-5.578125,-0.90625
1696252551448,-0.7062988,-0.108947754,0.8016968,-2.875,-1.3125,-0.84375
1696252551488,-0.69506836,-0.085998535,0.81073,-0.578125,1.109375,-2.09375
1696252551528,-0.7546387,-0.073791504,0.76678467,-1.75,-1.765625,2.046875
1696252551569,-0.6801758,-0.043762207,0.7941284,-0.84375,2.3125,-0.078125
1696252551608,-0.6867676,-0.047668457,0.82806396,3.125,0.28125,-0.59375
1696252551650,-0.6945801,-0.07305908,0.8031616,0.3125,-2.8125,2.265625
1696252551689,-0.6953125,-0.06768799,0.8036499,-2.53125,-0.921875,1.046875
1696252551728,-0.68774414,-0.07940674,0.7987671,-1.671875,1.71875,-1.609375
1696252551771,-0.67529297,-0.058654785,0.7963257,-2.109375,-0.421875,-1.40625
1696252551810,-0.7050781,-0.05670166,0.8041382,-1.546875,-2.328125,0.3125
1696252551850,-0.70751953,-0.035949707,0.8114624,-0.25,0.84375,-0.03125
1696252551890,-0.7055664,-0.06842041,0.76849365,-1.328125,-1.671875,0.0625
1696252551929,-0.67089844,-0.07476807,0.82025146,-1.0625,0.828125,-1.09375
1696252551968,-0.70092773,-0.054748535,0.7887573,-1.8125,-1.5625,-0.953125
1696252552010,-0.7102051,-0.036193848,0.8016968,-0.984375,-1.953125,-0.578125
1696252552049,-0.6862793,-0.050354004,0.8048706,-0.046875,-0.984375,-1.0625
1696252552097,-0.71777344,-0.058898926,0.8148804,-1.40625,-0.96875,-0.546875
1696252552129,-0.7265625,-0.047668457,0.8307495,-1.078125,3.953125,0.921875
1696252552171,-0.69091797,-0.059631348,0.840271,-1.859375,5.328125,1.40625
1696252552211,-0.6694336,-0.031555176,0.80096436,-2.421875,7.046875,-0.453125
1696252552248,-0.68603516,-0.024475098,0.7789917,-0.453125,1.03125,-1.4375
1696252552290,-0.7062988,-0.06451416,0.7868042,-1.125,0.15625,-1.71875
1696252552328,-0.68652344,-0.03326416,0.8295288,2.640625,1.359375,-0.3125
1696252552368,-0.6508789,-0.018371582,0.8331909,0.03125,0.5625,0.375
1696252552409,-0.66748047,-0.05255127,0.8192749,-1.21875,-0.59375,-0.21875
1696252552449,-0.68725586,-0.057922363,0.83099365,-0.46875,1.0,-0.125
1696252552490,-0.67285156,-0.03668213,0.8356323,-0.875,3.09375,0.4375
1696252552529,-0.6791992,-0.034240723,0.8617554,4.484375,4.359375,2.75
1696252552570,-0.6911621,-0.04425049,0.8617554,8.34375,4.484375,4.21875
1696252552608,-0.66625977,-0.074523926,0.81170654,5.578125,10.75,4.640625
1696252552670,-0.6333008,-0.08135986,0.75946045,1.3125,2.765625,2.75
1696252552690,-0.640625,-0.047668457,0.83099365,0.984375,-1.265625,-0.90625
1696252552708,-0.6430664,-0.05206299,0.8427124,-0.3125,-3.640625,-1.203125
1696252552750,-0.6442871,-0.077697754,0.84954834,-1.546875,-4.84375,-1.09375
1696252552788,-0.66967773,-0.0569458,0.9191284,-0.53125,-2.703125,-0.703125
1696252552850,-0.66625977,-0.09503174,0.87323,4.375,2.65625,1.703125
1696252552874,-0.64038086,-0.09210205,0.89837646,3.75,12.5625,1.0625
1696252552910,-0.65185547,-0.07891846,0.8781128,1.0,12.421875,2.546875
1696252552970,-0.6459961,-0.06842041,0.8209839,1.640625,5.828125,4.984375
1696252553009,-0.6123047,-0.0869751,0.8356323,3.296875,1.90625,3.4375
1696252553028,-0.5612793,-0.08892822,0.7926636,-0.171875,-0.34375,-2.109375
1696252553091,-0.5876465,-0.049621582,0.7406616,-1.234375,-7.84375,0.390625
1696252553107,-0.67211914,-0.07525635,0.7255249,2.59375,-25.09375,3.40625
1696252553149,-0.7307129,-0.10748291,0.8217163,-2.796875,-27.859375,-2.96875
1696252553191,-0.60668945,-0.020080566,0.92645264,1.828125,2.46875,-4.265625
1696252553253,-0.5686035,-0.17852783,0.8991089,-8.875,-6.359375,-4.0
1696252553269,-0.8676758,-0.0635376,0.80145264,-4.9375,-6.9375,1.359375
1696252553312,-0.79345703,-0.054504395,0.8446655,6.578125,3.015625,0.453125
1696252553349,-0.64282227,-0.105773926,0.7555542,-6.5625,2.984375,-1.6875
1696252553391,-0.6101074,-0.10601807,0.795105,-4.390625,2.421875,-0.96875
1696252553427,-0.64160156,-0.053527832,0.8353882,-1.859375,2.71875,-2.65625
1696252553491,-0.71484375,-0.002746582,0.9020386,-5.8125,6.234375,-1.984375
1696252553529,-0.720459,-0.0025024414,0.92059326,2.078125,20.46875,2.09375
1696252553548,-0.69018555,-0.105529785,0.81073,6.828125,15.796875,7.796875
1696252553609,-0.6118164,-0.11138916,0.8226929,6.765625,10.125,5.515625
1696252553649,-0.5842285,-0.070129395,0.8444214,6.609375,4.796875,-0.5625
1696252553669,-0.5847168,-0.07232666,0.79681396,1.734375,-3.84375,-1.546875
1696252553728,-0.5859375,-0.05255127,0.81658936,0.609375,-11.046875,-1.953125
1696252553750,-0.6730957,-0.06549072,0.7670288,-0.578125,-19.375,1.796875
1696252553791,-0.68066406,-0.059387207,0.8578491,3.484375,-17.5625,2.09375
1696252553828,-0.59375,-0.10479736,0.80218506,0.796875,-14.171875,2.21875
1696252553868,-0.5432129,-0.1375122,0.9130249,-6.4375,-4.15625,-9.171875
1696252553912,-0.7150879,-0.02960205,0.9098511,-8.109375,-5.140625,-6.921875
1696252553948,-0.91015625,-0.007385254,0.8414917,3.078125,-8.921875,3.625
1696252553994,-0.80249023,-0.09429932,0.6893921,-0.9375,4.125,5.84375
1696252554007,-0.70654297,-0.17364502,0.83929443,0.328125,-0.9375,-1.46875
1696252554050,-0.57958984,-0.042541504,0.7970581,-9.953125,10.328125,-9.078125
1696252554091,-0.6516113,0.03387451,0.90301514,0.953125,-2.265625,-2.453125
1696252554129,-0.73168945,0.0021362305,0.79486084,2.734375,0.84375,5.59375
1696252554170,-0.6948242,-0.120666504,0.7484741,-5.96875,-0.03125,3.828125
1696252554210,-0.6098633,-0.1104126,0.8534546,2.0625,7.03125,-3.765625
1696252554249,-0.64282227,-0.062316895,0.85198975,0.65625,-4.515625,-3.703125
1696252554291,-0.69091797,-0.040100098,0.79608154,-2.65625,-8.21875,-0.484375
1696252554329,-0.71362305,-6.1035156E-5,0.8317261,-2.734375,-0.65625,-0.984375
1696252554369,-0.7248535,-0.06036377,0.7914429,-0.1875,-2.65625,2.28125
1696252554409,-0.7404785,-0.08770752,0.7575073,-0.40625,-4.546875,2.296875
1696252554448,-0.72265625,-0.04449463,0.7562866,-1.015625,0.875,-0.1875
1696252554489,-0.66137695,-0.013000488,0.80584717,0.25,-0.453125,-2.078125
1696252554529,-0.6645508,-0.032043457,0.836853,-1.984375,0.921875,0.3125
1696252554568,-0.7402344,-0.05303955,0.8602905,3.671875,1.8125,2.21875
1696252554609,-0.74072266,-0.093811035,0.7736206,0.359375,0.296875,2.8125
1696252554649,-0.67285156,-0.06719971,0.80755615,-0.703125,3.953125,-1.46875
1696252554688,-0.64746094,-0.026428223,0.8588257,1.140625,5.09375,-1.515625
1696252554729,-0.68530273,-0.0713501,0.86590576,-2.875,12.125,2.5625
1696252554769,-0.68652344,-0.036193848,0.8685913,0.015625,23.265625,1.890625
1696252554809,-0.7072754,-0.04058838,0.8644409,4.375,13.96875,4.703125
1696252554848,-0.6464844,-0.0869751,0.82073975,5.96875,8.171875,5.578125
1696252554891,-0.5895996,-0.101623535,0.84832764,6.234375,5.859375,3.6875
1696252554929,-0.5817871,-0.1116333,0.8493042,1.5,1.625,1.125
1696252554969,-0.6015625,-0.08306885,0.80511475,-5.5,-4.09375,-2.25
1696252555008,-0.5944824,-0.028625488,0.8378296,-1.25,-11.203125,-4.890625
1696252555049,-0.6064453,-0.0017700195,0.8114624,-3.296875,-13.0,-3.71875
1696252555088,-0.6640625,-0.026672363,0.73773193,-0.15625,-19.71875,0.375
1696252555128,-0.6923828,-0.11895752,0.7965698,-3.296875,-19.359375,-0.140625
1696252555172,-0.46240234,-0.023010254,0.9335327,2.25,-3.484375,-8.546875
1696252555211,-0.7182617,-0.035705566,0.89227295,-4.03125,-3.1875,-5.203125
1696252555248,-0.89086914,-0.078186035,0.85809326,-1.546875,-9.15625,5.703125
1696252555310,-0.8310547,-0.08477783,0.75579834,4.96875,5.859375,5.21875
1696252555327,-0.6411133,-0.117248535,0.7404175,-1.5625,5.46875,0.0625
1696252555348,-0.59814453,-0.06500244,0.7489624,-0.703125,-2.78125,-4.875
1696252555431,-0.6101074,-0.018615723,0.87713623,1.53125,-2.09375,-3.265625
1696252555435,-0.76000977,0.02923584,0.8654175,-1.3125,-3.078125,2.96875
1696252555489,-0.78222656,-0.05255127,0.7982788,3.125,-0.359375,5.171875
1696252555529,-0.6936035,-0.1194458,0.8722534,4.109375,5.25,2.1875
1696252555548,-0.6777344,-0.117004395,0.87371826,1.96875,7.1875,2.375
1696252555590,-0.64331055,-0.10455322,0.8571167,4.015625,20.09375,3.40625
1696252555649,-0.58691406,-0.10211182,0.8317261,-2.84375,19.984375,2.15625
1696252555668,-0.6052246,-0.007385254,0.7904663,-9.15625,7.0625,-0.53125
1696252555711,-0.67333984,0.011413574,0.8329468,1.1875,0.84375,1.140625
1696252555769,-0.6401367,-0.10235596,0.8102417,6.125,-2.40625,0.578125
1696252555810,-0.59399414,-0.12017822,0.82489014,3.125,-7.5,-1.453125
1696252555829,-0.6555176,-0.047424316,0.8341675,4.015625,-12.546875,0.3125
1696252555869,-0.6833496,-0.08502197,0.8300171,1.25,-16.765625,3.8125
1696252555910,-0.5847168,-0.03375244,0.8571167,1.765625,-4.15625,3.171875
1696252555969,-0.60961914,-0.16021729,0.8024292,-0.34375,-11.375,2.84375
1696252556008,-0.7404785,-0.15777588,0.8151245,-3.390625,-15.5,-5.5
1696252556030,-0.5605469,0.012878418,0.8624878,-4.65625,6.5625,-11.625
1696252556088,-0.748291,-0.003479004,0.8451538,-2.5625,-9.109375,1.171875
1696252556108,-0.8378906,-0.046203613,0.72991943,3.890625,1.625,7.515625
1696252556149,-0.7067871,-0.17926025,0.8053589,-4.0625,-0.0625,-1.90625
1696252556211,-0.5629883,-0.0647583,0.87493896,1.796875,8.78125,-8.234375
1696252556228,-0.66918945,-0.004699707,0.8444214,-2.34375,-7.78125,-0.109375
1696252556268,-0.80078125,-0.04449463,0.6942749,-1.953125,-4.875,5.984375
1696252556330,-0.68237305,-0.08502197,0.8004761,-5.09375,4.3125,-1.25
1696252556349,-0.6176758,-0.06402588,0.8690796,3.796875,4.078125,-4.03125
1696252556392,-0.6635742,-0.039611816,0.8290405,-2.375,-5.4375,-0.59375
1696252556431,-0.7180176,-0.062316895,0.80145264,-1.75,-2.71875,0.265625
1696252556470,-0.65356445,-0.0029907227,0.86395264,1.71875,5.84375,-1.28125
1696252556512,-0.74731445,-0.062561035,0.8356323,-0.78125,-3.65625,1.3125
1696252556570,-0.7109375,-0.09991455,0.68426514,-3.6875,-6.203125,0.984375
1696252556612,-0.6633301,-0.014953613,0.852478,2.21875,6.6875,-3.0
1696252556617,-0.66064453,-0.012023926,0.855896,-0.625,0.203125,-1.3125
1696252556649,-0.75634766,-0.047424316,0.809021,-1.25,-5.78125,3.625
1696252556688,-0.7175293,-0.07501221,0.7514038,-0.984375,0.0625,1.796875
1696252556729,-0.66259766,-0.027893066,0.81536865,4.59375,4.59375,-2.171875
1696252556769,-0.64697266,-0.070129395,0.8336792,-1.453125,-2.328125,-0.734375
1696252556809,-0.7023926,-0.043518066,0.7982788,-1.09375,-3.96875,1.921875
1696252556851,-0.7163086,-0.038635254,0.7736206,2.328125,0.484375,1.78125
1696252556890,-0.69091797,-0.05670166,0.82733154,1.84375,2.21875,-0.125
1696252556929,-0.6953125,-0.07574463,0.8373413,-1.28125,0.40625,1.671875
1696252556971,-0.7102051,-0.043518066,0.8168335,0.578125,0.78125,1.28125
1696252557010,-0.6972656,-0.05718994,0.7863159,1.234375,1.15625,-0.40625
1696252557049,-0.6381836,-0.04522705,0.80633545,-0.84375,1.53125,-0.53125
1696252557090,-0.6623535,-0.023010254,0.8265991,-1.546875,0.828125,1.1875
1696252557129,-0.6826172,-0.06402588,0.8109741,-4.109375,3.921875,1.203125
1696252557167,-0.6882324,-0.054748535,0.86712646,-5.4375,6.546875,0.359375
1696252557210,-0.6879883,-0.021057129,0.8666382,1.46875,2.03125,1.421875
1696252557256,-0.66503906,-0.06427002,0.7868042,0.8125,-0.78125,1.109375
1696252557290,-0.6940918,-0.06060791,0.8239136,0.625,1.40625,1.015625
1696252557332,-0.67285156,-0.042053223,0.87664795,4.984375,7.03125,0.96875
1696252557369,-0.6491699,-0.05279541,0.90130615,8.0,17.1875,2.953125
1696252557410,-0.64624023,-0.085754395,0.73358154,-1.671875,1.78125,2.59375
1696252557450,-0.67529297,-0.047180176,0.8200073,-0.21875,-2.8125,-1.046875
1696252557489,-0.65844727,-0.059143066,0.90496826,7.921875,5.171875,-1.484375
1696252557530,-0.5966797,-0.09918213,0.8966675,5.453125,5.796875,-0.640625
1696252557570,-0.60791016,-0.10650635,0.8060913,-0.484375,2.3125,1.5
1696252557609,-0.5817871,-0.074035645,0.8097534,-1.765625,-6.6875,-0.390625
1696252557649,-0.60913086,-0.030578613,0.78460693,1.328125,-10.109375,-1.234375
1696252557690,-0.6723633,-0.116760254,0.76434326,-4.328125,-21.640625,2.140625
1696252557729,-0.6376953,0.00970459,0.9020386,-2.0,-10.375,-1.4375
1696252557769,-0.59375,-0.0803833,0.7699585,-1.65625,-19.453125,-1.265625
1696252557810,-0.7807617,-0.10284424,0.89520264,-3.890625,-5.96875,-6.765625
1696252557851,-0.71240234,-0.051818848,0.8336792,-2.890625,-0.421875,-5.265625
1696252557889,-0.76000977,-0.035705566,0.82147217,0.84375,1.59375,1.65625
1696252557930,-0.7192383,-0.093322754,0.76849365,-3.21875,4.078125,3.4375
1696252557947,-0.6484375,-0.07989502,0.6820679,-4.359375,-5.96875,-4.125
1696252557989,-0.6359863,-3.0517578E-4,0.8998413,0.359375,0.015625,-6.21875
1696252558031,-0.74609375,0.015319824,0.87786865,-0.1875,1.4375,0.21875
1696252558069,-0.77563477,-0.062072754,0.6766968,-0.546875,-8.5625,2.890625
1696252558110,-0.6621094,-0.09527588,0.8722534,-0.84375,5.15625,-0.78125
1696252558151,-0.65063477,-0.029846191,0.8649292,-0.078125,4.34375,-0.875
1696252558189,-0.75268555,-0.038635254,0.74823,-0.375,-4.234375,2.84375
1696252558229,-0.6879883,-0.034240723,0.8234253,1.015625,3.0,0.484375
1696252558291,-0.67089844,-0.047180176,0.854187,3.453125,1.453125,1.96875
1696252558309,-0.72314453,-0.06329346,0.79608154,-2.3125,-0.9375,3.5
1696252558370,-0.6682129,-0.03326416,0.8060913,0.28125,2.484375,-0.65625
1696252558410,-0.6647949,-0.035705566,0.7904663,-0.21875,0.40625,-0.921875
1696252558429,-0.64453125,-0.035705566,0.82977295,-0.921875,-2.734375,-0.625
1696252558470,-0.66381836,-0.06549072,0.83221436,-2.375,0.96875,-0.640625
1696252558509,-0.68408203,-0.023254395,0.821228,1.25,-1.40625,-3.0
1696252558549,-0.71850586,-0.033996582,0.7938843,-1.34375,-3.21875,-0.515625
1696252558589,-0.6711426,-0.04034424,0.81121826,-0.484375,-0.578125,-0.9375
1696252558650,-0.73779297,-0.027648926,0.7904663,0.40625,-3.90625,0.90625
1696252558668,-0.7463379,-0.020324707,0.7941284,4.515625,-1.4375,1.421875
1696252558709,-0.72509766,-0.07501221,0.8097534,4.78125,-2.734375,3.671875
1696252558770,-0.66015625,-0.054992676,0.8324585,-5.859375,3.0,0.421875
1696252558789,-0.6687012,-0.007385254,0.8275757,0.453125,5.5625,-1.46875
1696252558851,-0.6994629,-0.054260254,0.8185425,-2.390625,1.921875,-0.1875
1696252558889,-0.68115234,-0.03643799,0.84490967,-3.09375,8.125,0.53125
1696252558909,-0.6911621,-0.019104004,0.8036499,1.328125,2.78125,0.8125
1696252558971,-0.6960449,-0.0635376,0.77996826,-2.265625,-0.828125,2.09375
1696252558990,-0.6340332,-0.05303955,0.84124756,2.5625,2.125,0.21875
1696252559031,-0.6508789,-0.04107666,0.8200073,0.3125,-5.875,-0.859375
1696252559070,-0.6940918,-0.04547119,0.83465576,-2.359375,-0.8125,-1.78125
1696252559109,-0.65722656,-0.0015258789,0.87542725,2.421875,3.9375,-1.96875
1696252559170,-0.7138672,-0.053771973,0.86151123,6.0625,2.71875,3.4375
1696252559188,-0.67871094,-0.085998535,0.8661499,-0.75,14.515625,3.984375
1696252559251,-0.64746094,-0.023254395,0.8497925,-1.375,12.53125,3.296875
1696252559256,-0.69140625,-0.050598145,0.8624878,3.828125,9.125,6.796875
1696252559289,-0.6484375,-0.089660645,0.86224365,5.359375,9.953125,6.0
1696252559330,-0.5925293,-0.08843994,0.82611084,2.171875,8.0,2.171875
1696252559369,-0.60253906,-0.047180176,0.8134155,0.890625,-0.734375,0.78125
1696252559409,-0.5751953,-0.051086426,0.79437256,5.484375,-10.53125,-1.703125
1696252559449,-0.61621094,-0.07672119,0.8383179,9.0,-20.625,-1.1875
1696252559490,-0.63183594,-0.11236572,0.80267334,-5.71875,-23.921875,-0.578125
1696252559529,-0.611084,-0.059143066,0.86224365,-2.53125,-14.890625,1.53125
1696252559571,-0.6743164,-0.113342285,0.81536865,0.578125,-10.484375,-2.046875
1696252559610,-0.68481445,-0.10772705,0.8812866,-7.15625,-3.90625,-8.9375
1696252559649,-0.7036133,0.014587402,0.7909546,-1.765625,-2.578125,-6.015625
1696252559689,-0.7866211,-0.018859863,0.79241943,2.8125,0.234375,5.84375
1696252559731,-0.7050781,-0.12213135,0.7382202,-5.609375,-0.59375,2.140625
1696252559768,-0.66015625,-0.12042236,0.824646,-0.84375,1.71875,-3.828125
1696252559808,-0.689209,-0.057678223,0.84246826,-3.65625,-1.21875,-2.703125
1696252559852,-0.73413086,-0.01763916,0.77264404,-3.25,-0.859375,0.734375
1696252559889,-0.73657227,-5.493164E-4,0.90008545,4.015625,7.515625,1.109375
1696252559928,-0.6594238,-0.12506104,0.88275146,2.609375,15.328125,2.296875
1696252559970,-0.6164551,-0.07086182,0.8414917,-8.0,26.375,-0.234375
1696252560007,-0.69799805,0.008239746,0.8666382,-0.390625,11.5,4.75
1696252560049,-0.6623535,-0.04107666,0.83221436,2.84375,4.375,5.828125
1696252560088,-0.59277344,-0.109680176,0.74212646,2.078125,-0.640625,2.578125
1696252560131,-0.60253906,-0.10650635,0.76849365,7.1875,-12.46875,-1.9375
1696252560169,-0.65063477,-0.07867432,0.80389404,3.53125,-22.15625,-2.140625
1696252560210,-0.6159668,0.028015137,0.86883545,0.4375,-17.90625,0.671875
1696252560252,-0.6010742,-0.07281494,0.8390503,-1.484375,-16.328125,2.71875
1696252560289,-0.7207031,-0.1326294,0.94647217,2.890625,-2.90625,-5.4375
1696252560330,-0.6374512,-0.0869751,0.8678589,-10.9375,2.625,-6.640625
1696252560368,-0.7753906,0.026062012,0.8283081,0.171875,-3.6875,0.265625
1696252560410,-0.76123047,-0.06085205,0.74212646,-1.40625,1.53125,5.46875
1696252560449,-0.65844727,-0.08477783,0.7289429,-2.796875,-3.984375,-1.53125
1696252560490,-0.61035156,-0.12506104,0.88616943,-1.4375,-0.78125,-4.484375
1696252560530,-0.7158203,-0.011291504,0.7892456,-0.765625,-6.875,-1.09375
1696252560549,-0.83154297,-0.011779785,0.74798584,-1.5,-2.46875,4.6875
1696252560589,-0.7138672,-0.034973145,0.8012085,0.921875,1.609375,-1.75
1696252560630,-0.59399414,-0.08062744,0.8461304,-1.9375,4.890625,-4.5
1696252560668,-0.7167969,-0.035461426,0.8126831,-0.28125,-4.15625,0.921875
1696252560709,-0.736084,-0.057922363,0.72454834,-2.03125,-1.828125,2.296875
1696252560749,-0.69873047,-0.020568848,0.84173584,0.109375,4.625,-0.9375
1696252560790,-0.69311523,-0.08306885,0.8007202,-1.546875,-2.28125,-0.234375
1696252560829,-0.6530762,-0.070617676,0.7860718,-4.25,-3.5625,0.71875
1696252560868,-0.7597656,0.018005371,0.80096436,-0.65625,-0.375,1.046875
1696252560910,-0.7409668,-0.010803223,0.80096436,1.0625,-1.5,1.75
1696252560950,-0.65771484,-0.09112549,0.8102417,-2.296875,1.3125,-0.125
1696252560991,-0.7019043,-0.047912598,0.82684326,1.109375,0.765625,-0.796875
1696252561027,-0.7519531,-0.03253174,0.74383545,0.09375,-2.046875,0.625
1696252561070,-0.673584,-0.04034424,0.78778076,0.0,-1.234375,0.109375
1696252561110,-0.66625977,-0.031066895,0.8031616,-1.171875,-0.765625,-0.453125
1696252561172,-0.75439453,-0.046203613,0.80877686,1.0625,-1.890625,1.875
1696252561208,-0.7631836,-0.061584473,0.8324585,0.359375,4.390625,3.234375
1696252561229,-0.6784668,-0.051818848,0.807312,1.265625,6.59375,2.375
1696252561292,-0.67700195,-0.03643799,0.81073,0.453125,5.734375,1.03125
1696252561308,-0.7104492,-0.032043457,0.8204956,2.625,7.40625,0.140625
1696252561348,-0.65356445,-0.043029785,0.86590576,6.453125,13.59375,0.6875
1696252561409,-0.65063477,-0.07696533,0.8878784,11.40625,20.59375,3.640625
1696252561427,-0.63720703,-0.13140869,0.7992554,6.078125,13.453125,3.421875
1696252561471,-0.7006836,-0.13531494,0.8187866,-1.0,0.84375,4.125
1696252561510,-0.6647949,-0.06915283,0.7868042,-3.8125,1.90625,2.0
1696252561551,-0.56030273,-0.034240723,0.77948,-2.390625,-5.765625,-1.625
1696252561612,-0.57006836,-0.007385254,0.8287964,6.59375,-10.625,-2.046875
1696252561628,-0.6164551,-0.06719971,0.8226929,-1.6875,-20.640625,2.46875
1696252561693,-0.59155273,-0.07501221,0.8793335,-2.453125,-14.515625,2.171875
1696252561708,-0.66137695,-0.16265869,0.7753296,1.296875,-22.78125,0.46875
1696252561772,-0.6508789,-0.101135254,0.95062256,-14.71875,7.421875,-11.6875
1696252561790,-0.71118164,0.01361084,0.8773804,-7.203125,-8.078125,-6.5
1696252561830,-0.8701172,0.038757324,0.7868042,7.25,0.75,5.75
1696252561889,-0.74316406,-0.13043213,0.68548584,-4.078125,2.46875,4.5
1696252561893,-0.5769043,-0.13897705,0.79486084,-3.078125,0.3125,-4.828125
1696252561928,-0.6347656,-0.013244629,0.87176514,0.078125,0.8125,-7.40625
1696252561970,-0.77001953,-0.0115356445,0.84832764,-1.5625,1.328125,3.21875
1696252562009,-0.7175293,-0.05718994,0.9562378,-4.0625,29.671875,4.4375
1696252562050,-0.68481445,-0.043029785,0.88079834,-4.140625,29.203125,1.46875
1696252562090,-0.6855469,-0.10357666,0.73602295,-3.765625,2.140625,3.671875
1696252562130,-0.6411133,-0.055480957,0.69403076,8.6875,-16.046875,-0.234375
1696252562171,-0.5871582,0.0038452148,0.8043823,11.125,-5.59375,-1.203125
1696252562209,-0.5385742,-0.070129395,0.8043823,-0.609375,-25.265625,1.0625
1696252562249,-0.63720703,-0.055725098,0.9237671,-1.734375,-23.296875,-2.4375
1696252562291,-0.720459,-0.0635376,0.8666382,-1.953125,-1.09375,-7.46875
1696252562329,-0.8171387,-0.06500244,0.8756714,-2.921875,-6.734375,0.125
1696252562370,-0.7233887,-0.026428223,0.72698975,-2.359375,0.8125,6.8125
1696252562410,-0.6855469,0.005554199,0.7736206,1.859375,2.046875,2.21875
1696252562450,-0.6887207,-0.07940674,0.8151245,-1.609375,2.703125,-4.75
1696252562489,-0.6911621,-0.07501221,0.8109741,0.53125,-2.953125,-1.84375
1696252562528,-0.67871094,-0.04547119,0.79119873,-0.5625,-2.546875,3.546875
1696252562569,-0.72143555,-0.027404785,0.81951904,2.125,0.78125,1.609375
1696252562613,-0.7036133,-0.070129395,0.81243896,-0.25,-1.484375,-1.953125
1696252562650,-0.71240234,-0.057678223,0.7929077,-0.046875,-2.5,0.21875
1696252562694,-0.6804199,-0.047424316,0.7892456,-0.625,2.109375,2.09375
1696252562728,-0.671875,-0.031311035,0.80584717,0.828125,-3.140625,-1.53125
1696252562770,-0.69799805,-0.0791626,0.836853,1.59375,-1.875,-0.921875
1696252562811,-0.7128906,-0.04864502,0.79852295,-4.453125,0.546875,-0.234375
1696252562849,-0.70825195,-0.043029785,0.78118896,0.4375,1.53125,1.765625
1696252562889,-0.68481445,-0.050354004,0.77459717,-0.34375,-0.03125,-0.796875
1696252562929,-0.7282715,-0.042785645,0.8121948,-0.375,-1.140625,-0.109375
1696252562969,-0.71435547,-0.04522705,0.8134155,0.265625,1.796875,0.921875
1696252563012,-0.67822266,-0.055725098,0.8041382,-0.328125,1.59375,0.3125
1696252563049,-0.6608887,-0.057678223,0.8361206,-0.125,-0.0625,-0.5
1696252563089,-0.6652832,-0.046203613,0.8070679,-0.078125,-2.921875,0.296875
1696252563129,-0.7006836,-0.038879395,0.8016968,-0.921875,-1.125,0.578125
1696252563169,-0.72265625,-0.030334473,0.81463623,-0.125,0.375,-0.3125
1696252563189,-0.7258301,-0.054260254,0.7716675,-0.90625,-0.375,-0.453125
1696252563228,-0.69750977,-0.058654785,0.78460693,-1.34375,1.53125,-0.484375
1696252563271,-0.7246094,-0.046691895,0.81585693,-0.28125,0.296875,0.328125
1696252563329,-0.6999512,-0.0178833,0.82073975,-2.6875,1.5625,-0.796875
1696252563350,-0.68066406,-0.03253174,0.8082886,0.703125,1.125,-1.8125
1696252563411,-0.65771484,-0.045715332,0.807312,0.40625,-0.296875,-1.375
1696252563429,-0.6801758,-0.03302002,0.8312378,0.015625,-0.453125,0.484375
1696252563491,-0.70751953,-0.039367676,0.8053589,-0.875,-0.328125,1.71875
1696252563529,-0.6879883,-0.046447754,0.7848511,-1.671875,0.078125,0.46875
1696252563547,-0.689209,-0.028625488,0.8241577,-0.203125,1.265625,-0.84375
1696252563588,-0.6855469,-0.032043457,0.8300171,-1.34375,-0.15625,-0.078125
1696252563629,-0.7258301,-0.039123535,0.8241577,-3.71875,0.5625,1.1875
1696252563669,-0.7351074,-0.030578613,0.807312,-5.671875,5.4375,1.46875
1696252563710,-0.70825195,-0.019836426,0.8226929,0.09375,5.5625,1.375
1696252563748,-0.66625977,-0.029846191,0.84710693,4.96875,7.28125,0.703125
1696252563789,-0.6098633,-0.026184082,0.90252686,9.171875,9.171875,1.703125
1696252563828,-0.61279297,-0.069885254,0.7843628,7.15625,2.078125,4.78125
1696252563871,-0.6347656,-0.05279541,0.82489014,2.671875,-2.671875,-0.171875
1696252563909,-0.6760254,-0.023742676,0.8678589,1.796875,5.28125,-3.3125
1696252563970,-0.64501953,-0.050842285,0.75775146,-0.859375,-0.6875,-1.5
1696252563990,-0.64501953,-0.042297363,0.7597046,-0.25,-10.328125,0.796875
1696252564048,-0.6945801,-0.04449463,0.8353882,8.703125,-9.9375,2.296875
1696252564069,-0.6340332,-0.09503174,0.8143921,-4.703125,-13.34375,3.28125
1696252564110,-0.59399414,-0.0491333,0.8439331,-0.6875,-12.53125,-0.875
1696252564148,-0.67333984,-0.06329346,0.8751831,-1.203125,-1.59375,-6.609375
1696252564190,-0.7495117,-0.06890869,0.7982788,-5.5,-8.859375,-2.34375
1696252564229,-0.78222656,-6.1035156E-5,0.7736206,-0.234375,0.3125,1.03125
1696252564269,-0.6813965,-0.038879395,0.78778076,-2.640625,5.546875,1.734375
1696252564311,-0.6838379,-0.062561035,0.82489014,1.4375,0.03125,-1.328125
1696252564350,-0.7067871,-0.069885254,0.81585693,-3.625,-2.40625,-1.3125
1696252564413,-0.69506836,-0.010559082,0.8187866,1.0625,1.1875,0.171875
1696252564429,-0.7297363,-0.012756348,0.80462646,1.34375,0.15625,2.34375
1696252564493,-0.69140625,-0.06304932,0.7982788,-0.59375,0.53125,1.609375
1696252564498,-0.6418457,-0.066223145,0.8143921,0.875,1.703125,-0.71875
1696252564533,-0.6750488,-0.03643799,0.80999756,-0.296875,-1.28125,-0.828125
1696252564572,-0.6899414,-0.045959473,0.7977905,-0.46875,-0.78125,-1.875
1696252564610,-0.6699219,-0.050354004,0.805603,-0.84375,-0.203125,-2.078125
1696252564649,-0.7001953,-0.03375244,0.7992554,-0.34375,-1.09375,-0.859375
1696252564691,-0.72802734,-0.023498535,0.80755615,1.640625,-0.6875,0.484375
1696252564730,-0.70532227,-0.038635254,0.8053589,0.828125,-0.609375,0.671875
1696252564771,-0.7224121,-0.0647583,0.8004761,0.125,0.015625,1.0
1696252564808,-0.6906738,-0.054748535,0.8078003,-0.40625,1.296875,0.109375
1696252564851,-0.6689453,-0.0256958,0.8173218,1.109375,-0.890625,-0.515625
1696252564888,-0.67944336,-0.018859863,0.789978,1.953125,-0.75,-0.3125
1696252564932,-0.6743164,-0.06329346,0.80340576,-0.25,1.75,0.328125
1696252564969,-0.71484375,-0.057922363,0.8114624,0.234375,0.671875,0.859375
1696252565009,-0.6977539,-0.06060791,0.79119873,-0.234375,-1.125,1.078125
1696252565051,-0.67211914,-0.046936035,0.8070679,0.484375,0.15625,-0.71875
1696252565092,-0.7060547,-0.043518066,0.821228,-0.65625,-0.046875,0.015625
1696252565130,-0.6906738,-0.03326416,0.82855225,-0.5,1.59375,-0.109375
1696252565169,-0.6628418,-0.04815674,0.8109741,0.828125,-0.4375,0.03125
1696252565210,-0.6557617,-0.036193848,0.807312,0.515625,-2.578125,-0.3125
1696252565250,-0.69970703,-0.04034424,0.8121948,0.671875,-2.4375,-0.015625
1696252565291,-0.7050781,-0.045715332,0.7965698,-0.078125,-1.28125,0.03125
1696252565331,-0.6899414,-0.051330566,0.81414795,-0.46875,1.296875,0.1875
1696252565371,-0.6982422,-0.057434082,0.80340576,-0.84375,0.21875,-0.34375
1696252565411,-0.70947266,-0.045715332,0.80755615,-0.625,0.21875,0.046875
1696252565448,-0.6928711,-0.03302002,0.82440186,0.40625,0.78125,0.390625
1696252565489,-0.69189453,-0.046447754,0.7958374,-0.375,0.109375,-0.296875
1696252565529,-0.6726074,-0.028381348,0.8222046,-1.046875,0.9375,0.0625
1696252565571,-0.68115234,-0.04034424,0.8185425,0.5,0.1875,0.3125
1696252565608,-0.6767578,-0.05303955,0.8114624,-0.625,-0.515625,0.234375
1696252565650,-0.6813965,-0.04473877,0.82366943,-0.046875,-0.375,0.03125
