# Sensor type: Respeck
# Activity type: Lying down back
# Activity subtype: Singing
# Subject id: s2106809
# Notes: unprocessed
timestamp,accel_x,accel_y,accel_z,gyro_x,gyro_y,gyro_z
1696252417343,-0.6254883,-0.055725098,0.85198975,-1.203125,-3.15625,-0.9375
1696252417403,-0.6328125,-0.059143066,0.8505249,0.234375,-1.671875,-0.390625
1696252417423,-0.6257324,-0.06011963,0.8551636,-0.171875,-0.46875,0.328125
1696252417463,-0.63549805,-0.058654785,0.8390503,-1.5,-0.59375,0.6875
1696252417504,-0.6491699,-0.05303955,0.84661865,0.171875,-0.84375,0.765625
1696252417564,-0.6374512,-0.066467285,0.87323,0.40625,0.015625,-0.125
1696252417566,-0.6340332,-0.06011963,0.85687256,-0.640625,-0.71875,0.0
1696252417603,-0.6254883,-0.03741455,0.8500366,-1.0625,-0.84375,-0.4375
1696252417642,-0.6425781,-0.034240723,0.8366089,0.515625,-1.859375,0.1875
1696252417684,-0.64282227,-0.06768799,0.868103,1.234375,-1.0,0.296875
1696252417724,-0.6430664,-0.07745361,0.838562,-1.484375,-1.984375,0.046875
1696252417763,-0.6333008,-0.045715332,0.838562,-1.46875,-0.578125,-0.84375
1696252417805,-0.6777344,-0.051330566,0.8439331,-2.671875,-0.453125,0.65625
1696252417844,-0.6501465,-0.04107666,0.852478,-0.96875,3.078125,1.578125
1696252417884,-0.5930176,-0.06036377,0.84539795,0.03125,2.484375,0.53125
1696252417923,-0.6081543,-0.05621338,0.8488159,-0.0625,-1.09375,-0.234375
1696252417965,-0.6320801,-0.057678223,0.87323,-0.875,-2.09375,0.109375
1696252418003,-0.65405273,-0.05303955,0.84783936,-1.796875,-0.875,0.078125
1696252418043,-0.6413574,-0.040100098,0.85443115,0.234375,0.984375,0.328125
1696252418085,-0.626709,-0.04888916,0.8668823,0.859375,0.78125,0.53125
1696252418125,-0.6298828,-0.047912598,0.8432007,-0.3125,-0.328125,0.796875
1696252418164,-0.63427734,-0.05206299,0.8641968,-0.578125,-0.546875,0.453125
1696252418205,-0.6359863,-0.049621582,0.8407593,-0.40625,-0.015625,0.109375
1696252418244,-0.6213379,-0.042541504,0.86151123,1.53125,1.25,-0.296875
1696252418286,-0.62231445,-0.053771973,0.84173584,2.578125,-0.140625,1.03125
1696252418326,-0.671875,-0.0947876,0.8637085,2.015625,-7.828125,3.984375
1696252418364,-0.6135254,-0.020812988,0.84906006,-0.046875,0.171875,0.3125
1696252418404,-0.64941406,-0.03375244,0.85858154,0.0,-1.890625,-0.265625
1696252418443,-0.6359863,-0.08502197,0.85931396,-1.0625,0.3125,-0.03125
1696252418487,-0.6308594,-0.066223145,0.852478,-0.734375,0.625,-0.09375
1696252418525,-0.6369629,-0.045959473,0.84124756,-1.0,0.234375,-0.390625
1696252418564,-0.6335449,-0.03692627,0.8566284,0.15625,1.171875,-0.171875
1696252418606,-0.63671875,-0.05987549,0.8632202,0.25,1.203125,1.1875
1696252418643,-0.6633301,-0.073791504,0.8497925,0.734375,-2.484375,1.875
1696252418683,-0.6188965,-0.06378174,0.86053467,1.015625,0.5625,0.859375
1696252418727,-0.63916016,-0.047668457,0.86517334,-0.546875,-2.890625,0.28125
1696252418767,-0.642334,-0.055480957,0.82855225,0.65625,-4.078125,-0.6875
1696252418805,-0.64086914,-0.05621338,0.84490967,2.953125,-3.375,-1.0
1696252418868,-0.6364746,-0.059631348,0.86517334,1.453125,-2.859375,-0.484375
1696252418882,-0.626709,-0.066711426,0.84295654,-0.0625,-1.71875,-0.421875
1696252418926,-0.6623535,-0.07720947,0.83465576,-0.46875,-1.703125,0.078125
1696252418943,-0.65356445,-0.065979004,0.8427124,-0.3125,-0.578125,-0.421875
1696252418985,-0.6418457,-0.0569458,0.8373413,-1.578125,-0.25,-0.15625
1696252419047,-0.6557617,-0.05596924,0.85980225,-0.453125,0.0625,0.6875
1696252419063,-0.64404297,-0.059387207,0.8590698,-1.046875,0.53125,0.0
1696252419124,-0.64404297,-0.047668457,0.8475952,-0.953125,0.25,-0.359375
1696252419143,-0.6533203,-0.050598145,0.840271,-0.375,-0.484375,0.375
1696252419185,-0.6364746,-0.06719971,0.8600464,0.046875,0.671875,-0.0625
1696252419246,-0.6381836,-0.05206299,0.838562,-0.5625,0.03125,0.171875
1696252419263,-0.6357422,-0.06109619,0.8522339,-0.859375,-0.734375,0.015625
1696252419306,-0.6345215,-0.05303955,0.83758545,-0.484375,-1.34375,-0.328125
1696252419366,-0.6516113,-0.050109863,0.8649292,0.296875,-0.71875,-0.0625
1696252419403,-0.6489258,-0.054260254,0.8305054,-0.421875,-0.34375,0.375
1696252419424,-0.64453125,-0.06060791,0.85614014,-0.859375,0.46875,0.25
1696252419465,-0.64697266,-0.059143066,0.8500366,-0.53125,-0.3125,0.421875
1696252419505,-0.6533203,-0.04449463,0.84368896,-0.109375,0.171875,0.5625
1696252419545,-0.6472168,-0.05279541,0.87249756,1.25,1.28125,0.96875
1696252419584,-0.6364746,-0.06768799,0.84295654,-1.109375,0.328125,0.875
1696252419624,-0.63256836,-0.0413208,0.84490967,-0.25,0.125,-0.234375
1696252419688,-0.6254883,-0.03765869,0.86151123,-0.0625,-0.359375,-0.453125
1696252419724,-0.6230469,-0.053527832,0.8563843,0.03125,-0.03125,-0.25
1696252419746,-0.63549805,-0.06549072,0.83880615,-0.921875,-0.140625,0.015625
1696252419784,-0.62841797,-0.06402588,0.8590698,-2.84375,2.78125,-0.125
1696252419824,-0.6357422,-0.04449463,0.8776245,-3.265625,4.578125,0.671875
1696252419864,-0.6508789,-0.047180176,0.86639404,-0.3125,3.21875,2.09375
1696252419905,-0.6376953,-0.043518066,0.8746948,2.296875,2.65625,1.21875
1696252419946,-0.64160156,-0.05670166,0.871521,1.5625,1.875,0.734375
1696252419984,-0.6298828,-0.06500244,0.8473511,-1.421875,1.59375,0.234375
1696252420026,-0.6074219,-0.04864502,0.8619995,-1.109375,0.46875,-0.4375
1696252420064,-0.5979004,-0.04034424,0.87493896,-1.03125,0.984375,-0.59375
1696252420104,-0.59765625,-0.042785645,0.87298584,-2.453125,-0.734375,-0.234375
1696252420165,-0.6088867,-0.04815674,0.8500366,-4.109375,-3.46875,-0.203125
1696252420168,-0.61743164,-0.027648926,0.8475952,-3.78125,-6.328125,-0.6875
1696252420203,-0.6274414,-0.009338379,0.82928467,0.875,-5.453125,-0.90625
1696252420243,-0.640625,-0.028137207,0.84539795,3.203125,-5.0,0.015625
1696252420283,-0.6303711,-0.042785645,0.8624878,1.484375,-3.21875,0.6875
1696252420326,-0.640625,-0.0635376,0.86517334,-0.375,-2.859375,1.671875
1696252420365,-0.6335449,-0.055480957,0.8703003,-0.703125,-1.171875,-0.3125
1696252420404,-0.6447754,-0.021057129,0.8554077,0.0625,-1.5625,-0.71875
1696252420447,-0.64282227,-0.03253174,0.8446655,-1.265625,-0.6875,0.6875
1696252420486,-0.6442871,-0.031799316,0.85980225,-0.609375,0.484375,0.984375
1696252420524,-0.6347656,-0.04034424,0.8512573,0.21875,0.453125,0.640625
1696252420566,-0.63012695,-0.04522705,0.8554077,-0.109375,0.375,0.515625
1696252420605,-0.6437988,-0.04815674,0.8590698,-1.125,0.046875,0.671875
1696252420644,-0.64868164,-0.032287598,0.8353882,-0.734375,0.90625,0.453125
1696252420686,-0.6381836,-0.035461426,0.86151123,0.640625,1.578125,0.203125
1696252420724,-0.6345215,-0.03717041,0.8600464,0.28125,0.40625,0.296875
1696252420764,-0.62841797,-0.034973145,0.85198975,-1.078125,-0.359375,0.359375
1696252420805,-0.6315918,-0.034240723,0.8510132,0.59375,-0.046875,0.359375
1696252420844,-0.6303711,-0.04425049,0.85369873,-0.171875,0.15625,0.453125
1696252420884,-0.62475586,-0.04156494,0.8588257,0.5625,0.640625,0.296875
1696252420926,-0.6374512,-0.049865723,0.8641968,0.671875,0.375,0.703125
1696252420965,-0.62402344,-0.04473877,0.857605,-1.046875,-0.34375,0.28125
1696252421008,-0.63549805,-0.030822754,0.8595581,-0.3125,-0.453125,0.34375
1696252421046,-0.63500977,-0.032287598,0.86151123,-0.515625,0.453125,0.03125
1696252421085,-0.6320801,-0.034240723,0.84539795,0.3125,0.609375,0.53125
1696252421123,-0.63378906,-0.046203613,0.87127686,0.109375,0.265625,0.40625
1696252421165,-0.61621094,-0.039123535,0.8668823,-0.234375,0.3125,-0.0625
1696252421204,-0.63012695,-0.030090332,0.8649292,0.859375,0.4375,0.140625
1696252421248,-0.62939453,-0.04449463,0.86883545,1.578125,1.171875,0.796875
1696252421284,-0.62475586,-0.04864502,0.8739624,1.21875,1.453125,0.671875
1696252421324,-0.623291,-0.04864502,0.87786865,1.515625,2.1875,0.375
1696252421365,-0.625,-0.05328369,0.8666382,-0.53125,1.25,-0.171875
1696252421404,-0.62231445,-0.047424316,0.8583374,-1.859375,-0.484375,-0.84375
1696252421445,-0.6171875,-0.020812988,0.8641968,-2.421875,-1.6875,-1.390625
1696252421484,-0.6184082,-0.019348145,0.8629761,-2.515625,-1.6875,-0.46875
1696252421502,-0.61621094,-0.02154541,0.84173584,2.4375,-2.546875,-0.15625
1696252421564,-0.6086426,-0.043029785,0.8410034,3.0,-6.0,0.015625
1696252421585,-0.63305664,-0.044006348,0.8703003,2.828125,-3.21875,0.453125
1696252421648,-0.6376953,-0.04888916,0.8768921,0.765625,-5.421875,0.78125
1696252421663,-0.6455078,-0.055725098,0.86639404,-1.796875,-3.140625,-0.265625
1696252421724,-0.6352539,-0.04107666,0.8500366,-1.25,-2.03125,-0.859375
1696252421765,-0.63134766,-0.02520752,0.8510132,-0.140625,0.0,-0.421875
1696252421783,-0.6538086,-0.039123535,0.84906006,-1.28125,0.234375,0.921875
1696252421825,-0.6357422,-0.044006348,0.85736084,0.0625,1.1875,0.609375
1696252421885,-0.63305664,-0.055725098,0.8690796,0.546875,0.3125,0.40625
1696252421902,-0.63378906,-0.037902832,0.871521,0.65625,0.03125,0.203125
1696252421944,-0.6435547,-0.0413208,0.8485718,-1.203125,-0.953125,0.8125
1696252421985,-0.6435547,-0.030822754,0.8422241,-0.59375,0.078125,0.0
1696252422026,-0.6359863,-0.03668213,0.84198,0.34375,0.96875,0.234375
1696252422064,-0.6347656,-0.047424316,0.86883545,0.28125,0.1875,0.765625
1696252422105,-0.6386719,-0.046447754,0.8600464,-0.890625,-0.203125,0.6875
1696252422144,-0.6340332,-0.039367676,0.85028076,-1.015625,0.375,0.28125
1696252422185,-0.6296387,-0.04498291,0.84783936,0.09375,0.359375,0.390625
1696252422225,-0.63500977,-0.04083252,0.86834717,-0.0625,-0.34375,0.5
1696252422266,-0.6274414,-0.039367676,0.85369873,-0.1875,0.046875,0.421875
1696252422306,-0.62841797,-0.045959473,0.8644409,-0.171875,0.4375,0.578125
1696252422346,-0.6335449,-0.031311035,0.8571167,0.265625,0.765625,0.75
1696252422385,-0.6359863,-0.04425049,0.86151123,0.71875,1.359375,0.65625
1696252422425,-0.62719727,-0.04864502,0.854187,-0.015625,1.0625,0.53125
1696252422464,-0.6230469,-0.030578613,0.8619995,0.046875,-0.875,-0.078125
1696252422526,-0.62890625,-0.034973145,0.82928467,0.796875,-3.578125,-0.765625
1696252422544,-0.6398926,-0.038879395,0.855896,2.140625,-3.40625,-0.8125
1696252422605,-0.64086914,-0.05621338,0.8602905,0.734375,-3.828125,-0.671875
1696252422647,-0.6345215,-0.06451416,0.8619995,-0.59375,-2.953125,-0.546875
1696252422662,-0.6335449,-0.03326416,0.8695679,0.15625,-1.140625,-0.796875
1696252422705,-0.64208984,-0.032287598,0.84661865,0.28125,0.546875,0.40625
1696252422747,-0.63671875,-0.051086426,0.84954834,-1.21875,1.59375,1.109375
1696252422785,-0.64038086,-0.058898926,0.8427124,-0.6875,-0.109375,0.9375
1696252422804,-0.63549805,-0.043762207,0.85272217,0.390625,-0.265625,0.09375
1696252422845,-0.6340332,-0.04888916,0.8619995,0.21875,-1.625,-0.03125
1696252422885,-0.6496582,-0.034484863,0.8475952,-0.265625,-1.75,-0.109375
1696252422926,-0.6413574,-0.034973145,0.84490967,0.1875,-0.359375,-0.125
1696252422966,-0.640625,-0.049621582,0.838562,-1.515625,-0.109375,0.265625
1696252423003,-0.63671875,-0.035705566,0.8607788,0.625,1.328125,-0.09375
1696252423048,-0.6245117,-0.046447754,0.84832764,1.046875,0.15625,0.953125
1696252423084,-0.6152344,-0.039123535,0.8590698,1.53125,-0.71875,-0.234375
1696252423125,-0.64404297,-0.051330566,0.8480835,-0.109375,-2.4375,0.078125
1696252423164,-0.640625,-0.04058838,0.8529663,-0.328125,-0.953125,-0.359375
1696252423204,-0.64624023,-0.042785645,0.8434448,-0.5,-0.515625,0.34375
1696252423245,-0.6394043,-0.0413208,0.8505249,-0.4375,-0.453125,0.609375
1696252423284,-0.63964844,-0.04937744,0.8619995,0.5625,-0.0625,0.0625
1696252423324,-0.6437988,-0.04449463,0.85028076,-0.28125,-0.328125,-0.078125
1696252423364,-0.6496582,-0.04156494,0.8493042,-1.0,-0.546875,0.0625
1696252423404,-0.63378906,-0.03741455,0.8710327,1.0,1.28125,0.109375
1696252423445,-0.61743164,-0.054748535,0.87249756,0.671875,0.46875,0.578125
1696252423485,-0.6315918,-0.047180176,0.86712646,-0.546875,-1.625,0.5625
1696252423524,-0.64575195,-0.031799316,0.8456421,-1.234375,-1.984375,0.375
1696252423563,-0.64038086,-0.02935791,0.8488159,0.125,0.390625,-0.28125
1696252423604,-0.64208984,-0.046691895,0.8444214,0.40625,0.71875,0.65625
1696252423644,-0.64038086,-0.054016113,0.85858154,-1.03125,1.203125,0.375
1696252423685,-0.6298828,-0.04425049,0.87127686,-1.125,1.984375,0.46875
1696252423724,-0.62646484,-0.035217285,0.88690186,1.765625,4.578125,0.859375
1696252423764,-0.623291,-0.06085205,0.8781128,3.90625,4.140625,2.109375
1696252423804,-0.62890625,-0.07281494,0.8644409,1.421875,0.9375,2.125
1696252423845,-0.62841797,-0.054016113,0.86468506,0.5,0.453125,0.1875
1696252423892,-0.63671875,-0.043273926,0.84906006,-2.75,-0.796875,-0.953125
1696252423923,-0.62475586,-0.04034424,0.8500366,-2.296875,-0.171875,-1.265625
1696252423965,-0.61450195,-0.045715332,0.85565186,-2.546875,-1.46875,-0.78125
1696252424010,-0.6118164,-0.042785645,0.84954834,-2.609375,-3.03125,-0.6875
1696252424045,-0.623291,-0.020324707,0.84490967,2.25,-5.34375,-0.859375
1696252424097,-0.63623047,-0.031555176,0.84832764,3.625,-7.453125,0.15625
1696252424104,-0.626709,-0.044006348,0.87493896,0.78125,-3.359375,0.203125
1696252424144,-0.63305664,-0.058654785,0.87005615,-1.0,-3.34375,0.625
1696252424205,-0.64404297,-0.05645752,0.83587646,-0.75,-3.03125,-0.015625
1696252424223,-0.6401367,-0.03643799,0.8641968,-0.171875,-1.21875,-0.859375
1696252424265,-0.64404297,-0.03717041,0.8590698,-1.34375,-0.078125,0.40625
1696252424304,-0.66186523,-0.03692627,0.84002686,-1.21875,0.390625,1.390625
1696252424345,-0.64404297,-0.049621582,0.836853,-0.015625,1.375,0.515625
1696252424385,-0.6320801,-0.0335083,0.8602905,-0.359375,0.875,-0.1875
1696252424425,-0.6477051,-0.044006348,0.8590698,0.046875,-0.171875,0.875
1696252424465,-0.6447754,-0.047912598,0.8497925,-0.953125,-0.25,0.859375
1696252424506,-0.642334,-0.024963379,0.86102295,0.1875,0.28125,-0.328125
1696252424545,-0.6340332,-0.04083252,0.855896,0.484375,0.3125,0.421875
1696252424585,-0.63134766,-0.04840088,0.84295654,-0.3125,-0.125,0.28125
1696252424624,-0.6467285,-0.039611816,0.8517456,-0.390625,0.25,0.484375
1696252424666,-0.6447754,-0.04498291,0.857605,0.40625,0.15625,0.90625
1696252424704,-0.6333008,-0.049865723,0.84954834,0.84375,0.8125,0.5625
1696252424766,-0.6323242,-0.04840088,0.869812,0.109375,0.015625,0.203125
1696252424783,-0.63134766,-0.039611816,0.8539429,0.3125,-0.046875,0.484375
1696252424825,-0.62597656,-0.04498291,0.84588623,0.390625,0.203125,0.671875
1696252424864,-0.6281738,-0.050598145,0.8666382,-0.0625,-0.28125,0.59375
1696252424904,-0.6279297,-0.04156494,0.8505249,-0.296875,0.53125,0.40625
1696252424966,-0.63500977,-0.039367676,0.871521,-0.265625,1.09375,0.21875
1696252424984,-0.6381836,-0.03741455,0.8563843,0.4375,1.46875,0.46875
1696252425024,-0.6245117,-0.049621582,0.85980225,2.46875,3.40625,0.875
1696252425064,-0.61743164,-0.043518066,0.88739014,3.203125,4.078125,0.484375
1696252425105,-0.6303711,-0.07867432,0.86224365,0.375,1.5625,0.890625
1696252425145,-0.62939453,-0.051330566,0.855896,-3.296875,-1.453125,-0.890625
1696252425184,-0.625,-0.02545166,0.8632202,-3.109375,-2.296875,-2.109375
1696252425246,-0.6101074,-0.030822754,0.8602905,-2.6875,-1.46875,-1.34375
1696252425285,-0.61450195,-0.046203613,0.8637085,-1.53125,-0.390625,-0.09375
1696252425303,-0.6125488,-0.043029785,0.852478,-2.34375,-1.359375,0.046875
1696252425346,-0.61938477,-0.017150879,0.8463745,2.265625,-3.3125,-0.390625
1696252425385,-0.6335449,-0.018615723,0.83392334,3.59375,-5.796875,0.703125
1696252425422,-0.63500977,-0.034973145,0.8602905,1.0625,-2.984375,1.015625
1696252425443,-0.6254883,-0.047424316,0.86639404,-1.765625,-1.8125,1.15625
1696252425484,-0.640625,-0.050109863,0.86273193,-0.828125,-1.578125,-0.046875
1696252425522,-0.63500977,-0.050109863,0.86932373,1.265625,-0.140625,0.375
1696252425564,-0.6303711,-0.04522705,0.87005615,-0.828125,-0.125,0.59375
1696252425607,-0.6477051,-0.024719238,0.86102295,-0.796875,0.828125,0.734375
1696252425646,-0.64331055,-0.047424316,0.85369873,-1.3125,1.140625,0.984375
1696252425685,-0.6308594,-0.06109619,0.852478,-0.265625,0.734375,0.15625
1696252425723,-0.63378906,-0.047424316,0.8641968,-0.828125,-0.84375,0.453125
1696252425764,-0.642334,-0.031066895,0.86395264,-0.484375,0.609375,0.8125
1696252425805,-0.6269531,-0.031799316,0.85443115,0.953125,2.078125,0.375
1696252425846,-0.6101074,-0.04034424,0.86053467,0.078125,0.734375,-0.375
1696252425884,-0.61279297,-0.035705566,0.8727417,-0.515625,-1.21875,-0.140625
1696252425923,-0.63012695,-0.035217285,0.8554077,0.125,-0.84375,0.78125
1696252425965,-0.63134766,-0.047912598,0.86590576,-0.328125,0.578125,0.90625
1696252426007,-0.6333008,-0.03741455,0.8644409,-0.9375,-0.546875,0.625
1696252426046,-0.63134766,-0.045715332,0.85272217,-0.734375,-0.734375,0.1875
1696252426085,-0.63623047,-0.04522705,0.8588257,1.125,-0.296875,0.296875
1696252426125,-0.6359863,-0.034729004,0.8468628,-0.4375,0.03125,-0.0625
1696252426165,-0.6237793,-0.034240723,0.8722534,-0.1875,0.375,0.015625
1696252426204,-0.6196289,-0.032287598,0.86932373,1.28125,0.734375,0.296875
1696252426244,-0.6047363,-0.040100098,0.8563843,0.75,-0.15625,0.359375
1696252426284,-0.6123047,-0.045959473,0.871521,-0.09375,-1.015625,0.40625
1696252426324,-0.63305664,-0.043762207,0.87323,0.046875,-1.078125,0.5625
1696252426365,-0.6315918,-0.050598145,0.855896,-0.5625,-1.109375,0.328125
1696252426405,-0.6369629,-0.03326416,0.86273193,1.4375,-1.65625,0.109375
1696252426445,-0.625,-0.04547119,0.8534546,-0.765625,-1.40625,-0.234375
1696252426486,-0.6279297,-0.03765869,0.84906006,0.0625,-0.953125,-0.28125
1696252426525,-0.6398926,-0.04498291,0.8866577,2.59375,0.515625,0.25
1696252426568,-0.62646484,-0.066711426,0.8641968,1.078125,0.859375,0.890625
1696252426604,-0.6152344,-0.038146973,0.84954834,-0.71875,-0.546875,0.265625
1696252426644,-0.62597656,-0.031799316,0.86151123,-0.515625,-0.28125,0.1875
1696252426684,-0.6230469,-0.046936035,0.8617554,0.328125,-0.234375,0.34375
1696252426726,-0.61987305,-0.046691895,0.8590698,0.75,-0.5625,0.3125
1696252426744,-0.6218262,-0.05206299,0.8617554,-0.109375,-0.53125,0.21875
1696252426783,-0.63183594,-0.046447754,0.857605,-0.671875,-1.125,0.265625
1696252426826,-0.62475586,-0.044006348,0.8600464,0.78125,0.0,-0.203125
1696252426864,-0.62597656,-0.054748535,0.86761475,0.375,-0.15625,0.28125
1696252426905,-0.6269531,-0.043029785,0.8485718,-0.65625,-0.515625,0.375
1696252426945,-0.6323242,-0.046691895,0.85858154,-0.046875,-0.9375,0.3125
1696252426984,-0.62402344,-0.05206299,0.86590576,0.203125,-0.53125,-0.375
1696252427044,-0.6245117,-0.039367676,0.8673706,1.0,-0.859375,-0.03125
1696252427063,-0.6320801,-0.058898926,0.854187,-1.03125,-1.640625,0.40625
1696252427105,-0.62597656,-0.038391113,0.85321045,0.453125,-0.40625,-0.625
1696252427167,-0.6286621,-0.04840088,0.8722534,0.46875,-1.515625,0.09375
1696252427183,-0.6254883,-0.043762207,0.8432007,-0.171875,-1.4375,-0.125
1696252427228,-0.6413574,-0.04547119,0.8595581,-0.4375,-2.0625,0.3125
1696252427267,-0.63964844,-0.04815674,0.85736084,-0.09375,-0.234375,-0.078125
1696252427306,-0.6254883,-0.047424316,0.8512573,0.328125,-0.203125,-0.078125
1696252427344,-0.62646484,-0.035949707,0.87420654,-0.125,0.171875,0.171875
1696252427383,-0.63500977,-0.04156494,0.86468506,-0.5,0.078125,0.640625
1696252427424,-0.62231445,-0.04840088,0.84417725,0.125,0.796875,0.296875
1696252427465,-0.62841797,-0.05718994,0.86761475,-0.828125,0.265625,0.71875
1696252427504,-0.6191406,-0.043273926,0.87249756,-1.34375,0.375,0.625
1696252427566,-0.6328125,-0.04473877,0.87298584,1.578125,1.21875,1.109375
1696252427583,-0.609375,-0.054992676,0.86102295,1.1875,1.46875,0.609375
1696252427644,-0.6196289,-0.054016113,0.8793335,2.375,1.71875,0.5625
1696252427663,-0.62841797,-0.07159424,0.86590576,0.125,0.5,0.671875
1696252427704,-0.623291,-0.05206299,0.87054443,-0.734375,0.703125,-0.359375
1696252427743,-0.61328125,-0.043029785,0.86834717,-0.65625,0.6875,-0.765625
1696252427785,-0.625,-0.055725098,0.86102295,-1.0625,0.296875,-0.546875
1696252427824,-0.61743164,-0.049621582,0.86834717,-0.40625,-1.34375,-0.53125
1696252427863,-0.6081543,-0.039611816,0.8554077,1.96875,-5.71875,-1.78125
1696252427905,-0.6225586,-0.039855957,0.8456421,5.359375,-8.734375,-1.875
1696252427943,-0.6262207,-0.04449463,0.8588257,-0.71875,-7.578125,-0.875
1696252427984,-0.64208984,-0.030334473,0.83465576,-1.890625,-4.34375,0.609375
1696252428042,-0.63793945,-0.06793213,0.83758545,-0.703125,-1.0,1.53125
1696252428062,-0.6381836,-0.065979004,0.8395386,1.375,-2.859375,0.15625
1696252428083,-0.65405273,-0.04864502,0.85443115,1.65625,-2.375,-0.4375
1696252428124,-0.64404297,-0.042541504,0.84002686,-0.390625,0.953125,0.109375
1696252428164,-0.6477051,-0.042785645,0.8329468,-1.03125,1.640625,1.390625
1696252428206,-0.6484375,-0.041809082,0.87127686,-0.546875,1.859375,0.359375
1696252428244,-0.6352539,-0.061828613,0.83392334,-1.0,-0.375,0.5
1696252428288,-0.63427734,-0.05670166,0.83587646,-0.609375,-0.5,0.515625
1696252428324,-0.64990234,-0.04522705,0.836853,1.296875,-0.59375,0.828125
1696252428365,-0.6569824,-0.047912598,0.85809326,3.953125,1.296875,1.875
1696252428405,-0.6374512,-0.059143066,0.84368896,-0.046875,1.0625,1.453125
1696252428444,-0.6435547,-0.06549072,0.8493042,-1.25,0.140625,0.203125
1696252428486,-0.6452637,-0.05303955,0.85028076,0.65625,0.515625,-0.078125
1696252428525,-0.63916016,-0.06695557,0.8422241,-0.421875,0.453125,0.140625
1696252428565,-0.6347656,-0.06524658,0.86590576,-0.671875,0.46875,0.234375
1696252428606,-0.6315918,-0.059143066,0.8546753,0.265625,0.453125,0.40625
1696252428645,-0.6291504,-0.05279541,0.8668823,0.5,-0.03125,0.375
1696252428684,-0.6315918,-0.054260254,0.86590576,-0.328125,0.171875,0.5625
1696252428724,-0.63012695,-0.049621582,0.8546753,-0.5625,0.21875,0.03125
1696252428765,-0.6303711,-0.05328369,0.8583374,0.828125,0.765625,0.171875
1696252428804,-0.6328125,-0.082092285,0.8331909,-2.796875,0.6875,0.40625
1696252428846,-0.6398926,-0.043518066,0.84588623,-3.734375,-3.59375,-1.265625
1696252428886,-0.63623047,-0.042053223,0.8656616,-0.203125,-0.28125,-1.0625
1696252428925,-0.62719727,-0.047912598,0.86468506,0.46875,0.65625,0.109375
1696252428969,-0.6364746,-0.05206299,0.86224365,-0.515625,0.65625,1.0625
1696252429007,-0.62890625,-0.042785645,0.84832764,-1.296875,0.375,0.4375
1696252429046,-0.62646484,-0.04815674,0.84173584,0.90625,-0.296875,0.46875
1696252429085,-0.638916,-0.04473877,0.8612671,1.609375,-0.75,0.3125
1696252429125,-0.64990234,-0.047180176,0.8668823,1.671875,-1.015625,-0.078125
1696252429165,-0.62158203,-0.03765869,0.8641968,4.921875,-0.84375,0.609375
1696252429206,-0.6357422,-0.08306885,0.8439331,0.875,-4.5,1.8125
1696252429245,-0.62475586,-0.062805176,0.8427124,-1.0625,-3.84375,-0.296875
1696252429285,-0.63500977,-0.0647583,0.8534546,-0.171875,-2.078125,-0.453125
1696252429364,-0.63842773,-0.050354004,0.8534546,0.328125,-0.796875,-0.25
1696252429366,-0.6591797,-0.057678223,0.854187,0.203125,0.6875,0.765625
1696252429383,-0.66259766,-0.058166504,0.84173584,-0.234375,-1.359375,0.90625
1696252429424,-0.6376953,-0.065979004,0.8505249,1.53125,0.109375,-0.421875
1696252429464,-0.62475586,-0.062561035,0.85272217,-1.9375,-0.4375,-0.875
1696252429503,-0.6303711,-0.046936035,0.8578491,-1.28125,-0.34375,-0.28125
1696252429542,-0.64453125,-0.042053223,0.84002686,-1.265625,-0.984375,0.796875
1696252429603,-0.6411133,-0.061340332,0.84198,-0.78125,-0.0625,-0.046875
1696252429622,-0.6455078,-0.05645752,0.84051514,-0.328125,0.375,0.203125
1696252429663,-0.642334,-0.06060791,0.84710693,-0.359375,0.4375,0.6875
1696252429704,-0.65478516,-0.043029785,0.857605,0.0625,0.359375,0.828125
1696252429743,-0.6437988,-0.06109619,0.8373413,-0.546875,0.4375,0.390625
1696252429808,-0.6308594,-0.05328369,0.8656616,-0.0625,0.25,0.109375
1696252429824,-0.6359863,-0.04547119,0.8446655,-0.03125,-0.015625,-0.09375
1696252429864,-0.63842773,-0.04522705,0.8590698,-0.265625,-0.4375,0.328125
1696252429905,-0.6345215,-0.05230713,0.840271,-0.265625,-0.4375,0.25
1696252429944,-0.6357422,-0.058410645,0.85931396,-0.03125,-1.109375,0.21875
1696252429984,-0.63061523,-0.053771973,0.8654175,-0.234375,-0.859375,0.0625
1696252430023,-0.64453125,-0.047912598,0.8488159,-0.375,0.03125,0.1875
1696252430065,-0.65063477,-0.054260254,0.840271,0.265625,0.84375,0.671875
1696252430104,-0.63134766,-0.06402588,0.84783936,1.234375,1.671875,0.0625
1696252430144,-0.6279297,-0.054992676,0.8641968,1.296875,1.09375,0.390625
1696252430185,-0.6257324,-0.053527832,0.8703003,3.140625,1.078125,1.03125
1696252430226,-0.62646484,-0.061584473,0.8744507,2.1875,1.421875,1.1875
1696252430264,-0.6315918,-0.07305908,0.87542725,2.34375,1.609375,1.53125
1696252430327,-0.6352539,-0.09918213,0.84906006,-0.546875,2.25,1.25
1696252430343,-0.62890625,-0.05670166,0.8624878,-5.890625,3.390625,-1.5
1696252430385,-0.63012695,-0.026916504,0.85736084,-4.0,1.703125,-1.796875
1696252430446,-0.61694336,-0.050109863,0.8781128,-1.28125,2.875,-0.0625
1696252430463,-0.6027832,-0.058898926,0.8903198,-0.15625,3.4375,0.53125
1696252430505,-0.5969238,-0.06719971,0.8534546,-2.796875,-0.765625,-0.140625
1696252430546,-0.61376953,-0.030578613,0.86395264,-0.109375,-2.734375,-1.0
1696252430584,-0.60009766,-0.035217285,0.8551636,1.8125,-4.09375,-0.734375
1696252430625,-0.61499023,-0.035217285,0.8422241,-0.765625,-6.78125,-0.6875
1696252430664,-0.6281738,-0.050354004,0.8612671,-0.90625,-4.71875,0.609375
1696252430683,-0.6364746,-0.05621338,0.8595581,-2.609375,-3.296875,0.875
1696252430725,-0.6298828,-0.049865723,0.87127686,-2.140625,-2.59375,-0.453125
1696252430767,-0.6394043,-0.04107666,0.8578491,-0.484375,-0.75,0.0625
1696252430806,-0.6335449,-0.041809082,0.857605,0.921875,0.03125,0.90625
1696252430844,-0.6359863,-0.037902832,0.85980225,-0.4375,0.453125,0.5625
1696252430884,-0.62719727,-0.046447754,0.8583374,0.171875,-0.546875,-0.046875
1696252430924,-0.62280273,-0.050354004,0.86468506,-0.125,-1.25,0.09375
1696252430964,-0.6333008,-0.047180176,0.8629761,-0.4375,-1.421875,0.40625
1696252431005,-0.62939453,-0.03277588,0.84954834,-0.3125,0.6875,0.296875
1696252431045,-0.638916,-0.04425049,0.8637085,-0.125,0.328125,0.53125
1696252431086,-0.6262207,-0.04547119,0.8461304,-0.59375,0.734375,0.390625
1696252431126,-0.6291504,-0.040100098,0.8666382,0.078125,0.734375,0.421875
1696252431169,-0.6315918,-0.04888916,0.8497925,0.9375,-0.078125,0.875
1696252431205,-0.6254883,-0.047912598,0.857605,-0.109375,0.1875,0.375
1696252431245,-0.6269531,-0.03741455,0.8637085,-0.625,-0.546875,0.046875
1696252431287,-0.6191406,-0.03692627,0.8566284,0.265625,0.0625,-0.125
1696252431325,-0.63793945,-0.059143066,0.86517334,0.8125,-0.4375,1.171875
1696252431369,-0.62475586,-0.051330566,0.8510132,-0.65625,-0.09375,0.546875
1696252431404,-0.62353516,-0.037902832,0.869812,0.953125,0.515625,0.15625
1696252431445,-0.6237793,-0.04473877,0.86346436,0.953125,0.484375,-0.015625
1696252431487,-0.62939453,-0.05255127,0.86639404,0.21875,0.0,0.71875
1696252431525,-0.6291504,-0.05279541,0.86273193,-1.171875,0.03125,0.65625
1696252431565,-0.61938477,-0.04058838,0.8707886,-0.34375,0.0,0.078125
1696252431605,-0.61938477,-0.04156494,0.8632202,1.328125,-0.84375,0.03125
1696252431645,-0.6201172,-0.044006348,0.8607788,0.96875,-0.8125,-0.046875
1696252431685,-0.6274414,-0.050354004,0.8641968,0.875,-0.921875,0.75
1696252431727,-0.62402344,-0.06304932,0.8546753,1.28125,0.4375,0.34375
1696252431763,-0.61938477,-0.0491333,0.869812,-0.125,-0.9375,-0.15625
1696252431805,-0.61376953,-0.03326416,0.8629761,-0.390625,-0.890625,-0.109375
1696252431844,-0.6281738,-0.038391113,0.86761475,-0.109375,-0.65625,0.53125
1696252431885,-0.62524414,-0.05670166,0.8759155,0.453125,-0.109375,0.4375
1696252431926,-0.62109375,-0.059631348,0.85736084,-0.40625,-0.6875,0.109375
1696252431966,-0.625,-0.046447754,0.86834717,-0.09375,-1.28125,0.03125
1696252431984,-0.6298828,-0.04815674,0.85858154,0.96875,-0.765625,0.03125
1696252432024,-0.6220703,-0.05206299,0.8554077,0.25,-0.390625,0.03125
1696252432065,-0.62060547,-0.054260254,0.86102295,0.0625,-0.75,0.234375
1696252432103,-0.63134766,-0.055725098,0.8534546,-0.765625,-1.40625,0.28125
1696252432144,-0.62158203,-0.046691895,0.86639404,-0.015625,-0.953125,-0.125
1696252432184,-0.61572266,-0.05621338,0.86273193,-0.421875,-0.609375,-0.21875
1696252432224,-0.63012695,-0.05279541,0.8773804,-0.640625,-1.515625,0.609375
1696252432266,-0.63916016,-0.04815674,0.85614014,-1.578125,-1.28125,0.078125
1696252432303,-0.6286621,-0.039855957,0.8373413,0.609375,-0.859375,-0.546875
1696252432368,-0.62231445,-0.04815674,0.86395264,0.984375,0.5625,-0.375
1696252432384,-0.62597656,-0.05621338,0.86639404,-0.109375,-0.484375,0.359375
1696252432447,-0.6381836,-0.05670166,0.8759155,-0.6875,-0.125,0.8125
1696252432484,-0.62719727,-0.054748535,0.8512573,-0.5625,-0.5,0.171875
1696252432524,-0.62402344,-0.038391113,0.8595581,-0.171875,-0.21875,-0.09375
1696252432543,-0.625,-0.041809082,0.8722534,-0.34375,-0.3125,0.171875
1696252432584,-0.625,-0.046691895,0.8632202,0.421875,0.609375,0.375
1696252432624,-0.6269531,-0.061584473,0.8505249,-0.140625,0.125,0.828125
1696252432665,-0.62353516,-0.04840088,0.8656616,-0.421875,0.765625,0.5
1696252432705,-0.6257324,-0.04498291,0.8710327,0.8125,2.078125,0.671875
1696252432767,-0.6123047,-0.057434082,0.85443115,0.015625,1.796875,0.46875
1696252432782,-0.6262207,-0.04864502,0.8695679,0.859375,0.90625,0.640625
1696252432847,-0.6201172,-0.055725098,0.87493896,1.125,1.296875,0.203125
1696252432886,-0.62109375,-0.054016113,0.87371826,1.96875,2.109375,0.484375
1696252432905,-0.6022949,-0.066467285,0.86517334,-0.234375,1.03125,-0.078125
1696252432968,-0.61621094,-0.054748535,0.8825073,0.46875,0.34375,-0.75
1696252432984,-0.6188965,-0.06793213,0.8834839,-0.234375,-0.453125,-0.171875
1696252433051,-0.6125488,-0.06939697,0.88201904,-1.484375,0.15625,0.84375
1696252433084,-0.60668945,-0.038146973,0.8629761,-2.46875,0.03125,-0.421875
1696252433122,-0.60009766,-0.03717041,0.8673706,-2.0,-0.671875,-1.140625
1696252433143,-0.60131836,-0.034240723,0.8607788,-1.09375,-1.75,-1.03125
1696252433183,-0.60595703,-0.042541504,0.854187,1.359375,-3.625,-0.4375
1696252433223,-0.61376953,-0.046203613,0.8395386,1.3125,-5.25,-0.234375
1696252433303,-0.6269531,-0.039367676,0.8746948,0.265625,-5.671875,-0.125
1696252433305,-0.6298828,-0.051818848,0.87298584,0.171875,-4.140625,0.375
1696252433323,-0.6262207,-0.054992676,0.8722534,-0.625,-1.953125,0.703125
1696252433363,-0.6245117,-0.049865723,0.852478,-1.625,-1.671875,-0.0625
1696252433404,-0.6328125,-0.034973145,0.8529663,-0.765625,-0.40625,-0.25
1696252433443,-0.64208984,-0.03375244,0.8578491,0.09375,0.828125,1.109375
1696252433484,-0.63671875,-0.05621338,0.8512573,-0.03125,0.375,1.015625
1696252433524,-0.6201172,-0.053527832,0.85980225,0.125,-0.21875,-0.03125
1696252433562,-0.62353516,-0.038635254,0.86151123,0.0625,-1.09375,-0.03125
1696252433603,-0.6315918,-0.04034424,0.8488159,-0.578125,-1.4375,0.46875
1696252433644,-0.6347656,-0.04083252,0.8644409,0.421875,-0.09375,0.109375
1696252433684,-0.6291504,-0.04083252,0.869812,0.90625,0.125,0.203125
1696252433724,-0.62280273,-0.04815674,0.8690796,-0.734375,-0.34375,0.625
1696252433764,-0.63720703,-0.051086426,0.86883545,-0.78125,-0.421875,0.578125
1696252433804,-0.6291504,-0.043518066,0.86053467,-0.75,0.421875,0.28125
1696252433845,-0.6245117,-0.031555176,0.86932373,-0.4375,0.234375,0.03125
1696252433884,-0.63427734,-0.035705566,0.8624878,0.984375,0.59375,0.40625
1696252433924,-0.6308594,-0.059387207,0.85931396,-0.5,-0.5,0.953125
1696252433966,-0.62939453,-0.043518066,0.8600464,-0.671875,-0.59375,-0.1875
1696252434005,-0.63183594,-0.039367676,0.8595581,0.453125,0.28125,0.015625
1696252434045,-0.62597656,-0.047668457,0.869812,0.390625,0.125,0.5625
1696252434088,-0.6257324,-0.050842285,0.85858154,-0.21875,0.5,0.484375
1696252434123,-0.62524414,-0.042785645,0.8695679,-0.046875,0.296875,0.09375
1696252434166,-0.6298828,-0.04107666,0.85980225,0.53125,1.671875,0.171875
1696252434205,-0.6208496,-0.049621582,0.86834717,0.0625,2.078125,0.609375
1696252434246,-0.6213379,-0.054748535,0.8666382,0.046875,1.546875,0.78125
1696252434284,-0.61376953,-0.04498291,0.8654175,-0.4375,0.375,-0.03125
1696252434325,-0.6113281,-0.038635254,0.8673706,-1.28125,-0.84375,-0.390625
1696252434367,-0.61035156,-0.030334473,0.8678589,-0.8125,-1.375,-0.3125
1696252434407,-0.6230469,-0.038635254,0.8473511,1.421875,-2.765625,0.078125
1696252434446,-0.62890625,-0.04107666,0.8475952,2.015625,-4.90625,-0.046875
1696252434486,-0.63842773,-0.050598145,0.86151123,2.046875,-8.75,-0.71875
1696252434524,-0.6291504,-0.050354004,0.86395264,-0.109375,-6.0625,-0.875
1696252434564,-0.62939453,-0.04547119,0.8649292,-1.5625,-3.65625,-0.578125
1696252434605,-0.63623047,-0.043762207,0.8500366,-0.796875,-1.078125,-0.15625
1696252434625,-0.64160156,-0.04864502,0.8475952,0.0625,0.140625,1.03125
1696252434667,-0.640625,-0.04840088,0.8422241,-0.609375,1.34375,1.28125
1696252434725,-0.6525879,-0.044006348,0.85198975,-0.28125,0.96875,0.921875
1696252434763,-0.64038086,-0.057922363,0.8356323,-0.578125,0.359375,0.484375
1696252434785,-0.6437988,-0.036193848,0.8505249,0.109375,0.3125,-0.0625
1696252434827,-0.63256836,-0.043273926,0.84198,-0.6875,-0.375,-0.0625
1696252434875,-0.6376953,-0.04425049,0.8566284,0.46875,0.203125,0.359375
1696252434905,-0.6352539,-0.054260254,0.85321045,-0.625,-0.375,0.859375
1696252434945,-0.63183594,-0.050598145,0.84954834,-0.453125,-0.078125,0.03125
1696252434984,-0.6381836,-0.038635254,0.8602905,-0.046875,0.171875,0.375
1696252435025,-0.6364746,-0.050354004,0.84539795,-0.578125,0.421875,0.5
1696252435087,-0.64160156,-0.04498291,0.8666382,-0.515625,0.359375,0.484375
1696252435125,-0.63623047,-0.04449463,0.8451538,-0.265625,0.015625,0.53125
1696252435144,-0.6296387,-0.04498291,0.8654175,0.109375,0.40625,0.34375
1696252435206,-0.62939453,-0.043273926,0.8673706,-0.078125,-0.03125,0.203125
1696252435245,-0.62939453,-0.039855957,0.85443115,-0.296875,-0.1875,0.171875
1696252435264,-0.6359863,-0.04888916,0.86053467,-0.296875,-0.375,0.65625
1696252435306,-0.6262207,-0.046936035,0.8649292,-0.875,0.875,0.1875
1696252435366,-0.6281738,-0.04107666,0.8632202,-0.40625,1.0625,0.546875
1696252435383,-0.62841797,-0.037902832,0.86395264,0.359375,2.0,0.609375
1696252435446,-0.6296387,-0.050109863,0.86932373,0.90625,2.40625,0.9375
1696252435463,-0.6274414,-0.04547119,0.86346436,0.890625,2.234375,0.78125
1696252435525,-0.62060547,-0.049621582,0.8624878,-0.265625,1.265625,0.328125
1696252435566,-0.61035156,-0.04547119,0.8695679,-1.0625,0.640625,-0.546875
1696252435585,-0.6179199,-0.038635254,0.87371826,-1.4375,-0.1875,-0.484375
1696252435645,-0.6191406,-0.04547119,0.871521,-1.171875,-0.265625,0.359375
1696252435665,-0.61083984,-0.045959473,0.86273193,-1.734375,-1.5625,0.234375
1696252435705,-0.6188965,-0.028381348,0.857605,-1.046875,-1.78125,-0.203125
1696252435767,-0.61938477,-0.03375244,0.8566284,0.703125,-2.203125,-0.09375
1696252435784,-0.6164551,-0.027404785,0.8554077,0.03125,-2.046875,-0.078125
1696252435825,-0.6254883,-0.036193848,0.8661499,-0.1875,-1.765625,0.078125
1696252435867,-0.6274414,-0.04107666,0.8632202,-0.921875,-1.75,0.578125
1696252435926,-0.63012695,-0.041809082,0.8649292,1.0,-1.390625,0.75
1696252435966,-0.6279297,-0.035949707,0.8632202,1.125,-3.296875,0.125
1696252435969,-0.625,-0.03277588,0.8510132,1.71875,-4.34375,-1.046875
1696252436004,-0.62475586,-0.038635254,0.85736084,2.265625,-4.828125,-1.5
1696252436045,-0.6347656,-0.05328369,0.8395386,-0.875,-2.171875,0.125
1696252436086,-0.6459961,-0.046936035,0.8383179,-1.46875,-1.140625,0.65625
1696252436126,-0.6472168,-0.031799316,0.8356323,-0.625,-0.984375,0.28125
1696252436166,-0.64624023,-0.038879395,0.84295654,0.578125,-1.640625,0.21875
1696252436205,-0.6477051,-0.03692627,0.8397827,0.109375,-1.140625,0.140625
1696252436253,-0.6401367,-0.042297363,0.8451538,-0.671875,-0.640625,-0.3125
1696252436285,-0.63720703,-0.04034424,0.8534546,0.75,-0.03125,-0.015625
1696252436325,-0.62890625,-0.0413208,0.8578491,-0.640625,0.578125,0.40625
1696252436365,-0.6335449,-0.037902832,0.8583374,-0.859375,-0.40625,0.609375
1696252436404,-0.640625,-0.03302002,0.84368896,-1.046875,-0.53125,0.453125
1696252436449,-0.6567383,-0.047668457,0.8656616,-0.84375,-1.5,0.3125
1696252436489,-0.64404297,-0.04058838,0.8566284,-0.796875,0.546875,-0.09375
1696252436525,-0.64697266,-0.02935791,0.8590698,-0.5,0.6875,0.21875
1696252436566,-0.6435547,-0.038391113,0.8410034,-1.125,0.140625,0.046875
1696252436604,-0.6381836,-0.04034424,0.8485718,-1.515625,1.234375,-0.0625
1696252436647,-0.6188965,-0.023254395,0.8629761,-1.328125,1.59375,-0.328125
1696252436686,-0.63305664,-0.024963379,0.8649292,-0.359375,1.109375,0.640625
1696252436727,-0.63720703,-0.034729004,0.8607788,-0.484375,0.953125,1.390625
1696252436767,-0.62768555,-0.0413208,0.8510132,-1.09375,0.109375,0.46875
1696252436804,-0.6296387,-0.035461426,0.84368896,1.109375,-1.609375,-0.125
1696252436845,-0.63671875,-0.027893066,0.8539429,1.015625,-2.140625,-0.390625
1696252436884,-0.64501953,-0.031555176,0.85321045,1.34375,-1.9375,0.1875
1696252436927,-0.6472168,-0.039367676,0.84954834,2.015625,-3.5625,0.078125
1696252436965,-0.6413574,-0.046936035,0.8353882,1.46875,-2.96875,-0.828125
1696252437005,-0.6398926,-0.0335083,0.8588257,1.90625,-2.4375,-1.015625
1696252437043,-0.64404297,-0.031066895,0.85931396,1.109375,-0.515625,0.015625
1696252437086,-0.64868164,-0.054260254,0.8510132,-0.3125,-0.671875,0.96875
1696252437127,-0.6352539,-0.047180176,0.8475952,0.0,-0.578125,-0.015625
1696252437164,-0.64086914,-0.035461426,0.855896,0.296875,-1.171875,-0.390625
1696252437247,-0.6447754,-0.036193848,0.85980225,0.109375,-0.25,0.125
1696252437250,-0.65356445,-0.044006348,0.84710693,-0.5,0.546875,0.84375
1696252437264,-0.63842773,-0.036193848,0.8485718,-0.453125,1.34375,0.3125
1696252437304,-0.63671875,-0.035461426,0.8497925,-0.078125,1.359375,0.90625
1696252437365,-0.6394043,-0.046691895,0.8500366,-0.390625,1.328125,0.90625
1696252437405,-0.64990234,-0.042785645,0.8485718,-0.625,0.40625,0.6875
1696252437424,-0.6425781,-0.043273926,0.8451538,-0.515625,0.609375,0.34375
1696252437463,-0.6333008,-0.024963379,0.86712646,0.5625,1.078125,0.109375
1696252437504,-0.6398926,-0.042297363,0.84539795,0.703125,1.03125,1.0
1696252437544,-0.63305664,-0.049865723,0.84295654,3.8125,-0.5,1.125
1696252437583,-0.6208496,-0.053771973,0.86590576,3.375,0.328125,0.21875
1696252437625,-0.62475586,-0.04034424,0.8637085,-0.640625,-2.234375,0.0
1696252437668,-0.638916,-0.039123535,0.8500366,-0.640625,-1.859375,-0.1875
1696252437704,-0.6411133,-0.042053223,0.85614014,0.8125,-0.859375,-0.109375
1696252437744,-0.6335449,-0.058898926,0.8505249,-0.5625,-1.75,0.25
1696252437785,-0.6464844,-0.046936035,0.8522339,-0.703125,-1.515625,-0.1875
1696252437824,-0.64038086,-0.04425049,0.8473511,0.421875,-0.625,-0.21875
1696252437865,-0.6376953,-0.043029785,0.8551636,0.046875,0.90625,0.5
1696252437905,-0.63720703,-0.054748535,0.85614014,-0.4375,1.28125,1.0625
1696252437958,-0.6315918,-0.05279541,0.855896,-1.0,2.078125,0.90625
1696252437986,-0.6323242,-0.04107666,0.8588257,-0.59375,0.65625,0.65625
1696252438025,-0.6340332,-0.046447754,0.8475952,-0.546875,-1.578125,0.71875
1696252438065,-0.63916016,-0.04864502,0.84368896,1.109375,-3.1875,0.1875
1696252438105,-0.6508789,-0.051086426,0.8378296,3.609375,-6.078125,-0.734375
1696252438147,-0.6369629,-0.04522705,0.8632202,3.03125,-4.734375,-1.765625
1696252438184,-0.64208984,-0.054504395,0.8522339,1.453125,-4.203125,-0.546875
1696252438224,-0.64331055,-0.058166504,0.8446655,-0.859375,-1.75,0.375
1696252438264,-0.654541,-0.0647583,0.8539429,0.625,-0.25,0.515625
1696252438305,-0.6386719,-0.06304932,0.85443115,-1.1875,1.875,-0.0625
1696252438345,-0.6501465,-0.039367676,0.82806396,-1.703125,-0.265625,0.46875
1696252438386,-0.65893555,-0.04425049,0.85150146,-0.453125,-1.015625,0.828125
1696252438424,-0.6582031,-0.054504395,0.83636475,-0.5,0.265625,-0.078125
1696252438464,-0.6496582,-0.05621338,0.84368896,-0.1875,-0.234375,-0.40625
1696252438506,-0.6477051,-0.04547119,0.8485718,0.1875,-1.078125,-0.234375
1696252438547,-0.657959,-0.062805176,0.82684326,-0.046875,-1.578125,0.21875
1696252438564,-0.6496582,-0.042785645,0.8461304,0.453125,-0.125,0.0
1696252438604,-0.6520996,-0.04107666,0.83465576,-0.09375,-0.359375,0.34375
1696252438644,-0.6542969,-0.054992676,0.85198975,-0.09375,-0.71875,0.203125
1696252438684,-0.6491699,-0.050842285,0.83270264,-0.71875,-1.109375,-0.03125
1696252438726,-0.6496582,-0.04425049,0.8510132,0.53125,-0.203125,-0.015625
1696252438764,-0.640625,-0.05230713,0.84832764,-0.15625,-0.3125,0.03125
1696252438804,-0.66015625,-0.04937744,0.8414917,0.0625,-1.703125,0.5
1696252438843,-0.6574707,-0.047912598,0.83758545,0.28125,-1.109375,0.5
1696252438886,-0.6520996,-0.04815674,0.8432007,-0.015625,-0.09375,-0.078125
1696252438929,-0.64575195,-0.05206299,0.84368896,-0.203125,-0.515625,-0.125
1696252438965,-0.6491699,-0.054260254,0.8444214,-0.53125,0.03125,0.46875
1696252439005,-0.6467285,-0.046447754,0.83270264,-0.078125,-0.59375,0.046875
1696252439047,-0.6616211,-0.051818848,0.8451538,0.203125,-0.921875,0.109375
1696252439084,-0.6582031,-0.04937744,0.84368896,0.4375,-1.0625,0.0625
1696252439126,-0.65283203,-0.051574707,0.84246826,0.09375,-1.578125,0.1875
1696252439164,-0.6472168,-0.04840088,0.8307495,0.25,-1.5,-0.515625
1696252439207,-0.6477051,-0.042785645,0.84417725,-0.390625,-0.609375,-0.328125
1696252439244,-0.65527344,-0.058898926,0.8517456,-0.921875,0.96875,0.484375
1696252439285,-0.6467285,-0.04888916,0.8446655,-1.65625,1.484375,0.859375
1696252439328,-0.64453125,-0.035949707,0.8510132,-3.875,1.453125,0.484375
1696252439364,-0.64453125,-0.030090332,0.8497925,-5.296875,2.03125,0.265625
1696252439408,-0.64404297,-0.022277832,0.8707886,-3.421875,5.28125,0.140625
1696252439444,-0.6479492,-0.034484863,0.87298584,3.515625,6.375,2.375
1696252439486,-0.6303711,-0.06549072,0.8493042,3.53125,2.203125,3.90625
1696252439524,-0.6437988,-0.06109619,0.8607788,1.453125,-0.890625,1.5625
1696252439566,-0.65283203,-0.042053223,0.8727417,1.3125,1.515625,-0.984375
1696252439606,-0.63500977,-0.04107666,0.84246826,0.59375,2.515625,-0.46875
1696252439644,-0.6074219,-0.047912598,0.8395386,-1.15625,3.109375,-0.765625
1696252439683,-0.60253906,-0.042053223,0.8407593,-2.765625,-1.015625,-0.453125
1696252439724,-0.62109375,-0.022521973,0.8395386,-1.375,-6.140625,-0.78125
1696252439763,-0.63916016,-0.03668213,0.83587646,4.234375,-7.703125,0.015625
1696252439806,-0.638916,-0.053771973,0.86102295,6.78125,-3.421875,1.171875
1696252439865,-0.6413574,-0.05645752,0.8571167,1.640625,-6.46875,0.859375
1696252439869,-0.64819336,-0.06964111,0.8656616,0.15625,-1.78125,-1.09375
1696252439904,-0.6335449,-0.05255127,0.8571167,-1.078125,-0.28125,-0.953125
1696252439987,-0.6357422,-0.04058838,0.85614014,-2.09375,-0.078125,0.03125
1696252439993,-0.657959,-0.04156494,0.8395386,-1.578125,0.09375,1.671875
1696252440023,-0.6538086,-0.06011963,0.8432007,-0.6875,0.65625,1.53125
1696252440064,-0.63916016,-0.062316895,0.85272217,0.375,0.921875,-0.171875
1696252440104,-0.64331055,-0.050354004,0.8602905,-0.40625,-1.5625,-0.421875
1696252440145,-0.6496582,-0.055236816,0.8378296,-0.484375,-2.171875,0.234375
1696252440185,-0.6508789,-0.047668457,0.82855225,-0.140625,0.625,-0.03125
1696252440224,-0.6484375,-0.046691895,0.84832764,0.15625,-0.625,0.390625
1696252440265,-0.6315918,-0.04864502,0.8617554,0.296875,-0.125,-0.0625
1696252440305,-0.6464844,-0.05230713,0.8624878,0.125,-0.015625,0.34375
1696252440345,-0.64282227,-0.055480957,0.85858154,-0.796875,-0.078125,0.453125
1696252440384,-0.64404297,-0.047424316,0.85076904,-0.296875,0.875,-0.109375
1696252440425,-0.64746094,-0.04425049,0.8329468,-0.390625,-0.0625,0.140625
1696252440466,-0.640625,-0.051330566,0.83709717,-0.828125,0.0,0.421875
1696252440506,-0.6359863,-0.04449463,0.8512573,0.0,-0.265625,0.484375
1696252440545,-0.6374512,-0.0491333,0.8554077,-0.03125,-0.234375,0.09375
1696252440587,-0.6437988,-0.05303955,0.8661499,0.203125,0.171875,0.75
1696252440629,-0.6315918,-0.038146973,0.8512573,1.015625,0.765625,0.171875
1696252440666,-0.6401367,-0.042541504,0.8554077,2.734375,1.640625,0.140625
1696252440707,-0.63720703,-0.06573486,0.87371826,3.4375,2.921875,1.609375
1696252440746,-0.6401367,-0.08258057,0.8590698,1.890625,1.21875,1.921875
1696252440786,-0.63720703,-0.07281494,0.8720093,3.3125,1.609375,0.015625
1696252440824,-0.6152344,-0.050842285,0.86590576,-1.140625,2.125,-1.296875
1696252440866,-0.61206055,-0.049621582,0.85858154,-4.296875,1.53125,-0.6875
1696252440905,-0.6225586,-0.059631348,0.8617554,-5.25,0.671875,-0.453125
1696252440945,-0.6281738,-0.054504395,0.8703003,-3.6875,-0.578125,-0.5
1696252440986,-0.62524414,-0.04864502,0.83758545,-3.4375,-2.0625,-0.421875
1696252441025,-0.6369629,-0.03302002,0.8324585,-3.484375,-5.140625,-0.625
1696252441084,-0.6359863,-0.022521973,0.8461304,0.09375,-4.578125,-0.53125
1696252441102,-0.63964844,-0.018859863,0.8270874,1.90625,-3.53125,-0.03125
1696252441148,-0.64746094,-0.039611816,0.8629761,1.171875,-2.75,1.0
1696252441163,-0.6323242,-0.07354736,0.85491943,-0.3125,-3.671875,0.8125
1696252441204,-0.6347656,-0.04156494,0.85565186,-0.890625,-1.75,-0.734375
1696252441246,-0.6430664,-0.024963379,0.86590576,-0.609375,0.0625,-0.21875
1696252441287,-0.64208984,-0.040100098,0.8422241,-0.3125,0.015625,0.484375
1696252441324,-0.64404297,-0.04547119,0.84124756,-0.921875,1.046875,1.078125
1696252441365,-0.6491699,-0.039123535,0.85443115,-0.390625,-0.015625,0.671875
1696252441406,-0.6413574,-0.04498291,0.85369873,0.40625,0.953125,0.265625
1696252441446,-0.64404297,-0.03668213,0.86273193,0.15625,0.421875,0.3125
1696252441486,-0.6357422,-0.03717041,0.84906006,0.03125,0.375,-0.1875
1696252441527,-0.6340332,-0.026184082,0.8563843,0.171875,-0.0625,-0.828125
1696252441585,-0.64501953,-0.03668213,0.8510132,0.09375,-0.90625,0.625
1696252441626,-0.642334,-0.05987549,0.85198975,-0.125,-0.140625,0.828125
1696252441644,-0.62597656,-0.035949707,0.8641968,0.296875,-0.265625,-0.265625
1696252441685,-0.6323242,-0.026672363,0.85809326,0.578125,-0.359375,-1.078125
1696252441729,-0.64160156,-0.043518066,0.85687256,0.6875,0.078125,1.015625
1696252441785,-0.6401367,-0.04937744,0.84783936,0.109375,0.671875,1.03125
1696252441804,-0.6340332,-0.050109863,0.86224365,0.3125,-0.25,0.359375
1696252441847,-0.6320801,-0.050842285,0.8632202,0.015625,-0.8125,-0.375
1696252441886,-0.63183594,-0.03717041,0.8510132,-0.5625,-0.71875,-0.109375
1696252441927,-0.64453125,-0.031555176,0.8497925,-0.125,-0.484375,0.65625
1696252441966,-0.63842773,-0.046691895,0.86102295,0.328125,-0.171875,0.578125
1696252442005,-0.6369629,-0.044006348,0.8649292,-0.375,-0.984375,0.0
1696252442046,-0.6374512,-0.039855957,0.8539429,-0.109375,-0.890625,-0.375
1696252442108,-0.6364746,-0.043518066,0.8468628,0.40625,-0.390625,0.40625
1696252442125,-0.63378906,-0.04522705,0.8551636,0.5,-0.15625,0.703125
1696252442166,-0.6347656,-0.04058838,0.8546753,0.234375,-1.390625,0.46875
1696252442205,-0.6335449,-0.031066895,0.84051514,-0.140625,-1.625,-0.1875
1696252442246,-0.642334,-0.030578613,0.85858154,1.46875,-0.359375,-0.1875
1696252442286,-0.6464844,-0.058654785,0.8485718,0.453125,-1.46875,0.8125
1696252442326,-0.6328125,-0.04473877,0.85614014,0.859375,-0.65625,-0.515625
1696252442366,-0.6369629,-0.047912598,0.8546753,1.0,-1.796875,-0.015625
1696252442426,-0.6386719,-0.05718994,0.85809326,1.046875,-0.65625,-0.03125
1696252442503,-0.6437988,-0.045715332,0.86053467,-1.015625,-1.15625,0.4375
1696252442505,-0.64501953,-0.04815674,0.85272217,-0.09375,-0.171875,0.28125
1696252442506,-0.6323242,-0.04840088,0.84198,0.765625,0.46875,0.0
1696252442546,-0.6340332,-0.04937744,0.84661865,0.09375,-0.328125,0.078125
1696252442585,-0.6530762,-0.047668457,0.8566284,-0.234375,-1.125,0.453125
1696252442626,-0.6467285,-0.05596924,0.8588257,0.359375,0.421875,0.265625
1696252442667,-0.63378906,-0.03668213,0.84246826,0.765625,0.03125,-0.09375
1696252442704,-0.6352539,-0.05303955,0.855896,0.140625,-1.046875,0.328125
1696252442746,-0.64331055,-0.04425049,0.8512573,-0.734375,-1.875,0.15625
1696252442785,-0.6455078,-0.038635254,0.84661865,0.4375,-1.734375,-0.046875
1696252442824,-0.6455078,-0.050354004,0.85150146,0.421875,-0.609375,-0.078125
1696252442864,-0.64038086,-0.050109863,0.8539429,-0.53125,-0.140625,0.40625
1696252442905,-0.6484375,-0.04058838,0.8427124,-0.59375,-0.78125,0.65625
1696252442945,-0.65234375,-0.050109863,0.83929443,-0.15625,-0.0625,0.28125
1696252442987,-0.63793945,-0.05718994,0.8407593,-0.25,0.421875,0.46875
1696252443025,-0.6369629,-0.040100098,0.8617554,-0.015625,0.375,0.3125
1696252443065,-0.64990234,-0.046936035,0.8551636,-0.453125,0.828125,0.375
1696252443107,-0.63256836,-0.049865723,0.8461304,-0.359375,2.3125,0.9375
1696252443148,-0.6196289,-0.04937744,0.86224365,-0.84375,0.84375,0.65625
1696252443185,-0.6394043,-0.04840088,0.85369873,-0.875,-0.515625,-0.03125
1696252443227,-0.6418457,-0.03765869,0.8668823,0.0625,1.5,0.328125
1696252443265,-0.6303711,-0.04864502,0.8661499,1.578125,3.421875,1.453125
1696252443305,-0.63134766,-0.066711426,0.8668823,1.78125,2.203125,1.546875
1696252443345,-0.6381836,-0.06402588,0.8834839,1.0,2.546875,1.328125
1696252443386,-0.6328125,-0.05645752,0.84002686,-5.109375,-1.171875,-1.828125
1696252443425,-0.61157227,-0.024719238,0.85369873,-2.96875,-4.3125,-3.953125
1696252443464,-0.61328125,-0.023254395,0.85321045,-1.046875,-1.5,-0.9375
1696252443506,-0.6369629,-0.026428223,0.8446655,-0.671875,-1.328125,1.5
1696252443545,-0.6335449,-0.06036377,0.81903076,0.921875,-3.4375,0.765625
1696252443585,-0.62841797,-0.03668213,0.84368896,3.703125,-4.703125,-0.5625
1696252443623,-0.6484375,-0.034484863,0.8500366,4.625,-5.703125,0.484375
1696252443664,-0.64746094,-0.061584473,0.8703003,0.109375,-2.859375,0.90625
1696252443703,-0.6477051,-0.050842285,0.83392334,-1.71875,-2.9375,0.25
1696252443743,-0.64501953,-0.039367676,0.8578491,0.5625,-0.328125,-0.859375
1696252443783,-0.6437988,-0.046691895,0.8566284,-0.625,0.09375,1.015625
1696252443803,-0.64624023,-0.049621582,0.8407593,-1.6875,-0.5625,2.375
1696252443842,-0.6484375,-0.03668213,0.8632202,0.578125,0.734375,1.625
1696252443882,-0.6640625,-0.026672363,0.840271,-0.296875,-0.171875,-0.546875
1696252443923,-0.64990234,-0.06695557,0.84002686,0.21875,1.125,-0.15625
1696252443982,-0.63256836,-0.07354736,0.8529663,0.375,1.25,0.5625
1696252444003,-0.6401367,-0.037902832,0.85736084,-1.171875,-1.46875,-1.0625
1696252444042,-0.63793945,-0.033996582,0.84173584,-0.53125,-1.546875,0.171875
1696252444082,-0.6542969,-0.032043457,0.83343506,-1.234375,-0.625,1.625
1696252444144,-0.6411133,-0.04840088,0.8571167,0.109375,1.390625,-0.15625
1696252444183,-0.6315918,-0.04449463,0.86224365,-0.40625,-0.234375,-0.78125
1696252444204,-0.6484375,-0.02960205,0.8649292,0.6875,-0.265625,0.078125
1696252444243,-0.66967773,-0.04864502,0.83709717,-0.796875,-1.28125,1.375
1696252444306,-0.6586914,-0.049621582,0.85272217,1.875,0.375,-0.234375
1696252444324,-0.6345215,-0.061828613,0.8390503,0.8125,0.015625,-0.375
1696252444385,-0.6274414,-0.043518066,0.84710693,0.421875,0.25,-0.25
1696252444403,-0.6369629,-0.02545166,0.84246826,0.203125,-0.671875,1.0625
1696252444443,-0.64282227,-0.047180176,0.85736084,0.015625,-0.53125,0.875
1696252444505,-0.64282227,-0.05987549,0.86517334,0.421875,0.625,0.28125
1696252444523,-0.6369629,-0.059143066,0.85565186,-0.46875,-0.3125,0.203125
1696252444565,-0.6352539,-0.042541504,0.84783936,-0.421875,-0.765625,0.09375
1696252444605,-0.6430664,-0.039611816,0.8600464,1.265625,0.0,1.0625
1696252444646,-0.6430664,-0.050598145,0.84954834,-0.28125,-0.328125,0.953125
1696252444685,-0.65185547,-0.0647583,0.83343506,-1.0,0.046875,0.640625
1696252444725,-0.6437988,-0.055236816,0.84906006,-0.625,1.40625,-0.40625
1696252444766,-0.63964844,-0.04815674,0.8632202,0.0,2.328125,0.296875
1696252444803,-0.6369629,-0.050109863,0.8600464,-4.046875,0.984375,0.75
1696252444864,-0.63671875,-0.042297363,0.8563843,-2.984375,2.0,-0.859375
1696252444883,-0.6303711,-0.029846191,0.8666382,0.109375,1.015625,-0.890625
1696252444924,-0.61865234,-0.043029785,0.84417725,1.109375,-1.703125,-0.4375
1696252444966,-0.61572266,-0.04034424,0.8317261,1.421875,-4.953125,0.359375
1696252445006,-0.6323242,-0.039855957,0.84002686,3.96875,-6.0,0.25
1696252445045,-0.65844727,-0.04864502,0.83392334,6.09375,-8.609375,0.34375
1696252445106,-0.6503906,-0.0569458,0.857605,3.140625,-4.375,-0.125
1696252445147,-0.6520996,-0.06842041,0.86151123,0.90625,-1.875,0.609375
1696252445154,-0.6633301,-0.062072754,0.8305054,-1.984375,-1.234375,-0.59375
1696252445186,-0.64868164,-0.044006348,0.81585693,-0.4375,2.203125,-1.59375
1696252445224,-0.638916,-0.038146973,0.8407593,-1.59375,1.59375,-0.15625
1696252445265,-0.6496582,-0.06866455,0.84954834,-0.6875,0.671875,1.109375
1696252445305,-0.64746094,-0.059143066,0.8500366,-0.671875,0.1875,0.984375
1696252445346,-0.6516113,-0.054260254,0.84417725,0.21875,0.359375,0.78125
1696252445386,-0.6567383,-0.04473877,0.8312378,0.40625,-0.71875,0.65625
1696252445424,-0.6542969,-0.062072754,0.8488159,1.34375,-0.796875,0.8125
1696252445464,-0.64501953,-0.053527832,0.8493042,0.640625,0.46875,0.4375
1696252445505,-0.6477051,-0.05645752,0.8534546,0.015625,0.390625,0.328125
1696252445545,-0.64331055,-0.061584473,0.8578491,-0.1875,0.75,0.28125
1696252445585,-0.64404297,-0.059631348,0.8456421,-0.359375,0.34375,0.59375
1696252445625,-0.6340332,-0.05645752,0.8456421,-0.015625,0.5625,0.703125
1696252445666,-0.6442871,-0.05987549,0.8485718,-0.125,-0.015625,0.53125
1696252445705,-0.65185547,-0.058410645,0.85931396,-0.015625,-0.875,0.203125
1696252445746,-0.6508789,-0.05596924,0.8422241,-0.015625,-0.734375,0.375
1696252445785,-0.63842773,-0.06109619,0.8456421,-0.40625,0.625,0.265625
1696252445826,-0.6401367,-0.051086426,0.8446655,-0.25,-0.171875,0.203125
1696252445866,-0.6513672,-0.058898926,0.8522339,0.421875,-0.109375,0.265625
1696252445906,-0.63793945,-0.066223145,0.8475952,-0.328125,-0.40625,0.28125
1696252445945,-0.6467285,-0.06011963,0.84661865,-0.375,-2.359375,-0.296875
1696252445985,-0.64746094,-0.045959473,0.84588623,1.265625,-2.84375,-0.6875
1696252446025,-0.6447754,-0.058898926,0.8497925,0.78125,-2.625,-0.53125
1696252446065,-0.6411133,-0.057922363,0.85028076,0.015625,-1.671875,0.0
1696252446108,-0.6491699,-0.06011963,0.836853,0.203125,-0.875,0.328125
1696252446145,-0.6472168,-0.06036377,0.82147217,-0.9375,-0.640625,0.203125
1696252446185,-0.65478516,-0.058410645,0.84368896,0.609375,-0.171875,0.09375
1696252446226,-0.6608887,-0.07110596,0.82855225,-0.3125,-2.453125,0.671875
1696252446265,-0.657959,-0.062561035,0.8414917,0.453125,-2.265625,-0.03125
1696252446305,-0.6459961,-0.051574707,0.8475952,0.109375,-0.734375,-1.09375
1696252446345,-0.64819336,-0.05303955,0.84783936,-0.5625,-1.234375,0.03125
1696252446388,-0.65405273,-0.06402588,0.8312378,0.234375,-1.265625,0.640625
1696252446423,-0.6530762,-0.062805176,0.82928467,-0.125,-0.015625,-0.140625
1696252446444,-0.6459961,-0.05670166,0.8473511,0.0,1.328125,0.203125
1696252446509,-0.6569824,-0.062072754,0.85272217,-1.171875,-0.625,1.171875
1696252446551,-0.65893555,-0.050354004,0.83148193,-0.953125,-0.703125,0.234375
1696252446564,-0.65356445,-0.05206299,0.8234253,0.3125,-0.296875,-0.5
1696252446607,-0.6455078,-0.057678223,0.84198,-0.03125,-1.140625,-0.0625
1696252446667,-0.6599121,-0.054992676,0.8480835,-0.859375,-1.96875,0.140625
1696252446685,-0.6623535,-0.0569458,0.82928467,-0.015625,-0.53125,-0.125
1696252446744,-0.6533203,-0.062072754,0.8341675,-0.109375,0.375,-0.125
1696252446764,-0.6542969,-0.05230713,0.83392334,-1.0,0.21875,0.21875
1696252446807,-0.6599121,-0.05621338,0.8493042,-0.953125,0.859375,0.015625
1696252446844,-0.64697266,-0.04156494,0.8505249,-1.078125,1.578125,-0.46875
1696252446906,-0.6525879,-0.04498291,0.8353882,-1.625,0.890625,0.359375
1696252446924,-0.6442871,-0.051086426,0.8563843,-1.703125,1.78125,0.625
1696252446965,-0.64282227,-0.045715332,0.84368896,-1.125,2.890625,1.1875
1696252447027,-0.6435547,-0.051086426,0.85565186,-0.625,3.921875,1.515625
1696252447045,-0.64282227,-0.054748535,0.86834717,0.203125,3.609375,1.84375
1696252447106,-0.6491699,-0.06304932,0.8600464,3.09375,4.1875,1.328125
1696252447125,-0.6430664,-0.0491333,0.8517456,1.703125,3.546875,-0.140625
1696252447188,-0.6315918,-0.05328369,0.8632202,0.84375,2.6875,-0.40625
1696252447204,-0.6179199,-0.05279541,0.86346436,0.015625,1.46875,-0.4375
1696252447246,-0.61279297,-0.05718994,0.86468506,-2.046875,-0.28125,-0.296875
1696252447308,-0.62280273,-0.0569458,0.85321045,-3.53125,-1.53125,-0.53125
1696252447326,-0.61376953,-0.039855957,0.85736084,-2.0625,-1.921875,-1.21875
1696252447388,-0.6176758,-0.0256958,0.852478,-1.5,-2.890625,-0.5
1696252447405,-0.62353516,-0.026916504,0.8434448,-0.84375,-3.703125,0.109375
1696252447449,-0.6394043,-0.031799316,0.84417725,1.0625,-2.78125,0.671875
1696252447486,-0.6447754,-0.044006348,0.8637085,1.5,-2.515625,1.28125
1696252447526,-0.64819336,-0.061828613,0.8612671,2.046875,-1.859375,1.0
1696252447565,-0.65600586,-0.058410645,0.85565186,2.03125,-6.59375,-0.203125
1696252447606,-0.64575195,-0.037902832,0.85687256,0.90625,-5.046875,-2.328125
1696252447646,-0.6369629,-0.0256958,0.8654175,0.125,-1.796875,-1.6875
1696252447685,-0.6401367,-0.051818848,0.85150146,-1.140625,-0.484375,1.046875
1696252447725,-0.6525879,-0.051330566,0.8529663,-0.640625,-0.0625,1.109375
1696252447746,-0.654541,-0.06085205,0.8590698,0.328125,-0.703125,0.84375
1696252447785,-0.6567383,-0.051086426,0.85150146,-0.625,-0.4375,0.140625
1696252447826,-0.65356445,-0.050109863,0.85809326,-0.5,0.03125,0.1875
1696252447865,-0.654541,-0.030578613,0.8500366,-0.09375,0.640625,-0.046875
1696252447904,-0.6508789,-0.038879395,0.84124756,-0.6875,-1.296875,0.453125
1696252447944,-0.64868164,-0.04547119,0.83807373,-0.359375,-2.09375,-0.484375
1696252447985,-0.6452637,-0.04156494,0.82928467,0.0625,-1.875,-0.53125
1696252448026,-0.64746094,-0.042297363,0.8390503,0.078125,-0.703125,-0.125
1696252448064,-0.6542969,-0.047668457,0.83880615,-0.328125,0.125,0.859375
1696252448106,-0.65722656,-0.04034424,0.8410034,-0.15625,0.25,0.78125
1696252448145,-0.6516113,-0.04156494,0.8546753,-0.21875,0.34375,0.171875
1696252448185,-0.64990234,-0.045715332,0.8473511,-0.6875,-0.015625,-0.015625
1696252448226,-0.64624023,-0.036193848,0.84588623,-0.625,0.140625,0.234375
1696252448266,-0.6538086,-0.0413208,0.84417725,-0.078125,0.625,0.578125
1696252448305,-0.6401367,-0.055480957,0.8534546,-0.5,1.1875,0.734375
1696252448344,-0.64404297,-0.043029785,0.85736084,-1.25,0.859375,0.203125
1696252448385,-0.6452637,-0.035461426,0.84002686,-2.15625,1.6875,0.21875
1696252448426,-0.640625,-0.03302002,0.8534546,-1.0625,2.203125,0.96875
1696252448464,-0.6352539,-0.047668457,0.8534546,1.203125,2.671875,1.53125
1696252448507,-0.63671875,-0.04034424,0.84051514,-0.5625,-0.625,0.84375
1696252448545,-0.64086914,-0.034484863,0.82684326,0.78125,-3.328125,-0.453125
1696252448586,-0.65063477,-0.03375244,0.8666382,4.0,-4.375,-1.109375
1696252448626,-0.64453125,-0.06109619,0.840271,0.1875,-5.0625,-0.421875
1696252448665,-0.65356445,-0.038391113,0.84295654,0.28125,-4.265625,-1.375
1696252448706,-0.63623047,-0.03253174,0.85076904,0.265625,-1.53125,-1.203125
1696252448746,-0.6452637,-0.046447754,0.8510132,0.859375,-1.140625,0.34375
1696252448785,-0.65527344,-0.054748535,0.8493042,-0.125,-0.828125,0.84375
1696252448826,-0.6621094,-0.047668457,0.8397827,0.359375,-0.9375,1.046875
1696252448865,-0.6569824,-0.043762207,0.8505249,2.40625,0.078125,0.03125
1696252448907,-0.64746094,-0.047668457,0.83709717,-0.6875,-1.140625,-0.28125
1696252448945,-0.6594238,-0.046203613,0.84710693,0.984375,-3.171875,-0.015625
1696252448988,-0.64575195,-0.05230713,0.836853,-0.875,-0.515625,0.015625
1696252449026,-0.6437988,-0.047912598,0.8510132,-2.828125,-0.578125,-0.6875
1696252449065,-0.6652832,-0.04058838,0.84002686,-2.15625,-0.734375,-0.25
1696252449086,-0.6557617,-0.0413208,0.8390503,-0.15625,0.40625,0.8125
1696252449125,-0.66064453,-0.049621582,0.84539795,0.3125,0.375,0.5
1696252449166,-0.6533203,-0.038146973,0.8463745,-0.171875,-0.40625,0.40625
1696252449207,-0.6652832,-0.030334473,0.8383179,0.765625,-1.21875,0.390625
1696252449266,-0.6586914,-0.051086426,0.82562256,0.375,-1.234375,-0.046875
1696252449286,-0.640625,-0.042785645,0.8439331,0.5,-0.625,-0.375
1696252449324,-0.65966797,-0.045959473,0.84954834,0.96875,-1.125,0.515625
1696252449366,-0.65600586,-0.05645752,0.83343506,-0.375,0.03125,0.484375
1696252449428,-0.6582031,-0.041809082,0.8488159,-0.265625,0.046875,0.3125
1696252449446,-0.66308594,-0.040100098,0.836853,-0.40625,-0.21875,0.71875
1696252449485,-0.657959,-0.04547119,0.8295288,0.09375,-0.78125,0.328125
1696252449525,-0.65356445,-0.043273926,0.8312378,0.046875,-0.234375,-0.296875
1696252449584,-0.6530762,-0.042541504,0.83807373,0.359375,-1.671875,-0.140625
1696252449604,-0.6608887,-0.04498291,0.8407593,0.109375,-1.140625,0.234375
1696252449645,-0.6472168,-0.05206299,0.8341675,0.109375,0.46875,0.03125
1696252449683,-0.65600586,-0.039611816,0.8336792,0.21875,-0.625,0.484375
1696252449727,-0.6657715,-0.050598145,0.8331909,0.0625,-0.96875,0.671875
1696252449764,-0.6591797,-0.04522705,0.83807373,-0.53125,0.046875,-0.328125
1696252449807,-0.6555176,-0.043518066,0.83636475,0.421875,0.3125,0.03125
1696252449845,-0.65063477,-0.047912598,0.8361206,-0.4375,0.359375,0.296875
1696252449886,-0.6538086,-0.039855957,0.84051514,-1.390625,0.84375,0.3125
1696252449946,-0.65649414,-0.041809082,0.852478,-0.8125,2.3125,1.0
1696252449986,-0.6452637,-0.05328369,0.86517334,-1.6875,4.6875,1.109375
1696252450004,-0.63623047,-0.049621582,0.868103,1.953125,6.0,1.65625
1696252450067,-0.6269531,-0.04425049,0.86346436,0.28125,2.734375,1.796875
1696252450085,-0.66381836,-0.045715332,0.8395386,-0.1875,-0.03125,1.078125
1696252450147,-0.6628418,-0.041809082,0.84051514,-1.703125,1.359375,-0.234375
1696252450186,-0.62475586,-0.04156494,0.82562256,-2.71875,-0.640625,-1.546875
1696252450204,-0.6230469,-0.025939941,0.8324585,-0.5625,-5.859375,-2.03125
1696252450244,-0.642334,-0.027404785,0.82366943,5.046875,-9.5625,-1.1875
1696252450288,-0.6435547,-0.042541504,0.8488159,2.609375,-4.90625,-0.53125
1696252450347,-0.6472168,-0.05230713,0.8517456,-0.671875,-4.078125,0.609375
1696252450364,-0.6574707,-0.06915283,0.85321045,-0.484375,-1.953125,0.21875
1696252450385,-0.66015625,-0.047912598,0.8529663,-1.109375,-1.625,-0.671875
1696252450426,-0.66015625,-0.032287598,0.840271,-2.40625,-2.046875,-0.984375
1696252450473,-0.67871094,-0.027648926,0.8390503,-0.96875,-1.015625,0.3125
1696252450504,-0.67285156,-0.049621582,0.84198,0.5,0.375,0.71875
1696252450545,-0.6525879,-0.053771973,0.8427124,0.109375,0.359375,-0.015625
1696252450583,-0.65966797,-0.039611816,0.83343506,-0.375,-1.671875,0.34375
1696252450626,-0.6608887,-0.027648926,0.8356323,0.921875,-0.203125,-0.234375
1696252450664,-0.6652832,-0.03692627,0.84198,-0.125,0.109375,0.53125
1696252450705,-0.6557617,-0.039123535,0.8397827,-0.375,0.765625,0.375
1696252450746,-0.6586914,-0.035949707,0.8331909,-0.171875,0.5625,0.65625
1696252450785,-0.6608887,-0.04107666,0.8270874,-0.796875,1.015625,0.734375
1696252450825,-0.6550293,-0.04156494,0.8348999,-0.984375,1.3125,0.484375
1696252450864,-0.66625977,-0.034484863,0.8383179,-0.953125,0.296875,0.21875
1696252450905,-0.6635742,-0.03741455,0.8427124,-0.890625,-0.46875,0.40625
1696252450945,-0.6530762,-0.03692627,0.8451538,0.125,0.3125,-0.15625
1696252450987,-0.6508789,-0.035705566,0.83636475,-0.1875,0.28125,0.234375
1696252451025,-0.6459961,-0.039123535,0.840271,-0.078125,0.4375,0.578125
1696252451065,-0.6491699,-0.035217285,0.8456421,0.375,1.65625,0.65625
1696252451106,-0.65405273,-0.035949707,0.85491943,1.171875,2.25,1.109375
1696252451147,-0.65283203,-0.050109863,0.85491943,0.8125,1.5625,1.75
1696252451186,-0.6503906,-0.05206299,0.8461304,-2.78125,-1.875,0.28125
1696252451225,-0.6513672,-0.024475098,0.8356323,-3.296875,-2.9375,-2.296875
1696252451264,-0.6530762,-0.018615723,0.8475952,-1.75,-0.9375,-1.890625
1696252451304,-0.63427734,-0.034240723,0.8566284,-0.90625,0.453125,-0.5625
1696252451345,-0.65063477,-0.054992676,0.838562,-1.984375,-2.4375,0.859375
1696252451385,-0.65356445,-0.027893066,0.83148193,-0.75,-1.140625,-0.421875
1696252451425,-0.6599121,-0.0178833,0.83807373,0.546875,-1.609375,-0.328125
1696252451468,-0.6513672,-0.02545166,0.82928467,1.109375,-2.125,0.265625
1696252451505,-0.6599121,-0.006652832,0.821228,3.109375,-2.671875,0.03125
1696252451544,-0.66015625,-0.036193848,0.8253784,5.03125,-2.28125,0.234375
1696252451585,-0.6608887,-0.057922363,0.84783936,1.546875,-1.65625,0.765625
1696252451624,-0.65234375,-0.04864502,0.86590576,0.328125,-0.609375,0.15625
1696252451665,-0.65625,-0.03253174,0.83221436,-1.421875,-0.359375,-0.015625
1696252451686,-0.6628418,-0.018859863,0.8317261,-0.78125,0.140625,0.53125
1696252451725,-0.6694336,-0.022277832,0.8192749,-1.390625,-0.140625,1.1875
1696252451765,-0.65722656,-0.041809082,0.8331909,-0.859375,0.40625,0.4375
1696252451825,-0.6516113,-0.0413208,0.8463745,-0.1875,0.609375,0.25
1696252451844,-0.6604004,-0.0256958,0.838562,-0.09375,-0.515625,0.40625
1696252451908,-0.6645508,-0.030822754,0.8366089,0.765625,-0.5,0.765625
1696252451946,-0.6569824,-0.035217285,0.83636475,0.609375,-0.078125,0.359375
1696252451988,-0.6455078,-0.030090332,0.8361206,-0.234375,-0.03125,0.0
1696252452003,-0.6533203,-0.030334473,0.8305054,-0.53125,-0.484375,0.390625
1696252452045,-0.65649414,-0.039855957,0.83587646,-0.296875,-1.171875,0.859375
1696252452108,-0.6533203,-0.03765869,0.8444214,0.734375,-0.109375,-0.03125
1696252452125,-0.6520996,-0.039611816,0.84246826,0.296875,0.453125,0.125
1696252452165,-0.6623535,-0.02960205,0.84173584,-0.71875,-0.65625,0.40625
1696252452226,-0.66430664,-0.031311035,0.8331909,0.3125,-0.109375,0.65625
1696252452266,-0.6586914,-0.051574707,0.8295288,0.21875,0.578125,0.6875
1696252452284,-0.6418457,-0.046691895,0.84124756,-0.125,-0.140625,0.1875
1696252452324,-0.64868164,-0.030578613,0.84490967,-0.125,-0.640625,-0.390625
1696252452387,-0.66259766,-0.030578613,0.8422241,0.265625,-1.359375,1.0625
1696252452426,-0.657959,-0.046447754,0.838562,0.0,0.15625,0.484375
1696252452445,-0.6477051,-0.04547119,0.83929443,0.546875,0.546875,0.09375
1696252452508,-0.65283203,-0.038146973,0.8414917,-0.25,-0.75,0.421875
1696252452524,-0.6533203,-0.030822754,0.84295654,-0.65625,-0.25,0.3125
1696252452565,-0.65649414,-0.038146973,0.84906006,-0.375,-0.140625,0.25
1696252452605,-0.6508789,-0.042541504,0.82366943,0.203125,0.109375,0.28125
1696252452645,-0.6479492,-0.036193848,0.8590698,0.328125,0.140625,0.25
1696252452685,-0.65478516,-0.035217285,0.8331909,0.109375,-0.984375,0.671875
1696252452748,-0.65283203,-0.037902832,0.8456421,0.5625,-1.40625,0.28125
1696252452786,-0.6455078,-0.041809082,0.84002686,-0.03125,-0.375,-0.359375
1696252452805,-0.65112305,-0.038635254,0.8432007,-0.28125,-0.71875,0.0
1696252452845,-0.6657715,-0.038146973,0.8522339,1.359375,0.15625,0.828125
1696252452909,-0.6591797,-0.050598145,0.83343506,-0.921875,-1.140625,1.109375
1696252452923,-0.654541,-0.03277588,0.85028076,1.6875,0.171875,-0.21875
1696252452988,-0.65405273,-0.031555176,0.84417725,0.171875,-0.453125,-0.1875
1696252452992,-0.6437988,-0.043273926,0.83221436,0.03125,-0.234375,0.109375
1696252453025,-0.6635742,-0.04449463,0.838562,-0.34375,-0.953125,0.859375
1696252453108,-0.65722656,-0.04083252,0.84295654,0.125,-0.78125,0.265625
1696252453113,-0.6418457,-0.034973145,0.84710693,0.21875,-0.328125,-0.125
1696252453150,-0.6550293,-0.0335083,0.8439331,0.4375,-0.5625,-0.03125
1696252453186,-0.6508789,-0.040100098,0.82440186,-0.046875,-0.46875,0.4375
1696252453225,-0.66503906,-0.034973145,0.836853,0.5625,-0.359375,0.25
1696252453265,-0.66015625,-0.04473877,0.83343506,0.15625,-0.4375,0.234375
1696252453306,-0.6491699,-0.04156494,0.84490967,-0.109375,-0.296875,0.0625
1696252453345,-0.65478516,-0.042053223,0.84588623,0.4375,0.1875,0.390625
1696252453389,-0.65063477,-0.04425049,0.8475952,0.125,0.3125,0.625
1696252453425,-0.65405273,-0.046936035,0.83514404,-0.171875,-0.296875,0.140625
1696252453466,-0.64990234,-0.039367676,0.8493042,0.59375,-0.546875,-0.078125
1696252453507,-0.6442871,-0.03692627,0.840271,-0.28125,0.03125,-0.15625
1696252453545,-0.657959,-0.04473877,0.84198,-0.0625,-0.453125,0.59375
1696252453588,-0.6608887,-0.049865723,0.8512573,0.15625,-0.578125,1.015625
1696252453627,-0.6525879,-0.053527832,0.8319702,-0.09375,1.015625,0.3125
1696252453665,-0.63720703,-0.037902832,0.8551636,0.015625,0.53125,-0.328125
1696252453707,-0.6503906,-0.03692627,0.84295654,0.0625,0.0,0.328125
1696252453744,-0.65234375,-0.043273926,0.85809326,1.375,1.453125,0.5
1696252453785,-0.65063477,-0.06524658,0.8554077,2.109375,1.34375,1.265625
1696252453825,-0.6479492,-0.06549072,0.86224365,2.6875,-0.1875,0.90625
1696252453884,-0.6411133,-0.055725098,0.86712646,0.09375,1.828125,-0.015625
1696252453905,-0.6533203,-0.042053223,0.82928467,-3.546875,1.0,-0.25
1696252453945,-0.6376953,-0.03668213,0.83343506,-3.453125,-1.734375,-0.890625
1696252453988,-0.6501465,-0.038391113,0.81951904,0.421875,-3.890625,-0.859375
1696252454026,-0.6359863,-0.031555176,0.8234253,0.875,-5.125,-0.71875
1696252454067,-0.6582031,-0.038146973,0.83758545,2.65625,-5.40625,-0.71875
1696252454106,-0.65893555,-0.058166504,0.8529663,0.09375,-3.859375,0.03125
1696252454145,-0.65527344,-0.058166504,0.8407593,-1.59375,-2.890625,-0.375
1696252454185,-0.6557617,-0.03375244,0.8473511,-1.78125,-0.25,-1.71875
1696252454226,-0.6669922,-0.038391113,0.82196045,-3.203125,-2.390625,-0.5
1696252454266,-0.67089844,-0.028137207,0.83807373,0.578125,0.171875,0.5625
1696252454285,-0.6635742,-0.04058838,0.82855225,-0.125,0.5625,0.96875
1696252454327,-0.66137695,-0.042297363,0.8344116,0.65625,-0.40625,0.328125
1696252454385,-0.6677246,-0.044006348,0.8480835,-0.3125,-0.328125,0.5
1696252454405,-0.657959,-0.031799316,0.824646,-0.796875,-0.609375,-0.078125
1696252454446,-0.6604004,-0.024963379,0.824646,-0.515625,-0.1875,-0.078125
1696252454485,-0.65771484,-0.026184082,0.8480835,0.453125,-0.5,0.171875
1696252454524,-0.66308594,-0.042541504,0.82684326,-0.25,-0.859375,0.6875
1696252454565,-0.6533203,-0.031311035,0.8444214,0.703125,0.828125,0.265625
1696252454605,-0.65283203,-0.04156494,0.8485718,0.171875,0.28125,0.65625
1696252454644,-0.6608887,-0.04058838,0.84954834,-0.671875,0.09375,0.53125
1696252454686,-0.6713867,-0.042297363,0.8307495,-0.953125,-0.28125,0.4375
1696252454747,-0.6594238,-0.03326416,0.8390503,0.453125,-0.03125,0.390625
1696252454786,-0.65722656,-0.032287598,0.8275757,-0.0625,-0.046875,0.375
1696252454805,-0.65893555,-0.03253174,0.8353882,-0.28125,-0.140625,0.171875
1696252454844,-0.65893555,-0.039611816,0.8390503,0.296875,0.25,0.6875
1696252454885,-0.6611328,-0.043029785,0.8563843,0.28125,0.53125,0.484375
1696252454926,-0.66381836,-0.03643799,0.838562,0.09375,0.359375,0.671875
1696252454966,-0.6491699,-0.0335083,0.8427124,-0.640625,0.40625,0.265625
1696252455005,-0.65063477,-0.041809082,0.84198,-1.09375,-0.5625,0.546875
1696252455045,-0.6477051,-0.031799316,0.8373413,-1.109375,-0.421875,-0.328125
1696252455108,-0.65771484,-0.03668213,0.8407593,0.015625,0.234375,0.203125
1696252455124,-0.6489258,-0.038879395,0.8397827,0.4375,1.953125,0.6875
1696252455186,-0.65185547,-0.03765869,0.84954834,0.375,1.359375,1.34375
1696252455228,-0.6513672,-0.040100098,0.85491943,0.65625,1.75,1.34375
1696252455266,-0.65283203,-0.03765869,0.8468628,0.3125,1.59375,0.71875
1696252455286,-0.64331055,-0.038635254,0.8571167,1.5625,2.5625,1.109375
1696252455347,-0.642334,-0.03741455,0.83148193,1.8125,0.90625,1.296875
1696252455364,-0.6381836,-0.03765869,0.8378296,1.015625,-3.09375,-0.09375
1696252455407,-0.6525879,-0.047912598,0.83807373,4.09375,-6.8125,-0.828125
1696252455448,-0.6586914,-0.055236816,0.8319702,2.296875,-7.4375,-2.15625
1696252455486,-0.64941406,-0.047668457,0.8410034,0.90625,-3.390625,-2.453125
1696252455525,-0.6357422,-0.038635254,0.85980225,-0.21875,-1.25,-0.921875
1696252455564,-0.65356445,-0.051574707,0.8258667,-1.65625,-0.171875,0.734375
1696252455604,-0.6813965,-0.054748535,0.8295288,0.453125,-0.15625,0.8125
1696252455626,-0.6665039,-0.06011963,0.8395386,0.84375,-0.46875,0.5625
1696252455665,-0.6533203,-0.049621582,0.84783936,1.4375,-0.765625,-0.25
1696252455705,-0.6623535,-0.03741455,0.83758545,-1.265625,-2.28125,-0.875
1696252455747,-0.6608887,-0.03668213,0.8348999,-0.421875,0.125,-1.15625
1696252455787,-0.66381836,-0.0491333,0.824646,-0.09375,-1.578125,0.625
1696252455826,-0.6699219,-0.05279541,0.840271,1.25,-1.078125,0.109375
1696252455865,-0.657959,-0.059631348,0.8410034,-0.0625,-0.421875,-0.359375
1696252455905,-0.66064453,-0.036193848,0.8473511,-0.34375,-0.875,0.09375
1696252455945,-0.66674805,-0.03375244,0.8439331,-0.5,0.515625,0.515625
1696252455985,-0.67163086,-0.038879395,0.8383179,-0.140625,-0.21875,0.796875
1696252456028,-0.65649414,-0.054260254,0.81903076,-1.046875,-0.171875,-0.21875
1696252456065,-0.6652832,-0.0491333,0.8341675,-0.359375,-0.171875,0.375
1696252456106,-0.6711426,-0.04815674,0.8407593,0.046875,-0.46875,0.78125
1696252456144,-0.65893555,-0.046936035,0.83587646,-0.390625,-0.625,0.25
1696252456186,-0.6608887,-0.042785645,0.84295654,-0.375,-0.515625,-0.234375
1696252456227,-0.6640625,-0.039611816,0.8234253,-1.40625,-0.140625,0.171875
1696252456264,-0.6594238,-0.042541504,0.8422241,-1.25,0.78125,0.28125
1696252456309,-0.65356445,-0.04156494,0.8356323,-2.015625,1.984375,0.125
1696252456345,-0.6467285,-0.038635254,0.82855225,-2.15625,2.984375,0.546875
1696252456385,-0.64819336,-0.035949707,0.8695679,0.78125,5.203125,1.578125
1696252456426,-0.65625,-0.057922363,0.8607788,1.75,4.578125,3.484375
1696252456464,-0.65527344,-0.054504395,0.8656616,2.078125,3.15625,2.078125
1696252456507,-0.6455078,-0.03375244,0.8451538,-0.09375,1.4375,-0.609375
1696252456544,-0.6489258,-0.043518066,0.84954834,-0.234375,1.53125,-0.859375
1696252456586,-0.6225586,-0.054260254,0.8529663,-0.40625,2.875,-0.421875
1696252456626,-0.62060547,-0.04937744,0.8121948,-5.03125,-2.140625,-0.5625
1696252456664,-0.64697266,-0.0020141602,0.8217163,0.921875,-9.40625,-2.546875
1696252456707,-0.6567383,-0.031799316,0.81951904,6.8125,-9.21875,-1.109375
1696252456749,-0.65063477,-0.04449463,0.85369873,0.234375,-4.9375,0.140625
1696252456786,-0.6262207,-0.05596924,0.86053467,-2.65625,-2.640625,1.046875
1696252456826,-0.6616211,-0.073791504,0.83880615,1.0625,-1.671875,0.453125
1696252456865,-0.6660156,-0.04425049,0.85687256,1.78125,-1.578125,-0.203125
1696252456908,-0.66259766,-0.04034424,0.8341675,-2.84375,0.65625,0.4375
1696252456945,-0.65844727,-0.02960205,0.8197632,-0.1875,2.1875,1.34375
1696252456964,-0.6640625,-0.04547119,0.8265991,1.734375,3.28125,1.453125
1696252457007,-0.65405273,-0.05987549,0.84588623,-0.40625,2.140625,1.5625
1696252457045,-0.6525879,-0.04840088,0.8344116,-1.25,-1.1875,0.84375
1696252457087,-0.6633301,-0.043762207,0.84661865,0.125,-1.28125,-0.203125
1696252457148,-0.6418457,-0.046936035,0.84906006,0.046875,0.6875,-0.5
1696252457164,-0.64086914,-0.04498291,0.84661865,-1.1875,0.109375,0.140625
1696252457230,-0.65063477,-0.045715332,0.8361206,-1.59375,-0.53125,0.453125
1696252457244,-0.6459961,-0.043029785,0.8383179,-0.203125,0.53125,0.578125
1696252457287,-0.65405273,-0.046691895,0.8510132,1.046875,1.109375,0.46875
1696252457327,-0.6501465,-0.057922363,0.8500366,-0.703125,-0.71875,1.125
1696252457365,-0.65527344,-0.0413208,0.84417725,-0.828125,-0.671875,0.046875
1696252457405,-0.6464844,-0.027893066,0.83929443,-0.390625,-0.609375,-0.5
1696252457468,-0.6477051,-0.03643799,0.84490967,1.25,-0.6875,0.015625
1696252457485,-0.63061523,-0.050109863,0.836853,-0.28125,-1.125,0.046875
1696252457526,-0.6503906,-0.043029785,0.8456421,0.703125,-3.046875,0.125
1696252457564,-0.6550293,-0.045959473,0.836853,0.1875,-2.1875,0.140625
1696252457605,-0.6550293,-0.042297363,0.8475952,0.578125,-1.328125,-0.15625
1696252457646,-0.654541,-0.051330566,0.8353882,-0.171875,-1.84375,-0.28125
1696252457686,-0.6555176,-0.046447754,0.8366089,0.546875,-3.421875,-0.4375
1696252457746,-0.671875,-0.04937744,0.8265991,-0.265625,-3.328125,-0.703125
1696252457766,-0.654541,-0.038146973,0.8253784,0.71875,-2.34375,-1.484375
1696252457806,-0.6604004,-0.03302002,0.8456421,0.109375,-1.75,-0.5625
1696252457866,-0.6645508,-0.042297363,0.83514404,-0.03125,-0.8125,0.109375
1696252457885,-0.65893555,-0.03765869,0.8439331,-0.15625,1.015625,0.125
1696252457948,-0.6599121,-0.05255127,0.8336792,-0.46875,1.109375,0.875
1696252457965,-0.6594238,-0.050354004,0.8366089,-0.015625,1.375,0.59375
1696252458005,-0.66967773,-0.055725098,0.85198975,0.015625,0.484375,0.75
1696252458047,-0.66137695,-0.04864502,0.8444214,-0.015625,0.53125,0.671875
1696252458108,-0.65649414,-0.034484863,0.8473511,-0.578125,0.3125,0.359375
1696252458123,-0.65478516,-0.034484863,0.8378296,0.0,0.09375,0.109375
1696252458183,-0.6569824,-0.042785645,0.8395386,0.59375,-0.046875,0.234375
1696252458205,-0.65356445,-0.045959473,0.8534546,0.21875,-0.46875,0.25
1696252458224,-0.65283203,-0.04498291,0.84173584,-0.46875,-1.0625,0.21875
1696252458265,-0.66430664,-0.053527832,0.82928467,0.65625,-1.109375,0.453125
1696252458306,-0.6437988,-0.039367676,0.83929443,0.75,0.421875,-0.28125
1696252458345,-0.65478516,-0.054504395,0.85491943,0.0625,-0.34375,0.25
1696252458388,-0.6555176,-0.042785645,0.84783936,0.875,-0.921875,0.078125
1696252458425,-0.6623535,-0.043029785,0.8378296,0.0,-1.0625,0.46875
1696252458467,-0.64624023,-0.04107666,0.8295288,-0.15625,-0.703125,0.375
1696252458506,-0.6557617,-0.049621582,0.824646,-0.078125,-0.9375,0.09375
1696252458546,-0.6699219,-0.050109863,0.84198,0.34375,-0.296875,0.21875
1696252458587,-0.6569824,-0.0491333,0.8463745,0.34375,-0.09375,0.125
1696252458626,-0.6513672,-0.04864502,0.82366943,-1.0,-0.234375,-0.171875
1696252458665,-0.64941406,-0.040100098,0.8473511,-0.234375,-0.109375,-0.21875
1696252458704,-0.657959,-0.051330566,0.8600464,0.03125,0.21875,0.625
1696252458744,-0.6411133,-0.044006348,0.83587646,-0.609375,-0.609375,0.484375
1696252458786,-0.66430664,-0.04473877,0.8187866,-0.265625,-1.15625,0.484375
1696252458827,-0.6687012,-0.0413208,0.83709717,0.359375,-0.390625,1.09375
1696252458864,-0.65722656,-0.047180176,0.84539795,0.59375,-0.140625,0.9375
1696252458905,-0.6594238,-0.06378174,0.83636475,-1.234375,-1.515625,0.3125
1696252458945,-0.67333984,-0.041809082,0.82244873,0.21875,-1.875,-0.78125
1696252458985,-0.66015625,-0.028381348,0.82684326,2.375,-0.234375,-0.875
1696252459026,-0.6477051,-0.046447754,0.8341675,0.84375,-0.21875,0.671875
1696252459073,-0.6530762,-0.051574707,0.8468628,0.5,-1.8125,0.6875
1696252459106,-0.6550293,-0.05718994,0.85809326,1.15625,-1.203125,0.0625
1696252459147,-0.6508789,-0.050354004,0.8571167,1.078125,-0.75,-0.03125
1696252459186,-0.6682129,-0.04547119,0.84710693,0.015625,-1.21875,0.78125
1696252459228,-0.66625977,-0.051818848,0.83636475,-0.328125,-0.34375,0.28125
1696252459267,-0.66845703,-0.05255127,0.8366089,0.0,-0.640625,0.359375
1696252459306,-0.66674805,-0.045959473,0.8366089,-0.46875,-0.015625,-0.234375
1696252459347,-0.6672363,-0.051330566,0.8258667,-0.453125,0.6875,-0.21875
1696252459387,-0.6726074,-0.046203613,0.81707764,-1.046875,1.515625,0.375
1696252459426,-0.65771484,-0.049621582,0.8517456,0.4375,2.734375,0.203125
1696252459465,-0.6142578,-0.05328369,0.8480835,0.375,0.453125,-0.140625
1696252459545,-0.6213379,-0.038635254,0.85150146,2.09375,-1.8125,-0.875
1696252459548,-0.64086914,-0.042785645,0.85491943,0.953125,-4.234375,-0.3125
1696252459565,-0.6726074,-0.055725098,0.8234253,-1.0625,-4.1875,0.8125
1696252459605,-0.69628906,-0.047668457,0.80926514,0.703125,-1.65625,0.734375
1696252459648,-0.6813965,-0.058166504,0.82366943,1.109375,-1.703125,0.265625
1696252459685,-0.6870117,-0.06842041,0.8253784,1.359375,-1.484375,-0.28125
1696252459726,-0.6760254,-0.06573486,0.8485718,0.671875,-0.15625,-0.703125
1696252459767,-0.6635742,-0.045959473,0.85272217,0.671875,1.359375,-0.46875
1696252459824,-0.6489258,-0.051330566,0.8461304,-0.25,1.90625,0.125
1696252459844,-0.6381836,-0.032043457,0.8456421,0.03125,1.0,0.0625
1696252459904,-0.6467285,-0.053527832,0.8356323,-0.390625,-1.546875,1.296875
1696252459944,-0.6557617,-0.06378174,0.8200073,-1.109375,-1.96875,0.640625
1696252459964,-0.66308594,-0.046936035,0.83807373,0.140625,-0.109375,-0.203125
1696252460003,-0.6965332,-0.0635376,0.82073975,-1.421875,-2.453125,0.71875
1696252460045,-0.6809082,-0.051330566,0.83099365,1.515625,-0.9375,0.03125
1696252460085,-0.6713867,-0.05328369,0.8378296,-0.078125,0.375,-0.6875
1696252460124,-0.6479492,-0.06011963,0.81463623,-1.53125,0.234375,-0.390625
1696252460164,-0.65966797,-0.038879395,0.8500366,-0.34375,0.53125,0.140625
1696252460205,-0.6669922,-0.04449463,0.82928467,-0.484375,0.0,0.0
1696252460244,-0.64501953,-0.053771973,0.83807373,-0.1875,0.546875,-0.390625
1696252460284,-0.65600586,-0.06378174,0.8344116,-0.84375,-1.453125,0.421875
1696252460325,-0.6801758,-0.04449463,0.82318115,-0.671875,-2.125,0.625
1696252460364,-0.671875,-0.05670166,0.8239136,0.3125,-0.421875,-0.21875
1696252460425,-0.64575195,-0.054992676,0.84124756,-0.125,0.4375,-0.6875
1696252460443,-0.6633301,-0.036193848,0.8451538,-0.34375,-0.828125,-0.3125
1696252460484,-0.670166,-0.038879395,0.83148193,0.1875,-0.75,0.375
1696252460524,-0.6594238,-0.04815674,0.8209839,-0.125,-0.734375,0.25
1696252460564,-0.66430664,-0.04425049,0.8331909,-0.25,-0.5625,-0.25
1696252460604,-0.6699219,-0.051574707,0.8239136,-0.671875,-0.890625,-0.015625
1696252460664,-0.6669922,-0.042541504,0.8414917,0.25,0.125,-0.03125
1696252460684,-0.6623535,-0.042297363,0.8283081,-0.125,-0.265625,0.078125
1696252460725,-0.6477051,-0.036193848,0.8414917,0.40625,0.359375,-0.296875
1696252460787,-0.6442871,-0.045959473,0.838562,-0.375,0.1875,-0.1875
1696252460804,-0.6533203,-0.044006348,0.836853,-0.171875,-0.34375,-0.140625
1696252460847,-0.67626953,-0.038879395,0.83343506,0.03125,-1.90625,0.28125
1696252460865,-0.68066406,-0.04864502,0.8258667,-0.15625,-0.28125,0.390625
1696252460906,-0.66796875,-0.043518066,0.8366089,-0.03125,0.65625,-0.140625
1696252460948,-0.6555176,-0.043029785,0.8319702,-0.375,-0.171875,0.0
1696252460986,-0.657959,-0.039855957,0.8361206,-0.015625,-0.375,0.09375
1696252461026,-0.6586914,-0.044006348,0.83465576,-0.453125,-0.421875,0.28125
1696252461067,-0.6569824,-0.04449463,0.8473511,0.453125,-0.109375,-0.25
1696252461106,-0.6591797,-0.04449463,0.836853,0.3125,-0.265625,0.25
1696252461147,-0.6604004,-0.047912598,0.8319702,-0.046875,-0.234375,0.0
1696252461186,-0.6586914,-0.042053223,0.8348999,0.328125,-0.59375,0.109375
1696252461226,-0.66796875,-0.043762207,0.8390503,0.03125,-0.84375,0.09375
1696252461266,-0.65283203,-0.039611816,0.8356323,-0.1875,0.203125,-0.078125
1696252461308,-0.66503906,-0.04498291,0.8319702,0.0625,-0.671875,0.28125
1696252461349,-0.6640625,-0.042541504,0.8312378,-0.03125,-0.75,-0.09375
1696252461386,-0.65771484,-0.039367676,0.8427124,0.21875,0.828125,0.078125
1696252461426,-0.65649414,-0.04937744,0.83636475,-0.921875,-0.140625,0.234375
1696252461468,-0.6533203,-0.04058838,0.8407593,0.453125,0.125,-0.078125
1696252461507,-0.64746094,-0.035705566,0.8444214,-0.40625,0.09375,0.046875
1696252461545,-0.65478516,-0.047180176,0.8361206,-0.578125,-0.96875,0.578125
1696252461585,-0.6665039,-0.05206299,0.8287964,-0.984375,0.15625,0.46875
1696252461627,-0.6594238,-0.04107666,0.83758545,-1.53125,2.84375,0.703125
1696252461666,-0.65722656,-0.046936035,0.8617554,-0.921875,2.21875,1.296875
1696252461706,-0.6472168,-0.03375244,0.8463745,0.40625,1.171875,0.40625
1696252461747,-0.6594238,-0.02911377,0.86517334,2.484375,0.96875,0.703125
1696252461786,-0.6347656,-0.032287598,0.87323,2.03125,-3.09375,0.703125
1696252461825,-0.65722656,-0.05718994,0.84832764,-1.265625,-3.625,0.328125
1696252461867,-0.67163086,-0.057434082,0.80023193,-2.3125,-0.359375,0.546875
1696252461907,-0.6542969,-0.042785645,0.8097534,-1.53125,-2.09375,-0.25
1696252461946,-0.6623535,-0.0256958,0.826355,2.34375,-3.296875,-1.328125
1696252461986,-0.6435547,-0.026184082,0.8222046,2.53125,-4.0625,-0.625
1696252462025,-0.6599121,-0.035949707,0.8353882,1.640625,-1.65625,0.59375
1696252462066,-0.6689453,-0.0491333,0.8446655,-0.71875,-1.03125,1.359375
1696252462105,-0.6723633,-0.070617676,0.8336792,0.296875,-0.046875,1.03125
1696252462168,-0.6677246,-0.04547119,0.8344116,-0.671875,0.734375,-0.484375
1696252462184,-0.6437988,-0.030334473,0.8341675,-0.5,-0.171875,-0.609375
1696252462206,-0.6550293,-0.038635254,0.8331909,-0.703125,-0.15625,0.984375
1696252462248,-0.6711426,-0.032043457,0.8356323,0.015625,-1.765625,0.6875
