,timestamp,accel_x,accel_y,accel_z,gyro_x,gyro_y,gyro_z,ind
0,1696250473398,-0.42993164,-0.73565674,0.59051514,-0.65625,-0.5625,0.75,0
1,1696250473438,-0.42236328,-0.7268677,0.6005249,-0.78125,0.34375,0.203125,1
2,1696250473478,-0.41552734,-0.73516846,0.5985718,-2.78125,-0.828125,0.71875,2
3,1696250473518,-0.41210938,-0.74005127,0.5961304,-0.734375,-0.390625,0.765625,3
4,1696250473558,-0.41210938,-0.74176025,0.59173584,-0.34375,0.0,1.0625,4
5,1696250473598,-0.40429688,-0.7385864,0.59124756,1.171875,0.25,0.796875,5
6,1696250473638,-0.41088867,-0.7402954,0.58392334,0.71875,-0.421875,0.5,6
7,1696250473678,-0.42895508,-0.74224854,0.5787964,-0.6875,-0.78125,0.40625,7
8,1696250473718,-0.41992188,-0.7366333,0.5932007,-0.640625,-0.546875,0.609375,8
9,1696250473758,-0.4099121,-0.73443604,0.5927124,-0.609375,-0.296875,0.453125,9
10,1696250473798,-0.40576172,-0.73883057,0.59002686,-0.984375,-0.46875,-0.25,10
11,1696250473838,-0.41259766,-0.7402954,0.59124756,-1.28125,0.234375,0.03125,11
12,1696250473878,-0.4169922,-0.73883057,0.5934448,-0.015625,-0.546875,0.328125,12
13,1696250473918,-0.421875,-0.73687744,0.60028076,0.4375,-0.4375,0.453125,13
14,1696250473958,-0.4189453,-0.7407837,0.5968628,0.21875,-0.40625,0.953125,14
15,1696250473998,-0.42358398,-0.7420044,0.5968628,-1.5625,-1.09375,0.6875,15
16,1696250474038,-0.4091797,-0.73516846,0.58929443,-1.28125,-0.875,0.375,16
17,1696250474078,-0.41210938,-0.7415161,0.6088257,0.328125,0.046875,0.75,17
18,1696250474118,-0.40893555,-0.73223877,0.60369873,0.328125,-0.640625,0.671875,18
19,1696250474158,-0.40795898,-0.7319946,0.6000366,1.140625,-0.40625,0.109375,19
20,1696250474198,-0.40600586,-0.73101807,0.5910034,-0.8125,-0.828125,0.625,20
21,1696250474238,-0.40649414,-0.7300415,0.5993042,-0.59375,-0.46875,0.125,21
22,1696250474278,-0.41308594,-0.737854,0.5961304,-3.40625,-0.828125,-0.390625,22
23,1696250474318,-0.4189453,-0.7276001,0.61932373,-1.03125,0.34375,-0.171875,23
24,1696250474358,-0.41577148,-0.7463989,0.6107788,1.140625,0.921875,0.234375,24
25,1696250474398,-0.41357422,-0.74102783,0.6005249,0.53125,-0.140625,0.53125,25
26,1696250474438,-0.4375,-0.73687744,0.59661865,-1.5625,-0.390625,0.515625,26
27,1696250474478,-0.4182129,-0.73272705,0.6000366,-3.625,-0.15625,0.765625,27
28,1696250474518,-0.3972168,-0.7390747,0.6154175,-0.140625,0.546875,0.265625,28
29,1696250474558,-0.40429688,-0.7312622,0.6005249,0.53125,-0.375,-0.0625,29
30,1696250474598,-0.4111328,-0.7732544,0.5651245,0.078125,-1.140625,0.421875,61
31,1696250474638,-0.39941406,-0.76153564,0.5722046,-0.65625,-0.640625,0.59375,62
32,1696250474678,-0.40234375,-0.7542114,0.5685425,-1.796875,-0.3125,-0.21875,63
33,1696250474718,-0.40795898,-0.76641846,0.5751343,-0.34375,-0.609375,0.1875,64
34,1696250474758,-0.39672852,-0.76690674,0.5663452,-1.953125,-0.578125,-0.4375,65
35,1696250474798,-0.4091797,-0.7468872,0.5770874,-3.609375,-0.125,-0.65625,66
36,1696250474838,-0.39941406,-0.755188,0.5856323,-0.734375,-0.34375,0.140625,67
37,1696250474878,-0.40283203,-0.7529907,0.59710693,-2.484375,-1.015625,-0.140625,68
38,1696250474918,-0.4111328,-0.75177,0.59124756,-1.75,-0.84375,0.03125,69
39,1696250474958,-0.4038086,-0.7437134,0.5836792,0.203125,-0.59375,0.015625,70
40,1696250474998,-0.39941406,-0.7463989,0.58270264,0.359375,0.15625,-0.046875,71
41,1696250475038,-0.41015625,-0.7571411,0.5741577,-1.0,-0.640625,0.640625,72
42,1696250475078,-0.40698242,-0.7529907,0.57855225,0.0625,-1.4375,0.53125,73
43,1696250475118,-0.39648438,-0.75201416,0.5890503,-0.109375,0.140625,-0.21875,74
44,1696250475158,-0.4074707,-0.75323486,0.57977295,-1.0625,-0.53125,0.0625,75
45,1696250475198,-0.4099121,-0.7503052,0.5873413,0.75,-0.921875,0.390625,76
46,1696250475238,-0.40673828,-0.74664307,0.58392334,1.40625,-0.21875,0.359375,77
47,1696250475278,-0.40625,-0.75445557,0.57855225,1.375,-0.1875,0.296875,78
48,1696250475318,-0.40551758,-0.7529907,0.5758667,0.6875,-0.84375,0.15625,79
49,1696250475358,-0.4008789,-0.74713135,0.56951904,0.0,-0.65625,0.1875,80
50,1696250475398,-0.4025879,-0.75445557,0.58221436,0.265625,-0.8125,0.5,81
51,1696250475438,-0.40429688,-0.7564087,0.5856323,-0.734375,-0.09375,0.0,82
52,1696250475478,-0.40576172,-0.7576294,0.58807373,0.46875,-0.046875,-0.71875,83
53,1696250475518,-0.40795898,-0.7485962,0.5685425,-0.15625,-0.859375,-0.3125,84
54,1696250475558,-0.4025879,-0.756897,0.57489014,-0.890625,-1.25,-0.015625,85
55,1696250475598,-0.41015625,-0.74884033,0.58148193,-1.65625,-0.75,-0.890625,86
56,1696250475638,-0.40600586,-0.7539673,0.58270264,2.125,-0.609375,-0.09375,87
57,1696250475678,-0.4074707,-0.7539673,0.58929443,2.65625,0.4375,0.40625,88
58,1696250475718,-0.42504883,-0.7490845,0.5844116,-0.0625,-0.171875,0.609375,89
59,1696250475758,-0.40283203,-0.7542114,0.56585693,-0.234375,-0.8125,0.171875,90
60,1696250475798,-0.40625,-0.7503052,0.57733154,-1.375,-0.484375,0.171875,91
61,1696250475838,-0.40405273,-0.75860596,0.58270264,-0.546875,-0.59375,0.359375,92
62,1696250475878,-0.4099121,-0.7468872,0.5795288,0.859375,-0.609375,0.046875,93
63,1696250475918,-0.40820312,-0.74713135,0.58099365,0.703125,-0.078125,-0.03125,94
64,1696250475958,-0.40893555,-0.7529907,0.5648804,0.3125,-0.4375,0.328125,95
65,1696250475998,-0.40600586,-0.75006104,0.5836792,-0.09375,-0.34375,0.3125,96
66,1696250476038,-0.41430664,-0.7485962,0.57977295,-0.375,-0.203125,0.390625,97
67,1696250476078,-0.40356445,-0.75177,0.58636475,0.578125,-0.84375,0.171875,98
68,1696250476118,-0.40673828,-0.7529907,0.57733154,0.171875,-0.40625,-0.296875,99
69,1696250476158,-0.41479492,-0.75787354,0.5614624,-2.1875,-0.703125,-0.140625,100
70,1696250476198,-0.40698242,-0.7527466,0.58148193,-0.1875,-0.578125,0.5625,101
71,1696250476238,-0.40625,-0.75323486,0.5824585,-0.140625,-0.25,0.34375,102
72,1696250476278,-0.41357422,-0.7583618,0.5783081,0.109375,-0.484375,-0.21875,103
73,1696250476318,-0.4091797,-0.74713135,0.58465576,0.265625,-0.484375,0.078125,104
74,1696250476358,-0.40625,-0.74835205,0.58270264,-0.46875,-0.421875,0.515625,105
75,1696250476398,-0.40551758,-0.7564087,0.5778198,0.25,-0.578125,0.109375,106
76,1696250476438,-0.40527344,-0.75323486,0.58270264,0.9375,-0.34375,0.078125,107
77,1696250476478,-0.41357422,-0.75445557,0.5795288,0.125,-0.828125,0.25,108
78,1696250476518,-0.40673828,-0.74542236,0.56781006,-0.140625,-0.71875,0.265625,109
79,1696250476558,-0.40795898,-0.753479,0.5800171,1.15625,0.015625,0.28125,110
80,1696250476598,-0.40527344,-0.7576294,0.5790405,-0.921875,-0.75,0.078125,111
81,1696250476638,-0.4116211,-0.7593384,0.5751343,-0.40625,-0.234375,0.1875,112
82,1696250476678,-0.41723633,-0.75006104,0.5775757,1.234375,-0.734375,0.375,113
83,1696250476718,-0.40527344,-0.7515259,0.57806396,-0.03125,-0.78125,0.28125,114
84,1696250476758,-0.40673828,-0.7510376,0.58465576,-0.109375,-0.609375,0.28125,115
85,1696250476798,-0.4111328,-0.7576294,0.56903076,0.328125,-0.625,-0.03125,116
86,1696250476838,-0.40966797,-0.7542114,0.5709839,-0.640625,-0.625,-0.25,117
87,1696250476878,-0.40698242,-0.7461548,0.58343506,-0.28125,-0.03125,-0.140625,118
88,1696250476918,-0.40722656,-0.75006104,0.5739136,-0.0625,-0.21875,0.234375,119
89,1696250476958,-0.4152832,-0.7564087,0.5722046,0.078125,-0.34375,-0.03125,120
90,1696250476998,-0.40893555,-0.7529907,0.5739136,-0.671875,-0.6875,0.140625,121
91,1696250477038,-0.41210938,-0.75177,0.5807495,-0.734375,-0.96875,0.5625,122
92,1696250477078,-0.39916992,-0.7581177,0.5800171,0.3125,-0.40625,0.34375,123
93,1696250477118,-0.4074707,-0.74884033,0.5800171,-0.15625,-0.21875,0.015625,124
94,1696250477158,-0.4128418,-0.74713135,0.5829468,-0.34375,-0.234375,0.5625,125
95,1696250477198,-0.41430664,-0.7510376,0.5807495,-0.390625,-0.578125,0.375,126
96,1696250477238,-0.41552734,-0.75323486,0.5861206,-1.078125,-0.421875,0.421875,127
97,1696250477278,-0.4116211,-0.75372314,0.58026123,-0.9375,-0.65625,0.4375,128
98,1696250477318,-0.40405273,-0.753479,0.5841675,-1.078125,-0.109375,-0.03125,129
99,1696250477358,-0.40942383,-0.74542236,0.5878296,-0.140625,0.125,0.15625,130
100,1696250477398,-0.4111328,-0.7542114,0.5829468,0.6875,-0.5,-0.046875,131
101,1696250477438,-0.41870117,-0.756897,0.5807495,0.234375,-0.40625,0.53125,132
102,1696250477478,-0.4033203,-0.7554321,0.58221436,1.125,-0.375,0.453125,133
103,1696250477518,-0.3972168,-0.74713135,0.58099365,-1.078125,0.015625,0.03125,134
104,1696250477558,-0.4104004,-0.7490845,0.5805054,-0.34375,-0.0625,-0.0625,135
105,1696250477598,-0.41259766,-0.74224854,0.5895386,-0.328125,-0.203125,0.0625,136
106,1696250477638,-0.41333008,-0.7559204,0.57806396,-1.59375,0.125,0.53125,137
107,1696250477678,-0.40673828,-0.7427368,0.57318115,-0.78125,-0.140625,0.25,138
108,1696250477718,-0.40625,-0.7510376,0.58221436,-0.1875,0.171875,0.0625,139
109,1696250477758,-0.40820312,-0.7449341,0.59198,-0.984375,-0.34375,-0.109375,140
110,1696250477798,-0.40893555,-0.7383423,0.58929443,1.21875,-0.625,0.671875,141
111,1696250477838,-0.40307617,-0.74664307,0.5890503,1.140625,-0.25,0.375,142
112,1696250477878,-0.41796875,-0.74835205,0.5807495,1.859375,-0.375,0.890625,143
113,1696250477918,-0.40307617,-0.7617798,0.58221436,1.4375,-0.953125,1.078125,144
114,1696250477958,-0.39013672,-0.7476196,0.57611084,-0.59375,-0.515625,0.3125,145
115,1696250477998,-0.40283203,-0.74468994,0.5819702,1.5625,-1.0,0.15625,146
116,1696250478038,-0.3996582,-0.75665283,0.5795288,1.640625,-0.671875,0.5625,147
117,1696250478078,-0.4111328,-0.75787354,0.58636475,-0.8125,-0.609375,0.03125,148
118,1696250478118,-0.40942383,-0.74664307,0.5753784,0.578125,-0.6875,0.140625,149
119,1696250478158,-0.39868164,-0.73809814,0.57806396,1.40625,-0.578125,0.40625,150
120,1696250478198,-0.41577148,-0.75860596,0.5878296,0.921875,-0.046875,0.96875,151
121,1696250478238,-0.4128418,-0.77545166,0.57318115,-1.0,-1.625,0.546875,152
122,1696250478278,-0.38623047,-0.74786377,0.5741577,-1.578125,-0.671875,-0.75,153
123,1696250478318,-0.3972168,-0.75006104,0.5800171,0.734375,0.25,-0.171875,154
124,1696250478358,-0.40625,-0.7498169,0.574646,-1.5,-0.4375,0.046875,155
125,1696250478398,-0.40307617,-0.7468872,0.5783081,-0.078125,-0.078125,0.34375,156
126,1696250478438,-0.40234375,-0.74664307,0.5853882,0.046875,-0.390625,0.3125,157
127,1696250478478,-0.4169922,-0.75372314,0.5704956,-0.953125,-0.34375,0.25,158
128,1696250478518,-0.40966797,-0.75860596,0.57733154,-1.5,-1.21875,0.515625,159
129,1696250478558,-0.4033203,-0.7542114,0.59198,-0.171875,-0.40625,0.703125,160
130,1696250478598,-0.40161133,-0.74957275,0.58392334,1.59375,-0.671875,0.0625,161
131,1696250478638,-0.40429688,-0.7529907,0.574646,0.40625,-0.671875,-0.28125,162
132,1696250478678,-0.40795898,-0.75128174,0.57928467,-0.40625,-1.234375,0.46875,163
133,1696250478718,-0.40356445,-0.7527466,0.5787964,0.3125,-0.6875,0.59375,164
134,1696250478758,-0.40356445,-0.7554321,0.5807495,0.3125,-0.734375,0.1875,165
135,1696250478798,-0.4025879,-0.75128174,0.572937,-0.71875,0.0,-0.140625,166
136,1696250478838,-0.41088867,-0.75177,0.58270264,-1.09375,0.234375,-0.34375,167
137,1696250478878,-0.40600586,-0.7473755,0.576355,0.125,-0.625,0.40625,168
138,1696250478918,-0.40527344,-0.75250244,0.58392334,0.671875,-0.4375,0.515625,169
139,1696250478958,-0.39990234,-0.7522583,0.5817261,-0.03125,-0.6875,0.234375,170
140,1696250478998,-0.41064453,-0.7505493,0.5883179,0.25,-0.4375,0.015625,171
141,1696250479038,-0.4013672,-0.74786377,0.5812378,0.453125,-0.546875,-0.03125,172
142,1696250479078,-0.4116211,-0.7527466,0.5807495,2.03125,-0.6875,0.078125,173
143,1696250479118,-0.40844727,-0.7559204,0.5700073,0.40625,-0.40625,-0.453125,174
144,1696250479158,-0.4099121,-0.75787354,0.57806396,-1.546875,-0.765625,-0.4375,175
145,1696250479198,-0.4177246,-0.7559204,0.5770874,0.640625,-0.59375,0.53125,176
146,1696250479238,-0.4013672,-0.7564087,0.56707764,0.6875,0.34375,0.125,177
147,1696250479278,-0.40454102,-0.7432251,0.5819702,0.4375,-0.296875,0.1875,178
148,1696250479318,-0.4074707,-0.75323486,0.5890503,0.265625,-0.5625,0.328125,179
149,1696250479358,-0.41210938,-0.75909424,0.58392334,2.453125,-0.09375,0.671875,180
150,1696250479398,-0.40576172,-0.7510376,0.5663452,-0.03125,-0.578125,0.125,181
151,1696250479438,-0.3996582,-0.7510376,0.5758667,0.1875,-0.8125,-0.21875,182
152,1696250479478,-0.40356445,-0.76568604,0.56585693,0.984375,-0.890625,0.15625,183
153,1696250479518,-0.41064453,-0.755188,0.5726929,0.953125,-0.734375,0.28125,184
154,1696250479558,-0.41015625,-0.75372314,0.5648804,0.15625,-0.703125,0.25,185
155,1696250479598,-0.41064453,-0.75860596,0.5765991,0.015625,-0.3125,0.171875,186
156,1696250479638,-0.4104004,-0.7595825,0.57366943,-0.375,-0.859375,0.421875,187
157,1696250479678,-0.4025879,-0.75738525,0.56463623,-0.234375,-0.90625,0.28125,188
158,1696250479718,-0.41015625,-0.7583618,0.5709839,0.203125,-0.84375,0.25,189
159,1696250479758,-0.40234375,-0.7510376,0.58099365,-0.40625,-0.296875,-0.015625,190
160,1696250479798,-0.4189453,-0.7608032,0.5663452,-0.5,-0.578125,0.484375,191
161,1696250479838,-0.40063477,-0.76153564,0.56170654,-0.1875,-0.453125,-0.0625,192
162,1696250479878,-0.40576172,-0.7546997,0.57196045,-1.703125,-0.125,-0.140625,193
163,1696250479918,-0.41357422,-0.76104736,0.57806396,-0.671875,-0.484375,0.421875,194
164,1696250479958,-0.39916992,-0.7539673,0.5739136,0.28125,0.015625,0.5625,195
165,1696250479998,-0.4152832,-0.74957275,0.5783081,0.015625,-0.421875,0.453125,196
166,1696250480038,-0.40942383,-0.75860596,0.5687866,-0.953125,-0.703125,0.4375,197
167,1696250480078,-0.4091797,-0.75787354,0.57318115,-0.9375,-0.09375,0.5,198
168,1696250480118,-0.40795898,-0.753479,0.5778198,0.921875,0.15625,0.3125,199
169,1696250480158,-0.40771484,-0.75201416,0.5639038,0.640625,-0.671875,0.171875,200
170,1696250480198,-0.40454102,-0.7571411,0.5778198,1.078125,-0.28125,0.40625,201
171,1696250480238,-0.40820312,-0.75738525,0.57806396,1.453125,0.09375,0.6875,202
172,1696250480278,-0.41186523,-0.75494385,0.56829834,2.1875,-0.125,0.734375,203
173,1696250480318,-0.4025879,-0.75909424,0.5722046,1.546875,0.15625,0.40625,204
174,1696250480358,-0.40185547,-0.76690674,0.5663452,-0.421875,-0.1875,0.3125,205
175,1696250480398,-0.40063477,-0.7581177,0.56292725,0.90625,-0.015625,0.515625,206
176,1696250480438,-0.39770508,-0.7564087,0.56292725,1.28125,0.25,0.96875,207
177,1696250480478,-0.39648438,-0.7625122,0.5717163,0.234375,-0.234375,0.71875,208
178,1696250480518,-0.39892578,-0.76641846,0.56829834,0.8125,-0.5625,0.34375,209
179,1696250480558,-0.40405273,-0.7625122,0.5661011,2.015625,-0.5,0.671875,210
180,1696250480598,-0.4020996,-0.75738525,0.56414795,2.21875,-0.5625,1.0,211
181,1696250480638,-0.40063477,-0.7749634,0.5595093,2.9375,-0.21875,1.296875,212
182,1696250480678,-0.39697266,-0.76763916,0.55462646,1.0,-0.65625,0.171875,213
183,1696250480718,-0.3930664,-0.7695923,0.5565796,0.390625,-0.15625,-0.125,214
184,1696250480758,-0.40673828,-0.77667236,0.555603,0.65625,-0.546875,0.1875,215
185,1696250480798,-0.39916992,-0.77008057,0.56121826,-0.15625,-0.734375,0.265625,216
186,1696250480838,-0.3935547,-0.77593994,0.55584717,0.546875,-0.109375,0.578125,217
187,1696250480878,-0.40356445,-0.76568604,0.54901123,-0.046875,-0.3125,0.40625,218
188,1696250480918,-0.39526367,-0.7769165,0.55877686,-1.765625,-0.203125,0.09375,219
189,1696250480958,-0.39331055,-0.7715454,0.55999756,0.0625,-0.796875,0.15625,220
190,1696250480998,-0.3996582,-0.7671509,0.55926514,0.40625,-0.34375,0.515625,221
191,1696250481038,-0.39331055,-0.76153564,0.5516968,-0.25,-0.328125,-0.203125,222
192,1696250481078,-0.38720703,-0.76812744,0.5516968,0.296875,-0.703125,0.28125,223
193,1696250481118,-0.39526367,-0.7756958,0.5531616,0.40625,-1.1875,0.5,224
194,1696250481158,-0.39208984,-0.77960205,0.557312,0.5,-0.53125,0.078125,225
195,1696250481198,-0.39697266,-0.7752075,0.5531616,0.265625,-0.40625,0.296875,226
196,1696250481238,-0.39941406,-0.76812744,0.54730225,-0.40625,-0.46875,0.125,227
197,1696250481278,-0.3930664,-0.7678833,0.5619507,-0.828125,-0.640625,-0.140625,228
198,1696250481318,-0.3947754,-0.7764282,0.5595093,-0.234375,-0.828125,0.296875,229
199,1696250481358,-0.39794922,-0.7710571,0.5565796,-1.5,-0.875,-0.375,230
200,1696250481398,-0.39770508,-0.77349854,0.56170654,-1.59375,-0.640625,-0.125,231
201,1696250481438,-0.3935547,-0.76885986,0.55340576,0.1875,-0.65625,0.28125,232
202,1696250481478,-0.39233398,-0.7654419,0.55755615,-0.375,-0.046875,0.15625,233
203,1696250481518,-0.40405273,-0.77008057,0.5661011,-1.359375,-0.640625,-0.5,234
204,1696250481558,-0.40307617,-0.7744751,0.5648804,-0.921875,-0.59375,-0.421875,235
205,1696250481598,-0.39624023,-0.76934814,0.55511475,-0.96875,-0.671875,-0.09375,236
206,1696250481638,-0.39111328,-0.7617798,0.5648804,-0.953125,-0.53125,0.078125,237
207,1696250481678,-0.3996582,-0.76690674,0.5651245,-1.078125,-0.125,0.125,238
208,1696250481718,-0.4033203,-0.76348877,0.56951904,-0.421875,-0.390625,-0.328125,239
209,1696250481758,-0.40698242,-0.767395,0.5700073,-0.875,-0.546875,0.0625,240
210,1696250481798,-0.41308594,-0.7661743,0.5685425,0.109375,-1.453125,1.015625,241
211,1696250481838,-0.39135742,-0.7576294,0.57611084,1.734375,-1.234375,0.15625,242
212,1696250481878,-0.39501953,-0.76226807,0.5631714,0.46875,0.53125,-0.890625,243
213,1696250481918,-0.40844727,-0.7752075,0.5541382,-0.640625,-0.5625,-0.15625,244
214,1696250481958,-0.40673828,-0.7583618,0.5651245,-0.65625,-0.890625,0.078125,245
215,1696250481998,-0.40185547,-0.7612915,0.5648804,0.0,0.09375,0.5,246
216,1696250482038,-0.39648438,-0.76275635,0.56121826,-0.046875,-0.71875,0.5,247
217,1696250482078,-0.4013672,-0.76348877,0.5704956,-0.21875,-0.265625,0.390625,248
218,1696250482118,-0.40429688,-0.76104736,0.5687866,1.71875,-0.375,0.65625,249
219,1696250482158,-0.40112305,-0.7649536,0.559021,4.296875,-1.21875,1.6875,250
220,1696250482198,-0.39453125,-0.77960205,0.55926514,3.078125,-1.015625,1.734375,251
221,1696250482238,-0.40429688,-0.77593994,0.5602417,1.203125,-0.5625,0.859375,252
222,1696250482278,-0.40478516,-0.7827759,0.545105,0.234375,-0.796875,0.140625,253
223,1696250482318,-0.3959961,-0.7678833,0.5543823,-0.6875,-1.296875,-0.140625,254
224,1696250482358,-0.38867188,-0.76519775,0.5536499,-0.9375,-0.0625,-0.40625,255
225,1696250482398,-0.3972168,-0.7798462,0.5477905,-0.828125,0.265625,-0.34375,256
226,1696250482438,-0.40039062,-0.772522,0.5519409,-2.0625,-0.15625,-0.203125,257
227,1696250482478,-0.39941406,-0.78009033,0.55633545,-1.34375,-0.625,0.421875,258
228,1696250482518,-0.40429688,-0.7671509,0.5570679,-0.8125,-0.71875,-0.15625,259
229,1696250482558,-0.39160156,-0.7703247,0.5656128,-0.96875,-0.6875,-0.59375,260
230,1696250482598,-0.4013672,-0.76153564,0.557312,-0.265625,-0.8125,-0.4375,261
231,1696250482638,-0.40429688,-0.77301025,0.5560913,0.296875,-0.9375,0.109375,262
232,1696250482678,-0.3996582,-0.7617798,0.56073,-0.015625,-0.953125,-0.046875,263
233,1696250482718,-0.4020996,-0.7661743,0.574646,0.296875,-1.0,-0.265625,264
234,1696250482758,-0.40307617,-0.7756958,0.5602417,-0.859375,-1.296875,0.046875,265
235,1696250482798,-0.40649414,-0.76519775,0.5609741,-1.140625,-1.453125,-0.25,266
236,1696250482838,-0.40649414,-0.75909424,0.5673218,0.53125,-1.203125,-0.15625,267
237,1696250482878,-0.4086914,-0.76519775,0.5570679,-1.015625,-1.546875,0.046875,268
238,1696250482918,-0.41357422,-0.7654419,0.5697632,-0.40625,-0.78125,-0.140625,269
239,1696250482958,-0.4038086,-0.7678833,0.55877686,0.359375,-1.0625,0.171875,270
240,1696250482998,-0.40698242,-0.7683716,0.5578003,-0.234375,-1.34375,0.265625,271
241,1696250483038,-0.40844727,-0.75860596,0.55511475,-0.234375,-0.640625,0.28125,272
242,1696250483078,-0.4104004,-0.7649536,0.56365967,0.171875,-0.734375,-0.171875,273
243,1696250483118,-0.4189453,-0.77008057,0.5680542,0.3125,-0.578125,0.015625,274
244,1696250483158,-0.3959961,-0.7698364,0.5524292,-0.234375,-0.796875,-0.625,275
245,1696250483198,-0.41748047,-0.7595825,0.55511475,-0.984375,-0.609375,-0.65625,276
246,1696250483238,-0.421875,-0.75909424,0.5639038,0.421875,-0.203125,0.578125,277
247,1696250483278,-0.42089844,-0.76812744,0.5570679,0.203125,0.125,0.5,278
248,1696250483318,-0.41333008,-0.76275635,0.55804443,-0.953125,-1.0,-0.140625,279
249,1696250483358,-0.40966797,-0.7546997,0.57147217,-0.484375,-0.625,0.265625,280
250,1696250483398,-0.4128418,-0.75445557,0.5726929,0.703125,0.078125,0.515625,281
251,1696250483438,-0.40429688,-0.75177,0.5687866,-0.125,0.453125,0.21875,282
252,1696250483478,-0.4206543,-0.7581177,0.5651245,-1.109375,-0.109375,0.078125,283
253,1696250483518,-0.41088867,-0.76763916,0.56536865,-1.109375,-0.5,0.796875,284
254,1696250483558,-0.40600586,-0.7571411,0.5758667,-1.78125,0.375,0.4375,285
255,1696250483598,-0.4104004,-0.7581177,0.57025146,1.234375,0.421875,0.28125,286
256,1696250483638,-0.40966797,-0.772522,0.55999756,2.078125,-0.53125,0.578125,287
257,1696250483678,-0.4128418,-0.7630005,0.5536499,-0.6875,-0.671875,0.359375,288
258,1696250483718,-0.41333008,-0.75787354,0.55926514,-0.15625,-0.953125,0.328125,289
259,1696250483758,-0.39624023,-0.76104736,0.5639038,0.6875,-1.375,0.46875,290
260,1696250483798,-0.41186523,-0.77301025,0.55218506,-0.046875,-2.953125,-0.4375,291
261,1696250483838,-0.41357422,-0.76226807,0.56781006,-0.5625,-1.75,-0.65625,292
262,1696250483878,-0.41308594,-0.74884033,0.56951904,-0.640625,-0.625,0.375,293
263,1696250483918,-0.40576172,-0.76153564,0.5685425,0.953125,-0.078125,0.59375,294
264,1696250483958,-0.41186523,-0.76690674,0.55999756,1.609375,-0.6875,0.75,295
265,1696250483998,-0.41748047,-0.770813,0.55584717,0.3125,-0.921875,0.984375,296
266,1696250484038,-0.40112305,-0.7571411,0.54022217,-0.171875,-0.75,-0.078125,297
267,1696250484078,-0.41723633,-0.767395,0.55218506,-0.71875,-0.171875,-0.171875,298
268,1696250484118,-0.41137695,-0.76226807,0.5685425,0.5625,-0.40625,0.15625,299
269,1696250484158,-0.4206543,-0.7703247,0.56121826,0.6875,-0.5,0.609375,300
270,1696250484198,-0.41503906,-0.7600708,0.5663452,0.921875,0.53125,0.46875,301
271,1696250484238,-0.4086914,-0.7620239,0.5609741,0.625,0.3125,0.46875,302
272,1696250484278,-0.40234375,-0.7625122,0.54559326,-0.71875,-0.640625,0.671875,303
273,1696250484318,-0.40771484,-0.7683716,0.5470581,1.015625,-0.65625,0.21875,304
274,1696250484358,-0.40673828,-0.76348877,0.56292725,0.71875,-1.328125,0.046875,305
275,1696250484398,-0.40820312,-0.77178955,0.5543823,1.40625,-0.859375,0.65625,306
276,1696250484438,-0.41186523,-0.76690674,0.5392456,1.421875,-0.46875,0.34375,307
277,1696250484478,-0.40795898,-0.767395,0.53948975,-0.84375,-0.375,0.140625,308
278,1696250484518,-0.40649414,-0.7564087,0.56463623,-0.953125,0.046875,0.625,309
279,1696250484558,-0.4025879,-0.77716064,0.54901123,0.125,-0.734375,0.296875,310
280,1696250484598,-0.42163086,-0.77423096,0.5463257,-0.765625,-1.25,-0.046875,311
281,1696250484638,-0.4091797,-0.77349854,0.5661011,1.3125,-1.109375,1.0625,312
282,1696250484678,-0.39013672,-0.75787354,0.57073975,-1.09375,1.28125,-0.96875,313
283,1696250484718,-0.42260742,-0.7617798,0.5507202,-2.421875,-1.046875,-1.484375,314
284,1696250484758,-0.41430664,-0.7703247,0.5524292,1.09375,-1.625,0.203125,315
285,1696250484798,-0.42749023,-0.77178955,0.5350952,-1.859375,-0.328125,0.609375,316
286,1696250484838,-0.41259766,-0.7710571,0.5578003,-2.5,-1.09375,0.375,317
287,1696250484878,-0.3955078,-0.7654419,0.5585327,1.296875,-1.171875,0.578125,318
288,1696250484918,-0.4189453,-0.7703247,0.5634155,0.015625,-0.078125,-0.359375,319
289,1696250484958,-0.43115234,-0.75909424,0.5597534,-0.828125,-0.6875,-0.5,320
290,1696250484998,-0.4038086,-0.7539673,0.56048584,1.359375,0.140625,0.71875,321
291,1696250485038,-0.4020996,-0.76397705,0.5536499,-0.578125,-0.96875,0.515625,322
292,1696250485078,-0.41967773,-0.77423096,0.5529175,0.15625,-0.984375,0.171875,323
293,1696250485118,-0.40966797,-0.75787354,0.5595093,-0.46875,-0.4375,-0.25,324
294,1696250485158,-0.42041016,-0.7593384,0.5492554,-0.09375,-0.265625,0.203125,325
295,1696250485198,-0.4165039,-0.7620239,0.543396,0.171875,-0.765625,0.765625,326
296,1696250485238,-0.41625977,-0.7698364,0.5614624,-0.046875,-0.171875,0.5625,327
297,1696250485278,-0.40063477,-0.7576294,0.59002686,1.203125,0.546875,0.609375,328
298,1696250485318,-0.39575195,-0.7456665,0.54364014,-1.046875,0.71875,-1.125,329
299,1696250485358,-0.4387207,-0.76104736,0.54974365,-0.546875,-1.703125,0.515625,330
300,1696250485398,-0.40966797,-0.76763916,0.57244873,0.171875,-0.625,0.34375,331
301,1696250485438,-0.40551758,-0.75909424,0.55584717,-2.6875,0.125,-0.859375,332
302,1696250485478,-0.41918945,-0.7642212,0.5656128,2.671875,-0.171875,0.078125,333
303,1696250485518,-0.41137695,-0.7625122,0.5492554,-0.25,0.203125,0.265625,334
304,1696250485558,-0.43725586,-0.7529907,0.5524292,-2.46875,-0.109375,0.109375,335
305,1696250485598,-0.40576172,-0.76885986,0.56707764,0.34375,-0.484375,0.4375,336
306,1696250485638,-0.40039062,-0.75372314,0.5765991,-0.46875,-0.0625,0.21875,337
307,1696250485678,-0.41967773,-0.75445557,0.56073,1.15625,-0.390625,0.265625,338
308,1696250485718,-0.41845703,-0.7605591,0.5553589,0.1875,-0.59375,0.0,339
309,1696250485758,-0.40942383,-0.75665283,0.5726929,0.46875,0.5,0.21875,340
310,1696250485798,-0.42089844,-0.76568604,0.5597534,1.1875,-0.421875,0.828125,341
311,1696250485838,-0.40454102,-0.7605591,0.557312,0.703125,-0.5,0.0625,342
312,1696250485878,-0.4116211,-0.7600708,0.55389404,-0.46875,0.15625,-0.4375,343
313,1696250485918,-0.42578125,-0.76690674,0.55877686,0.203125,-0.984375,0.359375,344
314,1696250485958,-0.41430664,-0.76763916,0.559021,-0.265625,-0.78125,0.828125,345
315,1696250485998,-0.40014648,-0.76226807,0.5685425,-0.21875,-0.5,0.03125,346
316,1696250486038,-0.40649414,-0.76275635,0.5619507,0.953125,-0.421875,0.140625,347
317,1696250486078,-0.41333008,-0.767395,0.5614624,0.359375,-0.59375,0.21875,348
318,1696250486118,-0.42407227,-0.7576294,0.555603,-0.9375,-0.625,0.046875,349
319,1696250486158,-0.39916992,-0.7647095,0.5536499,0.953125,-0.671875,0.28125,350
320,1696250486198,-0.41235352,-0.7600708,0.5512085,-0.359375,0.03125,-0.265625,351
321,1696250486238,-0.42016602,-0.76446533,0.56536865,0.21875,-0.40625,0.015625,352
322,1696250486278,-0.40893555,-0.767395,0.5560913,0.21875,-0.671875,0.40625,353
323,1696250486318,-0.41479492,-0.7564087,0.55023193,-0.109375,-0.109375,0.203125,354
324,1696250486358,-0.41430664,-0.7595825,0.5631714,-0.546875,-0.59375,0.3125,355
325,1696250486398,-0.41235352,-0.7637329,0.56463623,-0.5,-0.609375,0.671875,356
326,1696250486438,-0.40966797,-0.7571411,0.56585693,0.03125,0.046875,-0.125,357
327,1696250486478,-0.41748047,-0.7605591,0.5717163,-1.234375,-0.046875,-0.234375,358
328,1696250486518,-0.4169922,-0.7659302,0.5663452,-1.859375,0.34375,0.484375,359
329,1696250486558,-0.40478516,-0.7727661,0.56658936,0.9375,1.34375,0.859375,360
330,1696250486598,-0.39770508,-0.7612915,0.5602417,-0.546875,0.5,0.125,361
331,1696250486638,-0.40820312,-0.75738525,0.5648804,-0.65625,0.1875,-0.1875,362
332,1696250486678,-0.41235352,-0.76763916,0.5619507,0.0625,0.515625,0.609375,363
333,1696250486718,-0.4140625,-0.76348877,0.571228,-3.484375,0.875,0.59375,364
334,1696250486758,-0.40893555,-0.76446533,0.5775757,-1.453125,0.109375,0.65625,365
335,1696250486798,-0.41381836,-0.755188,0.56292725,-1.78125,0.140625,0.171875,366
336,1696250486838,-0.3869629,-0.7407837,0.5741577,-0.109375,-0.90625,0.453125,367
337,1696250486878,-0.4033203,-0.76885986,0.56536865,2.390625,-0.1875,0.921875,368
338,1696250486918,-0.40307617,-0.76031494,0.5634155,0.859375,-0.140625,0.328125,369
339,1696250486958,-0.40844727,-0.7630005,0.58270264,1.9375,-0.03125,0.90625,370
340,1696250486998,-0.39672852,-0.7595825,0.5817261,0.640625,0.28125,0.34375,371
341,1696250487038,-0.4025879,-0.75909424,0.5697632,-0.171875,-0.046875,0.421875,372
342,1696250487078,-0.40966797,-0.7666626,0.5582886,2.1875,-0.859375,0.765625,373
343,1696250487118,-0.39379883,-0.76519775,0.5609741,1.515625,0.046875,1.375,374
344,1696250487158,-0.38793945,-0.7727661,0.56707764,1.109375,0.453125,0.578125,375
345,1696250487198,-0.39453125,-0.7727661,0.55999756,3.453125,-0.78125,0.625,376
346,1696250487238,-0.41015625,-0.7703247,0.5494995,2.34375,0.28125,-0.078125,377
347,1696250487278,-0.41479492,-0.772522,0.5560913,0.921875,-1.1875,1.0,378
348,1696250487318,-0.38891602,-0.77789307,0.545105,0.609375,-1.421875,1.359375,379
349,1696250487358,-0.390625,-0.76446533,0.5519409,-1.515625,-1.3125,-0.21875,380
350,1696250487398,-0.40161133,-0.772522,0.5709839,0.015625,-1.46875,0.25,381
351,1696250487438,-0.3857422,-0.7822876,0.5582886,0.921875,-0.4375,0.28125,382
352,1696250487478,-0.39941406,-0.7769165,0.54681396,1.671875,0.015625,0.46875,383
353,1696250487518,-0.40356445,-0.7617798,0.5475464,-0.1875,-1.421875,0.421875,384
354,1696250487558,-0.39379883,-0.77130127,0.5524292,0.234375,-1.28125,0.734375,385
355,1696250487598,-0.39672852,-0.7678833,0.56048584,3.15625,-1.359375,0.4375,386
356,1696250487638,-0.41137695,-0.7822876,0.5363159,4.984375,-0.9375,0.9375,387
357,1696250487678,-0.39160156,-0.7803345,0.5289917,1.3125,-0.734375,0.4375,388
358,1696250487718,-0.38989258,-0.7756958,0.543396,0.765625,-0.53125,0.546875,389
359,1696250487758,-0.39282227,-0.7896118,0.5458374,-0.25,-0.640625,-0.046875,390
360,1696250487798,-0.4025879,-0.786438,0.53533936,-0.046875,-0.390625,-0.09375,391
361,1696250487838,-0.39038086,-0.7803345,0.54022217,-0.4375,-0.6875,-0.046875,392
362,1696250487878,-0.3935547,-0.78253174,0.5458374,-1.1875,-0.5625,-0.140625,393
363,1696250487918,-0.39916992,-0.77471924,0.5494995,0.1875,-0.390625,0.15625,394
364,1696250487958,-0.39916992,-0.7788696,0.5307007,0.171875,-0.59375,-0.15625,395
365,1696250487998,-0.41015625,-0.77667236,0.54241943,-2.546875,-0.65625,-0.171875,396
366,1696250488038,-0.40356445,-0.78326416,0.5499878,-1.390625,-0.6875,-0.15625,397
367,1696250488078,-0.39916992,-0.7810669,0.54315186,-0.203125,-0.5625,-0.21875,398
368,1696250488118,-0.3959961,-0.7703247,0.54119873,-1.375,-0.671875,-0.28125,399
369,1696250488158,-0.4074707,-0.76763916,0.5499878,-0.875,-0.34375,-0.078125,400
370,1696250488198,-0.4050293,-0.77130127,0.5482788,-1.421875,-0.296875,-0.140625,401
371,1696250488238,-0.4050293,-0.77008057,0.56121826,-0.875,-0.59375,-0.09375,402
372,1696250488278,-0.40844727,-0.77227783,0.5585327,0.46875,-0.921875,0.109375,403
373,1696250488318,-0.39404297,-0.7752075,0.54681396,-0.921875,-0.484375,-0.046875,404
374,1696250488358,-0.40454102,-0.7703247,0.54364014,-1.046875,-0.59375,-0.4375,405
375,1696250488398,-0.40942383,-0.7737427,0.54681396,-0.8125,-0.828125,-0.25,406
376,1696250488438,-0.40649414,-0.7710571,0.56048584,-0.828125,0.0625,-0.125,407
377,1696250488478,-0.40844727,-0.76641846,0.5560913,-1.046875,0.046875,0.046875,408
378,1696250488518,-0.41308594,-0.76348877,0.55584717,0.390625,-0.40625,-0.015625,409
379,1696250488558,-0.40698242,-0.76812744,0.5536499,-0.53125,-0.359375,0.3125,410
380,1696250488598,-0.4013672,-0.7764282,0.55755615,-1.0625,-0.78125,0.03125,411
381,1696250488638,-0.4025879,-0.76763916,0.5614624,0.65625,-0.390625,-0.09375,412
382,1696250488678,-0.4091797,-0.7642212,0.54730225,-0.515625,-0.625,-0.296875,413
383,1696250488718,-0.39868164,-0.77178955,0.557312,0.109375,-0.5,0.359375,414
384,1696250488758,-0.4008789,-0.767395,0.5597534,-0.25,-0.28125,0.375,415
385,1696250488798,-0.40771484,-0.7620239,0.5609741,0.453125,-0.421875,-0.015625,416
386,1696250488838,-0.40161133,-0.77056885,0.555603,0.71875,-0.59375,0.203125,417
387,1696250488878,-0.4038086,-0.77178955,0.5626831,-1.046875,-0.390625,-0.21875,418
388,1696250488918,-0.40844727,-0.7686157,0.5477905,-0.8125,-0.421875,-0.234375,419
389,1696250488958,-0.40478516,-0.7698364,0.55755615,0.515625,-0.609375,0.1875,420
390,1696250488998,-0.41479492,-0.7698364,0.57073975,0.1875,-0.015625,0.125,421
391,1696250489038,-0.41430664,-0.76812744,0.55633545,0.109375,-0.4375,0.109375,422
392,1696250489078,-0.40649414,-0.772522,0.54486084,0.375,-0.203125,-0.0625,423
393,1696250489118,-0.40820312,-0.76690674,0.5548706,-1.125,-0.171875,-0.203125,424
394,1696250489158,-0.4091797,-0.7720337,0.56414795,-0.671875,-0.34375,0.515625,425
395,1696250489198,-0.40454102,-0.770813,0.5548706,0.265625,-0.234375,0.15625,426
396,1696250489238,-0.41601562,-0.7659302,0.55145264,-0.078125,-0.1875,0.171875,427
397,1696250489278,-0.39746094,-0.76226807,0.5536499,-1.0,-0.421875,0.265625,428
398,1696250489318,-0.4038086,-0.7698364,0.56365967,0.890625,-0.40625,0.609375,429
399,1696250489358,-0.4038086,-0.76641846,0.559021,-0.34375,-0.359375,-0.296875,430
400,1696250489398,-0.4128418,-0.7698364,0.5656128,0.609375,-0.40625,0.453125,431
401,1696250489438,-0.40161133,-0.7671509,0.5597534,0.265625,-0.5625,0.328125,432
402,1696250489478,-0.40185547,-0.7625122,0.55633545,-0.421875,-0.171875,0.046875,433
403,1696250489518,-0.4140625,-0.7695923,0.5519409,0.09375,-0.921875,0.421875,434
404,1696250489558,-0.40063477,-0.7710571,0.5595093,0.046875,-0.453125,0.453125,435
405,1696250489598,-0.40063477,-0.76153564,0.5648804,-0.140625,0.125,-0.046875,436
406,1696250489638,-0.41992188,-0.76812744,0.56121826,0.921875,-0.703125,0.078125,437
407,1696250489678,-0.40600586,-0.76934814,0.56170654,0.75,-0.3125,0.5625,438
408,1696250489718,-0.40429688,-0.7593384,0.55804443,-1.203125,-0.375,0.515625,439
409,1696250489758,-0.40893555,-0.7710571,0.55340576,0.046875,-0.640625,0.25,440
410,1696250489798,-0.4008789,-0.7710571,0.557312,-0.4375,-0.34375,-0.4375,441
411,1696250489838,-0.41137695,-0.7630005,0.5614624,-0.96875,0.4375,-0.125,442
412,1696250489878,-0.41015625,-0.7666626,0.5507202,-1.84375,0.484375,0.671875,443
413,1696250489918,-0.4013672,-0.75787354,0.5614624,-1.078125,0.34375,0.046875,444
414,1696250489958,-0.390625,-0.769104,0.5651245,-0.078125,0.46875,0.375,445
415,1696250489998,-0.41088867,-0.7595825,0.5709839,-1.609375,-0.328125,0.265625,446
416,1696250490038,-0.4116211,-0.7637329,0.5614624,0.5,-0.703125,0.71875,447
417,1696250490078,-0.39501953,-0.7554321,0.55804443,0.390625,-0.640625,0.359375,448
418,1696250490118,-0.40771484,-0.7695923,0.58270264,0.078125,-0.21875,0.078125,449
419,1696250490158,-0.40307617,-0.7752075,0.56243896,0.890625,-0.671875,0.203125,450
420,1696250490198,-0.40795898,-0.756897,0.5560913,0.40625,-1.1875,0.09375,451
421,1696250490238,-0.40356445,-0.76763916,0.56170654,0.015625,-0.65625,0.734375,452
422,1696250490278,-0.39746094,-0.76934814,0.57366943,-0.796875,-0.296875,0.265625,453
423,1696250490318,-0.39697266,-0.7683716,0.5631714,0.796875,-0.375,0.125,454
424,1696250490358,-0.4099121,-0.7564087,0.56463623,0.375,-0.328125,-0.109375,455
425,1696250490398,-0.40600586,-0.76885986,0.57073975,-1.1875,-0.625,0.71875,456
426,1696250490438,-0.3930664,-0.7632446,0.5753784,-0.75,-0.390625,0.421875,457
427,1696250490478,-0.3955078,-0.7686157,0.5661011,0.59375,0.421875,0.0625,458
428,1696250490518,-0.41235352,-0.7595825,0.5536499,-2.109375,-0.359375,-0.28125,459
429,1696250490558,-0.41259766,-0.7678833,0.57318115,-0.765625,0.296875,0.5,460
430,1696250490598,-0.40771484,-0.75909424,0.57440186,-0.46875,-0.234375,0.453125,461
431,1696250490638,-0.4025879,-0.76812744,0.56365967,0.625,-0.25,0.34375,462
432,1696250490678,-0.3984375,-0.7583618,0.56903076,0.109375,0.0,0.3125,463
433,1696250490718,-0.40576172,-0.76812744,0.574646,-1.3125,-0.125,0.71875,464
434,1696250490758,-0.40307617,-0.7632446,0.5770874,1.4375,-0.46875,0.390625,465
435,1696250490798,-0.4033203,-0.76397705,0.56243896,1.671875,-0.09375,0.765625,466
436,1696250490838,-0.39770508,-0.7630005,0.57025146,-0.234375,-0.34375,0.5,467
437,1696250490878,-0.39624023,-0.7678833,0.57318115,1.375,-0.171875,-0.03125,468
438,1696250490918,-0.41137695,-0.7659302,0.5614624,1.328125,-0.34375,0.390625,469
439,1696250490958,-0.40014648,-0.7715454,0.5621948,0.515625,-0.765625,0.765625,470
440,1696250490998,-0.39526367,-0.7659302,0.56707764,0.609375,-0.328125,0.828125,471
441,1696250491038,-0.39697266,-0.7686157,0.56903076,2.015625,-0.328125,0.703125,472
442,1696250491078,-0.3876953,-0.77227783,0.56536865,1.796875,-0.625,0.09375,473
443,1696250491118,-0.40625,-0.7678833,0.54364014,1.421875,-0.34375,0.421875,474
444,1696250491158,-0.40649414,-0.77593994,0.5634155,0.84375,-0.59375,0.5625,475
445,1696250491198,-0.39501953,-0.77178955,0.56170654,-1.078125,-0.671875,0.328125,476
446,1696250491238,-0.3942871,-0.76763916,0.5516968,0.484375,-0.640625,0.421875,477
447,1696250491278,-0.39160156,-0.7559204,0.55096436,1.390625,-0.609375,0.40625,478
448,1696250491318,-0.40722656,-0.77349854,0.5536499,-0.3125,-1.1875,0.328125,479
449,1696250491358,-0.39501953,-0.77471924,0.555603,0.609375,-1.4375,0.4375,480
450,1696250491398,-0.3876953,-0.77008057,0.5512085,1.40625,-1.1875,0.328125,481
451,1696250491438,-0.39746094,-0.7715454,0.5482788,0.078125,-0.46875,-0.3125,482
452,1696250491478,-0.40405273,-0.77960205,0.55462646,-0.1875,-0.953125,0.34375,483
453,1696250491518,-0.4008789,-0.77227783,0.55584717,-0.265625,-1.140625,0.421875,484
454,1696250491558,-0.40283203,-0.7683716,0.5614624,0.375,-1.28125,0.09375,485
455,1696250491598,-0.39013672,-0.77667236,0.54437256,0.5625,-1.578125,0.109375,486
456,1696250491638,-0.40063477,-0.786438,0.53948975,-0.609375,-0.828125,-0.28125,487
457,1696250491678,-0.40771484,-0.76641846,0.5487671,-0.4375,-0.6875,0.109375,488
458,1696250491718,-0.40112305,-0.77716064,0.5519409,0.15625,-0.734375,0.515625,489
459,1696250491758,-0.40039062,-0.7678833,0.5619507,-1.09375,-0.359375,-0.421875,490
460,1696250491798,-0.40576172,-0.7739868,0.5585327,0.203125,-0.21875,-0.03125,491
461,1696250491838,-0.39916992,-0.7710571,0.543396,0.171875,-1.21875,0.03125,492
462,1696250491878,-0.40014648,-0.77130127,0.5553589,-0.296875,-0.40625,-0.078125,493
463,1696250491918,-0.41259766,-0.7698364,0.5458374,-0.34375,-0.421875,0.109375,494
464,1696250491958,-0.4140625,-0.77545166,0.55267334,-0.265625,-0.578125,-0.015625,495
465,1696250491998,-0.3984375,-0.770813,0.5541382,-0.984375,-0.65625,0.109375,496
466,1696250492038,-0.40063477,-0.7720337,0.5619507,0.046875,-0.40625,0.703125,497
467,1696250492078,-0.39892578,-0.77056885,0.5553589,0.0,-0.46875,-0.25,498
468,1696250492118,-0.40039062,-0.7661743,0.5560913,-0.28125,0.0,-0.328125,499
469,1696250492158,-0.41015625,-0.7732544,0.5524292,-0.53125,-0.703125,0.671875,500
470,1696250492198,-0.39892578,-0.77716064,0.5519409,0.015625,-0.453125,0.140625,501
471,1696250492238,-0.4025879,-0.769104,0.5504761,0.640625,-0.390625,-0.0625,502
472,1696250492278,-0.40527344,-0.7798462,0.5487671,-0.171875,-0.359375,-0.265625,503
473,1696250492318,-0.41503906,-0.7720337,0.5426636,-0.90625,-0.5,-0.140625,504
474,1696250492358,-0.4038086,-0.7761841,0.55755615,0.3125,-0.34375,0.265625,505
475,1696250492398,-0.39916992,-0.7793579,0.56243896,-0.421875,-0.515625,0.15625,506
476,1696250492438,-0.40722656,-0.7686157,0.55877686,0.375,-0.375,-0.03125,507
477,1696250492478,-0.3935547,-0.76446533,0.539978,0.265625,-0.59375,-0.0625,508
478,1696250492518,-0.39892578,-0.7608032,0.55267334,-1.390625,-0.046875,-0.015625,509
479,1696250492558,-0.41552734,-0.7786255,0.56463623,-0.28125,-0.625,0.609375,510
480,1696250492598,-0.40234375,-0.7720337,0.5482788,-0.140625,-0.4375,0.171875,511
481,1696250492638,-0.39672852,-0.7683716,0.5595093,0.6875,-0.46875,-0.09375,512
482,1696250492678,-0.3996582,-0.76641846,0.56585693,-0.484375,-0.21875,0.203125,513
483,1696250492718,-0.4020996,-0.77130127,0.5560913,0.03125,-0.296875,0.03125,514
484,1696250492758,-0.4099121,-0.76885986,0.5487671,-0.90625,-0.59375,0.03125,515
485,1696250492798,-0.40673828,-0.7732544,0.5626831,-0.65625,-0.78125,0.421875,516
486,1696250492838,-0.40405273,-0.76641846,0.557312,0.078125,-0.484375,0.96875,517
487,1696250492878,-0.40576172,-0.76397705,0.5582886,0.625,-0.5625,-0.140625,518
488,1696250492918,-0.4025879,-0.77130127,0.55926514,0.046875,-0.171875,0.21875,519
489,1696250492958,-0.40966797,-0.7727661,0.5578003,-2.46875,-0.03125,0.1875,520
490,1696250492998,-0.39990234,-0.75982666,0.5531616,-2.453125,-0.046875,-0.234375,521
491,1696250493038,-0.4050293,-0.76226807,0.5661011,0.375,0.25,0.28125,522
492,1696250493078,-0.4033203,-0.7620239,0.55999756,0.234375,0.0625,0.609375,523
493,1696250493118,-0.40234375,-0.77227783,0.5519409,-0.828125,-0.390625,0.21875,524
494,1696250493158,-0.39892578,-0.76568604,0.5570679,-1.15625,-0.375,-0.265625,525
495,1696250493198,-0.40820312,-0.76519775,0.5634155,0.046875,-0.171875,-0.171875,526
496,1696250493238,-0.3996582,-0.7659302,0.56903076,0.75,-0.265625,0.265625,527
497,1696250493278,-0.40527344,-0.76104736,0.5639038,-0.171875,-0.703125,0.3125,528
498,1696250493318,-0.40576172,-0.76885986,0.56536865,0.953125,-0.625,0.265625,529
499,1696250493358,-0.40356445,-0.76397705,0.5541382,-0.671875,-0.78125,-0.078125,530
500,1696250493398,-0.40454102,-0.7647095,0.5524292,-1.15625,-0.6875,0.21875,531
501,1696250493438,-0.40039062,-0.76153564,0.5700073,0.390625,-0.296875,0.921875,532
502,1696250493478,-0.3972168,-0.7678833,0.5648804,0.40625,-0.4375,0.53125,533
503,1696250493518,-0.40454102,-0.76153564,0.5675659,1.703125,0.234375,0.359375,534
504,1696250493558,-0.40771484,-0.77545166,0.55999756,2.9375,0.296875,1.21875,535
505,1696250493598,-0.3996582,-0.76568604,0.5582886,-1.109375,0.609375,0.578125,536
506,1696250493638,-0.39086914,-0.7683716,0.5692749,-0.875,-0.078125,-0.015625,537
507,1696250493678,-0.39501953,-0.77545166,0.5494995,1.03125,0.09375,-0.015625,538
508,1696250493718,-0.4111328,-0.77008057,0.5565796,1.0,-0.03125,0.515625,539
509,1696250493758,-0.39794922,-0.770813,0.56829834,0.953125,-0.609375,0.6875,540
510,1696250493798,-0.38745117,-0.7695923,0.55218506,-0.140625,-0.25,0.078125,541
511,1696250493838,-0.39770508,-0.7666626,0.55023193,-0.390625,-0.203125,0.109375,542
512,1696250493878,-0.40405273,-0.7739868,0.55633545,-1.28125,-0.953125,0.015625,543
513,1696250493918,-0.40039062,-0.7764282,0.572937,-0.328125,-0.609375,0.5,544
514,1696250493958,-0.39160156,-0.7666626,0.54241943,1.734375,0.015625,0.71875,545
515,1696250493998,-0.4008789,-0.76446533,0.5404663,0.640625,-0.890625,0.421875,546
516,1696250494038,-0.38964844,-0.7683716,0.55755615,-1.375,-1.171875,0.578125,547
517,1696250494078,-0.3947754,-0.7761841,0.5548706,0.40625,-0.984375,0.53125,548
518,1696250494118,-0.3881836,-0.7732544,0.5548706,2.234375,-1.046875,0.09375,549
519,1696250494158,-0.3959961,-0.7630005,0.5570679,1.234375,-1.46875,-0.078125,550
520,1696250494198,-0.40161133,-0.7720337,0.5470581,1.109375,-1.640625,0.28125,551
521,1696250494238,-0.39746094,-0.7815552,0.5372925,-1.0,-1.140625,0.296875,552
522,1696250494278,-0.40429688,-0.77593994,0.54974365,-2.1875,-1.578125,-0.09375,553
523,1696250494318,-0.39746094,-0.7703247,0.55755615,-1.21875,-1.625,-0.25,554
524,1696250494358,-0.4033203,-0.7686157,0.5560913,0.09375,-1.109375,0.09375,555
525,1696250494398,-0.40527344,-0.7720337,0.5553589,-0.46875,-0.4375,0.421875,556
526,1696250494438,-0.39892578,-0.772522,0.55877686,-0.734375,-1.703125,-0.203125,557
527,1696250494478,-0.40014648,-0.767395,0.5582886,-0.96875,-1.125,-0.671875,558
528,1696250494518,-0.3996582,-0.77056885,0.55755615,0.078125,-0.75,-0.453125,559
529,1696250494558,-0.40039062,-0.7737427,0.55218506,-1.5625,-0.84375,-0.5,560
530,1696250494598,-0.40698242,-0.7749634,0.5634155,-0.578125,-0.640625,-0.40625,561
531,1696250494638,-0.4104004,-0.7703247,0.5553589,0.65625,-0.84375,-0.109375,562
532,1696250494678,-0.41674805,-0.7666626,0.55267334,0.078125,-0.640625,-0.359375,563
533,1696250494718,-0.40551758,-0.76446533,0.55999756,-1.421875,-0.078125,-0.203125,564
534,1696250494758,-0.40795898,-0.7698364,0.56903076,-1.828125,-0.671875,0.0625,565
535,1696250494798,-0.4128418,-0.7715454,0.5609741,-0.09375,-0.546875,0.21875,566
536,1696250494838,-0.40673828,-0.75860596,0.56170654,0.046875,0.046875,0.234375,567
537,1696250494878,-0.40795898,-0.7588501,0.5531616,-0.609375,-1.0,0.453125,568
538,1696250494918,-0.4074707,-0.7632446,0.5543823,0.4375,-0.734375,-0.078125,569
539,1696250494958,-0.40795898,-0.7595825,0.5595093,0.109375,-0.09375,-0.640625,570
540,1696250494998,-0.4189453,-0.77716064,0.55877686,-0.6875,-1.125,0.359375,571
541,1696250495038,-0.40942383,-0.767395,0.55926514,-0.03125,-0.921875,-0.109375,572
542,1696250495078,-0.41308594,-0.76031494,0.55999756,0.171875,-1.15625,-0.1875,573
543,1696250495118,-0.41918945,-0.75567627,0.5634155,0.03125,-0.9375,0.25,574
544,1696250495158,-0.41674805,-0.76348877,0.56707764,0.078125,-0.140625,0.140625,575
545,1696250495198,-0.41748047,-0.7576294,0.5536499,-0.71875,-0.9375,0.203125,576
546,1696250495238,-0.40844727,-0.76104736,0.5548706,-0.3125,-0.625,-0.4375,577
547,1696250495278,-0.41674805,-0.76275635,0.5609741,-1.546875,-0.078125,-0.578125,578
548,1696250495318,-0.43823242,-0.7769165,0.56073,-1.015625,-0.109375,1.25,579
549,1696250495358,-0.40429688,-0.753479,0.5675659,-0.484375,0.75,0.78125,580
550,1696250495398,-0.39501953,-0.7481079,0.57196045,-0.703125,0.6875,0.28125,581
551,1696250495438,-0.4177246,-0.75738525,0.55999756,-1.15625,-0.46875,0.34375,582
552,1696250495478,-0.43798828,-0.7793579,0.57318115,-0.65625,-1.625,1.359375,583
553,1696250495518,-0.38964844,-0.7546997,0.576355,0.765625,0.28125,0.625,584
554,1696250495558,-0.3955078,-0.75323486,0.5619507,1.390625,0.296875,0.625,585
555,1696250495598,-0.4140625,-0.7654419,0.56121826,2.3125,1.03125,0.8125,586
556,1696250495638,-0.41333008,-0.75982666,0.5692749,-0.15625,2.203125,0.359375,587
557,1696250495678,-0.41381836,-0.7686157,0.5565796,-1.703125,0.46875,0.484375,588
558,1696250495718,-0.39672852,-0.7649536,0.57147217,0.46875,-0.5,0.09375,589
559,1696250495758,-0.38110352,-0.75494385,0.5709839,3.296875,0.765625,0.203125,590
560,1696250495798,-0.41137695,-0.7612915,0.5458374,1.71875,1.015625,0.390625,591
561,1696250495838,-0.41918945,-0.76885986,0.5516968,2.484375,-2.5625,0.46875,592
562,1696250495878,-0.3984375,-0.76763916,0.5516968,1.984375,-1.078125,0.8125,593
563,1696250495918,-0.39575195,-0.7732544,0.5429077,0.125,-1.28125,0.15625,594
564,1696250495958,-0.4038086,-0.77545166,0.5507202,-0.28125,-0.96875,0.421875,595
565,1696250495998,-0.39257812,-0.7666626,0.5595093,0.078125,-0.546875,-0.125,596
566,1696250496038,-0.40966797,-0.7764282,0.55682373,-1.1875,-0.703125,0.0,597
567,1696250496078,-0.40185547,-0.7720337,0.55633545,-0.765625,-1.90625,-0.078125,598
568,1696250496118,-0.4050293,-0.7666626,0.5524292,0.15625,-0.765625,0.03125,599
569,1696250496158,-0.4038086,-0.7659302,0.5585327,-0.75,-0.9375,0.125,600
570,1696250496198,-0.4038086,-0.7756958,0.55682373,-0.96875,-0.90625,0.0625,601
571,1696250496238,-0.4189453,-0.7776489,0.5475464,-1.296875,-1.546875,0.625,602
572,1696250496278,-0.41210938,-0.76641846,0.56781006,0.609375,-0.96875,0.75,603
573,1696250496318,-0.3852539,-0.7695923,0.55926514,0.46875,-0.34375,0.25,604
574,1696250496358,-0.40893555,-0.7608032,0.55511475,-1.0,0.046875,-0.84375,605
575,1696250496398,-0.42797852,-0.7756958,0.5475464,-0.09375,-1.984375,0.296875,606
576,1696250496438,-0.4038086,-0.7683716,0.5595093,-0.953125,-0.671875,0.171875,607
577,1696250496478,-0.4020996,-0.76519775,0.56048584,0.390625,-0.59375,0.015625,608
578,1696250496518,-0.40039062,-0.7571411,0.5631714,2.796875,-0.546875,0.1875,609
579,1696250496558,-0.4128418,-0.7659302,0.5504761,1.1875,-0.140625,0.046875,610
580,1696250496598,-0.42993164,-0.7764282,0.5516968,-0.53125,-1.78125,0.140625,611
581,1696250496638,-0.40649414,-0.7744751,0.5582886,1.390625,-1.140625,0.5625,612
582,1696250496678,-0.4140625,-0.7630005,0.55584717,2.390625,1.390625,-0.015625,613
583,1696250496718,-0.40820312,-0.7822876,0.5350952,2.34375,1.359375,-0.75,614
584,1696250496758,-0.40771484,-0.7720337,0.5336304,-0.21875,-0.609375,-0.34375,615
585,1696250496798,-0.42407227,-0.7727661,0.5673218,0.75,-0.34375,0.546875,616
586,1696250496838,-0.40161133,-0.770813,0.5499878,-0.390625,-0.21875,0.9375,617
587,1696250496878,-0.3942871,-0.77227783,0.5441284,-1.46875,-0.421875,0.09375,618
588,1696250496918,-0.40649414,-0.7698364,0.54852295,-1.1875,-0.46875,-0.546875,619
589,1696250496958,-0.42333984,-0.77178955,0.5565796,-0.234375,-0.75,0.796875,620
590,1696250496998,-0.4050293,-0.7686157,0.5602417,-0.9375,-0.578125,0.40625,621
591,1696250497038,-0.40649414,-0.76153564,0.5494995,0.078125,0.53125,-0.515625,622
592,1696250497078,-0.41503906,-0.7637329,0.54193115,-0.65625,-0.6875,0.78125,623
593,1696250497118,-0.41333008,-0.7661743,0.5529175,-2.125,-0.046875,0.578125,624
594,1696250497158,-0.4140625,-0.7749634,0.57684326,-1.9375,0.03125,0.578125,625
595,1696250497198,-0.4086914,-0.77716064,0.56121826,-1.640625,0.25,-0.078125,626
596,1696250497238,-0.40356445,-0.76275635,0.55633545,0.09375,0.515625,0.6875,627
597,1696250497278,-0.40234375,-0.75372314,0.5499878,-0.40625,0.40625,1.0625,628
598,1696250497318,-0.40454102,-0.7715454,0.55389404,-1.609375,0.40625,0.515625,629
599,1696250497358,-0.39697266,-0.77227783,0.5704956,0.71875,0.765625,0.265625,630
600,1696250497398,-0.40844727,-0.7620239,0.57025146,1.34375,0.34375,0.609375,631
601,1696250497438,-0.41357422,-0.77008057,0.5643921,-0.25,-0.0625,0.96875,632
602,1696250497478,-0.39453125,-0.77008057,0.55926514,0.265625,-0.171875,0.671875,633
603,1696250497518,-0.38867188,-0.76568604,0.54730225,1.453125,-0.296875,0.21875,634
604,1696250497558,-0.40576172,-0.7695923,0.555603,1.46875,-0.578125,0.625,635
605,1696250497598,-0.40478516,-0.77545166,0.5675659,1.59375,-0.5,1.15625,636
606,1696250497638,-0.38842773,-0.7630005,0.55804443,0.46875,0.28125,0.359375,637
607,1696250497678,-0.3984375,-0.76641846,0.5609741,0.734375,-0.15625,0.4375,638
608,1696250497718,-0.39794922,-0.7805786,0.5499878,0.640625,-0.234375,0.78125,639
609,1696250497758,-0.39941406,-0.77227783,0.55267334,1.125,-0.21875,1.1875,640
610,1696250497798,-0.38549805,-0.77130127,0.5631714,1.09375,-0.3125,0.421875,641
611,1696250497838,-0.39135742,-0.77789307,0.5465698,2.40625,-0.28125,0.421875,642
612,1696250497878,-0.39697266,-0.78253174,0.543396,1.59375,-0.9375,1.078125,643
613,1696250497918,-0.3930664,-0.7798462,0.55023193,0.796875,0.25,0.546875,644
614,1696250497958,-0.39794922,-0.7817993,0.54852295,1.375,-0.171875,0.5,645
615,1696250497998,-0.38476562,-0.7774048,0.54364014,1.359375,-1.140625,0.765625,646
616,1696250498038,-0.38549805,-0.77789307,0.5475464,1.09375,-0.15625,0.53125,647
617,1696250498078,-0.3881836,-0.78131104,0.54486084,0.96875,-0.640625,0.640625,648
618,1696250498118,-0.39038086,-0.7839966,0.54193115,1.203125,-0.765625,0.328125,649
619,1696250498158,-0.39257812,-0.77960205,0.54071045,0.25,-0.53125,0.453125,650
620,1696250498198,-0.3918457,-0.78302,0.5331421,1.296875,-1.09375,0.84375,651
621,1696250498238,-0.37524414,-0.78790283,0.545105,1.5,-1.078125,0.171875,652
622,1696250498278,-0.3894043,-0.7852173,0.5360718,0.453125,0.3125,-0.609375,653
623,1696250498318,-0.40795898,-0.79034424,0.5355835,0.1875,-1.34375,0.1875,654
624,1696250498358,-0.38793945,-0.7859497,0.527771,-0.921875,-1.71875,0.25,655
625,1696250498398,-0.3737793,-0.78912354,0.5372925,-0.90625,-0.53125,-0.109375,656
626,1696250498438,-0.39135742,-0.7839966,0.5360718,-0.734375,-0.75,-0.203125,657
627,1696250498478,-0.4033203,-0.7852173,0.5404663,-1.875,-0.640625,-0.625,658
628,1696250498518,-0.39868164,-0.78009033,0.54022217,-2.84375,-1.515625,0.359375,659
629,1696250498558,-0.39501953,-0.7715454,0.5499878,-3.046875,-2.140625,0.203125,660
630,1696250498598,-0.38671875,-0.7774048,0.55267334,-0.953125,-1.203125,-0.5,661
631,1696250498638,-0.3984375,-0.78692627,0.541687,-0.984375,-0.765625,-0.46875,662
632,1696250498678,-0.40673828,-0.77716064,0.5504761,-1.359375,-0.5625,0.078125,663
633,1696250498718,-0.39794922,-0.77423096,0.55389404,-0.234375,-1.03125,0.0,664
634,1696250498758,-0.39526367,-0.77130127,0.5492554,-0.609375,-0.796875,-0.296875,665
635,1696250498798,-0.40405273,-0.78082275,0.55218506,0.0,-0.59375,0.265625,666
636,1696250498838,-0.39746094,-0.77349854,0.55389404,-0.0625,-0.453125,0.15625,667
637,1696250498878,-0.39697266,-0.77667236,0.54022217,-0.046875,0.140625,-0.234375,668
638,1696250498918,-0.39648438,-0.77349854,0.5519409,-1.3125,-0.734375,-0.25,669
639,1696250498958,-0.41015625,-0.7817993,0.55096436,-1.3125,-0.421875,0.140625,670
640,1696250498998,-0.40649414,-0.7803345,0.5487671,0.75,-0.390625,0.453125,671
641,1696250499038,-0.38476562,-0.77008057,0.55023193,-0.0625,-0.21875,-0.59375,672
642,1696250499078,-0.4013672,-0.7805786,0.5519409,-1.640625,-0.34375,-1.578125,673
643,1696250499118,-0.42285156,-0.7793579,0.5553589,-0.328125,-0.21875,-0.15625,674
644,1696250499158,-0.40649414,-0.7612915,0.5524292,-0.09375,-0.421875,0.375,675
645,1696250499198,-0.40771484,-0.76275635,0.5426636,-0.328125,-0.46875,0.296875,676
646,1696250499238,-0.39892578,-0.77667236,0.55218506,-1.625,-0.3125,-0.046875,677
647,1696250499278,-0.4013672,-0.7715454,0.5634155,-0.015625,-0.59375,-0.3125,678
648,1696250499318,-0.40161133,-0.76763916,0.56073,1.359375,-0.453125,0.3125,679
649,1696250499358,-0.41552734,-0.7659302,0.5475464,0.4375,-0.46875,0.328125,680
650,1696250499398,-0.39379883,-0.7752075,0.555603,0.078125,-0.3125,0.453125,681
651,1696250499438,-0.4020996,-0.7698364,0.56121826,-1.28125,-0.40625,0.171875,682
652,1696250499478,-0.40161133,-0.7698364,0.557312,0.09375,-0.640625,-0.328125,683
653,1696250499518,-0.41015625,-0.7749634,0.5560913,1.03125,-0.828125,0.140625,684
654,1696250499558,-0.39697266,-0.7630005,0.5499878,-0.046875,-0.0625,0.140625,685
655,1696250499598,-0.4086914,-0.7686157,0.5504761,-0.796875,-0.625,-0.46875,686
656,1696250499638,-0.40039062,-0.78302,0.55511475,1.234375,-0.828125,0.078125,687
657,1696250499678,-0.40576172,-0.77130127,0.54681396,-0.390625,-0.4375,0.359375,688
658,1696250499718,-0.40942383,-0.7744751,0.5661011,-0.484375,-0.625,0.359375,689
659,1696250499758,-0.39526367,-0.7678833,0.55755615,1.625,-0.125,0.40625,690
660,1696250499798,-0.39941406,-0.7732544,0.54486084,-0.53125,-0.40625,-0.375,691
661,1696250499838,-0.41992188,-0.7686157,0.55096436,-1.625,-0.671875,-0.25,692
662,1696250499878,-0.40112305,-0.77593994,0.5585327,-0.59375,-0.5625,0.46875,693
663,1696250499918,-0.40014648,-0.7654419,0.5565796,0.40625,0.109375,0.28125,694
664,1696250499958,-0.4099121,-0.7617798,0.5470581,-0.234375,-0.265625,0.21875,695
665,1696250499998,-0.40673828,-0.77227783,0.5597534,-1.515625,-0.71875,0.0625,696
666,1696250500038,-0.40429688,-0.76568604,0.56463623,-0.40625,-0.34375,0.25,697
667,1696250500078,-0.40039062,-0.7661743,0.5578003,0.046875,0.0625,-0.03125,698
668,1696250500118,-0.41235352,-0.7781372,0.55877686,-1.125,-0.21875,0.109375,699
669,1696250500158,-0.41381836,-0.76568604,0.5741577,-1.125,0.03125,0.6875,700
670,1696250500198,-0.40454102,-0.76275635,0.5560913,-1.984375,0.015625,0.59375,701
671,1696250500238,-0.3930664,-0.7522583,0.5582886,-0.953125,0.765625,0.34375,702
672,1696250500278,-0.39331055,-0.77545166,0.574646,0.03125,0.03125,0.375,703
673,1696250500318,-0.4091797,-0.76934814,0.5639038,-0.734375,-0.28125,0.0,704
674,1696250500358,-0.4116211,-0.7632446,0.5621948,0.6875,-0.125,0.515625,705
675,1696250500398,-0.4013672,-0.7576294,0.5553589,1.0,-0.046875,1.109375,706
676,1696250500438,-0.3942871,-0.76885986,0.56170654,-0.125,-0.65625,0.859375,707
677,1696250500478,-0.38256836,-0.77178955,0.56073,-0.015625,-0.75,-0.078125,708
678,1696250500518,-0.39868164,-0.7703247,0.56048584,0.96875,0.359375,0.375,709
679,1696250500558,-0.41015625,-0.77008057,0.55633545,-0.625,-0.03125,0.40625,710
680,1696250500598,-0.39453125,-0.7649536,0.5570679,-1.15625,-0.390625,0.546875,711
681,1696250500638,-0.39575195,-0.76031494,0.5619507,0.34375,-0.609375,0.359375,712
682,1696250500678,-0.4038086,-0.767395,0.56781006,-1.046875,-0.421875,0.09375,713
683,1696250500718,-0.4020996,-0.76690674,0.5704956,-0.203125,-0.46875,0.53125,714
684,1696250500758,-0.38916016,-0.7637329,0.5621948,0.828125,-0.640625,0.9375,715
685,1696250500798,-0.39233398,-0.75738525,0.56829834,-0.03125,-0.3125,0.046875,716
686,1696250500838,-0.40625,-0.77349854,0.56903076,1.265625,-1.09375,0.375,717
687,1696250500878,-0.39770508,-0.7671509,0.55389404,0.484375,-1.453125,0.90625,718
688,1696250500918,-0.39233398,-0.76226807,0.5639038,0.90625,-1.015625,0.140625,719
689,1696250500958,-0.39868164,-0.770813,0.56707764,-0.46875,-0.71875,-0.078125,720
690,1696250500998,-0.40698242,-0.76153564,0.5648804,-0.390625,0.0,-0.25,721
691,1696250501038,-0.40844727,-0.7593384,0.5421753,0.34375,-0.9375,0.921875,722
692,1696250501078,-0.38208008,-0.7703247,0.56048584,-0.75,-1.421875,0.609375,723
693,1696250501118,-0.39086914,-0.77667236,0.57440186,0.65625,-0.53125,-0.421875,724
694,1696250501158,-0.41210938,-0.77301025,0.56707764,0.9375,-0.984375,-0.609375,725
695,1696250501198,-0.4013672,-0.7642212,0.5499878,1.265625,-0.984375,-0.015625,726
696,1696250501238,-0.40454102,-0.76104736,0.5524292,0.3125,-1.0,0.5,727
697,1696250501278,-0.40161133,-0.77301025,0.56048584,-0.171875,-0.828125,0.109375,728
698,1696250501318,-0.40356445,-0.77227783,0.55999756,0.71875,-0.84375,0.046875,729
699,1696250501358,-0.4074707,-0.7605591,0.55926514,1.203125,-0.6875,-0.1875,730
700,1696250501398,-0.4116211,-0.7720337,0.5560913,1.578125,-0.671875,0.546875,731
701,1696250501438,-0.39794922,-0.772522,0.5541382,1.109375,-1.125,0.640625,732
702,1696250501478,-0.40014648,-0.76031494,0.5541382,0.34375,-0.296875,-0.40625,733
703,1696250501518,-0.41186523,-0.76934814,0.5536499,0.84375,-0.6875,0.078125,734
704,1696250501558,-0.40478516,-0.77227783,0.5494995,0.140625,-1.15625,0.765625,735
705,1696250501598,-0.3984375,-0.7739868,0.5531616,0.453125,-0.484375,0.15625,736
706,1696250501638,-0.39990234,-0.7769165,0.54559326,0.203125,-0.28125,-0.03125,737
707,1696250501678,-0.4116211,-0.7776489,0.55218506,-0.09375,-0.4375,-0.09375,738
708,1696250501718,-0.4104004,-0.76812744,0.54559326,0.25,-0.5625,0.375,739
709,1696250501758,-0.40185547,-0.7737427,0.55340576,-0.515625,-0.21875,0.28125,740
710,1696250501798,-0.40771484,-0.77545166,0.5602417,-0.6875,-0.359375,0.078125,741
711,1696250501838,-0.4038086,-0.77471924,0.5494995,-0.546875,-0.0625,-0.40625,742
712,1696250501878,-0.40429688,-0.77227783,0.5446167,-2.5,0.140625,-0.140625,743
713,1696250501918,-0.41259766,-0.7630005,0.5631714,-1.984375,0.96875,0.453125,744
714,1696250501958,-0.3996582,-0.77178955,0.56951904,-2.25,1.0,0.46875,745
715,1696250501998,-0.40649414,-0.7661743,0.5560913,-2.015625,0.28125,-0.140625,746
716,1696250502038,-0.40356445,-0.76763916,0.55584717,0.234375,-0.203125,0.515625,747
717,1696250502078,-0.40161133,-0.7752075,0.55926514,0.125,-0.5625,1.390625,748
718,1696250502118,-0.37524414,-0.76812744,0.5578003,0.5,0.484375,0.40625,749
719,1696250502158,-0.39990234,-0.770813,0.5609741,1.25,0.0625,-0.296875,750
720,1696250502198,-0.41333008,-0.7756958,0.5687866,0.046875,-0.234375,0.671875,751
721,1696250502238,-0.40771484,-0.75982666,0.5499878,-0.21875,0.09375,1.015625,752
722,1696250502278,-0.3779297,-0.76275635,0.55511475,1.390625,0.765625,0.90625,753
723,1696250502318,-0.3869629,-0.78253174,0.55755615,-0.390625,0.375,0.234375,754
724,1696250502358,-0.4099121,-0.77838135,0.5758667,1.3125,0.03125,-0.140625,755
725,1696250502398,-0.40625,-0.76397705,0.55804443,1.484375,0.109375,0.640625,756
726,1696250502438,-0.38623047,-0.7625122,0.5499878,-0.265625,-0.234375,0.703125,757
727,1696250502478,-0.38085938,-0.7710571,0.557312,-0.3125,-0.171875,0.21875,758
728,1696250502518,-0.38549805,-0.78302,0.5595093,-0.15625,0.0625,-0.25,759
729,1696250502558,-0.40576172,-0.7727661,0.55999756,0.421875,0.171875,-0.03125,760
730,1696250502598,-0.39794922,-0.7710571,0.5553589,2.0625,0.34375,1.40625,761
731,1696250502638,-0.3869629,-0.77716064,0.5570679,2.46875,0.109375,0.9375,762
732,1696250502678,-0.38061523,-0.7761841,0.55511475,0.859375,-0.109375,0.625,763
733,1696250502718,-0.38989258,-0.77667236,0.55462646,1.9375,-0.828125,0.765625,764
734,1696250502758,-0.38232422,-0.7727661,0.55462646,1.59375,-0.046875,0.359375,765
735,1696250502798,-0.39160156,-0.78375244,0.54241943,2.53125,-0.546875,0.796875,766
736,1696250502838,-0.37524414,-0.78692627,0.55218506,2.078125,-0.796875,0.84375,767
737,1696250502878,-0.38549805,-0.7698364,0.5475464,0.921875,-0.0625,0.078125,768
738,1696250502918,-0.39282227,-0.7883911,0.5392456,1.890625,-0.953125,0.734375,769
739,1696250502958,-0.3876953,-0.7817993,0.53582764,0.953125,-1.03125,0.59375,770
740,1696250502998,-0.38208008,-0.7835083,0.5348511,1.03125,-1.71875,0.40625,771
741,1696250503038,-0.37670898,-0.79107666,0.5392456,1.390625,-1.328125,0.234375,772
742,1696250503078,-0.3876953,-0.78204346,0.5348511,-0.546875,-0.15625,-0.3125,773
743,1696250503118,-0.3881836,-0.7944946,0.53656006,0.015625,-0.765625,0.453125,774
744,1696250503158,-0.38232422,-0.7859497,0.5307007,-0.453125,-0.765625,-0.03125,775
745,1696250503198,-0.38720703,-0.78985596,0.54901123,-1.8125,-0.5625,-0.484375,776
746,1696250503238,-0.3955078,-0.78448486,0.54437256,-1.640625,-0.5625,-0.09375,777
747,1696250503278,-0.39111328,-0.7715454,0.53778076,-0.1875,-0.375,-0.171875,778
748,1696250503318,-0.38012695,-0.78082275,0.55023193,-1.640625,-0.40625,0.0,779
749,1696250503358,-0.39086914,-0.78497314,0.5429077,-1.546875,-0.96875,0.140625,780
750,1696250503398,-0.3876953,-0.7913208,0.5487671,0.484375,-0.640625,-0.296875,781
751,1696250503438,-0.3918457,-0.7854614,0.54974365,-0.8125,-0.46875,-0.078125,782
752,1696250503478,-0.39233398,-0.78204346,0.5475464,-1.390625,-0.90625,0.0,783
753,1696250503518,-0.3935547,-0.7815552,0.541687,0.125,-0.234375,-0.15625,784
754,1696250503558,-0.38745117,-0.77667236,0.55023193,-0.921875,-0.296875,0.15625,785
755,1696250503598,-0.3864746,-0.7883911,0.5553589,-1.078125,-0.640625,0.046875,786
756,1696250503638,-0.40649414,-0.79107666,0.54901123,0.5625,-1.21875,0.984375,787
757,1696250503678,-0.3852539,-0.77593994,0.5504761,0.453125,-1.78125,0.015625,788
758,1696250503718,-0.37280273,-0.7798462,0.5446167,1.125,0.9375,-0.0625,789
759,1696250503758,-0.40014648,-0.7859497,0.527771,-1.34375,0.046875,-0.0625,790
