,timestamp,accel_x,accel_y,accel_z,gyro_x,gyro_y,gyro_z,ind
0,1696251436289,0.006591797,-0.9734497,0.13763428,-3.171875,-2.953125,0.484375,0
1,1696251436329,0.01171875,-0.98272705,0.12225342,1.796875,2.0,0.921875,31
2,1696251436369,0.027832031,-0.9805298,0.12420654,1.75,0.28125,0.953125,32
3,1696251436409,0.017822266,-0.9793091,0.12420654,0.40625,-0.734375,-0.171875,33
4,1696251436449,-0.03149414,-0.9854126,0.12664795,-0.421875,-2.015625,0.109375,34
5,1696251436489,-0.016357422,-0.98272705,0.11834717,-0.765625,0.328125,0.109375,35
6,1696251436529,0.0012207031,-0.9920044,0.12005615,2.46875,0.203125,0.109375,36
7,1696251436569,-0.010498047,-0.98272705,0.11932373,0.953125,-0.890625,0.34375,37
8,1696251436609,-0.013183594,-0.987854,0.08905029,-0.625,-0.734375,0.953125,38
9,1696251436649,0.020263672,-0.9751587,0.109558105,0.390625,-0.828125,1.40625,39
10,1696251436689,0.028076172,-0.99005127,0.105895996,0.0625,-2.25,1.15625,40
11,1696251436729,0.015380859,-0.98565674,0.10638428,-1.328125,-1.1875,-0.4375,41
12,1696251436769,-0.012939453,-0.98809814,0.117370605,-1.640625,-0.859375,-0.84375,42
13,1696251436809,-0.0029296875,-0.97491455,0.1251831,-1.84375,0.4375,-0.75,43
14,1696251436849,0.0031738281,-0.96832275,0.113220215,-2.09375,-0.453125,-1.1875,44
15,1696251436889,-0.0073242188,-0.99176025,0.12567139,0.484375,0.46875,-0.3125,45
16,1696251436929,0.0061035156,-1.00177,0.11883545,1.734375,1.78125,-0.625,46
17,1696251436969,0.0041503906,-0.98443604,0.12249756,2.5625,1.390625,-0.453125,47
18,1696251437009,-0.0075683594,-0.99542236,0.11151123,2.609375,-1.296875,0.21875,48
19,1696251437049,-0.018554688,-0.973938,0.11810303,2.453125,-1.0,0.796875,49
20,1696251437089,-0.02734375,-1.0020142,0.121520996,-1.3125,-2.359375,2.0625,50
21,1696251437129,0.0063476562,-0.9885864,0.11663818,-2.109375,-0.703125,-0.15625,51
22,1696251437169,0.030029297,-0.9717407,0.11932373,-1.0625,-1.4375,-0.09375,52
23,1696251437209,0.009521484,-0.97662354,0.11517334,-0.859375,-3.171875,0.625,53
24,1696251437249,-0.022460938,-0.9944458,0.1161499,-2.203125,-2.65625,0.0625,54
25,1696251437289,-0.024658203,-0.99102783,0.12591553,-0.765625,-0.9375,-0.515625,55
26,1696251437329,0.00048828125,-0.98321533,0.12420654,-2.390625,-0.453125,-0.953125,56
27,1696251437369,-0.009277344,-0.9729614,0.11883545,-2.28125,-1.78125,-0.71875,57
28,1696251437409,-0.023925781,-0.99102783,0.12835693,-2.515625,-0.890625,-0.296875,58
29,1696251437449,-0.0053710938,-0.9717407,0.13641357,-2.65625,0.390625,-1.375,59
30,1696251437489,-0.005859375,-0.98516846,0.14788818,-1.3125,0.8125,-1.015625,60
31,1696251437529,-0.010253906,-0.99786377,0.1408081,-1.53125,0.546875,-0.875,61
32,1696251437569,-0.0073242188,-0.97857666,0.12786865,-0.234375,0.359375,-2.734375,62
33,1696251437609,-0.014892578,-0.9697876,0.13861084,0.78125,0.71875,-1.046875,63
34,1696251437649,-0.0061035156,-0.9768677,0.12591553,0.09375,0.109375,-0.953125,64
35,1696251437689,-0.025390625,-0.98883057,0.13568115,2.09375,-0.140625,-0.65625,65
36,1696251437729,-0.004638672,-0.987854,0.13494873,1.46875,0.765625,-0.65625,66
37,1696251437769,-0.0078125,-0.97052,0.12567139,2.421875,1.46875,-1.03125,67
38,1696251437809,-0.017089844,-0.99176025,0.1408081,2.734375,0.03125,0.09375,68
39,1696251437849,-0.037109375,-0.9800415,0.121032715,1.109375,-0.984375,0.046875,69
40,1696251437889,-0.026367188,-0.99005127,0.13348389,0.5,-0.578125,-0.34375,70
41,1696251437929,-0.013671875,-0.98931885,0.1227417,0.921875,-0.1875,-0.078125,71
42,1696251437969,-0.022460938,-0.98760986,0.12615967,-0.984375,-2.15625,0.828125,72
43,1696251438009,-0.036132812,-0.98101807,0.12982178,0.671875,-0.9375,0.359375,73
44,1696251438049,-0.035888672,-0.99298096,0.12347412,-1.5,-0.140625,-0.3125,74
45,1696251438089,-0.013916016,-0.9734497,0.1251831,-0.703125,0.453125,-0.609375,75
46,1696251438129,-0.020263672,-0.97979736,0.12664795,-1.125,-0.328125,0.375,76
47,1696251438169,-0.033691406,-0.9968872,0.12640381,-2.609375,-0.765625,0.1875,77
48,1696251438209,-0.031982422,-1.000061,0.12957764,-1.4375,0.109375,-0.234375,78
49,1696251438249,-0.025634766,-0.9805298,0.13079834,-0.9375,-0.453125,0.71875,79
50,1696251438289,-0.017578125,-0.97906494,0.12371826,-0.15625,-0.4375,0.984375,80
51,1696251438329,-0.018798828,-0.9932251,0.13519287,-0.921875,-0.375,1.078125,81
52,1696251438369,-0.025146484,-0.98028564,0.13226318,-0.328125,0.109375,0.609375,82
53,1696251438409,-0.03100586,-0.98638916,0.13250732,-0.015625,0.625,0.59375,83
54,1696251438449,-0.036865234,-0.9915161,0.14447021,-0.53125,0.59375,0.578125,84
55,1696251438489,-0.017822266,-0.97662354,0.12249756,-0.828125,1.1875,0.359375,85
56,1696251438529,-0.015136719,-0.99346924,0.13348389,0.03125,1.625,0.375,86
57,1696251438569,-0.021484375,-0.9990845,0.13934326,0.4375,1.015625,0.625,87
58,1696251438609,-0.026367188,-0.99298096,0.12957764,-1.125,-0.296875,0.828125,88
59,1696251438649,0.010009766,-0.96539307,0.12957764,0.328125,0.265625,0.09375,89
60,1696251438689,-0.012451172,-0.97735596,0.121276855,0.359375,-0.765625,0.53125,90
61,1696251438729,-0.01977539,-0.9907837,0.14910889,1.859375,-1.328125,1.015625,91
62,1696251438769,-0.01977539,-0.9890747,0.12542725,-0.484375,-0.734375,-0.09375,92
63,1696251438809,-0.018798828,-0.9751587,0.13006592,1.0625,0.375,0.0625,93
64,1696251438849,-0.020507812,-0.9973755,0.13446045,1.671875,-0.59375,1.4375,94
65,1696251438889,-0.0036621094,-0.9859009,0.13519287,0.484375,-1.453125,0.15625,95
66,1696251438929,-0.017089844,-0.989563,0.13397217,-0.703125,-1.484375,0.296875,96
67,1696251438969,-0.025390625,-0.98931885,0.13250732,-1.03125,-1.140625,0.3125,97
68,1696251439009,-0.01586914,-0.98223877,0.13446045,-1.828125,-0.890625,0.390625,98
69,1696251439049,-0.018310547,-0.99468994,0.13543701,-0.78125,-0.75,0.609375,99
70,1696251439089,-0.0068359375,-0.97442627,0.14129639,-0.28125,-0.40625,-0.234375,100
71,1696251439129,-0.025146484,-0.99102783,0.13153076,-0.8125,-1.1875,0.40625,101
72,1696251439169,-0.015380859,-0.9883423,0.13128662,-0.5625,0.21875,0.171875,102
73,1696251439209,-0.020507812,-0.9902954,0.1383667,-0.828125,-0.390625,0.296875,103
74,1696251439249,-0.009765625,-0.9805298,0.1383667,-0.109375,0.5625,-0.046875,104
75,1696251439289,-0.015625,-0.9817505,0.14422607,0.078125,-0.421875,0.109375,105
76,1696251439329,-0.026367188,-0.99005127,0.13787842,-0.453125,-0.8125,0.359375,106
77,1696251439369,-0.013183594,-0.9885864,0.1395874,-0.6875,-0.328125,0.046875,107
78,1696251439409,-0.011230469,-0.9805298,0.14031982,-0.796875,-0.328125,-0.46875,108
79,1696251439449,-0.022949219,-0.9783325,0.13543701,0.078125,-0.5625,0.421875,109
80,1696251439489,-0.022216797,-0.987854,0.14276123,-0.109375,-0.453125,0.59375,110
81,1696251439529,-0.009765625,-0.9807739,0.14642334,0.859375,0.078125,-0.171875,111
82,1696251439569,-0.014160156,-0.975647,0.13983154,-0.015625,-0.484375,0.1875,112
83,1696251439609,-0.0234375,-0.97052,0.13275146,1.0625,-0.75,0.234375,113
84,1696251439649,-0.03149414,-0.9976196,0.13885498,-1.234375,-0.34375,0.734375,114
85,1696251439689,-0.010009766,-1.0027466,0.14642334,-1.34375,1.234375,-0.5,115
86,1696251439729,-0.0087890625,-0.97198486,0.13665771,-1.265625,-0.453125,-0.765625,116
87,1696251439769,-0.0078125,-0.97906494,0.14324951,-0.65625,-0.671875,0.21875,117
88,1696251439809,-0.023925781,-0.9849243,0.15423584,-1.375,-1.4375,0.0,118
89,1696251439849,-0.034423828,-0.9866333,0.14886475,-1.921875,0.21875,-0.5625,119
90,1696251439889,-0.013671875,-0.9800415,0.14886475,-1.359375,0.15625,-1.0,120
91,1696251439929,-0.009521484,-0.98028564,0.14910889,-1.28125,-0.6875,0.34375,121
92,1696251439969,-0.020507812,-0.9829712,0.14593506,-1.96875,-0.953125,0.46875,122
93,1696251440009,-0.029052734,-0.97979736,0.15716553,-2.25,-1.640625,0.1875,123
94,1696251440049,-0.016601562,-0.98028564,0.15911865,-0.71875,0.078125,-0.046875,124
95,1696251440089,-0.0107421875,-0.98394775,0.15911865,0.59375,0.0,-0.328125,125
96,1696251440129,-0.028320312,-0.9854126,0.15032959,0.4375,-1.296875,0.546875,126
97,1696251440169,-0.026123047,-0.97662354,0.14569092,0.765625,-0.375,0.578125,127
98,1696251440209,-0.032226562,-0.99298096,0.16644287,-0.109375,-1.375,0.75,128
99,1696251440249,-0.011474609,-0.98223877,0.15789795,1.03125,0.140625,0.234375,129
100,1696251440289,-0.0146484375,-0.9692993,0.14788818,1.15625,-0.3125,-0.140625,130
101,1696251440329,-0.028808594,-0.9780884,0.15057373,0.8125,-1.25,1.15625,131
102,1696251440369,-0.021240234,-0.9932251,0.15765381,-0.875,-1.609375,0.734375,132
103,1696251440409,-0.012207031,-0.9854126,0.15667725,-0.515625,-0.0625,-0.546875,133
104,1696251440449,-0.012451172,-0.97125244,0.14593506,-0.546875,-0.8125,-0.09375,134
105,1696251440489,-0.019042969,-0.9812622,0.15838623,-0.328125,-1.3125,1.0,135
106,1696251440529,-0.026123047,-0.9866333,0.16082764,0.046875,-0.703125,0.046875,136
107,1696251440569,-0.030273438,-0.9859009,0.15716553,-0.296875,-0.078125,-0.328125,137
108,1696251440609,-0.020019531,-0.9663696,0.15057373,-0.484375,0.671875,-0.328125,138
109,1696251440649,-0.011230469,-0.9883423,0.1539917,-0.328125,0.421875,-0.0625,139
110,1696251440689,-0.018310547,-0.9961548,0.15032959,-0.203125,-0.015625,-0.203125,140
111,1696251440729,-0.022705078,-0.98516846,0.15863037,-0.484375,-0.84375,0.375,141
112,1696251440769,-0.024414062,-0.98223877,0.14788818,-0.359375,-0.484375,0.546875,142
113,1696251440809,-0.017089844,-0.9837036,0.15130615,1.28125,0.5625,0.6875,143
114,1696251440849,-0.017578125,-0.98516846,0.15814209,0.875,0.0625,0.328125,144
115,1696251440889,-0.012939453,-0.9771118,0.1515503,0.53125,0.8125,0.203125,145
116,1696251440929,-0.020019531,-0.9937134,0.15545654,1.59375,0.625,0.40625,146
117,1696251440969,-0.018798828,-0.9668579,0.1449585,-0.34375,-1.09375,0.09375,147
118,1696251441009,-0.016845703,-0.99957275,0.15228271,1.0,0.953125,0.984375,148
119,1696251441049,-0.006591797,-0.97125244,0.14422607,0.78125,-1.21875,0.3125,149
120,1696251441089,-0.0087890625,-0.9710083,0.1473999,0.65625,-0.625,0.03125,150
121,1696251441129,-0.033447266,-0.9956665,0.1486206,-0.109375,-1.90625,1.359375,151
122,1696251441169,-0.010253906,-0.989563,0.14007568,-0.671875,-0.171875,-0.078125,152
123,1696251441209,-0.015380859,-0.97906494,0.16326904,0.296875,0.171875,-0.328125,153
124,1696251441249,-0.020996094,-0.9780884,0.13909912,0.171875,-1.140625,0.40625,154
125,1696251441289,-0.020019531,-0.9956665,0.13983154,-0.578125,-0.703125,0.03125,155
126,1696251441329,-0.021728516,-0.9951782,0.15057373,0.90625,0.265625,-0.03125,156
127,1696251441369,-0.011474609,-0.97662354,0.14471436,0.0,-0.265625,-0.03125,157
128,1696251441409,-0.009033203,-0.9710083,0.1461792,0.875,0.140625,0.15625,158
129,1696251441449,-0.01977539,-0.9924927,0.13470459,-0.265625,-1.125,0.796875,159
130,1696251441489,-0.0061035156,-0.9937134,0.14324951,-0.28125,-1.140625,0.703125,160
131,1696251441529,-0.0126953125,-0.9763794,0.14837646,0.671875,-0.890625,0.3125,161
132,1696251441569,-0.021240234,-0.9890747,0.14520264,-0.40625,-1.375,0.484375,162
133,1696251441609,-0.018798828,-0.98321533,0.14837646,-0.0625,-1.0,0.375,163
134,1696251441649,-0.024169922,-0.97491455,0.14910889,-1.1875,-0.828125,0.5,164
135,1696251441689,-0.026367188,-0.9898071,0.15032959,-1.375,0.03125,-0.1875,165
136,1696251441729,-0.01977539,-0.986145,0.15814209,-0.875,0.171875,-0.046875,166
137,1696251441769,-0.015380859,-0.97540283,0.13787842,-1.90625,-0.84375,0.03125,167
138,1696251441809,-0.022216797,-0.987854,0.15740967,-1.09375,0.078125,-0.25,168
139,1696251441849,-0.014160156,-0.98565674,0.15594482,-0.75,-0.015625,-0.3125,169
140,1696251441889,-0.0031738281,-0.98760986,0.14593506,-1.21875,0.046875,-0.84375,170
141,1696251441929,-0.017822266,-0.9741821,0.15594482,0.296875,-0.53125,-0.015625,171
142,1696251441969,-0.029541016,-0.98321533,0.15716553,0.390625,-1.09375,0.40625,172
143,1696251442009,-0.0234375,-0.9817505,0.16522217,-0.46875,-0.453125,0.578125,173
144,1696251442049,-0.01977539,-0.9717407,0.15545654,0.03125,-0.234375,-0.25,174
145,1696251442089,-0.016113281,-0.9902954,0.14398193,0.125,0.484375,0.53125,175
146,1696251442129,-0.010986328,-0.98028564,0.15911865,1.28125,-0.34375,0.921875,176
147,1696251442169,-0.021484375,-0.97613525,0.15618896,-0.5625,-1.046875,0.796875,177
148,1696251442209,-0.024414062,-0.97784424,0.15301514,0.8125,0.96875,0.21875,178
149,1696251442249,-0.013671875,-0.9776001,0.16326904,0.453125,0.265625,1.078125,179
150,1696251442289,-0.0107421875,-0.9920044,0.15692139,-0.578125,-1.90625,0.875,180
151,1696251442329,-0.009765625,-0.98443604,0.15667725,0.625,0.0625,0.4375,181
152,1696251442369,-0.018554688,-0.9819946,0.14959717,0.046875,-0.640625,0.46875,182
153,1696251442409,-0.009765625,-0.98150635,0.15252686,-0.859375,-0.9375,0.484375,183
154,1696251442449,-0.020263672,-0.9841919,0.14788818,-0.875,-0.5625,0.203125,184
155,1696251442489,-0.017822266,-0.98760986,0.15081787,-0.40625,-0.390625,0.421875,185
156,1696251442529,-0.015625,-0.9829712,0.14935303,-0.9375,0.203125,-0.015625,186
157,1696251442569,-0.0068359375,-0.9805298,0.15985107,-0.46875,-0.140625,-0.1875,187
158,1696251442609,-0.01586914,-0.98516846,0.15496826,0.515625,-0.625,0.46875,188
159,1696251442649,-0.02319336,-0.991272,0.1486206,1.921875,0.5,0.875,189
160,1696251442689,-0.006591797,-0.9866333,0.1593628,0.53125,0.15625,0.453125,190
161,1696251442729,-0.006591797,-0.98223877,0.14471436,0.046875,0.0,0.4375,191
162,1696251442769,-0.0029296875,-0.97198486,0.15203857,-0.6875,0.421875,0.0,192
163,1696251442809,-0.02319336,-0.98443604,0.16082764,-0.203125,0.0,0.140625,193
164,1696251442849,-0.017089844,-0.9885864,0.15814209,-0.46875,0.0,0.265625,194
165,1696251442889,-0.0146484375,-0.9727173,0.15472412,-0.140625,0.53125,-0.25,195
166,1696251442929,-0.0061035156,-0.98394775,0.15716553,-0.171875,-0.375,-0.015625,196
167,1696251442969,-0.009277344,-0.9849243,0.16204834,-0.453125,-0.890625,0.515625,197
168,1696251443009,-0.01953125,-0.97784424,0.152771,-0.796875,-0.671875,-0.125,198
169,1696251443049,-0.020263672,-0.99298096,0.15887451,-0.203125,0.484375,-0.421875,199
170,1696251443089,-0.013427734,-0.9800415,0.15863037,-0.671875,0.6875,-0.546875,200
171,1696251443129,-0.0061035156,-0.97784424,0.1593628,-0.09375,0.515625,-0.453125,201
172,1696251443169,-0.011474609,-0.98443604,0.15545654,1.484375,0.953125,-0.171875,202
173,1696251443209,-0.016845703,-1.0027466,0.15032959,2.65625,0.875,0.046875,203
174,1696251443249,0.0,-0.9768677,0.15447998,1.796875,-0.390625,-0.0625,204
175,1696251443289,-0.01171875,-0.9680786,0.14691162,1.328125,-0.375,0.5,205
176,1696251443329,-0.022949219,-0.99176025,0.1486206,-0.4375,-2.125,0.609375,206
177,1696251443369,-0.027832031,-0.9795532,0.14471436,-0.78125,-0.84375,-0.328125,207
178,1696251443409,-0.017089844,-0.9915161,0.14886475,-0.984375,-0.515625,-0.046875,208
179,1696251443449,-0.01586914,-0.9849243,0.16033936,-0.703125,-0.109375,0.34375,209
180,1696251443489,-0.015625,-0.9849243,0.1539917,-0.375,0.078125,0.03125,210
181,1696251443529,-0.03173828,-0.99346924,0.1473999,0.171875,-0.34375,0.15625,211
182,1696251443569,-0.016601562,-0.99224854,0.14031982,0.171875,1.78125,-0.0625,212
183,1696251443609,-0.0048828125,-0.987854,0.14642334,-1.515625,0.765625,0.15625,213
184,1696251443649,-0.009033203,-0.975647,0.16400146,-2.390625,-0.34375,0.671875,214
185,1696251443689,-0.024902344,-0.97857666,0.17034912,-1.03125,0.640625,0.234375,215
186,1696251443729,-0.015136719,-0.98516846,0.1539917,-1.078125,-0.40625,-0.015625,216
187,1696251443769,-0.0031738281,-0.98223877,0.15863037,-1.328125,-0.953125,0.359375,217
188,1696251443809,-0.0063476562,-0.9663696,0.1593628,-1.1875,-1.640625,-0.359375,218
189,1696251443849,-0.01586914,-0.9883423,0.16107178,-0.75,-1.953125,-0.15625,219
190,1696251443889,-0.022460938,-0.9841919,0.1708374,0.015625,-0.734375,1.0,220
191,1696251443929,-0.024658203,-0.98394775,0.16229248,-0.53125,-0.515625,0.515625,221
192,1696251443969,-0.020019531,-0.9834595,0.16082764,0.515625,-0.109375,-0.0625,222
193,1696251444009,-0.0029296875,-0.9854126,0.15863037,-1.234375,-1.65625,0.671875,223
194,1696251444049,0.0007324219,-0.9663696,0.16571045,-3.046875,-3.21875,0.15625,224
195,1696251444089,-0.018554688,-0.9780884,0.1642456,-2.859375,-1.578125,0.75,225
196,1696251444129,-0.020263672,-1.0142212,0.1798706,1.0,-3.703125,0.703125,226
197,1696251444169,-0.02319336,-0.9685669,0.17572021,0.234375,0.65625,0.453125,227
198,1696251444209,-0.034179688,-0.956604,0.17547607,0.1875,0.203125,1.109375,228
199,1696251444249,-0.0024414062,-0.9873657,0.17327881,0.5625,0.78125,0.90625,229
200,1696251444289,0.0017089844,-0.986145,0.17718506,0.265625,-1.140625,0.21875,230
201,1696251444329,-0.021972656,-0.9824829,0.16668701,-0.140625,-1.109375,0.203125,231
202,1696251444369,-0.024414062,-0.973938,0.15740967,-0.671875,0.453125,0.28125,232
203,1696251444409,-0.010253906,-0.9771118,0.16595459,-1.640625,-1.453125,-0.578125,233
204,1696251444449,-0.0029296875,-0.97540283,0.1708374,-0.296875,1.640625,-0.78125,234
205,1696251444489,-0.0034179688,-0.9915161,0.17962646,-0.0625,0.203125,-0.8125,235
206,1696251444529,-0.033691406,-0.9873657,0.18475342,-0.375,-0.015625,0.09375,236
207,1696251444569,-0.0390625,-0.96832275,0.1696167,0.953125,1.0625,0.921875,237
208,1696251444609,-0.006591797,-0.9898071,0.18157959,1.90625,2.375,0.578125,238
209,1696251444649,0.01171875,-0.9873657,0.16693115,1.390625,-3.921875,1.296875,239
210,1696251444689,-0.0048828125,-0.97076416,0.1708374,0.109375,-2.171875,0.9375,240
211,1696251444729,-0.029296875,-0.9837036,0.16546631,-0.796875,-1.21875,0.203125,241
212,1696251444769,-0.024902344,-0.9771118,0.1618042,-1.0625,0.453125,0.421875,242
213,1696251444809,0.00024414062,-0.9800415,0.17425537,-0.765625,1.734375,-0.703125,243
214,1696251444849,-0.010009766,-0.9846802,0.16619873,-0.234375,-0.171875,-0.25,244
215,1696251444889,-0.014892578,-0.97076416,0.16693115,-1.203125,-1.53125,0.65625,245
216,1696251444929,-0.024414062,-0.99224854,0.1828003,-0.4375,-0.28125,0.46875,246
217,1696251444969,-0.010498047,-0.98760986,0.17279053,0.578125,0.375,0.5,247
218,1696251445009,-0.0146484375,-0.9771118,0.17108154,0.015625,-1.296875,0.8125,248
219,1696251445049,-0.0026855469,-0.9776001,0.1618042,0.234375,-0.640625,0.59375,249
220,1696251445089,-0.0078125,-0.99053955,0.17913818,0.078125,0.046875,0.03125,250
221,1696251445129,-0.017089844,-0.975647,0.16497803,-0.265625,-0.8125,-0.140625,251
222,1696251445169,-0.008300781,-0.96661377,0.16912842,-1.171875,-0.890625,0.671875,252
223,1696251445209,-0.0146484375,-0.98223877,0.17547607,-0.515625,-0.453125,0.59375,253
224,1696251445249,-0.010009766,-0.9819946,0.1696167,-1.125,-1.890625,0.015625,254
225,1696251445289,-0.011230469,-0.97198486,0.17010498,-1.875,-1.359375,-0.265625,255
226,1696251445329,-0.005126953,-0.9771118,0.18475342,-1.390625,0.5,-0.65625,256
227,1696251445369,-0.017578125,-0.9734497,0.17889404,-0.765625,-1.21875,-0.609375,257
228,1696251445409,-0.008300781,-0.9624634,0.18572998,1.65625,0.0,0.265625,258
229,1696251445449,-0.014404297,-0.9824829,0.20452881,2.265625,-1.890625,0.09375,259
230,1696251445489,-0.030517578,-0.99053955,0.16326904,1.078125,-2.28125,-0.796875,260
231,1696251445529,-0.029296875,-0.98883057,0.17376709,0.5625,-0.078125,-0.765625,261
232,1696251445569,-0.020751953,-0.97906494,0.16546631,0.953125,0.71875,-0.09375,262
233,1696251445609,-0.023925781,-0.98687744,0.1774292,1.15625,2.703125,0.53125,263
234,1696251445649,-0.02368164,-0.989563,0.17449951,-0.609375,0.234375,-0.734375,264
235,1696251445689,-0.011230469,-0.9849243,0.17449951,0.03125,1.3125,-1.0,265
236,1696251445729,-0.00390625,-0.97735596,0.17840576,0.0,0.5,0.53125,266
237,1696251445769,-0.008300781,-0.9805298,0.17645264,-1.15625,-0.796875,1.21875,267
238,1696251445809,-0.010253906,-0.97662354,0.1708374,-1.078125,-2.1875,0.515625,268
239,1696251445849,-0.022460938,-0.987854,0.17401123,-0.890625,-1.71875,0.171875,269
240,1696251445889,-0.021484375,-0.9651489,0.16375732,-3.046875,-1.953125,0.03125,270
241,1696251445929,-0.013183594,-0.9607544,0.17230225,-0.421875,1.328125,0.28125,271
242,1696251445969,-0.014404297,-0.9973755,0.19525146,1.125,0.046875,-0.609375,272
243,1696251446009,-0.020996094,-0.9854126,0.19110107,1.078125,-0.765625,-0.09375,273
244,1696251446049,-0.028564453,-0.97857666,0.18109131,0.734375,-1.09375,-0.046875,274
245,1696251446089,-0.027832031,-0.97906494,0.17327881,0.90625,-1.71875,0.59375,275
246,1696251446129,-0.02319336,-0.9902954,0.17572021,0.140625,-0.953125,0.703125,276
247,1696251446169,-0.029052734,-0.9729614,0.16986084,-0.796875,-2.1875,-0.21875,277
248,1696251446209,-0.020751953,-0.98565674,0.18670654,-0.078125,1.140625,-1.375,278
249,1696251446249,-0.030761719,-0.9915161,0.1749878,-1.0625,0.21875,-1.234375,279
250,1696251446289,-0.017578125,-0.97735596,0.17181396,-0.6875,-0.171875,-1.578125,280
251,1696251446329,-0.024658203,-0.9956665,0.1798706,-0.390625,0.203125,-1.140625,281
252,1696251446369,-0.028320312,-0.98565674,0.1828003,-0.75,-1.1875,-0.71875,282
253,1696251446409,-0.031982422,-0.9746704,0.17303467,-1.15625,-1.296875,-0.21875,283
254,1696251446449,-0.03149414,-0.9829712,0.17889404,-1.203125,-1.34375,0.390625,284
255,1696251446489,-0.029541016,-0.9824829,0.17425537,-2.40625,-0.5625,0.328125,285
256,1696251446529,-0.01928711,-0.9871216,0.17010498,-7.8125,-1.8125,-1.109375,286
257,1696251446569,-0.030273438,-0.927063,0.20550537,-7.265625,0.828125,-1.15625,287
258,1696251446609,-0.057617188,-1.0032349,0.2243042,-0.265625,-0.609375,3.125,288
259,1696251446649,-0.0056152344,-1.0073853,0.23675537,6.046875,-3.140625,0.5,289
260,1696251446689,-0.04296875,-0.9788208,0.21453857,4.390625,-1.546875,0.6875,290
261,1696251446729,-0.06542969,-0.9397583,0.18499756,5.8125,-0.640625,3.953125,291
262,1696251446769,-0.040283203,-1.0213013,0.18475342,8.078125,1.625,1.078125,292
263,1696251446809,-0.012451172,-1.0112915,0.16693115,4.546875,-1.09375,-0.015625,293
264,1696251446849,-0.008544922,-0.9585571,0.16546631,2.546875,-0.765625,1.65625,294
265,1696251446889,-0.03930664,-0.96051025,0.16204834,-0.84375,-1.875,1.359375,295
266,1696251446929,-0.032714844,-0.98223877,0.1359253,-2.25,-3.921875,-0.1875,296
267,1696251446969,-0.030517578,-0.9949341,0.14154053,3.515625,0.078125,0.34375,297
268,1696251447009,0.0075683594,-0.97442627,0.1461792,5.046875,0.40625,0.640625,298
269,1696251447049,-0.022460938,-0.9624634,0.13470459,0.46875,-1.0625,-0.21875,299
270,1696251447089,-0.032714844,-0.9714966,0.15179443,-6.828125,-4.140625,0.71875,300
271,1696251447129,-0.022460938,-0.9793091,0.19989014,-4.75,-3.796875,1.5625,301
272,1696251447169,0.030029297,-1.0029907,0.18743896,-2.109375,-1.515625,-2.125,302
273,1696251447209,-0.017822266,-0.9885864,0.17767334,-3.0,-0.9375,-3.03125,303
274,1696251447249,-0.03149414,-0.9727173,0.16644287,-2.0,-0.234375,-1.171875,304
275,1696251447289,-0.029296875,-0.98931885,0.18572998,-0.09375,0.390625,-1.609375,305
276,1696251447329,-0.031982422,-0.9734497,0.18426514,-0.875,-1.53125,-1.328125,306
277,1696251447369,-0.04272461,-0.97320557,0.18011475,0.71875,0.203125,-0.5625,307
278,1696251447409,-0.033691406,-0.99713135,0.17816162,-0.484375,0.515625,-0.421875,308
279,1696251447449,-0.037841797,-0.9795532,0.17816162,-0.015625,-0.6875,-0.296875,309
280,1696251447489,-0.028564453,-0.97003174,0.17401123,0.09375,-0.109375,0.765625,310
281,1696251447529,-0.033691406,-0.9690552,0.17889404,0.3125,0.21875,0.765625,311
282,1696251447569,-0.03857422,-0.989563,0.18865967,1.09375,0.0,0.390625,312
283,1696251447609,-0.0390625,-0.98272705,0.17913818,0.734375,0.28125,0.78125,313
284,1696251447649,-0.029785156,-0.9751587,0.18157959,1.109375,0.21875,0.578125,314
285,1696251447689,-0.020507812,-0.9702759,0.18231201,1.296875,-0.84375,0.6875,315
286,1696251447729,-0.040771484,-0.98321533,0.18304443,0.09375,-1.375,0.734375,316
287,1696251447769,-0.04663086,-0.98223877,0.18255615,1.125,-0.875,0.703125,317
288,1696251447809,-0.030517578,-0.9656372,0.17962646,-0.3125,-0.171875,0.078125,318
289,1696251447849,-0.03857422,-0.97540283,0.17962646,-0.046875,-0.59375,0.140625,319
290,1696251447889,-0.035888672,-0.9883423,0.18328857,0.1875,-0.34375,0.609375,320
291,1696251447929,-0.03857422,-0.9920044,0.17254639,-0.015625,-0.109375,0.015625,321
292,1696251447969,-0.029785156,-0.96710205,0.17059326,-0.109375,0.65625,-0.03125,322
293,1696251448009,-0.022216797,-0.986145,0.18109131,1.625,0.53125,-0.234375,323
294,1696251448049,-0.040283203,-0.9866333,0.17156982,0.53125,-0.21875,0.625,324
295,1696251448089,-0.026367188,-0.97369385,0.18084717,-0.1875,-1.125,0.28125,325
296,1696251448129,-0.024658203,-0.9758911,0.17327881,0.46875,-0.390625,-0.34375,326
297,1696251448169,-0.03491211,-0.9873657,0.16400146,-1.0,-0.546875,0.171875,327
298,1696251448209,-0.03540039,-0.99224854,0.16912842,0.140625,0.640625,0.875,328
299,1696251448249,-0.03881836,-0.986145,0.16815186,0.109375,-0.328125,1.03125,329
300,1696251448289,-0.033691406,-0.987854,0.16912842,-0.328125,0.3125,1.75,330
301,1696251448329,-0.0107421875,-0.97052,0.1720581,-0.078125,1.0,1.328125,331
302,1696251448369,-0.017822266,-0.9673462,0.16619873,-0.296875,-1.484375,0.578125,332
303,1696251448409,-0.033691406,-0.9859009,0.16107178,-0.0625,-1.734375,0.9375,333
304,1696251448449,-0.03100586,-0.98638916,0.17059326,0.09375,-0.34375,0.5625,334
305,1696251448489,-0.020263672,-0.972229,0.17938232,0.453125,0.390625,0.3125,335
306,1696251448529,-0.021240234,-0.9710083,0.16912842,-0.09375,-1.609375,0.390625,336
307,1696251448569,-0.03149414,-0.9812622,0.16741943,-0.171875,-1.484375,0.359375,337
308,1696251448609,-0.020507812,-0.9800415,0.16888428,0.03125,0.28125,0.171875,338
309,1696251448649,-0.028320312,-0.98321533,0.17279053,0.21875,-0.109375,-0.265625,339
310,1696251448689,-0.01928711,-0.986145,0.1696167,-0.296875,0.03125,-0.09375,340
311,1696251448729,-0.028320312,-0.97662354,0.1749878,-0.28125,-0.53125,-0.03125,341
312,1696251448769,-0.026123047,-0.98272705,0.17767334,0.328125,1.0,-0.515625,342
313,1696251448809,-0.018554688,-0.9854126,0.17474365,0.28125,0.046875,-0.46875,343
314,1696251448849,-0.036376953,-0.9776001,0.17474365,-0.671875,-1.171875,0.0625,344
315,1696251448889,-0.028808594,-0.975647,0.17376709,-1.03125,-0.25,-0.21875,345
316,1696251448929,-0.018310547,-0.98687744,0.17962646,-0.8125,-0.0625,-0.53125,346
317,1696251448969,-0.033691406,-0.98443604,0.17254639,-1.828125,-0.359375,-0.421875,347
318,1696251449009,-0.016601562,-0.97735596,0.17059326,-1.625,1.21875,-0.328125,348
319,1696251449049,-0.013183594,-0.9746704,0.17840576,-2.390625,0.65625,-0.609375,349
320,1696251449089,-0.017089844,-0.9734497,0.20452881,-3.859375,0.9375,-0.265625,350
321,1696251449129,-0.038330078,-1.0100708,0.23284912,-3.15625,0.546875,0.375,351
322,1696251449169,-0.053710938,-0.991272,0.19744873,-3.828125,-3.109375,1.234375,352
323,1696251449209,-0.026611328,-0.97662354,0.17547607,4.8125,-2.71875,0.84375,353
324,1696251449249,0.004638672,-0.9456177,0.16229248,6.109375,-2.875,0.53125,354
325,1696251449289,-0.032714844,-0.96710205,0.15228271,7.453125,-0.328125,2.59375,355
326,1696251449329,-0.036865234,-0.99224854,0.16595459,6.78125,-2.25,2.671875,356
327,1696251449369,-0.024902344,-0.9661255,0.1486206,4.75,-0.96875,0.015625,357
328,1696251449409,-0.03466797,-0.97198486,0.15252686,3.75,0.671875,1.296875,358
329,1696251449449,-0.013427734,-0.98028564,0.14349365,0.953125,-2.078125,2.71875,359
330,1696251449489,-0.014404297,-0.9751587,0.14666748,0.328125,-2.125,1.140625,360
331,1696251449529,-0.001953125,-1.0020142,0.17034912,-0.1875,0.828125,0.265625,361
332,1696251449569,-0.018066406,-0.99957275,0.1449585,-1.75,-2.34375,0.0625,362
333,1696251449609,-0.0061035156,-0.9717407,0.14837646,-2.046875,-0.734375,-0.59375,363
334,1696251449649,-0.022460938,-0.9776001,0.15570068,-0.65625,-0.34375,-1.046875,364
335,1696251449689,-0.029785156,-0.9824829,0.14544678,-2.375,-0.0625,-0.53125,365
336,1696251449729,-0.025390625,-0.99005127,0.1630249,-1.609375,-0.09375,-0.15625,366
337,1696251449769,-0.012939453,-0.97735596,0.16229248,-0.5,-0.078125,-0.15625,367
338,1696251449809,-0.014892578,-0.98223877,0.1473999,-1.4375,-0.890625,0.109375,368
339,1696251449849,-0.020019531,-0.97906494,0.16790771,-0.71875,-0.625,0.046875,369
340,1696251449889,-0.025634766,-0.97320557,0.1642456,-1.6875,0.0625,-0.53125,370
341,1696251449929,-0.020996094,-1.0022583,0.17059326,0.359375,0.84375,-0.109375,371
342,1696251449969,-0.028320312,-0.96710205,0.15838623,-1.171875,-2.28125,-0.390625,372
343,1696251450009,-0.020019531,-0.97491455,0.17254639,-0.203125,0.9375,-1.421875,373
344,1696251450049,-0.029296875,-0.9859009,0.16595459,-0.359375,0.96875,-0.921875,374
345,1696251450089,-0.025390625,-0.986145,0.16546631,-1.828125,-0.515625,-0.46875,375
346,1696251450129,-0.026123047,-0.9932251,0.18475342,-0.515625,0.484375,-0.8125,376
347,1696251450169,-0.036621094,-0.98443604,0.16644287,-0.375,-0.625,-0.359375,377
348,1696251450209,-0.030029297,-0.9673462,0.17474365,-0.21875,-0.046875,0.0625,378
349,1696251450249,-0.022705078,-0.99053955,0.17425537,-0.21875,-0.78125,-0.265625,379
350,1696251450289,-0.034179688,-0.987854,0.17034912,-0.734375,0.109375,0.078125,380
351,1696251450329,-0.02734375,-0.97125244,0.17449951,0.5625,0.78125,-0.28125,381
352,1696251450369,-0.03149414,-0.98760986,0.17547607,1.015625,1.140625,-0.75,382
353,1696251450409,-0.045898438,-0.9849243,0.17718506,0.125,0.625,-1.015625,383
354,1696251450449,-0.03564453,-0.9807739,0.15618896,-1.046875,1.0,-0.796875,384
355,1696251450489,-0.009765625,-0.97613525,0.1630249,-0.703125,0.921875,-0.546875,385
356,1696251450529,-0.01953125,-0.9866333,0.17449951,-0.828125,-1.09375,-0.1875,386
357,1696251450569,-0.052001953,-0.98321533,0.17352295,-1.328125,-0.234375,-0.53125,387
358,1696251450609,-0.052734375,-0.9824829,0.17401123,-0.5,0.4375,-0.71875,388
359,1696251450649,-0.034423828,-0.9614868,0.17401123,0.515625,1.328125,-0.453125,389
360,1696251450689,-0.022949219,-0.9783325,0.16693115,-0.875,-0.375,0.515625,390
361,1696251450729,-0.029296875,-0.98443604,0.17376709,0.046875,-0.15625,-0.203125,391
362,1696251450769,-0.038085938,-0.9758911,0.17816162,1.3125,0.53125,0.234375,392
363,1696251450809,-0.04663086,-0.97906494,0.17523193,1.015625,0.078125,0.59375,393
364,1696251450849,-0.05102539,-0.989563,0.17449951,0.40625,1.140625,0.78125,394
365,1696251450889,-0.041748047,-0.98272705,0.16253662,0.96875,0.40625,0.625,395
366,1696251450929,-0.017333984,-0.9819946,0.1720581,1.921875,1.90625,0.484375,396
367,1696251450969,-0.034423828,-0.97857666,0.16278076,2.03125,-0.15625,1.34375,397
368,1696251451009,-0.052978516,-0.9829712,0.17254639,2.53125,0.65625,0.90625,398
369,1696251451049,-0.046142578,-0.97613525,0.15423584,6.21875,2.109375,0.5625,399
370,1696251451089,-0.051757812,-0.9871216,0.15032959,9.078125,2.625,0.8125,400
371,1696251451129,-0.05126953,-0.9968872,0.1515503,8.78125,0.90625,1.9375,401
372,1696251451169,-0.020996094,-0.9885864,0.13616943,5.421875,3.046875,1.640625,402
373,1696251451209,-0.024414062,-0.9727173,0.10858154,3.515625,1.390625,0.359375,403
374,1696251451249,-0.028564453,-0.9846802,0.109802246,2.109375,0.875,0.328125,404
375,1696251451289,-0.022949219,-1.0044556,0.11907959,-0.390625,1.3125,0.734375,405
376,1696251451329,-0.036376953,-0.9727173,0.12445068,-0.296875,1.609375,-0.421875,406
377,1696251451369,-0.029296875,-0.98394775,0.11419678,-0.859375,2.125,-0.15625,407
378,1696251451409,-0.020019531,-0.9758911,0.11859131,-0.53125,1.9375,0.59375,408
379,1696251451449,-0.024169922,-0.99468994,0.12567139,-1.296875,-0.015625,1.46875,409
380,1696251451489,-0.01586914,-0.9902954,0.11395264,-3.46875,-1.71875,0.953125,410
381,1696251451529,-0.014160156,-0.97662354,0.124938965,-2.3125,-1.03125,0.71875,411
382,1696251451569,-0.016113281,-0.9805298,0.13470459,-1.53125,-1.21875,0.078125,412
383,1696251451609,-0.020263672,-0.98883057,0.12835693,-1.078125,-0.6875,0.390625,413
384,1696251451649,-0.020507812,-0.9920044,0.13568115,-0.796875,-0.09375,0.03125,414
385,1696251451689,-0.02368164,-0.99005127,0.14105225,-0.53125,-0.203125,-0.65625,415
386,1696251451729,-0.022460938,-0.97784424,0.1293335,0.09375,0.78125,-1.0,416
387,1696251451769,-0.041748047,-0.99713135,0.12640381,2.078125,1.734375,-0.5,417
388,1696251451809,-0.033935547,-0.9915161,0.12298584,0.359375,1.28125,-0.625,418
389,1696251451849,-0.015136719,-0.975647,0.11907959,1.21875,2.25,-1.1875,419
390,1696251451889,-0.0053710938,-0.97076416,0.11663818,0.4375,-1.25,-0.6875,420
391,1696251451929,0.0087890625,-0.9793091,0.12786865,1.1875,0.234375,-0.75,421
392,1696251451969,-0.032470703,-1.0081177,0.12249756,0.21875,-3.4375,-0.515625,422
393,1696251452009,-0.041259766,-0.9849243,0.12322998,1.046875,-1.390625,0.1875,423
394,1696251452049,-0.037841797,-0.97491455,0.12738037,0.375,-0.25,-0.625,424
395,1696251452089,-0.028808594,-0.9885864,0.12689209,-0.859375,-2.328125,0.140625,425
396,1696251452129,-0.032226562,-0.9920044,0.1359253,-1.53125,-1.15625,0.8125,426
397,1696251452169,-0.04248047,-0.99786377,0.1317749,-1.59375,-1.71875,-0.28125,427
398,1696251452209,-0.044921875,-0.99468994,0.12762451,-1.125,-1.171875,0.3125,428
399,1696251452249,-0.036621094,-0.97369385,0.12347412,-1.625,-0.546875,-0.28125,429
400,1696251452289,-0.028320312,-0.99005127,0.14007568,-2.046875,0.671875,-0.578125,430
401,1696251452329,-0.03881836,-1.0059204,0.13323975,-1.9375,-0.828125,-0.0625,431
402,1696251452369,-0.042236328,-0.9776001,0.13909912,-2.140625,-0.328125,-0.125,432
403,1696251452409,-0.041748047,-0.9859009,0.13201904,-1.6875,-0.140625,-0.109375,433
404,1696251452449,-0.027832031,-0.9849243,0.13348389,-1.359375,0.71875,-0.03125,434
405,1696251452489,-0.03125,-0.97906494,0.13983154,-0.21875,-0.59375,0.484375,435
406,1696251452529,-0.029296875,-0.98150635,0.13641357,-0.078125,-1.078125,0.6875,436
407,1696251452569,-0.030761719,-0.99053955,0.14324951,0.296875,-0.671875,0.421875,437
408,1696251452609,-0.035888672,-0.9812622,0.13372803,-0.6875,-1.1875,0.6875,438
409,1696251452649,-0.041259766,-0.97442627,0.152771,-0.109375,-1.21875,0.625,439
410,1696251452689,-0.034423828,-0.99346924,0.14837646,0.890625,-0.40625,0.984375,440
411,1696251452729,-0.04248047,-0.9932251,0.13568115,-0.171875,-2.25,0.65625,441
412,1696251452769,-0.038085938,-0.95635986,0.15130615,0.0,-0.765625,0.515625,442
413,1696251452809,-0.041503906,-0.98931885,0.1437378,-1.125,-1.0,0.328125,443
414,1696251452849,-0.032226562,-0.98809814,0.15447998,-0.453125,1.453125,-0.140625,444
415,1696251452889,-0.041015625,-0.9824829,0.14520264,-1.796875,0.21875,-0.609375,445
416,1696251452929,-0.034423828,-0.9746704,0.14349365,-0.515625,1.078125,0.0,446
417,1696251452969,-0.022460938,-0.98931885,0.15081787,-0.625,0.921875,1.03125,447
418,1696251453009,-0.016113281,-0.9932251,0.15863037,0.03125,-0.359375,1.09375,448
419,1696251453049,-0.041748047,-0.9866333,0.15203857,-0.125,-0.921875,0.1875,449
420,1696251453089,-0.043701172,-0.9819946,0.13616943,-0.421875,0.203125,-0.421875,450
421,1696251453129,-0.02368164,-0.97442627,0.15374756,-0.171875,1.3125,-0.734375,451
422,1696251453169,-0.03125,-0.9944458,0.15692139,-1.359375,-0.625,0.78125,452
423,1696251453209,-0.020751953,-0.98809814,0.16156006,-0.765625,-1.953125,0.734375,453
424,1696251453249,-0.016845703,-0.9795532,0.13934326,1.734375,-2.234375,0.09375,454
425,1696251453289,-0.014892578,-0.9758911,0.14300537,0.59375,-2.25,1.703125,455
426,1696251453329,-0.035888672,-0.98760986,0.15594482,0.453125,-2.109375,1.734375,456
427,1696251453369,-0.05419922,-0.9937134,0.15325928,-0.859375,-0.625,1.15625,457
428,1696251453409,-0.033935547,-0.98321533,0.15179443,-0.71875,0.359375,0.46875,458
429,1696251453449,-0.0061035156,-0.98443604,0.15496826,-0.59375,-0.265625,1.046875,459
430,1696251453489,-0.01171875,-0.9829712,0.15447998,-1.734375,-1.0625,0.90625,460
431,1696251453529,-0.034423828,-0.97491455,0.15203857,-0.890625,-1.015625,0.234375,461
432,1696251453569,-0.030761719,-0.9937134,0.16522217,-0.515625,-0.1875,0.3125,462
433,1696251453609,-0.03100586,-0.98760986,0.16571045,-1.5625,-2.4375,0.125,463
434,1696251453649,-0.028076172,-0.9500122,0.18011475,-0.703125,0.921875,-0.8125,464
435,1696251453689,-0.03881836,-1.0090942,0.15814209,-1.328125,-1.453125,-0.078125,465
436,1696251453729,-0.01953125,-0.97857666,0.16864014,-0.828125,-0.671875,0.09375,466
437,1696251453769,-0.030517578,-0.9685669,0.15814209,-1.0,-0.625,-0.78125,467
438,1696251453809,-0.025878906,-0.9807739,0.1630249,0.546875,0.25,-0.1875,468
439,1696251453849,-0.02319336,-0.986145,0.16375732,-0.109375,-0.59375,0.09375,469
440,1696251453889,-0.040527344,-0.9902954,0.16522217,-0.140625,-0.84375,-0.375,470
441,1696251453929,-0.036621094,-0.97613525,0.1618042,0.0,0.203125,-0.265625,471
442,1696251453969,-0.017333984,-0.9788208,0.16400146,0.0,0.203125,0.203125,472
443,1696251454009,-0.0126953125,-0.97613525,0.16741943,-0.4375,-0.5,0.109375,473
444,1696251454049,-0.040283203,-0.9829712,0.17156982,-0.171875,-0.875,0.453125,474
445,1696251454089,-0.03955078,-0.9788208,0.17132568,-0.9375,-0.609375,-0.15625,475
446,1696251454129,-0.049072266,-0.97491455,0.15814209,-2.1875,-0.171875,-0.671875,476
447,1696251454169,-0.030029297,-0.9812622,0.17547607,-0.796875,2.3125,-1.140625,477
448,1696251454209,-0.0043945312,-0.9741821,0.17669678,-0.796875,1.21875,-0.171875,478
449,1696251454249,-0.023925781,-0.98101807,0.1671753,-0.890625,-1.234375,0.25,479
450,1696251454289,-0.046875,-0.9807739,0.19256592,0.171875,-0.203125,0.46875,480
451,1696251454329,-0.037841797,-0.9834595,0.17156982,-0.125,-1.65625,-0.09375,481
452,1696251454369,-0.033447266,-0.9661255,0.17840576,0.15625,-1.328125,0.703125,482
453,1696251454409,-0.030029297,-0.9788208,0.1720581,-0.25,-0.84375,0.640625,483
454,1696251454449,-0.03955078,-0.99053955,0.17376709,-0.15625,-1.3125,0.046875,484
455,1696251454489,-0.039794922,-0.9758911,0.16888428,-0.28125,-0.828125,0.171875,485
456,1696251454529,-0.033935547,-0.97491455,0.18060303,0.875,0.375,-0.109375,486
457,1696251454569,-0.036865234,-0.97613525,0.17913818,-0.53125,-0.03125,-0.078125,487
458,1696251454609,-0.035888672,-1.003479,0.15985107,-0.34375,-0.03125,-0.59375,488
459,1696251454649,-0.043945312,-0.9800415,0.17547607,0.234375,1.265625,0.3125,489
460,1696251454689,-0.02758789,-0.96099854,0.17474365,-1.015625,-0.375,-0.359375,490
461,1696251454729,-0.028076172,-0.9824829,0.16619873,0.046875,0.765625,-0.140625,491
462,1696251454769,-0.036865234,-0.9846802,0.16644287,-0.953125,-1.046875,0.84375,492
463,1696251454809,-0.036132812,-0.98687744,0.18450928,-0.09375,0.203125,-0.140625,493
464,1696251454849,-0.043945312,-0.97491455,0.1696167,-1.171875,-0.515625,0.296875,494
465,1696251454889,-0.026855469,-0.96417236,0.17547607,-0.359375,-0.0625,0.046875,495
466,1696251454929,-0.022460938,-0.9829712,0.17816162,-0.703125,-0.46875,-0.09375,496
467,1696251454969,-0.038330078,-0.98272705,0.17718506,-0.046875,-0.828125,0.5,497
468,1696251455009,-0.041015625,-0.9788208,0.17449951,-1.171875,-0.640625,-0.53125,498
469,1696251455049,-0.033935547,-0.986145,0.17913818,-0.359375,0.03125,-0.1875,499
470,1696251455089,-0.024658203,-0.9793091,0.1798706,-1.171875,-0.796875,0.453125,500
471,1696251455129,-0.03100586,-0.99102783,0.16668701,-2.40625,-1.3125,0.8125,501
472,1696251455169,-0.032958984,-1.0005493,0.20135498,-0.96875,-0.25,0.0625,502
473,1696251455209,-0.025878906,-0.9463501,0.18914795,-2.046875,0.546875,0.078125,503
474,1696251455249,-0.037841797,-0.9729614,0.1708374,-1.734375,0.75,0.703125,504
475,1696251455289,-0.036621094,-1.0059204,0.21014404,1.515625,-2.1875,1.125,505
476,1696251455329,-0.068359375,-0.987854,0.21917725,2.390625,-5.03125,1.359375,506
477,1696251455369,-0.05908203,-0.9644165,0.18060303,0.75,-1.03125,1.328125,507
478,1696251455409,-0.04638672,-0.9734497,0.184021,-0.625,-0.953125,3.515625,508
479,1696251455449,-0.02368164,-0.97857666,0.16351318,4.546875,0.703125,2.484375,509
480,1696251455489,0.007080078,-1.0054321,0.184021,1.203125,-2.578125,1.109375,510
481,1696251455529,0.0034179688,-0.9727173,0.19110107,2.109375,1.578125,0.71875,511
482,1696251455569,-0.02319336,-0.97052,0.2074585,-1.96875,-1.28125,0.484375,512
483,1696251455609,-0.041503906,-0.9990845,0.17010498,2.890625,-2.53125,1.546875,513
484,1696251455649,-0.0390625,-0.9780884,0.15887451,0.09375,-5.15625,-0.09375,514
485,1696251455689,0.0024414062,-0.9356079,0.12957764,5.53125,-3.140625,0.40625,515
486,1696251455729,-0.004638672,-0.9859009,0.15350342,5.15625,-1.9375,1.265625,516
487,1696251455769,-0.024658203,-0.97735596,0.15081787,3.390625,-4.59375,0.453125,517
488,1696251455809,-0.053955078,-0.95562744,0.1564331,-0.96875,-2.28125,0.015625,518
489,1696251455849,-0.041992188,-0.99884033,0.15325928,-0.78125,0.421875,0.5,519
490,1696251455889,-0.015380859,-0.98638916,0.16986084,-0.296875,-0.5,-0.046875,520
491,1696251455929,0.0078125,-0.99053955,0.17156982,-3.46875,-0.296875,-1.109375,521
492,1696251455969,-0.018554688,-0.9771118,0.16082764,-0.34375,-0.421875,-0.203125,522
493,1696251456009,-0.034179688,-0.98638916,0.16522217,0.140625,0.6875,0.296875,523
494,1696251456049,-0.025634766,-0.97076416,0.16571045,-2.625,-1.65625,-0.546875,524
495,1696251456089,-0.010498047,-0.99053955,0.17181396,1.03125,2.25,0.015625,525
496,1696251456129,-0.033935547,-0.9873657,0.17669678,-1.15625,-1.796875,0.328125,526
497,1696251456169,-0.03515625,-0.972229,0.1564331,0.203125,-0.6875,-0.390625,527
498,1696251456209,-0.029785156,-0.9920044,0.17132568,0.359375,1.015625,0.171875,528
499,1696251456249,-0.020263672,-0.9800415,0.16375732,-0.6875,-0.015625,0.015625,529
500,1696251456289,-0.013671875,-0.97003174,0.1708374,-0.984375,0.625,-0.53125,530
501,1696251456329,-0.02734375,-0.9898071,0.16864014,-0.140625,-0.53125,0.09375,531
502,1696251456369,-0.027832031,-0.98272705,0.18353271,-0.1875,-0.296875,0.453125,532
503,1696251456409,-0.036621094,-0.9717407,0.17254639,0.203125,-0.046875,-0.265625,533
504,1696251456449,-0.020019531,-0.9783325,0.16741943,0.4375,0.25,0.015625,534
505,1696251456489,-0.030761719,-0.98809814,0.1720581,-0.328125,-1.125,0.40625,535
506,1696251456529,-0.025634766,-0.9783325,0.16619873,0.375,-0.125,-0.046875,536
507,1696251456569,-0.018554688,-0.97784424,0.16473389,0.515625,0.078125,0.53125,537
508,1696251456609,-0.031982422,-0.9805298,0.1671753,-0.765625,-1.734375,0.671875,538
509,1696251456649,-0.02758789,-0.986145,0.17254639,-0.03125,-0.5,-0.203125,539
510,1696251456689,-0.022460938,-0.9866333,0.17059326,0.671875,0.828125,0.03125,540
511,1696251456729,-0.028076172,-0.98272705,0.17181396,0.921875,0.859375,0.359375,541
512,1696251456769,-0.024658203,-0.9824829,0.16571045,-0.5625,0.078125,0.03125,542
513,1696251456809,-0.022949219,-0.9788208,0.15814209,0.96875,0.25,0.0,543
514,1696251456849,-0.029541016,-0.9624634,0.17889404,1.28125,0.578125,-0.03125,544
515,1696251456889,-0.036132812,-1.000061,0.15838623,-1.1875,-0.984375,0.015625,545
516,1696251456929,-0.024658203,-0.9795532,0.16644287,0.640625,0.296875,-0.046875,546
517,1696251456969,-0.02734375,-0.97784424,0.16546631,-0.734375,-0.125,-0.375,547
518,1696251457009,-0.026123047,-0.9783325,0.15570068,-1.03125,0.21875,-0.734375,548
519,1696251457049,-0.026855469,-1.0027466,0.16766357,0.453125,0.640625,-0.203125,549
520,1696251457089,-0.04272461,-0.973938,0.15765381,1.0,-0.890625,0.03125,550
521,1696251457129,-0.027832031,-0.9800415,0.15887451,-0.515625,-0.171875,0.140625,551
522,1696251457169,-0.014892578,-0.97784424,0.16619873,-0.4375,1.3125,-0.125,552
523,1696251457209,-0.023925781,-0.9924927,0.16253662,-1.34375,-1.125,0.53125,553
524,1696251457249,-0.038330078,-0.9800415,0.15960693,0.078125,-0.890625,0.125,554
525,1696251457289,-0.033447266,-0.9788208,0.17303467,0.0625,-0.140625,0.109375,555
526,1696251457329,-0.025878906,-0.98443604,0.1720581,-0.171875,0.125,0.328125,556
527,1696251457369,-0.032226562,-0.9776001,0.17547607,-0.21875,-0.65625,-0.421875,557
528,1696251457409,-0.032958984,-0.9783325,0.16668701,-0.546875,-1.03125,0.5,558
529,1696251457449,-0.024902344,-0.97784424,0.16571045,-0.5,0.1875,0.109375,559
530,1696251457489,-0.041259766,-0.98443604,0.17840576,0.0625,-0.03125,0.15625,560
531,1696251457529,-0.031982422,-0.97857666,0.16400146,-0.265625,-0.3125,-0.1875,561
532,1696251457569,-0.021240234,-0.9751587,0.16351318,0.734375,-0.4375,0.296875,562
533,1696251457609,-0.033691406,-0.9751587,0.17254639,-0.40625,-1.8125,0.578125,563
534,1696251457649,-0.039794922,-0.99542236,0.16546631,-0.625,-1.078125,0.5625,564
535,1696251457689,-0.040039062,-0.98150635,0.17327881,-0.15625,0.5625,0.640625,565
536,1696251457729,-0.026611328,-0.9824829,0.17132568,-0.046875,0.203125,0.578125,566
537,1696251457769,-0.008056641,-0.9741821,0.17132568,0.46875,-1.296875,0.625,567
538,1696251457809,-0.030029297,-1.0032349,0.17547607,-0.46875,-1.28125,1.4375,568
539,1696251457849,-0.043945312,-0.9692993,0.17718506,0.640625,-1.34375,0.453125,569
540,1696251457889,-0.040039062,-0.9710083,0.16351318,-0.984375,-1.234375,0.359375,570
541,1696251457929,-0.010498047,-0.97052,0.17474365,0.671875,0.796875,0.03125,571
542,1696251457969,-0.021728516,-0.9885864,0.17596436,-0.796875,-1.203125,0.40625,572
543,1696251458009,-0.03466797,-0.9834595,0.16864014,-0.609375,-0.671875,0.703125,573
544,1696251458049,-0.016601562,-0.97052,0.17156982,-0.421875,0.25,0.359375,574
545,1696251458089,-0.019042969,-0.9841919,0.17962646,0.0625,-0.6875,0.640625,575
546,1696251458129,-0.029541016,-0.98809814,0.1749878,-0.3125,-1.84375,0.859375,576
547,1696251458169,-0.039794922,-0.9829712,0.16497803,-1.15625,-0.453125,0.0625,577
548,1696251458209,-0.02758789,-0.97613525,0.17816162,0.359375,0.984375,-0.140625,578
549,1696251458249,-0.020507812,-0.989563,0.17425537,-0.671875,-0.21875,0.125,579
550,1696251458289,-0.01928711,-0.9685669,0.1749878,-0.640625,-0.15625,-0.140625,580
551,1696251458329,-0.032226562,-0.9866333,0.1762085,-0.28125,-0.328125,0.078125,581
552,1696251458369,-0.022705078,-0.98321533,0.17376709,-0.5,-0.109375,-0.046875,582
553,1696251458409,-0.020996094,-0.9783325,0.17694092,-0.65625,0.140625,-0.1875,583
554,1696251458449,-0.012451172,-0.9817505,0.16766357,-0.125,-0.125,-0.15625,584
555,1696251458489,-0.02734375,-0.9834595,0.17816162,-0.859375,-0.25,0.015625,585
556,1696251458529,-0.021240234,-0.99053955,0.17010498,-1.5,-0.5625,-0.578125,586
557,1696251458569,-0.010498047,-0.96539307,0.18450928,-4.484375,-0.90625,-0.796875,587
558,1696251458609,-0.021240234,-0.98101807,0.19744873,-3.84375,-0.875,0.8125,588
559,1696251458649,-0.048828125,-1.0042114,0.20281982,0.875,-3.9375,2.0625,589
560,1696251458689,-0.044433594,-1.010315,0.19232178,2.078125,0.34375,0.5,590
561,1696251458729,-0.020263672,-0.94415283,0.16033936,2.640625,0.3125,0.953125,591
562,1696251458769,-0.012939453,-0.99542236,0.17181396,9.71875,2.109375,2.953125,592
563,1696251458809,-0.011230469,-0.9854126,0.15057373,6.484375,-2.875,2.0,593
564,1696251458849,-0.029052734,-0.9495239,0.14959717,6.453125,-3.015625,1.609375,594
565,1696251458889,-0.0234375,-0.98687744,0.14642334,4.84375,-0.03125,1.765625,595
566,1696251458929,-0.007080078,-0.98101807,0.1437378,2.53125,-0.640625,-0.390625,596
567,1696251458969,-0.03881836,-0.9729614,0.12347412,0.765625,-0.484375,0.1875,597
568,1696251459009,-0.026611328,-0.97613525,0.1359253,1.203125,0.0,0.359375,598
569,1696251459049,-0.013183594,-0.98687744,0.14544678,-1.125,-2.046875,1.84375,599
570,1696251459089,0.010498047,-0.99713135,0.15228271,-0.671875,-2.140625,0.609375,600
571,1696251459129,-0.0026855469,-1.0020142,0.15203857,-0.53125,-1.734375,-0.65625,601
572,1696251459169,-0.037841797,-0.9768677,0.14471436,-2.03125,-1.453125,-0.40625,602
573,1696251459209,-0.027832031,-0.98443604,0.15057373,-0.796875,0.28125,-0.1875,603
574,1696251459249,-0.013671875,-0.98760986,0.15252686,-0.796875,0.359375,-0.578125,604
575,1696251459289,-0.014160156,-0.9771118,0.15472412,-0.796875,-0.390625,-0.296875,605
576,1696251459329,-0.020996094,-0.9795532,0.15570068,-2.28125,-0.1875,0.078125,606
577,1696251459369,-0.016357422,-0.9824829,0.14984131,-1.9375,-1.125,-0.390625,607
578,1696251459409,-0.018310547,-0.9890747,0.16156006,-1.671875,-0.984375,0.03125,608
579,1696251459449,-0.021728516,-0.9817505,0.1552124,-1.515625,-1.296875,0.171875,609
580,1696251459489,-0.020019531,-0.97125244,0.17401123,-0.4375,-0.25,-0.328125,610
581,1696251459529,-0.037353516,-1.0066528,0.15765381,-0.34375,-1.25,1.234375,611
582,1696251459569,-0.0031738281,-0.97198486,0.16448975,-0.4375,-1.03125,0.515625,612
583,1696251459609,-0.03149414,-0.96710205,0.16815186,-0.5625,-0.21875,-0.375,613
584,1696251459649,-0.026855469,-0.9800415,0.16619873,0.578125,0.625,-0.515625,614
585,1696251459689,-0.013427734,-0.9717407,0.16937256,-0.5625,0.453125,-0.421875,615
586,1696251459729,-0.021240234,-0.99102783,0.16229248,0.734375,-0.375,-0.921875,616
587,1696251459769,-0.0234375,-0.989563,0.15618896,-0.90625,-0.875,-0.671875,617
588,1696251459809,-0.032226562,-0.97052,0.15203857,0.078125,1.015625,-0.078125,618
589,1696251459849,-0.030029297,-1.0046997,0.1630249,0.375,2.0625,0.625,619
590,1696251459889,-0.013916016,-0.97052,0.16131592,0.140625,0.140625,-0.546875,620
591,1696251459929,-0.02709961,-0.9680786,0.15716553,-0.078125,0.265625,-0.890625,621
592,1696251459969,-0.022216797,-0.99468994,0.15863037,-0.265625,1.15625,-0.703125,622
593,1696251460009,-0.018554688,-0.9849243,0.168396,-0.0625,0.171875,0.46875,623
594,1696251460049,-0.030761719,-0.98321533,0.16448975,-1.03125,-1.34375,-0.015625,624
595,1696251460089,-0.033691406,-0.9746704,0.15863037,-0.328125,-0.71875,-0.03125,625
596,1696251460129,-0.03100586,-0.98443604,0.16326904,0.234375,-0.5625,0.203125,626
597,1696251460169,-0.03857422,-0.9937134,0.16082764,-0.6875,-0.75,-0.109375,627
598,1696251460209,-0.037841797,-0.9776001,0.15765381,-0.515625,0.078125,-0.046875,628
599,1696251460249,-0.030761719,-0.9824829,0.16229248,-0.125,0.8125,-0.484375,629
600,1696251460289,-0.022216797,-0.98223877,0.1618042,-0.609375,-0.078125,-0.578125,630
601,1696251460329,-0.02709961,-0.97735596,0.1618042,0.765625,0.28125,-0.234375,631
602,1696251460369,-0.028808594,-0.98516846,0.168396,1.171875,-0.203125,0.125,632
603,1696251460409,-0.025146484,-0.98223877,0.15863037,-0.296875,-0.8125,0.5,633
604,1696251460449,-0.0234375,-0.9800415,0.1749878,0.765625,-0.375,0.390625,634
605,1696251460489,-0.029541016,-0.9854126,0.15203857,-0.40625,-0.828125,0.5,635
606,1696251460529,-0.026855469,-0.9817505,0.15447998,0.84375,-0.75,0.765625,636
607,1696251460569,-0.028320312,-0.9788208,0.16375732,1.109375,0.0625,1.078125,637
608,1696251460609,-0.044189453,-0.9859009,0.14349365,0.890625,-0.34375,1.21875,638
609,1696251460649,-0.048828125,-0.98883057,0.15472412,0.25,-0.3125,1.8125,639
610,1696251460689,-0.010986328,-0.97540283,0.1605835,0.046875,0.953125,1.140625,640
611,1696251460729,-0.0012207031,-0.9866333,0.16571045,-0.421875,-0.109375,0.234375,641
612,1696251460769,-0.014160156,-0.9841919,0.16253662,-0.671875,-0.796875,0.125,642
613,1696251460809,-0.041503906,-0.98223877,0.15716553,-0.828125,-0.421875,-0.421875,643
614,1696251460849,-0.034423828,-0.98443604,0.15838623,0.078125,0.6875,-0.84375,644
615,1696251460889,-0.026855469,-0.9758911,0.15057373,-0.609375,-0.171875,-0.40625,645
616,1696251460929,-0.025390625,-0.99102783,0.16375732,-1.15625,-0.5,0.25,646
617,1696251460969,-0.025390625,-0.991272,0.16107178,-0.9375,-0.234375,0.09375,647
618,1696251461009,-0.022216797,-0.97540283,0.16229248,-0.78125,-0.65625,-0.296875,648
619,1696251461049,-0.028320312,-0.98028564,0.16082764,-0.703125,-0.09375,-0.1875,649
620,1696251461089,-0.024169922,-0.99468994,0.16082764,-0.390625,-0.421875,0.265625,650
621,1696251461129,-0.01953125,-0.9751587,0.17059326,0.203125,-0.078125,-0.234375,651
622,1696251461169,-0.03564453,-0.98883057,0.15423584,-0.5625,-1.40625,0.328125,652
623,1696251461209,-0.01977539,-0.9805298,0.15887451,-0.59375,-0.09375,0.21875,653
624,1696251461249,-0.032226562,-0.9939575,0.17181396,0.109375,-0.078125,0.40625,654
625,1696251461289,-0.02709961,-0.9771118,0.16766357,-0.21875,0.109375,-0.3125,655
626,1696251461329,-0.029052734,-0.97979736,0.16033936,0.046875,-0.53125,-0.15625,656
627,1696251461369,-0.028076172,-0.9866333,0.16326904,0.125,-0.125,0.109375,657
628,1696251461409,-0.028808594,-0.97613525,0.16864014,-0.125,0.6875,-0.3125,658
629,1696251461449,-0.029541016,-0.9932251,0.15911865,-1.265625,-0.625,0.328125,659
630,1696251461489,-0.025390625,-0.9807739,0.17034912,0.578125,-0.203125,0.203125,660
631,1696251461529,-0.034423828,-0.97979736,0.16278076,-1.0625,-1.8125,0.140625,661
632,1696251461569,-0.036132812,-0.97979736,0.16595459,-0.15625,0.359375,-0.0625,662
633,1696251461609,-0.032714844,-0.9883423,0.17425537,-0.34375,0.125,-0.109375,663
634,1696251461649,-0.018554688,-0.9795532,0.16473389,0.046875,0.078125,-0.1875,664
635,1696251461689,-0.02709961,-0.9746704,0.17059326,-0.5,-0.40625,0.453125,665
636,1696251461729,-0.03955078,-0.9981079,0.1630249,-0.5,-1.1875,0.546875,666
637,1696251461769,-0.025146484,-0.97540283,0.17254639,-0.109375,-0.734375,0.234375,667
638,1696251461809,-0.032714844,-0.972229,0.16522217,-0.671875,-0.78125,0.296875,668
639,1696251461849,-0.025390625,-0.97613525,0.1618042,-1.34375,-1.078125,0.609375,669
640,1696251461889,-0.030761719,-0.9841919,0.1720581,0.6875,0.34375,0.671875,670
641,1696251461929,-0.03491211,-0.9768677,0.16644287,-0.328125,-0.921875,0.28125,671
642,1696251461969,-0.038085938,-0.9883423,0.16912842,-0.0625,0.25,0.546875,672
643,1696251462009,-0.024414062,-0.9783325,0.17669678,0.0625,-0.125,0.34375,673
644,1696251462049,-0.02758789,-0.98101807,0.17108154,-1.328125,-0.375,-0.171875,674
645,1696251462089,-0.033691406,-0.9800415,0.17352295,0.8125,0.859375,-0.328125,675
646,1696251462129,-0.028808594,-0.98028564,0.17425537,0.25,1.421875,-0.703125,676
647,1696251462169,-0.030273438,-0.99591064,0.16619873,-0.984375,-1.140625,0.546875,677
648,1696251462209,-0.020996094,-0.95880127,0.18353271,-0.03125,1.75,-0.375,678
649,1696251462249,-0.03125,-0.9817505,0.1708374,-0.625,-0.65625,0.109375,679
650,1696251462289,-0.015625,-0.9788208,0.16912842,-0.796875,0.015625,0.5,680
651,1696251462329,-0.022460938,-0.98809814,0.1774292,-0.453125,-1.1875,0.5,681
652,1696251462369,-0.02758789,-0.9819946,0.18157959,0.578125,-1.703125,0.1875,682
653,1696251462409,-0.04345703,-0.96759033,0.1618042,-1.15625,-1.46875,1.1875,683
654,1696251462449,-0.025634766,-0.9763794,0.1774292,-0.296875,0.125,0.125,684
655,1696251462489,-0.033203125,-1.0020142,0.18499756,0.0625,-0.8125,0.65625,685
656,1696251462529,-0.02758789,-0.9702759,0.17376709,-0.859375,-1.8125,0.203125,686
657,1696251462569,-0.03930664,-0.9663696,0.16253662,-1.875,-0.984375,-0.125,687
658,1696251462609,-0.029052734,-0.9883423,0.18011475,0.015625,0.59375,0.203125,688
659,1696251462649,-0.025634766,-0.98809814,0.18988037,-1.03125,-0.578125,0.203125,689
660,1696251462689,-0.02758789,-0.97125244,0.18011475,-0.3125,-0.953125,-0.296875,690
661,1696251462729,-0.030273438,-0.9768677,0.18499756,-0.421875,-0.09375,0.53125,691
662,1696251462769,-0.03540039,-0.9841919,0.18109131,-1.34375,-1.0,0.359375,692
663,1696251462809,-0.030273438,-0.97369385,0.18328857,-2.078125,-1.59375,-0.765625,693
664,1696251462849,-0.029541016,-0.97052,0.1864624,-0.765625,-0.140625,-0.046875,694
665,1696251462889,-0.024902344,-0.98516846,0.1918335,0.203125,1.0625,0.15625,695
666,1696251462929,-0.032714844,-0.99591064,0.18719482,0.453125,-0.484375,0.21875,696
667,1696251462969,-0.034179688,-0.9631958,0.18743896,-0.140625,-0.734375,0.28125,697
668,1696251463009,-0.029052734,-0.9788208,0.18792725,-0.203125,-1.21875,-0.046875,698
669,1696251463049,-0.028320312,-0.9780884,0.19744873,-2.046875,-0.703125,-0.53125,699
670,1696251463089,-0.033935547,-0.9829712,0.17791748,-3.828125,-2.1875,-0.71875,700
671,1696251463129,-0.029541016,-0.99005127,0.20550537,-7.3125,-1.34375,-1.09375,701
672,1696251463169,-0.02709961,-0.9446411,0.2538452,-12.59375,-2.375,-1.53125,702
673,1696251463209,-0.059570312,-0.97857666,0.21356201,0.796875,-0.4375,0.703125,703
674,1696251463249,-0.055664062,-1.0261841,0.25531006,3.84375,-0.703125,2.25,704
675,1696251463289,-0.0390625,-0.97735596,0.184021,5.6875,-2.5,2.5,705
676,1696251463329,-0.0087890625,-0.94732666,0.18841553,13.171875,-2.078125,1.796875,706
677,1696251463369,-0.020751953,-0.960022,0.18060303,9.59375,-2.125,2.15625,707
678,1696251463409,-0.043945312,-0.9968872,0.12689209,8.3125,-5.515625,1.859375,708
679,1696251463449,-0.03491211,-0.97979736,0.16546631,5.25,-0.390625,1.09375,709
680,1696251463489,-0.041992188,-0.9639282,0.15081787,3.3125,2.28125,1.265625,710
681,1696251463529,-0.01953125,-0.97857666,0.13201904,0.609375,0.609375,1.875,711
682,1696251463569,-0.01586914,-0.9949341,0.16766357,0.921875,0.84375,1.3125,712
683,1696251463609,-0.0107421875,-0.9834595,0.15911865,0.109375,-0.5625,0.609375,713
684,1696251463649,-0.020263672,-0.97906494,0.14935303,-2.625,-0.9375,0.125,714
685,1696251463689,-0.017578125,-0.9885864,0.15814209,1.375,1.84375,0.125,715
686,1696251463729,-0.008056641,-0.98883057,0.15740967,-0.171875,-0.375,0.359375,716
687,1696251463769,-0.038085938,-0.97662354,0.15618896,-1.375,-2.125,0.03125,717
688,1696251463809,-0.028320312,-0.9776001,0.15667725,-0.421875,1.703125,-0.703125,718
689,1696251463849,-0.018554688,-0.99224854,0.1486206,-0.265625,0.765625,-0.125,719
690,1696251463889,-0.024169922,-0.9846802,0.15496826,-1.296875,-0.4375,0.125,720
691,1696251463929,-0.030517578,-0.98321533,0.15667725,-0.75,-0.125,-0.640625,721
692,1696251463969,-0.017089844,-0.9783325,0.1593628,-0.109375,0.546875,-0.765625,722
693,1696251464009,-0.004638672,-0.97491455,0.1593628,0.015625,0.546875,-0.03125,723
694,1696251464049,-0.023925781,-0.9885864,0.16033936,0.234375,-1.390625,0.296875,724
695,1696251464089,-0.041015625,-1.0059204,0.15887451,-0.5,-2.34375,0.671875,725
696,1696251464129,-0.025146484,-0.96832275,0.15814209,0.625,-0.8125,-0.328125,726
697,1696251464169,-0.013427734,-0.9800415,0.16131592,-1.90625,-0.53125,-0.09375,727
698,1696251464209,-0.022949219,-0.9846802,0.16644287,-1.453125,-1.65625,0.34375,728
699,1696251464249,-0.024902344,-0.98638916,0.16986084,-1.25,-0.9375,-0.453125,729
700,1696251464289,-0.03930664,-0.9800415,0.17279053,-0.375,0.328125,-0.625,730
701,1696251464329,-0.029052734,-0.97857666,0.17010498,0.078125,0.9375,0.59375,731
702,1696251464369,-0.016357422,-0.9771118,0.16522217,-0.15625,-0.515625,0.171875,732
703,1696251464409,-0.032958984,-0.98687744,0.1828003,0.140625,-0.5625,0.328125,733
704,1696251464449,-0.023925781,-0.98516846,0.16644287,-0.734375,-0.609375,0.390625,734
705,1696251464489,-0.029052734,-0.97320557,0.15618896,-0.546875,-0.046875,-0.03125,735
706,1696251464529,-0.024414062,-0.9859009,0.17376709,0.203125,-0.046875,0.03125,736
707,1696251464569,-0.020751953,-0.9866333,0.16546631,-0.703125,-0.921875,0.125,737
708,1696251464609,-0.02758789,-0.98321533,0.17156982,-0.734375,0.03125,-0.109375,738
709,1696251464649,-0.03515625,-0.9771118,0.17303467,0.265625,-0.171875,0.0625,739
710,1696251464689,-0.028076172,-0.97491455,0.16400146,-0.6875,-0.484375,0.15625,740
711,1696251464729,-0.02319336,-0.98760986,0.17572021,0.390625,0.234375,0.171875,741
712,1696251464769,-0.02319336,-0.9854126,0.17376709,1.234375,0.03125,-0.53125,742
713,1696251464809,-0.03881836,-0.97613525,0.16131592,-0.609375,-2.046875,0.6875,743
714,1696251464849,-0.031982422,-0.9859009,0.16644287,-0.859375,0.46875,0.21875,744
715,1696251464889,-0.015625,-0.9807739,0.17010498,-0.40625,-0.015625,-0.203125,745
716,1696251464929,-0.03149414,-0.98223877,0.16595459,-0.453125,-1.359375,0.28125,746
717,1696251464969,-0.033935547,-0.97979736,0.16766357,-0.3125,-0.046875,0.078125,747
718,1696251465009,-0.02758789,-0.98443604,0.17279053,0.40625,0.71875,-0.359375,748
719,1696251465049,-0.022705078,-0.9854126,0.17816162,-0.265625,0.03125,-0.40625,749
720,1696251465089,-0.03540039,-0.9729614,0.15716553,-1.078125,-0.25,-0.015625,750
721,1696251465129,-0.03466797,-0.9854126,0.1762085,-0.09375,1.109375,0.234375,751
722,1696251465169,-0.025146484,-1.0015259,0.1762085,0.21875,-1.484375,0.703125,752
723,1696251465209,-0.031982422,-0.97003174,0.16888428,-0.375,-0.515625,-0.078125,753
724,1696251465249,-0.033447266,-0.96832275,0.1720581,0.015625,0.1875,-0.34375,754
725,1696251465289,-0.025634766,-0.9973755,0.1696167,-0.90625,-0.328125,0.390625,755
726,1696251465329,-0.02758789,-0.9846802,0.16912842,-0.25,0.203125,-0.28125,756
727,1696251465369,-0.025878906,-0.9714966,0.17376709,0.3125,-0.34375,-0.078125,757
728,1696251465409,-0.021484375,-0.97198486,0.17767334,-0.296875,-0.203125,1.125,758
729,1696251465449,-0.029296875,-0.9793091,0.18157959,-0.296875,-0.921875,0.0625,759
730,1696251465489,-0.045898438,-0.987854,0.18084717,-0.25,-0.5625,0.1875,760
731,1696251465529,-0.02709961,-0.97735596,0.16595459,0.09375,0.234375,0.359375,761
732,1696251465569,-0.022705078,-0.9795532,0.1671753,-0.359375,-0.359375,-0.296875,762
733,1696251465609,-0.024902344,-0.9824829,0.1720581,-0.609375,0.21875,0.03125,763
734,1696251465649,-0.028076172,-0.97613525,0.17791748,-0.03125,-0.421875,0.453125,764
735,1696251465689,-0.033203125,-0.9834595,0.18157959,-0.703125,0.3125,-0.03125,765
736,1696251465729,-0.01977539,-0.97662354,0.18328857,-0.3125,-0.09375,-0.40625,766
737,1696251465769,-0.033203125,-0.9758911,0.17303467,-0.28125,-1.046875,0.4375,767
738,1696251465809,-0.040283203,-0.98394775,0.18182373,-0.5,-0.703125,0.4375,768
739,1696251465849,-0.028564453,-0.9854126,0.17401123,-0.171875,-0.5,0.15625,769
740,1696251465889,-0.036865234,-0.9714966,0.17840576,-0.625,-0.8125,0.296875,770
741,1696251465929,-0.030029297,-0.97857666,0.18450928,0.046875,-0.09375,0.234375,771
742,1696251465969,-0.022216797,-0.9841919,0.17254639,0.265625,-0.96875,0.125,772
743,1696251466009,-0.026367188,-0.9793091,0.17572021,1.5,-0.40625,0.46875,773
744,1696251466049,-0.033691406,-0.9758911,0.17694092,-0.359375,-1.25,0.6875,774
745,1696251466089,-0.037109375,-0.9776001,0.17059326,-0.453125,-0.5,0.140625,775
746,1696251466129,-0.040283203,-0.9898071,0.18328857,-0.390625,0.109375,0.46875,776
747,1696251466169,-0.028320312,-0.9783325,0.17645264,-0.328125,-0.921875,0.484375,777
748,1696251466209,-0.029052734,-0.9776001,0.17474365,-0.5625,-0.375,0.015625,778
749,1696251466249,-0.03149414,-0.9800415,0.18670654,-1.125,-0.046875,0.203125,779
750,1696251466289,-0.037353516,-0.98321533,0.1906128,-0.09375,0.75,-0.15625,780
751,1696251466329,-0.04638672,-0.9849243,0.17962646,-0.8125,0.890625,-0.671875,781
752,1696251466369,-0.03100586,-0.96954346,0.17449951,-0.640625,0.671875,-0.546875,782
753,1696251466409,-0.030273438,-0.98150635,0.17938232,0.15625,1.515625,0.5625,783
754,1696251466449,-0.029541016,-0.98223877,0.19744873,-0.40625,0.328125,-0.296875,784
755,1696251466489,-0.032714844,-0.9812622,0.18084717,-0.078125,0.3125,-0.328125,785
756,1696251466529,-0.028564453,-0.97662354,0.17718506,-0.578125,0.046875,0.171875,786
757,1696251466569,-0.03491211,-0.9776001,0.18695068,-0.171875,0.046875,0.21875,787
758,1696251466609,-0.026367188,-0.9793091,0.18231201,0.453125,-0.390625,0.609375,788
759,1696251466649,-0.024414062,-0.9776001,0.18133545,0.859375,0.125,0.484375,789
