# Sensor type: Respeck
# Activity type: Lying down on left
# Activity subtype: Hyperventilating
# Subject id: s2106809
# Notes: unprocessed
timestamp,accel_x,accel_y,accel_z,gyro_x,gyro_y,gyro_z
1696253739186,-0.45288086,-0.12628174,-0.8596802,-0.078125,-0.5625,0.25
1696253739226,-0.44555664,-0.12994385,-0.85821533,0.0,-0.359375,0.3125
1696253739267,-0.45507812,-0.12896729,-0.8604126,0.15625,-0.4375,0.1875
1696253739308,-0.45141602,-0.13531494,-0.8648071,-0.078125,-0.515625,0.203125
1696253739346,-0.44726562,-0.12945557,-0.8648071,0.015625,-0.421875,0.09375
1696253739387,-0.44726562,-0.12286377,-0.86016846,0.0,-0.421875,0.203125
1696253739426,-0.44677734,-0.1338501,-0.861145,-0.078125,-0.625,0.234375
1696253739466,-0.45117188,-0.12286377,-0.85821533,-0.0625,-0.578125,0.140625
1696253739506,-0.44848633,-0.13482666,-0.86431885,-0.21875,-0.59375,0.171875
1696253739546,-0.45092773,-0.13165283,-0.861145,-0.15625,-0.609375,0.09375
1696253739586,-0.44628906,-0.12628174,-0.85772705,-0.125,-0.515625,0.203125
1696253739626,-0.45092773,-0.13067627,-0.8584595,-0.171875,-0.53125,0.171875
1696253739667,-0.44970703,-0.13311768,-0.86138916,-0.125,-0.4375,0.125
1696253739706,-0.44580078,-0.13092041,-0.8557739,-0.140625,-0.21875,0.15625
1696253739746,-0.4494629,-0.13067627,-0.85772705,-0.453125,-0.53125,0.203125
1696253739786,-0.44995117,-0.13677979,-0.8674927,-0.796875,-0.765625,0.515625
1696253739828,-0.44970703,-0.12994385,-0.86065674,-0.375,-0.21875,0.34375
1696253739866,-0.45214844,-0.13433838,-0.8562622,-0.34375,-0.03125,0.046875
1696253739907,-0.44628906,-0.13604736,-0.85821533,-0.390625,0.0625,0.3125
1696253739946,-0.4543457,-0.13287354,-0.8657837,-0.90625,-0.375,0.34375
1696253739987,-0.45092773,-0.13214111,-0.850647,-0.890625,-0.609375,0.390625
1696253740006,-0.4440918,-0.13580322,-0.86187744,-0.71875,-1.328125,0.171875
1696253740047,-0.44848633,-0.13555908,-0.85894775,-0.953125,-1.375,0.3125
1696253740086,-0.45117188,-0.1338501,-0.8562622,-1.515625,-1.359375,0.328125
1696253740126,-0.45458984,-0.13946533,-0.87042236,-1.828125,-1.296875,0.453125
1696253740166,-0.44921875,-0.13848877,-0.8574829,-2.046875,-1.4375,0.265625
1696253740207,-0.4501953,-0.14776611,-0.8584595,-1.671875,-1.53125,0.296875
1696253740247,-0.43896484,-0.13848877,-0.8567505,-1.453125,-1.765625,0.34375
1696253740286,-0.44018555,-0.14434814,-0.85528564,-1.09375,-1.640625,0.375
1696253740326,-0.43017578,-0.14727783,-0.8399048,-0.765625,-1.65625,0.328125
1696253740386,-0.44140625,-0.14776611,-0.86553955,-1.21875,-1.953125,0.421875
1696253740406,-0.4362793,-0.14703369,-0.8689575,0.03125,-0.90625,0.296875
1696253740447,-0.4465332,-0.14776611,-0.8779907,2.609375,0.46875,0.296875
1696253740486,-0.4189453,-0.1531372,-0.8328247,3.109375,-0.28125,0.40625
1696253740527,-0.41796875,-0.1350708,-0.83721924,1.3125,-0.375,0.09375
1696253740566,-0.44873047,-0.13555908,-0.8779907,0.171875,0.03125,0.09375
1696253740606,-0.453125,-0.14068604,-0.88165283,-0.296875,-0.265625,0.203125
1696253740647,-0.44262695,-0.13775635,-0.87579346,-0.6875,-0.5,0.28125
1696253740707,-0.43432617,-0.13946533,-0.86187744,0.3125,-0.671875,0.140625
1696253740727,-0.4255371,-0.1416626,-0.85894775,0.421875,-0.0625,-0.015625
1696253740767,-0.43041992,-0.14434814,-0.85601807,0.03125,-0.0625,0.171875
1696253740807,-0.43945312,-0.14459229,-0.8569946,0.015625,-0.015625,0.21875
1696253740847,-0.44726562,-0.13897705,-0.8604126,-0.1875,-0.28125,0.09375
1696253740886,-0.4326172,-0.13677979,-0.85943604,-0.328125,-0.296875,0.328125
1696253740927,-0.43969727,-0.14849854,-0.86920166,-0.46875,-0.25,0.1875
1696253740967,-0.44067383,-0.14068604,-0.8635864,-0.125,0.078125,0.078125
1696253741007,-0.44189453,-0.13800049,-0.86431885,-0.1875,-0.4375,0.25
1696253741047,-0.43847656,-0.1494751,-0.8596802,0.109375,-0.046875,0.046875
1696253741087,-0.43701172,-0.14678955,-0.85723877,0.0,-0.21875,0.140625
1696253741126,-0.44067383,-0.14117432,-0.8491821,0.125,0.484375,0.0625
1696253741167,-0.44702148,-0.13995361,-0.866272,0.34375,0.3125,0.03125
1696253741227,-0.4567871,-0.14312744,-0.87506104,-0.078125,-0.203125,0.078125
1696253741247,-0.44335938,-0.14605713,-0.8635864,-0.015625,-0.546875,0.34375
1696253741307,-0.4333496,-0.14483643,-0.8526001,0.046875,-0.484375,0.171875
1696253741310,-0.43725586,-0.13897705,-0.8496704,0.203125,-0.046875,0.0
1696253741347,-0.44384766,-0.13995361,-0.8657837,-0.125,-0.3125,0.234375
1696253741390,-0.4453125,-0.14190674,-0.848938,-0.3125,-0.6875,0.390625
1696253741425,-0.4423828,-0.14312744,-0.86138916,-0.3125,-0.25,0.265625
1696253741466,-0.44458008,-0.13580322,-0.85528564,-0.8125,-0.625,0.1875
1696253741506,-0.44921875,-0.14434814,-0.88165283,-1.9375,-1.546875,0.34375
1696253741547,-0.44506836,-0.14752197,-0.8579712,-0.4375,-0.796875,0.375
1696253741587,-0.44091797,-0.14581299,-0.84454346,-0.21875,-0.8125,0.109375
1696253741627,-0.43896484,-0.14874268,-0.85650635,-1.015625,-1.125,0.359375
1696253741666,-0.4362793,-0.15020752,-0.8633423,-1.28125,-1.25,0.4375
1696253741707,-0.4411621,-0.14752197,-0.862854,-1.15625,-1.09375,0.359375
1696253741747,-0.4404297,-0.1506958,-0.86798096,-1.40625,-1.3125,0.21875
1696253741787,-0.43847656,-0.14923096,-0.864563,-1.734375,-1.546875,0.40625
1696253741827,-0.4387207,-0.159729,-0.86065674,-0.703125,-1.265625,0.21875
1696253741866,-0.43017578,-0.15948486,-0.86187744,0.03125,-1.0625,0.21875
1696253741907,-0.4284668,-0.15704346,-0.85821533,2.09375,0.609375,-0.015625
1696253741949,-0.4338379,-0.14996338,-0.87091064,3.09375,0.40625,0.203125
1696253741987,-0.42236328,-0.14630127,-0.84161377,2.0625,-0.03125,0.28125
1696253742027,-0.4375,-0.14117432,-0.85406494,0.8125,0.671875,0.234375
1696253742068,-0.45361328,-0.13677979,-0.8843384,0.21875,0.265625,0.140625
1696253742107,-0.4477539,-0.14141846,-0.8711548,-0.125,0.40625,0.140625
1696253742147,-0.4453125,-0.14361572,-0.8609009,0.34375,-0.125,0.15625
1696253742187,-0.43164062,-0.14459229,-0.85406494,0.40625,-0.390625,-0.09375
1696253742227,-0.43676758,-0.14190674,-0.85479736,0.59375,-0.046875,0.015625
1696253742268,-0.4333496,-0.14141846,-0.85894775,0.265625,-0.203125,0.234375
1696253742308,-0.44189453,-0.14239502,-0.85601807,-0.015625,-0.21875,0.25
1696253742347,-0.44360352,-0.1453247,-0.8657837,0.21875,-0.140625,0.171875
1696253742388,-0.44433594,-0.13897705,-0.86602783,0.390625,-0.140625,0.0625
1696253742427,-0.44433594,-0.14337158,-0.864563,0.234375,-0.234375,0.078125
1696253742468,-0.43896484,-0.14337158,-0.85723877,0.15625,-0.296875,0.265625
1696253742507,-0.4411621,-0.14019775,-0.85821533,0.03125,-0.1875,0.25
1696253742548,-0.43896484,-0.13848877,-0.866272,0.09375,-0.375,0.25
1696253742627,-0.44067383,-0.13824463,-0.85479736,0.140625,-0.046875,0.109375
1696253742629,-0.44067383,-0.13970947,-0.8640747,0.03125,-0.203125,0.0625
1696253742652,-0.44702148,-0.13702393,-0.8648071,0.15625,0.0625,-0.046875
1696253742687,-0.44213867,-0.13580322,-0.84576416,0.4375,0.5625,0.0
1696253742747,-0.44262695,-0.13287354,-0.8604126,-0.484375,-0.265625,0.171875
1696253742767,-0.4543457,-0.1404419,-0.87042236,-0.71875,-0.53125,0.328125
1696253742827,-0.4428711,-0.13848877,-0.85162354,-0.015625,-0.359375,0.234375
1696253742847,-0.44873047,-0.14508057,-0.8567505,-0.3125,-0.625,0.078125
1696253742909,-0.4411621,-0.14239502,-0.850647,0.28125,-0.34375,0.15625
1696253742927,-0.44799805,-0.14019775,-0.8621216,0.1875,-0.390625,0.109375
1696253742967,-0.45336914,-0.13995361,-0.8765259,-0.40625,-0.640625,0.28125
1696253743008,-0.44604492,-0.13580322,-0.85894775,-0.09375,-0.453125,0.234375
1696253743048,-0.44726562,-0.14263916,-0.8689575,-0.453125,-1.125,0.359375
1696253743088,-0.44213867,-0.14385986,-0.8526001,-0.4375,-0.765625,0.234375
1696253743128,-0.44799805,-0.14459229,-0.87335205,-0.6875,-1.0,0.203125
1696253743169,-0.4440918,-0.13995361,-0.8496704,-0.875,-1.28125,0.1875
1696253743208,-0.4428711,-0.14385986,-0.86383057,-1.0,-1.5,0.3125
1696253743248,-0.44506836,-0.14141846,-0.8677368,-1.546875,-1.703125,0.609375
1696253743287,-0.4416504,-0.14923096,-0.86798096,-1.265625,-1.734375,0.640625
1696253743369,-0.44213867,-0.14727783,-0.8533325,-1.171875,-1.546875,0.578125
1696253743373,-0.43041992,-0.1453247,-0.84991455,-0.828125,-1.375,0.3125
1696253743429,-0.44213867,-0.15362549,-0.87164307,-0.953125,-1.53125,0.421875
1696253743449,-0.43164062,-0.15484619,-0.8652954,2.734375,0.484375,0.0
1696253743488,-0.42773438,-0.15484619,-0.8933716,3.0,0.15625,0.203125
1696253743548,-0.40795898,-0.14117432,-0.82159424,2.328125,1.1875,0.125
1696253743567,-0.43408203,-0.13604736,-0.8743286,-0.125,0.1875,0.125
1696253743607,-0.45410156,-0.13922119,-0.87823486,0.59375,0.921875,0.140625
1696253743647,-0.45214844,-0.13824463,-0.86309814,-0.21875,0.640625,0.203125
1696253743707,-0.4428711,-0.1453247,-0.8699341,0.140625,-0.125,-0.15625
1696253743727,-0.4399414,-0.14605713,-0.8665161,0.5625,-0.046875,-0.078125
1696253743768,-0.43603516,-0.13653564,-0.84869385,0.171875,-0.078125,0.078125
1696253743807,-0.4296875,-0.13897705,-0.85528564,-0.09375,-0.4375,0.15625
1696253743846,-0.4428711,-0.13824463,-0.8665161,0.125,-0.421875,0.203125
1696253743887,-0.44311523,-0.13922119,-0.8674927,0.0625,-0.078125,0.328125
1696253743927,-0.44921875,-0.1404419,-0.87091064,0.21875,0.015625,0.0
1696253743947,-0.44335938,-0.14117432,-0.8701782,0.0625,-0.265625,-0.0625
1696253743988,-0.43408203,-0.1375122,-0.8584595,0.21875,-0.078125,0.0
1696253744033,-0.4404297,-0.13409424,-0.8555298,0.25,-0.234375,0.015625
1696253744068,-0.44091797,-0.14239502,-0.86016846,-0.140625,-0.828125,0.28125
1696253744110,-0.44702148,-0.13604736,-0.8640747,-0.40625,-0.4375,0.078125
1696253744150,-0.4465332,-0.14141846,-0.86187744,-0.296875,-0.328125,0.078125
1696253744191,-0.45166016,-0.13873291,-0.85357666,0.171875,0.0,-0.046875
1696253744228,-0.44873047,-0.13995361,-0.85821533,-0.21875,-0.546875,0.140625
1696253744267,-0.44506836,-0.13214111,-0.85406494,0.25,-0.5625,0.125
1696253744307,-0.44189453,-0.14117432,-0.8616333,0.171875,-0.25,0.171875
1696253744347,-0.43945312,-0.14483643,-0.85650635,-0.25,-0.59375,0.296875
1696253744387,-0.4411621,-0.13922119,-0.86138916,-0.203125,-0.484375,0.03125
1696253744428,-0.44628906,-0.13970947,-0.8648071,-0.171875,-0.4375,0.171875
1696253744471,-0.44140625,-0.13702393,-0.864563,-0.34375,-0.765625,0.28125
1696253744509,-0.44702148,-0.13970947,-0.8674927,-0.734375,-0.796875,0.3125
1696253744550,-0.44677734,-0.14508057,-0.85650635,-0.546875,-0.828125,0.296875
1696253744589,-0.43774414,-0.1428833,-0.86187744,-0.578125,-0.96875,0.328125
1696253744629,-0.44384766,-0.14312744,-0.85284424,-0.359375,-0.78125,0.296875
1696253744668,-0.4416504,-0.14752197,-0.8633423,-0.921875,-1.15625,0.328125
1696253744709,-0.44213867,-0.14190674,-0.86383057,-0.953125,-1.375,0.328125
1696253744750,-0.4440918,-0.14434814,-0.8633423,-0.921875,-1.34375,0.40625
1696253744792,-0.4350586,-0.1506958,-0.8562622,-0.90625,-1.8125,0.390625
1696253744830,-0.4326172,-0.14849854,-0.85821533,-0.796875,-1.375,0.359375
1696253744867,-0.43798828,-0.14703369,-0.8609009,-0.4375,-1.203125,0.28125
1696253744909,-0.4387207,-0.1519165,-0.8718872,-0.203125,-0.703125,0.28125
1696253744947,-0.4411621,-0.14361572,-0.8670044,1.921875,0.90625,0.109375
1696253744989,-0.4404297,-0.14752197,-0.88067627,1.671875,-0.09375,0.34375
1696253745028,-0.4272461,-0.13848877,-0.83843994,1.71875,0.875,-0.0625
1696253745072,-0.43823242,-0.13116455,-0.8657837,0.1875,0.65625,0.265625
1696253745108,-0.45117188,-0.13433838,-0.86065674,0.171875,0.921875,0.21875
1696253745148,-0.44262695,-0.14019775,-0.862854,-0.78125,-0.0625,0.296875
1696253745189,-0.43896484,-0.13995361,-0.86138916,-0.15625,-0.296875,0.359375
1696253745229,-0.43652344,-0.14874268,-0.85943604,-0.296875,-0.234375,0.015625
1696253745248,-0.43359375,-0.14117432,-0.85601807,-0.375,-0.171875,0.0625
1696253745288,-0.43774414,-0.14605713,-0.85601807,-0.578125,-0.4375,0.28125
1696253745331,-0.44458008,-0.14361572,-0.85943604,-0.59375,-0.359375,0.328125
1696253745371,-0.43530273,-0.14337158,-0.86383057,-0.203125,-0.078125,0.234375
1696253745409,-0.44799805,-0.14141846,-0.8596802,-0.578125,-0.109375,0.109375
1696253745447,-0.4411621,-0.14727783,-0.8596802,-0.0625,-0.109375,0.234375
1696253745488,-0.4416504,-0.14556885,-0.8616333,-0.4375,-0.1875,0.09375
1696253745529,-0.44921875,-0.14678955,-0.8635864,-0.515625,-0.0625,0.109375
1696253745569,-0.4465332,-0.14654541,-0.85650635,-0.046875,-0.46875,0.09375
1696253745609,-0.4411621,-0.14654541,-0.8596802,0.5,-0.375,0.078125
1696253745647,-0.43969727,-0.14752197,-0.85113525,0.609375,-0.40625,0.015625
1696253745688,-0.4404297,-0.13702393,-0.850647,0.75,-0.203125,0.03125
1696253745728,-0.44189453,-0.14239502,-0.85528564,0.5625,-0.578125,-0.171875
1696253745769,-0.45288086,-0.14337158,-0.86602783,0.328125,-0.828125,0.203125
1696253745811,-0.4489746,-0.14263916,-0.85772705,-0.015625,-0.546875,-0.015625
1696253745848,-0.44970703,-0.14019775,-0.8621216,-0.1875,-0.890625,0.1875
1696253745889,-0.44970703,-0.1428833,-0.87042236,-0.15625,-0.765625,0.125
1696253745929,-0.4399414,-0.13970947,-0.8574829,0.171875,-0.625,0.09375
1696253745968,-0.4440918,-0.13433838,-0.8621216,-0.125,-0.609375,0.21875
1696253746008,-0.4465332,-0.13995361,-0.8640747,-0.46875,-0.6875,0.015625
1696253746049,-0.44384766,-0.14337158,-0.8584595,-0.53125,-0.8125,0.328125
1696253746088,-0.44335938,-0.13702393,-0.85650635,-0.484375,-0.75,0.171875
1696253746129,-0.43115234,-0.14239502,-0.85894775,-0.40625,-0.796875,0.234375
1696253746168,-0.43896484,-0.13897705,-0.85479736,-0.453125,-0.234375,0.28125
1696253746207,-0.45092773,-0.15020752,-0.8826294,-1.265625,-1.6875,0.375
1696253746247,-0.4387207,-0.14703369,-0.8623657,-0.59375,-1.140625,0.34375
1696253746288,-0.43554688,-0.14263916,-0.8584595,-0.5,-1.25,0.390625
1696253746328,-0.42871094,-0.14263916,-0.8616333,-0.40625,-1.65625,0.265625
1696253746369,-0.43359375,-0.1453247,-0.8623657,0.109375,-1.609375,0.265625
1696253746407,-0.44384766,-0.1404419,-0.86383057,1.84375,0.390625,0.0625
1696253746449,-0.43481445,-0.14654541,-0.88604736,1.015625,-1.03125,0.25
1696253746487,-0.42822266,-0.13458252,-0.83135986,0.609375,0.125,0.0625
1696253746527,-0.43481445,-0.13824463,-0.8760376,-0.15625,0.234375,0.109375
1696253746548,-0.45239258,-0.13848877,-0.87750244,-0.15625,0.609375,0.296875
1696253746589,-0.44848633,-0.14019775,-0.866272,-0.9375,0.515625,0.296875
1696253746628,-0.44335938,-0.14630127,-0.86553955,-0.25,0.28125,0.203125
1696253746669,-0.44311523,-0.14361572,-0.8550415,0.25,0.015625,0.140625
1696253746709,-0.43774414,-0.14752197,-0.850647,-0.0625,-0.109375,0.234375
1696253746748,-0.43652344,-0.14239502,-0.8557739,-0.375,-0.1875,0.125
1696253746789,-0.44018555,-0.14190674,-0.8621216,-0.0625,-0.3125,0.1875
1696253746826,-0.44311523,-0.13897705,-0.86724854,-0.03125,-0.3125,0.28125
1696253746868,-0.44555664,-0.14239502,-0.86383057,0.0625,-0.125,0.21875
1696253746907,-0.44604492,-0.14776611,-0.8635864,0.3125,-0.09375,0.078125
1696253746952,-0.4482422,-0.1453247,-0.8579712,0.234375,-0.34375,0.1875
1696253746989,-0.44726562,-0.1428833,-0.8621216,-0.28125,-0.578125,0.140625
1696253747027,-0.44213867,-0.14434814,-0.8518677,-0.203125,-0.53125,0.234375
1696253747068,-0.44433594,-0.144104,-0.85601807,0.0,-0.59375,0.09375
1696253747107,-0.44213867,-0.14019775,-0.8567505,0.34375,-0.375,-0.03125
1696253747148,-0.44140625,-0.13653564,-0.8557739,0.4375,-0.21875,-0.03125
1696253747187,-0.44433594,-0.13970947,-0.8652954,0.59375,-0.234375,-0.03125
1696253747227,-0.4428711,-0.13726807,-0.8545532,0.78125,-0.328125,-0.046875
1696253747270,-0.4404297,-0.14117432,-0.86920166,0.0625,-0.90625,0.265625
1696253747309,-0.44604492,-0.13897705,-0.86016846,-0.453125,-0.875,0.171875
1696253747348,-0.44482422,-0.13604736,-0.8543091,-0.046875,-0.296875,0.203125
1696253747388,-0.44750977,-0.1338501,-0.8587036,-0.0625,-0.53125,0.21875
1696253747429,-0.44140625,-0.13922119,-0.85601807,0.1875,-0.375,0.125
1696253747468,-0.4428711,-0.13604736,-0.8557739,0.09375,-0.546875,0.125
1696253747508,-0.44580078,-0.13702393,-0.8633423,-0.46875,-0.828125,0.40625
1696253747549,-0.4416504,-0.14141846,-0.8584595,-0.671875,-0.890625,0.28125
1696253747590,-0.44482422,-0.13702393,-0.8604126,-0.65625,-1.03125,0.28125
1696253747630,-0.44018555,-0.14263916,-0.8652954,-0.8125,-1.09375,0.1875
1696253747670,-0.43896484,-0.13946533,-0.86383057,-0.671875,-1.234375,0.359375
1696253747711,-0.42993164,-0.14752197,-0.85650635,-0.3125,-0.9375,0.421875
1696253747751,-0.4326172,-0.14654541,-0.8587036,-0.71875,-1.125,0.203125
1696253747790,-0.4416504,-0.13873291,-0.86260986,-1.296875,-1.53125,0.515625
1696253747849,-0.4423828,-0.14117432,-0.864563,-2.0625,-2.03125,0.40625
1696253747866,-0.43676758,-0.15216064,-0.86846924,-0.96875,-1.625,0.359375
1696253747888,-0.43286133,-0.14508057,-0.84869385,1.15625,0.390625,0.171875
1696253747947,-0.43481445,-0.14239502,-0.8892212,2.4375,1.28125,-0.140625
1696253747967,-0.43310547,-0.15118408,-0.87750244,3.234375,1.484375,0.015625
1696253748008,-0.4255371,-0.13458252,-0.83721924,0.625,1.484375,0.125
1696253748050,-0.4519043,-0.14141846,-0.8545532,-0.015625,0.84375,0.046875
1696253748087,-0.45288086,-0.14068604,-0.85943604,-0.015625,0.40625,0.359375
1696253748128,-0.45336914,-0.13458252,-0.85772705,-0.390625,0.265625,0.265625
1696253748168,-0.4416504,-0.1416626,-0.866272,0.15625,-0.125,-0.078125
1696253748208,-0.44555664,-0.14312744,-0.8701782,0.1875,-0.421875,0.03125
1696253748249,-0.43798828,-0.13677979,-0.85821533,0.0,-0.296875,0.09375
1696253748288,-0.4416504,-0.13702393,-0.84820557,0.015625,-0.484375,0.171875
1696253748328,-0.4416504,-0.13238525,-0.85650635,0.0625,-0.46875,0.0625
1696253748390,-0.45361328,-0.13897705,-0.85284424,0.078125,-0.421875,0.15625
1696253748407,-0.44506836,-0.1428833,-0.85601807,0.109375,-0.359375,0.09375
1696253748449,-0.44628906,-0.14263916,-0.8687134,0.125,-0.46875,0.171875
1696253748488,-0.44384766,-0.13897705,-0.862854,0.15625,-0.5625,0.125
1696253748528,-0.43920898,-0.14190674,-0.85650635,0.171875,-0.328125,0.171875
1696253748569,-0.44433594,-0.13653564,-0.8526001,0.0625,-0.421875,0.109375
1696253748611,-0.44506836,-0.13873291,-0.8584595,0.078125,-0.09375,0.125
1696253748648,-0.44580078,-0.13873291,-0.8587036,0.203125,-0.1875,-0.0625
1696253748711,-0.4494629,-0.1416626,-0.864563,-0.421875,-0.484375,0.078125
1696253748727,-0.44604492,-0.13922119,-0.8689575,-0.890625,-0.9375,0.328125
1696253748768,-0.44458008,-0.13800049,-0.8533325,-0.421875,-0.640625,0.25
1696253748828,-0.44262695,-0.13482666,-0.8557739,-0.25,-0.453125,0.109375
1696253748847,-0.43701172,-0.13531494,-0.8567505,-0.078125,-0.921875,0.234375
1696253748888,-0.44628906,-0.14361572,-0.8623657,-0.484375,-0.671875,0.28125
1696253748928,-0.4387207,-0.14312744,-0.8623657,-0.296875,-0.734375,0.234375
1696253748970,-0.44604492,-0.13922119,-0.85943604,-0.640625,-0.78125,0.140625
1696253749012,-0.44604492,-0.13873291,-0.8579712,-0.28125,-0.796875,0.234375
1696253749047,-0.44213867,-0.14385986,-0.8567505,-0.453125,-1.0,0.265625
1696253749088,-0.44360352,-0.14068604,-0.8569946,-1.0,-1.296875,0.265625
1696253749149,-0.4423828,-0.14849854,-0.86553955,-1.578125,-1.734375,0.421875
1696253749170,-0.44604492,-0.14215088,-0.8748169,-1.703125,-1.921875,0.53125
1696253749189,-0.43725586,-0.15118408,-0.85235596,-0.953125,-1.046875,0.390625
1696253749230,-0.43701172,-0.1519165,-0.8635864,-0.734375,-1.4375,0.25
1696253749267,-0.43481445,-0.15557861,-0.8718872,-0.609375,-1.328125,0.359375
1696253749309,-0.43603516,-0.14678955,-0.8616333,-0.40625,-1.09375,0.296875
1696253749349,-0.4338379,-0.14508057,-0.8557739,0.96875,-0.125,0.140625
1696253749389,-0.43920898,-0.15118408,-0.86846924,1.734375,0.46875,0.09375
1696253749429,-0.4326172,-0.14678955,-0.86968994,1.265625,-0.46875,0.28125
1696253749467,-0.4248047,-0.14459229,-0.8291626,0.78125,0.640625,0.109375
1696253749508,-0.4411621,-0.13653564,-0.87506104,-0.25,0.765625,-0.03125
1696253749548,-0.44433594,-0.14190674,-0.8826294,-0.40625,0.765625,0.515625
1696253749588,-0.4416504,-0.1453247,-0.8599243,-0.796875,0.890625,0.25
1696253749628,-0.44067383,-0.14678955,-0.8533325,-0.625,-0.046875,0.375
1696253749668,-0.43945312,-0.15142822,-0.8682251,-0.078125,0.375,0.3125
1696253749709,-0.4404297,-0.14727783,-0.85162354,0.125,0.46875,0.140625
1696253749748,-0.44262695,-0.14703369,-0.85040283,0.203125,-0.046875,0.046875
1696253749788,-0.44726562,-0.14923096,-0.85601807,0.0625,-0.421875,0.171875
1696253749830,-0.44702148,-0.14630127,-0.86383057,0.109375,-0.734375,0.359375
1696253749867,-0.44067383,-0.14630127,-0.86383057,0.078125,-0.65625,0.125
1696253749911,-0.44311523,-0.14654541,-0.8545532,0.296875,-0.34375,0.046875
1696253749948,-0.44311523,-0.14215088,-0.85357666,0.28125,-0.578125,0.015625
1696253749989,-0.4399414,-0.14263916,-0.8596802,0.296875,-0.390625,0.15625
1696253750028,-0.4440918,-0.14385986,-0.8604126,0.21875,-0.59375,0.078125
1696253750067,-0.44482422,-0.14752197,-0.8621216,0.0,-0.671875,0.125
1696253750110,-0.44091797,-0.14361572,-0.8621216,0.21875,-0.484375,0.09375
1696253750150,-0.44482422,-0.14141846,-0.85821533,-0.078125,-0.546875,0.09375
1696253750189,-0.44213867,-0.14215088,-0.85040283,0.53125,-0.421875,-0.15625
1696253750229,-0.44189453,-0.14263916,-0.8616333,0.40625,-0.953125,0.171875
1696253750267,-0.4399414,-0.14215088,-0.8587036,0.203125,-0.96875,0.125
1696253750307,-0.44750977,-0.14019775,-0.86138916,0.359375,-0.6875,0.0625
1696253750349,-0.44458008,-0.14459229,-0.86798096,-0.1875,-0.546875,0.1875
1696253750389,-0.44726562,-0.13897705,-0.86724854,-0.265625,-0.59375,0.34375
1696253750453,-0.44506836,-0.14093018,-0.86260986,0.046875,-0.5625,0.109375
1696253750467,-0.43945312,-0.1453247,-0.8555298,-0.359375,-0.609375,0.1875
1696253750487,-0.43310547,-0.13726807,-0.8501587,-0.46875,-0.796875,0.265625
1696253750527,-0.4375,-0.14263916,-0.8543091,-0.234375,-0.734375,0.25
1696253750607,-0.43896484,-0.14068604,-0.8616333,-0.40625,-0.953125,0.234375
1696253750609,-0.4416504,-0.1453247,-0.8743286,-0.515625,-0.78125,0.40625
1696253750646,-0.43530273,-0.144104,-0.85357666,-0.421875,-0.71875,0.3125
1696253750686,-0.43554688,-0.13946533,-0.8567505,-0.484375,-0.640625,0.203125
1696253750727,-0.4453125,-0.14874268,-0.8674927,-0.90625,-1.359375,0.3125
1696253750767,-0.4387207,-0.14312744,-0.8591919,-1.140625,-1.171875,0.53125
1696253750807,-0.4362793,-0.14654541,-0.86676025,-1.25,-1.6875,0.359375
1696253750847,-0.43310547,-0.15753174,-0.8584595,-0.90625,-1.46875,0.3125
1696253750909,-0.4284668,-0.15118408,-0.86187744,-0.1875,-0.859375,0.21875
1696253750927,-0.43481445,-0.15118408,-0.86383057,1.015625,0.21875,0.078125
1696253750969,-0.4338379,-0.14996338,-0.8916626,2.375,1.421875,0.109375
1696253751007,-0.42895508,-0.1506958,-0.85406494,1.5,1.640625,0.0
1696253751048,-0.43896484,-0.14117432,-0.8735962,-0.34375,0.375,0.3125
1696253751088,-0.44189453,-0.1428833,-0.86016846,-0.234375,0.984375,0.34375
1696253751129,-0.4399414,-0.1453247,-0.8513794,-1.4375,0.109375,0.4375
1696253751170,-0.4428711,-0.1453247,-0.8508911,-0.390625,-0.28125,0.171875
1696253751208,-0.44970703,-0.14849854,-0.87164307,0.03125,-0.484375,0.140625
1696253751248,-0.4387207,-0.14019775,-0.85772705,-0.21875,-0.375,0.09375
1696253751288,-0.43920898,-0.14581299,-0.8508911,-0.78125,-0.96875,0.390625
1696253751328,-0.43237305,-0.15020752,-0.8479614,-0.0625,-0.890625,0.15625
1696253751368,-0.44580078,-0.15460205,-0.8621216,-0.234375,-1.03125,0.21875
1696253751408,-0.43847656,-0.1494751,-0.8591919,-0.46875,-1.203125,0.515625
1696253751450,-0.44677734,-0.15264893,-0.88067627,-1.46875,-0.65625,0.53125
1696253751487,-0.4404297,-0.15582275,-0.86260986,-0.6875,-0.859375,0.421875
1696253751550,-0.43701172,-0.15704346,-0.84332275,-0.09375,-0.8125,0.28125
1696253751566,-0.4333496,-0.15875244,-0.8464966,0.75,-0.578125,-0.140625
1696253751607,-0.43701172,-0.15045166,-0.8545532,0.390625,-0.5,-0.046875
1696253751649,-0.44018555,-0.15631104,-0.86920166,-0.5,-0.328125,0.234375
1696253751712,-0.4423828,-0.14459229,-0.8674927,-0.265625,-0.828125,0.28125
1696253751726,-0.45092773,-0.15020752,-0.8591919,-0.015625,-0.734375,0.5
1696253751772,-0.43652344,-0.14703369,-0.8682251,0.53125,-1.890625,0.125
1696253751787,-0.43481445,-0.14898682,-0.8584595,0.9375,-0.84375,0.15625
1696253751827,-0.4248047,-0.1494751,-0.85723877,1.265625,-1.390625,0.015625
1696253751871,-0.42822266,-0.14801025,-0.85943604,0.734375,-1.609375,-0.203125
1696253751909,-0.43139648,-0.15093994,-0.86846924,0.484375,-1.0,0.109375
1696253751949,-0.43481445,-0.14630127,-0.87164307,-0.34375,-0.625,0.21875
1696253751988,-0.4350586,-0.15142822,-0.8904419,-1.40625,-0.921875,0.53125
1696253752027,-0.42797852,-0.14385986,-0.84503174,-0.40625,-0.546875,0.125
1696253752068,-0.4230957,-0.14898682,-0.85723877,-0.765625,-0.890625,0.03125
1696253752108,-0.42871094,-0.1494751,-0.87384033,-1.125,-1.796875,0.171875
1696253752148,-0.4165039,-0.14727783,-0.86383057,-1.03125,-1.578125,0.265625
1696253752188,-0.42211914,-0.14703369,-0.8442993,-1.140625,-2.203125,0.0625
1696253752228,-0.43920898,-0.14923096,-0.88287354,-1.0625,-3.765625,0.28125
1696253752269,-0.42529297,-0.15557861,-0.8960571,-0.90625,-2.9375,0.515625
1696253752308,-0.42089844,-0.15777588,-0.87823486,-0.015625,-1.734375,0.34375
1696253752350,-0.40429688,-0.1609497,-0.85723877,1.328125,-0.75,0.125
1696253752388,-0.40112305,-0.14874268,-0.87994385,2.421875,1.71875,0.1875
1696253752428,-0.41186523,-0.14971924,-0.8711548,3.265625,1.90625,-0.03125
1696253752470,-0.40454102,-0.15753174,-0.894104,-1.375,1.59375,0.625
1696253752508,-0.43066406,-0.14019775,-0.88946533,0.734375,3.46875,-0.078125
1696253752550,-0.43701172,-0.13873291,-0.8257446,-1.203125,1.0625,0.359375
1696253752587,-0.4326172,-0.14678955,-0.8530884,-1.015625,-0.15625,0.15625
1696253752628,-0.4345703,-0.15167236,-0.8814087,-0.3125,-0.234375,0.046875
1696253752668,-0.4267578,-0.15386963,-0.8740845,-0.65625,-0.4375,0.15625
1696253752708,-0.41992188,-0.15679932,-0.85723877,-0.171875,-0.65625,0.109375
1696253752748,-0.42651367,-0.15509033,-0.8587036,-0.1875,-0.640625,0.03125
1696253752788,-0.4267578,-0.14898682,-0.87042236,0.46875,-0.28125,-0.125
1696253752827,-0.43066406,-0.1453247,-0.87506104,0.46875,-0.3125,-0.15625
1696253752868,-0.42749023,-0.14654541,-0.86968994,0.125,-0.234375,0.0
1696253752908,-0.42529297,-0.14630127,-0.8677368,-0.125,-0.140625,0.171875
1696253752948,-0.42211914,-0.14898682,-0.85723877,0.046875,-0.265625,0.015625
1696253752988,-0.4255371,-0.15411377,-0.8621216,0.40625,0.140625,-0.171875
1696253753028,-0.42456055,-0.15142822,-0.8567505,0.796875,0.34375,0.0
1696253753069,-0.42944336,-0.1482544,-0.86383057,1.03125,0.0625,-0.1875
1696253753108,-0.43164062,-0.1416626,-0.86724854,0.5,-0.265625,-0.09375
1696253753128,-0.4411621,-0.14801025,-0.8699341,0.171875,-0.40625,-0.03125
1696253753188,-0.43603516,-0.13970947,-0.85284424,0.546875,-0.234375,0.140625
1696253753209,-0.4404297,-0.14141846,-0.8633423,0.265625,-0.734375,0.234375
1696253753249,-0.4296875,-0.144104,-0.87286377,0.078125,-0.921875,0.171875
1696253753288,-0.42358398,-0.14141846,-0.8740845,-0.203125,-1.265625,0.453125
1696253753328,-0.42358398,-0.14190674,-0.8555298,-0.28125,-1.125,0.203125
1696253753370,-0.42578125,-0.14654541,-0.8674927,-0.390625,-1.265625,0.15625
1696253753408,-0.43017578,-0.14459229,-0.86798096,-0.390625,-1.0625,0.25
1696253753447,-0.42749023,-0.13531494,-0.86602783,-0.46875,-0.921875,0.453125
1696253753488,-0.42382812,-0.14874268,-0.8657837,-0.78125,-1.234375,0.359375
1696253753528,-0.42773438,-0.14483643,-0.8755493,-1.125,-1.53125,0.28125
1696253753609,-0.42822266,-0.14581299,-0.8674927,-1.125,-1.40625,0.359375
1696253753612,-0.4260254,-0.14752197,-0.8682251,-1.21875,-1.8125,0.34375
1696253753647,-0.4189453,-0.14776611,-0.87042236,-0.296875,-1.625,0.28125
1696253753688,-0.41577148,-0.14605713,-0.864563,-0.34375,-1.0,0.375
1696253753727,-0.41601562,-0.14874268,-0.87701416,0.90625,-0.765625,0.078125
1696253753788,-0.42651367,-0.14459229,-0.8677368,2.140625,1.015625,0.140625
1696253753811,-0.4255371,-0.14996338,-0.8862915,2.21875,0.796875,0.078125
1696253753848,-0.41308594,-0.14459229,-0.8596802,0.484375,0.859375,0.0625
1696253753887,-0.42700195,-0.1416626,-0.8743286,0.125,0.671875,0.21875
1696253753928,-0.43676758,-0.13336182,-0.848938,0.28125,0.84375,0.15625
1696253753968,-0.4345703,-0.144104,-0.8587036,-0.984375,-0.4375,0.203125
1696253754008,-0.43066406,-0.14215088,-0.87457275,0.0,-0.234375,0.171875
1696253754047,-0.43310547,-0.14361572,-0.87286377,0.0,-0.296875,0.125
1696253754087,-0.4243164,-0.14654541,-0.86798096,-0.046875,-0.3125,0.125
1696253754129,-0.4296875,-0.14776611,-0.8545532,-0.09375,-0.484375,0.203125
1696253754168,-0.4248047,-0.13800049,-0.861145,0.453125,-0.328125,-0.0625
1696253754227,-0.43286133,-0.14190674,-0.86431885,0.25,-0.390625,0.046875
1696253754247,-0.43115234,-0.14239502,-0.8665161,-0.125,-0.46875,0.1875
1696253754288,-0.43579102,-0.13873291,-0.86553955,-0.0625,-0.21875,0.109375
1696253754329,-0.4267578,-0.14215088,-0.8657837,0.109375,-0.125,0.171875
1696253754367,-0.43017578,-0.14141846,-0.86138916,0.546875,0.046875,-0.1875
1696253754428,-0.42578125,-0.1404419,-0.86602783,0.5625,-0.28125,-0.03125
1696253754430,-0.42944336,-0.14190674,-0.8701782,0.703125,-0.046875,-0.109375
1696253754468,-0.4350586,-0.1362915,-0.86505127,0.328125,0.234375,-0.140625
1696253754508,-0.43432617,-0.13726807,-0.8635864,0.28125,-0.078125,0.109375
1696253754548,-0.43115234,-0.13702393,-0.86383057,0.171875,0.0625,0.234375
1696253754588,-0.43017578,-0.13482666,-0.8687134,-0.203125,-0.90625,0.359375
1696253754629,-0.43139648,-0.13653564,-0.86505127,-0.59375,-1.046875,0.234375
1696253754669,-0.4309082,-0.14459229,-0.8765259,-0.828125,-1.3125,0.21875
1696253754709,-0.42285156,-0.13897705,-0.8718872,-0.59375,-0.5625,0.359375
1696253754748,-0.4309082,-0.13433838,-0.8533325,0.015625,-0.640625,0.265625
1696253754789,-0.42578125,-0.13800049,-0.8604126,-0.296875,-0.90625,0.03125
1696253754828,-0.43408203,-0.13604736,-0.8652954,-0.796875,-0.96875,0.390625
1696253754869,-0.4309082,-0.14385986,-0.86602783,-0.984375,-1.03125,0.3125
1696253754909,-0.43286133,-0.1506958,-0.8765259,-0.9375,-0.890625,0.390625
1696253754948,-0.421875,-0.1416626,-0.8591919,-0.390625,-0.65625,0.328125
1696253754988,-0.42456055,-0.14752197,-0.8740845,-0.796875,-1.171875,0.296875
1696253755028,-0.42504883,-0.14727783,-0.8648071,-0.90625,-1.390625,0.359375
1696253755069,-0.42285156,-0.14996338,-0.862854,-1.03125,-1.328125,0.390625
1696253755108,-0.42651367,-0.15142822,-0.8740845,-0.96875,-1.328125,0.203125
1696253755148,-0.42163086,-0.14776611,-0.8657837,-0.5,-1.03125,0.234375
1696253755189,-0.41918945,-0.15045166,-0.85528564,-1.015625,-0.578125,0.640625
1696253755228,-0.42895508,-0.15509033,-0.90509033,-0.40625,-0.015625,0.5
1696253755269,-0.42358398,-0.15875244,-0.87384033,1.328125,0.546875,0.1875
1696253755307,-0.41601562,-0.14605713,-0.86724854,1.890625,1.234375,0.15625
1696253755349,-0.41430664,-0.14678955,-0.8892212,2.375,0.59375,0.046875
1696253755388,-0.41088867,-0.13824463,-0.8340454,1.171875,1.21875,-0.078125
1696253755428,-0.42822266,-0.1404419,-0.8635864,0.140625,1.265625,0.03125
1696253755468,-0.4423828,-0.144104,-0.8584595,0.21875,0.78125,0.125
1696253755507,-0.4338379,-0.14141846,-0.86383057,-0.171875,0.3125,0.046875
1696253755548,-0.43603516,-0.14093018,-0.8779907,0.265625,0.109375,0.0
1696253755588,-0.43164062,-0.14459229,-0.87506104,0.21875,-0.078125,0.015625
1696253755628,-0.4248047,-0.1428833,-0.86309814,-0.03125,-0.296875,0.125
1696253755669,-0.42871094,-0.1338501,-0.8562622,-0.125,-0.28125,0.15625
1696253755728,-0.43310547,-0.14337158,-0.8652954,0.078125,-0.390625,0.109375
1696253755747,-0.43408203,-0.14581299,-0.8687134,-0.28125,-0.484375,0.3125
1696253755767,-0.4416504,-0.1416626,-0.8789673,-0.109375,-0.5,0.25
1696253755829,-0.43701172,-0.13458252,-0.86260986,0.015625,-0.328125,0.203125
1696253755869,-0.42822266,-0.13726807,-0.8633423,0.03125,-0.296875,-0.125
1696253755887,-0.42749023,-0.14068604,-0.85528564,0.5,-0.015625,0.0
1696253755929,-0.4333496,-0.13702393,-0.86138916,0.15625,-0.140625,0.171875
1696253755989,-0.4326172,-0.14361572,-0.8562622,0.15625,-0.3125,0.03125
1696253756008,-0.43188477,-0.1404419,-0.8689575,-0.203125,0.078125,-0.015625
1696253756068,-0.43896484,-0.13922119,-0.86676025,-0.21875,-0.796875,-0.03125
1696253756108,-0.43530273,-0.14385986,-0.8591919,-0.359375,-0.890625,0.046875
1696253756128,-0.4345703,-0.14215088,-0.8701782,-0.15625,-0.75,0.21875
1696253756168,-0.43481445,-0.14141846,-0.8633423,0.0625,-0.953125,0.203125
1696253756209,-0.4326172,-0.1375122,-0.8623657,-0.21875,-0.671875,0.3125
1696253756248,-0.43359375,-0.13555908,-0.8706665,-0.625,-1.359375,0.578125
1696253756287,-0.4338379,-0.1416626,-0.8699341,-0.40625,-1.109375,0.171875
1696253756327,-0.4309082,-0.14459229,-0.8731079,-0.515625,-1.203125,0.265625
1696253756368,-0.4309082,-0.1362915,-0.86431885,-0.15625,-0.828125,0.203125
1696253756408,-0.4284668,-0.14434814,-0.86065674,0.125,-0.4375,0.15625
1696253756449,-0.43701172,-0.1453247,-0.87506104,-0.625,-1.015625,0.328125
1696253756486,-0.43237305,-0.14483643,-0.8694458,-0.703125,-1.15625,0.484375
1696253756526,-0.42333984,-0.14776611,-0.8633423,-0.78125,-1.5,0.3125
1696253756568,-0.42944336,-0.1494751,-0.86798096,-1.1875,-1.734375,0.53125
1696253756609,-0.42407227,-0.1494751,-0.87091064,-0.8125,-1.359375,0.40625
1696253756669,-0.43188477,-0.14727783,-0.8796997,0.1875,-0.484375,0.328125
1696253756687,-0.42041016,-0.14654541,-0.8843384,-0.3125,-0.484375,0.59375
1696253756728,-0.42529297,-0.14508057,-0.89263916,0.0,1.28125,0.484375
1696253756769,-0.4169922,-0.1572876,-0.86553955,0.234375,0.96875,0.125
1696253756809,-0.4206543,-0.1482544,-0.85040283,-0.296875,1.59375,0.0625
1696253756848,-0.44091797,-0.14093018,-0.8616333,0.265625,1.140625,-0.0625
1696253756909,-0.43823242,-0.14581299,-0.84869385,-0.0625,-0.140625,0.21875
1696253756927,-0.43237305,-0.14849854,-0.87042236,0.4375,-0.640625,0.28125
1696253756969,-0.43041992,-0.14776611,-0.86968994,0.59375,-0.640625,0.0
1696253757008,-0.43115234,-0.1453247,-0.8596802,0.359375,-0.421875,0.078125
1696253757073,-0.42871094,-0.1494751,-0.8694458,0.03125,-0.703125,0.09375
1696253757077,-0.43164062,-0.14971924,-0.8670044,-0.0625,-0.59375,-0.109375
1696253757109,-0.43286133,-0.14361572,-0.8623657,0.390625,-0.078125,0.09375
1696253757147,-0.42773438,-0.13873291,-0.8616333,0.15625,-0.078125,0.171875
1696253757189,-0.43139648,-0.14581299,-0.87091064,0.109375,-0.203125,0.09375
1696253757228,-0.42773438,-0.14508057,-0.86724854,0.375,0.03125,-0.078125
1696253757270,-0.42919922,-0.15045166,-0.8677368,0.28125,-0.390625,-0.078125
1696253757308,-0.42773438,-0.14190674,-0.86065674,0.296875,-0.359375,0.0
1696253757350,-0.43359375,-0.13824463,-0.8584595,0.375,-0.421875,0.09375
1696253757386,-0.4326172,-0.14630127,-0.862854,0.5625,-0.09375,-0.03125
1696253757426,-0.43408203,-0.14068604,-0.8621216,0.703125,-0.125,0.0625
1696253757466,-0.43603516,-0.13800049,-0.86260986,0.578125,-0.25,0.15625
1696253757507,-0.43798828,-0.14068604,-0.87164307,-0.109375,-0.71875,0.09375
1696253757548,-0.43701172,-0.13580322,-0.87335205,-0.34375,-0.75,0.28125
1696253757588,-0.42797852,-0.14141846,-0.85650635,-0.0625,-0.71875,0.125
1696253757629,-0.42993164,-0.1404419,-0.8543091,-0.203125,-0.5,0.1875
1696253757668,-0.42944336,-0.14312744,-0.8633423,-0.0625,-0.78125,0.203125
1696253757707,-0.43798828,-0.14263916,-0.86553955,-0.4375,-0.953125,0.28125
1696253757749,-0.43066406,-0.1428833,-0.8657837,-0.390625,-1.140625,0.21875
1696253757789,-0.43188477,-0.13604736,-0.85943604,-0.546875,-0.875,0.078125
1696253757828,-0.43164062,-0.1404419,-0.8623657,-0.75,-1.171875,0.3125
1696253757867,-0.4284668,-0.14093018,-0.8694458,-0.78125,-1.375,0.4375
1696253757909,-0.4267578,-0.14385986,-0.8616333,-0.875,-1.515625,0.34375
1696253757948,-0.43164062,-0.14556885,-0.85723877,-1.0625,-1.21875,0.375
1696253757989,-0.42016602,-0.15045166,-0.8701782,-1.265625,-1.703125,0.375
1696253758029,-0.41992188,-0.1531372,-0.8699341,-1.09375,-1.671875,0.34375
1696253758069,-0.42163086,-0.14215088,-0.86260986,-0.640625,-1.0625,0.359375
1696253758108,-0.41503906,-0.14801025,-0.862854,-0.6875,-1.171875,0.21875
1696253758148,-0.42041016,-0.15118408,-0.87213135,-0.109375,-0.140625,0.328125
1696253758188,-0.4260254,-0.14971924,-0.8982544,1.203125,0.640625,0.1875
1696253758229,-0.42114258,-0.15533447,-0.87506104,2.890625,1.234375,-0.1875
1696253758267,-0.40966797,-0.14141846,-0.829895,1.53125,1.484375,-0.15625
1696253758308,-0.43115234,-0.13897705,-0.86724854,0.234375,0.390625,0.0
1696253758349,-0.44189453,-0.14190674,-0.85772705,-0.09375,0.515625,0.15625
1696253758368,-0.43310547,-0.14215088,-0.87335205,-0.203125,0.15625,0.125
1696253758408,-0.4375,-0.14971924,-0.87823486,-0.0625,0.0,0.171875
1696253758447,-0.4321289,-0.14556885,-0.8723755,-0.28125,-0.015625,0.1875
1696253758489,-0.4255371,-0.14068604,-0.8557739,-0.15625,-0.0625,-0.078125
1696253758528,-0.42822266,-0.1531372,-0.8543091,0.203125,-0.4375,0.265625
1696253758567,-0.42919922,-0.13677979,-0.8538208,0.484375,-0.359375,0.15625
1696253758607,-0.43286133,-0.14483643,-0.866272,0.203125,-0.484375,0.0
1696253758650,-0.43603516,-0.14215088,-0.87335205,0.046875,-0.390625,0.09375
1696253758707,-0.4362793,-0.14019775,-0.8701782,0.6875,-0.5,0.09375
1696253758749,-0.42822266,-0.144104,-0.861145,0.90625,-0.578125,-0.203125
1696253758767,-0.4333496,-0.1350708,-0.85235596,0.390625,-1.09375,0.09375
1696253758830,-0.42504883,-0.13531494,-0.8640747,0.078125,-1.125,0.203125
1696253758848,-0.42651367,-0.1350708,-0.8689575,-0.34375,-0.578125,0.34375
1696253758888,-0.43115234,-0.13677979,-0.8648071,-0.578125,-0.015625,0.25
1696253758928,-0.4333496,-0.13873291,-0.8682251,-0.6875,-0.421875,0.34375
1696253758990,-0.4362793,-0.14068604,-0.8726196,-0.75,-0.421875,0.3125
1696253759007,-0.4309082,-0.14385986,-0.86724854,-0.15625,-0.59375,0.15625
1696253759050,-0.43554688,-0.13824463,-0.8718872,-0.375,-0.671875,0.25
1696253759091,-0.42749023,-0.14434814,-0.85894775,-0.109375,-0.6875,0.140625
1696253759131,-0.42797852,-0.13824463,-0.8635864,-0.125,-1.0,0.21875
1696253759170,-0.42456055,-0.15045166,-0.8562622,-0.25,-0.921875,0.09375
1696253759208,-0.4255371,-0.1404419,-0.8777466,-0.953125,-1.296875,0.390625
1696253759250,-0.41918945,-0.14312744,-0.8635864,-0.4375,-0.984375,0.421875
1696253759310,-0.42236328,-0.14630127,-0.86260986,-0.765625,-0.828125,0.328125
1696253759330,-0.42749023,-0.14556885,-0.87628174,-1.03125,-1.171875,0.296875
1696253759369,-0.41918945,-0.14849854,-0.86383057,-0.859375,-0.921875,0.21875
1696253759430,-0.43188477,-0.14874268,-0.8838501,-1.5,-1.484375,0.375
1696253759447,-0.4194336,-0.14898682,-0.8718872,-0.84375,-1.203125,0.46875
1696253759488,-0.42016602,-0.15533447,-0.86016846,-1.640625,-1.40625,0.4375
1696253759549,-0.4267578,-0.15631104,-0.8792114,-2.515625,-2.28125,0.625
1696253759568,-0.42016602,-0.16143799,-0.8677368,-0.5625,-0.625,0.234375
1696253759608,-0.4243164,-0.1560669,-0.8821411,1.671875,0.21875,0.109375
1696253759668,-0.4074707,-0.15362549,-0.87213135,3.1875,1.890625,-0.109375
1696253759688,-0.41748047,-0.1482544,-0.87677,1.90625,1.921875,0.03125
1696253759707,-0.42114258,-0.15679932,-0.8530884,-1.125,2.421875,0.609375
1696253759747,-0.43554688,-0.15118408,-0.87506104,-0.328125,1.734375,0.28125
1696253759790,-0.4375,-0.13995361,-0.8428345,0.015625,1.453125,0.0
1696253759829,-0.4326172,-0.14215088,-0.8567505,-0.734375,-0.53125,0.15625
1696253759888,-0.43945312,-0.14971924,-0.8731079,-0.15625,-0.578125,0.03125
1696253759908,-0.43310547,-0.15655518,-0.8621216,0.1875,-0.71875,-0.015625
1696253759948,-0.43408203,-0.1585083,-0.85723877,0.0,-0.9375,0.265625
1696253759988,-0.4255371,-0.14849854,-0.8513794,0.1875,-0.5625,-0.03125
1696253760027,-0.42895508,-0.14678955,-0.87213135,0.4375,-0.53125,-0.140625
1696253760068,-0.42895508,-0.14337158,-0.86187744,0.3125,-0.484375,0.171875
1696253760109,-0.43286133,-0.14117432,-0.86968994,0.28125,-0.328125,0.125
1696253760149,-0.43237305,-0.15020752,-0.8648071,0.03125,-0.328125,0.203125
1696253760189,-0.42822266,-0.15338135,-0.8596802,0.234375,-0.53125,0.09375
1696253760228,-0.4267578,-0.15118408,-0.8623657,0.171875,-0.328125,0.03125
1696253760269,-0.43115234,-0.13800049,-0.86383057,0.4375,-0.28125,0.0625
1696253760309,-0.43579102,-0.14508057,-0.8623657,0.625,-0.671875,-0.03125
1696253760348,-0.43774414,-0.13922119,-0.86846924,0.578125,-1.03125,0.015625
1696253760387,-0.43554688,-0.13995361,-0.8674927,0.21875,-1.171875,0.15625
1696253760429,-0.43530273,-0.1494751,-0.86968994,0.09375,-0.5,0.171875
1696253760468,-0.43115234,-0.15216064,-0.8699341,-0.140625,-0.71875,0.109375
1696253760510,-0.42700195,-0.1494751,-0.87213135,0.140625,-0.78125,0.203125
1696253760548,-0.43066406,-0.14459229,-0.8599243,-0.046875,-0.65625,0.046875
1696253760589,-0.43310547,-0.14483643,-0.86724854,-0.3125,-0.984375,0.25
1696253760630,-0.43139648,-0.14874268,-0.8670044,-0.34375,-0.96875,0.21875
1696253760668,-0.42358398,-0.13726807,-0.8657837,-0.390625,-0.8125,0.359375
1696253760708,-0.42993164,-0.14361572,-0.8713989,-0.1875,-0.9375,0.234375
1696253760749,-0.43017578,-0.1453247,-0.86920166,-0.09375,-0.765625,0.28125
1696253760788,-0.4272461,-0.14654541,-0.8648071,-0.203125,-0.890625,0.25
1696253760827,-0.4272461,-0.14483643,-0.8711548,-0.03125,-0.71875,0.21875
1696253760890,-0.4177246,-0.14215088,-0.85943604,-0.265625,-0.6875,0.375
1696253760908,-0.42114258,-0.14263916,-0.8706665,-0.71875,-0.984375,0.328125
1696253760970,-0.42700195,-0.15020752,-0.8740845,-0.96875,-1.28125,0.40625
1696253760989,-0.42944336,-0.14556885,-0.866272,-0.859375,-0.96875,0.328125
1696253761029,-0.41674805,-0.15679932,-0.8674927,-0.3125,-0.890625,0.234375
1696253761049,-0.42285156,-0.14898682,-0.8674927,-0.046875,-0.59375,0.171875
1696253761089,-0.42260742,-0.15142822,-0.8713989,0.515625,-0.375,0.25
1696253761129,-0.4243164,-0.14752197,-0.8621216,0.890625,0.34375,0.21875
1696253761170,-0.42016602,-0.15362549,-0.88946533,0.484375,0.0625,0.296875
1696253761208,-0.42163086,-0.1506958,-0.87701416,0.453125,1.390625,0.1875
1696253761249,-0.43359375,-0.14630127,-0.8858032,-0.484375,1.21875,0.296875
1696253761289,-0.43017578,-0.13922119,-0.8545532,-1.03125,1.265625,0.1875
1696253761328,-0.4296875,-0.144104,-0.848938,-1.796875,-0.125,0.5625
1696253761368,-0.42651367,-0.15045166,-0.86676025,-0.53125,0.375,0.15625
1696253761408,-0.42578125,-0.15020752,-0.86798096,-0.4375,0.21875,0.109375
1696253761448,-0.43188477,-0.1572876,-0.85943604,-0.484375,0.0,0.25
1696253761489,-0.42773438,-0.15704346,-0.85723877,-0.46875,-0.8125,0.15625
1696253761549,-0.43017578,-0.1560669,-0.866272,0.078125,-1.125,0.09375
1696253761569,-0.42529297,-0.15045166,-0.8567505,0.609375,-1.0,0.0
1696253761609,-0.4333496,-0.1482544,-0.86383057,0.59375,-0.5,0.078125
1696253761647,-0.42749023,-0.14312744,-0.8591919,0.53125,-0.78125,0.09375
1696253761687,-0.43603516,-0.1506958,-0.8596802,0.890625,-0.59375,-0.09375
1696253761728,-0.43115234,-0.14776611,-0.86968994,1.046875,-0.53125,0.140625
1696253761769,-0.42993164,-0.15216064,-0.8657837,0.90625,-0.40625,0.078125
1696253761829,-0.4260254,-0.14898682,-0.8718872,0.75,-0.625,0.109375
1696253761849,-0.43237305,-0.13970947,-0.85821533,1.046875,-0.296875,-0.0625
1696253761909,-0.42822266,-0.14434814,-0.86724854,0.4375,-0.859375,0.140625
1696253761929,-0.42871094,-0.14483643,-0.8735962,-0.34375,-1.140625,0.109375
1696253761969,-0.42626953,-0.14434814,-0.86431885,-0.390625,-0.875,0.3125
1696253762008,-0.4248047,-0.1519165,-0.86505127,-0.234375,-0.453125,0.1875
1696253762050,-0.43066406,-0.14874268,-0.8735962,-0.03125,-0.671875,0.3125
1696253762091,-0.4272461,-0.14434814,-0.87213135,-0.09375,-0.75,0.0625
1696253762129,-0.4248047,-0.14337158,-0.8621216,-0.09375,-0.484375,0.28125
1696253762170,-0.43164062,-0.14508057,-0.8599243,-0.375,-0.703125,0.140625
1696253762210,-0.42504883,-0.14434814,-0.8677368,-0.421875,-1.046875,0.328125
1696253762270,-0.42089844,-0.14556885,-0.861145,-0.21875,-0.71875,0.21875
1696253762309,-0.42163086,-0.14776611,-0.8699341,-0.453125,-0.921875,0.21875
1696253762312,-0.42529297,-0.15118408,-0.86920166,-0.703125,-1.09375,0.3125
1696253762348,-0.41723633,-0.14678955,-0.8616333,-0.453125,-0.921875,0.265625
1696253762389,-0.42407227,-0.14776611,-0.8723755,-0.859375,-1.578125,0.40625
1696253762428,-0.4248047,-0.15118408,-0.8674927,-1.328125,-1.453125,0.296875
1696253762470,-0.4194336,-0.15240479,-0.86798096,-1.296875,-1.4375,0.390625
1696253762508,-0.42358398,-0.1560669,-0.86920166,-1.078125,-1.4375,0.3125
1696253762548,-0.41479492,-0.15679932,-0.87091064,-0.140625,-0.765625,0.328125
1696253762589,-0.41552734,-0.15704346,-0.8670044,1.46875,0.578125,0.0625
1696253762627,-0.41430664,-0.1531372,-0.8965454,2.359375,1.140625,0.171875
1696253762668,-0.41235352,-0.15020752,-0.85162354,-0.140625,1.125,0.125
1696253762720,-0.4296875,-0.14239502,-0.8689575,-0.828125,0.84375,0.328125
1696253762749,-0.43603516,-0.15509033,-0.866272,-0.171875,1.328125,0.328125
1696253762789,-0.42871094,-0.14801025,-0.8569946,-1.03125,0.125,0.21875
1696253762829,-0.43554688,-0.1506958,-0.8748169,-0.296875,-0.40625,0.34375
1696253762869,-0.42993164,-0.15997314,-0.87579346,-0.0625,-0.03125,0.0625
1696253762908,-0.42382812,-0.15216064,-0.8609009,-0.515625,-0.03125,0.1875
1696253762948,-0.42407227,-0.15582275,-0.85284424,-0.140625,-0.609375,0.203125
1696253762988,-0.42773438,-0.15264893,-0.861145,-0.03125,-0.390625,0.09375
1696253763027,-0.42749023,-0.14971924,-0.86553955,0.453125,-0.46875,0.25
1696253763068,-0.43359375,-0.1519165,-0.864563,0.234375,-0.5625,0.171875
1696253763108,-0.4267578,-0.15167236,-0.87164307,0.375,-0.390625,0.0
1696253763148,-0.43188477,-0.15240479,-0.8569946,0.515625,-0.359375,0.03125
1696253763188,-0.42797852,-0.15167236,-0.8621216,0.765625,-0.375,0.046875
1696253763228,-0.421875,-0.1482544,-0.8599243,1.046875,-0.828125,0.0
1696253763268,-0.42944336,-0.1404419,-0.86187744,1.203125,-0.765625,-0.078125
1696253763308,-0.42944336,-0.1404419,-0.8677368,0.984375,-0.859375,0.109375
1696253763348,-0.43066406,-0.14263916,-0.87677,0.171875,-0.9375,0.171875
1696253763386,-0.4333496,-0.1404419,-0.8731079,0.78125,-0.1875,0.015625
1696253763430,-0.4272461,-0.14093018,-0.8777466,0.578125,-0.046875,0.125
1696253763489,-0.42456055,-0.14727783,-0.8796997,0.265625,-0.40625,0.15625
1696253763509,-0.42236328,-0.14263916,-0.8694458,-0.078125,-0.28125,-0.03125
1696253763553,-0.42822266,-0.13922119,-0.8567505,-0.5,-0.5,0.3125
1696253763608,-0.42944336,-0.14874268,-0.87701416,-0.796875,-1.046875,0.234375
1696253763611,-0.42651367,-0.1362915,-0.87335205,-0.734375,-0.875,0.28125
1696253763649,-0.42456055,-0.14239502,-0.87164307,-0.828125,-0.921875,0.3125
1696253763733,-0.42138672,-0.13726807,-0.87335205,-0.671875,-0.84375,0.3125
1696253763736,-0.42529297,-0.14508057,-0.87164307,-0.359375,-1.25,0.203125
1696253763768,-0.42016602,-0.14190674,-0.8591919,-0.515625,-0.953125,0.40625
1696253763808,-0.42041016,-0.1482544,-0.86505127,-0.6875,-1.4375,0.265625
1696253763849,-0.42211914,-0.14654541,-0.8713989,-1.171875,-1.734375,0.453125
1696253763890,-0.42163086,-0.14996338,-0.880188,-0.65625,-1.203125,0.40625
1696253763931,-0.42163086,-0.14898682,-0.86724854,-0.109375,-0.828125,0.171875
1696253763968,-0.4248047,-0.1519165,-0.8648071,1.0625,0.234375,0.171875
1696253764007,-0.40942383,-0.15338135,-0.8779907,1.109375,0.734375,0.265625
1696253764048,-0.41748047,-0.15045166,-0.8633423,-0.140625,1.65625,0.484375
1696253764091,-0.43017578,-0.15264893,-0.89508057,-0.0625,1.125,0.203125
1696253764131,-0.4345703,-0.15020752,-0.86431885,0.4375,2.765625,0.34375
1696253764168,-0.43481445,-0.1404419,-0.85650635,-0.875,0.671875,0.46875
1696253764208,-0.4284668,-0.1506958,-0.85284424,-0.265625,0.359375,0.15625
1696253764248,-0.43066406,-0.1531372,-0.86724854,-0.75,0.09375,0.28125
1696253764289,-0.43359375,-0.15167236,-0.85894775,-0.359375,-0.234375,0.078125
1696253764328,-0.4272461,-0.1531372,-0.8518677,-0.234375,-0.515625,0.203125
1696253764368,-0.43310547,-0.15362549,-0.8635864,-0.09375,-0.53125,0.015625
1696253764407,-0.44360352,-0.14874268,-0.86676025,0.40625,-0.546875,0.015625
1696253764447,-0.43432617,-0.14849854,-0.8623657,0.40625,-0.578125,0.015625
1696253764491,-0.4230957,-0.15045166,-0.86431885,0.59375,-0.65625,-0.140625
1696253764529,-0.43286133,-0.14556885,-0.861145,0.484375,-0.546875,0.078125
1696253764569,-0.42749023,-0.14019775,-0.86187744,0.5,-0.65625,0.0
1696253764609,-0.43579102,-0.14776611,-0.861145,0.921875,-0.625,-0.078125
1696253764647,-0.42407227,-0.14483643,-0.8616333,0.921875,-0.515625,-0.09375
1696253764688,-0.4321289,-0.1428833,-0.8652954,0.25,-0.40625,-0.015625
1696253764728,-0.4284668,-0.1416626,-0.8621216,0.015625,-0.671875,0.15625
1696253764769,-0.43579102,-0.14434814,-0.87335205,-0.125,-0.78125,0.109375
1696253764810,-0.43554688,-0.14190674,-0.8731079,-0.140625,-0.484375,0.3125
1696253764849,-0.43017578,-0.14776611,-0.86602783,-0.15625,-0.625,0.125
1696253764890,-0.42211914,-0.14312744,-0.8604126,-0.140625,-0.265625,0.109375
1696253764906,-0.43066406,-0.1404419,-0.86260986,-0.171875,-0.78125,0.328125
1696253764949,-0.4284668,-0.14483643,-0.85601807,-0.453125,-1.078125,0.34375
1696253764989,-0.42504883,-0.14434814,-0.86138916,-0.640625,-0.75,0.328125
1696253765028,-0.43066406,-0.14654541,-0.87994385,-0.734375,-0.96875,0.296875
1696253765069,-0.43041992,-0.14434814,-0.8735962,-0.515625,-0.65625,0.078125
1696253765110,-0.43115234,-0.14752197,-0.8723755,-0.5,-0.9375,0.234375
1696253765149,-0.42407227,-0.14605713,-0.86065674,-0.59375,-1.109375,0.265625
1696253765191,-0.42138672,-0.15386963,-0.862854,-1.015625,-1.46875,0.359375
1696253765232,-0.42919922,-0.15118408,-0.881897,-1.921875,-2.734375,0.71875
1696253765268,-0.421875,-0.15924072,-0.878479,-1.328125,-1.984375,0.625
1696253765311,-0.42016602,-0.15289307,-0.85723877,-1.078125,-1.25,0.25
1696253765350,-0.42260742,-0.16021729,-0.8748169,-0.28125,-1.0625,0.25
1696253765388,-0.41918945,-0.16290283,-0.8694458,0.34375,-0.578125,0.125
1696253765431,-0.41210938,-0.15289307,-0.87335205,1.65625,0.734375,0.171875
1696253765469,-0.42578125,-0.15216064,-0.8826294,1.140625,1.578125,0.3125
1696253765509,-0.41503906,-0.14019775,-0.84552,0.5625,1.328125,0.1875
1696253765549,-0.42138672,-0.15533447,-0.8743286,-0.65625,1.109375,0.421875
1696253765590,-0.43017578,-0.14263916,-0.8555298,-1.375,1.375,0.375
1696253765628,-0.43041992,-0.1482544,-0.8550415,-1.078125,-0.203125,0.515625
1696253765668,-0.43286133,-0.15509033,-0.8670044,-0.25,0.359375,0.0625
1696253765709,-0.43139648,-0.14898682,-0.8665161,-0.046875,0.78125,0.015625
1696253765751,-0.4375,-0.15899658,-0.8665161,-0.265625,0.1875,0.125
1696253765789,-0.42993164,-0.15362549,-0.86016846,-0.21875,-0.71875,0.078125
1696253765828,-0.42773438,-0.16021729,-0.85943604,0.421875,-0.484375,0.046875
1696253765869,-0.42993164,-0.15411377,-0.8584595,0.921875,-0.515625,-0.1875
1696253765912,-0.43017578,-0.1572876,-0.86431885,0.453125,-0.609375,0.015625
1696253765948,-0.42700195,-0.14898682,-0.86602783,0.328125,-0.75,0.0
1696253765988,-0.4326172,-0.1531372,-0.8569946,0.484375,-0.5625,-0.015625
1696253766030,-0.4284668,-0.14581299,-0.8711548,0.625,-0.828125,0.03125
1696253766070,-0.4338379,-0.14727783,-0.8538208,0.515625,-0.359375,0.15625
1696253766109,-0.42919922,-0.15338135,-0.8687134,0.71875,-0.234375,-0.15625
1696253766149,-0.42895508,-0.14190674,-0.8550415,1.203125,-0.25,-0.140625
1696253766189,-0.43237305,-0.14556885,-0.8567505,0.9375,-0.1875,-0.046875
1696253766229,-0.42944336,-0.14508057,-0.87628174,-0.015625,-0.953125,0.078125
1696253766248,-0.4375,-0.14068604,-0.8711548,-0.125,-0.796875,0.28125
1696253766310,-0.4284668,-0.14117432,-0.86187744,0.171875,-0.484375,0.171875
1696253766327,-0.4272461,-0.14581299,-0.86309814,0.265625,-0.53125,0.015625
1696253766369,-0.43481445,-0.14898682,-0.8718872,0.046875,-0.8125,0.296875
1696253766409,-0.42773438,-0.1482544,-0.86553955,-0.234375,-0.828125,0.15625
1696253766448,-0.4230957,-0.14459229,-0.8633423,-0.46875,-1.0625,0.15625
1696253766487,-0.4284668,-0.14703369,-0.861145,-0.40625,-0.84375,0.40625
1696253766528,-0.42822266,-0.14776611,-0.87457275,-0.46875,-1.046875,0.265625
1696253766569,-0.4284668,-0.1494751,-0.87213135,-0.59375,-0.875,0.203125
1696253766609,-0.4272461,-0.14996338,-0.8699341,-0.5,-1.0,0.140625
1696253766649,-0.42919922,-0.1519165,-0.86505127,-0.34375,-1.0625,0.203125
1696253766711,-0.42529297,-0.14776611,-0.878479,-1.109375,-2.03125,0.46875
1696253766727,-0.421875,-0.1519165,-0.86846924,-0.6875,-1.09375,0.375
1696253766770,-0.41870117,-0.14654541,-0.8591919,0.96875,0.375,0.125
1696253766829,-0.4177246,-0.15240479,-0.8999634,0.171875,1.546875,0.421875
1696253766850,-0.44262695,-0.1572876,-0.9067993,-0.078125,1.9375,0.515625
1696253766889,-0.42993164,-0.15582275,-0.8855591,-0.484375,2.140625,0.515625
1696253766951,-0.43481445,-0.1482544,-0.8501587,-0.546875,2.78125,0.25
1696253766970,-0.43554688,-0.14483643,-0.8220825,-1.203125,0.734375,0.15625
1696253767031,-0.4404297,-0.14678955,-0.85406494,-0.5,0.078125,0.203125
1696253767047,-0.43774414,-0.15362549,-0.8640747,0.015625,0.046875,-0.09375
1696253767091,-0.4428711,-0.1560669,-0.8616333,-0.4375,-0.71875,0.1875
1696253767130,-0.43530273,-0.15802002,-0.86505127,-0.546875,-1.078125,0.25
1696253767171,-0.43579102,-0.15899658,-0.8726196,0.328125,-0.78125,0.109375
1696253767211,-0.43188477,-0.15557861,-0.8513794,0.671875,-0.359375,-0.046875
1696253767250,-0.43530273,-0.14361572,-0.8623657,0.078125,-0.546875,-0.015625
1696253767291,-0.43408203,-0.15142822,-0.8623657,0.15625,-0.59375,0.1875
1696253767328,-0.43359375,-0.15460205,-0.8574829,0.125,-0.46875,0.203125
1696253767369,-0.43408203,-0.15020752,-0.86065674,0.3125,-0.421875,-0.015625
1696253767410,-0.43774414,-0.14971924,-0.8609009,0.53125,-0.4375,0.0
1696253767449,-0.43408203,-0.14654541,-0.85943604,0.765625,-0.609375,-0.0625
1696253767488,-0.4350586,-0.14630127,-0.8616333,1.234375,-0.234375,-0.046875
1696253767550,-0.42773438,-0.14678955,-0.86260986,1.3125,-0.234375,-0.1875
1696253767553,-0.44482422,-0.14141846,-0.85723877,1.03125,0.140625,-0.265625
1696253767589,-0.43725586,-0.14068604,-0.8755493,0.46875,-0.5,0.203125
1696253767629,-0.44750977,-0.13653564,-0.86920166,-0.109375,-0.546875,0.1875
1696253767668,-0.43969727,-0.14239502,-0.8567505,0.28125,-0.453125,0.25
1696253767709,-0.42871094,-0.14093018,-0.86431885,0.171875,-0.875,0.265625
1696253767749,-0.43701172,-0.13922119,-0.8587036,-0.03125,-1.078125,0.21875
1696253767789,-0.43530273,-0.1375122,-0.8587036,-0.28125,-1.21875,0.390625
1696253767831,-0.43530273,-0.14703369,-0.8584595,-0.40625,-1.015625,0.109375
1696253767869,-0.43603516,-0.14263916,-0.861145,-0.546875,-0.84375,0.421875
1696253767908,-0.43798828,-0.144104,-0.8682251,-0.515625,-0.828125,0.203125
1696253767947,-0.42749023,-0.15118408,-0.85162354,-0.46875,-1.0,0.15625
1696253767988,-0.43066406,-0.14971924,-0.85894775,-0.703125,-1.265625,0.140625
1696253768040,-0.42773438,-0.13970947,-0.861145,-0.796875,-1.40625,0.359375
1696253768069,-0.4309082,-0.14801025,-0.8623657,-1.65625,-1.640625,0.421875
1696253768109,-0.42773438,-0.14605713,-0.8670044,-1.453125,-1.8125,0.46875
1696253768149,-0.42700195,-0.14801025,-0.85772705,-1.3125,-1.625,0.390625
1696253768189,-0.42651367,-0.15484619,-0.87677,-0.90625,-1.34375,0.515625
1696253768228,-0.42773438,-0.16119385,-0.8682251,1.578125,0.53125,0.28125
1696253768270,-0.4230957,-0.15264893,-0.8843384,2.34375,1.984375,0.171875
1696253768309,-0.41455078,-0.15240479,-0.86968994,0.75,0.5625,0.15625
1696253768348,-0.42211914,-0.14263916,-0.8447876,0.03125,1.546875,0.28125
1696253768388,-0.43164062,-0.13800049,-0.8599243,-0.1875,1.171875,0.109375
1696253768430,-0.4453125,-0.1416626,-0.8530884,-1.078125,-0.015625,0.328125
1696253768468,-0.44799805,-0.14678955,-0.8753052,-1.078125,0.015625,0.125
1696253768510,-0.43774414,-0.14727783,-0.86968994,-0.3125,-0.140625,0.046875
1696253768549,-0.43432617,-0.15460205,-0.86187744,-0.25,-0.15625,0.09375
1696253768589,-0.42749023,-0.15948486,-0.84552,-0.375,-0.296875,0.296875
1696253768629,-0.4345703,-0.15240479,-0.85406494,0.1875,-0.734375,0.015625
1696253768670,-0.4375,-0.14849854,-0.8584595,0.5625,-0.46875,0.0
1696253768709,-0.43359375,-0.14776611,-0.8635864,0.515625,-0.375,0.109375
1696253768748,-0.4350586,-0.14752197,-0.86260986,0.34375,-0.453125,-0.078125
1696253768789,-0.43408203,-0.15167236,-0.8670044,0.859375,-0.484375,0.0
1696253768870,-0.43164062,-0.15289307,-0.8621216,0.90625,-0.71875,-0.03125
1696253768875,-0.43408203,-0.14654541,-0.861145,1.0625,-0.609375,-0.0625
1696253768886,-0.43286133,-0.14971924,-0.8533325,0.8125,-0.4375,-0.125
1696253768950,-0.42822266,-0.13702393,-0.8584595,0.609375,-0.421875,0.046875
1696253768968,-0.4404297,-0.14801025,-0.8731079,-0.28125,-0.828125,0.0625
1696253769032,-0.43554688,-0.14263916,-0.87823486,-0.234375,-0.984375,0.328125
1696253769047,-0.43164062,-0.14068604,-0.8526001,0.09375,-0.25,0.0625
1696253769089,-0.43139648,-0.14312744,-0.8648071,-0.015625,-0.3125,0.046875
1696253769152,-0.43579102,-0.1428833,-0.8633423,0.09375,-1.015625,0.265625
1696253769167,-0.43188477,-0.144104,-0.8530884,-0.3125,-1.34375,0.265625
1696253769209,-0.43286133,-0.14361572,-0.85723877,-0.34375,-0.890625,0.375
1696253769249,-0.43554688,-0.14434814,-0.85723877,-0.234375,-0.78125,0.125
1696253769289,-0.43603516,-0.14434814,-0.87384033,-0.3125,-0.859375,0.265625
1696253769331,-0.4321289,-0.13946533,-0.8574829,0.203125,-0.171875,0.3125
1696253769368,-0.43969727,-0.14605713,-0.8789673,-1.40625,-1.921875,0.34375
1696253769409,-0.4296875,-0.14678955,-0.87823486,-1.28125,-1.765625,0.453125
1696253769448,-0.4194336,-0.14337158,-0.8477173,-0.1875,-0.8125,0.3125
1696253769489,-0.42236328,-0.14849854,-0.85894775,-0.921875,-1.3125,0.375
1696253769528,-0.42138672,-0.14263916,-0.8609009,-0.375,-0.8125,0.28125
1696253769567,-0.42993164,-0.15826416,-0.8821411,1.96875,0.59375,0.078125
1696253769609,-0.4284668,-0.14239502,-0.8862915,2.0,0.859375,-0.015625
1696253769667,-0.42114258,-0.14190674,-0.8555298,1.90625,1.15625,-0.140625
1696253769688,-0.42700195,-0.1428833,-0.8530884,0.46875,0.765625,0.046875
1696253769729,-0.4428711,-0.1350708,-0.8677368,-0.28125,0.953125,0.40625
1696253769768,-0.44433594,-0.14263916,-0.8538208,-1.03125,0.53125,0.3125
1696253769808,-0.43554688,-0.13873291,-0.8584595,-1.015625,-0.171875,0.34375
1696253769851,-0.43896484,-0.14752197,-0.8779907,-0.25,-0.28125,0.0625
1696253769912,-0.43481445,-0.14361572,-0.85723877,-0.140625,0.0625,0.140625
1696253769930,-0.42993164,-0.14605713,-0.84991455,-0.28125,-0.6875,0.109375
1696253769968,-0.43286133,-0.14483643,-0.85894775,0.125,-0.859375,0.1875
1696253770009,-0.43408203,-0.1506958,-0.85235596,0.4375,-0.390625,0.15625
1696253770048,-0.4362793,-0.13995361,-0.8587036,0.359375,-0.34375,0.078125
1696253770089,-0.44018555,-0.14068604,-0.86920166,0.15625,-0.421875,0.015625
1696253770129,-0.44213867,-0.14263916,-0.8711548,0.390625,-0.265625,0.03125
1696253770168,-0.4375,-0.14630127,-0.8584595,0.515625,-0.28125,0.078125
1696253770189,-0.43920898,-0.13800049,-0.86602783,0.078125,-0.84375,0.078125
1696253770229,-0.43603516,-0.14215088,-0.86383057,-0.0625,-0.921875,0.046875
1696253770267,-0.43579102,-0.1428833,-0.85723877,0.21875,-0.78125,0.203125
1696253770311,-0.4404297,-0.13555908,-0.86798096,-0.1875,-1.03125,0.15625
1696253770348,-0.43554688,-0.13897705,-0.86920166,-0.296875,-0.5,0.203125
1696253770389,-0.43432617,-0.14093018,-0.8657837,-0.21875,-0.390625,0.25
1696253770429,-0.4296875,-0.13824463,-0.86016846,0.46875,-0.09375,0.125
1696253770468,-0.43408203,-0.14068604,-0.8616333,-0.015625,-0.015625,0.171875
1696253770509,-0.43823242,-0.14190674,-0.8682251,-0.171875,-0.953125,0.203125
1696253770548,-0.4296875,-0.13873291,-0.8557739,0.046875,-0.21875,0.21875
1696253770589,-0.44189453,-0.13897705,-0.87164307,-0.390625,-0.609375,0.421875
1696253770630,-0.43823242,-0.13873291,-0.85601807,-0.390625,-0.515625,0.40625
1696253770668,-0.43530273,-0.13946533,-0.8609009,-0.546875,-1.03125,0.34375
1696253770708,-0.44091797,-0.14141846,-0.8677368,-0.984375,-1.375,0.46875
1696253770750,-0.43359375,-0.1453247,-0.8743286,-1.078125,-1.53125,0.453125
1696253770789,-0.42749023,-0.14703369,-0.86065674,-0.84375,-1.140625,0.34375
1696253770829,-0.4338379,-0.14923096,-0.86724854,-1.390625,-1.5,0.328125
1696253770868,-0.43017578,-0.1428833,-0.8706665,-1.046875,-1.390625,0.421875
1696253770910,-0.4309082,-0.15240479,-0.861145,-1.609375,-1.140625,0.421875
1696253770950,-0.42993164,-0.1560669,-0.8735962,0.125,-0.1875,0.28125
1696253770990,-0.42700195,-0.1585083,-0.89434814,2.515625,1.53125,0.28125
1696253771030,-0.42236328,-0.15045166,-0.8772583,3.65625,2.578125,-0.203125
1696253771067,-0.4128418,-0.1506958,-0.8303833,0.796875,1.53125,-0.03125
1696253771109,-0.4296875,-0.14117432,-0.86431885,-0.015625,0.40625,0.125
1696253771149,-0.44628906,-0.14068604,-0.84503174,-0.1875,0.3125,0.21875
1696253771188,-0.44311523,-0.13531494,-0.8555298,-0.5,-0.796875,0.140625
1696253771231,-0.4423828,-0.14117432,-0.87286377,0.125,-0.609375,0.109375
1696253771273,-0.44311523,-0.14483643,-0.8858032,0.171875,-0.25,0.0
1696253771309,-0.42871094,-0.14459229,-0.8635864,-0.578125,-0.671875,0.15625
1696253771351,-0.42700195,-0.14508057,-0.85601807,-0.203125,-1.078125,0.203125
1696253771388,-0.42871094,-0.14434814,-0.8533325,0.234375,-0.34375,0.0
1696253771430,-0.4387207,-0.13848877,-0.86724854,0.1875,-0.21875,0.09375
1696253771471,-0.4411621,-0.14239502,-0.86846924,0.328125,-0.078125,0.234375
1696253771487,-0.44213867,-0.14361572,-0.86602783,0.03125,-0.265625,0.21875
1696253771529,-0.43896484,-0.14459229,-0.8665161,0.046875,-0.3125,0.125
1696253771571,-0.43237305,-0.14923096,-0.8713989,0.125,-0.328125,0.046875
1696253771610,-0.4350586,-0.14434814,-0.8599243,0.375,-0.4375,0.078125
1696253771651,-0.43774414,-0.13873291,-0.862854,0.125,-0.421875,0.125
1696253771691,-0.43823242,-0.13970947,-0.8591919,0.0625,-0.546875,0.1875
1696253771751,-0.44067383,-0.13531494,-0.8706665,-0.328125,-0.84375,0.03125
1696253771768,-0.43920898,-0.13848877,-0.8718872,-0.328125,-0.78125,0.34375
1696253771830,-0.43945312,-0.13775635,-0.86260986,0.1875,-0.28125,0.046875
1696253771847,-0.43139648,-0.1404419,-0.861145,0.203125,-0.140625,0.171875
1696253771910,-0.43774414,-0.14971924,-0.8555298,-0.421875,-1.03125,0.234375
1696253771927,-0.43310547,-0.13922119,-0.8648071,-0.328125,-0.953125,0.296875
1696253771970,-0.43188477,-0.14874268,-0.8635864,-0.40625,-0.84375,0.171875
1696253772009,-0.43969727,-0.14483643,-0.87872314,-0.5625,-0.65625,0.359375
1696253772049,-0.4284668,-0.1482544,-0.8652954,-0.4375,-0.828125,0.21875
1696253772092,-0.43286133,-0.144104,-0.8609009,-0.640625,-1.0,0.140625
1696253772151,-0.4326172,-0.14434814,-0.8648071,-0.859375,-1.171875,0.265625
1696253772190,-0.4362793,-0.15093994,-0.8726196,-1.359375,-1.515625,0.4375
1696253772209,-0.42407227,-0.1428833,-0.8521118,-0.546875,-1.078125,0.375
1696253772250,-0.4230957,-0.14434814,-0.8652954,-0.828125,-1.5,0.296875
1696253772292,-0.43017578,-0.15020752,-0.87823486,-0.703125,-1.71875,0.328125
1696253772330,-0.43066406,-0.15264893,-0.86553955,1.109375,0.171875,0.09375
1696253772370,-0.42211914,-0.14752197,-0.87091064,2.75,1.359375,-0.046875
1696253772408,-0.4189453,-0.15264893,-0.8621216,1.359375,1.0625,0.109375
1696253772451,-0.42797852,-0.14263916,-0.85235596,0.359375,1.265625,0.109375
1696253772509,-0.4387207,-0.1404419,-0.8599243,0.703125,1.53125,-0.03125
1696253772528,-0.44360352,-0.13287354,-0.861145,-0.171875,0.796875,0.109375
1696253772569,-0.44458008,-0.13555908,-0.8635864,-1.03125,0.265625,0.375
1696253772610,-0.43896484,-0.14703369,-0.8674927,-0.71875,0.21875,0.28125
1696253772671,-0.4321289,-0.14581299,-0.8574829,-0.40625,0.234375,0.140625
1696253772688,-0.42919922,-0.15142822,-0.8587036,-0.546875,-0.21875,0.21875
1696253772750,-0.4375,-0.14117432,-0.8543091,-0.25,-0.546875,0.203125
1696253772768,-0.4411621,-0.14215088,-0.8648071,0.53125,-0.484375,0.125
1696253772787,-0.44262695,-0.13458252,-0.8616333,0.1875,-0.703125,0.078125
1696253772832,-0.4375,-0.13775635,-0.86846924,0.1875,-0.640625,0.015625
1696253772868,-0.43408203,-0.14239502,-0.8633423,0.109375,-0.6875,0.0625
1696253772910,-0.43530273,-0.14141846,-0.85772705,-0.0625,-0.796875,0.078125
1696253772951,-0.43066406,-0.14019775,-0.86505127,-0.53125,-1.4375,0.140625
1696253772988,-0.4333496,-0.14752197,-0.86187744,-0.03125,-1.109375,0.125
1696253773029,-0.43359375,-0.13946533,-0.86187744,0.484375,-1.203125,0.03125
1696253773069,-0.4375,-0.1362915,-0.864563,0.0,-1.59375,0.078125
1696253773110,-0.43579102,-0.14190674,-0.86676025,-0.140625,-0.8125,0.03125
1696253773148,-0.43481445,-0.1416626,-0.87701416,-0.1875,-0.59375,0.078125
1696253773190,-0.42944336,-0.14727783,-0.8682251,0.0625,-0.3125,0.1875
1696253773229,-0.43066406,-0.14190674,-0.85821533,-0.265625,-0.828125,0.203125
1696253773269,-0.4321289,-0.14361572,-0.86798096,-0.578125,-1.40625,0.28125
1696253773309,-0.42797852,-0.14898682,-0.8621216,-0.46875,-0.84375,0.28125
1696253773349,-0.43481445,-0.14727783,-0.8640747,-0.375,-0.953125,0.25
1696253773388,-0.42578125,-0.14654541,-0.8682251,-0.1875,-0.796875,0.234375
1696253773428,-0.42578125,-0.14385986,-0.86138916,-0.65625,-0.984375,0.140625
1696253773469,-0.42504883,-0.1531372,-0.8640747,-0.8125,-1.40625,0.265625
1696253773509,-0.43164062,-0.14483643,-0.86260986,-0.703125,-1.28125,0.203125
1696253773551,-0.42333984,-0.144104,-0.86846924,-1.1875,-2.09375,0.40625
1696253773590,-0.42529297,-0.14971924,-0.8772583,-1.34375,-1.84375,0.46875
1696253773630,-0.4248047,-0.15655518,-0.86431885,-0.890625,-1.3125,0.5
1696253773671,-0.42211914,-0.15509033,-0.8689575,-0.484375,-1.421875,0.265625
1696253773709,-0.42041016,-0.15509033,-0.87994385,0.71875,-0.96875,0.234375
1696253773749,-0.42211914,-0.15533447,-0.87823486,2.640625,1.265625,-0.109375
1696253773789,-0.41455078,-0.15484619,-0.862854,2.28125,1.234375,-0.15625
1696253773829,-0.41357422,-0.14581299,-0.850647,0.640625,0.578125,-0.03125
1696253773871,-0.42871094,-0.14459229,-0.8711548,-0.046875,1.359375,0.140625
1696253773909,-0.44262695,-0.13848877,-0.87164307,0.0,1.234375,0.3125
1696253773947,-0.43798828,-0.14215088,-0.8635864,-1.0,-0.125,0.28125
1696253773988,-0.43359375,-0.1560669,-0.8735962,-0.6875,-0.21875,0.21875
1696253774028,-0.43188477,-0.15338135,-0.86846924,-0.578125,0.140625,0.109375
1696253774091,-0.4230957,-0.1482544,-0.8543091,-1.453125,-0.609375,0.25
1696253774107,-0.4243164,-0.15093994,-0.85528564,-0.4375,-0.640625,0.1875
1696253774131,-0.42919922,-0.14385986,-0.8633423,0.046875,-0.453125,0.171875
1696253774191,-0.4362793,-0.13800049,-0.8706665,-0.015625,-0.53125,0.15625
1696253774208,-0.4296875,-0.14605713,-0.8689575,0.015625,-0.515625,0.1875
1696253774249,-0.43188477,-0.14703369,-0.86968994,0.0625,-0.515625,0.1875
1696253774313,-0.4338379,-0.14776611,-0.86187744,0.625,-0.46875,0.078125
1696253774352,-0.42651367,-0.14776611,-0.862854,0.75,-0.359375,-0.046875
1696253774368,-0.4321289,-0.14068604,-0.86383057,1.125,-0.390625,-0.078125
1696253774409,-0.4350586,-0.13580322,-0.8604126,0.859375,-0.578125,0.0625
1696253774450,-0.4362793,-0.14361572,-0.8652954,0.0625,-0.953125,0.015625
1696253774493,-0.4387207,-0.14605713,-0.87457275,-0.546875,-0.921875,0.171875
1696253774528,-0.4362793,-0.14971924,-0.87823486,-0.390625,-0.8125,0.28125
1696253774569,-0.4260254,-0.14263916,-0.8587036,0.125,-0.421875,0.296875
1696253774609,-0.43164062,-0.14190674,-0.86846924,-0.03125,-0.90625,0.265625
1696253774653,-0.42138672,-0.14093018,-0.85723877,-0.453125,-0.859375,0.34375
1696253774688,-0.42285156,-0.14337158,-0.85357666,-0.328125,-0.796875,0.234375
1696253774729,-0.4326172,-0.1453247,-0.8689575,-1.140625,-1.46875,0.453125
1696253774789,-0.4267578,-0.14263916,-0.8694458,-0.78125,-1.0,0.390625
1696253774806,-0.42504883,-0.14996338,-0.8687134,-0.859375,-1.34375,0.5625
1696253774849,-0.42651367,-0.14996338,-0.8609009,-0.734375,-1.171875,0.4375
1696253774887,-0.42700195,-0.15289307,-0.8753052,-1.0,-1.578125,0.25
1696253774927,-0.42333984,-0.1560669,-0.85821533,-0.875,-1.359375,0.28125
1696253774969,-0.41552734,-0.1482544,-0.86431885,-0.765625,-1.234375,0.375
1696253775030,-0.42651367,-0.1531372,-0.87213135,-0.53125,-1.21875,0.296875
1696253775070,-0.4230957,-0.15533447,-0.8726196,0.9375,-0.359375,0.203125
1696253775087,-0.42041016,-0.15655518,-0.88067627,2.578125,0.28125,-0.171875
1696253775129,-0.4091797,-0.1482544,-0.85528564,3.34375,1.6875,0.0625
1696253775170,-0.41552734,-0.14312744,-0.8496704,1.671875,1.46875,-0.1875
1696253775208,-0.43652344,-0.13800049,-0.8911743,-0.296875,0.71875,0.09375
1696253775249,-0.43652344,-0.14776611,-0.88482666,0.359375,0.890625,0.203125
1696253775288,-0.43481445,-0.13824463,-0.8508911,-0.65625,0.09375,0.21875
1696253775327,-0.42871094,-0.1416626,-0.8640747,-0.46875,-0.765625,0.09375
1696253775370,-0.43066406,-0.14678955,-0.8731079,-0.125,-0.421875,0.15625
1696253775409,-0.42651367,-0.144104,-0.87213135,-0.375,-0.015625,0.21875
1696253775429,-0.42626953,-0.14727783,-0.8584595,-0.546875,-0.5625,0.171875
1696253775470,-0.4309082,-0.13873291,-0.86138916,-0.0625,-0.03125,0.375
1696253775509,-0.42529297,-0.13873291,-0.85528564,0.765625,0.375,-0.015625
1696253775549,-0.43579102,-0.1404419,-0.88116455,0.71875,-0.046875,-0.015625
1696253775590,-0.4248047,-0.14263916,-0.8584595,0.34375,-0.203125,0.015625
1696253775630,-0.43554688,-0.13970947,-0.86602783,-0.171875,-0.5,0.15625
1696253775669,-0.42871094,-0.14263916,-0.864563,0.078125,-0.734375,0.0625
1696253775709,-0.42797852,-0.1453247,-0.8635864,0.40625,-0.390625,0.25
1696253775748,-0.4272461,-0.13970947,-0.8599243,0.609375,-0.015625,-0.109375
1696253775790,-0.4440918,-0.13360596,-0.8880005,-0.703125,-0.734375,0.21875
1696253775829,-0.43139648,-0.14337158,-0.8723755,-0.65625,-1.125,0.125
1696253775869,-0.42944336,-0.13824463,-0.8543091,-0.09375,-0.421875,0.203125
1696253775910,-0.43017578,-0.13824463,-0.8538208,0.125,-0.515625,0.3125
1696253775948,-0.4284668,-0.13775635,-0.86138916,-0.234375,-0.765625,0.078125
1696253775990,-0.42919922,-0.14459229,-0.86920166,-0.625,-1.015625,0.234375
1696253776034,-0.43139648,-0.14117432,-0.8701782,-0.703125,-1.09375,0.453125
1696253776070,-0.4321289,-0.14434814,-0.8635864,-0.4375,-1.078125,0.265625
1696253776109,-0.42871094,-0.14508057,-0.8648071,-0.421875,-1.0,0.125
1696253776148,-0.42944336,-0.14141846,-0.87457275,-1.328125,-1.421875,0.40625
1696253776188,-0.4248047,-0.14556885,-0.87579346,-1.1875,-1.453125,0.4375
1696253776228,-0.42114258,-0.14654541,-0.8555298,-1.25,-1.265625,0.328125
1696253776269,-0.4284668,-0.15045166,-0.866272,-1.5,-1.625,0.3125
1696253776308,-0.4243164,-0.15802002,-0.8713989,-1.078125,-1.671875,0.40625
1696253776348,-0.41992188,-0.1585083,-0.8777466,0.125,-1.484375,0.4375
1696253776388,-0.41479492,-0.15216064,-0.87042236,2.03125,0.1875,-0.109375
1696253776429,-0.41064453,-0.14849854,-0.85601807,4.390625,2.0625,-0.28125
1696253776469,-0.41210938,-0.14385986,-0.8674927,3.75,1.71875,-0.296875
1696253776509,-0.43798828,-0.13360596,-0.8682251,0.734375,0.78125,0.09375
1696253776550,-0.43847656,-0.1350708,-0.8911743,0.21875,1.1875,0.390625
1696253776588,-0.44384766,-0.12945557,-0.8584595,-0.34375,1.96875,0.375
1696253776629,-0.4338379,-0.13873291,-0.864563,-1.59375,0.6875,0.1875
1696253776669,-0.43066406,-0.14239502,-0.85772705,-0.796875,0.09375,0.40625
1696253776731,-0.4333496,-0.15045166,-0.86431885,-1.09375,0.6875,0.28125
1696253776748,-0.43237305,-0.14215088,-0.8513794,-0.6875,0.203125,0.421875
1696253776769,-0.44067383,-0.14263916,-0.8574829,-0.546875,0.4375,0.265625
1696253776852,-0.44189453,-0.14068604,-0.864563,-0.4375,0.28125,0.125
1696253776855,-0.4387207,-0.14654541,-0.86798096,0.484375,0.390625,0.0625
1696253776908,-0.4362793,-0.13800049,-0.8526001,1.1875,1.4375,-0.078125
1696253776929,-0.44433594,-0.13946533,-0.862854,1.328125,0.5625,-0.046875
1696253776968,-0.43823242,-0.1362915,-0.8508911,1.1875,0.375,-0.203125
1696253777010,-0.4416504,-0.13726807,-0.847229,0.53125,-0.5,-0.046875
1696253777069,-0.43847656,-0.13726807,-0.8440552,0.6875,-0.875,0.046875
1696253777089,-0.4411621,-0.13189697,-0.8533325,-0.625,-1.9375,0.15625
1696253777129,-0.4501953,-0.1338501,-0.8833618,-0.984375,-2.5625,0.25
1696253777167,-0.4494629,-0.13531494,-0.862854,-1.1875,-1.34375,0.140625
1696253777207,-0.43823242,-0.13922119,-0.8616333,-0.265625,-1.8125,0.078125
1696253777247,-0.4375,-0.15045166,-0.87628174,-0.03125,-1.546875,0.28125
1696253777310,-0.43823242,-0.14678955,-0.8665161,-0.078125,-0.921875,0.25
1696253777329,-0.43017578,-0.14190674,-0.84576416,0.046875,-0.234375,0.125
1696253777368,-0.4333496,-0.13604736,-0.850647,0.4375,0.53125,0.109375
1696253777408,-0.44702148,-0.13824463,-0.87164307,-0.21875,-0.625,0.203125
1696253777449,-0.43945312,-0.14605713,-0.8687134,-0.296875,-0.9375,0.375
1696253777491,-0.4284668,-0.14581299,-0.85723877,0.015625,-0.875,0.28125
1696253777528,-0.43310547,-0.14093018,-0.86505127,-0.8125,-1.8125,0.328125
1696253777568,-0.42749023,-0.1428833,-0.8689575,-1.375,-2.109375,0.4375
1696253777632,-0.43774414,-0.13946533,-0.86431885,-1.265625,-1.65625,0.375
1696253777668,-0.42895508,-0.14727783,-0.8682251,-0.53125,-0.859375,0.359375
1696253777689,-0.42773438,-0.15289307,-0.8779907,-0.765625,-1.328125,0.359375
1696253777753,-0.42626953,-0.15264893,-0.87042236,0.125,-0.75,0.296875
1696253777769,-0.42504883,-0.14752197,-0.8689575,2.640625,1.875,-0.046875
1696253777809,-0.42211914,-0.14385986,-0.8635864,3.875,2.515625,-0.140625
1696253777851,-0.42578125,-0.14605713,-0.8562622,-0.046875,1.390625,0.21875
1696253777890,-0.43041992,-0.13482666,-0.86260986,0.359375,1.875,0.25
1696253777951,-0.44970703,-0.1350708,-0.8567505,-0.21875,1.765625,0.28125
1696253777989,-0.4501953,-0.13238525,-0.8633423,-0.671875,1.109375,0.3125
1696253778009,-0.4399414,-0.1416626,-0.8579712,-0.953125,0.109375,0.3125
1696253778029,-0.43920898,-0.13922119,-0.8640747,-0.484375,0.234375,0.34375
1696253778069,-0.43701172,-0.14434814,-0.848938,-0.671875,0.0625,0.234375
1696253778110,-0.44091797,-0.13873291,-0.85162354,-0.84375,-0.375,0.15625
1696253778149,-0.43969727,-0.13604736,-0.8621216,-0.046875,-0.375,0.203125
1696253778189,-0.43847656,-0.14117432,-0.85601807,0.046875,-0.546875,0.078125
1696253778228,-0.4423828,-0.14215088,-0.86602783,0.28125,0.0,0.1875
1696253778270,-0.4440918,-0.14215088,-0.85479736,-0.1875,0.578125,-0.03125
1696253778309,-0.4440918,-0.14630127,-0.8701782,-0.515625,0.1875,0.0625
1696253778349,-0.44506836,-0.1416626,-0.85040283,-0.015625,-0.109375,0.046875
1696253778387,-0.44311523,-0.14605713,-0.8530884,0.328125,-0.46875,0.125
1696253778427,-0.44580078,-0.14239502,-0.8418579,0.578125,-0.828125,0.0
1696253778468,-0.45166016,-0.14459229,-0.880188,0.421875,-1.5625,-0.09375
1696253778508,-0.44555664,-0.14093018,-0.85357666,-0.171875,-1.640625,0.078125
1696253778549,-0.4423828,-0.13970947,-0.85601807,0.03125,-2.6875,0.21875
1696253778588,-0.43579102,-0.13800049,-0.85040283,-0.15625,-1.265625,0.09375
1696253778632,-0.44213867,-0.1338501,-0.88409424,0.34375,-0.8125,0.25
1696253778672,-0.43676758,-0.13946533,-0.8674927,-0.625,-1.296875,0.46875
1696253778709,-0.4375,-0.1416626,-0.8555298,-0.671875,-1.5,0.328125
1696253778750,-0.4423828,-0.14434814,-0.862854,-0.96875,-2.234375,0.390625
1696253778790,-0.43896484,-0.14019775,-0.8633423,-0.9375,-1.40625,0.25
1696253778829,-0.43847656,-0.14093018,-0.86846924,-1.171875,-1.03125,0.25
1696253778870,-0.43920898,-0.14849854,-0.8748169,-1.4375,-1.828125,0.546875
1696253778910,-0.42993164,-0.1506958,-0.86138916,-1.390625,-1.8125,0.46875
1696253778949,-0.43066406,-0.1506958,-0.86065674,-1.203125,-2.0625,0.390625
1696253778988,-0.42358398,-0.15411377,-0.862854,-0.984375,-2.078125,0.53125
1696253779029,-0.41918945,-0.15460205,-0.8665161,-1.09375,-1.75,0.296875
1696253779072,-0.4189453,-0.1506958,-0.86676025,-0.828125,-1.75,0.375
1696253779111,-0.42871094,-0.16192627,-0.87457275,0.53125,0.328125,0.21875
1696253779149,-0.4230957,-0.14581299,-0.89068604,2.484375,3.484375,-0.015625
1696253779188,-0.41845703,-0.15362549,-0.8892212,1.59375,2.421875,0.0
1696253779230,-0.43066406,-0.15679932,-0.83843994,-0.859375,3.15625,0.234375
1696253779271,-0.44726562,-0.14630127,-0.85772705,0.1875,2.359375,-0.078125
1696253779308,-0.44482422,-0.14483643,-0.833313,-0.359375,0.53125,0.078125
1696253779351,-0.4350586,-0.14483643,-0.8545532,0.21875,-0.21875,0.1875
1696253779367,-0.45166016,-0.15289307,-0.8718872,0.140625,-0.15625,0.015625
1696253779410,-0.43798828,-0.15484619,-0.8674927,0.109375,-0.453125,0.140625
1696253779449,-0.43579102,-0.1560669,-0.85235596,-0.203125,-0.640625,0.234375
1696253779487,-0.4387207,-0.15020752,-0.86138916,0.203125,-0.421875,0.0625
1696253779529,-0.4399414,-0.144104,-0.8689575,0.40625,-0.328125,0.046875
1696253779569,-0.44067383,-0.14459229,-0.85357666,0.71875,-0.09375,0.015625
1696253779609,-0.44702148,-0.14019775,-0.850647,0.46875,-0.296875,-0.015625
1696253779652,-0.44458008,-0.14385986,-0.86138916,0.765625,-0.25,-0.078125
1696253779689,-0.44458008,-0.14581299,-0.8604126,0.59375,-0.734375,0.046875
1696253779730,-0.43896484,-0.14141846,-0.8587036,0.8125,-0.40625,-0.03125
1696253779769,-0.44555664,-0.14263916,-0.8530884,0.234375,-0.359375,0.21875
1696253779827,-0.44311523,-0.14093018,-0.866272,0.09375,-0.4375,0.109375
