,timestamp,accel_x,accel_y,accel_z,gyro_x,gyro_y,gyro_z
0,1696255111628,-0.05419922,-0.9920044,0.0602417,-0.734375,0.15625,-0.125
1,1696255111668,-0.048095703,-0.9976196,0.06097412,0.59375,-0.78125,-0.078125
2,1696255111708,-0.05078125,-0.99835205,0.06097412,0.6875,0.0625,-0.125
3,1696255111748,-0.046875,-0.9846802,0.06048584,1.46875,0.28125,0.09375
4,1696255111788,-0.040527344,-0.9924927,0.046813965,-0.015625,0.34375,0.046875
5,1696255111828,-0.04711914,-0.9866333,0.050231934,-0.53125,-0.21875,-0.140625
6,1696255111868,-0.038330078,-0.98883057,0.045837402,0.4375,0.25,-0.140625
7,1696255111908,-0.037841797,-0.9841919,0.054626465,-2.203125,-0.03125,0.015625
8,1696255111948,-0.041259766,-0.9854126,0.06854248,-0.984375,0.71875,-0.109375
9,1696255111988,-0.047851562,-0.99224854,0.09588623,4.375,2.1875,1.0625
10,1696255112028,-0.07324219,-1.0264282,0.059020996,8.46875,5.953125,3.390625
11,1696255112068,-0.12915039,-0.97662354,0.027526855,2.09375,8.765625,-0.1875
12,1696255112108,-0.040039062,-0.92633057,0.20599365,24.09375,19.0625,-2.28125
13,1696255112148,0.11035156,-0.9885864,0.04876709,23.25,8.5625,-4.21875
14,1696255112188,0.17211914,-1.079895,-0.17340088,-24.03125,-38.296875,-9.53125
15,1696255112228,-0.07885742,-1.2232056,-0.046203613,-14.59375,-52.0,-4.90625
16,1696255112268,-0.3022461,-1.3543091,-0.17803955,1.984375,1.71875,13.046875
17,1696255112308,-0.5539551,-0.7647095,0.29656982,18.078125,21.78125,0.296875
18,1696255112348,0.07519531,-0.70880127,-0.13922119,-6.46875,48.4375,-9.125
19,1696255112388,0.34399414,-0.66607666,-0.036193848,-3.96875,16.515625,-32.234375
20,1696255112428,0.037597656,-0.737854,-0.3945923,-9.359375,-27.578125,6.828125
21,1696255112468,0.008056641,-1.0432739,-0.058654785,-9.78125,-35.125,30.015625
22,1696255112508,-0.24169922,-1.572815,0.262146,2.15625,1.65625,12.03125
23,1696255112548,-0.21020508,-1.079895,0.1708374,7.21875,-4.265625,-13.609375
24,1696255112588,-0.091552734,-0.7620239,-0.06695557,-12.015625,46.8125,-4.953125
25,1696255112628,0.4260254,-0.6868286,-0.06524658,17.421875,5.34375,-15.765625
26,1696255112668,-0.103027344,-0.8242798,-0.1182251,-11.6875,-59.453125,5.859375
27,1696255112708,-0.42041016,-1.2146606,-0.025939941,-26.5625,-42.203125,21.71875
28,1696255112748,-0.5253906,-1.6016235,0.43328857,25.3125,20.015625,-6.65625
29,1696255112788,0.17089844,-0.815979,0.00579834,9.125,48.296875,-33.84375
30,1696255112828,0.30395508,-0.63238525,-0.26617432,-25.09375,32.734375,-18.421875
31,1696255112868,0.033203125,-0.42022705,-0.20904541,-25.0625,-56.015625,10.78125
32,1696255112908,-0.2939453,-1.3123169,0.29022217,-1.65625,-17.875,47.34375
33,1696255112948,-0.5136719,-1.6448364,0.5722046,18.1875,-5.1875,-17.453125
34,1696255112988,-0.29858398,-1.0371704,-0.08355713,-1.34375,7.28125,-21.78125
35,1696255113028,0.26342773,-0.8538208,-0.13800049,3.90625,58.28125,-8.921875
36,1696255113068,0.42236328,-0.6602173,0.0067749023,9.84375,10.421875,-0.375
37,1696255113108,-0.31884766,-1.0252075,-0.15386963,-9.34375,-54.40625,19.28125
38,1696255113148,-0.4284668,-1.2559204,0.16937256,-9.84375,-39.734375,6.640625
39,1696255113188,-0.23388672,-1.1829224,0.19769287,12.921875,4.484375,-3.90625
40,1696255113228,-0.19897461,-0.79815674,-0.15216064,24.875,36.421875,-1.984375
41,1696255113268,0.2849121,-0.55474854,-0.1338501,12.78125,13.90625,-14.75
42,1696255113308,0.2355957,-0.72125244,-0.03643799,18.84375,-20.921875,10.328125
43,1696255113348,-0.3815918,-1.3401489,-0.07305908,4.734375,-33.953125,33.734375
44,1696255113388,-0.5617676,-1.2158813,0.050964355,-4.515625,-18.625,21.625
45,1696255113428,-0.29296875,-0.881897,0.2008667,31.734375,9.984375,13.53125
46,1696255113468,0.15307617,-0.9624634,-0.0881958,5.0625,4.421875,15.140625
47,1696255113508,0.23168945,-0.9209595,-0.15338135,-13.984375,-6.984375,35.796875
48,1696255113548,-0.079589844,-0.8377075,0.042663574,20.015625,-1.296875,42.1875
49,1696255113588,-0.34814453,-1.065979,0.16668701,46.984375,-10.4375,30.109375
50,1696255113628,-0.25634766,-1.0391235,-0.21832275,26.375,1.546875,31.703125
51,1696255113668,0.49194336,-0.8115845,-0.3899536,42.53125,0.28125,39.109375
52,1696255113708,0.52783203,-1.1084595,-0.07330322,35.546875,12.515625,49.53125
53,1696255113748,0.3701172,-1.8753052,-0.28741455,-22.328125,7.828125,56.34375
54,1696255113788,0.0026855469,-0.9365845,-1.046936,5.96875,-22.015625,-1.34375
55,1696255113828,0.82006836,-1.3154907,-0.5930786,37.21875,55.296875,18.53125
56,1696255113868,0.88012695,-1.3010864,-0.42340088,11.5625,33.234375,8.6875
57,1696255113908,0.4963379,-0.99346924,-0.54351807,21.8125,16.453125,-0.296875
58,1696255113948,0.63061523,-0.97540283,-0.72857666,-5.8125,18.515625,-12.03125
59,1696255113988,0.54296875,-1.0759888,-0.41436768,-16.796875,9.25,-13.765625
60,1696255114028,0.42822266,-0.91851807,-0.50494385,-22.59375,-7.0625,-17.625
61,1696255114068,0.13061523,-0.8074341,-0.46661377,-30.34375,-1.78125,-23.65625
62,1696255114108,0.13061523,-0.99102783,-0.3633423,-32.515625,18.890625,-26.875
63,1696255114148,0.15576172,-0.7905884,-0.18780518,-37.3125,11.15625,-42.515625
64,1696255114188,0.13085938,-0.8230591,-0.19708252,-51.875,18.359375,-46.234375
65,1696255114228,0.18115234,-0.67193604,-0.26275635,-54.5,27.28125,-45.09375
66,1696255114268,-0.009277344,-0.39312744,-0.08477783,-47.765625,28.4375,-24.203125
67,1696255114308,0.1743164,-0.057922363,-0.058410645,-41.953125,15.40625,-18.0625
68,1696255114348,0.013916016,0.016296387,-0.12628174,-39.578125,-8.28125,-25.265625
69,1696255114388,-0.0026855469,-0.12359619,-0.105529785,-27.625,-7.65625,-19.28125
70,1696255114428,-0.118896484,-0.3875122,-0.13409424,-29.8125,-19.078125,0.203125
71,1696255114468,-0.45947266,-1.0982056,0.10809326,-13.109375,9.546875,47.328125
72,1696255114508,0.99121094,-2.0,0.50579834,32.171875,2.3125,1.46875
73,1696255114548,-0.079833984,-1.1414185,0.12738037,-2.765625,-28.234375,-35.796875
74,1696255114588,-0.24853516,-0.54278564,-0.05279541,-18.203125,-12.046875,-7.015625
75,1696255114628,0.046142578,-0.2654419,-0.10626221,21.953125,-13.109375,-3.703125
76,1696255114668,0.021484375,-0.6741333,-0.057434082,26.3125,-8.203125,12.71875
77,1696255114708,-0.011230469,-1.2268677,-0.0037231445,3.5625,-3.09375,38.3125
78,1696255114748,0.022705078,-1.1626587,0.008483887,13.203125,8.765625,19.28125
79,1696255114788,-0.03125,-0.45025635,-0.070617676,18.03125,5.84375,15.171875
80,1696255114828,0.04663086,0.17132568,-0.031311035,35.828125,-19.671875,30.921875
81,1696255114868,-0.076416016,0.35687256,-0.02911377,64.015625,-18.71875,46.953125
82,1696255114908,0.12084961,0.23553467,-0.24517822,68.34375,2.625,50.40625
83,1696255114948,0.28588867,-0.26885986,-0.35113525,54.265625,18.953125,50.359375
84,1696255114988,0.58154297,-0.9302368,-0.3164673,45.46875,11.625,59.125
85,1696255115028,1.517334,-2.0,-0.39971924,21.046875,-67.546875,35.703125
86,1696255115068,0.27563477,-1.0178833,-0.3057251,-2.234375,-23.9375,14.328125
87,1696255115108,0.16381836,-1.1362915,-0.3242798,-9.234375,-31.484375,-18.890625
88,1696255115148,0.6887207,-1.166565,-0.7542114,16.671875,17.984375,-22.640625
89,1696255115188,0.85009766,-1.3301392,-0.32208252,-37.3125,9.8125,-2.765625
90,1696255115228,0.2697754,-1.256897,-0.34942627,-36.15625,-20.78125,-42.03125
91,1696255115268,0.6821289,-1.8948364,-0.7461548,-4.53125,14.953125,-37.265625
92,1696255115308,1.0197754,-1.5125122,-0.28546143,-22.59375,-3.421875,-8.875
93,1696255115348,0.26513672,-1.2026978,-0.2720337,48.09375,-14.296875,-19.75
94,1696255115388,-0.4794922,-1.0147095,-0.3513794,-8.421875,-1.515625,-18.578125
95,1696255115428,-0.4975586,-0.7061157,0.06072998,-15.5,-5.71875,-13.765625
96,1696255115468,-0.110839844,-0.80303955,0.038024902,-11.421875,6.109375,-27.546875
97,1696255115508,0.08935547,-0.84259033,-0.14727783,-8.96875,41.5625,-32.171875
98,1696255115548,0.44335938,-0.7654419,-0.20147705,-15.453125,21.140625,-35.5
99,1696255115588,0.40673828,-0.9788208,-0.3743286,-28.328125,-22.34375,-27.703125
100,1696255115628,-0.024414062,-0.9812622,-0.33673096,-44.25,-32.71875,3.265625
101,1696255115668,-0.34594727,-1.0447388,-0.08380127,-18.078125,-12.609375,5.375
102,1696255115708,-0.1796875,-1.048645,0.24334717,-6.265625,-8.0625,-12.5625
103,1696255115748,-0.09301758,-1.0308228,-0.19293213,-1.15625,29.328125,5.703125
104,1696255115788,0.3947754,-0.9990845,0.04119873,3.625,27.171875,-17.359375
105,1696255115828,0.1665039,-1.039856,-0.44049072,-23.28125,-5.078125,-4.859375
106,1696255115868,0.0048828125,-0.69366455,0.009460449,6.609375,-13.96875,-5.9375
107,1696255115908,-0.33666992,-0.881897,-0.0037231445,-4.765625,-16.0,0.34375
108,1696255115948,-0.5600586,-1.1372681,0.43255615,4.609375,-23.53125,6.421875
109,1696255115988,0.16894531,-1.1218872,-0.36480713,-1.96875,22.421875,15.734375
110,1696255116028,0.07836914,-1.1741333,-0.27960205,15.375,35.453125,-9.4375
111,1696255116068,0.38232422,-0.8743286,0.15325928,33.484375,21.234375,3.40625
112,1696255116108,0.13330078,-0.63409424,-0.20220947,13.78125,-18.515625,8.71875
113,1696255116148,-0.24926758,-0.74176025,-0.0037231445,-35.28125,-30.140625,4.328125
114,1696255116188,-0.55200195,-1.2546997,0.10247803,20.578125,-14.171875,21.484375
115,1696255116228,-0.033203125,-1.125061,-0.19586182,18.75,47.46875,20.625
116,1696255116268,0.85913086,-0.7576294,-0.46392822,22.375,2.546875,-1.296875
117,1696255116308,0.28808594,-0.6506958,0.13812256,30.921875,-13.734375,18.203125
118,1696255116348,-0.3527832,-1.0947876,-0.46099854,16.890625,-42.203125,29.875
119,1696255116388,-0.56591797,-1.1248169,-0.24176025,-8.953125,-19.21875,30.828125
120,1696255116428,0.375,-0.8977661,-0.10723877,36.40625,8.21875,35.484375
121,1696255116468,0.020263672,-0.87872314,-0.269104,-18.359375,6.71875,45.171875
122,1696255116508,0.5202637,-1.2085571,-0.16534424,4.734375,-14.421875,40.359375
123,1696255116548,0.54663086,-1.4326782,-0.18634033,-9.921875,-6.015625,53.0
124,1696255116588,0.095214844,-1.4893188,-0.6087036,-4.203125,-10.6875,5.96875
125,1696255116628,0.8442383,-1.3904419,-0.36602783,17.4375,22.78125,19.1875
126,1696255116668,0.76171875,-0.90411377,-0.30645752,44.296875,44.5625,-7.609375
127,1696255116708,0.79467773,-0.9522095,-0.6033325,45.015625,44.0,-6.265625
128,1696255116748,0.9001465,-1.0447388,-0.70758057,10.984375,5.09375,-7.5
129,1696255116788,0.79296875,-1.0657349,-0.4048462,-7.984375,-25.984375,-21.296875
130,1696255116828,0.7663574,-1.1619263,-0.45684814,-16.390625,-17.859375,-41.046875
131,1696255116868,0.35253906,-0.70440674,-0.6831665,-53.09375,-26.1875,-45.125
132,1696255116908,0.27246094,-0.66534424,-0.46929932,-28.3125,0.25,-39.671875
133,1696255116948,-0.13305664,-0.35162354,-0.2576294,-52.453125,-19.1875,-37.546875
134,1696255116988,-0.099853516,-0.4824829,0.23895264,-7.078125,21.015625,-36.265625
135,1696255117028,0.18774414,-0.4595337,-0.42364502,-41.9375,-10.4375,-48.421875
136,1696255117068,0.25634766,-0.46173096,-0.1572876,-22.4375,-5.640625,-56.375
137,1696255117108,0.14941406,-0.68951416,-0.10357666,-47.796875,-39.578125,-31.765625
138,1696255117148,-0.31030273,-0.40411377,-0.059143066,-58.359375,-27.46875,-11.703125
139,1696255117188,-0.5336914,-0.36749268,0.21673584,-3.53125,21.03125,-3.171875
140,1696255117228,-0.017822266,-0.56622314,-0.14385986,-34.75,34.578125,-22.0
141,1696255117268,-0.055664062,-1.0745239,-0.089660645,-36.3125,14.390625,-13.375
142,1696255117308,0.3334961,-1.5674438,0.4389038,-16.859375,19.546875,5.46875
143,1696255117348,-0.08911133,-1.0613403,0.2994995,19.953125,13.640625,-25.5
144,1696255117388,0.019042969,-0.6069946,0.010925293,-14.140625,-10.34375,-35.3125
145,1696255117428,-0.23486328,-0.6211548,-0.070373535,-31.421875,-29.46875,-4.984375
146,1696255117468,-0.43579102,-0.90948486,0.17327881,-1.25,21.328125,18.34375
147,1696255117508,-0.31835938,-1.467102,0.44476318,9.453125,34.609375,14.53125
148,1696255117548,0.16870117,-0.86383057,0.2267456,1.671875,14.828125,-24.953125
149,1696255117588,0.049804688,-0.81695557,-0.00982666,2.359375,-6.515625,-1.359375
150,1696255117628,0.21313477,-0.9968872,0.14593506,5.4375,0.203125,18.203125
151,1696255117668,0.0056152344,-1.0115356,0.35980225,3.09375,-24.515625,11.390625
152,1696255117708,-0.37329102,-0.9385376,0.12957764,-11.25,-25.0625,19.1875
153,1696255117748,-0.21459961,-0.9968872,0.13031006,11.15625,-1.484375,-2.0625
154,1696255117788,0.01977539,-1.0806274,0.31976318,32.578125,12.25,0.296875
155,1696255117828,-0.15478516,-1.1067505,0.15081787,-3.9375,21.078125,15.9375
156,1696255117868,-0.21166992,-0.79400635,0.35614014,1.359375,5.890625,10.125
157,1696255117908,-0.8310547,-1.0388794,0.15814209,8.265625,37.984375,20.71875
158,1696255117948,-0.3515625,-1.0813599,-0.101379395,14.515625,94.515625,12.6875
159,1696255117988,0.13378906,-0.9937134,-0.11016846,24.421875,116.265625,6.03125
160,1696255118028,0.47998047,-0.8772583,0.12567139,23.96875,95.34375,12.265625
161,1696255118068,-0.10058594,-0.90826416,0.18914795,19.890625,68.484375,2.984375
162,1696255118108,-0.57910156,-0.847229,-0.06304932,-8.484375,38.078125,-3.953125
163,1696255118148,-0.71069336,-0.8401489,-0.17047119,-5.09375,60.75,-0.5
164,1696255118188,-0.4958496,-0.9277954,-0.17022705,-0.15625,103.625,22.390625
165,1696255118228,-0.06591797,-1.1204224,-0.089660645,-14.46875,87.609375,34.203125
166,1696255118268,0.20751953,-1.0994263,-0.08843994,4.421875,60.625,10.765625
167,1696255118308,0.12451172,-0.9680786,0.014831543,14.5625,28.421875,-4.1875
168,1696255118348,-0.15917969,-0.74420166,-0.2871704,-11.15625,5.9375,-1.3125
169,1696255118388,-0.0063476562,-0.9924927,-0.36383057,-4.21875,34.015625,15.4375
170,1696255118428,0.4555664,-1.5960083,-0.237854,16.015625,13.6875,29.640625
171,1696255118468,0.10131836,-1.2732544,0.05267334,6.671875,19.21875,-2.625
172,1696255118508,-0.041259766,-0.6824341,0.0848999,-11.78125,49.78125,-2.65625
173,1696255118548,-0.024414062,-0.6958618,-0.20489502,-13.46875,23.265625,11.40625
174,1696255118588,0.34301758,-1.2695923,-0.077697754,16.765625,56.4375,21.859375
175,1696255118628,0.27661133,-1.4026489,0.26116943,-5.25,41.453125,16.703125
176,1696255118668,-0.09887695,-0.77008057,0.2086792,-12.734375,32.890625,2.53125
177,1696255118708,-0.36450195,-0.43023682,-0.047424316,-12.046875,42.71875,-10.515625
178,1696255118748,-0.4189453,-0.62091064,-0.5444946,11.578125,49.296875,1.484375
179,1696255118788,0.26391602,-0.8870239,-0.047668457,-24.265625,79.96875,10.953125
180,1696255118828,0.564209,-0.8423462,0.09710693,9.171875,68.65625,-0.765625
181,1696255118868,0.040771484,-0.82818604,-0.7251587,10.3125,21.265625,-32.4375
182,1696255118908,0.9145508,-1.546936,-0.6199341,82.265625,36.625,34.28125
183,1696255118948,0.6398926,-1.3550415,0.24188232,-37.5,-0.1875,27.734375
184,1696255118988,-0.015625,-0.87506104,-0.2156372,-34.453125,-93.265625,10.78125
185,1696255119028,-0.25854492,-1.3374634,-0.24053955,12.703125,-40.734375,-21.171875
186,1696255119068,-0.25073242,-1.2437134,-0.23321533,1.375,6.296875,17.375
187,1696255119108,-0.17285156,-1.3860474,-0.14385986,-11.390625,-6.421875,25.859375
188,1696255119148,-0.029541016,-0.7490845,-0.0095825195,-39.75,-2.25,-0.609375
189,1696255119188,0.12084961,-0.43292236,-0.074035645,-29.765625,3.71875,-29.6875
190,1696255119228,0.07373047,-0.33648682,-0.053771973,-5.71875,8.859375,-48.65625
191,1696255119268,-0.0847168,-0.47052002,-0.017150879,5.921875,-7.109375,-33.59375
192,1696255119308,-0.32910156,-0.5298462,-0.47174072,-14.234375,-9.625,-22.28125
193,1696255119348,-0.4230957,-1.5046997,-0.09552002,-22.9375,48.578125,2.34375
194,1696255119388,1.9309082,-2.0,0.09979248,41.296875,40.265625,12.4375
195,1696255119428,0.19165039,-1.0193481,0.20965576,0.703125,24.140625,-41.65625
196,1696255119468,-0.41259766,-1.003479,-0.15411377,-29.953125,7.296875,8.921875
197,1696255119508,-0.036621094,-0.81866455,-0.008605957,29.921875,-9.90625,8.203125
198,1696255119548,0.48535156,-0.72613525,0.2230835,9.5625,31.421875,7.953125
199,1696255119588,0.5422363,-0.81256104,0.10028076,-25.484375,0.875,12.78125
200,1696255119628,0.10571289,-0.723938,0.08831787,-6.71875,-25.140625,-7.5
201,1696255119668,-0.31323242,-0.6589966,0.23382568,-3.046875,-23.296875,-19.09375
202,1696255119708,-0.54785156,-0.7034302,0.16912842,-6.34375,12.796875,-8.0
203,1696255119748,0.048339844,-0.5918579,-0.16802979,-2.578125,34.125,5.3125
204,1696255119788,1.1542969,-2.0,-0.5742798,89.515625,11.640625,86.234375
205,1696255119828,0.75097656,-1.6748657,0.28118896,33.125,-3.34375,-22.421875
206,1696255119868,-0.90478516,-0.9246216,-0.6675415,-57.6875,-101.953125,9.9375
207,1696255119908,-0.9963379,-0.85040283,-0.19708252,-2.703125,-3.078125,-11.359375
208,1696255119948,0.16503906,-1.0169067,-0.13604736,69.640625,42.078125,7.140625
209,1696255119988,0.4411621,-1.0872192,0.06781006,-3.28125,-20.0,14.875
210,1696255120028,-0.053466797,-0.6380005,-0.17071533,-22.59375,-37.1875,6.890625
211,1696255120068,-0.29663086,-0.552063,-0.29840088,-18.328125,-25.40625,-5.5
212,1696255120108,-0.30615234,-0.61920166,-0.077697754,-9.15625,10.6875,-9.859375
213,1696255120148,-0.15893555,-0.77911377,0.02947998,-13.328125,10.078125,3.15625
214,1696255120188,0.08618164,-0.8687134,0.015808105,-32.171875,-17.203125,-1.0
215,1696255120228,0.18481445,-0.8501587,-0.3255005,-23.4375,-20.125,-21.65625
216,1696255120268,-0.2121582,-1.3980103,-0.062805176,17.234375,28.125,-2.109375
217,1696255120308,0.7163086,-1.8145142,0.50653076,-9.578125,0.921875,34.0625
218,1696255120348,0.8286133,-1.1494751,0.36419678,17.75,-32.375,-2.453125
219,1696255120388,-0.3713379,-0.95269775,0.11883545,-14.234375,23.78125,2.4375
220,1696255120428,-0.2133789,-1.40094,0.12322998,39.234375,12.9375,4.75
221,1696255120468,0.36645508,-0.7871704,0.15032959,17.546875,44.75,-17.28125
222,1696255120508,0.4267578,-0.48345947,0.055847168,27.171875,17.015625,-3.640625
223,1696255120548,0.24829102,-0.54107666,-0.04840088,8.703125,-1.5625,4.28125
224,1696255120588,0.18701172,-0.4121704,0.3703003,4.203125,-0.09375,-0.734375
225,1696255120628,-0.04296875,-0.5757446,0.073913574,9.953125,-15.984375,-11.25
226,1696255120668,-0.22241211,-0.7866821,-0.44366455,-11.890625,-23.625,-13.234375
227,1696255120708,-0.15844727,-1.404602,-0.33306885,-9.984375,4.125,-7.84375
228,1696255120748,0.9301758,-2.0,-0.302063,-1.359375,23.09375,4.21875
229,1696255120788,-0.012939453,-0.911438,-0.2942505,-37.375,-57.671875,-18.765625
230,1696255120828,-0.16821289,-0.7554321,-0.3320923,-39.65625,-84.515625,-25.90625
231,1696255120868,0.09863281,-1.135315,-0.19464111,47.78125,-22.359375,-1.6875
232,1696255120908,0.24414062,-1.2505493,-0.27520752,24.515625,-66.109375,4.75
233,1696255120948,0.07128906,-0.8274536,-0.22467041,-6.84375,-68.546875,-26.203125
234,1696255120988,-0.036376953,-0.35943604,-0.32696533,-7.328125,-98.53125,-25.234375
235,1696255121028,-0.05078125,-0.4512329,-0.30377197,16.90625,-99.34375,12.265625
236,1696255121068,0.31811523,-0.4180298,-0.16046143,15.640625,-92.171875,29.484375
237,1696255121108,0.39892578,-0.51885986,-0.23077393,3.390625,-119.171875,26.828125
238,1696255121148,0.6262207,-1.3833618,-0.53570557,11.890625,-127.1875,33.1875
239,1696255121188,0.20141602,-2.0,0.3522339,-1.890625,-72.578125,-6.28125
240,1696255121228,-0.4724121,-0.9439087,-6.1035156e-05,-29.4375,-49.609375,-23.328125
241,1696255121268,-0.024169922,-0.47735596,-0.21417236,-2.578125,-39.421875,-38.796875
242,1696255121308,0.055664062,-0.29693604,0.17059326,38.859375,-8.0625,-18.984375
243,1696255121348,0.44213867,-0.44073486,0.13397217,6.46875,-9.796875,11.59375
244,1696255121388,0.50097656,-0.6428833,0.11273193,-9.59375,-45.71875,5.921875
245,1696255121428,0.59814453,-0.87091064,0.074157715,7.125,-67.59375,3.53125
246,1696255121468,0.3762207,-1.2263794,0.04534912,12.328125,-77.375,25.421875
247,1696255121508,0.23046875,-1.9871216,-0.27911377,22.890625,-57.5,21.0
248,1696255121548,0.14282227,-1.4485474,0.010437012,22.96875,-26.125,-0.6875
249,1696255121588,-0.2631836,-1.2549438,-0.2913208,9.3125,-15.609375,2.8125
250,1696255121628,0.02319336,-0.45880127,-0.20196533,-7.71875,-15.984375,-4.328125
251,1696255121668,0.13232422,0.124938965,0.013122559,25.046875,-0.765625,15.75
252,1696255121708,0.053466797,0.3673706,0.15032959,58.28125,-11.84375,22.46875
253,1696255121748,-0.36523438,0.23553467,-0.10040283,31.765625,6.671875,17.1875
254,1696255121788,0.07006836,-0.2366333,-0.066467285,58.578125,13.828125,11.453125
255,1696255121828,0.37158203,-0.70635986,-0.4024048,53.546875,7.90625,37.125
256,1696255121868,1.0922852,-1.3152466,-0.16461182,52.484375,-15.703125,63.609375
257,1696255121908,0.08178711,-0.89508057,-0.23345947,27.90625,-27.734375,27.75
258,1696255121948,-0.024658203,-0.9429321,-0.3814087,20.140625,0.0625,22.234375
259,1696255121988,0.29125977,-0.5755005,-0.7178345,3.78125,15.375,4.8125
260,1696255122028,1.1298828,-0.46368408,-0.4036255,23.5625,-1.578125,8.0
261,1696255122068,1.2246094,-1.4324341,-0.36187744,-5.8125,-17.1875,21.046875
262,1696255122108,0.9338379,-1.2822876,-0.76348877,-10.6875,-61.71875,-2.265625
263,1696255122148,0.4140625,-0.8569946,-0.7070923,2.09375,-17.015625,-10.921875
264,1696255122188,0.59350586,-0.8201294,-0.4973755,2.328125,-9.59375,3.25
265,1696255122228,0.890625,-1.5247192,-0.70806885,-31.578125,-17.140625,13.453125
266,1696255122268,1.0144043,-1.3447876,-0.7210083,1.25,1.59375,-3.109375
267,1696255122308,1.234375,-1.2227173,-0.6668091,-15.1875,0.046875,-5.390625
268,1696255122348,0.8286133,-1.2236938,-0.59259033,-14.609375,18.953125,-18.828125
269,1696255122388,0.5859375,-1.2996216,-0.6856079,11.5,21.09375,-27.84375
270,1696255122428,0.6530762,-1.177063,-0.45513916,13.6875,32.21875,-13.25
271,1696255122468,0.703125,-1.0564575,-0.47808838,6.890625,21.5625,-13.625
272,1696255122508,0.5913086,-1.0584106,-0.4644165,-1.078125,14.5,-22.96875
273,1696255122548,0.38891602,-1.0193481,-0.46392822,-7.296875,12.96875,-22.59375
274,1696255122588,0.41796875,-0.9229126,-0.3501587,-16.140625,-3.953125,-26.609375
275,1696255122628,0.42114258,-0.77789307,-0.28302002,-14.046875,2.34375,-27.234375
276,1696255122668,0.2421875,-0.8093872,-0.2456665,-20.71875,0.828125,-32.234375
277,1696255122708,0.23413086,-0.6777954,-0.053527832,-23.140625,4.546875,-40.90625
278,1696255122748,0.099609375,-0.41119385,-0.12335205,-21.59375,11.3125,-37.234375
279,1696255122788,0.1574707,0.11175537,-0.300354,-39.359375,-8.8125,-27.140625
280,1696255122828,0.061035156,0.28729248,-0.3189087,-22.5,-7.15625,-18.34375
281,1696255122868,0.21704102,0.39178467,-0.073791504,8.796875,16.125,-11.78125
282,1696255122908,0.037597656,-0.36846924,-0.41558838,-21.046875,-8.09375,18.046875
283,1696255122948,0.15014648,-1.0918579,-0.3081665,2.203125,34.234375,29.984375
284,1696255122988,0.40454102,-1.7651978,0.05706787,26.078125,-3.28125,13.234375
285,1696255123028,0.43725586,-1.0322876,-0.0012817383,13.71875,11.53125,6.140625
286,1696255123068,0.2668457,-0.32330322,-0.12799072,15.140625,9.96875,5.015625
287,1696255123108,0.12084961,0.1005249,-0.2288208,14.3125,-30.953125,5.0625
288,1696255123148,0.1262207,0.02532959,-0.12554932,20.203125,-20.125,19.53125
289,1696255123188,0.06616211,-0.030090332,-0.10870361,28.0625,-1.625,35.390625
290,1696255123228,-0.060546875,-0.23492432,-0.12213135,38.328125,-3.125,41.484375
291,1696255123268,-0.05908203,-0.6880493,-0.45343018,30.0625,0.6875,45.78125
292,1696255123308,0.4243164,-1.2769165,-0.22808838,37.890625,2.34375,19.59375
293,1696255123348,0.7944336,-1.3389282,-0.21710205,27.5625,17.78125,35.34375
294,1696255123388,0.56762695,-0.83013916,-0.440979,-4.796875,-12.046875,21.15625
295,1696255123428,0.48364258,-0.86968994,-0.84552,-2.203125,-46.375,16.609375
296,1696255123468,0.91674805,-1.0215454,-0.6734009,11.84375,3.84375,27.375
297,1696255123508,1.3364258,-1.6694946,-0.71710205,-2.640625,-13.46875,11.71875
298,1696255123548,0.7260742,-1.4075317,-0.861145,-14.9375,-24.890625,-26.453125
299,1696255123588,0.66796875,-1.2739868,-1.1589966,-16.328125,-6.1875,-15.125
300,1696255123628,0.9536133,-1.447815,-0.95806885,-5.375,30.328125,-2.21875
301,1696255123668,0.92578125,-1.3916626,-0.66119385,-9.375,15.25,-24.546875
302,1696255123708,0.8300781,-1.1809692,-0.70513916,-9.28125,0.734375,-21.203125
303,1696255123748,0.67285156,-0.9663696,-0.51885986,-5.0,2.90625,-22.3125
304,1696255123788,0.39233398,-0.9746704,-0.472229,-4.390625,-6.125,-22.515625
305,1696255123828,0.26708984,-1.0044556,-0.48492432,-22.34375,8.09375,-15.75
306,1696255123868,0.3425293,-0.96343994,-0.39898682,-15.359375,4.296875,-26.9375
307,1696255123908,0.23413086,-0.95318604,-0.33062744,-18.84375,13.578125,-24.234375
308,1696255123948,0.2578125,-0.80670166,-0.27008057,-23.78125,10.671875,-29.5625
309,1696255123988,0.18383789,-0.6790161,-0.25738525,-26.96875,8.9375,-38.359375
310,1696255124028,0.2487793,-0.4890747,-0.16217041,-33.109375,6.9375,-39.6875
311,1696255124068,0.3227539,-0.16339111,-0.18902588,-29.578125,12.625,-35.46875
312,1696255124108,0.46313477,-0.06451416,-0.10650635,-35.484375,11.453125,-41.625
313,1696255124148,0.05029297,0.11077881,0.09442139,-17.71875,-17.25,-25.3125
314,1696255124188,-0.27172852,-0.062805176,-0.09185791,-3.78125,-19.578125,3.609375
315,1696255124228,-0.075683594,-0.4336548,-0.32720947,-18.671875,-8.796875,15.75
316,1696255124268,0.3395996,-1.3233032,-0.31304932,11.984375,19.78125,20.015625
317,1696255124308,0.41137695,-1.7019653,0.18109131,28.828125,-19.890625,16.421875
318,1696255124348,0.12695312,-1.0840454,-0.12408447,9.015625,-3.796875,12.140625
319,1696255124388,0.099121094,-0.6235962,-0.18048096,3.53125,20.4375,9.140625
320,1696255124428,0.042236328,-0.3032837,-0.21148682,15.84375,-7.21875,5.046875
321,1696255124468,0.056396484,-0.113586426,-0.04083252,36.171875,-4.4375,24.453125
322,1696255124508,0.06225586,0.029968262,0.038024902,42.28125,8.765625,38.171875
323,1696255124548,-0.06665039,0.09222412,-0.16656494,26.78125,-1.90625,32.78125
324,1696255124588,-0.11279297,-0.2354126,-0.18951416,30.765625,7.625,33.53125
325,1696255124628,0.12426758,-0.68829346,-0.30841064,31.359375,17.96875,41.171875
326,1696255124668,0.5031738,-1.1143188,-0.2564087,43.171875,3.5625,43.390625
327,1696255124708,0.75683594,-1.0852661,-0.24249268,26.71875,-5.828125,41.1875
328,1696255124748,0.59228516,-1.0071411,-0.2078247,-2.296875,-16.375,8.265625
329,1696255124788,0.53125,-1.0794067,-0.8665161,-19.25,-40.34375,2.390625
330,1696255124828,0.97387695,-1.352356,-0.8604126,8.734375,-32.4375,37.09375
331,1696255124868,0.9609375,-1.1958618,-0.302063,-11.5625,-6.15625,10.6875
332,1696255124908,0.8691406,-1.5859985,-1.0508423,1.78125,-19.9375,-12.453125
333,1696255124948,0.8129883,-1.4265747,-1.0108032,-14.90625,-5.734375,-3.734375
334,1696255124988,0.9880371,-1.2720337,-0.7876587,6.875,24.21875,-11.703125
335,1696255125028,0.77246094,-1.123352,-0.7402954,-2.828125,12.34375,-17.359375
336,1696255125068,0.6862793,-1.0564575,-0.7671509,-5.328125,8.125,-7.03125
337,1696255125108,0.6755371,-0.99420166,-0.5796509,7.03125,17.078125,-9.4375
338,1696255125148,0.6171875,-1.0166626,-0.5071411,3.140625,8.5625,-14.59375
339,1696255125188,0.48364258,-1.0012817,-0.5198364,-8.546875,1.828125,-20.546875
340,1696255125228,0.4230957,-0.8845825,-0.41778564,-9.484375,7.78125,-19.671875
341,1696255125268,0.39868164,-0.8518677,-0.33843994,-16.546875,0.671875,-22.203125
342,1696255125308,0.30322266,-0.9614868,-0.40631104,-24.953125,-7.71875,-34.0625
343,1696255125348,0.21362305,-1.0127563,-0.43463135,-26.4375,-11.15625,-40.0625
344,1696255125388,0.27783203,-1.1470337,-0.28033447,-24.265625,5.71875,-32.796875
345,1696255125428,0.5703125,-0.9470825,-0.044006348,-11.875,24.625,-29.4375
346,1696255125468,0.20263672,-0.23809814,0.13372803,-48.890625,-22.546875,-35.921875
347,1696255125508,-0.18701172,0.5934448,-0.29644775,-58.203125,-41.0625,-32.6875
348,1696255125548,0.13745117,1.1432495,-0.07598877,-20.390625,3.03125,-56.171875
349,1696255125588,0.40429688,0.30340576,-0.1951294,32.5625,-9.6875,9.484375
350,1696255125628,0.18676758,-0.54351807,-0.5064087,-9.625,-43.328125,50.0
351,1696255125668,-0.4868164,-2.0,-0.41436768,-12.046875,22.59375,50.671875
352,1696255125708,0.73876953,-1.9880981,-0.08111572,43.1875,-39.046875,-28.421875
353,1696255125748,0.61621094,-1.3560181,-0.10357666,-12.25,15.375,20.140625
354,1696255125788,0.44848633,-0.710022,-0.14337158,9.859375,-16.71875,-27.828125
355,1696255125828,0.0041503906,-0.32965088,-0.043273926,12.8125,-55.515625,-31.59375
356,1696255125868,0.2097168,-0.43902588,0.018493652,-4.015625,-44.28125,11.796875
357,1696255125908,0.30078125,-0.7341919,0.016296387,4.921875,-39.546875,21.796875
358,1696255125948,0.20996094,-1.5859985,0.3048706,12.375,-45.234375,-32.859375
359,1696255125988,0.06982422,-1.2605591,0.15570068,5.734375,-23.71875,-49.703125
360,1696255126028,0.19042969,-0.82940674,-0.030090332,-3.078125,-16.21875,-34.078125
361,1696255126068,0.3479004,-0.5911255,-0.34381104,-22.28125,-60.140625,-29.4375
362,1696255126108,0.6101074,-0.95391846,-0.3892212,10.625,-67.296875,9.78125
363,1696255126148,-0.13305664,-1.3218384,-0.27105713,5.828125,-59.46875,18.53125
364,1696255126188,-0.09863281,-1.0234985,-0.26055908,8.09375,-87.78125,-22.609375
365,1696255126228,-0.27734375,-1.1582642,-0.39630127,4.265625,-63.546875,-29.171875
366,1696255126268,-0.0012207031,-0.9529419,-0.1572876,22.3125,-43.640625,-8.609375
367,1696255126308,0.29467773,-0.88653564,-0.2852173,22.90625,-78.4375,-6.0
368,1696255126348,0.31811523,-0.82891846,-0.24835205,5.65625,-112.453125,-19.296875
369,1696255126388,0.21972656,-0.7959595,-0.39361572,6.53125,-134.1875,-14.890625
370,1696255126428,0.0026855469,-0.76934814,-0.54351807,10.484375,-134.3125,-19.484375
371,1696255126468,0.038330078,-0.8032837,-0.43170166,33.015625,-124.890625,-30.1875
372,1696255126508,0.47045898,-0.75006104,-0.1873169,27.8125,-117.09375,-22.625
373,1696255126548,0.3569336,-0.9234009,-0.3098755,9.890625,-146.42188,-30.515625
374,1696255126588,0.099365234,-1.5320435,-0.28668213,-0.109375,-173.70312,-34.59375
375,1696255126628,-0.20727539,-1.3579712,-0.21246338,-0.375,-124.015625,-24.109375
376,1696255126668,0.00024414062,-0.6343384,-0.08453369,-8.59375,-112.65625,-32.03125
377,1696255126708,0.19091797,-0.32989502,-0.3838501,-9.0,-118.96875,-36.53125
378,1696255126748,0.17626953,-0.7192993,-0.911438,12.046875,-122.359375,-8.265625
379,1696255126788,-0.20654297,-1.4299927,-0.56329346,31.890625,-125.625,33.71875
380,1696255126828,-0.3947754,-1.4949341,-0.032287598,8.984375,-115.703125,-4.34375
381,1696255126868,-0.1496582,-0.8826294,-0.14630127,14.9375,-118.53125,-27.359375
382,1696255126908,-0.036865234,-0.70025635,-0.38555908,16.296875,-77.4375,-18.03125
383,1696255126948,0.02319336,-0.57940674,-0.41583252,32.515625,-94.96875,-1.796875
384,1696255126988,0.076171875,-0.47125244,-0.10455322,15.765625,-94.53125,4.1875
385,1696255127028,0.09423828,-0.5405884,-0.023498535,5.59375,-116.546875,-6.0625
386,1696255127068,-0.07397461,-2.0,-0.2703247,14.796875,-114.375,-1.03125
387,1696255127108,0.45898438,-1.7212524,0.2929077,30.375,-127.5,-31.625
388,1696255127148,-0.032958984,-1.0283813,-0.22369385,-12.609375,-116.84375,-37.671875
389,1696255127188,-0.11767578,-0.64508057,-0.028381348,0.0,-94.03125,-27.546875
390,1696255127228,-0.18969727,-0.49249268,0.046081543,-0.265625,-92.296875,-15.140625
391,1696255127268,0.07446289,-0.47125244,-0.24224854,-20.890625,-74.515625,-0.953125
392,1696255127308,0.9589844,-1.2393188,-0.6663208,23.859375,-102.59375,40.78125
393,1696255127348,0.6237793,-1.4260864,-0.2210083,47.515625,-138.23438,6.265625
394,1696255127388,-1.2255859,-1.7305298,-1.0281372,-18.03125,-200.60938,-32.9375
395,1696255127428,-1.0883789,-0.74713135,-0.042053223,15.609375,-63.3125,-21.859375
396,1696255127468,-0.0061035156,-0.5689087,-0.19708252,31.3125,-40.1875,1.6875
397,1696255127508,0.47436523,-0.4961548,-0.30670166,47.75,-64.46875,-1.1875
398,1696255127548,0.51220703,-0.6968384,-0.3008423,20.34375,-125.203125,-5.921875
399,1696255127588,0.2692871,-0.71051025,-0.25543213,15.25,-146.0625,-8.796875
400,1696255127628,0.28833008,-0.9175415,-0.26812744,38.609375,-130.32812,-3.21875
401,1696255127668,-0.69970703,-1.6917114,-0.06011963,-16.328125,-134.625,-33.328125
402,1696255127708,-0.28637695,-1.5437622,0.024597168,19.484375,-92.671875,-50.28125
403,1696255127748,-0.21118164,-1.0706177,0.25286865,-6.15625,-52.359375,-45.65625
404,1696255127788,0.09667969,-0.5811157,0.11029053,-6.6875,-70.078125,-26.78125
405,1696255127828,0.39526367,-0.34625244,-0.06768799,-27.28125,-64.765625,-4.75
406,1696255127868,1.279541,-1.1690063,-0.39801025,0.078125,-107.953125,20.703125
407,1696255127908,0.3791504,-1.1348267,-0.6296997,17.125,-140.57812,11.375
408,1696255127948,-0.6760254,-1.6589966,-0.8838501,-11.21875,-211.0625,-2.0
409,1696255127988,-1.1899414,-1.1729126,-0.2107544,14.203125,-85.46875,-27.78125
410,1696255128028,-0.13842773,-0.76812744,-0.23101807,-2.09375,-33.5625,8.890625
411,1696255128068,0.29248047,-0.76348877,-0.28277588,31.796875,-77.953125,-0.4375
412,1696255128108,0.4638672,-1.0112915,-0.027404785,22.59375,-121.125,-0.40625
413,1696255128148,0.30126953,-0.79107666,-0.42877197,7.140625,-162.45312,-12.59375
414,1696255128188,-0.068359375,-0.48223877,-0.46954346,4.40625,-144.01562,-2.75
415,1696255128228,0.23754883,-0.48394775,-0.2041626,30.921875,-117.46875,3.59375
416,1696255128268,-0.20874023,-1.2363892,-0.38580322,18.96875,-146.98438,-27.859375
417,1696255128308,-0.11621094,-2.0,0.2741089,21.015625,-119.328125,-32.0
418,1696255128348,-0.30151367,-1.3521118,0.14349365,-0.4375,-93.59375,-44.96875
419,1696255128388,0.17626953,-0.5967407,-0.09942627,-4.0625,-80.78125,-27.34375
420,1696255128428,0.37524414,-0.35650635,-0.059387207,0.96875,-69.890625,-16.265625
421,1696255128468,0.50927734,-0.54888916,-0.34991455,-26.0,-121.5625,-8.96875
422,1696255128508,0.55371094,-1.1519165,-0.47076416,5.890625,-146.17188,16.59375
423,1696255128548,-0.12426758,-1.5484009,-0.71221924,7.34375,-161.4375,17.453125
424,1696255128588,-1.0893555,-1.3677368,-0.29595947,-6.859375,-147.25,-36.859375
425,1696255128628,-0.6298828,-0.74591064,-0.031311035,7.71875,-61.265625,2.25
426,1696255128668,0.0703125,-0.6514282,-0.28302002,20.59375,-72.28125,-4.203125
427,1696255128708,0.26586914,-0.7979126,-0.1951294,28.703125,-104.4375,0.484375
428,1696255128748,0.33251953,-0.93536377,-0.22540283,13.84375,-136.4375,2.734375
429,1696255128788,-0.043945312,-0.78375244,-0.3880005,2.046875,-150.65625,4.6875
430,1696255128828,0.25634766,-0.77667236,0.062438965,21.046875,-109.46875,15.25
431,1696255128868,-0.19921875,-1.1135864,-0.3106079,15.734375,-141.65625,-25.78125
432,1696255128908,-0.31640625,-1.7976685,0.07562256,9.0625,-98.203125,-34.078125
433,1696255128948,-0.03149414,-1.3877563,0.2567749,5.65625,-84.59375,-30.59375
434,1696255128988,0.37158203,-0.7698364,-0.0071411133,4.484375,-90.09375,-24.84375
435,1696255129028,0.28857422,-0.4414673,0.018493652,-16.640625,-86.03125,-13.5
436,1696255129068,0.33789062,-0.4265747,0.066833496,-11.0,-98.03125,2.265625
437,1696255129108,0.100097656,-0.9290161,-0.6980591,-28.15625,-145.92188,15.171875
438,1696255129148,0.72631836,-1.6243286,-0.21710205,33.671875,-117.9375,6.546875
439,1696255129188,-0.58984375,-1.6323853,-0.44488525,-4.3125,-124.296875,-1.078125
440,1696255129228,-0.96899414,-0.8296509,-0.27886963,-13.78125,-79.765625,-18.8125
441,1696255129268,-0.43188477,-0.74884033,-0.07867432,7.5,-31.40625,-11.234375
442,1696255129308,-0.026367188,-0.881897,-0.11895752,38.828125,-17.984375,-1.609375
443,1696255129348,0.4621582,-1.2542114,0.0048217773,5.265625,-50.65625,5.78125
444,1696255129388,0.09301758,-1.0654907,-0.028625488,-6.390625,-72.609375,-4.25
445,1696255129428,-0.2006836,-0.65289307,-0.2185669,-8.09375,-70.9375,-2.1875
446,1696255129468,-0.23095703,-0.51934814,-0.16729736,5.265625,-64.90625,-4.0625
447,1696255129508,-0.1850586,-0.8916626,-0.019348145,10.15625,-21.3125,0.734375
448,1696255129548,0.10473633,-1.4417114,0.19989014,-4.078125,-23.890625,12.859375
449,1696255129588,0.04663086,-1.5877075,0.42156982,13.921875,-47.40625,-11.640625
450,1696255129628,-0.014160156,-1.0125122,0.11248779,-11.609375,-14.75,-14.859375
451,1696255129668,-0.010009766,-0.614563,0.066345215,-2.203125,-14.34375,1.84375
452,1696255129708,0.03857422,-0.6338501,0.11981201,13.390625,-6.640625,7.046875
453,1696255129748,0.0925293,-0.7451782,0.05340576,4.984375,11.21875,7.90625
454,1696255129788,0.10839844,-0.8101196,0.11029053,1.5,0.15625,10.03125
455,1696255129828,0.13500977,-0.8201294,0.07537842,8.28125,-1.296875,2.984375
456,1696255129868,0.012451172,-1.1184692,0.11541748,3.8125,4.9375,-9.578125
457,1696255129908,-0.025634766,-1.6013794,0.20428467,15.203125,25.765625,-5.234375
458,1696255129948,0.14013672,-1.5925903,0.09466553,-0.921875,10.4375,0.265625
459,1696255129988,0.1706543,-1.9341431,0.024597168,8.359375,11.15625,-1.9375
460,1696255130028,0.068115234,-1.2942505,-0.20587158,-10.171875,18.3125,-1.265625
461,1696255130068,-0.0146484375,-0.82354736,-0.32183838,-15.09375,23.296875,8.359375
462,1696255130108,0.19848633,-0.38165283,-0.24224854,-0.328125,11.234375,8.703125
463,1696255130148,0.079589844,-0.16168213,-0.1453247,-11.3125,0.921875,1.5625
464,1696255130188,-0.1953125,-0.19586182,-0.18121338,-23.484375,7.109375,-5.546875
465,1696255130228,-0.27294922,-0.27252197,0.013122559,-7.40625,24.46875,-7.359375
466,1696255130268,-0.12011719,-0.5466919,0.20843506,4.734375,34.640625,-1.40625
467,1696255130308,0.059570312,-0.7288208,0.2555542,8.765625,34.9375,11.109375
468,1696255130348,0.18432617,-1.640686,-0.019104004,-18.4375,-10.828125,22.578125
469,1696255130388,0.6826172,-2.0,0.635437,-4.078125,-36.53125,2.078125
470,1696255130428,-0.48046875,-2.0,-0.51812744,5.078125,0.78125,-29.296875
471,1696255130468,-0.06542969,-1.1060181,-0.10479736,10.34375,45.078125,-23.71875
472,1696255130508,0.13378906,-0.66778564,0.19158936,31.671875,44.515625,11.640625
473,1696255130548,0.048095703,-0.4751587,0.034118652,-4.609375,15.71875,12.796875
474,1696255130588,0.2705078,0.04437256,-0.015197754,-21.265625,-8.71875,-4.234375
475,1696255130628,0.12060547,0.41375732,0.014343262,-7.765625,-24.53125,-20.109375
476,1696255130668,0.026611328,0.44378662,0.047302246,9.84375,-0.015625,-19.875
477,1696255130708,-0.2446289,-0.22369385,-0.25274658,7.1875,20.015625,8.921875
478,1696255130748,0.25732422,-2.0,1.4164429,-77.671875,-0.03125,95.296875
479,1696255130788,0.7558594,-2.0,0.6454468,24.53125,-52.1875,-3.578125
480,1696255130828,-0.30200195,-2.0,-0.35650635,8.734375,6.109375,19.390625
481,1696255130868,-0.040527344,-1.6519165,0.12957764,0.46875,-1.484375,-17.921875
482,1696255130908,0.52319336,-1.2417603,0.03314209,23.234375,16.828125,-18.125
483,1696255130948,0.5529785,-0.7737427,-0.050598145,2.875,-29.046875,-8.578125
484,1696255130988,0.08544922,-0.30010986,-0.0029907227,-32.671875,-52.15625,-1.921875
485,1696255131028,-0.009765625,0.04095459,0.23846436,-13.421875,-45.953125,-15.859375
486,1696255131068,-0.2944336,-0.028381348,0.043395996,-6.859375,-38.921875,-23.640625
487,1696255131108,-0.37329102,-0.09869385,0.0680542,-13.96875,-18.109375,-8.78125
488,1696255131148,-0.10229492,-0.43023682,0.18353271,0.671875,23.484375,22.234375
489,1696255131188,0.011474609,-1.5159302,0.2399292,-12.703125,-2.734375,51.6875
490,1696255131228,0.36889648,-2.0,0.47821045,21.171875,7.0625,-49.28125
491,1696255131268,-0.3166504,-1.3882446,-0.27301025,-11.828125,36.921875,3.296875
492,1696255131308,-0.5012207,-1.1863403,-0.23052979,0.8125,59.125,3.90625
493,1696255131348,-0.12988281,-0.94073486,-0.26837158,0.1875,40.015625,-11.0
494,1696255131388,0.25854492,-1.0151978,-0.12945557,-1.421875,42.546875,-11.78125
495,1696255131428,0.18066406,-0.70440674,-0.15533447,9.53125,44.140625,-9.640625
496,1696255131468,-0.043945312,-0.4277954,-0.12896729,-0.28125,26.421875,-4.1875
497,1696255131508,-0.07861328,-0.17486572,0.02142334,-5.984375,22.734375,-3.1875
498,1696255131548,0.0026855469,-0.1260376,0.045837402,-1.34375,18.3125,2.515625
499,1696255131588,0.021972656,-0.19927979,-0.026428223,-0.484375,2.0625,16.5625
500,1696255131628,0.08935547,-0.9649048,-0.517395,-18.71875,12.984375,30.0
501,1696255131668,0.9069824,-2.0,0.91986084,25.109375,14.015625,14.859375
502,1696255131708,-0.025390625,-2.0,0.0014038086,2.390625,-58.4375,12.78125
503,1696255131748,0.2277832,-1.5049438,-0.68756104,21.953125,-41.453125,-21.109375
504,1696255131788,-0.014404297,-1.7634888,0.109313965,48.484375,-45.265625,-19.5
505,1696255131828,0.075927734,-1.2278442,-0.16070557,17.1875,-50.640625,-16.6875
506,1696255131868,-0.08569336,-0.7359009,-0.35162354,2.875,-55.796875,-42.703125
507,1696255131908,-0.33276367,-0.54571533,-0.3723755,-4.59375,-47.609375,-32.515625
508,1696255131948,-0.29125977,-0.11993408,-0.038635254,-31.84375,-20.40625,-2.203125
509,1696255131988,-0.3076172,0.27581787,-0.0569458,-23.921875,-2.09375,8.5625
510,1696255132028,-0.36376953,0.36688232,-0.12628174,-7.734375,-9.6875,-20.0625
511,1696255132068,-0.171875,-0.32232666,-0.14190674,-8.125,-9.3125,-20.796875
512,1696255132108,-0.33251953,-1.1514282,-0.11431885,13.96875,13.046875,15.421875
513,1696255132148,0.8901367,-2.0,-0.56500244,-20.671875,-4.359375,15.453125
514,1696255132188,0.25952148,-1.4505005,0.36688232,6.890625,34.875,-25.703125
515,1696255132228,0.11279297,-1.6235962,0.034851074,10.359375,9.5,-2.234375
516,1696255132268,0.21948242,-1.4346313,0.40374756,10.640625,-5.390625,18.953125
517,1696255132308,0.3713379,-1.0540161,0.19744873,22.921875,1.046875,20.46875
518,1696255132348,0.1640625,-0.61920166,-0.010314941,0.6875,-0.234375,-8.109375
519,1696255132388,0.030517578,-0.16680908,-0.066711426,-9.109375,-2.078125,-10.15625
520,1696255132428,0.16723633,0.10760498,0.02166748,10.375,-12.375,-1.390625
521,1696255132468,-0.083496094,0.32537842,-0.06768799,-4.890625,-7.65625,3.40625
522,1696255132508,-0.3569336,0.12371826,-0.2041626,-0.640625,-7.46875,-11.5
523,1696255132548,-1.0393066,-1.6585083,-0.4932251,-30.578125,32.875,25.015625
524,1696255132588,0.5305176,-2.0,1.7023315,64.171875,-12.640625,-36.046875
525,1696255132628,0.6088867,-1.109436,0.0138549805,-24.03125,-38.21875,-37.890625
526,1696255132668,0.026855469,-1.0872192,-0.2786255,6.03125,-11.171875,10.765625
527,1696255132708,-0.5397949,-1.5652466,0.23431396,-3.265625,-12.625,27.03125
528,1696255132748,-0.017578125,-1.2825317,0.11785889,3.40625,26.4375,3.796875
529,1696255132788,0.3046875,-0.7720337,-0.012756348,-9.109375,37.671875,-6.984375
530,1696255132828,0.38305664,-0.78985596,0.21795654,9.9375,10.828125,-15.859375
531,1696255132868,0.18701172,-0.8442993,0.21307373,1.15625,-1.203125,-1.21875
532,1696255132908,-0.01928711,-0.6026001,0.1618042,-18.046875,-2.890625,7.15625
533,1696255132948,-0.028564453,-0.2131958,0.02166748,-27.640625,-12.890625,-3.0
534,1696255132988,0.1430664,-0.09307861,-0.06549072,-30.546875,-8.359375,-9.390625
535,1696255133028,0.35327148,-0.42974854,0.27508545,-3.71875,11.734375,5.125
536,1696255133068,0.16113281,-1.7002563,0.16546631,-25.34375,-24.5625,44.421875
537,1696255133108,0.55078125,-2.0,0.43060303,-0.734375,-13.15625,-6.171875
538,1696255133148,-0.38061523,-1.8484497,-0.058410645,-11.953125,2.71875,9.484375
539,1696255133188,-0.52856445,-1.5379028,-0.35308838,-0.625,41.890625,-7.09375
540,1696255133228,-0.16699219,-0.7136841,-0.4282837,-7.703125,35.9375,-19.21875
541,1696255133268,0.19238281,-0.33917236,-0.21807861,9.328125,32.046875,-4.609375
542,1696255133308,0.08691406,-0.4421997,-0.04815674,8.34375,40.671875,10.984375
543,1696255133348,-0.012939453,-0.44976807,-0.06719971,-1.34375,13.390625,7.015625
544,1696255133388,-0.09838867,-0.31988525,-0.020812988,-0.609375,2.890625,-6.734375
545,1696255133428,-0.10546875,-0.3118286,-0.11212158,-3.28125,14.28125,-3.90625
546,1696255133468,0.0041503906,-0.73760986,0.023864746,7.28125,26.21875,22.59375
547,1696255133508,0.97216797,-2.0,-0.57525635,-31.734375,0.578125,26.6875
548,1696255133548,0.061035156,-1.6785278,-0.113586426,11.453125,-22.375,-17.796875
549,1696255133588,-0.34326172,-1.581604,-0.11627197,5.359375,6.921875,-17.765625
550,1696255133628,-0.10522461,-0.67852783,-0.010070801,15.84375,16.75,-17.0625
551,1696255133668,-0.01586914,-0.4915161,-0.31329346,16.59375,5.234375,-21.28125
552,1696255133708,0.041748047,-0.42999268,-0.23956299,9.15625,14.65625,-9.140625
553,1696255133748,-0.011962891,-0.4697876,-0.13848877,-11.5625,-3.71875,-0.828125
554,1696255133788,-0.12695312,-1.0125122,-0.35186768,1.53125,-34.5,-0.59375
555,1696255133828,-0.3371582,-1.467102,-0.24102783,11.5,-21.859375,-1.96875
556,1696255133868,-0.6699219,-1.1558228,-0.31036377,-7.453125,7.046875,-0.03125
557,1696255133908,-0.6538086,-1.0796509,-0.362854,-15.265625,30.640625,-5.140625
558,1696255133948,-0.24829102,-0.92926025,-0.41973877,-1.28125,42.09375,-4.984375
559,1696255133988,0.22094727,-0.97198486,-0.333313,10.875,28.875,8.71875
560,1696255134028,0.24121094,-0.960022,-0.25860596,-8.328125,12.53125,19.703125
561,1696255134068,1.0449219,-1.3389282,-0.020568848,2.59375,-9.46875,6.234375
562,1696255134108,1.0222168,-1.4607544,0.31170654,35.953125,-42.53125,-26.21875
563,1696255134148,0.35424805,-1.2710571,0.11590576,-16.015625,-35.265625,-9.734375
564,1696255134188,-0.28295898,-1.053772,0.03387451,-7.265625,-56.015625,-11.125
565,1696255134228,-0.4411621,-0.82696533,-0.07232666,2.578125,-19.125,-28.265625
566,1696255134268,-0.10449219,-0.36505127,-0.07720947,-13.875,22.890625,-21.34375
567,1696255134308,0.027832031,-0.20904541,0.054138184,-2.40625,35.65625,-0.140625
568,1696255134348,0.12646484,-0.24664307,0.06048584,-13.28125,17.890625,6.125
569,1696255134388,0.100097656,-0.33770752,0.105163574,-22.71875,-3.140625,4.609375
570,1696255134428,0.11987305,-0.8323364,0.246521,-34.09375,1.9375,12.609375
571,1696255134468,0.8449707,-2.0,0.31048584,-40.109375,-6.234375,23.4375
572,1696255134508,-0.04711914,-1.0735474,0.14715576,4.171875,2.203125,-11.625
573,1696255134548,0.053955078,-1.3237915,0.10638428,11.453125,-26.296875,11.625
574,1696255134588,-0.07788086,-1.2337036,0.34539795,5.296875,3.703125,25.625
575,1696255134628,0.3005371,-1.0960083,0.29852295,18.15625,-1.3125,-0.5
576,1696255134668,0.13769531,-0.69732666,0.31829834,-2.765625,-20.578125,-13.390625
577,1696255134708,-0.015380859,-0.2925415,0.14056396,-16.859375,-25.1875,-14.75
578,1696255134748,-0.060791016,-0.43145752,0.057556152,-20.25,-12.734375,-19.265625
579,1696255134788,0.07910156,-0.8345337,0.34881592,-13.53125,2.640625,-10.984375
580,1696255134828,0.6069336,-1.5791626,0.27947998,-0.890625,-30.796875,5.234375
581,1696255134868,0.36645508,-1.3399048,-0.12042236,-29.890625,-50.59375,4.890625
582,1696255134908,-0.049804688,-0.78253174,-0.09942627,-31.765625,-61.390625,9.859375
583,1696255134948,-0.6516113,-1.0977173,-0.035949707,0.421875,-63.25,-10.109375
584,1696255134988,-0.6472168,-1.3045044,-0.003479004,16.15625,-0.921875,-16.625
585,1696255135028,-0.31201172,-1.1223755,-0.059631348,5.640625,15.859375,-2.953125
586,1696255135068,-0.15429688,-0.8792114,0.03729248,15.546875,-16.265625,-1.6875
587,1696255135108,-0.025146484,-0.7620239,0.05633545,17.875,-34.859375,-3.28125
588,1696255135148,0.09887695,-0.7263794,-0.16119385,-26.578125,-34.828125,-4.109375
589,1696255135188,-0.07495117,-0.7481079,-0.024963379,-6.890625,-40.953125,-1.5
590,1696255135228,-0.18847656,-0.92803955,-0.0635376,3.515625,-50.6875,11.375
591,1696255135268,-0.24731445,-0.7942505,-0.049621582,-7.4375,-61.421875,20.625
592,1696255135308,-0.3659668,-0.8569946,0.09295654,6.390625,-45.890625,22.203125
593,1696255135348,-0.36767578,-1.0896606,-0.0134887695,-15.546875,-47.390625,15.484375
594,1696255135388,-0.18969727,-1.1865845,0.113464355,-8.03125,-35.953125,10.390625
595,1696255135428,-0.22460938,-1.3462524,-0.0015258789,4.0625,-41.765625,7.390625
596,1696255135468,-0.18652344,-1.3262329,0.0016479492,-5.109375,-37.484375,0.125
597,1696255135508,0.055419922,-1.1553345,0.10809326,-14.53125,-53.203125,3.390625
598,1696255135548,0.13232422,-1.1643677,0.14642334,16.640625,-65.421875,-11.96875
599,1696255135588,0.036376953,-0.9397583,0.15765381,23.875,-73.640625,-26.796875
600,1696255135628,-0.03100586,-0.67266846,0.15179443,2.546875,-78.359375,-13.796875
601,1696255135668,-0.103759766,-0.59869385,0.18499756,18.96875,-64.84375,3.78125
602,1696255135708,-0.056396484,-1.0979614,-0.004699707,48.140625,-42.078125,25.140625
603,1696255135748,0.22558594,-1.5369263,-0.10626221,19.15625,-50.734375,19.3125
604,1696255135788,0.2602539,-0.9920044,0.09588623,3.53125,-51.796875,-1.46875
605,1696255135828,0.008544922,-0.7908325,0.14227295,7.015625,-51.203125,-7.625
606,1696255135868,-0.3737793,-0.9741821,0.06488037,0.203125,-38.359375,-3.609375
607,1696255135908,-0.3955078,-0.9561157,0.11663818,7.671875,-3.609375,3.84375
608,1696255135948,-0.18066406,-0.8804321,-0.034484863,-11.796875,12.46875,7.5
609,1696255135988,0.09277344,-0.7307739,0.005554199,-10.828125,19.4375,1.921875
610,1696255136028,0.04272461,-0.57940674,0.0021362305,1.078125,33.078125,-1.96875
611,1696255136068,-0.3178711,-0.73321533,-0.253479,-7.671875,38.578125,2.203125
612,1696255136108,-0.3894043,-1.1746216,-0.12213135,4.265625,65.375,11.65625
613,1696255136148,-0.068359375,-2.0,0.018737793,-9.109375,88.09375,32.4375
614,1696255136188,0.32543945,-1.4331665,0.18841553,1.40625,86.984375,-13.390625
615,1696255136228,0.19238281,-0.7168579,-0.062805176,-18.59375,59.0625,-11.625
616,1696255136268,-0.03930664,-0.34576416,-0.13287354,-22.59375,37.625,5.875
617,1696255136308,-0.07080078,-0.3796997,-0.20440674,-13.78125,22.265625,24.015625
618,1696255136348,0.19677734,-0.5635376,-0.06817627,-18.578125,48.328125,29.703125
619,1696255136388,0.94311523,-0.9859009,0.21795654,-1.953125,35.671875,33.296875
620,1696255136428,0.4338379,-1.2368774,0.10858154,-14.171875,-4.28125,17.1875
621,1696255136468,-0.17480469,-1.2261353,0.29486084,-2.9375,-9.453125,27.578125
622,1696255136508,-0.2746582,-1.248352,0.1864624,-5.90625,-12.25,18.859375
623,1696255136548,-0.064453125,-1.1782837,0.20257568,4.078125,27.75,1.15625
624,1696255136588,0.3317871,-1.0755005,0.28460693,-0.46875,49.15625,-6.046875
625,1696255136628,0.5053711,-1.0545044,0.39691162,-5.0625,15.125,-9.625
626,1696255136668,0.37963867,-0.85723877,0.29241943,-5.296875,16.109375,-15.984375
627,1696255136708,0.2043457,-0.737854,0.2670288,-5.234375,28.0,-13.421875
628,1696255136748,0.036865234,-0.7402954,0.26727295,-10.0,29.796875,-12.28125
629,1696255136788,0.14746094,-0.9529419,0.09295654,-5.46875,24.46875,-12.15625
630,1696255136828,0.3232422,-1.7207642,-0.20562744,10.109375,-7.4375,24.6875
631,1696255136868,0.30639648,-1.3223267,0.24749756,19.46875,59.15625,4.984375
632,1696255136908,-0.6345215,-1.1311646,-0.050354004,-21.875,1.140625,14.90625
633,1696255136948,-0.53344727,-0.70977783,-0.33673096,-10.734375,37.84375,-21.59375
634,1696255136988,-0.007080078,-0.5635376,-0.20367432,25.59375,64.46875,-16.546875
635,1696255137028,0.10864258,-0.72320557,-0.15948486,5.953125,54.671875,15.796875
636,1696255137068,-0.029785156,-0.78375244,-0.27130127,-6.859375,23.5625,10.046875
637,1696255137108,0.05029297,-0.7962036,-0.21246338,1.015625,34.1875,-6.953125
638,1696255137148,0.16186523,-0.8399048,-0.18365479,-1.8125,35.21875,-3.109375
639,1696255137188,0.32885742,-0.9546509,-0.077941895,-1.3125,15.390625,16.984375
640,1696255137228,0.29956055,-1.1409302,-0.1897583,3.828125,-12.484375,18.390625
641,1696255137268,-0.18237305,-1.4431763,-0.22174072,-14.9375,-8.78125,7.4375
642,1696255137308,0.0031738281,-1.3025513,0.28631592,28.1875,43.359375,-0.5625
643,1696255137348,-0.010986328,-0.98028564,-0.117248535,20.140625,54.65625,-24.75
644,1696255137388,-0.17895508,-0.7522583,-0.3184204,20.65625,23.546875,-23.921875
645,1696255137428,0.103271484,-0.7005005,-0.3814087,-0.65625,21.46875,-4.625
646,1696255137468,0.23803711,-0.6411743,-0.23468018,3.328125,7.90625,0.15625
647,1696255137508,0.15649414,-0.7866821,-0.13897705,7.921875,-7.0625,5.4375
648,1696255137548,-0.04638672,-1.1226196,-0.19390869,-9.28125,-25.859375,3.765625
649,1696255137588,-0.5515137,-1.6726685,-0.2498169,-20.53125,-25.5,-10.921875
650,1696255137628,-0.6333008,-1.2478638,-0.18658447,-12.75,11.265625,-12.78125
651,1696255137668,-0.37451172,-0.9273071,-0.1453247,-10.765625,22.078125,-10.78125
652,1696255137708,-0.23999023,-0.8413696,-0.14654541,-4.40625,15.0,-13.984375
653,1696255137748,-0.12426758,-0.87335205,-0.07330322,-19.890625,22.15625,-5.984375
654,1696255137788,0.022949219,-0.7991333,-0.07476807,-7.921875,13.171875,5.328125
655,1696255137828,0.17553711,-0.8909302,-0.047424316,18.984375,2.53125,7.609375
656,1696255137868,0.39575195,-0.8928833,0.13226318,-2.546875,-1.125,3.328125
657,1696255137908,0.21801758,-0.95196533,-0.1560669,-21.6875,-9.453125,-13.296875
658,1696255137948,0.26586914,-1.5317993,0.4953003,11.8125,35.28125,21.265625
659,1696255137988,0.43725586,-1.8276978,0.08123779,0.8125,-11.578125,10.4375
660,1696255138028,0.16821289,-1.1963501,0.25091553,-2.90625,-5.921875,0.4375
661,1696255138068,0.29589844,-0.6890259,0.17230225,0.296875,-4.234375,9.15625
662,1696255138108,0.17822266,-0.4841919,0.02923584,10.328125,-22.578125,8.03125
663,1696255138148,0.08105469,-0.38238525,0.0045776367,3.78125,-0.921875,10.921875
664,1696255138188,0.018554688,-0.28619385,0.07122803,-13.625,6.921875,-3.015625
665,1696255138228,0.06518555,-0.43389893,0.14959717,-29.921875,-11.34375,-15.0625
666,1696255138268,0.2331543,-1.2932739,0.07562256,23.203125,-18.921875,-0.828125
667,1696255138308,0.22998047,-2.0,-0.10040283,-3.015625,1.171875,13.0625
668,1696255138348,-0.07836914,-1.1235962,0.19329834,-22.859375,-15.46875,5.75
669,1696255138388,0.16381836,-1.1887817,0.27557373,15.765625,-9.6875,9.5
670,1696255138428,0.23608398,-1.2398071,0.34320068,10.453125,1.484375,14.921875
671,1696255138468,0.2006836,-0.9458618,0.21087646,3.28125,-20.375,5.078125
672,1696255138508,0.04345703,-0.48809814,0.14984131,11.953125,3.75,-4.0
673,1696255138548,-0.051513672,-0.2522583,0.08050537,18.78125,31.75,-2.234375
674,1696255138588,0.13183594,-0.36846924,0.1408081,-0.765625,45.40625,6.515625
675,1696255138628,0.7368164,-0.7503052,0.11224365,-24.53125,13.125,-8.078125
676,1696255138668,0.83813477,-1.9595337,0.1630249,-31.484375,-34.65625,-29.765625
677,1696255138708,0.7338867,-1.2505493,0.058532715,8.578125,-4.0,11.25
678,1696255138748,-0.0041503906,-0.9619751,-0.48516846,-19.90625,-37.140625,26.921875
679,1696255138788,-1.168457,-1.7659302,0.4713745,-11.859375,-17.90625,20.25
680,1696255138828,-0.7175293,-1.0601196,-0.15655518,-3.03125,27.796875,-12.40625
681,1696255138868,-0.17041016,-0.9585571,-0.30718994,23.0,81.46875,14.78125
682,1696255138908,0.35864258,-0.9768677,-0.30670166,8.15625,55.3125,3.078125
683,1696255138948,0.0063476562,-0.90826416,-0.040100098,12.875,13.921875,21.09375
684,1696255138988,-0.038330078,-0.5630493,-0.093811035,4.34375,-14.671875,15.53125
685,1696255139028,-0.1274414,-0.3008423,-0.2852173,10.15625,1.78125,0.390625
686,1696255139068,-0.13916016,-0.37384033,-0.2720337,11.453125,38.03125,-7.671875
687,1696255139108,0.29516602,-0.88287354,-0.4890747,-47.78125,54.5625,-12.328125
688,1696255139148,0.48046875,-1.6704712,-0.26763916,2.875,20.3125,-1.15625
689,1696255139188,-0.19067383,-2.0,-0.4505005,0.078125,-45.890625,5.84375
690,1696255139228,-0.16235352,-1.0127563,-0.15338135,-11.1875,15.890625,10.3125
691,1696255139268,0.18457031,-0.9351196,-0.22857666,10.203125,-14.453125,-28.03125
692,1696255139308,-0.03881836,-1.0935669,-0.54473877,9.21875,-8.796875,-16.921875
693,1696255139348,0.021240234,-0.7620239,-0.06402588,9.71875,-8.390625,15.625
694,1696255139388,-0.022705078,-0.5652466,-0.0020141602,13.703125,-35.109375,13.859375
695,1696255139428,-0.18823242,-0.3340454,-0.10821533,-2.125,-40.421875,-8.984375
696,1696255139468,-0.18676758,-0.28936768,-0.17852783,6.03125,-17.421875,-18.984375
697,1696255139508,-0.21362305,-0.40753174,-0.30523682,18.28125,-5.375,-8.625
698,1696255139548,-0.54125977,-0.9414673,-0.3640747,3.140625,5.734375,3.46875
699,1696255139588,-0.43530273,-1.9185181,-0.46221924,-8.015625,24.65625,11.828125
700,1696255139628,0.38842773,-1.5947876,-0.6519165,-39.84375,47.46875,35.5
701,1696255139668,1.729248,-1.3067017,0.03387451,-75.453125,19.046875,-9.90625
702,1696255139708,0.29833984,-1.1629028,0.0038452148,80.90625,-50.328125,-27.171875
703,1696255139748,0.09716797,-1.0256958,-0.25933838,-23.828125,-70.859375,6.828125
704,1696255139788,0.22241211,-0.9470825,0.47210693,15.453125,-5.46875,15.9375
705,1696255139828,0.17602539,-0.8796997,0.0072631836,50.265625,-44.09375,4.046875
706,1696255139868,0.26171875,-0.76568604,-0.07159424,11.859375,-23.875,-1.171875
707,1696255139908,-0.064697266,-0.51153564,0.10272217,-21.96875,-28.265625,-3.265625
708,1696255139948,-0.36669922,-0.1873169,0.041931152,-41.625,-33.515625,4.578125
709,1696255139988,-0.41064453,-0.26470947,0.13909912,-54.75,-9.171875,19.484375
710,1696255140028,0.14208984,-0.62213135,0.17034912,-26.015625,45.953125,8.59375
711,1696255140068,1.999939,-2.0,0.024108887,47.109375,37.421875,8.53125
712,1696255140108,0.5083008,-1.071106,-0.26641846,14.296875,-52.578125,-31.921875
713,1696255140148,0.08959961,-0.6045532,-0.28399658,-38.171875,-4.5,6.21875
714,1696255140188,0.13989258,-1.0193481,0.14837646,35.640625,-8.140625,23.0
715,1696255140228,0.20605469,-1.3206177,0.5165405,39.328125,-1.4375,37.875
716,1696255140268,0.10131836,-0.97735596,0.17401123,-21.4375,-42.046875,-7.5
717,1696255140308,-0.05493164,-0.56817627,-0.028869629,-17.03125,-20.03125,-19.546875
718,1696255140348,0.26367188,-0.3093872,0.09051514,19.296875,26.640625,-13.671875
719,1696255140388,0.14477539,-0.1963501,0.21234131,0.96875,-4.234375,-2.4375
720,1696255140428,0.17993164,-0.3201294,0.030456543,-22.703125,0.46875,2.328125
721,1696255140468,0.28222656,-1.1375122,-0.24151611,-50.25,5.140625,20.09375
722,1696255140508,1.7458496,-2.0,-0.13311768,47.125,12.3125,20.375
723,1696255140548,-0.45263672,-1.6067505,0.52752686,23.25,52.1875,-39.46875
724,1696255140588,-0.75219727,-1.1799927,-0.3735962,2.765625,32.546875,-47.78125
725,1696255140628,-0.1821289,-1.0413208,-0.5952759,27.0625,75.578125,-8.484375
726,1696255140668,0.26391602,-0.8640747,-0.6255493,-12.328125,88.578125,39.0
727,1696255140708,0.4729004,-0.9199829,-0.26837158,-30.125,38.65625,22.15625
728,1696255140748,-0.051757812,-0.9690552,-0.3357544,-26.1875,56.6875,-20.3125
729,1696255140788,0.0041503906,-0.5393677,-0.18658447,-16.875,59.578125,-26.265625
730,1696255140828,0.21069336,-0.2744751,-0.09576416,-28.53125,48.515625,-15.125
731,1696255140868,0.46435547,-0.36749268,-0.2625122,-30.671875,11.203125,-0.859375
732,1696255140908,0.28930664,-0.7359009,-0.25616455,-26.46875,-30.40625,15.171875
733,1696255140948,0.0063476562,-1.8892212,-0.18829346,-5.171875,-33.34375,46.4375
734,1696255140988,0.19848633,-1.2744751,0.06414795,-2.890625,-96.09375,-16.296875
735,1696255141028,-0.701416,-1.4421997,-0.27496338,0.953125,-75.9375,-42.59375
736,1696255141068,-0.6530762,-1.2295532,-0.35235596,26.859375,-6.9375,-14.234375
737,1696255141108,0.1875,-1.0147095,-0.16363525,11.71875,-30.109375,-2.609375
738,1696255141148,0.31958008,-1.003479,-0.02935791,10.609375,-28.578125,-2.359375
739,1696255141188,0.29785156,-1.1170044,0.07977295,-3.453125,-62.5625,-28.015625
740,1696255141228,-0.22705078,-0.6577759,-0.024719238,-7.328125,-56.75,-31.609375
741,1696255141268,-0.5136719,-0.24102783,-0.03692627,-9.6875,-41.78125,1.765625
742,1696255141308,-0.25439453,-0.054748535,-0.13970947,16.171875,-38.40625,25.96875
743,1696255141348,-0.10571289,-0.36309814,-0.18658447,0.15625,-7.890625,15.53125
744,1696255141388,-0.28979492,-1.2622681,-0.051330566,-7.375,-10.96875,-7.078125
745,1696255141428,-0.13696289,-2.0,-1.2307739,21.421875,-22.328125,-9.1875
746,1696255141468,-0.055908203,-1.1968384,0.6469116,9.375,40.046875,-1.734375
747,1696255141508,0.09667969,-1.0435181,0.23065186,14.703125,15.953125,-14.421875
748,1696255141548,-0.35717773,-1.336731,-0.43218994,10.984375,-9.859375,-2.390625
749,1696255141588,0.32421875,-1.0073853,-0.26983643,-0.59375,-13.578125,26.84375
750,1696255141628,0.6845703,-0.87384033,0.1942749,6.0,4.3125,17.421875
751,1696255141668,0.39233398,-0.9729614,0.062438965,1.4375,-43.65625,-3.484375
752,1696255141708,-0.037597656,-0.98223877,-0.13116455,-24.1875,-40.421875,-14.265625
753,1696255141748,-0.18310547,-0.7246704,0.14154053,-28.15625,0.40625,-3.078125
754,1696255141788,-0.12109375,-0.1885376,0.46868896,-13.75,1.8125,2.75
755,1696255141828,-0.5366211,-0.2883911,-0.20489502,11.28125,-18.75,11.859375
756,1696255141868,-0.60595703,-1.0137329,-0.078186035,-5.453125,39.828125,22.140625
757,1696255141908,0.0859375,-2.0,0.32122803,82.96875,94.796875,57.296875
758,1696255141948,1.0830078,-1.1633911,0.06561279,-38.734375,5.875,-18.015625
759,1696255141988,0.73706055,-0.26397705,-0.24957275,-23.703125,16.546875,-27.890625
