# Sensor type: Respeck
# Activity type: Standing
# Activity subtype: Singing
# Subject id: s2106809
# Notes: unprocessed
timestamp,accel_x,accel_y,accel_z,gyro_x,gyro_y,gyro_z
1696250758106,0.024658203,-0.9944458,0.20037842,-4.671875,-1.0625,0.109375
1696250758145,0.021728516,-0.9727173,0.21697998,-6.296875,-0.25,0.203125
1696250758186,0.020996094,-1.0037231,0.22381592,1.71875,2.96875,0.046875
1696250758226,0.021972656,-0.9968872,0.17791748,-0.078125,1.84375,0.546875
1696250758267,0.03100586,-0.9402466,0.17425537,1.765625,-0.828125,0.625
1696250758307,0.021972656,-0.95880127,0.1954956,4.03125,-1.890625,0.90625
1696250758346,0.033203125,-0.9780884,0.15667725,2.796875,-1.40625,1.390625
1696250758388,0.0146484375,-0.97125244,0.15716553,6.03125,-1.515625,1.171875
1696250758427,0.046142578,-0.97076416,0.13250732,11.109375,-0.796875,1.0625
1696250758467,0.07788086,-0.95513916,0.1161499,5.359375,-3.28125,-0.046875
1696250758507,0.010986328,-0.97198486,0.17059326,1.4375,-11.84375,0.875
1696250758547,-0.04638672,-0.97979736,0.17034912,-1.921875,-11.234375,2.890625
1696250758588,0.08300781,-1.0276489,0.2033081,-0.5,2.0625,-1.5
1696250758627,0.06201172,-1.029602,0.17669678,-0.125,0.515625,-4.234375
1696250758667,-0.029296875,-0.9534302,0.13934326,-2.703125,-2.21875,-0.046875
1696250758709,-0.016845703,-0.95758057,0.15179443,-1.796875,1.015625,-0.515625
1696250758746,0.05493164,-0.97320557,0.15667725,-2.359375,0.640625,-1.390625
1696250758789,0.045654297,-0.9624634,0.1762085,-2.03125,-1.53125,-1.046875
1696250758828,0.0061035156,-1.0037231,0.17889404,-1.4375,-0.421875,-1.625
1696250758868,0.008056641,-0.97979736,0.16986084,-0.796875,-0.46875,-2.734375
1696250758908,0.02709961,-0.9624634,0.17474365,-0.609375,0.21875,-1.21875
1696250758946,0.03173828,-0.99053955,0.17449951,-0.234375,-1.34375,0.109375
1696250758989,0.0036621094,-0.98443604,0.16351318,-1.4375,-3.25,-0.25
1696250759026,-0.0048828125,-0.9902954,0.19281006,-0.390625,-0.5,-0.1875
1696250759069,0.020263672,-0.98516846,0.17938232,-0.796875,-0.640625,0.296875
1696250759107,0.0014648438,-0.97491455,0.16156006,-0.890625,-2.84375,-0.15625
1696250759146,9.765625E-4,-0.9729614,0.18426514,0.484375,-0.09375,-0.109375
1696250759187,0.014892578,-0.98516846,0.18182373,1.5,0.65625,0.296875
1696250759251,-0.009277344,-0.9795532,0.17889404,0.5,0.4375,0.515625
1696250759267,-0.0024414062,-0.97662354,0.17840576,0.234375,0.921875,0.234375
1696250759286,0.021484375,-0.9776001,0.17279053,-0.3125,0.171875,0.125
1696250759329,0.022216797,-0.9841919,0.16815186,-1.078125,-1.1875,0.734375
1696250759369,0.014160156,-0.9898071,0.17327881,-1.140625,-1.71875,0.59375
1696250759408,0.012451172,-0.9883423,0.17767334,-1.109375,-2.90625,0.40625
1696250759450,0.024902344,-0.97198486,0.18817139,-0.421875,-2.125,0.5625
1696250759510,0.018310547,-0.9795532,0.17840576,-1.28125,-0.5,0.125
1696250759526,-0.009521484,-0.97540283,0.1828003,0.25,-1.53125,1.328125
1696250759588,-0.008544922,-0.9776001,0.18206787,-1.40625,-1.9375,1.9375
1696250759608,0.01953125,-0.991272,0.18426514,-0.90625,-0.96875,0.8125
1696250759652,0.026367188,-0.96832275,0.17938232,0.140625,-2.046875,1.265625
1696250759687,0.02709961,-0.9741821,0.17376709,-0.140625,-1.515625,1.28125
1696250759727,0.020751953,-0.98931885,0.18206787,0.796875,-1.03125,0.703125
1696250759767,0.008544922,-0.98394775,0.17645264,0.4375,-1.25,0.53125
1696250759807,0.012207031,-0.9668579,0.17474365,-0.484375,-0.6875,-0.203125
1696250759848,0.01171875,-0.97442627,0.1762085,-0.265625,0.203125,-0.390625
1696250759908,0.022460938,-0.96759033,0.17449951,-0.921875,0.453125,-0.34375
1696250759928,0.0234375,-0.97320557,0.17694092,-0.859375,-0.609375,-0.1875
1696250759969,0.018066406,-0.98687744,0.17889404,-0.921875,-0.90625,-0.140625
1696250760006,0.021972656,-0.9819946,0.18670654,1.515625,0.390625,0.46875
1696250760068,0.024414062,-0.98272705,0.1864624,3.265625,0.78125,-0.328125
1696250760088,0.014404297,-0.99102783,0.16668701,1.21875,0.21875,0.328125
1696250760127,0.015380859,-0.97369385,0.17303467,3.59375,1.09375,0.4375
1696250760188,0.02319336,-0.9819946,0.16937256,3.15625,-0.421875,0.546875
1696250760208,0.01586914,-0.99298096,0.15740967,0.328125,-0.984375,0.421875
1696250760269,0.02734375,-0.98760986,0.1618042,-1.78125,3.5,0.796875
1696250760287,0.027832031,-0.95098877,0.16278076,0.984375,0.3125,0.5625
1696250760328,0.021240234,-0.98883057,0.168396,4.90625,0.015625,0.75
1696250760387,0.017578125,-0.9924927,0.17181396,3.53125,-0.40625,1.6875
1696250760407,0.0021972656,-0.97052,0.15081787,3.125,-0.4375,0.765625
1696250760468,0.0063476562,-0.97540283,0.1437378,4.0625,1.109375,1.0625
1696250760487,0.029541016,-0.9890747,0.13763428,3.46875,0.8125,2.3125
1696250760549,0.057373047,-0.98028564,0.13885498,3.515625,0.328125,1.140625
1696250760566,0.040527344,-0.986145,0.12762451,3.0,-1.484375,0.75
1696250760587,0.021728516,-0.98443604,0.121276855,2.15625,-2.078125,0.71875
1696250760627,0.019042969,-0.98760986,0.13909912,0.53125,-1.5625,0.875
1696250760667,0.023925781,-0.975647,0.13128662,-1.921875,-2.4375,0.515625
1696250760706,0.030029297,-0.9898071,0.124938965,-2.921875,-2.65625,0.46875
1696250760747,0.015136719,-0.9968872,0.13690186,-0.8125,-3.5625,0.40625
1696250760789,0.013916016,-0.9717407,0.14447021,-2.328125,-3.546875,0.515625
1696250760828,0.025878906,-0.9710083,0.13470459,-2.40625,-1.46875,-0.484375
1696250760867,0.050048828,-0.9898071,0.14666748,-0.90625,-1.1875,-0.828125
1696250760907,0.046142578,-0.9800415,0.14422607,-1.671875,-2.46875,-1.375
1696250760948,0.01977539,-0.9824829,0.1539917,-0.234375,-0.796875,-1.75
1696250760986,0.0056152344,-0.9807739,0.15057373,-0.21875,-0.890625,-0.90625
1696250761026,-0.0031738281,-0.97784424,0.15765381,-1.265625,-1.03125,-0.65625
1696250761067,0.011230469,-0.98443604,0.1539917,-0.953125,0.28125,-0.109375
1696250761106,0.02758789,-0.9944458,0.15472412,-1.03125,0.375,-0.484375
1696250761147,0.036621094,-0.97662354,0.15130615,-1.640625,-0.421875,-1.171875
1696250761186,0.025146484,-0.986145,0.15374756,-1.9375,-0.640625,-1.234375
1696250761228,0.020019531,-0.9819946,0.15325928,-0.734375,-0.3125,-0.890625
1696250761269,0.018066406,-0.9871216,0.15472412,-0.734375,-1.28125,-0.21875
1696250761309,0.0031738281,-0.98687744,0.16619873,-0.53125,-0.984375,0.0
1696250761347,0.009277344,-0.97076416,0.17327881,-0.03125,0.765625,-0.921875
1696250761387,0.016601562,-0.9871216,0.15008545,0.0625,-0.984375,-0.3125
1696250761429,-0.004638672,-0.9902954,0.15911865,-0.09375,-0.515625,1.203125
1696250761477,-0.0036621094,-0.9885864,0.16229248,-0.8125,-0.484375,0.40625
1696250761507,0.017333984,-0.9795532,0.16204834,-0.03125,1.375,-0.609375
1696250761548,0.020263672,-0.96539307,0.14984131,-0.78125,0.65625,-0.15625
1696250761587,0.01586914,-0.9800415,0.15740967,-1.21875,-0.671875,0.234375
1696250761628,0.020996094,-0.99102783,0.17034912,-0.4375,-1.046875,0.375
1696250761671,0.008056641,-0.98931885,0.1630249,-0.015625,-1.09375,0.265625
1696250761711,0.0087890625,-0.96954346,0.15765381,-0.890625,-0.625,0.453125
1696250761747,0.009277344,-0.97320557,0.16644287,-0.25,-0.25,0.5
1696250761790,0.011230469,-0.986145,0.1708374,-0.296875,-0.65625,0.609375
1696250761828,-9.765625E-4,-0.9924927,0.168396,-0.578125,-0.953125,0.5
1696250761869,0.0014648438,-0.98516846,0.16326904,-0.453125,-0.484375,0.625
1696250761887,0.008056641,-0.9849243,0.1642456,-0.265625,1.046875,0.40625
1696250761930,0.023925781,-0.98394775,0.16790771,-1.1875,0.265625,0.1875
1696250761989,0.03515625,-0.9663696,0.16766357,1.203125,-0.65625,-0.6875
1696250762007,0.018066406,-0.97735596,0.17059326,-0.1875,-0.828125,-0.1875
1696250762047,-0.0087890625,-0.9834595,0.1564331,0.0,-1.171875,-0.078125
1696250762088,-0.008056641,-0.9849243,0.17449951,0.40625,0.53125,0.359375
1696250762128,0.016845703,-0.98028564,0.16497803,0.328125,0.09375,0.90625
1696250762189,0.028564453,-0.9834595,0.15106201,-0.09375,-1.28125,0.828125
1696250762207,0.0234375,-0.973938,0.15472412,-0.75,-1.75,0.625
1696250762247,0.016357422,-0.99346924,0.16400146,-0.515625,-0.265625,0.078125
1696250762308,0.015380859,-0.98565674,0.17449951,-0.234375,-0.46875,-0.109375
1696250762326,0.0012207031,-0.9692993,0.16644287,-0.609375,-0.078125,-0.3125
1696250762388,0.010253906,-0.97857666,0.17034912,0.421875,0.515625,-0.25
1696250762409,-0.0014648438,-0.986145,0.16888428,0.234375,0.5,0.4375
1696250762447,0.0107421875,-0.9758911,0.1630249,0.203125,-0.65625,0.625
1696250762508,0.0078125,-0.9817505,0.1720581,-0.390625,-0.71875,0.46875
1696250762526,0.010986328,-0.9746704,0.16253662,-0.53125,-0.09375,0.75
1696250762587,0.013916016,-0.97906494,0.17449951,0.171875,0.609375,-0.03125
1696250762607,0.014404297,-0.98883057,0.16693115,-0.859375,-0.140625,-0.0625
1696250762648,0.018798828,-0.97979736,0.15667725,-0.25,0.453125,-0.53125
1696250762688,0.008056641,-0.9805298,0.17645264,0.421875,0.328125,0.25
1696250762729,-0.0063476562,-0.9817505,0.17132568,-0.46875,-0.703125,0.6875
1696250762770,0.005126953,-0.9817505,0.16497803,-0.4375,-0.03125,0.8125
1696250762807,0.02368164,-0.97979736,0.17425537,-0.328125,-1.5,1.0625
1696250762848,0.022216797,-0.9805298,0.15618896,-1.46875,-2.4375,0.8125
1696250762887,0.011962891,-0.9834595,0.17791748,-0.671875,-1.71875,0.6875
1696250762951,0.0146484375,-0.96588135,0.17034912,-0.6875,-0.96875,0.328125
1696250762989,0.008300781,-0.98760986,0.17572021,-1.203125,-0.21875,0.578125
1696250763006,0.024658203,-0.97735596,0.16912842,-0.96875,-0.28125,0.375
1696250763070,0.016113281,-0.9751587,0.17596436,-0.734375,-1.1875,-0.078125
1696250763086,0.005859375,-0.9783325,0.17034912,0.25,-0.609375,0.765625
1696250763147,0.0126953125,-0.9873657,0.16009521,-0.28125,-1.875,0.921875
1696250763189,0.025878906,-0.9663696,0.18426514,-0.0625,-0.53125,0.625
1696250763193,0.012207031,-0.96173096,0.18255615,-1.4375,-0.4375,0.40625
1696250763230,0.009033203,-0.98101807,0.17767334,-0.890625,-0.53125,0.3125
1696250763269,0.015625,-0.9817505,0.18475342,-0.328125,-0.828125,0.375
1696250763310,0.010498047,-0.9680786,0.18353271,-0.515625,-0.90625,0.0625
1696250763349,0.017333984,-0.973938,0.18109131,-1.453125,-0.09375,0.265625
1696250763389,0.020019531,-0.9807739,0.18255615,-1.359375,-0.765625,-0.171875
1696250763426,0.012451172,-0.9768677,0.19134521,-1.15625,-0.3125,-0.609375
1696250763469,0.01586914,-0.98883057,0.1852417,-1.359375,-0.25,-0.28125
1696250763507,0.021972656,-0.96881104,0.19378662,-1.921875,-0.453125,-0.453125
1696250763547,0.016845703,-0.9800415,0.18670654,-2.359375,-1.359375,-0.484375
1696250763588,0.01953125,-0.96759033,0.20477295,-0.4375,-0.859375,0.21875
1696250763628,-0.0029296875,-0.98101807,0.20062256,-0.53125,-2.421875,1.015625
1696250763668,-0.0126953125,-0.9805298,0.21820068,0.03125,0.640625,-0.03125
1696250763707,-0.018554688,-0.9819946,0.21087646,-1.25,1.34375,-1.296875
1696250763750,0.016601562,-0.958313,0.18572998,-0.359375,2.546875,-1.234375
1696250763789,0.044433594,-0.9656372,0.18548584,0.078125,1.28125,-0.234375
1696250763830,0.02709961,-0.9890747,0.19915771,-0.1875,-0.171875,0.125
1696250763868,-0.0017089844,-0.9680786,0.19891357,1.078125,0.109375,0.359375
1696250763909,0.0063476562,-0.97442627,0.19476318,0.25,-0.171875,-0.03125
1696250763948,0.023925781,-0.9697876,0.20794678,-0.5625,1.53125,-0.46875
1696250763989,0.013916016,-0.97784424,0.20233154,-0.671875,0.0,-0.5
1696250764028,0.0026855469,-0.9898071,0.19281006,-0.859375,-1.640625,0.515625
1696250764068,0.0036621094,-0.9819946,0.19476318,-1.546875,-1.03125,0.53125
1696250764110,0.021972656,-0.96539307,0.2062378,-0.421875,-0.28125,0.09375
1696250764146,0.013427734,-0.9824829,0.19036865,0.09375,-1.0625,0.984375
1696250764187,0.015380859,-0.9758911,0.20184326,-0.125,-1.828125,2.078125
1696250764231,0.020263672,-0.9714966,0.20233154,0.515625,-0.71875,1.09375
1696250764267,-0.008544922,-0.97198486,0.20404053,0.78125,-0.71875,1.359375
1696250764310,-0.004638672,-0.97003174,0.20306396,0.671875,0.5,1.8125
1696250764348,0.022216797,-0.99053955,0.19378662,-0.453125,-0.25,0.65625
1696250764389,0.025390625,-0.97320557,0.19915771,-0.921875,0.578125,0.046875
1696250764426,0.031982422,-0.96710205,0.20111084,-0.609375,0.28125,-0.125
1696250764469,0.021240234,-0.9866333,0.19525146,-1.609375,-1.25,0.65625
1696250764507,0.016845703,-0.9631958,0.21356201,0.421875,-0.140625,0.234375
1696250764526,0.014404297,-0.97198486,0.20379639,-0.171875,0.28125,0.03125
1696250764567,0.020751953,-0.9741821,0.19891357,-0.703125,0.609375,-0.203125
1696250764608,0.030761719,-0.98638916,0.21185303,-0.078125,1.390625,-0.703125
1696250764649,0.022460938,-0.97320557,0.2033081,-0.546875,-2.046875,-0.140625
1696250764707,0.009521484,-0.97125244,0.20306396,-0.5625,-0.515625,0.546875
1696250764726,0.009765625,-0.99005127,0.21160889,-0.484375,-0.046875,-0.40625
1696250764788,0.008300781,-0.9644165,0.20379639,-0.34375,0.71875,-0.796875
1696250764806,0.0126953125,-0.9495239,0.20355225,0.125,0.125,-0.46875
1696250764849,0.0024414062,-0.9890747,0.21307373,-0.015625,0.71875,0.59375
1696250764888,0.018554688,-0.98272705,0.20306396,0.09375,0.65625,-0.734375
1696250764928,0.037841797,-0.96832275,0.19476318,0.421875,0.421875,-0.375
1696250764966,0.024169922,-0.9771118,0.21258545,0.484375,0.125,0.765625
1696250765007,0.020507812,-0.98223877,0.21307373,0.125,-1.078125,0.234375
1696250765048,0.010986328,-0.97076416,0.20159912,0.046875,-0.671875,-0.078125
1696250765110,0.004638672,-0.97784424,0.20501709,-0.375,-0.1875,0.765625
1696250765126,0.01171875,-0.97320557,0.2062378,-0.0625,-1.359375,0.0625
1696250765189,0.010009766,-0.9807739,0.2033081,-0.359375,-0.515625,0.359375
1696250765229,0.015136719,-0.9763794,0.20184326,-0.34375,-0.078125,0.390625
1696250765248,0.018310547,-0.9692993,0.2033081,-0.875,-0.984375,-0.15625
1696250765287,0.020507812,-0.97906494,0.20257568,-0.15625,-0.6875,-0.3125
1696250765351,0.010253906,-0.9834595,0.21209717,0.375,-1.296875,-0.375
1696250765367,0.0068359375,-0.9819946,0.20819092,2.3125,-2.515625,0.53125
1696250765409,0.00390625,-0.9727173,0.20452881,2.03125,-0.3125,0.921875
1696250765449,0.025146484,-0.96710205,0.21160889,0.359375,-0.515625,1.015625
1696250765492,0.008544922,-0.9800415,0.20062256,1.8125,-0.734375,2.40625
1696250765549,0.006591797,-1.0132446,0.20379639,5.59375,3.1875,2.015625
1696250765566,0.007080078,-0.9924927,0.199646,3.90625,3.625,2.078125
1696250765628,0.020751953,-0.96881104,0.17596436,0.390625,3.171875,2.03125
1696250765647,0.036621094,-0.98638916,0.16741943,9.40625,3.21875,1.859375
1696250765687,0.03955078,-0.9793091,0.17523193,3.75,-0.875,0.375
1696250765728,0.031982422,-0.9529419,0.15667725,0.78125,-1.109375,0.625
1696250765769,0.024658203,-0.9898071,0.15179443,5.609375,-1.921875,0.6875
1696250765810,0.039794922,-0.9800415,0.15179443,1.59375,-3.90625,-0.015625
1696250765828,0.02734375,-0.94976807,0.14227295,-0.078125,-3.03125,0.34375
1696250765867,0.036132812,-0.9524536,0.12591553,-2.203125,-3.40625,0.015625
1696250765908,0.037841797,-1.0154419,0.17156982,-1.828125,-4.078125,1.78125
1696250765948,-0.018798828,-0.99005127,0.15716553,-1.390625,-4.421875,2.171875
1696250765987,0.0146484375,-0.9788208,0.17816162,-1.59375,-0.390625,-0.296875
1696250766029,0.037841797,-0.991272,0.15106201,-0.15625,2.1875,-0.75
1696250766068,0.049072266,-0.98394775,0.18499756,-1.40625,1.171875,0.421875
1696250766108,0.022216797,-0.9807739,0.168396,-1.703125,-0.921875,-0.234375
1696250766147,0.029052734,-0.9751587,0.15203857,-0.5,1.234375,-0.609375
1696250766187,0.04736328,-0.9793091,0.1852417,-0.125,1.75,0.046875
1696250766229,0.048095703,-0.97906494,0.17547607,-0.703125,-1.1875,-0.40625
1696250766269,0.021240234,-0.9812622,0.15911865,-1.171875,-1.703125,-1.125
1696250766308,0.01953125,-0.9776001,0.16693115,-0.515625,0.078125,-0.6875
1696250766348,0.035888672,-0.9812622,0.17938232,0.15625,0.078125,0.453125
1696250766388,0.029785156,-0.99224854,0.16497803,-0.375,-1.484375,1.078125
1696250766428,0.022705078,-0.9692993,0.16448975,-0.84375,-1.25,0.671875
1696250766470,0.042236328,-0.9788208,0.17034912,-0.09375,-0.265625,0.671875
1696250766508,0.041748047,-0.98394775,0.17376709,0.0625,-2.453125,0.4375
1696250766549,0.018066406,-0.9710083,0.1720581,-0.6875,-1.5,0.53125
1696250766588,0.021240234,-0.97320557,0.17059326,0.4375,-0.5,-0.28125
1696250766628,0.017578125,-0.99346924,0.17889404,-0.203125,-0.4375,0.875
1696250766669,0.02758789,-0.98101807,0.17230225,-0.671875,-0.734375,0.171875
1696250766707,0.019042969,-0.9829712,0.17474365,0.375,0.234375,0.265625
1696250766750,0.029785156,-0.9817505,0.18109131,-0.6875,-1.5,1.265625
1696250766788,0.032470703,-0.97369385,0.17401123,-1.625,-1.84375,0.6875
1696250766829,0.03515625,-0.9783325,0.18109131,-1.078125,-0.9375,-0.453125
1696250766867,0.024658203,-0.973938,0.17156982,-0.671875,-0.328125,0.203125
1696250766907,0.03466797,-0.97247314,0.17767334,-0.921875,-0.171875,0.046875
1696250766948,0.030273438,-0.98150635,0.1852417,-1.203125,0.15625,-0.421875
1696250766988,0.025146484,-0.97052,0.18011475,-0.640625,0.3125,-0.734375
1696250767030,0.027832031,-0.97198486,0.16986084,-1.25,0.25,-0.96875
1696250767069,0.03100586,-0.9795532,0.17791748,0.15625,0.734375,-0.484375
1696250767108,0.033935547,-0.9644165,0.18548584,0.25,-0.4375,0.3125
1696250767127,0.016845703,-0.987854,0.18011475,-0.21875,-1.65625,-0.015625
1696250767170,0.018066406,-0.9727173,0.1876831,0.390625,-0.359375,0.171875
1696250767208,0.018554688,-0.9746704,0.17279053,1.6875,0.4375,0.265625
1696250767249,0.028320312,-0.9859009,0.17523193,3.1875,1.1875,-0.171875
1696250767308,0.049072266,-0.9812622,0.17449951,2.671875,-0.078125,-0.484375
1696250767327,0.025390625,-0.9727173,0.16253662,1.5625,0.046875,-0.078125
1696250767368,0.009521484,-0.975647,0.17010498,0.75,-1.5,-0.328125
1696250767408,0.011474609,-0.9805298,0.18084717,-1.234375,-0.65625,-0.15625
1696250767450,0.020019531,-0.95977783,0.16644287,-1.625,-0.5,0.25
1696250767487,0.034423828,-1.0108032,0.18084717,0.0,0.21875,0.0
1696250767550,0.025390625,-0.97320557,0.16937256,-0.03125,-1.640625,0.515625
1696250767591,0.0043945312,-0.9746704,0.16204834,1.0625,-0.390625,0.859375
1696250767607,0.021484375,-0.9871216,0.17376709,1.75,1.015625,0.875
1696250767648,0.02758789,-0.9854126,0.16766357,1.984375,1.078125,0.84375
1696250767688,0.016357422,-0.97540283,0.17327881,0.78125,0.609375,0.453125
1696250767728,0.022705078,-0.9837036,0.15545654,-0.46875,-0.375,0.625
1696250767768,0.04736328,-0.9751587,0.15496826,-0.25,0.828125,-0.21875
1696250767808,0.028808594,-0.99102783,0.184021,-0.671875,0.15625,0.484375
1696250767848,0.01953125,-0.9702759,0.16937256,-0.921875,-1.125,0.34375
1696250767890,0.020263672,-0.9866333,0.16815186,-0.171875,-0.015625,-0.453125
1696250767929,0.038330078,-0.9793091,0.16912842,0.703125,0.359375,-0.03125
1696250767969,0.030273438,-0.9805298,0.17230225,-0.265625,-0.578125,0.484375
1696250768009,0.02319336,-0.97857666,0.15789795,0.03125,-1.109375,-0.1875
1696250768049,0.026123047,-0.9873657,0.17401123,1.1875,1.171875,-0.4375
1696250768110,0.025878906,-0.9663696,0.16204834,0.0625,-0.359375,0.53125
1696250768127,0.024902344,-0.9898071,0.16766357,-0.796875,0.015625,0.015625
1696250768168,0.03125,-0.98028564,0.17596436,-0.015625,-0.625,-0.375
1696250768208,0.0234375,-0.9768677,0.16375732,-1.484375,-1.03125,-0.0625
1696250768247,0.021972656,-0.989563,0.17303467,-1.453125,-0.78125,-0.234375
1696250768289,0.020751953,-0.98223877,0.16033936,-0.6875,-0.546875,-0.4375
1696250768328,0.028320312,-0.9529419,0.1708374,-0.765625,-0.53125,-0.640625
1696250768367,0.015380859,-1.0012817,0.17938232,-1.65625,-1.90625,0.390625
1696250768428,0.009033203,-0.9763794,0.18597412,-0.953125,-0.890625,0.34375
1696250768447,0.017578125,-0.973938,0.17254639,-1.578125,-0.71875,0.34375
1696250768468,0.05126953,-0.97540283,0.16790771,-1.53125,-0.828125,-0.421875
1696250768507,0.009521484,-1.0029907,0.18670654,-1.59375,0.171875,0.84375
1696250768550,0.0034179688,-0.9949341,0.18597412,-1.875,-1.0625,1.21875
1696250768589,0.036376953,-0.95269775,0.17547607,-1.75,-0.609375,-0.171875
1696250768628,0.039794922,-0.958313,0.18963623,-0.109375,0.484375,0.140625
1696250768670,0.028564453,-0.9859009,0.20355225,-0.03125,-0.921875,-0.421875
1696250768709,0.0021972656,-0.9854126,0.19403076,0.109375,-0.890625,-0.140625
1696250768748,0.014160156,-0.9729614,0.18011475,-0.03125,0.28125,-0.765625
1696250768787,0.022460938,-0.9776001,0.1852417,-0.0625,-0.09375,0.546875
1696250768827,0.025390625,-1.0003052,0.18670654,-1.0,-0.25,1.203125
1696250768868,0.021484375,-0.9776001,0.1876831,-0.78125,-1.25,0.296875
1696250768907,0.022949219,-0.95806885,0.17816162,-0.921875,-0.59375,0.609375
1696250768949,0.021728516,-0.9793091,0.19915771,-0.40625,0.671875,0.828125
1696250768987,0.030517578,-0.98760986,0.20062256,-0.390625,-0.828125,-0.046875
1696250769026,0.016601562,-0.9649048,0.18597412,-0.796875,-0.828125,0.109375
1696250769068,0.015380859,-0.9800415,0.1942749,-0.34375,0.25,0.21875
1696250769107,0.030761719,-0.98443604,0.19525146,-0.1875,-0.734375,0.515625
1696250769149,0.02709961,-0.98394775,0.19720459,-0.65625,-0.484375,0.40625
1696250769189,0.0029296875,-0.97735596,0.184021,-0.34375,1.109375,0.15625
1696250769229,0.032714844,-0.9656372,0.18328857,0.46875,1.296875,-0.1875
1696250769267,0.045654297,-0.9673462,0.19158936,0.890625,0.328125,0.5625
1696250769307,0.037353516,-0.973938,0.20355225,0.734375,-1.421875,0.0625
1696250769349,0.022705078,-0.98272705,0.1942749,1.6875,-0.75,-0.46875
1696250769388,0.025390625,-0.9727173,0.184021,0.5,-1.0,0.015625
1696250769429,0.01928711,-0.9846802,0.18255615,0.359375,-1.890625,-0.09375
1696250769469,0.021972656,-0.973938,0.1906128,0.21875,-1.8125,-0.046875
1696250769508,0.022949219,-0.9741821,0.18426514,-0.65625,-1.125,0.65625
1696250769549,0.032226562,-0.9829712,0.19110107,-0.046875,-0.34375,0.28125
1696250769589,0.022705078,-0.9915161,0.19158936,-1.046875,-1.875,-0.203125
1696250769629,0.0063476562,-0.97442627,0.18621826,-1.125,-0.828125,-0.40625
1696250769669,0.021484375,-0.97662354,0.19744873,0.390625,-0.046875,-0.609375
1696250769728,0.020507812,-0.9624634,0.18719482,-0.8125,-0.90625,0.28125
1696250769746,0.015380859,-0.9690552,0.19622803,-1.4375,-1.078125,0.109375
1696250769789,0.006591797,-0.98321533,0.19354248,-0.40625,-0.53125,-0.796875
1696250769828,0.010253906,-0.98101807,0.19281006,-0.75,0.4375,-0.65625
1696250769869,0.0063476562,-0.9771118,0.2020874,-0.390625,1.328125,-1.21875
1696250769887,-0.0048828125,-0.9793091,0.18426514,-1.15625,1.828125,-0.875
1696250769930,0.015380859,-0.9727173,0.1930542,-0.90625,1.71875,-1.5
1696250769967,0.032714844,-0.9788208,0.19891357,0.03125,2.078125,-0.9375
1696250770032,0.017578125,-0.9795532,0.20477295,-0.21875,0.140625,-1.171875
1696250770046,0.011230469,-0.9636841,0.19818115,-0.1875,-0.40625,-1.203125
1696250770088,0.021240234,-0.9932251,0.18597412,-1.0625,-0.921875,-0.0625
1696250770130,0.026855469,-0.9812622,0.20233154,2.234375,-1.1875,0.265625
1696250770188,0.016601562,-0.9639282,0.18548584,0.6875,-1.53125,1.5625
1696250770209,0.0026855469,-0.9915161,0.20770264,1.53125,0.859375,1.234375
1696250770247,0.0036621094,-0.97906494,0.1864624,1.296875,-2.765625,1.59375
1696250770289,0.016845703,-0.975647,0.19110107,0.21875,-0.21875,1.96875
1696250770349,0.01928711,-0.9866333,0.19378662,-0.25,-1.21875,1.9375
1696250770368,0.006591797,-0.9758911,0.1852417,-0.921875,-1.4375,0.921875
1696250770408,0.0126953125,-0.97003174,0.20526123,-1.125,-0.5,0.578125
1696250770449,0.012939453,-0.9788208,0.1864624,0.0625,-1.03125,-0.359375
1696250770487,-0.0043945312,-0.9800415,0.19573975,-0.328125,-0.84375,0.859375
1696250770528,-0.0031738281,-0.97857666,0.19476318,-0.53125,0.140625,0.375
1696250770568,0.009033203,-0.9783325,0.19647217,-0.015625,0.375,0.140625
1696250770609,0.03540039,-0.97735596,0.19110107,-1.0,0.265625,0.25
1696250770649,0.022949219,-0.975647,0.18695068,-2.59375,-1.0,-0.953125
1696250770688,-0.0014648438,-0.9697876,0.20257568,-2.578125,0.0,-1.078125
1696250770727,0.0014648438,-0.99542236,0.23260498,0.109375,1.640625,-2.1875
1696250770768,0.007080078,-0.93634033,0.17718506,-1.421875,-0.53125,-0.265625
1696250770809,0.022216797,-0.9771118,0.22039795,-0.1875,3.078125,-0.1875
1696250770847,0.033447266,-0.99420166,0.21697998,0.484375,-3.375,-0.140625
1696250770890,0.0061035156,-0.9639282,0.2020874,-0.859375,-0.75,-0.15625
1696250770929,0.011474609,-0.9692993,0.19110107,-2.265625,-2.390625,-0.140625
1696250770966,0.03173828,-0.9846802,0.20819092,-3.265625,-1.25,-1.25
1696250771010,2.4414062E-4,-0.9649048,0.22723389,-2.421875,-1.78125,-2.265625
1696250771048,-0.01171875,-0.97125244,0.20672607,-1.40625,-0.84375,-0.875
1696250771067,-0.014160156,-0.9898071,0.22381592,0.203125,0.03125,0.625
1696250771109,0.0087890625,-0.9690552,0.23846436,-0.28125,-1.9375,-0.4375
1696250771147,0.0012207031,-0.97052,0.21307373,-0.359375,-1.03125,-0.015625
1696250771189,0.0031738281,-0.97247314,0.21917725,-0.015625,-1.34375,0.40625
1696250771228,0.009033203,-0.9780884,0.22039795,-1.5,-0.90625,-0.234375
1696250771268,0.007080078,-0.98443604,0.22381592,0.5,-0.34375,-0.359375
1696250771309,-0.0146484375,-0.9536743,0.22259521,-0.328125,-1.234375,0.5625
1696250771347,-0.015136719,-0.98443604,0.22576904,-0.15625,-0.171875,0.59375
1696250771388,-0.0073242188,-0.9776001,0.23968506,0.3125,-0.125,0.578125
1696250771430,-0.008300781,-0.96173096,0.22259521,0.625,1.78125,0.34375
1696250771468,0.009521484,-0.9685669,0.22015381,0.1875,0.53125,0.484375
1696250771508,0.013671875,-0.986145,0.22723389,0.921875,0.375,0.515625
1696250771547,0.0017089844,-0.9702759,0.21990967,0.328125,-1.171875,0.75
1696250771588,-0.0078125,-0.9692993,0.21966553,0.015625,0.21875,0.671875
1696250771628,0.0021972656,-0.9859009,0.2218628,0.546875,0.25,1.0
1696250771669,0.017089844,-0.9644165,0.215271,0.34375,-0.15625,0.46875
1696250771709,0.0056152344,-0.97442627,0.21478271,0.25,-0.796875,0.890625
1696250771750,-0.0034179688,-0.98223877,0.2074585,0.359375,-0.578125,0.796875
1696250771787,0.009277344,-0.97320557,0.21551514,0.546875,-0.09375,0.71875
1696250771830,0.012207031,-0.972229,0.21209717,0.203125,-0.484375,0.375
1696250771868,0.0014648438,-0.97662354,0.21282959,0.34375,-0.875,0.640625
1696250771910,0.01928711,-0.97198486,0.22406006,0.203125,-1.078125,0.328125
1696250771951,-0.0012207031,-0.97125244,0.2033081,-0.46875,-1.1875,0.140625
1696250771988,9.765625E-4,-0.987854,0.21258545,-0.15625,-0.078125,0.484375
1696250772028,0.01953125,-0.973938,0.20941162,0.5,-0.296875,0.28125
1696250772068,0.031982422,-0.9717407,0.21234131,-0.34375,-0.78125,0.078125
1696250772108,0.015380859,-0.9783325,0.20037842,-0.5625,-1.484375,0.84375
1696250772148,0.0041503906,-0.97613525,0.20843506,-0.4375,-2.140625,0.203125
1696250772188,-0.0012207031,-0.9783325,0.21160889,-0.9375,-1.546875,0.28125
1696250772227,0.0041503906,-0.9651489,0.21966553,-0.09375,-0.421875,0.09375
1696250772268,-9.765625E-4,-0.97613525,0.215271,-0.171875,-1.09375,0.15625
1696250772307,2.4414062E-4,-0.9768677,0.21429443,-0.40625,0.375,0.5
1696250772389,0.021728516,-0.9746704,0.21868896,-0.1875,0.609375,0.125
1696250772393,0.017333984,-0.96710205,0.21453857,-0.40625,0.4375,0.03125
1696250772406,0.005859375,-0.975647,0.22137451,-0.375,-0.40625,0.296875
1696250772488,0.016357422,-0.9837036,0.21746826,-0.515625,0.46875,0.453125
1696250772492,0.008544922,-0.9729614,0.2218628,0.1875,-0.046875,0.625
1696250772529,0.010009766,-0.9710083,0.22503662,-0.296875,-0.703125,0.46875
1696250772568,0.014404297,-0.9710083,0.2074585,-1.125,-0.921875,0.1875
1696250772608,0.013427734,-0.9746704,0.22283936,-1.390625,-0.453125,-0.015625
1696250772647,2.4414062E-4,-0.97076416,0.23480225,-3.09375,-1.734375,0.453125
1696250772687,-0.026367188,-0.9800415,0.23919678,-5.390625,-4.84375,3.0625
1696250772728,-0.020996094,-0.944397,0.2662964,0.671875,0.234375,3.953125
1696250772770,0.0073242188,-1.0493774,0.23529053,4.890625,-0.328125,2.75
1696250772809,0.079833984,-0.987854,0.2453003,2.703125,-1.1875,-0.71875
1696250772850,0.029785156,-0.91973877,0.20159912,0.6875,-1.5625,1.625
1696250772888,0.014892578,-0.97442627,0.20526123,2.703125,2.140625,0.140625
1696250772930,0.019042969,-1.0005493,0.21722412,2.0,-0.125,-0.390625
1696250772968,0.009033203,-0.9373169,0.19525146,1.078125,0.171875,0.453125
1696250773007,0.023925781,-0.9678345,0.16864014,6.59375,0.46875,0.6875
1696250773047,0.04638672,-0.9741821,0.20135498,3.46875,-2.953125,-0.421875
1696250773090,0.045166016,-0.9385376,0.18328857,2.0,-3.53125,-0.375
1696250773128,-0.0024414062,-0.9505005,0.17596436,0.546875,-3.296875,0.3125
1696250773167,-0.02319336,-0.98760986,0.1918335,-2.484375,-6.578125,1.359375
1696250773209,0.009521484,-0.99664307,0.22576904,-0.875,-0.171875,2.6875
1696250773248,0.10131836,-0.99713135,0.23236084,-0.78125,-1.3125,-1.703125
1696250773291,0.0234375,-0.98101807,0.17694092,-0.234375,-2.421875,-1.484375
1696250773327,-0.022949219,-0.960022,0.19110107,1.8125,1.078125,0.390625
1696250773368,0.0061035156,-0.99102783,0.19573975,1.75,3.25,-0.765625
1696250773409,0.057128906,-0.9595337,0.20550537,2.78125,1.328125,-1.0
1696250773447,0.036132812,-0.95880127,0.19500732,0.46875,-0.90625,0.140625
1696250773490,-0.008300781,-0.9968872,0.1852417,-0.1875,-1.875,0.453125
1696250773527,-0.0021972656,-0.98883057,0.17889404,1.515625,1.125,0.375
1696250773568,0.036621094,-0.97003174,0.18939209,1.265625,1.03125,1.046875
1696250773607,0.044189453,-0.972229,0.19110107,0.765625,-0.921875,1.671875
1696250773648,0.01977539,-0.9771118,0.18817139,0.359375,-1.515625,0.96875
1696250773668,-0.0012207031,-0.98687744,0.1762085,3.0,0.390625,0.671875
1696250773707,0.03149414,-0.99102783,0.17352295,2.921875,1.21875,1.453125
1696250773749,0.041015625,-0.96661377,0.17791748,1.359375,0.3125,1.1875
1696250773787,0.025390625,-0.973938,0.16864014,-0.46875,-1.671875,0.40625
1696250773829,0.016113281,-0.9636841,0.17474365,-0.546875,-0.59375,-0.53125
1696250773869,-0.008056641,-1.000061,0.18157959,-0.4375,-0.296875,0.546875
1696250773908,0.018310547,-0.9871216,0.17767334,-1.265625,-0.546875,0.421875
1696250773950,0.03491211,-0.9673462,0.17108154,-2.75,-1.71875,-0.671875
1696250773988,0.044433594,-0.9824829,0.18743896,-1.546875,0.546875,-0.28125
1696250774030,0.05419922,-0.98272705,0.18572998,0.390625,-0.40625,-1.09375
1696250774070,0.0048828125,-0.9763794,0.17254639,-0.28125,-0.875,0.015625
1696250774107,0.0026855469,-0.9961548,0.18988037,1.078125,1.078125,0.65625
1696250774146,0.039794922,-0.9663696,0.17816162,2.09375,1.140625,0.1875
1696250774186,0.052246094,-0.9585571,0.18084717,0.453125,-1.390625,0.53125
1696250774227,0.013427734,-0.97613525,0.19036865,1.171875,-0.828125,0.6875
1696250774286,0.0061035156,-0.99102783,0.18060303,1.03125,-1.015625,-0.203125
1696250774327,0.019042969,-0.9741821,0.16082764,3.171875,-0.953125,-0.796875
1696250774368,0.053222656,-0.97320557,0.17352295,1.734375,-0.15625,-0.796875
1696250774387,0.034179688,-0.98321533,0.15447998,1.625,-3.90625,-0.25
1696250774427,0.009277344,-0.9771118,0.16351318,-0.84375,-3.078125,-1.453125
1696250774467,0.0126953125,-0.9834595,0.16278076,0.125,-0.765625,-0.65625
1696250774529,0.024414062,-0.991272,0.1671753,-0.140625,-2.828125,-0.640625
1696250774547,0.01586914,-0.97857666,0.17181396,-0.96875,-2.53125,-1.046875
1696250774588,-9.765625E-4,-0.9927368,0.18450928,-1.484375,-2.203125,-0.09375
1696250774628,-0.00390625,-0.9883423,0.18304443,-3.171875,-1.578125,0.5
1696250774669,0.0029296875,-0.9783325,0.16741943,-3.25,-1.90625,0.375
1696250774708,0.030761719,-0.9729614,0.18328857,-2.09375,0.28125,0.25
1696250774747,0.037353516,-0.98101807,0.18963623,-2.046875,-0.875,0.546875
1696250774790,0.022216797,-0.9837036,0.19451904,-0.375,-0.828125,0.28125
1696250774849,-0.012939453,-0.9837036,0.1786499,0.46875,0.515625,0.734375
1696250774889,0.0012207031,-0.9663696,0.18988037,-0.203125,0.203125,0.859375
1696250774907,0.012207031,-0.97735596,0.17572021,-0.890625,0.421875,0.578125
1696250774947,0.02319336,-0.973938,0.1930542,0.390625,1.796875,0.109375
1696250774989,0.015625,-0.9758911,0.18841553,-0.59375,0.265625,0.65625
1696250775005,0.01928711,-0.97906494,0.17791748,-0.1875,0.46875,-0.65625
1696250775049,0.012939453,-0.98223877,0.18670654,1.515625,0.640625,-0.046875
1696250775088,0.025146484,-0.9612427,0.17938232,1.078125,0.109375,-0.125
1696250775133,0.008300781,-0.9768677,0.17913818,1.09375,-0.890625,-0.671875
1696250775167,0.0053710938,-0.99591064,0.17254639,0.90625,0.5625,-0.359375
1696250775209,0.01928711,-0.97442627,0.17938232,0.53125,-0.453125,-0.625
1696250775248,0.012939453,-0.9924927,0.18963623,0.9375,-0.28125,-0.59375
1696250775289,0.011962891,-0.97613525,0.18572998,1.53125,0.0625,0.046875
1696250775327,9.765625E-4,-0.9690552,0.17474365,0.9375,-1.484375,0.53125
1696250775368,0.0048828125,-0.9841919,0.17376709,0.515625,-0.578125,0.640625
1696250775406,0.001953125,-0.9866333,0.16644287,0.3125,-1.625,0.203125
1696250775448,0.013183594,-0.98638916,0.17572021,-0.234375,-0.140625,-0.078125
1696250775487,0.01928711,-0.9734497,0.16473389,0.53125,0.171875,0.234375
1696250775528,0.026123047,-1.0020142,0.16741943,2.640625,0.8125,0.3125
1696250775571,0.024902344,-0.9846802,0.17669678,-1.421875,-2.75,0.390625
1696250775610,-0.020996094,-0.9824829,0.18035889,-3.125,-2.21875,0.609375
1696250775648,-0.0053710938,-0.9727173,0.18670654,-3.609375,-0.15625,0.53125
1696250775688,0.03564453,-0.97125244,0.18572998,-2.53125,0.8125,0.34375
1696250775728,0.040039062,-0.9866333,0.19598389,-1.140625,0.40625,0.578125
1696250775768,0.007080078,-0.9793091,0.1708374,-0.375,-1.890625,0.421875
1696250775810,0.009521484,-0.956604,0.16497803,0.90625,0.109375,0.359375
1696250775848,0.0126953125,-0.98101807,0.18157959,0.890625,-0.515625,0.234375
1696250775888,0.006591797,-0.97979736,0.18548584,0.75,-0.4375,-0.46875
1696250775929,-0.0126953125,-0.98760986,0.17425537,-0.28125,-0.046875,0.0625
1696250775969,0.016357422,-0.98223877,0.17034912,-0.0625,0.65625,-0.28125
1696250776007,0.03857422,-0.9932251,0.18939209,0.265625,0.703125,0.4375
1696250776048,0.033203125,-0.972229,0.18450928,-0.359375,-1.78125,0.96875
1696250776093,0.030517578,-0.96954346,0.17840576,-1.03125,-2.84375,1.21875
1696250776128,0.029052734,-0.96759033,0.19012451,-0.015625,-2.40625,1.0625
1696250776169,0.017578125,-0.97442627,0.18475342,-1.125,-3.15625,1.1875
1696250776213,0.0056152344,-0.9788208,0.18377686,-0.875,-2.3125,0.296875
1696250776247,9.765625E-4,-0.9776001,0.19256592,-0.34375,-1.28125,0.28125
1696250776288,0.0034179688,-0.9771118,0.19476318,-0.625,-0.09375,-0.140625
1696250776308,0.0017089844,-0.98321533,0.19720459,0.078125,1.078125,-0.703125
1696250776349,-0.001953125,-0.98638916,0.19573975,-0.96875,1.46875,0.765625
1696250776411,-0.0041503906,-0.9614868,0.17718506,-0.984375,1.3125,1.59375
1696250776447,0.024169922,-0.99420166,0.2020874,0.984375,1.921875,-1.1875
1696250776467,0.016113281,-0.97247314,0.19329834,-3.390625,0.921875,-0.53125
1696250776528,0.009521484,-0.9614868,0.19085693,-0.8125,1.015625,-0.078125
1696250776547,0.044921875,-0.98687744,0.20965576,2.28125,2.546875,-0.1875
1696250776588,0.016601562,-0.9776001,0.20062256,-0.765625,0.578125,0.40625
1696250776651,-0.015625,-0.9771118,0.17767334,-1.328125,1.140625,1.09375
1696250776667,0.0026855469,-0.99005127,0.17401123,5.59375,1.953125,1.703125
1696250776727,0.045410156,-0.96759033,0.19281006,3.921875,2.703125,0.828125
1696250776748,0.02319336,-0.9885864,0.15130615,5.125,0.203125,2.859375
1696250776791,0.017578125,-0.98101807,0.14398193,7.5,-0.1875,2.75
1696250776826,0.03466797,-0.9534302,0.13787842,4.296875,-0.515625,2.40625
1696250776868,0.041503906,-0.9573364,0.14642334,0.578125,-2.890625,0.75
1696250776909,0.03466797,-0.9927368,0.18792725,-1.046875,-1.796875,1.078125
1696250776947,0.024658203,-0.972229,0.15472412,-1.953125,-7.34375,0.859375
1696250776989,0.036621094,-0.97784424,0.17791748,-1.8125,-4.140625,-0.046875
1696250777027,0.033203125,-0.9963989,0.17547607,-1.328125,-1.234375,-0.921875
1696250777067,0.024169922,-0.99713135,0.16131592,-0.5625,-0.3125,-0.328125
1696250777108,0.033447266,-0.9729614,0.16253662,0.078125,1.609375,-0.703125
1696250777147,0.041259766,-0.9795532,0.15887451,-0.65625,-0.734375,-0.25
1696250777188,0.030517578,-0.9746704,0.16497803,-0.296875,-1.734375,-0.09375
1696250777227,0.007080078,-0.991272,0.1786499,-0.734375,-0.53125,0.046875
1696250777288,0.010009766,-0.98272705,0.15692139,-0.390625,-1.515625,0.125
1696250777306,0.04345703,-0.95977783,0.17572021,-0.078125,-0.609375,-0.1875
1696250777370,0.03564453,-0.97906494,0.16473389,-0.953125,-0.6875,-0.140625
1696250777386,0.01586914,-0.9793091,0.16253662,-1.234375,-1.96875,-0.296875
1696250777429,0.013916016,-0.98931885,0.1798706,-0.5,-0.078125,0.0625
1696250777467,0.025878906,-0.9780884,0.16888428,-0.984375,-0.59375,-0.28125
1696250777509,0.01953125,-0.97857666,0.17230225,-0.671875,0.25,-0.0625
1696250777548,0.033935547,-0.9783325,0.17791748,0.15625,0.046875,-0.046875
1696250777609,0.021240234,-0.98150635,0.18011475,-1.140625,-0.515625,0.03125
1696250777627,0.011962891,-0.9758911,0.1774292,0.34375,-0.40625,-0.015625
1696250777648,0.018066406,-0.9800415,0.16986084,0.25,0.515625,0.15625
1696250777689,0.02758789,-0.9846802,0.18133545,0.109375,0.8125,0.359375
1696250777729,0.028320312,-0.9812622,0.16448975,0.328125,-0.796875,0.21875
1696250777770,0.018554688,-0.9714966,0.14642334,3.453125,-0.375,0.71875
1696250777809,0.029296875,-0.98809814,0.18548584,0.78125,0.84375,-0.25
1696250777847,0.03540039,-0.98931885,0.16473389,0.828125,0.1875,0.234375
1696250777887,0.022705078,-0.9627075,0.16986084,-1.453125,-0.9375,0.234375
1696250777932,0.025634766,-0.9751587,0.16912842,-1.953125,-0.578125,0.296875
1696250777972,0.012939453,-0.99420166,0.17816162,-1.90625,-1.578125,0.59375
1696250778010,0.022705078,-0.9885864,0.18182373,0.171875,0.34375,0.59375
1696250778049,0.020019531,-0.9690552,0.1642456,-0.609375,-0.578125,-0.234375
1696250778089,0.014892578,-0.96710205,0.17230225,-0.328125,-0.046875,1.046875
1696250778129,0.015625,-0.98516846,0.17449951,-0.640625,-1.28125,0.15625
1696250778170,0.012939453,-0.9834595,0.17572021,-0.46875,-0.609375,-0.34375
1696250778209,0.021240234,-0.9841919,0.17108154,0.015625,0.578125,0.015625
1696250778247,0.030517578,-0.96759033,0.18133545,-0.078125,0.25,-0.265625
1696250778289,0.021728516,-0.98101807,0.17132568,-0.5,-0.078125,0.921875
1696250778328,0.02758789,-0.9800415,0.18817139,-0.75,-0.640625,-0.140625
1696250778369,0.021240234,-0.9793091,0.17791748,-1.84375,-1.65625,-0.125
1696250778410,0.01928711,-0.9612427,0.1696167,-3.453125,-1.09375,-0.75
1696250778447,0.036621094,-0.98687744,0.18963623,0.03125,1.796875,-0.171875
1696250778489,0.026367188,-0.9920044,0.16864014,-1.453125,-3.46875,0.546875
1696250778529,0.019042969,-0.9631958,0.18572998,-1.109375,0.25,-0.390625
1696250778568,0.020263672,-0.987854,0.18792725,1.75,1.40625,-0.109375
1696250778607,0.0126953125,-0.9746704,0.18255615,0.71875,-0.625,1.34375
1696250778650,0.0036621094,-0.96832275,0.17547607,0.6875,0.5625,0.5625
1696250778689,0.029052734,-0.989563,0.18817139,1.609375,0.8125,0.0625
1696250778727,0.03149414,-0.9780884,0.1798706,1.390625,0.359375,0.40625
1696250778767,0.026123047,-0.9729614,0.18109131,0.109375,-0.453125,0.265625
1696250778811,0.011474609,-0.9780884,0.17108154,0.09375,0.15625,0.328125
1696250778850,0.025634766,-0.99005127,0.19403076,0.34375,0.484375,0.03125
1696250778889,0.013916016,-0.9854126,0.16986084,-0.53125,0.390625,0.203125
1696250778928,0.012939453,-0.9727173,0.1708374,-0.75,0.34375,0.65625
1696250778948,0.030761719,-0.99005127,0.1954956,0.984375,1.21875,0.671875
1696250778988,0.03881836,-0.9768677,0.17718506,-0.078125,-1.703125,-0.078125
1696250779031,0.008056641,-0.97491455,0.16546631,-0.625,-1.171875,1.453125
1696250779089,0.03564453,-0.98028564,0.19158936,0.15625,-0.796875,-0.234375
1696250779130,0.011962891,-0.9702759,0.17327881,-0.53125,-0.296875,0.296875
1696250779146,0.028564453,-0.9944458,0.18084717,0.0625,0.359375,1.0
1696250779191,0.040527344,-0.9680786,0.18011475,-0.734375,-0.71875,0.109375
1696250779229,0.032470703,-0.9636841,0.18084717,-0.890625,-0.84375,-0.28125
1696250779289,0.009765625,-0.9846802,0.18231201,-0.296875,-0.40625,0.4375
1696250779308,0.015380859,-0.9834595,0.18353271,-0.171875,-0.34375,-0.65625
1696250779346,0.016357422,-0.9783325,0.18426514,-0.640625,0.84375,-0.421875
1696250779411,0.021972656,-0.9661255,0.18231201,-0.515625,0.46875,0.328125
1696250779428,0.03955078,-0.97979736,0.18450928,0.015625,0.40625,0.234375
1696250779489,0.03930664,-0.97003174,0.18035889,-0.9375,-0.359375,0.359375
1696250779508,0.01586914,-0.9751587,0.19085693,-0.5,-0.796875,-0.375
1696250779551,0.015380859,-0.98150635,0.18988037,0.125,0.15625,-0.203125
1696250779589,0.021240234,-0.973938,0.18060303,-0.46875,-0.703125,0.34375
1696250779628,0.03515625,-0.9710083,0.184021,-0.34375,0.609375,0.09375
1696250779668,0.033447266,-0.9807739,0.18865967,-1.09375,-0.640625,-0.03125
1696250779728,0.024414062,-0.98687744,0.1786499,-0.359375,-1.234375,0.078125
1696250779747,0.016113281,-0.9692993,0.18963623,-0.234375,-0.75,0.21875
1696250779809,0.005859375,-0.972229,0.17938232,-1.078125,-1.671875,0.53125
1696250779849,0.014404297,-0.9846802,0.19256592,-0.59375,-0.015625,0.390625
1696250779869,0.02709961,-0.97906494,0.19134521,-0.953125,-0.5,-0.515625
1696250779929,0.021484375,-0.97076416,0.19598389,-0.953125,0.09375,-0.5625
1696250779952,0.017822266,-0.9807739,0.19525146,-0.21875,-0.109375,-0.765625
1696250779988,0.013183594,-0.9746704,0.18939209,-0.21875,-0.578125,0.3125
1696250780051,0.026367188,-0.9795532,0.20111084,-0.21875,0.046875,0.375
1696250780069,0.017822266,-0.9829712,0.1984253,1.203125,0.171875,-0.046875
1696250780110,0.040039062,-1.0032349,0.21307373,1.96875,-2.578125,1.171875
1696250780148,0.012207031,-0.9680786,0.1942749,1.078125,-4.484375,1.546875
1696250780190,0.012451172,-0.9714966,0.21990967,0.53125,0.546875,1.046875
1696250780229,0.014892578,-0.9649048,0.18304443,-0.15625,0.671875,1.3125
1696250780250,0.008056641,-1.0144653,0.18865967,1.53125,5.046875,1.140625
1696250780288,0.032470703,-1.0039673,0.15618896,4.625,4.921875,-0.46875
1696250780328,0.032958984,-0.9429321,0.16937256,2.796875,1.609375,1.40625
1696250780367,0.021484375,-0.9697876,0.16351318,6.125,3.34375,2.4375
1696250780407,0.03173828,-0.99102783,0.14007568,5.65625,-0.640625,0.703125
1696250780448,0.0390625,-0.9451294,0.14129639,4.328125,-0.078125,1.234375
1696250780490,0.046875,-0.9758911,0.12762451,4.046875,-2.421875,0.78125
1696250780528,0.037841797,-0.9373169,0.12249756,1.546875,-4.390625,-0.78125
1696250780569,0.011962891,-0.98883057,0.15374756,0.6875,-6.59375,2.5625
1696250780609,0.015136719,-1.0020142,0.1630249,0.015625,-4.625,3.1875
1696250780648,0.09741211,-0.9607544,0.16326904,-0.75,-0.65625,-1.90625
1696250780687,0.037109375,-1.0288696,0.113464355,0.84375,1.53125,0.1875
1696250780729,0.011474609,-0.9990845,0.1539917,1.4375,0.953125,1.921875
1696250780768,0.024902344,-0.9807739,0.13153076,4.15625,3.71875,-0.484375
1696250780810,0.06762695,-0.973938,0.13079834,5.640625,5.234375,0.9375
1696250780849,0.04345703,-0.97076416,0.10638428,1.796875,-1.09375,1.328125
1696250780889,0.03930664,-0.9873657,0.12664795,-1.375,-2.453125,-1.0625
1696250780929,0.025146484,-0.98394775,0.12054443,-4.0625,-2.515625,-2.359375
1696250780969,0.043945312,-0.9727173,0.13861084,-2.859375,-0.328125,-1.3125
1696250781008,0.03100586,-0.98150635,0.12567139,-3.296875,-3.0,-1.1875
1696250781049,0.03149414,-0.98321533,0.14031982,-1.09375,-0.890625,-1.0
1696250781087,0.02758789,-0.98638916,0.14544678,-1.5625,-1.40625,-0.078125
1696250781130,0.02709961,-0.9898071,0.15472412,-3.3125,-1.375,0.8125
1696250781169,0.041503906,-0.9729614,0.13934326,-0.875,0.953125,-1.578125
1696250781208,0.030273438,-0.9841919,0.13616943,-0.34375,0.28125,0.265625
1696250781247,0.04272461,-0.97247314,0.16082764,-1.078125,-1.453125,1.171875
1696250781288,0.03125,-0.98638916,0.16033936,-0.359375,-2.21875,0.0
1696250781330,0.013916016,-0.9859009,0.15594482,0.484375,-1.5625,0.296875
1696250781369,0.012207031,-0.9819946,0.15545654,-1.109375,-1.1875,0.3125
1696250781409,0.03466797,-0.98150635,0.1461792,-0.078125,-0.5,-0.03125
1696250781448,0.03540039,-0.9834595,0.1552124,-1.046875,-0.21875,0.171875
1696250781491,0.026855469,-0.9834595,0.15057373,-0.609375,-0.671875,0.078125
1696250781568,0.03515625,-0.98150635,0.1515503,-1.703125,-0.09375,-0.578125
1696250781570,0.025390625,-0.975647,0.16082764,-0.765625,0.109375,-0.296875
1696250781587,0.03100586,-0.9817505,0.16448975,-0.921875,0.109375,-0.3125
1696250781629,0.03515625,-0.97491455,0.16009521,-1.234375,-0.40625,-0.8125
1696250781668,0.021484375,-0.9837036,0.15618896,-1.5,-0.734375,-0.1875
1696250781709,0.024414062,-0.98931885,0.1630249,-0.203125,-1.65625,0.03125
1696250781751,0.036865234,-0.972229,0.1618042,-1.328125,-1.328125,0.21875
1696250781787,0.021484375,-0.9783325,0.16619873,-0.140625,-0.625,0.328125
1696250781828,0.022460938,-0.9829712,0.16619873,0.09375,-1.859375,1.03125
1696250781889,0.022460938,-0.972229,0.17132568,-0.25,-1.046875,0.296875
1696250781906,0.028076172,-0.9873657,0.16888428,0.359375,-0.1875,0.15625
1696250781948,0.021484375,-0.9854126,0.15765381,-0.625,-0.6875,0.53125
1696250781986,0.026611328,-0.97369385,0.16888428,-0.953125,-1.484375,0.28125
1696250782051,0.026855469,-0.9939575,0.1696167,-0.953125,-1.140625,0.140625
1696250782069,0.03540039,-0.97613525,0.17840576,-1.1875,-0.828125,-0.09375
1696250782110,0.017333984,-0.97979736,0.15716553,-2.109375,-2.515625,-0.125
1696250782171,0.015625,-0.96099854,0.17645264,-2.75,-1.890625,-1.0
1696250782186,0.026611328,-0.99224854,0.184021,-1.8125,0.015625,-0.234375
1696250782229,0.026123047,-0.9741821,0.18328857,-0.78125,-0.734375,-0.25
1696250782272,0.012451172,-0.98101807,0.15667725,-0.75,-0.484375,1.3125
1696250782332,0.05810547,-0.96710205,0.1774292,0.515625,-1.1875,2.015625
1696250782371,0.048339844,-0.99005127,0.19158936,0.46875,-1.78125,1.90625
1696250782387,0.008544922,-0.96588135,0.18621826,-0.34375,-1.421875,0.40625
1696250782452,0.0024414062,-0.9702759,0.17254639,0.984375,-0.484375,0.578125
1696250782492,0.036376953,-0.973938,0.1828003,1.09375,0.609375,0.640625
1696250782506,0.02734375,-0.991272,0.17889404,0.578125,-0.96875,0.90625
1696250782548,0.022216797,-0.9885864,0.17327881,0.609375,1.453125,0.453125
1696250782589,0.020996094,-0.97247314,0.1708374,0.375,0.734375,-0.09375
1696250782631,0.024169922,-0.9807739,0.17279053,0.4375,0.078125,0.640625
1696250782670,0.030517578,-0.97491455,0.17547607,-0.84375,-0.375,0.796875
1696250782709,0.030029297,-0.9768677,0.1708374,-0.875,-1.578125,0.34375
1696250782748,0.026611328,-0.9837036,0.18206787,-0.953125,-1.359375,-0.234375
1696250782789,0.037109375,-0.9768677,0.16546631,-0.953125,-0.9375,0.09375
1696250782852,0.025878906,-0.9702759,0.18060303,-1.703125,-1.1875,-0.1875
1696250782869,0.025146484,-0.97613525,0.18182373,-1.59375,-0.5625,0.1875
1696250782887,0.009277344,-0.9973755,0.17279053,-0.515625,0.265625,-0.234375
1696250782931,0.04321289,-0.97003174,0.18084717,-0.90625,1.625,-0.296875
1696250782970,0.047607422,-0.9717407,0.17303467,-0.359375,0.6875,-1.09375
1696250783008,0.041503906,-0.98394775,0.18597412,-0.859375,-0.140625,-0.59375
1696250783048,0.03100586,-0.975647,0.17547607,-1.078125,-1.78125,-0.65625
1696250783088,0.01928711,-0.9751587,0.18963623,-0.515625,-1.25,-0.03125
1696250783129,0.026367188,-0.98101807,0.18963623,-0.71875,-1.15625,0.421875
1696250783170,0.029785156,-0.97662354,0.19500732,-0.640625,-1.53125,0.421875
1696250783210,0.048095703,-0.9734497,0.18695068,-0.8125,-0.734375,0.015625
1696250783251,0.040527344,-0.9758911,0.19134521,-0.78125,-1.578125,0.0
1696250783288,0.016845703,-0.9771118,0.1828003,-0.703125,-1.78125,0.40625
1696250783328,0.018310547,-0.9846802,0.19866943,-0.109375,-1.296875,0.296875
1696250783370,0.013427734,-0.9727173,0.20111084,-0.609375,-0.734375,0.34375
1696250783408,0.009277344,-0.9734497,0.19085693,-0.796875,-0.625,-0.015625
1696250783447,0.038085938,-0.98223877,0.19720459,-0.296875,-0.015625,-0.0625
1696250783489,0.019042969,-0.97125244,0.19476318,-1.421875,-0.328125,0.0
1696250783528,0.025878906,-0.9841919,0.19256592,-1.109375,0.921875,-0.46875
1696250783570,0.028320312,-0.9812622,0.20428467,-0.4375,1.0,-0.734375
1696250783608,0.026611328,-0.96759033,0.19500732,-0.25,-0.015625,-0.125
1696250783649,0.02319336,-0.9771118,0.19500732,-0.359375,-0.328125,0.484375
1696250783689,0.011962891,-0.9812622,0.19891357,-0.53125,-0.609375,0.515625
1696250783733,0.026855469,-0.972229,0.20135498,-0.25,0.03125,0.609375
1696250783770,0.041015625,-0.96661377,0.20404053,-1.078125,-1.25,0.5
1696250783809,0.026123047,-0.9619751,0.20159912,-1.375,-1.546875,-0.078125
1696250783849,0.013427734,-0.98272705,0.20477295,-0.921875,0.171875,-1.34375
1696250783889,-0.0026855469,-0.972229,0.1906128,0.09375,1.03125,-0.34375
1696250783929,0.03173828,-0.9668579,0.21087646,2.0,2.0,-0.28125
1696250783968,0.029785156,-0.98101807,0.20111084,1.0,0.125,-0.3125
1696250784007,0.017333984,-0.96881104,0.21136475,1.296875,-0.34375,0.0625
1696250784049,0.01953125,-0.9685669,0.20184326,1.515625,-0.5,0.171875
1696250784088,0.017089844,-1.0061646,0.19476318,0.84375,-0.765625,0.703125
1696250784128,0.025878906,-0.9644165,0.21038818,1.015625,-1.046875,-0.84375
1696250784169,0.018310547,-0.9834595,0.2020874,1.859375,-0.328125,0.296875
1696250784188,0.0087890625,-0.98223877,0.18353271,-0.0625,-2.296875,1.0625
1696250784251,-0.010253906,-1.003479,0.20379639,-0.078125,-2.078125,0.6875
1696250784267,0.030517578,-0.96759033,0.19158936,-2.453125,-0.46875,0.921875
1696250784308,0.026367188,-0.96881104,0.2033081,-2.71875,0.859375,1.171875
1696250784368,0.038330078,-0.9590454,0.19915771,-3.0,-1.75,1.453125
1696250784387,0.045410156,-0.98516846,0.22161865,-3.8125,-1.296875,0.203125
1696250784429,0.013183594,-0.96954346,0.20404053,-2.21875,-2.8125,-0.328125
1696250784471,0.0078125,-0.9570923,0.1984253,-0.96875,-1.421875,-0.40625
1696250784510,0.013671875,-0.9702759,0.19940186,0.734375,0.09375,0.734375
1696250784550,-0.0021972656,-0.9829712,0.22528076,-0.1875,0.265625,1.25
1696250784588,0.03149414,-0.9678345,0.21063232,0.40625,0.234375,-0.484375
1696250784651,0.040039062,-0.96417236,0.2074585,0.671875,1.34375,-0.65625
1696250784666,0.040039062,-0.97320557,0.21380615,0.328125,0.484375,-0.15625
1696250784708,0.024169922,-0.9883423,0.22283936,0.9375,-0.375,-0.84375
1696250784748,0.0029296875,-0.95635986,0.21331787,0.046875,-0.125,-1.3125
1696250784790,0.01953125,-1.0359497,0.20355225,-0.703125,0.5,-0.9375
1696250784827,0.041503906,-0.92266846,0.20428467,-1.859375,-1.265625,-1.859375
1696250784888,0.007080078,-0.9849243,0.19647217,-3.296875,-1.4375,0.515625
1696250784927,0.022460938,-0.9829712,0.24603271,-2.59375,-1.53125,0.90625
1696250784968,0.011962891,-0.9981079,0.22650146,-1.890625,-1.5,0.0
1696250784987,-0.012451172,-0.93634033,0.22235107,-2.828125,-1.375,1.296875
1696250785029,-0.028564453,-0.9837036,0.21429443,-0.921875,0.671875,1.28125
1696250785070,0.052734375,-0.97076416,0.21551514,0.484375,2.78125,0.78125
1696250785108,0.06713867,-0.956604,0.2140503,2.09375,1.625,-0.578125
1696250785148,0.028808594,-0.95880127,0.20770264,0.90625,-1.25,-0.171875
1696250785188,-0.011230469,-0.9963989,0.23553467,1.171875,0.359375,-0.734375
1696250785230,-9.765625E-4,-0.98028564,0.22137451,2.78125,1.71875,-0.25
1696250785268,0.032714844,-0.9727173,0.22039795,1.15625,2.5625,-1.09375
1696250785308,0.040039062,-0.98638916,0.22064209,1.109375,0.28125,-0.9375
1696250785349,0.017333984,-0.9841919,0.21429443,-1.234375,-2.453125,-0.453125
1696250785388,0.010253906,-0.9624634,0.21331787,-0.796875,-0.984375,-0.625
1696250785428,0.017822266,-0.97613525,0.22332764,-0.640625,-1.234375,-0.140625
1696250785492,0.022216797,-0.9729614,0.21160889,-1.296875,-2.71875,0.8125
1696250785495,2.4414062E-4,-0.9656372,0.22576904,-0.4375,-2.21875,0.65625
1696250785528,-0.014404297,-0.973938,0.21917725,-0.71875,-0.65625,0.15625
1696250785569,2.4414062E-4,-0.973938,0.22039795,0.15625,0.609375,0.46875
1696250785610,0.018310547,-0.975647,0.21942139,-0.171875,1.25,0.15625
1696250785649,0.005126953,-0.9788208,0.21966553,-1.0625,-0.15625,-0.203125
1696250785687,0.018310547,-0.97784424,0.2243042,-1.125,0.875,-1.078125
1696250785727,0.0075683594,-0.96881104,0.21087646,-1.03125,-0.34375,-0.421875
1696250785768,0.037353516,-0.9678345,0.21673584,-0.609375,0.203125,0.84375
1696250785811,0.01977539,-0.9841919,0.22503662,-0.359375,-0.875,1.03125
1696250785850,-0.017089844,-0.9758911,0.21185303,-1.0,-1.390625,1.546875
1696250785892,-0.037841797,-0.9734497,0.21429443,-0.703125,0.828125,2.34375
1696250785928,0.013183594,-0.9612427,0.23309326,0.90625,3.859375,1.71875
1696250785969,0.05859375,-0.9505005,0.22796631,0.59375,2.890625,0.921875
1696250786009,0.079833984,-0.96173096,0.21966553,0.015625,0.09375,-0.0625
1696250786050,0.03857422,-0.97052,0.22991943,0.5,-2.84375,-0.15625
1696250786088,0.0053710938,-0.9834595,0.21990967,1.328125,-2.078125,0.328125
1696250786129,0.022705078,-0.97613525,0.22943115,0.53125,-1.34375,0.15625
1696250786169,0.025878906,-0.96417236,0.22161865,0.59375,-3.421875,0.578125
1696250786209,0.013427734,-0.9932251,0.21258545,-1.46875,-3.6875,1.375
1696250786248,-0.005126953,-0.97125244,0.22406006,-1.53125,-2.359375,1.25
1696250786288,0.0048828125,-0.9573364,0.22454834,-1.09375,0.046875,1.375
1696250786328,0.035888672,-0.96661377,0.22747803,-0.421875,0.296875,1.53125
1696250786369,0.040527344,-0.9690552,0.23016357,-0.40625,-1.375,0.96875
1696250786410,0.016845703,-0.9614868,0.22943115,-0.3125,-1.375,-0.21875
1696250786448,0.01977539,-0.9639282,0.21380615,1.078125,0.921875,-0.6875
1696250786489,0.0234375,-0.96661377,0.21990967,1.75,-0.015625,-0.953125
1696250786528,0.006591797,-0.9741821,0.23260498,1.8125,-0.78125,-1.328125
1696250786569,0.0,-0.97369385,0.21136475,1.796875,2.21875,-1.671875
1696250786609,0.012207031,-0.9729614,0.20965576,1.265625,2.9375,-1.671875
1696250786648,0.016601562,-0.9729614,0.22845459,-0.4375,0.234375,-0.546875
1696250786689,-0.01586914,-1.0095825,0.22113037,-1.890625,1.140625,1.90625
1696250786728,0.03149414,-0.9873657,0.23065186,-0.875,3.984375,0.546875
1696250786768,0.06347656,-0.94732666,0.23284912,-0.9375,1.34375,0.625
1696250786789,0.05493164,-0.958313,0.22869873,-1.390625,-0.765625,1.59375
1696250786829,0.040283203,-0.9758911,0.22943115,-0.6875,-3.671875,0.40625
1696250786891,0.014892578,-0.97857666,0.22259521,-0.3125,-3.453125,0.265625
1696250786909,-0.010253906,-0.9702759,0.21990967,-0.203125,-1.5,0.734375
1696250786947,0.0048828125,-0.9651489,0.22161865,-0.296875,-0.859375,1.171875
1696250786989,0.029785156,-0.98150635,0.22650146,-0.765625,-0.546875,0.453125
1696250787028,0.02709961,-0.9673462,0.22650146,-0.53125,-1.1875,-0.390625
1696250787089,0.0036621094,-0.95977783,0.22064209,-0.078125,-0.0625,0.171875
1696250787107,0.028320312,-0.9812622,0.22796631,0.171875,-0.0625,-0.125
1696250787147,0.04296875,-0.95806885,0.22845459,0.9375,-1.03125,0.0
1696250787189,0.030029297,-0.9702759,0.21942139,0.03125,-1.578125,0.140625
1696250787228,0.016601562,-0.98516846,0.21624756,-0.015625,-1.4375,-0.484375
1696250787268,-0.0068359375,-0.98101807,0.22113037,0.3125,-0.5625,0.640625
1696250787308,0.0048828125,-0.97613525,0.21844482,-0.546875,0.71875,1.046875
1696250787348,0.021728516,-0.9680786,0.22235107,-0.828125,1.0625,0.625
1696250787389,0.032226562,-0.9495239,0.23040771,-0.828125,-0.078125,1.5625
1696250787449,0.041992188,-0.954895,0.2387085,-1.421875,-2.484375,3.71875
1696250787468,0.025390625,-0.9819946,0.22894287,1.375,-1.984375,2.140625
1696250787530,0.072265625,-1.0093384,0.23529053,5.578125,-1.671875,-0.484375
1696250787547,0.0126953125,-0.9331665,0.21624756,-1.4375,-8.46875,0.109375
1696250787609,-0.01953125,-0.9612427,0.22161865,-3.421875,-4.59375,0.921875
1696250787628,0.020019531,-1.0112915,0.22503662,0.796875,0.734375,0.109375
1696250787669,0.059814453,-0.9819946,0.24798584,3.359375,6.140625,-0.765625
1696250787709,0.055419922,-0.97613525,0.22991943,2.359375,4.921875,-0.671875
1696250787769,0.05102539,-0.9680786,0.19598389,-0.390625,1.0,-0.71875
1696250787788,0.0715332,-0.9607544,0.23187256,1.390625,-0.5625,-0.640625
1696250787831,0.005126953,-0.9651489,0.18963623,-1.53125,-5.21875,1.375
1696250787869,-0.0036621094,-0.9614868,0.22576904,4.734375,-2.546875,1.59375
1696250787930,0.03491211,-1.0298462,0.22381592,8.109375,-1.234375,1.90625
1696250787948,0.020996094,-0.92022705,0.16644287,4.640625,-1.84375,2.46875
1696250787988,0.036132812,-0.9529419,0.19818115,4.75,-1.75,1.09375
1696250788027,0.041015625,-0.9824829,0.1918335,3.671875,0.359375,-0.65625
1696250788067,0.02368164,-0.972229,0.1786499,0.09375,-2.484375,0.171875
1696250788111,0.014892578,-0.9920044,0.18865967,-0.546875,-3.34375,1.6875
1696250788127,0.05444336,-1.0064087,0.1942749,0.421875,-0.28125,-0.421875
1696250788168,0.051757812,-0.960022,0.19329834,0.4375,-0.875,-0.390625
1696250788210,0.03100586,-0.97076416,0.1696167,-0.421875,-0.296875,1.21875
1696250788251,0.010986328,-0.99298096,0.19500732,0.015625,-0.3125,-0.1875
1696250788290,0.02319336,-0.9807739,0.17645264,0.953125,0.53125,0.15625
1696250788328,0.049316406,-0.9656372,0.17474365,-1.921875,-0.21875,0.03125
1696250788368,0.03491211,-0.98223877,0.18939209,-1.515625,-0.359375,0.234375
1696250788409,0.03955078,-0.9819946,0.1918335,-0.78125,-0.890625,-0.546875
1696250788449,0.044189453,-0.9639282,0.18450928,-0.65625,-0.875,0.21875
1696250788492,0.040039062,-0.97735596,0.19012451,-0.140625,-0.671875,0.125
1696250788530,0.036621094,-0.98272705,0.19134521,-0.09375,-0.625,-0.171875
1696250788568,0.020019531,-0.97125244,0.18865967,-0.875,-1.0,0.203125
1696250788609,0.02319336,-0.9841919,0.19036865,-0.796875,-0.53125,0.109375
1696250788649,0.043945312,-0.9812622,0.20135498,0.125,0.6875,-0.15625
1696250788691,0.043945312,-0.9788208,0.19354248,-0.1875,-0.125,-0.296875
1696250788730,0.026123047,-0.9727173,0.19134521,-0.921875,-0.96875,0.234375
1696250788770,0.028076172,-0.97735596,0.19769287,-0.203125,0.234375,0.125
1696250788809,0.035888672,-0.9768677,0.19622803,-0.265625,-1.0,-0.046875
1696250788849,0.030761719,-0.96466064,0.1852417,-0.453125,-0.109375,-0.078125
1696250788889,0.033447266,-0.9763794,0.2008667,-0.28125,-0.421875,-0.359375
1696250788929,0.029541016,-0.9768677,0.19720459,-0.015625,-0.8125,-0.203125
1696250788967,0.017822266,-0.9717407,0.1906128,-0.109375,0.171875,0.296875
1696250789008,0.021484375,-0.98028564,0.20379639,0.234375,0.328125,0.0625
1696250789049,0.022216797,-0.97125244,0.19671631,-0.1875,-0.453125,-0.171875
1696250789088,0.024658203,-0.98272705,0.19598389,-0.9375,-0.3125,-0.359375
1696250789128,0.04248047,-0.97320557,0.19476318,-1.359375,0.5625,-0.265625
1696250789169,0.041992188,-0.96954346,0.19573975,-0.796875,-0.671875,-0.5625
1696250789212,0.0234375,-0.9780884,0.20306396,-0.8125,-0.453125,-0.046875
1696250789250,0.013427734,-0.9717407,0.20501709,-0.25,-0.28125,-0.09375
1696250789288,0.030761719,-0.97662354,0.20184326,-0.6875,-0.265625,-0.203125
1696250789327,0.03100586,-0.97125244,0.2098999,-0.15625,-0.21875,-0.265625
1696250789369,0.034179688,-0.9763794,0.20428467,-0.046875,-0.25,0.21875
1696250789410,0.026123047,-0.97125244,0.19232178,-0.75,-0.953125,-0.28125
1696250789427,0.015380859,-0.9771118,0.21063232,-0.484375,0.40625,0.8125
1696250789488,0.02319336,-0.98272705,0.20404053,-0.015625,-0.21875,-0.390625
1696250789508,0.031982422,-0.97125244,0.2033081,-0.671875,0.453125,-0.078125
1696250789549,0.03149414,-0.97247314,0.20916748,-0.265625,-0.640625,0.328125
1696250789589,0.022949219,-0.97906494,0.20648193,-0.6875,-1.015625,0.046875
1696250789648,0.012207031,-0.97076416,0.20721436,0.046875,-0.6875,-0.609375
1696250789689,0.016601562,-0.9717407,0.20428467,-0.375,0.015625,0.15625
1696250789708,0.03173828,-0.97003174,0.20452881,-0.625,-0.5,-0.03125
1696250789750,0.02368164,-0.98516846,0.2111206,-0.40625,-0.484375,-0.09375
1696250789790,0.01953125,-0.9710083,0.2074585,-0.59375,-0.640625,-0.140625
1696250789829,0.020751953,-0.97247314,0.20648193,0.015625,-0.171875,-0.125
1696250789870,0.028320312,-0.97442627,0.20306396,0.125,-0.21875,-0.046875
1696250789908,0.026611328,-0.97857666,0.20916748,-0.28125,-0.875,0.453125
1696250789969,0.03540039,-0.96661377,0.20379639,0.03125,0.078125,0.34375
1696250789988,0.013916016,-0.9819946,0.21868896,0.171875,-0.296875,0.625
1696250790029,0.032226562,-0.9841919,0.20916748,0.28125,-0.375,0.828125
1696250790070,0.020019531,-0.9631958,0.2008667,0.0,0.03125,0.5
1696250790110,0.01928711,-0.9783325,0.20452881,0.328125,-0.359375,1.03125
1696250790149,0.01977539,-0.96954346,0.20916748,0.125,-0.1875,0.265625
1696250790187,0.020996094,-0.9788208,0.21429443,-0.46875,1.171875,-0.90625
1696250790228,0.010009766,-0.9780884,0.20770264,0.59375,0.65625,-0.109375
1696250790289,0.025878906,-0.97662354,0.20599365,0.015625,0.71875,0.96875
1696250790310,0.02734375,-0.9746704,0.20306396,-0.453125,0.171875,-0.484375
1696250790367,0.028320312,-0.98101807,0.20721436,0.234375,0.21875,0.078125
1696250790387,0.021484375,-0.96588135,0.20819092,-0.375,-0.71875,0.359375
1696250790430,0.021484375,-0.9680786,0.20526123,-0.21875,-0.25,0.203125
1696250790487,0.03100586,-0.98272705,0.21160889,0.71875,0.46875,-0.140625
1696250790508,0.028808594,-0.9849243,0.20281982,0.125,-0.234375,0.515625
1696250790550,0.026855469,-0.95977783,0.20916748,0.546875,-0.328125,-0.046875
1696250790587,0.020019531,-0.9729614,0.20135498,-0.125,-0.71875,0.1875
1696250790628,0.021728516,-0.9829712,0.20306396,-0.75,-0.78125,-0.046875
1696250790696,0.014160156,-0.973938,0.21087646,0.078125,-0.21875,0.703125
1696250790729,0.02319336,-0.97735596,0.20062256,-0.484375,-0.546875,0.171875
1696250790731,0.02709961,-0.97442627,0.21331787,-0.1875,-0.03125,-0.0625
1696250790769,0.025390625,-0.97540283,0.20648193,-0.25,-0.1875,0.078125
1696250790808,0.013427734,-0.98223877,0.215271,-0.546875,-0.390625,0.078125
1696250790850,0.018066406,-0.96466064,0.20477295,-0.53125,0.59375,-0.21875
1696250790888,0.032714844,-0.9656372,0.21575928,0.203125,1.109375,-0.515625
1696250790929,0.029296875,-0.9783325,0.20477295,-0.90625,-0.984375,-0.171875
1696250790968,0.03125,-0.96539307,0.20379639,-0.515625,-0.71875,-1.390625
1696250791008,0.024902344,-0.975647,0.21014404,-0.34375,-0.453125,-1.203125
1696250791051,4.8828125E-4,-0.9829712,0.2177124,-0.734375,-1.25,-0.515625
1696250791088,-0.014892578,-0.97442627,0.20819092,-0.578125,-0.8125,0.078125
1696250791128,0.011474609,-0.97662354,0.20941162,-0.953125,0.90625,0.28125
1696250791170,0.023925781,-0.98028564,0.21429443,-0.59375,1.109375,0.1875
1696250791208,0.025634766,-0.97857666,0.21160889,-1.03125,-0.15625,0.453125
1696250791251,0.032714844,-0.96539307,0.22113037,0.484375,0.921875,0.09375
1696250791289,0.020507812,-0.9883423,0.21624756,2.203125,-1.0625,1.421875
1696250791330,0.0078125,-0.97198486,0.20819092,-0.4375,-5.4375,2.8125
1696250791370,-0.0017089844,-1.0232544,0.21282959,8.328125,0.78125,3.78125
1696250791409,0.07763672,-0.9812622,0.20819092,8.390625,-2.640625,0.03125
1696250791449,0.034423828,-0.95025635,0.1798706,-1.046875,-3.34375,3.0625
1696250791489,0.0024414062,-0.94610596,0.15692139,7.390625,-3.265625,2.625
1696250791529,0.057128906,-1.006897,0.2074585,4.5,-3.828125,1.109375
1696250791569,0.010009766,-0.9505005,0.13665771,3.28125,0.9375,1.296875
1696250791608,0.024169922,-0.9710083,0.15887451,3.453125,-2.828125,-0.09375
1696250791649,0.032714844,-0.9500122,0.15887451,-0.59375,0.53125,-0.1875
1696250791689,0.026123047,-0.97052,0.18231201,-2.15625,-2.625,0.28125
1696250791727,-0.01586914,-0.9890747,0.17889404,-1.578125,-3.03125,1.25
1696250791769,0.030029297,-0.99591064,0.1930542,-1.34375,-0.015625,-0.296875
1696250791810,0.061523438,-0.98272705,0.17401123,-1.21875,0.4375,-1.1875
1696250791851,0.045166016,-0.9898071,0.17938232,-0.859375,-0.640625,-0.140625
1696250791889,0.024658203,-0.97247314,0.1749878,0.34375,-0.78125,-0.4375
1696250791928,0.01953125,-0.9651489,0.18475342,-0.671875,-1.96875,-0.40625
1696250791970,0.029541016,-0.986145,0.18182373,-1.46875,0.03125,-0.140625
1696250792050,0.026367188,-0.9846802,0.18426514,-1.0625,-1.859375,-0.734375
1696250792054,0.012207031,-0.9763794,0.18035889,-1.125,-1.046875,-0.234375
1696250792069,0.032470703,-0.9812622,0.17938232,-0.921875,-1.078125,0.40625
1696250792109,0.04345703,-0.9771118,0.18499756,-0.875,-0.21875,-0.125
1696250792151,0.017578125,-0.9885864,0.18304443,0.28125,-1.25,-0.375
1696250792210,0.016357422,-0.97857666,0.18060303,-0.6875,0.140625,-0.078125
1696250792229,0.018310547,-0.9727173,0.18695068,0.53125,-0.015625,-0.171875
1696250792268,0.01977539,-0.9751587,0.18060303,0.25,0.203125,0.1875
1696250792312,0.016601562,-0.97906494,0.19696045,2.71875,1.46875,0.578125
1696250792348,4.8828125E-4,-1.0112915,0.17376709,1.71875,0.515625,1.59375
1696250792409,0.042236328,-0.944397,0.16326904,0.953125,0.78125,0.828125
1696250792428,0.052001953,-0.9644165,0.16864014,1.875,0.03125,0.390625
1696250792470,0.03100586,-0.989563,0.17718506,0.125,-1.453125,0.109375
1696250792508,0.013671875,-0.98638916,0.168396,0.890625,-0.53125,0.0
1696250792548,0.017089844,-0.9685669,0.16009521,0.5,0.5625,-0.21875
1696250792612,0.030273438,-0.98687744,0.1798706,-0.640625,-0.296875,0.75
1696250792627,0.039794922,-0.9788208,0.18084717,-1.109375,-0.09375,0.421875
1696250792669,0.024169922,-0.98394775,0.17132568,-1.828125,-1.75,-0.046875
1696250792727,0.024902344,-0.972229,0.1798706,-2.421875,-1.828125,0.453125
1696250792748,0.026611328,-0.97857666,0.17913818,-2.265625,-1.71875,-0.59375
1696250792788,0.028076172,-0.9805298,0.18670654,-2.109375,-1.46875,-0.59375
1696250792827,0.020751953,-0.9783325,0.1786499,-0.515625,-0.984375,-0.25
1696250792870,0.018554688,-0.97247314,0.1828003,-1.4375,-0.78125,0.203125
1696250792908,0.021728516,-0.9697876,0.18963623,-0.734375,-0.203125,0.0
1696250792949,0.036376953,-0.9776001,0.19158936,0.25,0.171875,0.3125
1696250793011,0.024169922,-0.96661377,0.18475342,-0.59375,-0.59375,0.484375
1696250793026,0.01928711,-0.98565674,0.19476318,0.921875,1.46875,0.84375
1696250793070,0.036376953,-0.99664307,0.19989014,4.578125,3.9375,0.203125
1696250793109,0.022460938,-0.99102783,0.18475342,2.375,2.21875,1.609375
1696250793151,0.0068359375,-0.94488525,0.17840576,2.046875,2.84375,2.421875
1696250793208,0.033447266,-0.99664307,0.16815186,1.046875,0.234375,1.484375
1696250793250,0.05810547,-0.9768677,0.17010498,0.25,1.078125,0.734375
1696250793268,0.033935547,-0.97784424,0.16741943,0.609375,0.078125,1.1875
1696250793312,0.044677734,-0.9768677,0.16253662,1.65625,-0.109375,-0.078125
1696250793368,0.026123047,-0.97052,0.1749878,1.71875,-0.5625,1.109375
1696250793372,0.014404297,-0.9795532,0.16107178,-1.359375,-1.421875,1.53125
1696250793408,0.029052734,-0.98931885,0.15838623,0.921875,0.171875,0.46875
1696250793449,0.053222656,-0.96881104,0.16375732,1.140625,0.71875,-0.484375
1696250793490,0.045166016,-0.9624634,0.1605835,0.234375,-0.890625,0.265625
1696250793527,0.04321289,-0.9859009,0.15740967,0.4375,-1.9375,0.09375
1696250793569,0.026855469,-0.986145,0.16107178,0.109375,-2.09375,-0.25
1696250793609,0.02734375,-0.98150635,0.15716553,-0.046875,-1.59375,0.125
1696250793648,0.042236328,-0.9668579,0.16790771,-1.796875,-3.15625,-0.15625
1696250793688,0.037353516,-0.97662354,0.168396,-1.890625,-4.3125,0.203125
1696250793727,0.0390625,-0.98883057,0.18988037,-0.78125,-1.28125,0.484375
1696250793768,0.036376953,-0.99176025,0.17327881,-0.515625,-2.375,-0.015625
1696250793811,0.02709961,-0.97052,0.17596436,-0.734375,-0.59375,-0.484375
1696250793848,0.0390625,-0.97662354,0.17938232,-0.296875,0.59375,0.046875
1696250793890,0.048583984,-0.9837036,0.18084717,-0.34375,-0.1875,-0.78125
1696250793930,0.03125,-0.9741821,0.16815186,-1.21875,-0.5625,-0.5625
1696250793968,0.026855469,-0.9741821,0.16619873,-0.984375,-1.078125,-0.9375
1696250794008,0.030029297,-0.98321533,0.18499756,-0.296875,-0.359375,-0.4375
1696250794051,0.020019531,-0.9771118,0.17352295,0.109375,-0.421875,-0.640625
1696250794088,0.032714844,-0.972229,0.17401123,-0.140625,0.265625,-0.1875
1696250794129,0.031982422,-0.98321533,0.17791748,-0.203125,0.234375,0.265625
1696250794169,0.032714844,-0.98638916,0.18865967,-0.75,-0.234375,0.328125
1696250794210,0.031982422,-0.97979736,0.17401123,0.515625,-0.265625,0.015625
1696250794248,0.021484375,-0.9793091,0.17962646,0.109375,-0.6875,0.453125
1696250794290,0.032226562,-0.98565674,0.18353271,0.46875,-0.21875,0.828125
1696250794327,0.021972656,-0.9780884,0.18353271,0.40625,0.3125,0.875
1696250794368,0.03149414,-0.9758911,0.1696167,0.28125,0.296875,0.828125
1696250794408,0.036865234,-0.98101807,0.17279053,-0.796875,-0.171875,0.1875
1696250794448,0.02758789,-0.9780884,0.1642456,0.796875,-0.234375,0.28125
1696250794488,0.037597656,-0.97857666,0.17401123,-1.25,-0.671875,0.71875
1696250794531,0.026367188,-0.9771118,0.18939209,-0.46875,-0.625,-0.171875
1696250794569,0.024169922,-0.9702759,0.1696167,-1.78125,-1.625,0.6875
1696250794610,0.043945312,-0.9714966,0.18011475,-1.265625,-0.015625,-0.375
1696250794669,0.03857422,-0.9963989,0.1876831,0.546875,-0.234375,-0.125
1696250794689,0.03491211,-0.96881104,0.17669678,-0.40625,-0.65625,0.59375
1696250794709,0.02709961,-0.97003174,0.17962646,-1.59375,-1.234375,-0.390625
1696250794748,0.029052734,-0.9846802,0.19012451,0.796875,-0.09375,-0.25
1696250794789,0.041259766,-0.975647,0.18157959,-0.75,-1.453125,-0.0625
1696250794848,0.03540039,-0.9668579,0.17425537,-1.234375,-1.296875,-0.28125
1696250794867,0.021240234,-0.9807739,0.1930542,-0.140625,-0.8125,-0.0625
1696250794909,0.021972656,-0.9846802,0.18719482,-0.296875,-0.421875,0.5
1696250794951,0.03173828,-0.97662354,0.19110107,-1.6875,-0.90625,-0.09375
1696250794988,0.025878906,-0.9771118,0.18743896,-0.03125,-0.671875,-0.015625
1696250795047,0.025878906,-0.98565674,0.18426514,-0.90625,-0.078125,0.203125
1696250795070,0.035888672,-0.97784424,0.18670654,-0.171875,-0.296875,0.078125
1696250795130,0.041992188,-0.97369385,0.18963623,0.046875,0.125,-0.40625
1696250795175,0.016601562,-0.9788208,0.18963623,-1.046875,-1.125,0.40625
1696250795188,0.01977539,-0.98394775,0.19622803,0.5625,-0.09375,-0.03125
1696250795228,0.025634766,-0.97052,0.1876831,-0.375,-0.046875,0.0625
1696250795291,0.036621094,-0.97198486,0.18743896,-0.453125,-0.71875,0.34375
1696250795309,0.026611328,-0.9944458,0.19940186,-0.0625,-0.125,0.171875
1696250795368,0.026611328,-0.9690552,0.19134521,-0.046875,-0.84375,0.015625
1696250795410,0.024658203,-0.9727173,0.18621826,-0.296875,0.15625,0.015625
1696250795449,0.021240234,-0.98809814,0.19696045,-0.015625,-0.6875,0.046875
1696250795491,0.022216797,-0.96954346,0.1930542,-0.5625,-1.140625,0.078125
1696250795508,0.02368164,-0.972229,0.18255615,-1.296875,-0.453125,0.140625
1696250795548,0.018066406,-0.99957275,0.19525146,-0.734375,0.3125,0.4375
1696250795589,0.025390625,-0.9741821,0.19012451,-0.515625,-0.046875,0.328125
1696250795628,0.038330078,-0.97491455,0.1918335,-0.6875,0.1875,0.046875
1696250795668,0.030761719,-0.95880127,0.18939209,-0.203125,-0.1875,-0.171875
1696250795708,0.025390625,-0.97442627,0.19866943,2.75,0.390625,0.265625
1696250795749,0.019042969,-0.9924927,0.18597412,1.921875,-0.390625,2.0625
1696250795789,0.022949219,-0.97003174,0.18572998,-0.078125,-1.21875,0.765625
1696250795831,0.041748047,-0.9680786,0.18133545,-0.609375,-0.078125,-0.625
1696250795868,0.03149414,-0.9751587,0.18182373,-0.40625,-0.203125,0.3125
1696250795931,0.041503906,-0.987854,0.18743896,-0.8125,-1.21875,-0.109375
1696250795968,0.020263672,-0.97979736,0.19866943,0.09375,-0.1875,0.078125
1696250795971,0.010986328,-0.97003174,0.19598389,-0.234375,-0.5,-0.21875
1696250796011,0.03564453,-0.96661377,0.19036865,-0.609375,0.109375,0.03125
1696250796050,0.04296875,-0.9727173,0.2062378,0.234375,-0.78125,0.875
1696250796089,0.029296875,-0.986145,0.1876831,-0.953125,-1.890625,1.109375
1696250796129,0.034423828,-0.99005127,0.1954956,0.15625,-0.078125,0.734375
1696250796169,0.040283203,-0.9585571,0.19329834,0.28125,-0.90625,1.125
1696250796209,0.035888672,-0.9483032,0.19085693,-0.578125,-1.171875,1.828125
1696250796250,0.040283203,-0.9873657,0.20428467,-0.828125,-1.515625,1.125
1696250796289,0.01953125,-0.99053955,0.2020874,-0.984375,-1.359375,0.4375
1696250796328,0.0234375,-0.9751587,0.18719482,-0.265625,0.421875,0.28125
1696250796368,0.037353516,-0.9639282,0.20306396,-0.359375,0.453125,0.03125
1696250796409,0.036132812,-0.98321533,0.1918335,-0.25,-0.625,0.171875
1696250796450,0.024902344,-0.9800415,0.20355225,0.03125,0.734375,-0.578125
1696250796488,0.034423828,-0.98394775,0.19744873,0.03125,1.640625,-0.234375
1696250796529,0.041015625,-0.9780884,0.18963623,0.125,0.734375,0.15625
1696250796569,0.05493164,-0.97369385,0.20404053,0.546875,0.8125,0.46875
1696250796609,0.038085938,-0.973938,0.19720459,0.71875,-1.015625,0.859375
1696250796648,0.042236328,-0.97735596,0.2020874,-0.109375,-1.140625,0.296875
1696250796689,0.03857422,-0.97784424,0.22113037,-0.921875,-1.515625,0.578125
1696250796730,0.030761719,-0.9788208,0.1876831,1.453125,-0.8125,1.609375
1696250796770,0.041259766,-0.9768677,0.19525146,1.984375,1.296875,1.0
1696250796813,0.03540039,-0.97198486,0.18817139,0.859375,2.0,2.625
1696250796851,0.03930664,-1.0071411,0.17474365,1.90625,4.234375,3.875
1696250796887,0.061767578,-0.9356079,0.18719482,1.6875,0.140625,2.640625
1696250796931,0.095214844,-0.97003174,0.17791748,1.71875,1.8125,1.890625
1696250796970,0.08081055,-0.96881104,0.19012451,-0.234375,-2.5,0.59375
1696250797010,0.035888672,-0.99176025,0.20501709,-1.1875,-1.84375,-0.84375
1696250797050,0.033447266,-0.9661255,0.19110107,-3.703125,2.40625,-2.25
1696250797090,0.030517578,-0.98443604,0.18353271,-1.46875,4.125,-0.515625
1696250797127,0.036621094,-0.9907837,0.18084717,2.734375,2.265625,-0.140625
1696250797169,0.033203125,-0.98809814,0.21673584,1.75,0.9375,0.140625
1696250797209,0.03466797,-0.9639282,0.17767334,1.515625,1.28125,0.421875
1696250797248,0.06640625,-0.97125244,0.16619873,0.921875,1.125,-0.578125
1696250797288,0.061279297,-0.96759033,0.17303467,2.421875,-0.484375,-0.34375
1696250797309,0.06591797,-0.97003174,0.18255615,2.0625,-1.5,-0.515625
1696250797349,0.03466797,-0.9734497,0.15667725,1.5625,-2.8125,-0.125
1696250797390,0.036621094,-0.956604,0.15838623,0.53125,-3.546875,-0.375
1696250797429,0.048583984,-0.9697876,0.17108154,0.34375,-4.6875,-0.171875
1696250797470,0.02368164,-0.975647,0.15472412,-1.359375,-10.484375,0.65625
1696250797508,0.041259766,-1.0215454,0.18548584,-0.5625,-5.6875,0.578125
1696250797551,0.05834961,-0.9793091,0.19671631,0.359375,-0.46875,-0.984375
1696250797589,0.03857422,-0.9692993,0.17010498,-1.59375,-1.265625,0.0625
1696250797650,0.03857422,-0.9885864,0.17523193,0.90625,1.03125,0.078125
1696250797668,0.04711914,-0.9788208,0.1798706,0.71875,-0.6875,-0.234375
1696250797730,0.04296875,-0.96710205,0.16375732,-1.46875,-0.171875,-0.203125
1696250797768,0.032958984,-0.99176025,0.19354248,0.421875,-0.171875,-0.078125
1696250797786,0.026123047,-0.9829712,0.17718506,-0.21875,-0.15625,0.25
1696250797851,0.038085938,-0.9746704,0.17669678,-0.03125,0.03125,0.0
1696250797868,0.04711914,-0.9854126,0.18450928,0.171875,-0.0625,0.25
1696250797908,0.040039062,-0.9793091,0.17840576,0.46875,-0.4375,-0.03125
1696250797949,0.027832031,-0.9697876,0.16693115,0.1875,-0.1875,0.03125
1696250797990,0.036865234,-0.98028564,0.17156982,-0.21875,-0.40625,0.125
1696250798029,0.041015625,-0.975647,0.18328857,0.15625,0.421875,0.15625
1696250798068,0.042236328,-0.97613525,0.18011475,0.09375,-0.625,0.390625
1696250798111,0.034423828,-0.972229,0.16815186,-0.296875,-0.828125,0.25
1696250798169,0.03930664,-0.9734497,0.1749878,0.75,-0.078125,0.6875
1696250798188,0.045410156,-0.97735596,0.17816162,-0.15625,-1.015625,0.359375
1696250798251,0.032958984,-0.98883057,0.17034912,-0.0625,-1.984375,0.53125
1696250798267,0.044433594,-1.0020142,0.17230225,-0.96875,-2.046875,-0.609375
1696250798312,0.035888672,-0.9690552,0.1828003,-1.46875,-0.203125,-0.390625
1696250798348,0.04638672,-0.9656372,0.17718506,-0.59375,-0.5625,0.421875
1696250798393,0.03881836,-0.9817505,0.17254639,-0.375,-0.46875,-0.046875
1696250798430,0.03149414,-0.9812622,0.18548584,0.8125,-0.75,-0.5
1696250798470,0.030761719,-0.9734497,0.18109131,-1.453125,-0.921875,-0.265625
1696250798508,0.018554688,-0.9673462,0.17840576,-1.15625,-0.125,-0.5625
1696250798549,0.032958984,-0.9800415,0.17889404,-0.28125,-0.328125,0.328125
1696250798607,0.05053711,-0.9734497,0.18988037,-0.515625,0.09375,0.609375
1696250798609,0.0390625,-0.98321533,0.18060303,-0.34375,-0.796875,0.4375
1696250798649,0.032470703,-0.98394775,0.18548584,0.53125,-0.859375,0.0
1696250798729,0.025878906,-0.9729614,0.18548584,0.609375,-0.28125,0.890625
1696250798732,0.04638672,-0.972229,0.184021,0.125,-0.875,0.609375
1696250798771,0.03857422,-0.9834595,0.18475342,0.0625,-1.484375,0.40625
1696250798808,0.04638672,-0.9734497,0.18206787,-0.15625,-0.25,-0.03125
1696250798850,0.027832031,-0.98028564,0.18133545,-0.0625,-0.234375,0.265625
1696250798889,0.025634766,-0.9841919,0.18231201,-0.3125,-0.546875,0.265625
1696250798930,0.030273438,-0.97540283,0.17547607,0.359375,0.5625,-0.234375
1696250798971,0.044433594,-0.9807739,0.19232178,0.390625,0.515625,-0.0625
1696250799007,0.025390625,-0.9680786,0.17279053,0.0,-2.0,0.28125
1696250799051,0.03564453,-0.97491455,0.18572998,-2.0,-1.515625,-0.109375
1696250799090,0.03955078,-0.96588135,0.1720581,-3.625,-2.8125,0.0
1696250799129,0.03930664,-0.9849243,0.20526123,-3.078125,-1.59375,-0.921875
1696250799168,0.029296875,-0.98809814,0.20111084,-2.375,-2.25,-0.25
1696250799208,0.0087890625,-0.97662354,0.19110107,-0.234375,-0.171875,2.15625
1696250799250,0.020996094,-0.9729614,0.20184326,0.5625,1.015625,0.9375
1696250799288,0.047607422,-0.9612427,0.19622803,0.421875,1.671875,-0.875
1696250799328,0.043701172,-0.9746704,0.19720459,-0.53125,-0.296875,0.359375
1696250799367,0.034423828,-0.97613525,0.18206787,-1.9375,-1.453125,-0.828125
1696250799408,0.024658203,-0.9841919,0.19744873,-0.625,1.28125,-1.03125
1696250799450,0.031982422,-0.97491455,0.19940186,-0.390625,0.5625,0.84375
1696250799491,0.04736328,-0.9690552,0.19915771,-0.265625,-0.90625,1.09375
1696250799529,0.02758789,-0.97003174,0.19915771,0.6875,-0.421875,0.421875
1696250799569,0.028808594,-0.98272705,0.20477295,0.390625,-0.59375,1.203125
1696250799608,0.046142578,-0.98101807,0.20184326,0.828125,-0.203125,0.953125
1696250799648,0.05859375,-0.96661377,0.19476318,0.96875,-0.875,-0.234375
1696250799690,0.021728516,-0.9741821,0.199646,-0.015625,-1.3125,0.296875
1696250799729,0.010009766,-0.97979736,0.19818115,0.234375,-1.421875,0.359375
1696250799769,0.028564453,-0.9780884,0.19744873,-0.5,0.171875,0.0
1696250799810,0.04736328,-0.97442627,0.19940186,0.25,-0.03125,-0.390625
1696250799850,0.036132812,-0.97076416,0.18988037,-0.59375,-0.4375,-0.015625
1696250799891,0.044433594,-0.9795532,0.19378662,0.015625,-0.375,0.234375
1696250799908,0.049072266,-0.9702759,0.19818115,-0.046875,-0.234375,0.28125
1696250799950,0.031982422,-0.9807739,0.20428467,-0.546875,-1.390625,-0.125
1696250799989,0.020263672,-0.9837036,0.2062378,-0.4375,-0.703125,0.65625
1696250800029,0.03540039,-0.9636841,0.19232178,-0.640625,-1.03125,0.265625
1696250800093,0.03125,-0.9819946,0.19891357,-0.28125,-0.6875,0.171875
1696250800130,0.044921875,-0.9751587,0.20037842,-0.46875,-0.65625,0.421875
1696250800150,0.027832031,-0.9751587,0.19573975,-0.75,-0.828125,-0.390625
1696250800191,0.02734375,-0.9710083,0.2008667,0.34375,0.5,-0.125
1696250800232,0.030517578,-0.97906494,0.199646,-0.265625,-0.046875,0.125
1696250800269,0.028808594,-0.9697876,0.20428467,-0.484375,-0.5,-0.125
1696250800311,0.032958984,-0.9807739,0.19940186,0.109375,0.0,-0.09375
1696250800350,0.045166016,-0.97857666,0.20135498,0.6875,0.5625,-0.0625
1696250800410,0.045166016,-0.972229,0.20452881,0.3125,-0.515625,0.171875
1696250800449,0.028076172,-0.98394775,0.19744873,-0.390625,-1.4375,0.53125
1696250800469,0.037109375,-0.96832275,0.20281982,-0.203125,-0.421875,-0.09375
1696250800510,0.029296875,-0.97003174,0.19647217,-0.421875,-0.96875,0.109375
1696250800569,0.020019531,-0.9734497,0.20574951,-0.3125,-0.734375,0.0
1696250800610,0.022949219,-0.9751587,0.20159912,-0.359375,-0.90625,-0.5
1696250800628,0.026123047,-0.9692993,0.20599365,0.078125,0.359375,-0.328125
1696250800669,0.026855469,-0.9805298,0.2074585,-0.234375,-0.296875,-0.34375
1696250800729,0.024414062,-0.97662354,0.19769287,-0.890625,-0.140625,-0.6875
1696250800750,0.028320312,-0.98760986,0.20843506,-0.53125,0.015625,-0.328125
1696250800791,0.025146484,-0.97662354,0.20428467,-1.03125,-0.375,-0.078125
1696250800829,0.030517578,-0.97442627,0.21600342,-0.546875,0.484375,-0.140625
1696250800870,0.022460938,-0.9788208,0.21453857,0.890625,1.359375,0.328125
1696250800910,0.036621094,-0.991272,0.23968506,5.4375,4.03125,0.78125
1696250800950,0.016845703,-0.97540283,0.18890381,5.84375,0.96875,2.390625
1696250801011,0.020507812,-0.9751587,0.16766357,5.640625,0.734375,3.125
1696250801049,0.06542969,-0.9807739,0.2008667,0.328125,0.5,1.421875
1696250801089,0.046875,-0.9507446,0.15374756,0.171875,-1.140625,-0.0625
1696250801128,0.041748047,-0.9763794,0.16448975,5.765625,-0.75,0.96875
1696250801151,0.05859375,-0.9817505,0.16864014,1.65625,-1.421875,0.46875
1696250801192,0.010009766,-0.96295166,0.14813232,-0.0625,-2.40625,0.609375
1696250801228,0.030761719,-0.99005127,0.20062256,-1.03125,1.828125,0.171875
1696250801250,0.017333984,-0.98638916,0.16888428,0.375,0.03125,1.390625
1696250801290,0.056640625,-0.960022,0.19012451,1.015625,-0.96875,1.59375
1696250801329,0.051513672,-0.99005127,0.17401123,-0.5,-0.828125,0.953125
1696250801367,0.033691406,-0.9841919,0.16741943,0.953125,0.421875,0.59375
1696250801409,0.03173828,-0.9685669,0.1671753,0.21875,1.515625,0.5
1696250801449,0.05908203,-0.9783325,0.16912842,-0.046875,-1.15625,-0.296875
1696250801489,0.052490234,-0.9763794,0.16766357,-0.171875,-1.46875,0.296875
1696250801528,0.038085938,-0.98638916,0.16400146,-0.15625,-0.984375,-0.109375
1696250801570,0.053710938,-0.9819946,0.16864014,-0.265625,-0.8125,-0.65625
1696250801611,0.03564453,-0.97052,0.16571045,-0.09375,-2.046875,-0.296875
1696250801649,0.049072266,-0.986145,0.1774292,0.3125,-0.296875,-0.078125
1696250801692,0.040039062,-0.97906494,0.168396,-1.15625,-1.421875,0.140625
1696250801729,0.044433594,-0.9663696,0.15618896,-0.25,-2.0,-0.484375
1696250801769,0.046142578,-0.9846802,0.17108154,0.46875,0.53125,-0.703125
1696250801811,0.041015625,-0.9854126,0.17181396,1.1875,-0.15625,-0.015625
1696250801849,0.034179688,-0.973938,0.16473389,1.3125,0.265625,0.578125
1696250801889,0.035888672,-0.97857666,0.16278076,1.03125,0.625,0.734375
1696250801931,0.041503906,-0.9741821,0.16009521,1.453125,0.859375,0.875
1696250801969,0.052490234,-0.98443604,0.16400146,2.0625,1.6875,1.171875
1696250802011,0.053955078,-0.9871216,0.15228271,0.8125,1.34375,1.625
1696250802049,0.05419922,-0.97857666,0.15716553,2.53125,2.78125,1.015625
1696250802091,0.057861328,-0.98516846,0.15081787,1.34375,1.21875,1.171875
1696250802128,0.05053711,-0.98272705,0.13690186,0.15625,0.734375,1.765625
1696250802169,0.05078125,-0.9834595,0.16351318,-0.5625,0.84375,1.078125
1696250802209,0.052978516,-0.9854126,0.14984131,-0.53125,0.484375,0.359375
1696250802250,0.064208984,-0.97540283,0.14910889,-0.875,0.609375,0.3125
1696250802291,0.05517578,-0.9793091,0.14886475,0.21875,-0.546875,0.078125
1696250802329,0.061279297,-0.96881104,0.15985107,-0.203125,0.109375,-0.3125
1696250802371,0.05419922,-0.9837036,0.1437378,0.3125,0.109375,-0.015625
1696250802408,0.051513672,-0.98101807,0.15106201,0.28125,0.140625,0.03125
1696250802450,0.049560547,-0.9741821,0.14935303,-0.09375,-0.46875,0.09375
1696250802491,0.05419922,-0.9937134,0.15838623,0.25,-0.125,0.03125
1696250802528,0.045654297,-0.9780884,0.15301514,0.015625,-0.8125,0.265625
1696250802550,0.053222656,-0.9824829,0.15057373,-0.6875,-1.171875,0.15625
1696250802589,0.063964844,-0.9729614,0.1593628,-0.21875,-0.171875,-0.1875
1696250802629,0.037841797,-0.97979736,0.14886475,-1.046875,-0.953125,0.21875
1696250802669,0.053955078,-0.9812622,0.15887451,-0.71875,0.984375,-0.34375
1696250802710,0.041503906,-0.987854,0.15472412,-0.203125,0.421875,0.125
1696250802749,0.052978516,-0.97442627,0.15911865,-0.921875,0.0,-0.078125
1696250802789,0.051757812,-0.975647,0.1539917,-0.796875,0.15625,-0.40625
1696250802830,0.059326172,-0.99664307,0.16253662,-1.15625,-0.53125,0.125
1696250802890,0.049560547,-0.98394775,0.16351318,-1.953125,-0.71875,-0.15625
1696250802908,0.03515625,-0.9837036,0.16473389,-1.828125,-0.625,-0.390625
1696250802948,0.040527344,-0.9763794,0.16937256,-2.21875,-0.28125,0.234375
1696250802989,0.057617188,-0.9866333,0.17279053,-2.3125,-0.3125,0.46875
1696250803027,0.057373047,-0.9702759,0.16571045,-2.21875,-1.53125,-0.203125
1696250803070,0.045166016,-0.97320557,0.18084717,-1.46875,-0.234375,-1.203125
1696250803131,0.053222656,-0.975647,0.17254639,-0.625,-0.515625,-0.34375
1696250803171,0.05883789,-0.9612427,0.19207764,1.421875,-0.390625,0.359375
1696250803190,0.029541016,-0.97442627,0.1642456,-0.75,-3.890625,2.0
1696250803229,0.043701172,-0.9956665,0.1762085,-0.171875,-0.875,0.5625
1696250803271,0.052246094,-0.9871216,0.17254639,-0.015625,-1.015625,0.390625
1696250803310,0.045654297,-0.95880127,0.1630249,-1.484375,-2.171875,1.21875
1696250803369,0.04272461,-0.98028564,0.17572021,-1.1875,-0.796875,0.796875
1696250803389,0.040039062,-0.9907837,0.19012451,-0.515625,0.703125,0.40625
1696250803430,0.04663086,-0.9717407,0.18890381,-0.609375,-0.328125,-0.34375
1696250803470,0.041503906,-0.96710205,0.1762085,-1.34375,0.359375,-0.203125
1696250803508,0.055908203,-0.9829712,0.18084717,-0.34375,1.796875,0.703125
1696250803549,0.059814453,-0.9800415,0.19378662,-0.4375,0.78125,0.234375
1696250803610,0.068359375,-0.98028564,0.18572998,-0.203125,-0.234375,-0.25
1696250803649,0.046875,-0.973938,0.17889404,-0.8125,0.140625,-0.015625
1696250803667,0.036621094,-0.96881104,0.18841553,-0.734375,-0.03125,-0.03125
1696250803733,0.052001953,-0.9837036,0.17913818,-0.578125,-0.640625,0.078125
1696250803746,0.0546875,-0.98223877,0.19012451,-0.578125,0.03125,-0.34375
1696250803790,0.05053711,-0.9680786,0.18109131,-1.234375,-0.640625,-0.796875
1696250803849,0.03173828,-0.9871216,0.16864014,-1.9375,-1.21875,-0.28125
1696250803851,0.056152344,-0.98809814,0.19769287,-1.390625,0.859375,-1.359375
1696250803889,0.06591797,-0.9546509,0.19207764,-0.328125,1.390625,-2.5625
1696250803929,0.036621094,-0.958313,0.18865967,-1.53125,-1.09375,-0.546875
1696250803970,0.026367188,-0.9981079,0.20501709,-0.703125,-1.546875,0.875
1696250804013,0.036376953,-0.98565674,0.1930542,-0.59375,-0.46875,0.03125
1696250804049,0.0390625,-0.9590454,0.20355225,0.09375,0.140625,0.59375
1696250804091,0.055908203,-0.96221924,0.19720459,-0.3125,-1.484375,0.875
1696250804130,0.032470703,-0.97857666,0.19891357,-0.28125,-1.8125,1.328125
1696250804173,0.0234375,-0.9871216,0.20062256,-0.015625,-0.796875,0.515625
1696250804208,0.034179688,-0.9727173,0.1984253,-0.59375,0.140625,-0.109375
1696250804249,0.045166016,-0.9741821,0.19744873,0.453125,0.75,0.03125
1696250804289,0.044921875,-0.97247314,0.19671631,-0.390625,-0.171875,-0.09375
1696250804330,0.03540039,-0.97662354,0.18841553,-0.375,-0.21875,-0.0625
1696250804369,0.048095703,-0.97735596,0.20501709,-0.296875,0.078125,-0.0625
1696250804407,0.047851562,-0.9819946,0.1906128,-0.953125,-0.765625,-0.59375
1696250804448,0.042236328,-0.9685669,0.20184326,-0.109375,0.453125,-0.015625
1696250804490,0.03857422,-0.98101807,0.19818115,0.09375,-0.015625,-0.0625
1696250804531,0.03857422,-0.97784424,0.19573975,0.078125,-0.078125,-0.0625
1696250804569,0.040527344,-0.97857666,0.19012451,-0.15625,-0.6875,0.234375
1696250804611,0.036376953,-0.97369385,0.19500732,-0.171875,-1.09375,0.1875
1696250804649,0.036621094,-0.97442627,0.2020874,0.375,-0.265625,0.3125
1696250804690,0.040039062,-0.9692993,0.19500732,0.0625,-0.796875,0.09375
1696250804729,0.03173828,-0.9758911,0.18695068,0.25,-0.546875,0.171875
1696250804769,0.038330078,-0.97662354,0.19012451,0.0625,-0.34375,-0.21875
1696250804810,0.044921875,-0.9734497,0.19232178,-0.4375,-0.515625,-0.203125
1696250804850,0.03173828,-0.97442627,0.20452881,0.0,-0.546875,0.125
1696250804889,0.029541016,-0.97613525,0.18988037,-0.703125,-0.796875,-0.421875
1696250804928,0.04296875,-0.97857666,0.19818115,0.078125,0.34375,-0.21875
