# Sensor type: Respeck
# Activity type: Lying down on stomach
# Activity subtype: Talking
# Subject id: s2106809
# Notes: unprocessed
timestamp,accel_x,accel_y,accel_z,gyro_x,gyro_y,gyro_z
1696254356145,0.49169922,-0.19464111,-0.7888794,-0.171875,0.171875,-0.015625
1696254356185,0.48779297,-0.19464111,-0.78570557,0.0625,0.03125,-0.109375
1696254356225,0.49072266,-0.19952393,-0.7937622,-0.078125,-0.0625,-0.125
1696254356266,0.49169922,-0.19537354,-0.7888794,0.015625,-0.015625,0.015625
1696254356285,0.48364258,-0.19561768,-0.78570557,-0.15625,0.0625,-0.171875
1696254356325,0.49145508,-0.18609619,-0.79473877,-0.25,0.109375,0.046875
1696254356366,0.48535156,-0.19439697,-0.79473877,-0.21875,-0.390625,-0.15625
1696254356406,0.48901367,-0.19561768,-0.7932739,-0.1875,-0.15625,-0.125
1696254356446,0.484375,-0.2029419,-0.79229736,-0.265625,-0.328125,-0.09375
1696254356506,0.49243164,-0.19976807,-0.7913208,-0.15625,-0.609375,0.171875
1696254356546,0.4897461,-0.19610596,-0.78912354,-0.03125,-0.59375,0.09375
1696254356566,0.49194336,-0.19659424,-0.7908325,0.109375,-0.609375,0.34375
1696254356607,0.4831543,-0.19073486,-0.7930298,-0.09375,-0.65625,0.3125
1696254356647,0.48510742,-0.19683838,-0.7871704,0.0625,-0.78125,0.328125
1696254356685,0.49194336,-0.19146729,-0.79229736,0.171875,-0.546875,0.1875
1696254356727,0.49169922,-0.19708252,-0.7896118,0.125,-0.25,0.28125
1696254356766,0.4892578,-0.19171143,-0.7842407,-0.0625,-0.625,0.1875
1696254356806,0.49267578,-0.19342041,-0.7896118,-0.15625,-0.6875,0.078125
1696254356867,0.49023438,-0.19195557,-0.78619385,-0.421875,-0.59375,0.140625
1696254356886,0.48876953,-0.1921997,-0.78326416,-0.3125,-0.59375,0.0625
1696254356927,0.49560547,-0.19683838,-0.7876587,-0.765625,-0.8125,0.109375
1696254356967,0.48828125,-0.19708252,-0.7815552,-0.1875,-0.484375,0.046875
1696254357006,0.49072266,-0.18829346,-0.7871704,-0.015625,-0.234375,0.34375
1696254357049,0.49023438,-0.19586182,-0.7942505,0.046875,-0.40625,0.21875
1696254357086,0.4934082,-0.19732666,-0.79229736,-0.0625,-0.59375,0.234375
1696254357128,0.48999023,-0.19342041,-0.78912354,0.15625,-1.171875,0.1875
1696254357166,0.4934082,-0.19659424,-0.7925415,0.046875,-0.859375,0.234375
1696254357228,0.4975586,-0.19488525,-0.7883911,-0.375,-1.015625,-0.046875
1696254357247,0.5095215,-0.19488525,-0.7905884,-0.5,-1.125,-0.0625
1696254357286,0.49853516,-0.19683838,-0.78912354,-0.25,-0.765625,0.09375
1696254357326,0.49902344,-0.19708252,-0.788147,-0.484375,-0.5,0.171875
1696254357369,0.49658203,-0.20172119,-0.7786255,-0.09375,-0.421875,0.359375
1696254357406,0.49414062,-0.20098877,-0.7854614,-0.046875,-0.390625,0.21875
1696254357446,0.49902344,-0.19488525,-0.78253174,-0.09375,-0.375,0.25
1696254357488,0.50683594,-0.19366455,-0.7930298,-0.515625,-0.34375,-0.015625
1696254357530,0.49438477,-0.19537354,-0.7859497,-0.078125,-0.40625,0.3125
1696254357588,0.49609375,-0.19244385,-0.7817993,-0.015625,-0.34375,0.234375
1696254357606,0.49487305,-0.1987915,-0.7793579,-0.328125,-0.59375,-0.03125
1696254357626,0.49780273,-0.20684814,-0.78497314,-0.375,-0.59375,0.0625
1696254357667,0.4958496,-0.19976807,-0.7859497,-0.4375,-0.890625,0.265625
1696254357705,0.4951172,-0.1921997,-0.7817993,-0.203125,-0.984375,0.234375
1696254357747,0.5004883,-0.19903564,-0.78912354,-0.09375,-0.75,0.234375
1696254357786,0.49365234,-0.19976807,-0.78448486,0.0625,-0.234375,0.3125
1696254357827,0.49780273,-0.19415283,-0.78375244,-0.09375,-0.109375,-0.078125
1696254357868,0.4951172,-0.19342041,-0.7822876,-0.265625,-0.09375,0.015625
1696254357908,0.4975586,-0.20025635,-0.7786255,-0.203125,-0.140625,0.078125
1696254357948,0.49853516,-0.20123291,-0.79034424,0.140625,0.078125,0.234375
1696254357988,0.5007324,-0.19537354,-0.7888794,0.078125,-0.015625,0.421875
1696254358027,0.49023438,-0.2000122,-0.79107666,-0.046875,-0.609375,0.234375
1696254358067,0.4987793,-0.20391846,-0.7954712,-0.28125,-3.390625,0.34375
1696254358106,0.51049805,-0.19976807,-0.78131104,-0.578125,-4.234375,0.171875
1696254358147,0.50756836,-0.19830322,-0.77960205,-0.890625,-2.75,0.234375
1696254358187,0.5097656,-0.20074463,-0.76763916,-0.65625,-1.40625,0.25
1696254358226,0.50878906,-0.1921997,-0.7727661,-0.578125,0.0,0.0625
1696254358267,0.51342773,-0.2000122,-0.7839966,-0.484375,0.46875,0.09375
1696254358306,0.50756836,-0.19586182,-0.77423096,-0.46875,-0.046875,0.078125
1696254358346,0.5048828,-0.20367432,-0.7788696,-0.34375,-0.140625,0.21875
1696254358386,0.5161133,-0.20245361,-0.7822876,-0.03125,-0.09375,0.359375
1696254358427,0.5102539,-0.19610596,-0.79034424,-0.125,-0.171875,0.171875
1696254358467,0.5090332,-0.20074463,-0.78253174,-0.140625,-0.234375,0.140625
1696254358505,0.50146484,-0.2029419,-0.7727661,-0.046875,0.09375,0.171875
1696254358546,0.5,-0.19659424,-0.769104,0.265625,0.515625,0.109375
1696254358585,0.5012207,-0.19415283,-0.78497314,0.125,1.265625,0.078125
1696254358626,0.5041504,-0.19830322,-0.78497314,0.296875,0.78125,0.0
1696254358667,0.4951172,-0.20074463,-0.78448486,0.015625,-0.171875,0.0
1696254358706,0.4975586,-0.20318604,-0.7852173,-0.3125,-0.984375,0.0625
1696254358747,0.49902344,-0.2000122,-0.786438,-0.359375,-1.796875,-0.0625
1696254358790,0.49780273,-0.20147705,-0.7854614,-0.328125,-3.484375,-0.09375
1696254358826,0.5180664,-0.20196533,-0.7720337,-0.796875,-3.03125,-0.265625
1696254358867,0.5095215,-0.20855713,-0.7720337,-0.953125,-2.046875,0.03125
1696254358906,0.50634766,-0.20831299,-0.7710571,-0.59375,-0.875,0.265625
1696254358925,0.51660156,-0.20245361,-0.77545166,-0.640625,0.375,-0.046875
1696254358969,0.5085449,-0.21148682,-0.76763916,-0.515625,0.359375,0.34375
1696254359026,0.5131836,-0.19952393,-0.7776489,-0.28125,0.0,0.296875
1696254359046,0.5097656,-0.20513916,-0.7761841,0.046875,-0.09375,0.65625
1696254359088,0.5048828,-0.20562744,-0.78448486,-0.03125,-0.078125,0.234375
1696254359128,0.51782227,-0.20831299,-0.7842407,-0.1875,-0.28125,0.234375
1696254359170,0.5078125,-0.20928955,-0.76812744,0.0625,-0.375,0.3125
1696254359226,0.50927734,-0.20391846,-0.7752075,-0.0625,-0.15625,0.234375
1696254359269,0.51171875,-0.21026611,-0.7817993,-0.265625,-0.765625,0.140625
1696254359287,0.5058594,-0.20391846,-0.76568604,0.203125,-1.203125,0.421875
1696254359347,0.51171875,-0.20684814,-0.77911377,0.046875,-0.671875,0.265625
1696254359366,0.51416016,-0.21124268,-0.7781372,-0.046875,-0.671875,0.28125
1696254359407,0.5119629,-0.20196533,-0.77056885,-0.078125,-0.046875,0.171875
1696254359446,0.5126953,-0.206604,-0.77716064,-0.21875,-0.25,0.140625
1696254359486,0.5065918,-0.19927979,-0.76226807,-0.109375,-0.25,0.078125
1696254359526,0.5053711,-0.20855713,-0.7786255,-0.203125,-0.125,0.21875
1696254359567,0.5085449,-0.20343018,-0.7761841,-0.125,0.0625,0.078125
1696254359629,0.50561523,-0.20831299,-0.77471924,0.03125,-0.140625,0.328125
1696254359645,0.5163574,-0.2041626,-0.7764282,0.21875,0.171875,0.28125
1696254359685,0.513916,-0.20196533,-0.78253174,-0.125,0.25,0.421875
1696254359747,0.5058594,-0.2053833,-0.76763916,-0.171875,0.09375,0.296875
1696254359765,0.51123047,-0.21051025,-0.7854614,-0.59375,-0.46875,0.234375
1696254359806,0.51416016,-0.2053833,-0.78204346,-0.421875,-0.515625,-0.046875
1696254359847,0.49829102,-0.20587158,-0.7605591,0.203125,0.546875,-0.015625
1696254359908,0.5046387,-0.20098877,-0.79107666,0.1875,1.640625,-0.203125
1696254359926,0.49804688,-0.20343018,-0.78082275,0.140625,1.265625,-0.359375
1696254359988,0.4987793,-0.20855713,-0.7803345,0.3125,1.109375,-0.140625
1696254360028,0.49829102,-0.206604,-0.78692627,0.09375,0.734375,-0.03125
1696254360045,0.49780273,-0.206604,-0.78570557,-0.140625,-0.109375,-0.015625
1696254360107,0.49682617,-0.20806885,-0.784729,-0.21875,-0.46875,0.046875
1696254360126,0.49951172,-0.1987915,-0.7883911,0.078125,-1.46875,0.25
1696254360187,0.50268555,-0.20831299,-0.7859497,-0.328125,-2.15625,0.21875
1696254360226,0.5073242,-0.20269775,-0.7761841,-0.0625,-1.921875,0.25
1696254360229,0.5036621,-0.19903564,-0.770813,0.0625,-1.1875,0.28125
1696254360265,0.50683594,-0.19854736,-0.7678833,-0.28125,-0.84375,0.09375
1696254360350,0.5070801,-0.20806885,-0.7739868,-0.03125,-0.1875,0.25
1696254360353,0.49951172,-0.20465088,-0.7896118,-0.234375,-0.09375,0.15625
1696254360387,0.4975586,-0.21246338,-0.78863525,-0.390625,-0.421875,0.140625
1696254360426,0.5085449,-0.21221924,-0.7744751,-0.171875,-0.375,0.078125
1696254360466,0.5095215,-0.21002197,-0.77545166,-0.171875,-0.109375,0.125
1696254360508,0.50683594,-0.21270752,-0.7756958,-0.046875,-0.296875,0.015625
1696254360549,0.50219727,-0.20318604,-0.7727661,-0.046875,-0.234375,0.09375
1696254360587,0.49804688,-0.20391846,-0.7671509,-0.109375,-0.296875,0.25
1696254360625,0.5024414,-0.20904541,-0.7739868,-0.140625,-0.6875,0.296875
1696254360667,0.50146484,-0.21270752,-0.7774048,-0.03125,-0.71875,0.34375
1696254360706,0.49780273,-0.20489502,-0.7835083,0.078125,-0.9375,0.34375
1696254360749,0.501709,-0.20977783,-0.77789307,-0.125,-1.671875,0.46875
1696254360786,0.5095215,-0.20513916,-0.7866821,-0.125,-0.953125,0.25
1696254360827,0.5144043,-0.20318604,-0.7876587,-0.421875,-0.546875,0.015625
1696254360866,0.5,-0.20391846,-0.7810669,-0.1875,-0.5625,0.171875
1696254360907,0.5041504,-0.20050049,-0.7752075,-0.171875,0.078125,0.03125
1696254360948,0.49926758,-0.20562744,-0.7761841,-0.078125,-0.4375,0.078125
1696254360986,0.50756836,-0.20220947,-0.7786255,-0.140625,-0.6875,0.125
1696254361027,0.51049805,-0.20513916,-0.77667236,-0.359375,-0.59375,0.046875
1696254361069,0.50634766,-0.20928955,-0.77349854,-0.078125,-0.609375,0.1875
1696254361106,0.50390625,-0.20513916,-0.7798462,-0.109375,-0.359375,0.15625
1696254361148,0.51000977,-0.20367432,-0.77227783,-0.21875,-0.296875,0.078125
1696254361186,0.50341797,-0.20123291,-0.77423096,-0.125,-0.390625,0.140625
1696254361226,0.49975586,-0.2107544,-0.7749634,-0.234375,-0.15625,-0.0625
1696254361268,0.5046387,-0.20318604,-0.7744751,-0.28125,-0.515625,0.046875
1696254361306,0.50561523,-0.20684814,-0.77960205,-0.078125,-0.234375,0.15625
1696254361346,0.50683594,-0.2041626,-0.7781372,0.015625,-0.4375,0.265625
1696254361387,0.50390625,-0.206604,-0.7774048,0.046875,-0.546875,0.15625
1696254361426,0.5046387,-0.2000122,-0.7776489,0.21875,-0.171875,0.15625
1696254361466,0.50512695,-0.206604,-0.76690674,0.140625,-0.015625,0.3125
1696254361550,0.50439453,-0.1963501,-0.77789307,-0.25,-0.328125,0.0625
1696254361553,0.50341797,-0.20196533,-0.78204346,-0.375,-0.921875,0.09375
1696254361567,0.4970703,-0.20440674,-0.77471924,-0.203125,-1.796875,-0.046875
1696254361628,0.50878906,-0.20611572,-0.7815552,-0.375,-2.21875,-0.015625
1696254361648,0.51464844,-0.20953369,-0.7761841,-0.46875,-2.09375,0.140625
1696254361688,0.5163574,-0.21099854,-0.76812744,-0.484375,-1.390625,-0.09375
1696254361728,0.51660156,-0.20220947,-0.767395,-0.125,-0.375,0.1875
1696254361768,0.513916,-0.206604,-0.77008057,-0.375,-0.375,0.15625
1696254361807,0.5161133,-0.20025635,-0.7764282,-0.421875,-0.640625,0.09375
1696254361846,0.5151367,-0.20684814,-0.7744751,-0.53125,-0.4375,0.0
1696254361887,0.51049805,-0.20880127,-0.7774048,-0.34375,-0.640625,0.125
1696254361929,0.5180664,-0.21124268,-0.77471924,-0.15625,-0.65625,0.125
1696254361987,0.5192871,-0.21051025,-0.7835083,-0.375,-0.765625,0.203125
1696254362007,0.51782227,-0.206604,-0.76885986,-0.234375,-0.6875,0.09375
1696254362069,0.51904297,-0.21026611,-0.77789307,-0.484375,-0.8125,0.109375
1696254362108,0.5163574,-0.21295166,-0.7739868,-0.375,-0.8125,-0.015625
1696254362148,0.51464844,-0.20831299,-0.76934814,-0.546875,-0.671875,0.078125
1696254362167,0.5192871,-0.20733643,-0.7715454,0.0,-0.328125,0.375
1696254362206,0.517334,-0.21881104,-0.78570557,-0.140625,-0.09375,0.109375
1696254362248,0.51171875,-0.20880127,-0.7620239,0.171875,0.09375,0.234375
1696254362289,0.5097656,-0.20758057,-0.770813,0.140625,0.15625,0.390625
1696254362326,0.5151367,-0.21221924,-0.77911377,-0.140625,0.25,0.25
1696254362367,0.5163574,-0.20440674,-0.7774048,-0.046875,-0.03125,0.125
1696254362407,0.5119629,-0.21417236,-0.77056885,-0.109375,-0.296875,0.203125
1696254362448,0.513916,-0.21002197,-0.77008057,0.359375,0.109375,0.40625
1696254362486,0.5061035,-0.20904541,-0.77471924,0.015625,-0.3125,0.390625
1696254362526,0.50756836,-0.20928955,-0.7727661,0.140625,-0.234375,0.296875
1696254362566,0.51220703,-0.21514893,-0.7737427,0.078125,-0.25,0.15625
1696254362607,0.51342773,-0.21295166,-0.77716064,-0.046875,-0.234375,0.140625
1696254362669,0.51123047,-0.21246338,-0.77960205,-0.03125,-0.203125,0.046875
1696254362686,0.5109863,-0.21466064,-0.7827759,-0.25,-0.296875,0.1875
1696254362750,0.5031738,-0.20953369,-0.7764282,0.25,-1.421875,0.046875
1696254362766,0.5148926,-0.20758057,-0.7876587,-0.296875,-3.59375,-0.109375
1696254362807,0.5239258,-0.21417236,-0.7839966,-1.8125,-5.671875,-0.25
1696254362847,0.52905273,-0.21588135,-0.75738525,-1.53125,-4.421875,-0.09375
1696254362867,0.53125,-0.21295166,-0.7630005,-0.65625,-2.1875,0.0625
1696254362907,0.5354004,-0.21807861,-0.7600708,-0.375,-0.71875,-0.046875
1696254362946,0.52978516,-0.21002197,-0.7588501,-0.28125,-0.21875,-0.03125
1696254362987,0.5222168,-0.22247314,-0.7493286,-0.359375,0.21875,0.1875
1696254363026,0.5266113,-0.21368408,-0.7581177,-0.046875,0.328125,0.390625
1696254363068,0.53515625,-0.21783447,-0.77301025,0.1875,0.46875,0.40625
1696254363108,0.5253906,-0.21343994,-0.7715454,0.15625,0.34375,0.421875
1696254363147,0.5214844,-0.21270752,-0.7749634,0.421875,0.09375,0.421875
1696254363188,0.5246582,-0.21661377,-0.7727661,0.046875,-0.28125,0.15625
1696254363227,0.51464844,-0.2041626,-0.76690674,-0.21875,-1.359375,0.125
1696254363267,0.5222168,-0.22076416,-0.7605591,-0.25,-1.796875,0.21875
1696254363309,0.53515625,-0.21685791,-0.77008057,-0.375,-1.78125,0.09375
1696254363349,0.5358887,-0.21929932,-0.76568604,-0.640625,-1.0625,-0.125
1696254363388,0.529541,-0.22198486,-0.75079346,-0.21875,-0.140625,0.28125
1696254363428,0.53393555,-0.21929932,-0.75372314,-0.21875,-0.21875,0.21875
1696254363470,0.5317383,-0.21734619,-0.7612915,0.125,-0.484375,0.328125
1696254363506,0.52783203,-0.21368408,-0.76690674,-0.3125,-0.78125,0.1875
1696254363549,0.52124023,-0.21710205,-0.75616455,-0.078125,-0.328125,0.265625
1696254363587,0.5292969,-0.22296143,-0.76397705,-0.21875,-0.5,0.140625
1696254363627,0.5270996,-0.21832275,-0.7683716,-0.46875,-0.546875,0.109375
1696254363669,0.53125,-0.21636963,-0.7593384,-0.3125,-0.390625,0.046875
1696254363708,0.52319336,-0.21612549,-0.76519775,-0.1875,-0.296875,0.25
1696254363748,0.52563477,-0.21612549,-0.753479,0.078125,-0.328125,0.203125
1696254363785,0.52905273,-0.21612549,-0.7581177,0.015625,-0.296875,0.25
1696254363827,0.52368164,-0.2197876,-0.7678833,-0.078125,-0.046875,0.28125
1696254363868,0.53515625,-0.22174072,-0.7617798,-0.078125,-0.078125,0.265625
1696254363917,0.5229492,-0.21612549,-0.75909424,-0.0625,0.421875,0.234375
1696254363947,0.53125,-0.2185669,-0.7654419,0.21875,0.671875,0.46875
1696254363989,0.51660156,-0.2185669,-0.7683716,-0.1875,0.8125,0.265625
1696254364028,0.51464844,-0.22003174,-0.76348877,-0.25,0.71875,0.375
1696254364071,0.52124023,-0.2197876,-0.7554321,0.46875,0.90625,0.203125
1696254364108,0.52734375,-0.20977783,-0.76153564,1.203125,1.859375,0.3125
1696254364146,0.51586914,-0.21173096,-0.7737427,1.6875,2.140625,0.1875
1696254364165,0.515625,-0.20831299,-0.78009033,1.0625,1.734375,0.015625
1696254364206,0.5124512,-0.2107544,-0.77227783,0.515625,1.640625,-0.1875
1696254364269,0.5095215,-0.2131958,-0.7827759,-0.21875,1.421875,-0.046875
1696254364287,0.50561523,-0.20928955,-0.7776489,-0.09375,0.4375,-0.140625
1696254364329,0.5095215,-0.21148682,-0.7888794,-0.3125,-0.421875,-0.046875
1696254364368,0.5024414,-0.21490479,-0.7805786,-0.09375,-1.453125,0.140625
1696254364428,0.50561523,-0.20831299,-0.7810669,-0.078125,-2.34375,0.25
1696254364446,0.5148926,-0.21368408,-0.7764282,-0.359375,-2.46875,0.28125
1696254364488,0.51953125,-0.21246338,-0.7686157,-0.453125,-1.890625,0.15625
1696254364527,0.51660156,-0.21246338,-0.7661743,-0.671875,-1.1875,0.0625
1696254364567,0.51660156,-0.20855713,-0.77056885,-0.5,-0.671875,0.109375
1696254364607,0.51049805,-0.21612549,-0.76568604,-0.421875,-0.15625,0.078125
1696254364649,0.51342773,-0.21685791,-0.7815552,-0.6875,-0.453125,0.328125
1696254364687,0.517334,-0.20928955,-0.77178955,-0.078125,-0.25,0.109375
1696254364726,0.5073242,-0.21539307,-0.76934814,0.046875,-0.40625,0.328125
1696254364769,0.5119629,-0.21124268,-0.7739868,0.078125,-0.609375,0.15625
1696254364807,0.51342773,-0.21343994,-0.76934814,-0.078125,-0.171875,0.0625
1696254364847,0.5119629,-0.21246338,-0.76934814,0.0,-0.5625,0.09375
1696254364892,0.5078125,-0.21295166,-0.77423096,-0.046875,-0.46875,0.125
1696254364945,0.52001953,-0.21368408,-0.7703247,-0.28125,-0.203125,0.171875
1696254364967,0.5136719,-0.21417236,-0.77301025,-0.265625,-0.484375,0.125
1696254365007,0.51342773,-0.21759033,-0.7727661,0.03125,-0.453125,0.1875
1696254365046,0.5217285,-0.21636963,-0.77471924,0.0625,-0.328125,0.171875
1696254365087,0.50927734,-0.21417236,-0.75982666,0.25,-0.03125,0.328125
1696254365128,0.51342773,-0.21099854,-0.7720337,0.28125,0.234375,0.328125
1696254365168,0.52001953,-0.21173096,-0.7761841,0.25,0.359375,0.171875
1696254365205,0.5180664,-0.2131958,-0.7649536,0.40625,0.625,0.125
1696254365245,0.50927734,-0.21368408,-0.7647095,0.40625,0.53125,0.15625
1696254365286,0.50756836,-0.20489502,-0.77130127,0.34375,0.609375,0.25
1696254365329,0.5029297,-0.2107544,-0.7710571,0.421875,0.40625,0.078125
1696254365367,0.5,-0.21246338,-0.77593994,0.375,0.953125,-0.171875
1696254365408,0.50683594,-0.20953369,-0.77716064,0.234375,1.140625,-0.078125
1696254365445,0.50390625,-0.20904541,-0.7859497,-0.078125,1.125,-0.109375
1696254365487,0.5,-0.20587158,-0.7839966,-0.125,0.46875,-0.046875
1696254365506,0.4987793,-0.20904541,-0.7786255,-0.125,0.40625,-0.15625
1696254365546,0.50024414,-0.21002197,-0.78302,-0.3125,-0.3125,0.046875
1696254365586,0.49609375,-0.21417236,-0.78570557,-0.296875,-0.8125,0.0
1696254365628,0.5012207,-0.21002197,-0.7827759,-0.40625,-1.890625,0.28125
1696254365667,0.5083008,-0.20611572,-0.7839966,-0.015625,-2.390625,0.453125
1696254365708,0.5012207,-0.20806885,-0.7756958,0.03125,-2.40625,0.5625
1696254365745,0.5107422,-0.20831299,-0.7739868,0.015625,-1.515625,0.453125
1696254365788,0.5102539,-0.206604,-0.7774048,-0.140625,-0.96875,0.171875
1696254365828,0.5073242,-0.20880127,-0.76885986,-0.25,-0.234375,0.046875
1696254365867,0.50097656,-0.21368408,-0.7661743,0.140625,0.28125,0.265625
1696254365910,0.5078125,-0.20245361,-0.77716064,0.015625,-0.171875,0.421875
1696254365946,0.5058594,-0.20709229,-0.7710571,-0.03125,-0.46875,0.40625
1696254365988,0.5136719,-0.20977783,-0.7835083,-0.234375,-0.640625,0.046875
1696254366030,0.5041504,-0.20611572,-0.7803345,-0.171875,-0.796875,0.109375
1696254366067,0.5161133,-0.21026611,-0.7744751,-0.390625,-0.890625,0.265625
1696254366108,0.515625,-0.20806885,-0.7720337,0.0,-0.265625,0.390625
1696254366148,0.5107422,-0.20953369,-0.7703247,0.265625,-0.125,0.5
1696254366187,0.50561523,-0.20953369,-0.769104,0.15625,0.109375,0.171875
1696254366227,0.50341797,-0.20758057,-0.77667236,0.140625,0.109375,0.3125
1696254366266,0.5090332,-0.21148682,-0.77960205,0.09375,-0.21875,0.171875
1696254366309,0.5048828,-0.20635986,-0.7737427,0.078125,-0.71875,0.25
1696254366346,0.5058594,-0.21392822,-0.77911377,-0.359375,-0.765625,0.140625
1696254366388,0.5085449,-0.2041626,-0.76812744,-0.296875,-0.6875,0.046875
1696254366427,0.5097656,-0.20440674,-0.77227783,-0.078125,-0.484375,0.203125
1696254366467,0.5085449,-0.20343018,-0.77008057,-0.15625,-0.5,0.265625
1696254366506,0.50878906,-0.20367432,-0.7703247,-0.125,-0.25,0.296875
1696254366549,0.5065918,-0.21099854,-0.7698364,0.015625,-0.1875,0.21875
1696254366588,0.5053711,-0.21343994,-0.77667236,-0.125,-0.296875,0.1875
1696254366627,0.5097656,-0.21026611,-0.78253174,-0.21875,-0.4375,0.28125
1696254366667,0.5061035,-0.20953369,-0.78253174,-0.125,-0.375,0.171875
1696254366709,0.5124512,-0.20904541,-0.7781372,-0.0625,-0.875,0.171875
1696254366747,0.51416016,-0.20855713,-0.7710571,-0.09375,-0.40625,0.1875
1696254366790,0.5058594,-0.20245361,-0.7737427,-0.03125,-0.515625,0.234375
1696254366808,0.5124512,-0.21051025,-0.7715454,0.171875,-0.375,0.109375
1696254366848,0.51123047,-0.21246338,-0.7727661,-0.03125,-0.25,0.15625
1696254366888,0.5109863,-0.20440674,-0.7854614,-0.140625,0.015625,0.21875
1696254366928,0.5046387,-0.2156372,-0.7749634,-0.203125,0.265625,-0.03125
1696254366966,0.50927734,-0.20880127,-0.78131104,-0.09375,-0.375,0.1875
1696254367007,0.50219727,-0.21270752,-0.7737427,0.1875,-0.828125,0.46875
1696254367050,0.5085449,-0.20977783,-0.7769165,0.484375,-1.453125,0.484375
1696254367089,0.5187988,-0.19952393,-0.77667236,-0.15625,-1.640625,0.171875
1696254367125,0.5136719,-0.20367432,-0.77423096,-0.359375,-0.84375,-0.125
1696254367165,0.515625,-0.21612549,-0.7703247,-0.3125,-0.3125,-0.015625
1696254367209,0.5019531,-0.20367432,-0.767395,0.03125,-0.3125,0.125
1696254367247,0.5109863,-0.20904541,-0.7732544,-0.265625,-0.421875,0.390625
1696254367310,0.50634766,-0.20953369,-0.770813,-0.125,-0.53125,0.34375
1696254367326,0.5102539,-0.20709229,-0.7817993,-0.265625,-0.65625,0.234375
1696254367368,0.52001953,-0.20880127,-0.7913208,-0.21875,-0.640625,0.21875
1696254367409,0.51708984,-0.21270752,-0.77056885,-0.015625,-0.390625,0.265625
1696254367448,0.51660156,-0.20684814,-0.7756958,-0.359375,-0.28125,0.046875
1696254367487,0.513916,-0.21124268,-0.76934814,-0.0625,-0.390625,0.25
1696254367527,0.515625,-0.20855713,-0.7659302,-0.046875,-0.234375,0.125
1696254367566,0.5144043,-0.21710205,-0.769104,-0.328125,-0.453125,0.1875
1696254367608,0.51660156,-0.20709229,-0.7744751,-0.140625,-0.03125,0.078125
1696254367647,0.5163574,-0.20709229,-0.7720337,-0.046875,0.0,0.140625
1696254367688,0.51293945,-0.20831299,-0.7732544,0.078125,-0.109375,0.15625
1696254367728,0.51000977,-0.21124268,-0.7715454,0.203125,0.078125,0.3125
1696254367768,0.5151367,-0.20220947,-0.7776489,0.40625,-0.125,0.390625
1696254367828,0.50805664,-0.20684814,-0.7720337,0.453125,-0.09375,0.3125
1696254367846,0.5070801,-0.20562744,-0.76934814,0.03125,-0.171875,0.15625
1696254367888,0.5065918,-0.20587158,-0.7752075,-0.1875,-0.21875,0.015625
1696254367926,0.5007324,-0.20513916,-0.77178955,0.046875,0.359375,-0.015625
1696254367968,0.5131836,-0.2053833,-0.800354,-1.125,-0.59375,-0.28125
1696254368007,0.5061035,-0.20953369,-0.77227783,-0.609375,-0.78125,-0.078125
1696254368049,0.50512695,-0.20758057,-0.77227783,0.171875,-0.28125,0.25
1696254368088,0.50927734,-0.21246338,-0.77789307,0.140625,-0.21875,0.1875
1696254368105,0.5102539,-0.21343994,-0.78131104,-0.25,-1.046875,0.1875
1696254368146,0.50878906,-0.21343994,-0.77349854,-0.1875,-1.296875,-0.03125
1696254368186,0.5078125,-0.21490479,-0.77960205,0.046875,-1.78125,0.359375
1696254368227,0.5083008,-0.20440674,-0.7727661,-0.359375,-2.140625,0.09375
1696254368268,0.52368164,-0.2107544,-0.77008057,-0.578125,-1.875,0.171875
1696254368311,0.5239258,-0.206604,-0.76690674,-0.734375,-1.0625,0.0
1696254368347,0.51342773,-0.20367432,-0.7595825,-0.46875,-0.421875,0.140625
1696254368387,0.5144043,-0.21466064,-0.7710571,-0.4375,-0.046875,0.21875
1696254368427,0.5144043,-0.21392822,-0.7720337,-0.234375,-0.078125,0.125
1696254368467,0.52001953,-0.21173096,-0.7769165,-0.140625,-0.171875,0.203125
1696254368509,0.5187988,-0.21490479,-0.77423096,-0.140625,-0.21875,0.234375
1696254368548,0.51293945,-0.20904541,-0.76397705,-0.078125,-0.21875,0.21875
1696254368587,0.52368164,-0.21051025,-0.7827759,-0.125,-0.390625,0.21875
1696254368627,0.51538086,-0.20904541,-0.76226807,0.140625,-0.046875,0.203125
1696254368667,0.51538086,-0.20928955,-0.7769165,0.0,-0.328125,0.1875
1696254368707,0.52075195,-0.21710205,-0.77056885,0.109375,-0.4375,0.203125
1696254368750,0.50927734,-0.21221924,-0.76690674,-0.03125,-0.375,0.53125
1696254368788,0.50927734,-0.2144165,-0.77178955,0.140625,-0.359375,0.265625
1696254368828,0.51708984,-0.21026611,-0.77178955,-0.328125,-0.296875,-0.078125
1696254368869,0.5109863,-0.20953369,-0.7749634,-0.40625,-0.3125,0.03125
1696254368906,0.5095215,-0.21124268,-0.76934814,-0.265625,-0.03125,0.296875
1696254368950,0.51342773,-0.21368408,-0.770813,-0.09375,-0.28125,0.5
1696254368985,0.5161133,-0.20904541,-0.77838135,-0.109375,-0.09375,0.28125
1696254369027,0.5148926,-0.20880127,-0.7686157,0.125,0.171875,0.1875
1696254369067,0.51782227,-0.20465088,-0.7776489,0.171875,0.234375,0.21875
1696254369107,0.5131836,-0.20977783,-0.772522,0.171875,-0.09375,0.15625
1696254369146,0.5095215,-0.21026611,-0.7769165,-0.078125,-0.140625,0.09375
1696254369187,0.5124512,-0.20977783,-0.7698364,-0.03125,-0.4375,0.28125
1696254369227,0.5097656,-0.20684814,-0.77178955,-0.140625,-0.59375,0.1875
1696254369267,0.50927734,-0.20953369,-0.7695923,0.109375,-0.953125,0.265625
1696254369306,0.50561523,-0.21026611,-0.76934814,0.328125,-1.765625,0.375
1696254369347,0.5163574,-0.21417236,-0.77301025,0.453125,-2.890625,0.328125
1696254369389,0.5300293,-0.21099854,-0.7744751,0.0625,-3.0,0.296875
1696254369429,0.5205078,-0.206604,-0.76763916,-0.421875,-2.375,-0.015625
1696254369445,0.52905273,-0.21807861,-0.7686157,-0.921875,-1.515625,-0.203125
1696254369508,0.5317383,-0.21343994,-0.7581177,-0.75,-0.578125,-0.078125
1696254369547,0.51782227,-0.20709229,-0.76153564,-0.734375,-0.53125,0.03125
1696254369565,0.5241699,-0.21490479,-0.7678833,-0.546875,-0.484375,0.03125
1696254369607,0.5324707,-0.21490479,-0.76348877,-0.59375,-0.53125,0.09375
1696254369669,0.52856445,-0.20953369,-0.7649536,0.015625,-0.109375,0.234375
1696254369688,0.5227051,-0.21466064,-0.7749634,-0.125,-0.03125,0.3125
1696254369729,0.52783203,-0.20904541,-0.7774048,-0.265625,-0.140625,0.171875
1696254369768,0.52246094,-0.20733643,-0.76104736,-0.125,-0.28125,-0.015625
1696254369808,0.5202637,-0.21246338,-0.7632446,-0.171875,-0.296875,0.09375
1696254369847,0.51953125,-0.21173096,-0.7608032,0.03125,-0.1875,0.1875
1696254369886,0.5263672,-0.20587158,-0.7727661,-0.296875,-0.078125,0.09375
1696254369929,0.52441406,-0.20684814,-0.76641846,-0.09375,-0.4375,0.078125
1696254369968,0.52685547,-0.21368408,-0.7737427,-0.09375,-0.1875,0.203125
1696254370006,0.5214844,-0.2119751,-0.76812744,0.03125,-0.171875,0.40625
1696254370048,0.5187988,-0.21612549,-0.7649536,0.046875,-0.21875,0.3125
1696254370088,0.5144043,-0.21173096,-0.75860596,-0.078125,-0.125,0.203125
1696254370126,0.51782227,-0.21490479,-0.7608032,-0.203125,0.125,0.203125
1696254370189,0.5163574,-0.21221924,-0.7666626,-0.28125,0.515625,0.15625
1696254370205,0.5126953,-0.21148682,-0.7600708,0.0,0.125,0.21875
1696254370249,0.515625,-0.21710205,-0.7695923,-0.28125,0.0625,0.125
1696254370288,0.5131836,-0.2107544,-0.76275635,-0.21875,0.6875,0.109375
1696254370348,0.51220703,-0.21466064,-0.77471924,-0.1875,0.71875,-0.09375
1696254370368,0.515625,-0.20928955,-0.77178955,0.359375,0.796875,0.0625
1696254370429,0.51342773,-0.20806885,-0.7720337,0.75,0.984375,0.015625
1696254370447,0.5070801,-0.21636963,-0.7827759,0.46875,1.265625,-0.296875
1696254370489,0.50805664,-0.21539307,-0.7761841,0.21875,1.046875,-0.1875
1696254370529,0.5070801,-0.2041626,-0.788147,-0.078125,-0.09375,-0.109375
1696254370565,0.50878906,-0.21002197,-0.7749634,-0.484375,-0.59375,-0.046875
1696254370608,0.5061035,-0.21392822,-0.7793579,-0.3125,-1.484375,0.046875
1696254370646,0.5144043,-0.20831299,-0.7817993,-0.921875,-2.640625,-0.078125
1696254370687,0.51660156,-0.21685791,-0.7756958,-1.140625,-2.0625,-0.109375
1696254370748,0.5175781,-0.21392822,-0.7617798,-0.75,-1.53125,0.296875
1696254370751,0.5180664,-0.21661377,-0.7605591,-0.0625,-0.375,0.328125
1696254370787,0.5070801,-0.21588135,-0.7576294,-0.03125,0.4375,0.03125
1696254370869,0.5114746,-0.21588135,-0.7661743,0.109375,0.09375,0.15625
1696254370871,0.51293945,-0.2144165,-0.7925415,-0.0625,-0.015625,0.25
1696254370909,0.517334,-0.21881104,-0.76812744,0.171875,-0.34375,0.3125
1696254370946,0.51416016,-0.2119751,-0.7715454,0.0,-0.359375,0.203125
1696254370988,0.5036621,-0.20733643,-0.7637329,-0.15625,-0.390625,0.25
1696254371027,0.5109863,-0.21368408,-0.77423096,0.03125,-0.1875,0.0625
1696254371069,0.51000977,-0.21490479,-0.78009033,0.09375,-0.21875,0.203125
1696254371108,0.5078125,-0.20928955,-0.78204346,-0.0625,-0.609375,0.203125
1696254371146,0.51586914,-0.20977783,-0.7695923,-0.046875,-0.828125,0.3125
1696254371190,0.5151367,-0.21002197,-0.7776489,-0.25,-0.90625,0.171875
1696254371232,0.5168457,-0.2131958,-0.77056885,0.109375,-0.9375,0.296875
1696254371268,0.51049805,-0.21246338,-0.7659302,0.015625,-0.765625,0.328125
1696254371309,0.5151367,-0.21539307,-0.7710571,0.140625,-0.265625,0.328125
1696254371351,0.51904297,-0.21539307,-0.7769165,-0.21875,-0.234375,0.171875
1696254371387,0.5163574,-0.22076416,-0.7774048,-0.203125,-0.109375,0.015625
1696254371427,0.513916,-0.21295166,-0.7764282,-0.375,-0.28125,0.203125
1696254371467,0.51123047,-0.21539307,-0.7732544,0.015625,-0.328125,0.328125
1696254371510,0.5124512,-0.21514893,-0.77545166,0.484375,0.15625,0.34375
1696254371548,0.5102539,-0.21368408,-0.76568604,0.46875,0.09375,0.328125
1696254371591,0.51000977,-0.21148682,-0.77227783,-0.03125,-0.203125,0.171875
1696254371628,0.5131836,-0.21685791,-0.7749634,-0.109375,-0.953125,0.328125
1696254371666,0.51171875,-0.21002197,-0.77056885,0.234375,-1.40625,0.3125
1696254371708,0.52246094,-0.2131958,-0.77130127,-0.046875,-1.296875,0.125
1696254371747,0.513916,-0.21490479,-0.7793579,-0.15625,-1.328125,0.15625
1696254371788,0.5126953,-0.21514893,-0.7666626,-0.046875,-0.875,0.15625
1696254371826,0.513916,-0.21661377,-0.7678833,0.21875,-0.203125,0.171875
1696254371868,0.5168457,-0.2144165,-0.7737427,-0.125,-0.140625,0.125
1696254371906,0.5161133,-0.20928955,-0.7659302,-0.203125,-0.453125,0.1875
1696254371947,0.5131836,-0.21514893,-0.7695923,-0.1875,-0.21875,0.1875
1696254371989,0.5097656,-0.2156372,-0.77178955,-0.046875,-0.078125,0.234375
1696254372046,0.5197754,-0.20269775,-0.7739868,0.015625,-0.453125,0.234375
1696254372067,0.5180664,-0.21466064,-0.770813,-0.171875,-0.421875,0.28125
1696254372087,0.5109863,-0.20977783,-0.76226807,0.03125,-0.65625,0.234375
1696254372126,0.5144043,-0.21466064,-0.7710571,-0.140625,-0.59375,0.03125
1696254372189,0.5124512,-0.2078247,-0.7671509,-0.328125,-0.625,0.078125
1696254372208,0.5124512,-0.21124268,-0.7683716,-0.1875,-0.625,0.046875
1696254372268,0.5185547,-0.2078247,-0.772522,-0.03125,-0.421875,0.078125
1696254372288,0.5180664,-0.2107544,-0.77130127,-0.140625,-0.265625,0.203125
1696254372351,0.5107422,-0.21343994,-0.7727661,-0.015625,-0.09375,0.296875
1696254372388,0.5131836,-0.2107544,-0.7695923,-0.1875,0.03125,0.171875
1696254372428,0.5185547,-0.21343994,-0.7659302,0.171875,-0.125,0.3125
1696254372445,0.52319336,-0.21221924,-0.7749634,0.015625,-0.28125,0.265625
1696254372489,0.51220703,-0.21246338,-0.7769165,-0.046875,-0.5,0.109375
1696254372527,0.5209961,-0.21173096,-0.77471924,0.046875,-0.40625,0.328125
1696254372569,0.5119629,-0.21661377,-0.76763916,-0.046875,-0.296875,0.25
1696254372608,0.5163574,-0.20733643,-0.7737427,-0.21875,-0.359375,0.109375
1696254372646,0.5136719,-0.20831299,-0.77301025,-0.046875,-0.203125,0.15625
1696254372686,0.513916,-0.21807861,-0.7744751,0.15625,0.15625,0.203125
1696254372726,0.50927734,-0.20709229,-0.77423096,-0.015625,0.296875,0.21875
1696254372767,0.5090332,-0.21661377,-0.77593994,0.203125,0.1875,0.140625
1696254372807,0.51171875,-0.2131958,-0.77471924,0.640625,0.34375,0.3125
1696254372846,0.50341797,-0.21514893,-0.7732544,0.4375,0.34375,0.234375
1696254372887,0.5058594,-0.2107544,-0.77545166,0.46875,0.359375,0.203125
1696254372927,0.50927734,-0.20587158,-0.772522,0.328125,0.3125,0.0625
1696254372988,0.50219727,-0.20245361,-0.78326416,-0.1875,0.140625,-0.109375
1696254373008,0.5048828,-0.20611572,-0.7732544,-0.390625,0.0625,-0.109375
1696254373046,0.5029297,-0.20489502,-0.77471924,-0.28125,-0.25,-0.0625
1696254373108,0.5019531,-0.21051025,-0.78131104,-0.765625,-0.515625,-0.09375
1696254373128,0.5065918,-0.20855713,-0.772522,-0.296875,-0.421875,0.078125
1696254373168,0.49780273,-0.2119751,-0.7774048,-0.015625,-1.140625,0.078125
1696254373229,0.5107422,-0.20611572,-0.78497314,-0.03125,-2.046875,0.15625
1696254373246,0.50927734,-0.21221924,-0.77471924,-0.046875,-1.703125,0.34375
1696254373289,0.50756836,-0.21295166,-0.7737427,0.203125,-1.421875,0.546875
1696254373329,0.5085449,-0.20513916,-0.7744751,-0.09375,-0.9375,0.265625
1696254373369,0.5234375,-0.20611572,-0.7932739,-0.625,-0.703125,0.109375
1696254373389,0.5119629,-0.20977783,-0.76934814,-0.578125,-0.25,0.0
1696254373430,0.51293945,-0.2107544,-0.77178955,-0.53125,0.25,0.171875
1696254373469,0.51000977,-0.20587158,-0.77227783,-0.21875,-0.234375,0.203125
1696254373507,0.50756836,-0.21221924,-0.7720337,-0.125,-0.09375,0.21875
1696254373548,0.5148926,-0.21270752,-0.7810669,-0.140625,-0.078125,0.296875
1696254373587,0.51000977,-0.21221924,-0.7761841,-0.1875,-0.234375,0.125
1696254373627,0.5109863,-0.21173096,-0.7737427,0.0,-0.140625,0.3125
1696254373667,0.5163574,-0.20489502,-0.77593994,-0.109375,-0.078125,0.078125
1696254373710,0.51293945,-0.20367432,-0.7678833,0.1875,-0.390625,0.234375
1696254373745,0.50927734,-0.20831299,-0.7744751,0.109375,-0.28125,0.15625
1696254373789,0.50805664,-0.21051025,-0.77130127,-0.015625,-0.40625,0.296875
1696254373828,0.51123047,-0.21002197,-0.7666626,0.0625,-0.296875,0.296875
1696254373870,0.5114746,-0.20904541,-0.78375244,-0.015625,-0.5,0.203125
1696254373907,0.5124512,-0.21270752,-0.7803345,-0.0625,-0.21875,0.015625
1696254373946,0.50683594,-0.20635986,-0.7695923,0.09375,-0.265625,0.15625
1696254373987,0.50927734,-0.20855713,-0.7703247,0.046875,0.0,0.015625
1696254374028,0.50439453,-0.2078247,-0.77545166,0.484375,0.296875,0.3125
1696254374068,0.5046387,-0.21002197,-0.7732544,0.15625,-0.015625,0.125
1696254374106,0.5090332,-0.2107544,-0.772522,0.0,0.015625,0.03125
1696254374150,0.5058594,-0.20733643,-0.78375244,-0.0625,-0.109375,0.09375
1696254374188,0.50512695,-0.21051025,-0.7720337,-0.15625,-0.390625,0.296875
1696254374229,0.5083008,-0.20635986,-0.78570557,-0.21875,-0.546875,0.09375
1696254374268,0.5107422,-0.20391846,-0.77423096,-0.421875,-0.546875,0.109375
1696254374331,0.5083008,-0.20758057,-0.76885986,-0.09375,-0.828125,0.078125
1696254374347,0.5114746,-0.20611572,-0.7737427,-0.15625,-1.03125,0.15625
1696254374387,0.5090332,-0.21661377,-0.7756958,-0.15625,-1.90625,0.328125
1696254374427,0.5065918,-0.20733643,-0.77545166,-0.21875,-1.921875,0.140625
1696254374468,0.5161133,-0.21148682,-0.7752075,-0.234375,-1.484375,0.15625
1696254374508,0.5229492,-0.20831299,-0.7776489,-0.625,-1.03125,0.125
1696254374546,0.5187988,-0.20465088,-0.75787354,-0.65625,-0.34375,0.375
1696254374586,0.5161133,-0.21368408,-0.76885986,-0.46875,-0.21875,0.25
1696254374627,0.5187988,-0.21148682,-0.7859497,-0.734375,-0.46875,-0.171875
1696254374709,0.5214844,-0.21490479,-0.76934814,-0.328125,-0.640625,0.09375
1696254374713,0.5090332,-0.21588135,-0.77056885,0.015625,-0.578125,0.296875
1696254374727,0.5114746,-0.21929932,-0.76934814,0.09375,-0.296875,0.21875
1696254374768,0.5202637,-0.21343994,-0.76812744,0.125,-0.203125,0.421875
1696254374807,0.5185547,-0.21661377,-0.77423096,0.125,0.21875,0.265625
1696254374848,0.50805664,-0.2144165,-0.7710571,-0.03125,-0.171875,0.140625
1696254374888,0.51220703,-0.2053833,-0.77056885,0.03125,-0.09375,0.234375
1696254374927,0.50878906,-0.21099854,-0.7727661,-0.203125,-0.375,0.28125
1696254374968,0.513916,-0.21759033,-0.7727661,-0.109375,-0.28125,0.234375
1696254375007,0.51904297,-0.21661377,-0.77960205,-0.265625,-0.734375,0.265625
1696254375067,0.5136719,-0.20562744,-0.7764282,0.0,-0.328125,0.234375
1696254375109,0.51342773,-0.21417236,-0.7659302,0.15625,-0.234375,0.296875
1696254375126,0.51123047,-0.2107544,-0.7852173,0.03125,-0.03125,0.3125
1696254375189,0.50805664,-0.20806885,-0.77130127,-0.015625,-0.15625,0.109375
1696254375207,0.5090332,-0.20513916,-0.77349854,-0.09375,-0.03125,0.171875
1696254375267,0.5124512,-0.20904541,-0.77911377,0.140625,-0.046875,0.25
1696254375308,0.51538086,-0.21002197,-0.77349854,0.0,-0.1875,0.0625
1696254375326,0.5085449,-0.21368408,-0.7695923,0.046875,-0.28125,0.265625
1696254375367,0.50341797,-0.2119751,-0.7715454,-0.03125,-0.421875,0.265625
1696254375410,0.5151367,-0.21124268,-0.77667236,-0.03125,-0.703125,0.171875
1696254375447,0.5161133,-0.20758057,-0.7710571,0.15625,-0.25,0.015625
1696254375488,0.51171875,-0.20587158,-0.7737427,0.09375,0.203125,0.046875
1696254375527,0.5095215,-0.20806885,-0.7769165,-0.046875,0.125,-0.15625
1696254375567,0.5073242,-0.21026611,-0.77960205,-0.453125,-0.359375,0.03125
1696254375608,0.50756836,-0.20513916,-0.77471924,-0.3125,-0.59375,-0.03125
1696254375646,0.5036621,-0.21124268,-0.77423096,-0.078125,-1.109375,-0.078125
1696254375687,0.5119629,-0.21270752,-0.7764282,-0.09375,-2.0625,0.09375
1696254375727,0.517334,-0.2185669,-0.7732544,-0.25,-2.171875,0.203125
1696254375767,0.52612305,-0.20733643,-0.7720337,-0.109375,-1.484375,0.1875
1696254375808,0.51831055,-0.20611572,-0.77301025,-0.421875,-0.875,0.078125
1696254375847,0.51293945,-0.21124268,-0.7661743,-0.515625,-0.609375,0.078125
1696254375889,0.5151367,-0.21246338,-0.767395,-0.53125,-0.296875,0.171875
1696254375949,0.5090332,-0.21173096,-0.7642212,-0.453125,-0.359375,0.046875
1696254375966,0.51586914,-0.21612549,-0.77423096,-0.515625,-0.4375,0.046875
1696254376029,0.5175781,-0.21002197,-0.77008057,-0.21875,-0.546875,0.296875
1696254376032,0.5209961,-0.2144165,-0.7720337,-0.0625,-0.453125,0.40625
1696254376067,0.52319336,-0.21417236,-0.77423096,-0.171875,-0.609375,0.046875
1696254376107,0.51831055,-0.21417236,-0.7698364,0.0625,-0.25,0.328125
1696254376147,0.5102539,-0.20953369,-0.7671509,-0.109375,-0.109375,0.28125
1696254376187,0.5119629,-0.21392822,-0.76690674,-0.171875,-0.5,0.140625
1696254376226,0.52319336,-0.20758057,-0.7822876,-0.390625,-0.140625,-0.046875
1696254376266,0.5202637,-0.21881104,-0.7761841,-0.25,-0.09375,-0.03125
1696254376308,0.5202637,-0.21392822,-0.7720337,-0.109375,-0.328125,0.328125
1696254376348,0.5161133,-0.21124268,-0.76763916,0.15625,0.078125,0.21875
1696254376387,0.51538086,-0.21490479,-0.77911377,0.140625,0.0,0.390625
1696254376428,0.5097656,-0.21002197,-0.76568604,0.0,-0.375,0.1875
1696254376468,0.5161133,-0.21270752,-0.77593994,-0.046875,-0.21875,0.0625
1696254376507,0.5119629,-0.20904541,-0.7715454,-0.28125,-0.328125,-0.0625
1696254376548,0.5065918,-0.20928955,-0.76568604,-0.09375,-0.28125,0.09375
1696254376587,0.515625,-0.21173096,-0.77667236,-0.03125,-0.296875,0.15625
1696254376630,0.51416016,-0.2107544,-0.76934814,-0.109375,-0.6875,0.15625
1696254376667,0.5109863,-0.21051025,-0.7732544,-0.015625,-0.6875,0.234375
1696254376707,0.5151367,-0.21343994,-0.7737427,0.078125,-0.671875,0.21875
1696254376747,0.5168457,-0.21026611,-0.7720337,-0.1875,-1.265625,0.203125
1696254376789,0.5107422,-0.20806885,-0.76885986,-0.078125,-1.28125,0.09375
1696254376826,0.51831055,-0.21124268,-0.7715454,-0.203125,-1.109375,-0.0625
1696254376868,0.5229492,-0.21343994,-0.78253174,-0.34375,-0.765625,0.09375
1696254376907,0.5197754,-0.20904541,-0.7671509,-0.109375,-0.625,0.015625
1696254376947,0.5148926,-0.21954346,-0.7647095,-0.03125,-0.296875,0.234375
1696254376986,0.5205078,-0.2144165,-0.7608032,0.21875,-0.4375,0.234375
1696254377028,0.52319336,-0.20635986,-0.7695923,0.140625,-0.1875,0.46875
1696254377069,0.5209961,-0.20513916,-0.7661743,-0.109375,-0.75,0.171875
1696254377108,0.5229492,-0.2119751,-0.77667236,-0.15625,-0.4375,0.140625
1696254377150,0.52124023,-0.21417236,-0.77789307,-0.203125,-0.1875,0.3125
1696254377189,0.51538086,-0.21929932,-0.7620239,-0.359375,-0.296875,0.15625
1696254377229,0.51464844,-0.21099854,-0.769104,-0.390625,0.0,-0.0625
1696254377270,0.51293945,-0.21368408,-0.7720337,-0.203125,-0.328125,0.125
1696254377308,0.5119629,-0.21246338,-0.7654419,0.078125,-0.6875,0.046875
1696254377326,0.51708984,-0.21417236,-0.7666626,0.03125,-0.984375,0.171875
1696254377388,0.5241699,-0.2156372,-0.78082275,-0.140625,-0.890625,0.234375
1696254377406,0.5258789,-0.22271729,-0.77056885,-0.265625,-1.0,0.015625
1696254377472,0.5109863,-0.2107544,-0.75982666,-0.234375,-0.6875,0.171875
1696254377486,0.51782227,-0.21002197,-0.7659302,-0.109375,-0.421875,-0.046875
1696254377527,0.513916,-0.21661377,-0.75567627,-0.203125,-0.21875,0.25
1696254377567,0.513916,-0.21929932,-0.76641846,0.046875,0.046875,0.125
1696254377607,0.51904297,-0.21270752,-0.7774048,-0.0625,-0.25,0.25
1696254377646,0.5192871,-0.21661377,-0.770813,-0.109375,0.125,0.140625
1696254377687,0.51782227,-0.21636963,-0.7803345,-0.171875,-0.234375,-0.015625
1696254377729,0.5175781,-0.21124268,-0.7593384,-0.359375,-0.453125,0.03125
1696254377768,0.51123047,-0.20855713,-0.7649536,-0.109375,0.328125,0.046875
1696254377807,0.5136719,-0.21417236,-0.7666626,-0.0625,0.390625,0.0625
1696254377848,0.5061035,-0.21759033,-0.7612915,0.546875,0.578125,0.40625
1696254377888,0.50878906,-0.21539307,-0.77789307,0.765625,0.9375,0.1875
1696254377928,0.5136719,-0.21246338,-0.78082275,0.71875,0.75,0.140625
1696254377969,0.5058594,-0.21270752,-0.78448486,0.609375,0.859375,0.0625
1696254378008,0.50268555,-0.20928955,-0.7769165,0.125,0.59375,-0.03125
1696254378069,0.5053711,-0.20977783,-0.784729,-0.21875,0.328125,-0.203125
1696254378088,0.5029297,-0.21148682,-0.77301025,-0.140625,0.421875,-0.203125
1696254378149,0.5061035,-0.20733643,-0.7817993,-0.125,0.421875,0.03125
1696254378189,0.4970703,-0.20440674,-0.78302,-0.421875,-0.3125,0.0
1696254378206,0.50634766,-0.20709229,-0.78204346,-0.421875,-0.96875,0.03125
1696254378249,0.50805664,-0.21173096,-0.77545166,-0.171875,-1.171875,0.109375
1696254378305,0.50756836,-0.20977783,-0.77227783,-0.34375,-1.640625,0.234375
1696254378327,0.5053711,-0.21026611,-0.76763916,-0.03125,-1.796875,0.28125
1696254378369,0.5070801,-0.2078247,-0.7710571,-0.203125,-1.53125,0.125
1696254378427,0.50927734,-0.21099854,-0.7732544,-0.703125,-1.125,0.015625
1696254378447,0.51708984,-0.21612549,-0.77667236,-0.65625,-1.140625,-0.046875
1696254378488,0.5148926,-0.21124268,-0.7695923,-0.640625,-0.546875,0.078125
1696254378527,0.5070801,-0.20562744,-0.76690674,-0.3125,-0.15625,0.265625
1696254378568,0.51220703,-0.2119751,-0.76934814,-0.265625,-0.125,0.140625
1696254378607,0.5073242,-0.21514893,-0.7703247,-0.140625,-0.296875,0.203125
1696254378627,0.51000977,-0.21026611,-0.7720337,0.234375,-0.25,0.375
1696254378671,0.51416016,-0.2144165,-0.78741455,0.109375,-0.171875,0.265625
1696254378710,0.5151367,-0.21295166,-0.77716064,-0.015625,-0.1875,0.203125
1696254378748,0.5131836,-0.22174072,-0.7769165,-0.21875,-0.046875,0.109375
1696254378788,0.50097656,-0.21929932,-0.77227783,-0.28125,-0.671875,0.15625
1696254378829,0.5083008,-0.21368408,-0.7749634,-0.390625,-0.953125,0.140625
1696254378867,0.5175781,-0.21514893,-0.7710571,-0.171875,-0.890625,0.234375
1696254378907,0.51586914,-0.21173096,-0.7620239,0.015625,-0.328125,0.28125
1696254378947,0.5102539,-0.2119751,-0.77178955,0.015625,-0.328125,0.171875
1696254378988,0.51953125,-0.21490479,-0.7827759,-0.03125,-0.34375,0.21875
1696254379029,0.5192871,-0.21173096,-0.7798462,0.28125,-0.140625,0.328125
1696254379067,0.5083008,-0.21343994,-0.7803345,0.046875,-0.5,0.15625
1696254379107,0.51464844,-0.21368408,-0.7774048,-0.34375,-0.5,0.046875
1696254379147,0.5046387,-0.20855713,-0.76885986,-0.140625,-0.53125,-0.078125
1696254379187,0.51123047,-0.2156372,-0.77008057,-0.078125,-0.390625,0.171875
1696254379227,0.51171875,-0.2119751,-0.76812744,-0.203125,-0.109375,0.03125
1696254379268,0.50390625,-0.21051025,-0.77349854,0.0625,-0.46875,0.375
1696254379308,0.5102539,-0.21246338,-0.77593994,0.1875,-0.59375,0.34375
1696254379348,0.5119629,-0.21588135,-0.77130127,0.28125,-0.546875,0.15625
1696254379388,0.515625,-0.20928955,-0.7756958,0.015625,-0.1875,0.21875
1696254379428,0.51416016,-0.21173096,-0.76812744,0.15625,-0.140625,0.0625
1696254379469,0.50878906,-0.2078247,-0.7695923,0.3125,-0.203125,0.21875
1696254379506,0.5083008,-0.21099854,-0.77423096,0.53125,0.09375,0.359375
1696254379549,0.50683594,-0.20318604,-0.76812744,0.28125,0.140625,0.1875
1696254379587,0.5031738,-0.21099854,-0.784729,0.15625,-0.0625,0.078125
1696254379628,0.51049805,-0.20977783,-0.7761841,-0.015625,-0.265625,0.25
1696254379668,0.50268555,-0.21270752,-0.7815552,0.046875,-0.28125,0.078125
1696254379707,0.5107422,-0.21099854,-0.77716064,-0.09375,-0.15625,0.171875
1696254379749,0.5065918,-0.2078247,-0.77423096,-0.34375,-0.3125,-0.0625
1696254379788,0.50634766,-0.21734619,-0.7739868,-0.28125,-0.078125,-0.171875
1696254379827,0.49829102,-0.21612549,-0.77130127,-0.3125,-0.09375,0.046875
1696254379866,0.50756836,-0.21734619,-0.77667236,-0.421875,-0.53125,0.15625
1696254379910,0.50024414,-0.21685791,-0.78009033,-0.1875,-0.578125,0.03125
1696254379948,0.5058594,-0.206604,-0.7752075,0.09375,-1.625,0.390625
1696254379968,0.5058594,-0.21636963,-0.7720337,0.140625,-1.8125,0.34375
1696254380008,0.517334,-0.20684814,-0.78326416,-0.109375,-1.40625,0.390625
1696254380049,0.5175781,-0.21612549,-0.7715454,-0.3125,-1.328125,0.03125
1696254380087,0.51660156,-0.2053833,-0.7703247,-0.484375,-1.0625,0.0625
1696254380128,0.5144043,-0.21490479,-0.7761841,-0.421875,-0.671875,0.125
1696254380167,0.5131836,-0.21685791,-0.7683716,-0.734375,-0.34375,0.1875
1696254380209,0.5095215,-0.21270752,-0.77545166,-0.515625,-0.28125,-0.078125
1696254380267,0.5085449,-0.2119751,-0.77130127,-0.015625,-0.328125,0.4375
1696254380288,0.52075195,-0.21124268,-0.77716064,0.09375,-0.53125,0.421875
1696254380326,0.5336914,-0.20220947,-0.7686157,0.140625,-0.453125,0.578125
1696254380369,0.52246094,-0.20709229,-0.7600708,0.015625,-0.5625,0.375
1696254380406,0.51782227,-0.21270752,-0.76812744,-0.09375,-0.25,0.203125
1696254380446,0.517334,-0.20977783,-0.77349854,-0.296875,0.1875,0.109375
1696254380511,0.5222168,-0.21026611,-0.7703247,-0.546875,0.0,-0.109375
1696254380527,0.5144043,-0.21148682,-0.7739868,-0.4375,-0.046875,0.078125
1696254380589,0.5136719,-0.22198486,-0.76763916,-0.203125,-0.0625,0.1875
1696254380628,0.5109863,-0.21636963,-0.7764282,0.0625,-0.140625,0.375
1696254380646,0.5095215,-0.21246338,-0.772522,0.328125,-0.1875,0.40625
1696254380688,0.5161133,-0.2144165,-0.7744751,0.234375,0.125,0.234375
1696254380727,0.50756836,-0.21270752,-0.7752075,0.546875,0.5,0.1875
1696254380769,0.50512695,-0.20904541,-0.7625122,0.515625,0.796875,0.09375
1696254380807,0.5031738,-0.21051025,-0.7752075,0.28125,0.484375,0.046875
1696254380849,0.50683594,-0.20245361,-0.78082275,0.453125,0.71875,-0.015625
1696254380889,0.5065918,-0.20025635,-0.77667236,0.265625,0.328125,0.15625
1696254380927,0.5095215,-0.20562744,-0.78692627,0.171875,0.109375,0.140625
1696254380988,0.5097656,-0.2053833,-0.7798462,0.03125,0.21875,-0.078125
1696254381007,0.5031738,-0.2053833,-0.77667236,-0.171875,-0.34375,0.140625
1696254381048,0.5065918,-0.20489502,-0.78326416,-0.21875,-0.328125,0.03125
1696254381086,0.50219727,-0.21051025,-0.77838135,-0.359375,-0.53125,0.25
1696254381149,0.50146484,-0.20513916,-0.78131104,-0.328125,-0.75,-0.03125
1696254381168,0.5041504,-0.20440674,-0.7774048,-0.265625,-0.96875,0.265625
1696254381206,0.5007324,-0.20635986,-0.7749634,-0.015625,-1.046875,0.328125
1696254381268,0.50927734,-0.20806885,-0.7769165,-0.21875,-1.8125,0.25
1696254381289,0.5019531,-0.20904541,-0.7720337,-0.328125,-1.71875,0.0625
1696254381307,0.52246094,-0.2144165,-0.78302,-0.40625,-0.921875,0.328125
1696254381348,0.5048828,-0.20977783,-0.7654419,0.015625,-0.3125,0.171875
1696254381387,0.515625,-0.21343994,-0.7827759,-0.109375,-0.34375,0.078125
1696254381426,0.51049805,-0.20587158,-0.7744751,-0.203125,-0.1875,0.140625
1696254381467,0.5073242,-0.2156372,-0.78131104,-0.265625,-0.234375,0.0625
1696254381508,0.5095215,-0.21368408,-0.77423096,-0.125,-0.40625,0.09375
1696254381547,0.5078125,-0.20904541,-0.7720337,-0.375,-0.59375,0.140625
1696254381588,0.50512695,-0.21221924,-0.76934814,-0.421875,-0.75,0.1875
1696254381627,0.5083008,-0.21392822,-0.77008057,-0.078125,-0.6875,0.296875
1696254381668,0.51416016,-0.20831299,-0.772522,-0.015625,-0.609375,0.109375
1696254381707,0.51342773,-0.20733643,-0.77593994,-0.21875,-0.734375,0.09375
1696254381747,0.51000977,-0.20489502,-0.7764282,-0.234375,-0.296875,0.21875
1696254381788,0.51123047,-0.2119751,-0.7698364,-0.203125,-0.484375,0.203125
1696254381827,0.5053711,-0.21685791,-0.77178955,-0.1875,-0.328125,0.140625
1696254381867,0.5185547,-0.20855713,-0.78253174,-0.40625,-0.375,0.140625
1696254381907,0.5048828,-0.21954346,-0.769104,-0.34375,-0.46875,0.03125
1696254381947,0.50805664,-0.20611572,-0.7661743,-0.03125,-0.375,0.296875
1696254381986,0.51416016,-0.20977783,-0.7822876,-0.140625,-0.5,0.109375
1696254382029,0.5119629,-0.21588135,-0.7803345,-0.1875,-1.125,0.125
1696254382067,0.5070801,-0.21026611,-0.772522,0.21875,-0.921875,0.265625
1696254382108,0.51782227,-0.21246338,-0.76446533,0.140625,-0.40625,0.28125
1696254382148,0.5175781,-0.20831299,-0.7842407,-0.15625,-0.09375,0.03125
1696254382188,0.5144043,-0.21783447,-0.7683716,-0.4375,0.015625,-0.015625
1696254382227,0.50341797,-0.21246338,-0.76153564,-0.171875,-0.015625,0.03125
1696254382268,0.51220703,-0.20806885,-0.7764282,0.0,0.078125,0.171875
1696254382309,0.5046387,-0.20855713,-0.7803345,0.0,-0.203125,0.359375
1696254382347,0.5161133,-0.21051025,-0.7752075,0.109375,-0.296875,0.203125
1696254382387,0.5136719,-0.20147705,-0.7749634,0.015625,-0.125,0.25
1696254382429,0.5048828,-0.20440674,-0.7739868,0.0,-0.15625,0.234375
1696254382468,0.51464844,-0.20953369,-0.7769165,-0.25,-0.46875,0.140625
1696254382507,0.5107422,-0.21148682,-0.77838135,0.0,-1.140625,0.140625
1696254382591,0.5053711,-0.21124268,-0.7822876,0.421875,-3.171875,0.171875
1696254382594,0.52319336,-0.20440674,-0.77789307,0.421875,-5.03125,0.21875
1696254382607,0.5283203,-0.2131958,-0.7678833,0.1875,-2.796875,0.4375
1696254382646,0.52612305,-0.20465088,-0.7600708,0.1875,-1.453125,0.40625
1696254382688,0.5227051,-0.21173096,-0.7686157,-0.1875,0.703125,0.125
1696254382727,0.5263672,-0.20684814,-0.77911377,-0.53125,1.375,0.25
1696254382790,0.52319336,-0.206604,-0.7637329,-0.546875,0.875,-0.109375
1696254382806,0.52441406,-0.2107544,-0.77911377,-0.59375,0.578125,0.0
1696254382847,0.5185547,-0.21051025,-0.7647095,-0.21875,-0.140625,0.203125
1696254382887,0.51538086,-0.2078247,-0.7737427,-0.125,-0.296875,0.171875
1696254382926,0.51123047,-0.2078247,-0.77008057,-0.359375,-0.921875,0.125
1696254382967,0.51220703,-0.21173096,-0.7727661,-0.671875,-1.34375,-0.0625
1696254383008,0.52246094,-0.21295166,-0.7710571,-0.390625,-1.5,0.125
1696254383046,0.5209961,-0.21710205,-0.76153564,-0.03125,-0.875,0.5
1696254383088,0.5163574,-0.2131958,-0.76885986,-0.265625,-0.9375,0.15625
1696254383147,0.5341797,-0.20733643,-0.7649536,-0.171875,-0.71875,0.015625
1696254383168,0.5253906,-0.2144165,-0.7649536,-0.234375,0.203125,-0.046875
1696254383209,0.5148926,-0.21343994,-0.7608032,-0.03125,0.921875,0.171875
1696254383246,0.5102539,-0.20684814,-0.7632446,0.140625,0.9375,0.078125
1696254383286,0.52612305,-0.21221924,-0.7793579,0.015625,0.90625,-0.03125
1696254383328,0.5095215,-0.2144165,-0.76690674,0.203125,0.53125,0.328125
1696254383368,0.51342773,-0.20928955,-0.78204346,-0.46875,0.203125,0.0625
1696254383407,0.50634766,-0.21148682,-0.7756958,-0.234375,-0.28125,0.21875
1696254383448,0.5131836,-0.21343994,-0.76763916,0.109375,-0.34375,0.34375
1696254383487,0.5126953,-0.20611572,-0.77423096,0.046875,-0.125,0.359375
1696254383529,0.5090332,-0.21514893,-0.77227783,-0.34375,-0.21875,0.140625
1696254383567,0.5229492,-0.20343018,-0.7744751,0.03125,0.21875,-0.09375
1696254383613,0.50927734,-0.20880127,-0.77130127,0.796875,0.8125,0.03125
1696254383648,0.50756836,-0.20758057,-0.7822876,0.25,1.3125,0.125
1696254383691,0.5078125,-0.20611572,-0.77008057,-0.015625,0.90625,-0.140625
1696254383729,0.50268555,-0.21343994,-0.77178955,0.078125,1.015625,-0.125
1696254383768,0.5048828,-0.21002197,-0.7810669,0.421875,1.0625,-0.046875
1696254383807,0.501709,-0.21392822,-0.78375244,0.421875,0.5625,0.03125
1696254383868,0.49365234,-0.20953369,-0.784729,-0.046875,-0.171875,0.21875
1696254383887,0.49804688,-0.20587158,-0.7815552,-0.140625,-0.71875,0.109375
1696254383908,0.50268555,-0.20343018,-0.7810669,-0.3125,-1.0,0.0625
1696254383947,0.5073242,-0.2078247,-0.7781372,-0.015625,-0.984375,0.234375
1696254383987,0.5046387,-0.20880127,-0.77349854,0.171875,-0.5,0.21875
1696254384028,0.5041504,-0.20513916,-0.78131104,-0.140625,-0.9375,0.171875
1696254384067,0.5048828,-0.20733643,-0.7788696,-0.140625,-1.390625,0.015625
1696254384108,0.49804688,-0.20953369,-0.77349854,-0.4375,-1.640625,0.25
1696254384146,0.5070801,-0.2078247,-0.7827759,-0.59375,-1.734375,0.34375
1696254384189,0.51293945,-0.21148682,-0.7608032,-0.078125,-1.359375,0.109375
1696254384229,0.5048828,-0.20880127,-0.7617798,0.03125,-0.0625,0.203125
1696254384268,0.5004883,-0.206604,-0.77667236,-0.078125,0.125,0.21875
1696254384308,0.5119629,-0.20953369,-0.77471924,-0.484375,-0.453125,-0.015625
1696254384348,0.51123047,-0.21685791,-0.7756958,0.046875,-0.53125,0.28125
1696254384388,0.5029297,-0.21002197,-0.77130127,0.328125,-0.484375,0.5625
1696254384427,0.51464844,-0.20904541,-0.77667236,0.015625,-0.5625,0.125
1696254384467,0.5078125,-0.20806885,-0.7732544,-0.296875,-0.59375,0.109375
1696254384508,0.51123047,-0.21002197,-0.78204346,0.125,-0.359375,0.390625
1696254384548,0.50634766,-0.20635986,-0.77789307,-0.234375,-0.4375,0.15625
1696254384587,0.50756836,-0.21221924,-0.7764282,-0.0625,-0.53125,0.171875
1696254384628,0.5019531,-0.20880127,-0.7686157,0.03125,-0.453125,0.265625
1696254384668,0.5124512,-0.20587158,-0.7715454,0.09375,-0.796875,0.140625
1696254384708,0.5119629,-0.20953369,-0.7876587,-0.3125,-0.890625,0.1875
1696254384748,0.5053711,-0.20684814,-0.767395,-0.109375,-0.578125,0.28125
1696254384787,0.5148926,-0.20269775,-0.77716064,-0.15625,-0.65625,0.15625
1696254384827,0.5131836,-0.20684814,-0.76885986,-0.34375,-0.5625,0.125
1696254384871,0.5041504,-0.21221924,-0.76763916,0.109375,-0.296875,0.15625
1696254384912,0.5124512,-0.21148682,-0.7817993,-0.09375,-0.4375,0.078125
1696254384949,0.5148926,-0.2144165,-0.77911377,-0.234375,-0.234375,0.34375
1696254384988,0.5073242,-0.20367432,-0.7737427,-0.515625,-0.28125,-0.015625
1696254385029,0.50756836,-0.21343994,-0.7732544,-0.34375,-0.328125,0.15625
1696254385070,0.49975586,-0.21099854,-0.77301025,-0.09375,-0.28125,0.125
1696254385110,0.5078125,-0.21099854,-0.76446533,0.125,-0.1875,0.265625
1696254385147,0.5114746,-0.20977783,-0.7720337,-0.078125,-0.296875,0.21875
1696254385212,0.5058594,-0.21099854,-0.7788696,-0.078125,-0.515625,0.25
1696254385227,0.51123047,-0.21002197,-0.77545166,0.0,-0.59375,0.3125
1696254385247,0.51953125,-0.206604,-0.77545166,-0.21875,-0.421875,0.171875
1696254385287,0.5090332,-0.20904541,-0.77008057,0.03125,-0.125,0.125
1696254385328,0.5083008,-0.20758057,-0.77301025,0.15625,0.046875,0.34375
1696254385367,0.5119629,-0.20880127,-0.7769165,0.046875,-0.1875,-0.09375
1696254385408,0.50683594,-0.2131958,-0.77471924,0.0,-0.46875,0.015625
1696254385449,0.5048828,-0.21026611,-0.77911377,-0.015625,-1.3125,0.25
1696254385486,0.5095215,-0.20391846,-0.76226807,0.328125,-1.90625,0.4375
1696254385527,0.51220703,-0.20709229,-0.7739868,-0.078125,-2.0625,0.140625
1696254385567,0.52905273,-0.21466064,-0.7744751,-0.609375,-1.734375,-0.09375
1696254385608,0.5144043,-0.20904541,-0.77008057,-0.390625,-1.0,0.09375
1696254385669,0.5136719,-0.20733643,-0.76934814,-0.203125,-0.578125,0.21875
1696254385686,0.52075195,-0.21661377,-0.7727661,-0.359375,-0.21875,0.140625
1696254385730,0.52197266,-0.2107544,-0.77008057,-0.0625,-0.09375,0.28125
1696254385768,0.5202637,-0.21026611,-0.7774048,-0.125,-0.140625,0.125
1696254385809,0.51538086,-0.21099854,-0.7686157,-0.25,-0.421875,0.09375
1696254385848,0.5185547,-0.21026611,-0.7732544,-0.203125,-0.46875,0.09375
1696254385887,0.51953125,-0.20855713,-0.7703247,-0.046875,-0.453125,0.1875
1696254385928,0.5168457,-0.20904541,-0.7617798,-0.140625,-0.59375,0.234375
1696254385967,0.52001953,-0.20709229,-0.77960205,-0.203125,-0.4375,0.171875
1696254386007,0.51660156,-0.20758057,-0.76885986,-0.21875,-0.671875,0.140625
1696254386047,0.5192871,-0.21295166,-0.7715454,-0.34375,-0.484375,0.265625
1696254386089,0.5144043,-0.21588135,-0.7698364,-0.265625,-0.1875,0.109375
1696254386150,0.51464844,-0.2107544,-0.772522,-0.296875,-0.078125,0.140625
1696254386187,0.5124512,-0.21588135,-0.7632446,-0.125,-0.015625,0.1875
1696254386227,0.5148926,-0.21392822,-0.7798462,-0.1875,-0.125,0.171875
1696254386268,0.51416016,-0.2156372,-0.7788696,-0.28125,-0.125,0.28125
1696254386287,0.5085449,-0.21490479,-0.77008057,-0.296875,-0.171875,0.203125
1696254386328,0.5192871,-0.21124268,-0.77545166,-0.15625,-0.21875,0.390625
1696254386368,0.50878906,-0.21124268,-0.77008057,0.015625,-0.140625,0.203125
1696254386409,0.5175781,-0.20562744,-0.76519775,-0.09375,-0.453125,0.0625
1696254386451,0.51000977,-0.21051025,-0.7686157,0.015625,-0.546875,0.125
1696254386487,0.5168457,-0.21514893,-0.7727661,0.0,-0.78125,0.203125
1696254386529,0.51708984,-0.20709229,-0.7732544,0.140625,-1.234375,0.234375
1696254386548,0.51342773,-0.21368408,-0.7695923,0.3125,-1.421875,0.390625
1696254386587,0.5107422,-0.20465088,-0.77008057,0.125,-1.8125,0.171875
1696254386628,0.52319336,-0.21270752,-0.7715454,0.15625,-2.09375,0.203125
1696254386669,0.5319824,-0.21099854,-0.77130127,-0.21875,-2.046875,0.0625
1696254386708,0.5241699,-0.2107544,-0.7695923,-0.5,-1.171875,-0.125
1696254386748,0.5263672,-0.20928955,-0.76568604,-0.5,-0.671875,-0.09375
1696254386787,0.5168457,-0.20977783,-0.7637329,-0.375,-0.453125,0.03125
1696254386829,0.52490234,-0.20928955,-0.7654419,-0.5,-0.75,0.203125
1696254386870,0.51586914,-0.2078247,-0.7608032,-0.140625,-0.546875,0.265625
1696254386907,0.5222168,-0.21490479,-0.7703247,-0.15625,-0.390625,0.296875
1696254386947,0.5222168,-0.21173096,-0.7666626,-0.359375,-0.25,0.15625
1696254386989,0.52856445,-0.2131958,-0.770813,-0.15625,0.015625,0.09375
1696254387027,0.52319336,-0.21636963,-0.7695923,-0.34375,-0.046875,0.078125
1696254387067,0.51342773,-0.21343994,-0.76104736,-0.03125,-0.296875,0.390625
1696254387106,0.5229492,-0.21685791,-0.7595825,-0.078125,-0.3125,0.15625
1696254387149,0.5222168,-0.20806885,-0.76812744,-0.28125,-0.4375,0.125
1696254387188,0.52197266,-0.21661377,-0.77423096,-0.125,-0.421875,0.234375
1696254387227,0.51953125,-0.20977783,-0.7647095,0.21875,-0.1875,0.3125
1696254387267,0.5229492,-0.21270752,-0.7642212,0.15625,-0.28125,0.390625
1696254387307,0.52319336,-0.21417236,-0.76812744,-0.125,0.15625,0.265625
1696254387347,0.5263672,-0.21221924,-0.77716064,-0.390625,0.15625,0.0625
1696254387387,0.52246094,-0.21417236,-0.77178955,-0.375,-0.09375,0.109375
1696254387429,0.51904297,-0.22076416,-0.76519775,-0.25,-0.046875,0.328125
1696254387468,0.513916,-0.22174072,-0.7703247,-0.1875,0.15625,0.15625
1696254387508,0.5239258,-0.21759033,-0.7649536,0.328125,0.0625,0.359375
1696254387547,0.515625,-0.21026611,-0.75860596,0.765625,-0.1875,0.375
1696254387588,0.51904297,-0.21051025,-0.7695923,0.265625,0.078125,0.21875
1696254387628,0.52001953,-0.2131958,-0.7715454,-0.203125,0.3125,0.078125
1696254387667,0.5217285,-0.21612549,-0.770813,-0.046875,-0.1875,0.140625
1696254387708,0.5151367,-0.21026611,-0.7710571,0.015625,-0.234375,0.03125
1696254387750,0.51342773,-0.2078247,-0.76885986,-0.421875,-0.5625,-0.046875
1696254387789,0.5144043,-0.20635986,-0.7715454,-0.578125,-0.71875,-0.09375
1696254387871,0.52075195,-0.21685791,-0.7698364,-0.328125,-0.875,-0.03125
1696254387874,0.51342773,-0.20953369,-0.7625122,0.34375,-1.515625,0.125
1696254387887,0.52856445,-0.20977783,-0.7769165,-0.15625,-1.34375,0.15625
1696254387970,0.5275879,-0.21173096,-0.77667236,-0.09375,-1.015625,0.0625
1696254387973,0.5239258,-0.21661377,-0.7649536,-0.0625,-0.578125,0.203125
1696254388008,0.5197754,-0.21051025,-0.7632446,0.0,-0.4375,0.140625
1696254388048,0.51782227,-0.21099854,-0.7642212,-0.28125,-0.609375,0.125
1696254388090,0.5202637,-0.21588135,-0.7727661,-0.203125,-0.625,0.25
1696254388128,0.52246094,-0.2156372,-0.7600708,-0.09375,-0.40625,0.3125
1696254388168,0.52075195,-0.20977783,-0.77423096,-0.203125,-0.4375,0.0625
1696254388211,0.5217285,-0.20880127,-0.7698364,-0.21875,-0.484375,0.171875
1696254388247,0.5185547,-0.2144165,-0.7671509,-0.109375,-0.546875,0.0625
1696254388287,0.51586914,-0.21221924,-0.76446533,0.0,-0.453125,0.328125
1696254388327,0.5205078,-0.21417236,-0.7666626,-0.0625,-0.3125,0.421875
1696254388367,0.51831055,-0.21173096,-0.770813,-0.078125,-0.25,0.234375
1696254388409,0.52368164,-0.2119751,-0.77130127,-0.25,-0.375,0.078125
1696254388448,0.52197266,-0.21246338,-0.7703247,-0.078125,-0.3125,0.15625
1696254388486,0.5187988,-0.21636963,-0.76690674,-0.140625,-0.1875,0.21875
1696254388528,0.51416016,-0.21099854,-0.77301025,-0.203125,-0.15625,0.203125
1696254388567,0.51220703,-0.20977783,-0.76348877,-0.40625,-0.359375,0.125
1696254388609,0.5180664,-0.20758057,-0.76397705,0.078125,-0.25,0.34375
1696254388647,0.52001953,-0.21490479,-0.76275635,-0.171875,-0.34375,0.34375
1696254388686,0.5202637,-0.21685791,-0.7752075,-0.234375,0.203125,0.21875
1696254388726,0.51342773,-0.21636963,-0.770813,0.109375,0.5625,0.359375
1696254388767,0.5168457,-0.21173096,-0.7683716,0.546875,0.546875,0.140625
1696254388809,0.51538086,-0.21270752,-0.7666626,1.1875,1.0,0.296875
1696254388848,0.513916,-0.20855713,-0.77789307,1.265625,1.3125,0.1875
1696254388887,0.49951172,-0.21099854,-0.77178955,1.0625,1.40625,0.203125
1696254388927,0.5058594,-0.21026611,-0.78082275,0.75,1.21875,0.171875
1696254388967,0.49951172,-0.20147705,-0.77349854,0.609375,1.265625,0.015625
1696254389009,0.5029297,-0.20050049,-0.7815552,0.21875,0.578125,0.0625
1696254389068,0.50341797,-0.2041626,-0.7822876,-0.359375,0.0,-0.125
1696254389086,0.49951172,-0.19903564,-0.78497314,-0.609375,-1.515625,0.09375
1696254389149,0.5004883,-0.20831299,-0.77838135,-0.375,-2.6875,0.03125
1696254389167,0.5090332,-0.20611572,-0.7703247,-0.625,-3.859375,0.1875
1696254389188,0.51708984,-0.21368408,-0.77911377,-0.9375,-2.71875,-0.015625
1696254389228,0.5161133,-0.20733643,-0.770813,-0.59375,-1.484375,0.265625
1696254389268,0.5175781,-0.20391846,-0.7683716,-0.3125,-0.203125,0.234375
1696254389308,0.5102539,-0.20343018,-0.76568604,-0.5,0.125,0.09375
1696254389346,0.51660156,-0.20513916,-0.7720337,-0.25,0.015625,0.15625
1696254389389,0.5180664,-0.21392822,-0.77593994,-0.125,0.0,0.1875
1696254389427,0.51049805,-0.20709229,-0.7678833,-0.046875,-0.125,0.09375
1696254389469,0.50756836,-0.20587158,-0.767395,-0.0625,-0.265625,0.171875
1696254389508,0.51586914,-0.20928955,-0.76934814,-0.015625,-0.484375,0.078125
1696254389548,0.5097656,-0.2041626,-0.7739868,0.21875,-0.8125,0.203125
1696254389587,0.5119629,-0.21051025,-0.770813,-0.15625,-0.546875,0.078125
1696254389627,0.5126953,-0.2144165,-0.7637329,-0.171875,-0.359375,0.25
1696254389668,0.5161133,-0.20758057,-0.77423096,-0.15625,-0.296875,0.140625
1696254389707,0.5119629,-0.21051025,-0.7737427,-0.25,-0.40625,0.109375
1696254389747,0.51220703,-0.2053833,-0.7683716,-0.40625,-0.453125,0.109375
1696254389788,0.51708984,-0.21124268,-0.7695923,-0.328125,-0.390625,0.125
1696254389827,0.5131836,-0.21490479,-0.77301025,-0.078125,-0.453125,0.203125
1696254389869,0.5239258,-0.21002197,-0.7737427,0.140625,-0.25,0.203125
1696254389908,0.5114746,-0.20806885,-0.76641846,0.109375,-0.21875,0.203125
1696254389947,0.50756836,-0.2131958,-0.77545166,0.265625,0.015625,0.046875
1696254389990,0.50683594,-0.21099854,-0.77423096,-0.109375,-0.171875,-0.078125
1696254390028,0.5126953,-0.20831299,-0.78009033,-0.390625,-0.703125,0.078125
1696254390074,0.5124512,-0.20928955,-0.76446533,0.21875,-0.640625,0.25
1696254390111,0.5163574,-0.2107544,-0.77227783,0.109375,-0.578125,0.375
1696254390148,0.5197754,-0.20684814,-0.7739868,-0.140625,-0.21875,0.3125
1696254390190,0.5151367,-0.20172119,-0.7744751,0.171875,-0.1875,0.15625
1696254390229,0.5197754,-0.21392822,-0.7732544,0.109375,0.0625,0.203125
1696254390269,0.51464844,-0.2041626,-0.77056885,0.109375,0.015625,0.265625
1696254390309,0.5114746,-0.206604,-0.76763916,0.1875,0.03125,0.28125
1696254390348,0.51171875,-0.20635986,-0.7774048,-0.0625,-0.015625,0.40625
1696254390392,0.50805664,-0.20880127,-0.77911377,0.109375,-0.390625,0.265625
1696254390428,0.5144043,-0.21368408,-0.77130127,-0.25,-0.265625,0.15625
1696254390468,0.5109863,-0.20367432,-0.7749634,-0.15625,-0.390625,0.03125
1696254390486,0.5073242,-0.21002197,-0.76934814,-0.078125,-0.53125,0.234375
1696254390529,0.5114746,-0.20562744,-0.772522,0.046875,-0.265625,0.34375
1696254390589,0.5126953,-0.21173096,-0.77178955,0.046875,-0.203125,0.421875
1696254390606,0.5083008,-0.21026611,-0.7756958,0.125,-0.109375,0.328125
1696254390649,0.5041504,-0.2029419,-0.7625122,0.375,-1.25,0.296875
1696254390709,0.5168457,-0.20343018,-0.7876587,0.609375,-1.09375,0.484375
1696254390728,0.5151367,-0.20709229,-0.77716064,0.1875,-0.640625,0.359375
1696254390790,0.51049805,-0.19952393,-0.77349854,0.0,-0.8125,0.28125
1696254390807,0.5031738,-0.2041626,-0.7774048,0.0,-1.0625,0.125
1696254390870,0.51342773,-0.20343018,-0.77349854,-0.203125,-1.484375,-0.03125
1696254390887,0.5205078,-0.20196533,-0.772522,-0.34375,-1.875,-0.09375
1696254390929,0.5161133,-0.206604,-0.7756958,-0.578125,-1.5,-0.140625
1696254390968,0.51782227,-0.20904541,-0.77423096,-0.609375,-0.703125,-0.109375
1696254391007,0.5251465,-0.2131958,-0.76446533,-0.640625,-0.265625,-0.078125
1696254391049,0.5180664,-0.2053833,-0.7647095,-0.375,-0.546875,0.140625
1696254391088,0.5187988,-0.21099854,-0.76397705,-0.40625,-0.390625,0.109375
1696254391127,0.5234375,-0.20928955,-0.77301025,-0.296875,-0.25,0.015625
1696254391167,0.51586914,-0.21343994,-0.7764282,-0.015625,-0.359375,0.28125
1696254391209,0.5163574,-0.20928955,-0.7786255,-0.3125,-0.578125,0.203125
1696254391269,0.5205078,-0.20904541,-0.77716064,-0.03125,-0.375,0.296875
1696254391286,0.5148926,-0.2078247,-0.7617798,0.078125,-0.25,0.1875
1696254391330,0.51342773,-0.21343994,-0.7671509,-0.0625,-0.5,0.265625
1696254391367,0.51953125,-0.21099854,-0.77227783,-0.25,-0.5625,0.109375
1696254391408,0.5187988,-0.21099854,-0.77178955,0.03125,-0.25,0.3125
1696254391449,0.5168457,-0.21099854,-0.77301025,-0.140625,-0.203125,0.203125
1696254391488,0.5263672,-0.206604,-0.7678833,0.03125,-0.28125,0.296875
1696254391527,0.51464844,-0.21343994,-0.77301025,0.046875,-0.3125,0.25
1696254391591,0.515625,-0.206604,-0.770813,-0.1875,-0.171875,0.140625
1696254391609,0.5114746,-0.21051025,-0.7710571,-0.234375,-0.015625,0.265625
1696254391648,0.51464844,-0.20977783,-0.76446533,-0.125,-0.21875,0.0625
1696254391689,0.5214844,-0.20684814,-0.77960205,-0.4375,0.171875,0.0
1696254391728,0.5097656,-0.2119751,-0.7698364,0.15625,0.125,0.21875
1696254391767,0.51538086,-0.206604,-0.7749634,0.359375,0.28125,0.203125
1696254391786,0.5102539,-0.21026611,-0.7695923,0.34375,0.359375,0.171875
1696254391828,0.50439453,-0.20465088,-0.767395,0.671875,0.578125,0.203125
1696254391867,0.50561523,-0.20513916,-0.7625122,1.9375,1.6875,0.359375
1696254391908,0.5131836,-0.2000122,-0.7854614,0.875,0.828125,-0.046875
1696254391948,0.5073242,-0.20391846,-0.7835083,0.203125,0.453125,-0.3125
1696254391987,0.49560547,-0.19708252,-0.7839966,-0.421875,0.296875,-0.25
1696254392028,0.5029297,-0.20050049,-0.7852173,-0.703125,-0.390625,-0.25
1696254392067,0.50561523,-0.21124268,-0.77789307,-0.78125,-0.5625,0.0
1696254392107,0.4987793,-0.206604,-0.7842407,-0.875,-0.796875,-0.03125
1696254392150,0.50561523,-0.21002197,-0.77667236,-0.75,-1.375,0.078125
1696254392189,0.50512695,-0.2131958,-0.7866821,-0.34375,-1.84375,0.203125
1696254392229,0.51416016,-0.2107544,-0.7776489,-0.15625,-1.734375,0.4375
1696254392268,0.5144043,-0.20391846,-0.76885986,-0.125,-1.078125,0.359375
1696254392307,0.51220703,-0.20635986,-0.770813,-0.109375,-0.703125,0.28125
1696254392347,0.51342773,-0.20855713,-0.7617798,-0.015625,-0.359375,0.21875
1696254392387,0.51953125,-0.21173096,-0.77789307,-0.390625,-0.28125,0.03125
1696254392427,0.51660156,-0.21026611,-0.7727661,-0.09375,-0.03125,0.109375
1696254392468,0.5090332,-0.2131958,-0.77911377,0.21875,0.078125,0.3125
1696254392507,0.5046387,-0.2144165,-0.7752075,0.046875,-0.09375,0.265625
1696254392547,0.5078125,-0.21221924,-0.77716064,-0.03125,-0.34375,0.171875
1696254392588,0.5095215,-0.20074463,-0.77227783,-0.1875,-0.203125,0.0625
1696254392629,0.5085449,-0.20220947,-0.7781372,-0.4375,-0.296875,0.015625
1696254392667,0.5107422,-0.2119751,-0.77960205,-0.328125,-0.53125,0.109375
1696254392710,0.50561523,-0.21221924,-0.7686157,0.125,-0.515625,0.171875
1696254392748,0.5070801,-0.206604,-0.78082275,-0.296875,-0.671875,0.140625
1696254392788,0.5083008,-0.20269775,-0.767395,0.078125,-0.4375,0.375
1696254392827,0.5136719,-0.20611572,-0.77838135,-0.140625,-0.4375,0.109375
1696254392867,0.51123047,-0.206604,-0.76885986,-0.046875,-0.46875,0.203125
1696254392907,0.51538086,-0.20855713,-0.77911377,-0.28125,-0.453125,-0.0625
1696254392948,0.5083008,-0.20953369,-0.76641846,-0.09375,-0.375,0.125
1696254392988,0.5144043,-0.20880127,-0.77789307,-0.046875,-0.59375,0.28125
1696254393027,0.51464844,-0.206604,-0.7788696,-0.078125,-1.125,0.171875
1696254393068,0.51220703,-0.20172119,-0.772522,0.0,-0.859375,0.25
1696254393108,0.51171875,-0.21246338,-0.7720337,-0.1875,-0.453125,0.171875
1696254393127,0.51464844,-0.20855713,-0.78131104,-0.09375,-0.421875,0.171875
1696254393169,0.5109863,-0.2041626,-0.7737427,-0.078125,-0.28125,0.09375
1696254393211,0.5078125,-0.21466064,-0.77056885,-0.140625,-0.390625,0.203125
1696254393250,0.5073242,-0.20758057,-0.7654419,-0.203125,-0.015625,0.1875
1696254393290,0.5114746,-0.21148682,-0.7661743,-0.28125,-0.4375,0.0
1696254393347,0.5114746,-0.21026611,-0.77423096,-0.03125,-0.484375,0.3125
1696254393389,0.51123047,-0.21148682,-0.77960205,-0.09375,-0.53125,0.265625
1696254393428,0.51293945,-0.20855713,-0.7752075,-0.09375,-0.515625,0.234375
1696254393446,0.51123047,-0.21148682,-0.77423096,-0.375,-0.4375,0.0625
1696254393489,0.50512695,-0.2041626,-0.7698364,0.0,-0.296875,0.109375
1696254393551,0.52075195,-0.2107544,-0.78009033,-0.671875,-0.234375,-0.15625
1696254393567,0.5090332,-0.20733643,-0.77008057,-0.28125,-0.1875,0.21875
1696254393608,0.5214844,-0.20880127,-0.78692627,-0.390625,-0.171875,0.125
1696254393651,0.5126953,-0.2185669,-0.78082275,-0.234375,-0.640625,0.09375
1696254393708,0.5019531,-0.21173096,-0.7854614,-0.09375,-0.375,0.203125
1696254393728,0.51342773,-0.21270752,-0.77301025,0.109375,-0.171875,0.15625
1696254393769,0.5065918,-0.21173096,-0.7827759,0.109375,-0.25,0.28125
1696254393811,0.5085449,-0.21612549,-0.76885986,0.03125,-0.9375,0.34375
1696254393850,0.5214844,-0.20806885,-0.77789307,0.046875,-0.328125,0.140625
1696254393888,0.50683594,-0.20318604,-0.7752075,-0.296875,-0.546875,0.125
1696254393928,0.51831055,-0.20733643,-0.77593994,-0.34375,-0.640625,-0.109375
1696254393969,0.51342773,-0.20977783,-0.77349854,-0.140625,-0.296875,0.109375
1696254394008,0.5126953,-0.21368408,-0.7752075,-0.015625,-0.421875,0.28125
1696254394049,0.5131836,-0.20855713,-0.7761841,-0.03125,-0.359375,0.1875
1696254394088,0.5029297,-0.20513916,-0.7678833,0.25,-0.25,0.328125
1696254394132,0.51000977,-0.20831299,-0.7793579,0.328125,-0.5,0.40625
1696254394165,0.5114746,-0.20758057,-0.7774048,0.0,-0.484375,0.265625
1696254394208,0.51782227,-0.21417236,-0.7732544,-0.09375,-0.4375,0.171875
1696254394248,0.50756836,-0.20880127,-0.77008057,-0.09375,-0.34375,0.171875
1696254394286,0.5097656,-0.21392822,-0.7764282,-0.328125,-0.203125,0.203125
1696254394328,0.5095215,-0.20758057,-0.76275635,-0.078125,-0.0625,0.203125
1696254394370,0.5090332,-0.21417236,-0.7720337,0.015625,-0.15625,0.15625
1696254394429,0.5085449,-0.20880127,-0.7761841,0.140625,-0.140625,0.234375
1696254394431,0.50683594,-0.20684814,-0.7781372,0.296875,-0.328125,0.40625
1696254394468,0.5090332,-0.20831299,-0.7781372,0.3125,-0.125,0.171875
1696254394508,0.5090332,-0.2029419,-0.77911377,0.328125,0.1875,-0.015625
1696254394549,0.5083008,-0.20196533,-0.7727661,0.21875,0.359375,-0.078125
1696254394591,0.5024414,-0.20758057,-0.772522,0.0625,0.21875,-0.109375
1696254394628,0.50634766,-0.21002197,-0.77667236,0.046875,0.4375,0.0
1696254394669,0.50219727,-0.20635986,-0.77960205,-0.046875,0.40625,0.0625
1696254394710,0.5019531,-0.21026611,-0.7788696,-0.140625,-0.125,0.09375
1696254394749,0.5036621,-0.21295166,-0.7776489,-0.28125,-0.453125,0.09375
1696254394789,0.5083008,-0.20196533,-0.78009033,-0.640625,-1.6875,0.109375
1696254394827,0.5061035,-0.20953369,-0.78131104,-0.21875,-1.65625,0.296875
1696254394870,0.5053711,-0.20587158,-0.7756958,-0.203125,-1.890625,0.4375
1696254394909,0.5061035,-0.20172119,-0.7769165,-0.515625,-1.65625,0.109375
1696254394948,0.5131836,-0.20709229,-0.77667236,-0.328125,-0.9375,-0.125
1696254394987,0.5058594,-0.20391846,-0.770813,-0.21875,-0.609375,0.03125
1696254395028,0.5083008,-0.20611572,-0.7744751,-0.234375,-0.40625,0.171875
1696254395067,0.5222168,-0.2000122,-0.78009033,-0.328125,-0.390625,0.140625
1696254395107,0.49682617,-0.20562744,-0.76348877,0.4375,-0.1875,0.578125
1696254395149,0.50805664,-0.21148682,-0.77789307,0.515625,-0.328125,0.46875
1696254395189,0.5102539,-0.19854736,-0.7666626,-0.28125,-0.015625,-0.015625
1696254395227,0.51660156,-0.20880127,-0.7786255,-0.453125,0.234375,-0.203125
1696254395268,0.51049805,-0.20831299,-0.78253174,-0.375,0.078125,-0.109375
1696254395308,0.5031738,-0.21270752,-0.7737427,-0.109375,-0.09375,0.265625
1696254395349,0.5095215,-0.20709229,-0.7732544,0.15625,-0.53125,0.484375
1696254395387,0.5083008,-0.21099854,-0.772522,0.09375,-0.828125,0.5
1696254395427,0.5161133,-0.20611572,-0.772522,0.0,-0.96875,0.296875
1696254395468,0.513916,-0.21343994,-0.76885986,-0.140625,-0.578125,0.3125
1696254395509,0.51293945,-0.21295166,-0.77471924,0.0625,-0.390625,0.15625
1696254395547,0.51464844,-0.2041626,-0.772522,0.046875,-0.28125,0.109375
1696254395587,0.50512695,-0.2078247,-0.7710571,0.09375,-0.109375,0.109375
1696254395629,0.50024414,-0.21221924,-0.77471924,0.03125,-0.046875,0.359375
1696254395667,0.49902344,-0.21026611,-0.76763916,0.328125,-0.046875,0.515625
1696254395709,0.50756836,-0.20758057,-0.77178955,0.125,-0.265625,0.296875
1696254395727,0.513916,-0.21173096,-0.7817993,-0.046875,-0.390625,0.15625
1696254395768,0.5114746,-0.20635986,-0.78326416,-0.15625,-0.546875,0.0625
1696254395809,0.5083008,-0.206604,-0.7744751,-0.203125,-0.578125,0.125
1696254395849,0.50756836,-0.20343018,-0.7788696,-0.453125,-0.671875,0.1875
1696254395887,0.50219727,-0.20343018,-0.77301025,-0.234375,-0.59375,0.234375
1696254395950,0.5109863,-0.2078247,-0.7798462,-0.34375,-0.9375,0.171875
1696254395966,0.5065918,-0.20684814,-0.77545166,-0.34375,-0.640625,0.171875
1696254396010,0.5053711,-0.20220947,-0.7720337,-0.171875,-0.75,0.28125
1696254396050,0.5073242,-0.21099854,-0.770813,0.21875,-1.328125,0.171875
1696254396089,0.5119629,-0.20611572,-0.77911377,0.171875,-2.0625,0.296875
1696254396129,0.5239258,-0.20587158,-0.7727661,-0.375,-2.15625,0.03125
1696254396168,0.5253906,-0.2119751,-0.7839966,-0.640625,-2.203125,0.0625
1696254396207,0.5161133,-0.20904541,-0.76275635,-0.328125,-1.203125,0.1875
1696254396271,0.51660156,-0.21173096,-0.7647095,-0.328125,-0.640625,0.125
1696254396289,0.5102539,-0.20391846,-0.76641846,-0.234375,-0.5,0.234375
1696254396327,0.51708984,-0.20831299,-0.7637329,-0.46875,-1.078125,0.0625
1696254396389,0.51953125,-0.20489502,-0.767395,-0.546875,-1.078125,0.015625
1696254396407,0.5239258,-0.20123291,-0.7720337,-0.625,-0.625,-0.109375
1696254396447,0.515625,-0.21417236,-0.7632446,-0.390625,-0.5,0.078125
1696254396489,0.517334,-0.21392822,-0.7608032,-0.34375,-0.71875,0.03125
1696254396528,0.51660156,-0.21392822,-0.7595825,0.046875,-0.640625,0.5
1696254396567,0.5163574,-0.20928955,-0.76275635,0.203125,-0.21875,0.296875
1696254396608,0.5251465,-0.20513916,-0.7686157,0.078125,-0.015625,0.28125
1696254396647,0.5217285,-0.2078247,-0.7737427,-0.171875,0.28125,0.09375
1696254396710,0.5148926,-0.21343994,-0.7654419,-0.296875,0.625,0.015625
1696254396726,0.52075195,-0.21051025,-0.769104,-0.3125,0.40625,0.1875
1696254396768,0.5148926,-0.21636963,-0.770813,-0.15625,-0.21875,0.15625
1696254396809,0.52001953,-0.21002197,-0.7683716,0.1875,-0.34375,0.21875
1696254396848,0.5197754,-0.21002197,-0.770813,0.125,-0.234375,0.171875
1696254396889,0.52075195,-0.21490479,-0.7654419,0.0,0.03125,0.203125
1696254396929,0.50683594,-0.21514893,-0.7666626,0.390625,0.046875,0.359375
1696254396968,0.51953125,-0.20269775,-0.772522,0.6875,0.265625,0.3125
1696254397010,0.51000977,-0.20733643,-0.7703247,0.390625,0.40625,0.109375
1696254397069,0.513916,-0.21051025,-0.7703247,0.40625,0.46875,0.09375
1696254397072,0.51220703,-0.20562744,-0.7786255,0.265625,0.640625,0.125
1696254397107,0.5048828,-0.20758057,-0.77178955,0.21875,0.671875,0.03125
1696254397148,0.50341797,-0.20440674,-0.77349854,0.0,0.734375,-0.046875
1696254397189,0.5048828,-0.20513916,-0.77716064,-0.125,0.515625,-0.03125
1696254397229,0.5048828,-0.20855713,-0.77789307,-0.046875,0.0625,0.0625
1696254397268,0.50561523,-0.20587158,-0.77423096,0.078125,0.453125,-0.03125
1696254397309,0.5046387,-0.20709229,-0.7822876,0.265625,0.1875,0.0625
1696254397349,0.5053711,-0.206604,-0.78326416,-0.078125,-0.265625,0.15625
1696254397389,0.5053711,-0.20709229,-0.78326416,-0.34375,-0.21875,0.0
1696254397428,0.5004883,-0.20220947,-0.77960205,-0.25,-0.46875,0.125
1696254397470,0.5004883,-0.206604,-0.77667236,-0.3125,-0.609375,0.03125
1696254397511,0.5024414,-0.21148682,-0.772522,-0.078125,-1.921875,0.25
1696254397549,0.501709,-0.2144165,-0.7764282,0.03125,-2.453125,0.40625
1696254397589,0.515625,-0.20611572,-0.7710571,0.0625,-1.515625,0.359375
1696254397629,0.5102539,-0.2029419,-0.76397705,0.015625,-0.625,0.328125
1696254397669,0.52001953,-0.21099854,-0.769104,-0.21875,-0.21875,0.046875
1696254397709,0.5097656,-0.21002197,-0.7866821,-0.328125,-0.078125,0.03125
1696254397747,0.51123047,-0.20709229,-0.77349854,-0.484375,0.09375,0.125
1696254397788,0.50390625,-0.20123291,-0.76885986,-0.25,-0.21875,0.234375
1696254397827,0.52075195,-0.21221924,-0.7774048,-0.046875,-0.140625,0.21875
1696254397868,0.5090332,-0.20684814,-0.7659302,0.203125,-0.25,0.171875
1696254397907,0.50805664,-0.20050049,-0.77130127,0.0,-0.28125,0.28125
1696254397948,0.5061035,-0.20025635,-0.7739868,-0.09375,-0.34375,0.171875
1696254397990,0.50634766,-0.21246338,-0.7756958,0.171875,-0.5,0.265625
1696254398027,0.5097656,-0.2078247,-0.76763916,-0.078125,-0.609375,0.140625
1696254398069,0.50561523,-0.21246338,-0.7749634,0.046875,-0.21875,0.171875
1696254398110,0.51342773,-0.20928955,-0.770813,-0.140625,-0.21875,0.046875
1696254398148,0.5090332,-0.206604,-0.77227783,0.265625,-0.359375,0.296875
1696254398189,0.5065918,-0.20391846,-0.7727661,-0.0625,-0.28125,0.125
1696254398227,0.5095215,-0.20318604,-0.7774048,-0.03125,-0.34375,0.171875
1696254398269,0.51000977,-0.20367432,-0.77960205,-0.15625,-0.421875,0.015625
1696254398309,0.5085449,-0.21051025,-0.7764282,-0.03125,-0.34375,0.0625
1696254398369,0.5073242,-0.20733643,-0.7671509,-0.1875,-0.484375,0.265625
1696254398388,0.5109863,-0.20953369,-0.7703247,-0.125,-0.515625,0.21875
1696254398408,0.50927734,-0.2131958,-0.7781372,-0.15625,-0.421875,0.046875
1696254398448,0.50512695,-0.2144165,-0.78009033,-0.125,-0.578125,0.21875
1696254398489,0.5053711,-0.20562744,-0.7781372,-0.109375,-0.515625,0.21875
1696254398531,0.5095215,-0.20880127,-0.7810669,-0.296875,-0.515625,0.0625
1696254398568,0.50439453,-0.20635986,-0.7769165,-0.203125,-0.359375,0.15625
1696254398631,0.51220703,-0.21368408,-0.77349854,-0.21875,-0.53125,0.125
1696254398649,0.50146484,-0.20562744,-0.7752075,-0.25,-0.359375,0.15625
1696254398689,0.51342773,-0.20977783,-0.7739868,0.03125,-0.3125,0.140625
1696254398728,0.5131836,-0.21124268,-0.7737427,-0.078125,-0.5,0.1875
1696254398790,0.5161133,-0.20489502,-0.77716064,-0.25,-0.328125,0.140625
1696254398830,0.5048828,-0.20269775,-0.76885986,0.21875,-0.578125,0.296875
1696254398849,0.5175781,-0.21588135,-0.7720337,-0.109375,-0.234375,0.140625
1696254398889,0.5109863,-0.21026611,-0.77423096,-0.09375,-0.375,0.203125
1696254398930,0.51416016,-0.20806885,-0.76446533,-0.0625,-0.59375,0.15625
1696254398967,0.51171875,-0.20611572,-0.7720337,-0.03125,-0.46875,0.03125
1696254399008,0.5046387,-0.20928955,-0.7756958,-0.125,-0.5625,0.078125
1696254399051,0.5144043,-0.21343994,-0.7732544,-0.28125,-0.484375,-0.03125
1696254399088,0.50805664,-0.20611572,-0.7666626,-0.078125,-0.375,0.0625
1696254399131,0.51660156,-0.20977783,-0.7752075,0.03125,-0.84375,0.09375
1696254399168,0.5073242,-0.21173096,-0.7710571,-0.046875,-0.75,0.21875
1696254399231,0.5144043,-0.2131958,-0.7752075,-0.125,-0.609375,0.1875
1696254399246,0.51293945,-0.21026611,-0.772522,-0.28125,-0.5,0.21875
1696254399289,0.51708984,-0.21026611,-0.7683716,0.15625,-0.421875,0.203125
1696254399330,0.5073242,-0.20489502,-0.76348877,0.234375,-0.390625,0.328125
1696254399368,0.5136719,-0.20855713,-0.78253174,-0.296875,0.109375,0.171875
1696254399409,0.5070801,-0.20831299,-0.7732544,-0.46875,-0.03125,-0.015625
1696254399449,0.5126953,-0.20709229,-0.7752075,-0.25,-0.421875,-0.046875
1696254399490,0.5048828,-0.20831299,-0.7637329,-0.25,-0.421875,0.09375
1696254399551,0.5114746,-0.20684814,-0.78009033,-0.03125,-0.40625,0.09375
1696254399565,0.513916,-0.2107544,-0.77593994,0.015625,-0.28125,0.109375
1696254399610,0.5065918,-0.21295166,-0.77593994,0.109375,-0.203125,0.3125
1696254399666,0.51049805,-0.20635986,-0.77667236,-0.078125,0.03125,0.234375
1696254399686,0.5095215,-0.20733643,-0.7752075,0.25,-0.25,0.21875
1696254399708,0.5078125,-0.20733643,-0.7649536,0.46875,-0.1875,0.359375
1696254399749,0.5124512,-0.19732666,-0.7737427,-0.109375,-0.4375,0.203125
1696254399789,0.5097656,-0.20709229,-0.7769165,-0.359375,-0.625,-0.140625
1696254399829,0.51293945,-0.20880127,-0.78204346,-0.25,-0.828125,0.078125
1696254399866,0.5119629,-0.20562744,-0.7732544,-0.359375,-0.890625,-0.03125
1696254399911,0.5090332,-0.21539307,-0.77667236,-0.234375,-1.03125,0.03125
1696254399949,0.5175781,-0.20904541,-0.77423096,-0.109375,-0.53125,0.25
1696254399991,0.5114746,-0.20611572,-0.77178955,-0.078125,-0.546875,0.0
1696254400029,0.50878906,-0.20489502,-0.77227783,-0.078125,-0.625,0.0625
1696254400067,0.5095215,-0.2041626,-0.7620239,0.0,-1.078125,0.203125
1696254400108,0.5180664,-0.20709229,-0.7774048,-0.21875,-0.84375,0.125
1696254400149,0.5163574,-0.20587158,-0.77178955,-0.265625,-0.671875,0.203125
1696254400190,0.5131836,-0.20758057,-0.7749634,-0.140625,-0.75,0.0625
1696254400229,0.5187988,-0.20440674,-0.77008057,-0.140625,-0.546875,-0.015625
1696254400266,0.5131836,-0.21173096,-0.77056885,-0.15625,-0.546875,0.09375
1696254400308,0.5144043,-0.20855713,-0.7715454,-0.09375,-0.53125,0.03125
1696254400346,0.51831055,-0.20855713,-0.76885986,-0.234375,-0.34375,0.203125
1696254400388,0.51342773,-0.21246338,-0.770813,-0.125,-0.296875,0.328125
1696254400428,0.52001953,-0.21368408,-0.7715454,0.15625,-0.359375,0.25
1696254400468,0.5209961,-0.20709229,-0.7710571,0.0625,-0.625,0.1875
1696254400508,0.5202637,-0.21343994,-0.78009033,-0.296875,-0.46875,0.171875
1696254400548,0.52124023,-0.20733643,-0.7774048,-0.15625,-0.359375,0.21875
1696254400588,0.5085449,-0.21417236,-0.77008057,0.015625,-0.59375,0.40625
1696254400627,0.5180664,-0.21026611,-0.7683716,-0.140625,-0.71875,0.125
1696254400666,0.5251465,-0.20367432,-0.77178955,-0.25,-0.359375,0.171875
