# Sensor type: Respeck
# Activity type: Lying down on left
# Activity subtype: Talking
# Subject id: s2106809
# Notes: unprocessed
timestamp,accel_x,accel_y,accel_z,gyro_x,gyro_y,gyro_z
1696253895091,-0.41552734,-0.15997314,-0.86920166,-0.125,-0.390625,0.1875
1696253895131,-0.41992188,-0.16265869,-0.8726196,-0.09375,-0.390625,0.15625
1696253895171,-0.41625977,-0.15875244,-0.86676025,0.109375,-0.34375,0.265625
1696253895212,-0.41308594,-0.1572876,-0.8711548,-0.125,-0.328125,0.265625
1696253895251,-0.4128418,-0.16265869,-0.862854,-0.140625,-0.390625,0.015625
1696253895292,-0.42016602,-0.15826416,-0.8689575,-0.34375,-0.546875,0.234375
1696253895331,-0.4169922,-0.16168213,-0.86798096,-0.28125,-0.484375,0.265625
1696253895372,-0.41845703,-0.16070557,-0.85772705,-0.265625,-0.484375,0.140625
1696253895412,-0.42016602,-0.1651001,-0.8706665,-0.53125,-0.609375,0.15625
1696253895453,-0.40551758,-0.15924072,-0.8635864,-0.234375,-0.4375,0.265625
1696253895492,-0.41381836,-0.15435791,-0.8674927,-0.1875,-0.75,0.265625
1696253895532,-0.4128418,-0.15997314,-0.8772583,-0.421875,-0.546875,0.265625
1696253895574,-0.4086914,-0.16290283,-0.86602783,-0.375,-0.484375,0.28125
1696253895613,-0.41577148,-0.16461182,-0.8674927,-0.21875,-0.578125,-0.0625
1696253895654,-0.42016602,-0.16070557,-0.8706665,-0.421875,-0.421875,0.21875
1696253895693,-0.40966797,-0.16436768,-0.8713989,-0.328125,-0.765625,0.328125
1696253895733,-0.40966797,-0.15826416,-0.86920166,-0.25,-0.46875,0.3125
1696253895773,-0.40698242,-0.16802979,-0.86260986,-0.203125,-0.546875,0.171875
1696253895815,-0.4152832,-0.16802979,-0.87335205,-0.46875,-0.75,0.203125
1696253895853,-0.41601562,-0.16583252,-0.86968994,-0.296875,-0.5625,0.21875
1696253895892,-0.41088867,-0.16656494,-0.86920166,-0.328125,-0.625,0.25
1696253895932,-0.4104004,-0.1741333,-0.8648071,-0.140625,-0.46875,0.1875
1696253895972,-0.41381836,-0.1638794,-0.87457275,-0.171875,-0.5625,0.1875
1696253896013,-0.40722656,-0.1638794,-0.8682251,-0.0625,-0.546875,0.203125
1696253896052,-0.4038086,-0.16119385,-0.86260986,0.515625,-0.125,0.1875
1696253896093,-0.4099121,-0.16705322,-0.86553955,0.859375,-0.5,0.0
1696253896132,-0.41137695,-0.1651001,-0.87042236,0.9375,-0.609375,0.0625
1696253896214,-0.41430664,-0.16192627,-0.86968994,0.578125,-0.3125,0.09375
1696253896217,-0.4152832,-0.16168213,-0.8740845,-0.09375,-0.59375,0.109375
1696253896232,-0.40966797,-0.16314697,-0.8689575,0.03125,-0.140625,0.0625
1696253896314,-0.41210938,-0.15362549,-0.8689575,-0.234375,-0.375,0.21875
1696253896317,-0.40356445,-0.16046143,-0.8677368,-0.21875,-0.21875,0.15625
1696253896353,-0.4091797,-0.1651001,-0.87213135,-0.21875,-0.5625,0.265625
1696253896393,-0.41333008,-0.16436768,-0.8699341,0.015625,-0.1875,0.171875
1696253896433,-0.41357422,-0.15948486,-0.87042236,0.171875,-0.1875,0.21875
1696253896475,-0.41064453,-0.1638794,-0.86676025,-0.078125,-0.53125,0.15625
1696253896512,-0.41430664,-0.1687622,-0.8674927,0.078125,-0.78125,0.28125
1696253896553,-0.41088867,-0.16119385,-0.87286377,0.203125,-0.15625,-0.015625
1696253896592,-0.4111328,-0.1572876,-0.8699341,-0.109375,-0.296875,0.125
1696253896632,-0.4104004,-0.15655518,-0.8723755,-0.109375,-0.515625,0.375
1696253896692,-0.41430664,-0.16461182,-0.87091064,-0.140625,-0.296875,0.140625
1696253896712,-0.40527344,-0.16412354,-0.862854,0.09375,-0.0625,0.078125
1696253896754,-0.41333008,-0.15533447,-0.87091064,-0.140625,-0.171875,0.25
1696253896792,-0.40844727,-0.16192627,-0.8743286,0.03125,-0.28125,0.15625
1696253896833,-0.41210938,-0.1609497,-0.8723755,-0.171875,-0.421875,0.1875
1696253896875,-0.4116211,-0.1585083,-0.8687134,-0.21875,-0.375,0.09375
1696253896914,-0.4140625,-0.1572876,-0.8674927,0.28125,-0.234375,0.265625
1696253896953,-0.4111328,-0.15875244,-0.87286377,0.046875,-0.375,0.15625
1696253897014,-0.41674805,-0.16265869,-0.8689575,0.140625,-0.265625,0.09375
1696253897031,-0.41455078,-0.16168213,-0.86798096,-0.15625,-0.578125,0.15625
1696253897073,-0.41015625,-0.16778564,-0.8694458,0.015625,-0.375,0.1875
1696253897114,-0.40478516,-0.15679932,-0.86260986,-0.046875,-0.21875,0.109375
1696253897152,-0.41064453,-0.15582275,-0.8743286,-0.234375,-0.53125,0.078125
1696253897192,-0.42114258,-0.16363525,-0.8687134,0.03125,-0.484375,0.0625
1696253897232,-0.41235352,-0.16119385,-0.86846924,-0.265625,-0.234375,0.234375
1696253897272,-0.40795898,-0.1638794,-0.87286377,-0.640625,0.265625,0.21875
1696253897312,-0.41992188,-0.16680908,-0.87042236,-0.28125,0.078125,0.34375
1696253897352,-0.4111328,-0.15997314,-0.864563,-0.265625,-0.0625,0.265625
1696253897414,-0.41186523,-0.16290283,-0.86846924,-0.03125,-0.421875,0.203125
1696253897430,-0.41503906,-0.16461182,-0.8689575,-0.125,-0.5,-0.03125
1696253897491,-0.41381836,-0.15948486,-0.87384033,-0.125,-0.703125,0.234375
1696253897511,-0.41333008,-0.159729,-0.8687134,0.015625,-0.46875,0.109375
1696253897531,-0.41503906,-0.16119385,-0.8682251,0.171875,-0.1875,0.171875
1696253897572,-0.40844727,-0.16558838,-0.8731079,0.265625,-0.21875,0.03125
1696253897612,-0.41674805,-0.15655518,-0.8682251,0.21875,-0.15625,0.21875
1696253897653,-0.4182129,-0.15924072,-0.87457275,0.015625,0.125,0.25
1696253897694,-0.4165039,-0.15924072,-0.86724854,0.15625,0.078125,0.0625
1696253897732,-0.41601562,-0.16265869,-0.87457275,-0.015625,-0.1875,0.03125
1696253897773,-0.4177246,-0.1572876,-0.8623657,-0.03125,-0.046875,0.28125
1696253897813,-0.42163086,-0.15924072,-0.8677368,0.140625,-0.390625,0.0
1696253897852,-0.41333008,-0.16290283,-0.8689575,0.015625,-0.21875,0.0625
1696253897893,-0.42456055,-0.15704346,-0.87457275,-0.0625,-0.34375,0.109375
1696253897933,-0.4165039,-0.16558838,-0.87164307,-0.21875,-0.453125,0.15625
1696253897973,-0.41577148,-0.16412354,-0.86309814,0.125,-0.34375,0.125
1696253898014,-0.41625977,-0.15777588,-0.87213135,0.796875,-0.046875,0.125
1696253898053,-0.4152832,-0.15533447,-0.8699341,0.46875,0.078125,0.015625
1696253898094,-0.42285156,-0.16021729,-0.8713989,0.53125,-0.140625,0.125
1696253898132,-0.41259766,-0.15826416,-0.86016846,0.265625,-0.296875,0.25
1696253898173,-0.42016602,-0.15362549,-0.8674927,0.28125,-0.421875,0.078125
1696253898214,-0.42504883,-0.15582275,-0.86846924,0.046875,-0.40625,0.03125
1696253898254,-0.41845703,-0.15948486,-0.86968994,-0.140625,-0.359375,0.125
1696253898292,-0.41577148,-0.15924072,-0.86602783,-0.140625,-0.328125,0.203125
1696253898332,-0.4128418,-0.15899658,-0.8687134,-0.09375,-0.375,0.203125
1696253898373,-0.4189453,-0.15997314,-0.8599243,0.328125,-0.3125,0.21875
1696253898414,-0.41870117,-0.15631104,-0.8701782,0.109375,-0.34375,0.109375
1696253898453,-0.4194336,-0.15216064,-0.86968994,0.0625,-0.484375,0.046875
1696253898493,-0.41992188,-0.15557861,-0.87457275,-0.203125,-0.46875,0.109375
1696253898533,-0.41796875,-0.16143799,-0.8665161,-0.078125,-0.203125,0.078125
1696253898575,-0.4169922,-0.15582275,-0.86920166,0.1875,-0.359375,0.1875
1696253898613,-0.41235352,-0.15509033,-0.8665161,0.578125,-0.28125,0.21875
1696253898652,-0.41748047,-0.1482544,-0.8706665,0.5625,-0.34375,0.125
1696253898693,-0.41357422,-0.1453247,-0.8648071,0.203125,-0.28125,0.046875
1696253898734,-0.41748047,-0.1560669,-0.86846924,0.046875,-0.109375,0.171875
1696253898773,-0.41552734,-0.15020752,-0.8657837,-0.0625,-0.140625,0.125
1696253898813,-0.4267578,-0.1572876,-0.86676025,-0.09375,-0.328125,0.3125
1696253898832,-0.41796875,-0.15802002,-0.86431885,-0.09375,-0.484375,0.234375
1696253898873,-0.42797852,-0.16021729,-0.86065674,-0.078125,-0.546875,0.203125
1696253898912,-0.42333984,-0.15802002,-0.8701782,-0.25,-0.421875,0.140625
1696253898954,-0.42089844,-0.15509033,-0.86260986,-0.078125,-0.34375,0.375
1696253898993,-0.4165039,-0.14996338,-0.86602783,-0.3125,-0.390625,0.3125
1696253899052,-0.41552734,-0.15411377,-0.87042236,-0.125,-0.421875,0.03125
1696253899073,-0.42407227,-0.15264893,-0.8648071,-0.21875,-0.46875,0.109375
1696253899133,-0.40942383,-0.15411377,-0.8665161,0.078125,-0.328125,0.203125
1696253899176,-0.42016602,-0.15460205,-0.8740845,-0.046875,-0.328125,0.21875
1696253899192,-0.4206543,-0.1519165,-0.86553955,0.28125,-0.265625,0.15625
1696253899232,-0.42407227,-0.16314697,-0.8687134,0.265625,-0.1875,0.125
1696253899273,-0.42382812,-0.15435791,-0.86920166,0.265625,-0.421875,0.171875
1696253899312,-0.41796875,-0.15338135,-0.8652954,0.078125,-0.40625,-0.03125
1696253899355,-0.41674805,-0.14849854,-0.8609009,0.015625,-0.34375,0.234375
1696253899393,-0.41992188,-0.15484619,-0.8621216,0.359375,-0.328125,0.1875
1696253899434,-0.41601562,-0.15582275,-0.86553955,0.5625,-0.40625,0.109375
1696253899495,-0.4260254,-0.15460205,-0.87213135,0.0,-0.515625,0.28125
1696253899512,-0.4230957,-0.14556885,-0.8718872,-0.21875,-0.34375,0.125
1696253899576,-0.42163086,-0.1506958,-0.8665161,-0.203125,-0.40625,0.125
1696253899592,-0.4206543,-0.15557861,-0.86383057,-0.203125,-0.484375,0.125
1696253899636,-0.4194336,-0.1531372,-0.87384033,-0.578125,-0.5,0.078125
1696253899695,-0.41992188,-0.15435791,-0.86920166,-0.46875,-0.578125,0.21875
1696253899711,-0.41235352,-0.1585083,-0.8665161,-0.25,-0.28125,0.1875
1696253899752,-0.41748047,-0.15386963,-0.86968994,-0.140625,-0.4375,0.125
1696253899793,-0.41601562,-0.15338135,-0.86431885,-0.109375,-0.34375,0.125
1696253899851,-0.4165039,-0.15411377,-0.86431885,-0.34375,-0.453125,0.1875
1696253899874,-0.4182129,-0.15240479,-0.86505127,-0.359375,-0.453125,0.046875
1696253899915,-0.41918945,-0.15216064,-0.878479,-0.703125,-0.765625,0.140625
1696253899951,-0.41479492,-0.15655518,-0.86431885,-0.328125,-0.6875,0.171875
1696253899993,-0.41870117,-0.15924072,-0.86846924,0.0625,-0.65625,0.0625
1696253900032,-0.41992188,-0.15875244,-0.8670044,0.375,-0.609375,0.078125
1696253900073,-0.4152832,-0.15093994,-0.861145,0.203125,-0.375,0.171875
1696253900136,-0.41333008,-0.15777588,-0.8694458,-0.203125,-0.625,0.109375
1696253900153,-0.42236328,-0.15484619,-0.8670044,-0.078125,-0.296875,0.078125
1696253900172,-0.41967773,-0.15631104,-0.87335205,-0.1875,-0.390625,0.171875
1696253900212,-0.42114258,-0.15167236,-0.85894775,-0.234375,-0.34375,0.171875
1696253900253,-0.4194336,-0.15533447,-0.85943604,-0.125,-0.453125,0.25
1696253900293,-0.4189453,-0.15533447,-0.8616333,0.03125,-0.484375,0.265625
1696253900332,-0.41992188,-0.15826416,-0.878479,-0.25,-0.546875,0.328125
1696253900372,-0.42016602,-0.15020752,-0.86431885,-0.140625,-0.25,0.171875
1696253900412,-0.4206543,-0.15826416,-0.8706665,-0.265625,-0.71875,0.21875
1696253900453,-0.42211914,-0.15826416,-0.86676025,0.09375,-0.359375,0.0625
1696253900493,-0.4194336,-0.15631104,-0.86920166,-0.203125,-0.609375,0.09375
1696253900534,-0.41430664,-0.15240479,-0.86602783,-0.546875,-0.375,0.203125
1696253900573,-0.41870117,-0.1560669,-0.8699341,-0.375,-0.28125,0.28125
1696253900614,-0.41992188,-0.15753174,-0.85772705,-0.1875,-0.171875,0.0
1696253900652,-0.42236328,-0.15509033,-0.8648071,-0.453125,-0.578125,0.09375
1696253900693,-0.41259766,-0.16119385,-0.8640747,-0.03125,-0.453125,0.3125
1696253900733,-0.41870117,-0.15899658,-0.86383057,-0.3125,-0.453125,0.1875
1696253900773,-0.4111328,-0.16046143,-0.86505127,0.0,-0.390625,0.09375
1696253900814,-0.41577148,-0.15655518,-0.8772583,-0.046875,-0.5625,0.078125
1696253900851,-0.4177246,-0.16046143,-0.8682251,-0.453125,-0.46875,0.234375
1696253900892,-0.4152832,-0.15826416,-0.8657837,-0.125,-0.375,0.109375
1696253900932,-0.42089844,-0.15875244,-0.8665161,-0.75,-0.84375,0.21875
1696253900972,-0.41796875,-0.16168213,-0.87384033,-0.703125,-0.46875,0.265625
1696253901012,-0.41748047,-0.15924072,-0.866272,-0.40625,-0.234375,0.046875
1696253901055,-0.41479492,-0.16217041,-0.86260986,0.03125,-0.4375,0.078125
1696253901095,-0.41552734,-0.15997314,-0.8682251,0.0,-0.6875,0.15625
1696253901135,-0.40649414,-0.16192627,-0.8731079,-0.203125,-0.390625,0.15625
1696253901173,-0.41796875,-0.16656494,-0.8677368,0.046875,-0.203125,0.1875
1696253901213,-0.42041016,-0.16217041,-0.86968994,0.21875,-0.140625,0.015625
1696253901252,-0.42089844,-0.1609497,-0.8682251,0.671875,-0.4375,0.03125
1696253901293,-0.4182129,-0.15655518,-0.86676025,0.5625,-0.5,0.09375
1696253901331,-0.42333984,-0.15655518,-0.86968994,0.125,-0.390625,0.171875
1696253901373,-0.42407227,-0.15802002,-0.86968994,-0.046875,-0.3125,0.109375
1696253901435,-0.42333984,-0.16143799,-0.866272,0.015625,-0.28125,0.1875
1696253901454,-0.41748047,-0.15997314,-0.86798096,-0.234375,-0.421875,0.140625
1696253901472,-0.41845703,-0.15777588,-0.8689575,-0.03125,-0.484375,-0.03125
1696253901514,-0.4182129,-0.1572876,-0.8689575,-0.015625,-0.46875,0.171875
1696253901552,-0.41625977,-0.15631104,-0.86187744,0.046875,-0.21875,0.109375
1696253901593,-0.41210938,-0.16558838,-0.8743286,-0.34375,-0.53125,0.21875
1696253901634,-0.4099121,-0.1585083,-0.86553955,-0.046875,-0.390625,-0.015625
1696253901672,-0.4189453,-0.15631104,-0.8682251,0.078125,-0.53125,0.03125
1696253901737,-0.42089844,-0.15362549,-0.8699341,0.0625,-0.140625,0.09375
1696253901752,-0.4206543,-0.159729,-0.8596802,0.15625,-0.125,0.125
1696253901792,-0.41796875,-0.16339111,-0.8701782,-0.15625,0.140625,0.296875
1696253901833,-0.4194336,-0.15875244,-0.8723755,-0.765625,-0.03125,0.34375
1696253901894,-0.42163086,-0.16168213,-0.8694458,-0.21875,-0.0625,0.265625
1696253901911,-0.41455078,-0.15753174,-0.8648071,-0.125,-0.078125,0.234375
1696253901954,-0.41430664,-0.16168213,-0.8616333,-0.328125,-0.46875,0.171875
1696253901992,-0.4165039,-0.15997314,-0.8687134,-0.203125,-0.40625,0.234375
1696253902056,-0.42089844,-0.16192627,-0.86920166,-0.1875,-0.796875,0.21875
1696253902072,-0.42407227,-0.1572876,-0.87213135,-0.25,-0.640625,0.078125
1696253902135,-0.42358398,-0.16265869,-0.86846924,0.0625,-0.5,0.140625
1696253902152,-0.41625977,-0.16339111,-0.8616333,0.0,-0.21875,0.21875
1696253902194,-0.4116211,-0.16290283,-0.8633423,-0.109375,-0.453125,0.140625
1696253902235,-0.41967773,-0.16241455,-0.864563,-0.125,-0.15625,0.171875
1696253902275,-0.41601562,-0.16680908,-0.86846924,-0.640625,-0.78125,0.125
1696253902313,-0.41870117,-0.16339111,-0.8760376,-0.4375,-0.78125,0.28125
1696253902355,-0.41577148,-0.16729736,-0.8687134,-0.59375,-0.640625,0.203125
1696253902394,-0.4152832,-0.16363525,-0.864563,-0.171875,-0.609375,0.328125
1696253902432,-0.41455078,-0.16656494,-0.86016846,-0.109375,-0.3125,0.28125
1696253902473,-0.4248047,-0.1638794,-0.86920166,-0.09375,-0.578125,0.375
1696253902512,-0.41796875,-0.1638794,-0.86309814,0.1875,-0.46875,0.171875
1696253902554,-0.41870117,-0.16461182,-0.8760376,-0.09375,-0.3125,0.125
1696253902592,-0.41552734,-0.16168213,-0.8689575,0.0,-0.375,0.28125
1696253902634,-0.41210938,-0.16680908,-0.861145,0.203125,-0.625,0.046875
1696253902672,-0.41748047,-0.16485596,-0.8640747,0.328125,-0.1875,0.109375
1696253902715,-0.42041016,-0.1585083,-0.8699341,0.109375,-0.1875,0.0
1696253902754,-0.41845703,-0.17266846,-0.87164307,0.03125,-0.484375,0.078125
1696253902773,-0.4169922,-0.16021729,-0.86505127,0.28125,-0.296875,0.125
1696253902832,-0.42016602,-0.16534424,-0.866272,0.84375,-0.125,-0.109375
1696253902852,-0.4194336,-0.15899658,-0.86260986,1.4375,-0.484375,-0.078125
1696253902892,-0.41674805,-0.16217041,-0.861145,1.09375,-0.78125,-0.171875
1696253902935,-0.41357422,-0.15484619,-0.86383057,0.03125,-0.734375,0.0625
1696253902972,-0.41992188,-0.159729,-0.8743286,-0.359375,-1.09375,0.0625
1696253903014,-0.42407227,-0.15289307,-0.8735962,-0.21875,-0.046875,0.234375
1696253903053,-0.41479492,-0.15240479,-0.86309814,-0.15625,-0.203125,0.15625
1696253903091,-0.41210938,-0.16070557,-0.8779907,-0.0625,-0.515625,0.140625
1696253903133,-0.41967773,-0.15264893,-0.8596802,-0.328125,-0.15625,0.21875
1696253903173,-0.41601562,-0.15655518,-0.8579712,-0.78125,-0.484375,0.28125
1696253903236,-0.41992188,-0.15777588,-0.8670044,-0.796875,-0.765625,0.40625
1696253903274,-0.41796875,-0.1572876,-0.8640747,-0.4375,-0.625,0.28125
1696253903291,-0.41210938,-0.16070557,-0.86920166,-0.40625,-1.03125,0.265625
1696253903354,-0.41455078,-0.16363525,-0.8796997,-0.09375,-0.84375,0.125
1696253903372,-0.4091797,-0.16241455,-0.87579346,0.046875,-0.515625,0.375
1696253903433,-0.41333008,-0.16119385,-0.8677368,-0.3125,-0.703125,0.359375
1696253903454,-0.4182129,-0.16143799,-0.86676025,-0.3125,-0.265625,0.109375
1696253903495,-0.41870117,-0.16046143,-0.8670044,0.0,-0.203125,0.171875
1696253903534,-0.40942383,-0.15997314,-0.864563,0.0,-0.46875,0.1875
1696253903572,-0.40966797,-0.16192627,-0.8670044,0.046875,-0.78125,0.15625
1696253903614,-0.41967773,-0.15460205,-0.8772583,0.46875,-0.5,-0.03125
1696253903653,-0.4152832,-0.1663208,-0.8677368,0.609375,-0.46875,0.125
1696253903693,-0.4177246,-0.15777588,-0.87164307,0.46875,-0.359375,0.15625
1696253903734,-0.41015625,-0.15435791,-0.86505127,0.390625,-0.3125,0.078125
1696253903775,-0.41992188,-0.15582275,-0.8670044,-0.140625,-0.265625,0.203125
1696253903813,-0.41308594,-0.15386963,-0.8652954,-0.265625,-0.109375,0.046875
1696253903853,-0.42456055,-0.15753174,-0.8711548,-0.203125,-0.203125,0.140625
1696253903913,-0.42211914,-0.15509033,-0.87506104,-0.25,-0.40625,0.28125
1696253903934,-0.42016602,-0.15777588,-0.8731079,-0.140625,-0.3125,0.234375
1696253903973,-0.41967773,-0.16168213,-0.8694458,-0.03125,-0.390625,-0.015625
1696253904033,-0.4177246,-0.15704346,-0.86968994,-0.0625,-0.515625,0.28125
1696253904073,-0.41992188,-0.15509033,-0.8584595,0.0625,-0.390625,0.203125
1696253904077,-0.41503906,-0.15557861,-0.8748169,-0.171875,-0.265625,0.25
1696253904114,-0.40649414,-0.15679932,-0.87213135,-0.0625,-0.25,0.1875
1696253904191,-0.41845703,-0.14874268,-0.8713989,0.09375,-0.421875,-0.09375
1696253904193,-0.41308594,-0.16143799,-0.8735962,0.046875,-0.390625,-0.03125
1696253904232,-0.40966797,-0.15631104,-0.86187744,0.21875,-0.015625,0.171875
1696253904272,-0.40527344,-0.15948486,-0.85943604,0.03125,-0.234375,0.1875
1696253904312,-0.4194336,-0.1585083,-0.8713989,-0.21875,-0.703125,0.21875
1696253904354,-0.4128418,-0.15557861,-0.86260986,0.03125,-0.546875,0.1875
1696253904393,-0.42114258,-0.15216064,-0.8682251,-0.484375,-0.578125,0.203125
1696253904431,-0.41796875,-0.1585083,-0.8726196,-0.4375,-0.25,0.1875
1696253904472,-0.4189453,-0.159729,-0.8640747,-0.296875,-0.234375,0.015625
1696253904513,-0.42285156,-0.15704346,-0.8674927,-0.484375,-0.21875,0.265625
1696253904553,-0.41625977,-0.15435791,-0.8689575,-0.234375,-0.1875,0.125
1696253904594,-0.41430664,-0.15704346,-0.866272,-0.125,-0.46875,0.25
1696253904633,-0.41967773,-0.1638794,-0.8699341,-0.078125,-0.421875,0.109375
1696253904673,-0.40966797,-0.16827393,-0.86968994,-0.234375,-0.4375,0.171875
1696253904712,-0.4194336,-0.16070557,-0.86383057,-0.28125,-0.34375,0.171875
1696253904754,-0.4177246,-0.15997314,-0.8640747,0.09375,-0.40625,0.15625
1696253904793,-0.41552734,-0.15948486,-0.87506104,-0.0625,-0.328125,0.21875
1696253904833,-0.41601562,-0.16461182,-0.87872314,-0.078125,0.921875,0.265625
1696253904873,-0.42382812,-0.1609497,-0.8701782,-0.328125,0.484375,0.25
1696253904913,-0.42211914,-0.16729736,-0.8596802,-0.078125,-0.125,0.21875
1696253904954,-0.42114258,-0.15435791,-0.8591919,0.15625,-0.390625,0.203125
1696253904992,-0.4177246,-0.15679932,-0.86260986,0.46875,-0.40625,0.09375
1696253905033,-0.4165039,-0.15704346,-0.8657837,0.390625,-0.65625,0.234375
1696253905074,-0.42626953,-0.1560669,-0.87628174,0.265625,-0.765625,0.1875
1696253905112,-0.4243164,-0.16143799,-0.87384033,0.09375,-0.921875,0.171875
1696253905153,-0.42382812,-0.15435791,-0.8748169,0.0,-0.578125,0.15625
1696253905194,-0.4189453,-0.1531372,-0.86602783,0.234375,-0.671875,0.0625
1696253905232,-0.41845703,-0.15924072,-0.8635864,0.4375,-0.34375,0.03125
1696253905274,-0.41552734,-0.15484619,-0.866272,0.21875,-0.484375,0.015625
1696253905315,-0.42285156,-0.15167236,-0.8735962,-0.40625,-0.609375,0.265625
1696253905375,-0.42089844,-0.14874268,-0.8701782,-0.78125,-0.84375,0.234375
1696253905391,-0.42089844,-0.16021729,-0.8670044,-0.578125,-0.3125,0.28125
1696253905412,-0.41748047,-0.15167236,-0.8723755,-0.640625,-0.671875,0.40625
1696253905474,-0.42407227,-0.1638794,-0.8652954,-0.421875,-0.484375,0.234375
1696253905493,-0.4128418,-0.15655518,-0.86602783,-0.375,-0.453125,0.234375
1696253905533,-0.4104004,-0.1609497,-0.8635864,-0.328125,-0.46875,0.171875
1696253905573,-0.41918945,-0.15704346,-0.864563,-0.171875,-0.59375,0.0625
1696253905613,-0.42236328,-0.15557861,-0.86309814,-0.21875,-0.359375,0.1875
1696253905652,-0.42089844,-0.16851807,-0.87628174,-0.734375,-0.578125,0.296875
1696253905696,-0.41748047,-0.16314697,-0.86798096,-0.578125,-0.640625,0.28125
1696253905753,-0.41918945,-0.16436768,-0.8609009,-0.265625,-0.1875,0.125
1696253905793,-0.41308594,-0.15997314,-0.86065674,0.15625,-0.09375,0.109375
1696253905814,-0.42016602,-0.15802002,-0.8657837,0.140625,-0.359375,0.125
1696253905853,-0.41870117,-0.16363525,-0.8706665,-0.03125,-0.828125,0.1875
1696253905896,-0.41259766,-0.1638794,-0.862854,0.171875,-0.484375,0.015625
1696253905933,-0.42041016,-0.16998291,-0.8706665,0.125,-0.359375,0.15625
1696253905974,-0.4230957,-0.16119385,-0.87164307,0.15625,-0.125,0.015625
1696253906013,-0.41674805,-0.16339111,-0.8682251,-0.28125,-0.40625,0.25
1696253906054,-0.41723633,-0.16119385,-0.861145,-0.109375,-0.546875,0.015625
1696253906093,-0.42138672,-0.15924072,-0.8699341,-0.015625,-0.25,0.078125
1696253906155,-0.41601562,-0.16046143,-0.8635864,-0.078125,-0.46875,0.21875
1696253906172,-0.42236328,-0.16314697,-0.87384033,-0.234375,-0.390625,0.296875
1696253906213,-0.4189453,-0.16607666,-0.8706665,0.03125,-0.328125,0.25
1696253906253,-0.41674805,-0.1663208,-0.86138916,-0.34375,-0.421875,0.203125
1696253906315,-0.41748047,-0.16998291,-0.85772705,0.234375,-0.328125,0.03125
1696253906332,-0.41845703,-0.1663208,-0.86968994,0.171875,-0.53125,0.1875
1696253906375,-0.4152832,-0.1609497,-0.862854,0.3125,-0.125,0.125
1696253906412,-0.4230957,-0.15924072,-0.87335205,-0.21875,-0.25,0.140625
1696253906476,-0.4189453,-0.1572876,-0.8635864,-0.265625,-0.0625,0.109375
1696253906491,-0.41967773,-0.159729,-0.8616333,-0.234375,-0.296875,0.109375
1696253906533,-0.42236328,-0.16070557,-0.8743286,-0.375,-0.546875,0.3125
1696253906574,-0.41796875,-0.16168213,-0.8699341,-0.078125,-0.421875,0.125
1696253906613,-0.41479492,-0.16558838,-0.86798096,-0.0625,-0.546875,0.171875
1696253906653,-0.42016602,-0.15362549,-0.8670044,-0.015625,-0.109375,0.0625
1696253906693,-0.42211914,-0.1585083,-0.8723755,-0.1875,-0.40625,0.15625
1696253906712,-0.4165039,-0.1609497,-0.87506104,-0.15625,-0.515625,0.109375
1696253906753,-0.41625977,-0.15802002,-0.86383057,0.0,-0.484375,0.171875
1696253906813,-0.41723633,-0.16607666,-0.87335205,-0.3125,-0.34375,0.21875
1696253906832,-0.42089844,-0.16290283,-0.8665161,-0.3125,-0.421875,0.125
1696253906872,-0.41796875,-0.16436768,-0.86602783,-0.171875,-0.515625,0.171875
1696253906931,-0.41674805,-0.16802979,-0.86602783,0.15625,-0.375,0.234375
1696253906952,-0.42260742,-0.16143799,-0.8633423,0.03125,-0.28125,0.046875
1696253906993,-0.41625977,-0.16046143,-0.8706665,-0.109375,-0.53125,0.0625
1696253907032,-0.42089844,-0.16485596,-0.86676025,-0.1875,-0.625,0.203125
1696253907074,-0.4182129,-0.16436768,-0.86309814,-0.125,-0.21875,0.125
1696253907112,-0.4189453,-0.16363525,-0.8569946,-0.140625,-0.25,0.203125
1696253907176,-0.42016602,-0.16143799,-0.866272,-0.265625,-0.375,0.359375
1696253907214,-0.42285156,-0.16436768,-0.86602783,-0.703125,-0.53125,0.3125
1696253907232,-0.4177246,-0.1663208,-0.8665161,-0.390625,-0.53125,0.046875
1696253907272,-0.4206543,-0.16363525,-0.8735962,-0.234375,-0.375,0.265625
1696253907313,-0.42749023,-0.16583252,-0.86920166,-0.328125,-0.53125,0.25
1696253907354,-0.41186523,-0.16436768,-0.8633423,0.109375,-0.359375,0.171875
1696253907394,-0.41967773,-0.16021729,-0.86798096,0.328125,-0.1875,0.140625
1696253907433,-0.41845703,-0.16705322,-0.86798096,0.328125,-0.125,0.125
1696253907475,-0.42163086,-0.16485596,-0.866272,0.109375,-0.4375,0.03125
1696253907512,-0.4177246,-0.16461182,-0.86383057,-0.234375,-0.59375,0.171875
1696253907552,-0.4182129,-0.16949463,-0.8699341,-0.1875,-0.28125,0.0625
1696253907593,-0.421875,-0.1638794,-0.8753052,-0.453125,-0.34375,0.1875
1696253907654,-0.4206543,-0.16656494,-0.86016846,-0.09375,-0.234375,0.265625
1696253907673,-0.4177246,-0.16265869,-0.8652954,-0.421875,-0.453125,0.21875
1696253907736,-0.41333008,-0.16461182,-0.86724854,-0.46875,-0.234375,0.21875
1696253907751,-0.42211914,-0.16778564,-0.86309814,-0.390625,-0.234375,0.140625
1696253907795,-0.4189453,-0.16705322,-0.87579346,-0.484375,-0.453125,0.296875
1696253907854,-0.41577148,-0.16973877,-0.8657837,-0.21875,-0.203125,0.0625
1696253907871,-0.42114258,-0.17437744,-0.8550415,0.078125,-0.421875,0.15625
1696253907913,-0.42089844,-0.16925049,-0.8652954,-0.03125,-0.09375,0.109375
1696253907953,-0.42211914,-0.16485596,-0.87506104,0.015625,-0.25,0.25
1696253908014,-0.41503906,-0.16973877,-0.85943604,-0.046875,-0.328125,0.15625
1696253908017,-0.41992188,-0.16680908,-0.8677368,0.15625,-0.421875,0.125
1696253908053,-0.42236328,-0.16998291,-0.8648071,-0.078125,-0.625,-0.03125
1696253908094,-0.4140625,-0.16461182,-0.8616333,0.0,-0.375,0.375
1696253908134,-0.42163086,-0.16607666,-0.86798096,-0.078125,-0.421875,0.15625
1696253908175,-0.41796875,-0.15997314,-0.85943604,-0.03125,-0.484375,0.1875
1696253908212,-0.41918945,-0.16143799,-0.8706665,-0.296875,-0.625,0.125
1696253908253,-0.42749023,-0.1638794,-0.8701782,-0.25,-0.640625,0.234375
1696253908293,-0.42578125,-0.16558838,-0.8665161,-0.171875,-0.78125,0.28125
1696253908332,-0.4165039,-0.1663208,-0.8665161,-0.4375,-0.625,0.21875
1696253908373,-0.42260742,-0.17047119,-0.85821533,-0.53125,-0.375,0.203125
1696253908413,-0.41625977,-0.16607666,-0.8701782,-0.421875,-0.265625,0.15625
1696253908452,-0.42236328,-0.16680908,-0.86553955,0.03125,-0.234375,-0.015625
1696253908494,-0.421875,-0.16656494,-0.8657837,0.03125,-0.4375,0.046875
1696253908534,-0.4169922,-0.16339111,-0.8555298,1.765625,-0.109375,0.0
1696253908573,-0.4189453,-0.15899658,-0.84820557,2.21875,-0.296875,-0.25
1696253908613,-0.41723633,-0.16021729,-0.8616333,1.75,-0.296875,-0.15625
1696253908652,-0.42236328,-0.159729,-0.8609009,1.515625,0.109375,-0.046875
1696253908692,-0.4284668,-0.15509033,-0.8796997,0.75,-0.78125,0.21875
1696253908733,-0.42138672,-0.15899658,-0.8726196,0.421875,-0.296875,0.171875
1696253908773,-0.42089844,-0.16046143,-0.8726196,-0.109375,-0.671875,0.203125
1696253908813,-0.41430664,-0.15484619,-0.8599243,0.0625,-0.15625,0.078125
1696253908854,-0.421875,-0.1531372,-0.8694458,-0.328125,-0.578125,0.203125
1696253908892,-0.4296875,-0.15411377,-0.8711548,-0.34375,-0.28125,0.125
1696253908933,-0.42041016,-0.15411377,-0.8735962,-0.203125,-0.390625,0.34375
1696253908974,-0.41674805,-0.1572876,-0.86846924,-0.25,-0.578125,0.203125
1696253909012,-0.42016602,-0.15631104,-0.861145,0.015625,-0.34375,0.375
1696253909052,-0.41552734,-0.16314697,-0.8555298,0.0,-0.5,0.09375
1696253909095,-0.41552734,-0.15386963,-0.8623657,0.15625,-0.484375,0.15625
1696253909134,-0.4165039,-0.15826416,-0.861145,0.109375,-0.53125,0.21875
1696253909175,-0.41577148,-0.1609497,-0.8826294,-0.265625,-0.390625,0.296875
1696253909214,-0.41967773,-0.16070557,-0.87457275,0.109375,-0.484375,0.203125
1696253909253,-0.41625977,-0.15704346,-0.8735962,-0.03125,-0.359375,0.1875
1696253909315,-0.4182129,-0.15753174,-0.861145,0.375,0.078125,-0.0625
1696253909333,-0.4177246,-0.15899658,-0.86187744,-0.21875,-0.328125,0.109375
1696253909353,-0.421875,-0.15802002,-0.8633423,-0.1875,-0.4375,0.296875
1696253909392,-0.41577148,-0.1531372,-0.87872314,-0.40625,-0.375,0.328125
1696253909434,-0.41967773,-0.159729,-0.8731079,-0.34375,-0.40625,0.15625
1696253909475,-0.42114258,-0.16314697,-0.8814087,-0.484375,-0.484375,0.03125
1696253909512,-0.4116211,-0.1609497,-0.8557739,-0.0625,-0.203125,0.09375
1696253909553,-0.4182129,-0.15435791,-0.8652954,-0.796875,-0.65625,0.265625
1696253909594,-0.4152832,-0.1494751,-0.8718872,-0.53125,-0.5625,0.25
1696253909634,-0.4260254,-0.15875244,-0.8706665,-0.140625,-0.25,0.0625
1696253909673,-0.4206543,-0.15899658,-0.8665161,0.09375,-0.484375,0.046875
1696253909713,-0.4169922,-0.1572876,-0.86553955,0.03125,-0.65625,0.296875
1696253909773,-0.42211914,-0.1638794,-0.86798096,0.078125,-0.015625,0.078125
1696253909791,-0.42016602,-0.15264893,-0.85528564,-0.15625,-0.390625,0.1875
1696253909833,-0.42089844,-0.16241455,-0.87091064,-0.375,-0.59375,0.203125
1696253909874,-0.42260742,-0.15655518,-0.86968994,-0.046875,-0.40625,0.09375
1696253909913,-0.41845703,-0.16265869,-0.87677,-0.140625,-0.609375,0.296875
1696253909953,-0.4230957,-0.15924072,-0.86553955,0.0625,-0.25,0.1875
1696253909998,-0.421875,-0.1609497,-0.8621216,-0.046875,-0.453125,0.265625
1696253910032,-0.41601562,-0.15924072,-0.86505127,-0.109375,-0.484375,0.25
1696253910074,-0.41674805,-0.16192627,-0.86920166,-0.328125,-0.25,0.15625
1696253910135,-0.42016602,-0.15777588,-0.8640747,-0.265625,-0.390625,0.234375
1696253910155,-0.42407227,-0.16070557,-0.86602783,0.0,-0.234375,0.109375
1696253910193,-0.41479492,-0.1609497,-0.8657837,-0.453125,-0.609375,0.265625
1696253910232,-0.4140625,-0.15557861,-0.8633423,-0.078125,-0.328125,0.21875
1696253910273,-0.41601562,-0.1585083,-0.8652954,-0.25,-0.40625,0.078125
1696253910315,-0.41992188,-0.16168213,-0.8648071,0.25,-0.453125,0.15625
1696253910354,-0.41748047,-0.1572876,-0.8743286,-0.203125,-0.40625,0.125
1696253910391,-0.4169922,-0.15655518,-0.8687134,-0.328125,-0.375,0.03125
1696253910454,-0.42163086,-0.159729,-0.86309814,-0.21875,-0.515625,0.21875
1696253910494,-0.4169922,-0.16583252,-0.8694458,-0.359375,-0.265625,0.1875
1696253910512,-0.41430664,-0.1572876,-0.87042236,-0.515625,-0.5,0.375
1696253910575,-0.42333984,-0.15899658,-0.8694458,-0.375,-0.25,0.125
1696253910653,-0.4165039,-0.16705322,-0.8694458,-0.390625,-0.5,0.09375
1696253910655,-0.41674805,-0.16070557,-0.8609009,0.015625,-0.171875,0.21875
1696253910656,-0.41723633,-0.16485596,-0.8545532,0.5625,0.3125,0.015625
1696253910693,-0.41748047,-0.15875244,-0.8740845,0.1875,-0.171875,0.046875
1696253910734,-0.42382812,-0.15826416,-0.8648071,0.328125,-0.15625,0.125
1696253910773,-0.42285156,-0.16021729,-0.8713989,-0.25,-0.125,0.3125
1696253910815,-0.42114258,-0.1609497,-0.86383057,0.0,-0.59375,0.125
1696253910853,-0.42163086,-0.15679932,-0.86138916,-0.078125,-0.46875,0.265625
1696253910895,-0.42211914,-0.16119385,-0.86016846,-0.171875,-0.421875,0.328125
1696253910933,-0.41967773,-0.15899658,-0.87213135,-0.140625,-0.546875,0.21875
1696253910974,-0.4206543,-0.16119385,-0.864563,-0.203125,-0.453125,0.0625
1696253911014,-0.41748047,-0.16119385,-0.8740845,-0.046875,-0.234375,0.234375
1696253911054,-0.41577148,-0.16119385,-0.86505127,0.03125,-0.234375,0.09375
1696253911092,-0.42578125,-0.15753174,-0.86138916,0.109375,-0.390625,0.140625
1696253911133,-0.4206543,-0.16290283,-0.8694458,0.34375,-0.265625,0.078125
1696253911173,-0.4182129,-0.159729,-0.86383057,0.203125,-0.4375,0.0625
1696253911212,-0.42089844,-0.15655518,-0.8701782,0.015625,-0.5,0.15625
1696253911252,-0.42089844,-0.15386963,-0.86724854,-0.1875,-0.359375,0.203125
1696253911293,-0.4194336,-0.15484619,-0.8640747,-0.046875,-0.40625,0.234375
1696253911335,-0.41870117,-0.16046143,-0.87091064,-0.578125,-0.421875,0.3125
1696253911373,-0.41992188,-0.16265869,-0.85943604,-0.5,-0.234375,0.15625
1696253911414,-0.4165039,-0.15753174,-0.8713989,-0.875,-0.53125,0.328125
1696253911453,-0.41796875,-0.16607666,-0.8640747,-0.234375,-0.171875,0.328125
1696253911493,-0.4243164,-0.16217041,-0.8648071,-0.390625,-0.3125,0.328125
1696253911533,-0.42260742,-0.15948486,-0.86676025,0.1875,-0.375,-0.015625
1696253911573,-0.42211914,-0.15802002,-0.8579712,0.296875,-0.484375,0.109375
1696253911613,-0.42626953,-0.16217041,-0.86138916,0.109375,-0.734375,0.109375
1696253911655,-0.41625977,-0.16583252,-0.8652954,0.09375,-0.453125,0.265625
1696253911693,-0.42407227,-0.15924072,-0.8674927,0.03125,-0.265625,0.046875
1696253911733,-0.42041016,-0.1585083,-0.8694458,-0.15625,-0.4375,0.0625
1696253911773,-0.41748047,-0.15655518,-0.8635864,-0.265625,-0.28125,0.140625
1696253911813,-0.4206543,-0.15411377,-0.8687134,-0.15625,-0.390625,0.28125
1696253911854,-0.42041016,-0.16217041,-0.8657837,-0.296875,-0.53125,0.296875
1696253911893,-0.4267578,-0.16436768,-0.86968994,-0.34375,-0.546875,0.25
1696253911955,-0.42382812,-0.1651001,-0.866272,-0.25,-0.203125,0.21875
1696253911958,-0.42456055,-0.16461182,-0.87286377,-0.5625,-0.421875,0.15625
1696253912013,-0.42285156,-0.16436768,-0.86798096,0.078125,-0.453125,0.078125
1696253912075,-0.42114258,-0.159729,-0.86505127,-0.1875,-0.59375,0.171875
1696253912079,-0.41870117,-0.16534424,-0.8623657,0.125,-0.359375,0.1875
1696253912115,-0.41967773,-0.16143799,-0.86138916,-0.078125,-0.40625,0.203125
1696253912152,-0.42529297,-0.16925049,-0.8657837,-0.28125,-0.578125,0.234375
1696253912193,-0.42285156,-0.16314697,-0.8731079,-0.125,-0.453125,0.171875
1696253912253,-0.42382812,-0.16241455,-0.8731079,-0.015625,-0.484375,0.09375
1696253912293,-0.42236328,-0.17071533,-0.86553955,0.25,-0.125,0.125
1696253912313,-0.41625977,-0.15411377,-0.8640747,0.25,-0.140625,-0.015625
1696253912354,-0.42504883,-0.1560669,-0.862854,0.0625,-0.3125,0.171875
1696253912394,-0.4177246,-0.16534424,-0.87042236,0.375,-0.28125,-0.125
1696253912435,-0.42529297,-0.15924072,-0.8701782,1.0625,-0.21875,-0.015625
1696253912473,-0.42504883,-0.15924072,-0.86505127,1.875,-0.28125,-0.234375
1696253912513,-0.4169922,-0.15264893,-0.8538208,1.84375,-0.15625,-0.171875
1696253912552,-0.4255371,-0.15484619,-0.8687134,0.96875,-0.640625,-0.015625
1696253912593,-0.42089844,-0.1453247,-0.8699341,0.578125,-0.84375,0.125
1696253912656,-0.4267578,-0.15167236,-0.8743286,0.203125,-0.953125,0.15625
1696253912671,-0.4152832,-0.1482544,-0.8616333,-0.28125,-0.9375,0.3125
1696253912714,-0.42138672,-0.1519165,-0.85601807,-0.40625,-1.4375,0.15625
1696253912754,-0.40698242,-0.1572876,-0.8772583,-0.34375,-1.578125,0.28125
1696253912817,-0.4111328,-0.1560669,-0.85357666,-0.3125,-0.625,0.203125
1696253912834,-0.41455078,-0.15557861,-0.8689575,-0.296875,-0.90625,0.3125
1696253912874,-0.4177246,-0.15655518,-0.87335205,0.0625,-0.828125,0.21875
1696253912915,-0.41845703,-0.15045166,-0.8850708,-0.53125,-0.640625,0.328125
1696253912953,-0.41186523,-0.15826416,-0.8826294,-0.375,-0.25,0.375
1696253913016,-0.41577148,-0.15093994,-0.8687134,-0.5625,-0.21875,0.21875
1696253913032,-0.41577148,-0.15826416,-0.8621216,-0.59375,-0.1875,0.25
1696253913073,-0.4194336,-0.15753174,-0.85601807,-0.046875,0.03125,0.15625
1696253913114,-0.41992188,-0.15777588,-0.86187744,0.234375,-0.25,-0.015625
1696253913154,-0.41845703,-0.15875244,-0.8711548,0.015625,-0.640625,-0.078125
1696253913193,-0.4165039,-0.16046143,-0.87945557,0.234375,-0.734375,0.203125
1696253913253,-0.4128418,-0.15093994,-0.8731079,0.3125,-0.40625,0.15625
1696253913273,-0.4248047,-0.1506958,-0.87091064,0.15625,-0.46875,0.125
1696253913293,-0.41381836,-0.15264893,-0.864563,0.40625,-0.296875,0.125
1696253913332,-0.41503906,-0.15093994,-0.86505127,0.28125,-0.25,0.203125
1696253913372,-0.41625977,-0.1519165,-0.86383057,0.34375,-0.484375,0.140625
1696253913412,-0.42138672,-0.1519165,-0.86846924,0.21875,-0.125,0.265625
1696253913453,-0.41479492,-0.15704346,-0.8755493,-0.15625,-0.21875,0.21875
1696253913494,-0.41601562,-0.15264893,-0.8665161,0.203125,-0.1875,0.078125
1696253913533,-0.41577148,-0.15435791,-0.8718872,-0.28125,-0.375,0.28125
1696253913574,-0.41674805,-0.15484619,-0.8652954,-0.515625,-0.328125,0.265625
1696253913612,-0.42407227,-0.1519165,-0.87701416,-0.96875,-0.453125,0.21875
1696253913655,-0.42114258,-0.15753174,-0.8772583,-0.1875,-0.28125,0.34375
1696253913694,-0.4116211,-0.15631104,-0.8584595,0.296875,-0.28125,0.015625
1696253913734,-0.4099121,-0.15142822,-0.86602783,-0.1875,-0.46875,0.203125
1696253913773,-0.41723633,-0.15435791,-0.87335205,-0.375,-0.25,0.0625
1696253913815,-0.41625977,-0.15386963,-0.8652954,0.25,-0.1875,0.078125
1696253913852,-0.4169922,-0.15020752,-0.86968994,-0.46875,-0.4375,0.28125
1696253913894,-0.42016602,-0.16021729,-0.8740845,-0.484375,-0.453125,0.203125
1696253913935,-0.41357422,-0.15826416,-0.86846924,-0.34375,-0.328125,0.171875
1696253913973,-0.421875,-0.15655518,-0.8718872,-0.25,-0.5625,0.296875
1696253914015,-0.4169922,-0.15386963,-0.86798096,0.140625,-0.3125,0.125
1696253914053,-0.40844727,-0.15582275,-0.8545532,-0.140625,-0.21875,0.15625
1696253914093,-0.42285156,-0.15777588,-0.87164307,0.03125,-0.28125,0.21875
1696253914134,-0.41674805,-0.1519165,-0.8726196,-0.25,-0.578125,0.078125
1696253914172,-0.41308594,-0.16314697,-0.8699341,-0.296875,-0.21875,0.078125
1696253914213,-0.4169922,-0.15899658,-0.86602783,-0.234375,-0.375,0.265625
1696253914252,-0.41674805,-0.1560669,-0.8599243,-0.046875,-0.265625,0.078125
1696253914296,-0.4128418,-0.15264893,-0.86553955,-0.421875,-0.515625,0.234375
1696253914334,-0.4206543,-0.15460205,-0.8701782,-0.234375,-0.359375,0.125
1696253914373,-0.41723633,-0.15753174,-0.8772583,-0.03125,-0.4375,0.15625
1696253914413,-0.4116211,-0.15533447,-0.8706665,-0.140625,-0.390625,0.15625
1696253914453,-0.41381836,-0.159729,-0.87091064,0.046875,-0.421875,0.078125
1696253914495,-0.41503906,-0.15753174,-0.8748169,-0.171875,-0.28125,0.265625
1696253914534,-0.41992188,-0.16265869,-0.8670044,-0.09375,-0.28125,0.15625
1696253914573,-0.41748047,-0.15777588,-0.864563,-0.21875,-0.71875,0.125
1696253914593,-0.42260742,-0.15509033,-0.880188,-0.46875,-0.609375,0.03125
1696253914634,-0.41723633,-0.15631104,-0.86505127,0.1875,-0.296875,0.09375
1696253914676,-0.41430664,-0.15484619,-0.8723755,-0.1875,-0.5,0.1875
1696253914712,-0.41552734,-0.15118408,-0.862854,0.03125,-0.28125,0.125
1696253914754,-0.41918945,-0.15655518,-0.86553955,-0.203125,-0.328125,0.09375
1696253914794,-0.41357422,-0.15753174,-0.87164307,-0.4375,-0.359375,0.28125
1696253914834,-0.42089844,-0.15484619,-0.8694458,-0.15625,-0.421875,0.265625
1696253914897,-0.41455078,-0.15997314,-0.866272,0.0,-0.46875,0.140625
1696253914916,-0.41259766,-0.15753174,-0.86383057,-0.359375,-0.71875,0.15625
1696253914952,-0.41333008,-0.1482544,-0.8657837,-0.09375,-0.40625,0.25
1696253914993,-0.4194336,-0.15216064,-0.87164307,-0.546875,-0.609375,0.28125
1696253915033,-0.42236328,-0.15216064,-0.8748169,-0.421875,-0.21875,0.0625
1696253915096,-0.41430664,-0.1572876,-0.8635864,-0.140625,-0.453125,0.140625
1696253915113,-0.42016602,-0.16046143,-0.8640747,0.234375,-0.53125,0.0
1696253915152,-0.41479492,-0.15679932,-0.86968994,-0.234375,-0.421875,0.09375
1696253915195,-0.41870117,-0.15997314,-0.8621216,0.125,-0.3125,0.09375
1696253915233,-0.4189453,-0.15777588,-0.86505127,0.078125,-0.421875,0.1875
1696253915273,-0.41479492,-0.1560669,-0.87164307,-0.125,-0.59375,0.234375
1696253915313,-0.41064453,-0.1531372,-0.8753052,-0.0625,-0.546875,0.171875
1696253915376,-0.4169922,-0.16192627,-0.86724854,0.203125,-0.390625,0.046875
1696253915392,-0.41992188,-0.15289307,-0.8753052,0.0,-0.671875,0.234375
1696253915433,-0.4086914,-0.16046143,-0.8530884,0.375,-0.328125,0.125
1696253915472,-0.42260742,-0.1506958,-0.86602783,0.4375,-0.34375,0.203125
1696253915515,-0.41552734,-0.15679932,-0.86676025,0.65625,-0.28125,0.1875
1696253915555,-0.42138672,-0.15411377,-0.8855591,0.375,-0.609375,0.109375
1696253915594,-0.4116211,-0.15045166,-0.8574829,0.78125,0.078125,-0.015625
1696253915635,-0.41992188,-0.1453247,-0.8665161,0.09375,-0.90625,0.140625
1696253915675,-0.4182129,-0.1531372,-0.8713989,0.1875,-0.5625,0.28125
1696253915737,-0.41748047,-0.15142822,-0.8652954,0.390625,-0.359375,0.28125
1696253915774,-0.4194336,-0.15289307,-0.87457275,-0.40625,-0.75,0.203125
1696253915792,-0.4206543,-0.15435791,-0.86505127,-0.734375,-0.71875,0.328125
1696253915856,-0.4152832,-0.15533447,-0.88287354,-0.921875,-0.796875,0.234375
1696253915893,-0.41015625,-0.15997314,-0.8694458,-0.234375,-0.40625,0.3125
1696253915896,-0.4165039,-0.15631104,-0.8723755,-0.34375,-0.15625,0.109375
1696253915932,-0.42236328,-0.15411377,-0.8623657,-0.21875,-0.359375,0.0625
1696253916016,-0.41577148,-0.15509033,-0.8623657,0.0625,-0.40625,0.203125
1696253916020,-0.4206543,-0.15826416,-0.87091064,0.140625,-0.328125,0.03125
1696253916054,-0.41748047,-0.15557861,-0.87457275,0.109375,-0.390625,0.0625
1696253916093,-0.4165039,-0.15582275,-0.880188,0.09375,-0.4375,0.140625
1696253916134,-0.41259766,-0.14923096,-0.86798096,0.15625,-0.296875,0.265625
1696253916174,-0.40844727,-0.15753174,-0.8648071,0.0625,-0.4375,0.203125
1696253916216,-0.4206543,-0.1482544,-0.86431885,-0.125,-0.203125,0.09375
1696253916255,-0.40429688,-0.15435791,-0.8657837,-0.171875,-0.3125,0.046875
1696253916293,-0.4182129,-0.15289307,-0.8726196,-0.234375,-0.5,0.15625
1696253916335,-0.4111328,-0.1519165,-0.87506104,-0.03125,-0.34375,0.15625
1696253916372,-0.41259766,-0.15753174,-0.8670044,0.0625,-0.546875,0.0625
1696253916414,-0.40942383,-0.15093994,-0.8616333,-0.15625,-0.515625,0.234375
1696253916454,-0.40942383,-0.15484619,-0.86553955,-0.234375,-0.46875,0.09375
1696253916494,-0.41479492,-0.15338135,-0.8674927,0.109375,-0.203125,0.09375
1696253916532,-0.41870117,-0.15045166,-0.8726196,-0.140625,-0.34375,0.203125
1696253916573,-0.4177246,-0.15484619,-0.8735962,-0.015625,-0.203125,0.109375
1696253916614,-0.41333008,-0.15411377,-0.8706665,-0.140625,-0.296875,0.1875
1696253916655,-0.41796875,-0.15777588,-0.8648071,0.140625,-0.359375,0.1875
1696253916696,-0.42138672,-0.1506958,-0.8731079,-0.09375,-0.296875,0.234375
1696253916734,-0.41308594,-0.15216064,-0.86505127,0.046875,-0.28125,0.0
1696253916774,-0.421875,-0.15240479,-0.8689575,-0.265625,-0.59375,0.21875
1696253916814,-0.41235352,-0.15655518,-0.8701782,-0.21875,-0.359375,0.3125
1696253916853,-0.4182129,-0.15484619,-0.866272,-0.28125,-0.390625,0.265625
1696253916893,-0.41748047,-0.1506958,-0.87042236,-0.140625,-0.359375,0.25
1696253916937,-0.41088867,-0.15142822,-0.8701782,-0.359375,-0.359375,0.1875
1696253916974,-0.41967773,-0.15460205,-0.8657837,-0.171875,-0.234375,0.171875
1696253917014,-0.42163086,-0.15509033,-0.86553955,-0.234375,-0.234375,0.171875
1696253917055,-0.41967773,-0.15216064,-0.87506104,-0.421875,-0.515625,0.3125
1696253917094,-0.42114258,-0.15777588,-0.8711548,-0.328125,-0.265625,0.046875
1696253917133,-0.41137695,-0.1560669,-0.8567505,0.203125,-0.21875,0.1875
1696253917193,-0.4169922,-0.15802002,-0.87042236,-0.234375,-0.390625,0.0
1696253917213,-0.41723633,-0.15142822,-0.8740845,-0.53125,-0.28125,0.359375
1696253917232,-0.41796875,-0.16070557,-0.8699341,-0.421875,-0.21875,0.296875
1696253917272,-0.41845703,-0.15142822,-0.8682251,0.0625,-0.34375,0.1875
1696253917313,-0.42041016,-0.15216064,-0.8701782,0.015625,-0.609375,0.28125
1696253917353,-0.41601562,-0.15411377,-0.86968994,0.171875,-0.265625,0.203125
1696253917414,-0.42016602,-0.15435791,-0.86798096,-0.046875,-0.25,0.234375
1696253917432,-0.41870117,-0.15435791,-0.866272,0.046875,-0.265625,0.1875
1696253917475,-0.41503906,-0.16241455,-0.8648071,-0.078125,-0.296875,0.15625
1696253917514,-0.41918945,-0.15484619,-0.8621216,-0.390625,-0.453125,0.125
1696253917553,-0.41992188,-0.1609497,-0.8748169,-0.34375,-0.5,0.234375
1696253917596,-0.4152832,-0.15484619,-0.86968994,-0.09375,-0.296875,0.1875
1696253917635,-0.42114258,-0.15167236,-0.8665161,-0.265625,-0.40625,0.1875
1696253917673,-0.4152832,-0.159729,-0.86505127,-0.171875,-0.421875,0.140625
1696253917715,-0.4165039,-0.15753174,-0.8718872,-0.328125,-0.46875,0.078125
1696253917755,-0.42211914,-0.16339111,-0.8633423,0.015625,-0.375,0.140625
1696253917794,-0.4169922,-0.15411377,-0.8648071,-0.171875,-0.328125,0.0
1696253917833,-0.41381836,-0.159729,-0.86968994,-0.125,-0.234375,0.1875
1696253917897,-0.42333984,-0.15460205,-0.86431885,-0.1875,-0.203125,0.265625
1696253917912,-0.41552734,-0.16168213,-0.8726196,-0.25,-0.515625,0.359375
1696253917976,-0.41870117,-0.15557861,-0.8711548,-0.15625,-0.390625,0.1875
1696253917992,-0.4182129,-0.15679932,-0.8665161,-0.09375,-0.671875,0.140625
1696253918052,-0.41601562,-0.1572876,-0.8616333,0.078125,-0.4375,0.0625
1696253918094,-0.41992188,-0.16168213,-0.8616333,0.125,-0.359375,0.140625
1696253918112,-0.41796875,-0.15118408,-0.8640747,0.09375,-0.140625,0.140625
1696253918152,-0.41967773,-0.15386963,-0.8687134,0.140625,-0.4375,0.328125
1696253918193,-0.42114258,-0.15557861,-0.86846924,-0.09375,-0.515625,0.046875
1696253918234,-0.4194336,-0.15167236,-0.86553955,0.03125,-0.203125,0.171875
1696253918274,-0.4140625,-0.15435791,-0.86602783,-0.03125,-0.53125,0.109375
1696253918315,-0.41259766,-0.15753174,-0.8665161,-0.296875,-0.375,0.265625
1696253918354,-0.41992188,-0.15557861,-0.8701782,-0.25,-0.3125,0.390625
1696253918395,-0.41967773,-0.15509033,-0.8723755,-0.109375,-0.296875,0.0625
1696253918434,-0.42016602,-0.16070557,-0.8689575,0.109375,-0.515625,0.171875
1696253918496,-0.41601562,-0.15753174,-0.86016846,0.140625,-0.3125,0.265625
1696253918533,-0.42016602,-0.15142822,-0.866272,-0.078125,-0.34375,0.265625
1696253918540,-0.4206543,-0.15435791,-0.86968994,-0.34375,-0.28125,0.203125
1696253918575,-0.4182129,-0.15264893,-0.86846924,-0.1875,-0.546875,0.234375
1696253918613,-0.4152832,-0.15557861,-0.8694458,-0.265625,-0.265625,0.09375
1696253918656,-0.42285156,-0.14703369,-0.8633423,-0.078125,-0.390625,0.171875
1696253918694,-0.42016602,-0.15582275,-0.8718872,-0.28125,-0.4375,0.234375
1696253918733,-0.42333984,-0.15875244,-0.8674927,-0.078125,-0.234375,0.203125
1696253918777,-0.41918945,-0.15777588,-0.8640747,-0.296875,-0.328125,0.203125
1696253918813,-0.4165039,-0.16314697,-0.8718872,-0.25,-0.359375,0.234375
1696253918854,-0.4169922,-0.159729,-0.86065674,-0.203125,-0.328125,0.21875
1696253918895,-0.42749023,-0.15826416,-0.8687134,-0.1875,-0.625,0.171875
1696253918933,-0.4189453,-0.15386963,-0.864563,-0.25,-0.515625,0.21875
1696253918973,-0.4152832,-0.1560669,-0.8682251,-0.09375,-0.5,0.234375
1696253919015,-0.41918945,-0.15582275,-0.8701782,-0.171875,-0.578125,0.109375
1696253919053,-0.4140625,-0.15826416,-0.8652954,-0.0625,-0.375,0.109375
1696253919096,-0.4182129,-0.15338135,-0.86431885,0.015625,-0.234375,0.046875
1696253919135,-0.41625977,-0.16217041,-0.8596802,0.046875,-0.453125,0.203125
1696253919173,-0.4194336,-0.15020752,-0.87042236,-0.203125,-0.59375,0.15625
1696253919213,-0.41479492,-0.16070557,-0.8735962,-0.03125,-0.140625,0.1875
1696253919252,-0.41601562,-0.15753174,-0.86187744,-0.171875,-0.5,0.21875
1696253919294,-0.42407227,-0.16143799,-0.86724854,0.078125,-0.53125,0.15625
1696253919337,-0.41796875,-0.15777588,-0.8735962,-0.15625,-0.4375,0.125
1696253919374,-0.41674805,-0.16241455,-0.86846924,-0.171875,-0.390625,0.0625
1696253919414,-0.41479492,-0.15997314,-0.864563,0.078125,-0.359375,0.171875
1696253919453,-0.41479492,-0.1572876,-0.8665161,0.109375,-0.25,0.125
1696253919493,-0.41235352,-0.16241455,-0.86431885,0.671875,-0.03125,0.09375
1696253919533,-0.4243164,-0.14898682,-0.8694458,0.875,-0.40625,0.0625
1696253919573,-0.41674805,-0.15386963,-0.86383057,0.421875,-0.109375,0.203125
1696253919613,-0.42456055,-0.15533447,-0.87213135,0.875,-0.4375,-0.03125
1696253919653,-0.41992188,-0.15362549,-0.87823486,0.015625,-1.15625,0.171875
1696253919695,-0.42041016,-0.15118408,-0.86920166,0.0625,-0.59375,0.265625
1696253919736,-0.41723633,-0.14605713,-0.8508911,-0.03125,-1.078125,0.09375
1696253919773,-0.4169922,-0.15264893,-0.86676025,0.0,-0.578125,0.265625
1696253919838,-0.41381836,-0.1572876,-0.87164307,-0.296875,-0.71875,0.203125
1696253919842,-0.42138672,-0.15582275,-0.8740845,-0.578125,-0.375,0.25
1696253919874,-0.41503906,-0.15118408,-0.86968994,0.03125,-0.296875,0.0625
1696253919976,-0.41430664,-0.15509033,-0.86724854,-0.09375,-0.34375,0.234375
1696253919979,-0.41723633,-0.15020752,-0.8677368,-0.046875,-0.265625,0.15625
1696253919992,-0.41845703,-0.1560669,-0.85894775,0.234375,-0.078125,0.09375
1696253920053,-0.4169922,-0.15533447,-0.8604126,0.0625,-0.546875,0.03125
1696253920094,-0.41870117,-0.15289307,-0.8706665,-0.0625,-0.59375,0.0625
1696253920112,-0.4194336,-0.15753174,-0.8765259,-0.015625,-0.53125,0.21875
1696253920154,-0.42138672,-0.15362549,-0.8753052,-0.015625,-0.375,0.234375
1696253920192,-0.41333008,-0.1560669,-0.87457275,-0.0625,-0.328125,0.21875
1696253920255,-0.41333008,-0.1519165,-0.861145,0.140625,-0.21875,0.203125
1696253920271,-0.41845703,-0.1531372,-0.8652954,-0.203125,-0.171875,0.09375
1696253920315,-0.4165039,-0.15704346,-0.8701782,-0.265625,-0.234375,0.046875
1696253920353,-0.4189453,-0.15240479,-0.87213135,-0.0625,-0.25,0.125
1696253920396,-0.4189453,-0.14508057,-0.86724854,-0.125,-0.3125,0.203125
1696253920434,-0.41455078,-0.1585083,-0.8792114,-0.25,-0.46875,0.21875
1696253920472,-0.4111328,-0.14971924,-0.862854,-0.015625,-0.265625,0.125
1696253920515,-0.4140625,-0.15264893,-0.8718872,-0.09375,-0.484375,0.140625
1696253920552,-0.41259766,-0.15802002,-0.8694458,0.203125,-0.078125,0.125
1696253920594,-0.4182129,-0.1585083,-0.8682251,-0.109375,-0.484375,0.09375
1696253920633,-0.41967773,-0.15704346,-0.87457275,0.015625,-0.265625,0.15625
1696253920673,-0.4189453,-0.15679932,-0.8726196,0.015625,-0.59375,0.171875
1696253920736,-0.4128418,-0.15240479,-0.8635864,-0.265625,-0.25,0.171875
1696253920752,-0.42089844,-0.15411377,-0.8689575,-0.34375,-0.359375,0.140625
1696253920816,-0.41625977,-0.15655518,-0.8726196,-0.015625,-0.40625,0.125
1696253920832,-0.41552734,-0.14849854,-0.87286377,-0.078125,-0.328125,0.09375
1696253920873,-0.42358398,-0.1585083,-0.86920166,-0.015625,-0.5625,0.078125
1696253920913,-0.4194336,-0.15826416,-0.87042236,-0.25,-0.34375,0.203125
1696253920954,-0.4165039,-0.15679932,-0.86798096,0.109375,-0.1875,0.171875
1696253921018,-0.42382812,-0.15509033,-0.8604126,0.203125,-0.3125,0.125
1696253921054,-0.41503906,-0.15509033,-0.8670044,0.0625,-0.328125,0.125
1696253921097,-0.4194336,-0.15509033,-0.8699341,0.078125,-0.296875,0.21875
1696253921112,-0.42358398,-0.15167236,-0.8723755,-0.15625,-0.5,0.34375
1696253921132,-0.41674805,-0.15411377,-0.86553955,-0.0625,-0.4375,0.09375
1696253921173,-0.4165039,-0.15460205,-0.8674927,-0.140625,-0.4375,0.1875
1696253921214,-0.41479492,-0.1506958,-0.862854,-0.140625,-0.296875,0.09375
1696253921255,-0.41796875,-0.15631104,-0.86846924,-0.171875,-0.4375,0.09375
1696253921292,-0.42260742,-0.15679932,-0.86846924,-0.15625,-0.5,0.1875
1696253921335,-0.4182129,-0.1506958,-0.8616333,-0.078125,-0.21875,0.203125
1696253921375,-0.41357422,-0.15338135,-0.87628174,-0.0625,-0.34375,0.265625
1696253921415,-0.42163086,-0.15533447,-0.86553955,-0.234375,-0.390625,0.21875
1696253921453,-0.4177246,-0.15777588,-0.8723755,0.015625,-0.484375,0.0625
1696253921495,-0.4169922,-0.15338135,-0.87286377,0.015625,-0.46875,0.28125
1696253921533,-0.41723633,-0.15045166,-0.86309814,0.125,-0.46875,0.078125
1696253921574,-0.41381836,-0.15020752,-0.8718872,-0.125,-0.375,0.140625
1696253921615,-0.41723633,-0.15582275,-0.86676025,-0.09375,-0.265625,0.203125
1696253921654,-0.41625977,-0.15264893,-0.8648071,0.078125,-0.234375,0.078125
1696253921695,-0.42089844,-0.14752197,-0.8723755,-0.203125,-0.375,0.171875
1696253921733,-0.41870117,-0.14849854,-0.8657837,-0.28125,-0.375,0.234375
1696253921774,-0.41918945,-0.15679932,-0.8694458,-0.109375,-0.3125,0.125
1696253921815,-0.41674805,-0.15411377,-0.8765259,-0.21875,-0.421875,0.234375
1696253921854,-0.4152832,-0.15679932,-0.86505127,-0.171875,-0.359375,0.234375
1696253921894,-0.4169922,-0.15679932,-0.8687134,-0.140625,-0.515625,0.171875
1696253921937,-0.42358398,-0.15509033,-0.8726196,0.03125,-0.4375,0.296875
1696253921974,-0.4169922,-0.15704346,-0.86309814,-0.015625,-0.25,0.265625
1696253922015,-0.4182129,-0.15435791,-0.87042236,-0.140625,-0.546875,0.109375
1696253922053,-0.41479492,-0.16143799,-0.8687134,-0.140625,-0.5,0.15625
1696253922094,-0.4169922,-0.15435791,-0.8689575,0.015625,-0.359375,0.15625
1696253922134,-0.41870117,-0.15093994,-0.8652954,-0.078125,-0.375,0.125
1696253922178,-0.41723633,-0.15411377,-0.8701782,-0.203125,-0.640625,0.296875
1696253922213,-0.42285156,-0.15142822,-0.87335205,-0.203125,-0.5,-0.015625
1696253922254,-0.41748047,-0.1560669,-0.86602783,-0.015625,-0.34375,0.171875
1696253922292,-0.41357422,-0.15435791,-0.8689575,-0.15625,-0.453125,0.125
1696253922333,-0.42016602,-0.159729,-0.86920166,-0.21875,-0.328125,0.203125
1696253922375,-0.41503906,-0.1572876,-0.8657837,0.25,-0.203125,0.109375
1696253922414,-0.41870117,-0.15435791,-0.8689575,0.03125,-0.453125,0.203125
1696253922452,-0.42041016,-0.15655518,-0.8723755,0.046875,-0.4375,0.15625
1696253922473,-0.4177246,-0.15655518,-0.87164307,0.15625,-0.4375,0.1875
1696253922514,-0.41748047,-0.15093994,-0.8701782,0.34375,-0.375,0.015625
1696253922573,-0.4189453,-0.15216064,-0.86553955,0.578125,-0.328125,0.078125
1696253922593,-0.42163086,-0.15167236,-0.864563,0.546875,-0.125,-0.046875
1696253922634,-0.41723633,-0.14727783,-0.87042236,0.234375,-0.296875,0.046875
1696253922675,-0.41870117,-0.15020752,-0.86553955,0.34375,-0.171875,0.0625
1696253922715,-0.41479492,-0.15289307,-0.8687134,0.171875,-0.203125,0.1875
1696253922755,-0.41381836,-0.14654541,-0.8718872,0.078125,-0.390625,-0.015625
1696253922792,-0.42016602,-0.14678955,-0.8777466,-0.25,-0.53125,0.125
1696253922836,-0.41748047,-0.14678955,-0.86505127,-0.28125,-0.296875,0.1875
1696253922874,-0.41992188,-0.15240479,-0.8694458,-0.3125,-0.046875,0.265625
1696253922937,-0.41992188,-0.14898682,-0.86602783,-0.296875,-0.421875,0.3125
1696253922952,-0.4243164,-0.1506958,-0.87164307,-0.875,-0.578125,0.3125
1696253923017,-0.42114258,-0.14923096,-0.8674927,-0.40625,-0.109375,0.1875
1696253923032,-0.42211914,-0.15484619,-0.8743286,-0.59375,-0.640625,0.3125
1696253923093,-0.42016602,-0.15240479,-0.86431885,-0.109375,-0.65625,0.328125
1696253923113,-0.41796875,-0.15289307,-0.8518677,-0.1875,-0.4375,0.234375
1696253923176,-0.42529297,-0.1494751,-0.87457275,-0.65625,-0.8125,0.296875
1696253923214,-0.42211914,-0.16241455,-0.87823486,-0.0625,-0.796875,0.125
1696253923232,-0.41992188,-0.15264893,-0.8633423,-0.265625,-0.421875,0.28125
1696253923272,-0.41845703,-0.15411377,-0.87506104,0.0,-0.203125,0.0625
1696253923313,-0.4194336,-0.15362549,-0.8609009,0.15625,-0.359375,0.125
1696253923356,-0.4099121,-0.15411377,-0.8599243,0.21875,-0.59375,0.109375
1696253923392,-0.42333984,-0.15533447,-0.862854,0.109375,-0.34375,0.1875
1696253923433,-0.41845703,-0.15509033,-0.87213135,-0.140625,-0.5625,0.1875
1696253923473,-0.4194336,-0.15875244,-0.88238525,-0.046875,-0.296875,0.140625
1696253923513,-0.42016602,-0.15753174,-0.87042236,0.046875,-0.484375,0.015625
1696253923553,-0.41259766,-0.15679932,-0.86383057,-0.015625,-0.453125,0.171875
1696253923592,-0.41870117,-0.1494751,-0.86065674,-0.0625,-0.4375,0.21875
1696253923634,-0.41333008,-0.15557861,-0.8635864,0.03125,-0.34375,0.15625
1696253923695,-0.42114258,-0.15826416,-0.86553955,0.203125,-0.328125,0.125
1696253923713,-0.42260742,-0.15826416,-0.86920166,-0.140625,-0.5,0.171875
1696253923777,-0.42382812,-0.15753174,-0.8743286,-0.0625,-0.453125,0.15625
1696253923780,-0.42041016,-0.15435791,-0.87457275,-0.0625,-0.640625,0.0625
1696253923817,-0.41845703,-0.15020752,-0.8657837,0.203125,-0.265625,0.03125
1696253923898,-0.41796875,-0.15338135,-0.8713989,-0.1875,-0.453125,0.34375
1696253923902,-0.4169922,-0.15167236,-0.87286377,0.15625,-0.3125,0.09375
1696253923938,-0.4169922,-0.1531372,-0.86505127,0.359375,-0.28125,0.03125
1696253923975,-0.4206543,-0.1482544,-0.87628174,0.015625,-0.484375,0.21875
1696253924013,-0.4194336,-0.1531372,-0.8809204,0.03125,-0.3125,0.125
1696253924054,-0.41577148,-0.15338135,-0.86138916,-0.046875,-0.3125,0.234375
1696253924094,-0.4091797,-0.15240479,-0.85821533,-0.15625,-0.328125,0.21875
1696253924133,-0.41479492,-0.1519165,-0.866272,-0.21875,-0.625,0.171875
1696253924173,-0.4182129,-0.15216064,-0.86676025,0.046875,-0.4375,0.125
1696253924213,-0.42333984,-0.15093994,-0.8657837,-0.1875,-0.140625,-0.015625
1696253924254,-0.42041016,-0.15240479,-0.87677,-0.015625,-0.484375,0.109375
1696253924293,-0.42016602,-0.14630127,-0.8652954,0.03125,-0.390625,0.109375
1696253924333,-0.4194336,-0.15460205,-0.8699341,-0.1875,-0.5,0.1875
1696253924373,-0.4165039,-0.15240479,-0.86676025,-0.03125,-0.578125,0.0
1696253924413,-0.421875,-0.15411377,-0.86383057,0.109375,-0.25,-0.015625
1696253924453,-0.42504883,-0.15093994,-0.8674927,-0.109375,-0.4375,0.109375
1696253924493,-0.41992188,-0.15777588,-0.8694458,-0.21875,-0.484375,0.3125
1696253924534,-0.41674805,-0.15289307,-0.86798096,-0.375,-0.1875,0.28125
1696253924574,-0.41381836,-0.1531372,-0.86553955,-0.03125,-0.109375,0.015625
1696253924613,-0.42163086,-0.14849854,-0.8706665,-0.296875,-0.40625,0.28125
1696253924653,-0.4189453,-0.15362549,-0.87286377,-0.28125,-0.4375,0.265625
1696253924695,-0.41870117,-0.14923096,-0.8640747,0.09375,-0.34375,0.328125
1696253924733,-0.42114258,-0.15533447,-0.8699341,-0.078125,-0.5,0.1875
1696253924774,-0.421875,-0.15533447,-0.8735962,0.203125,-0.421875,0.109375
1696253924813,-0.4169922,-0.1482544,-0.8735962,0.0,-0.40625,0.265625
1696253924854,-0.41748047,-0.15582275,-0.86602783,-0.078125,-0.359375,0.15625
1696253924894,-0.41186523,-0.1560669,-0.8677368,-0.203125,-0.640625,0.234375
1696253924933,-0.4165039,-0.15826416,-0.8621216,-0.25,-0.375,0.046875
1696253924975,-0.41870117,-0.15216064,-0.87091064,-0.21875,-0.421875,0.171875
1696253925012,-0.41748047,-0.15118408,-0.862854,-0.0625,-0.390625,0.203125
1696253925053,-0.42749023,-0.15484619,-0.8718872,-0.171875,-0.328125,0.109375
1696253925074,-0.41674805,-0.15509033,-0.86676025,-0.28125,-0.421875,0.234375
1696253925113,-0.41796875,-0.15753174,-0.86846924,-0.1875,-0.328125,0.171875
1696253925154,-0.42407227,-0.15435791,-0.8726196,-0.265625,-0.25,0.125
1696253925194,-0.42089844,-0.1506958,-0.86798096,-0.125,-0.25,0.234375
1696253925234,-0.42114258,-0.1560669,-0.8748169,-0.21875,-0.59375,0.125
1696253925275,-0.41796875,-0.15289307,-0.8674927,-0.015625,-0.359375,0.09375
1696253925312,-0.41845703,-0.1519165,-0.86187744,0.09375,-0.421875,-0.0625
1696253925353,-0.41870117,-0.15264893,-0.8726196,-0.203125,-0.46875,0.140625
1696253925393,-0.42041016,-0.15216064,-0.86920166,-0.015625,-0.09375,0.125
1696253925455,-0.42260742,-0.15802002,-0.8652954,0.078125,-0.1875,0.1875
1696253925496,-0.4182129,-0.15142822,-0.8731079,-0.15625,-0.59375,0.171875
1696253925514,-0.41845703,-0.15289307,-0.8723755,0.015625,-0.1875,0.203125
1696253925554,-0.42163086,-0.15411377,-0.8687134,-0.09375,-0.34375,0.078125
1696253925595,-0.42504883,-0.15411377,-0.8713989,-0.046875,-0.5,0.078125
1696253925634,-0.42529297,-0.15802002,-0.8648071,0.015625,-0.328125,0.1875
1696253925674,-0.4206543,-0.1560669,-0.8706665,-0.203125,-0.25,0.21875
1696253925714,-0.42211914,-0.15704346,-0.8718872,-0.25,-0.421875,0.234375
1696253925774,-0.42919922,-0.15118408,-0.8689575,-0.078125,-0.28125,0.078125
1696253925792,-0.41577148,-0.16021729,-0.8706665,-0.078125,-0.5,0.125
1696253925833,-0.42529297,-0.15216064,-0.8604126,0.046875,-0.1875,0.125
1696253925878,-0.4194336,-0.15777588,-0.86187744,-0.0625,-0.390625,0.203125
1696253925944,-0.42114258,-0.1506958,-0.8599243,-0.15625,-0.25,0.296875
1696253925972,-0.4260254,-0.15338135,-0.8665161,-0.171875,-0.421875,0.296875
1696253925994,-0.42749023,-0.15557861,-0.86602783,-0.0625,-0.28125,0.078125
1696253926034,-0.4230957,-0.15093994,-0.866272,0.21875,-0.0625,0.078125
1696253926076,-0.4194336,-0.15509033,-0.85772705,0.34375,-0.21875,0.203125
1696253926116,-0.42016602,-0.15289307,-0.862854,-0.078125,-0.28125,0.140625
1696253926154,-0.4165039,-0.1560669,-0.86553955,-0.171875,-0.0625,0.25
1696253926193,-0.42749023,-0.15997314,-0.866272,-0.453125,-0.28125,0.15625
1696253926232,-0.41625977,-0.15386963,-0.86602783,0.0,-0.125,0.0625
1696253926274,-0.42358398,-0.15142822,-0.8574829,0.265625,-0.328125,0.171875
1696253926313,-0.42236328,-0.15435791,-0.87213135,0.0625,-0.359375,0.109375
1696253926354,-0.41748047,-0.15679932,-0.864563,0.234375,0.0625,0.125
1696253926394,-0.42797852,-0.15460205,-0.8743286,-0.578125,-0.59375,0.15625
1696253926412,-0.4260254,-0.15338135,-0.86846924,-0.203125,-0.25,0.1875
1696253926453,-0.42114258,-0.15435791,-0.8538208,-0.015625,-0.34375,0.078125
1696253926494,-0.42456055,-0.15435791,-0.8633423,-0.078125,-0.234375,0.1875
1696253926535,-0.42529297,-0.15460205,-0.8711548,-0.375,-0.703125,0.296875
1696253926574,-0.4194336,-0.15997314,-0.8550415,0.015625,-0.375,0.28125
1696253926616,-0.42260742,-0.1638794,-0.86431885,0.046875,-0.34375,0.125
1696253926653,-0.42578125,-0.15338135,-0.8670044,-0.125,-0.421875,0.265625
1696253926694,-0.4272461,-0.15484619,-0.86553955,0.125,-0.40625,0.125
1696253926735,-0.42797852,-0.15631104,-0.8677368,0.015625,-0.484375,0.15625
1696253926773,-0.41845703,-0.15557861,-0.86553955,0.0625,-0.328125,0.296875
1696253926813,-0.421875,-0.15655518,-0.8621216,-0.0625,-0.390625,0.296875
1696253926852,-0.42163086,-0.15631104,-0.8657837,-0.09375,-0.546875,0.0625
1696253926895,-0.4255371,-0.15338135,-0.8753052,-0.21875,-0.390625,0.125
1696253926933,-0.41674805,-0.15045166,-0.8657837,-0.09375,-0.1875,0.15625
1696253926974,-0.42871094,-0.15484619,-0.86798096,-0.640625,-0.34375,0.234375
1696253927015,-0.42163086,-0.15582275,-0.8674927,-0.296875,-0.234375,0.25
1696253927053,-0.4194336,-0.15924072,-0.86553955,-0.3125,-0.46875,0.21875
1696253927095,-0.42016602,-0.15777588,-0.86187744,0.015625,-0.28125,0.0625
1696253927132,-0.4189453,-0.15435791,-0.8648071,-0.203125,-0.375,0.296875
1696253927173,-0.42163086,-0.15484619,-0.8657837,-0.046875,-0.453125,0.203125
1696253927213,-0.4260254,-0.15875244,-0.8596802,0.03125,-0.296875,0.09375
1696253927254,-0.42285156,-0.15777588,-0.8677368,-0.078125,-0.4375,0.171875
1696253927293,-0.42797852,-0.15411377,-0.8633423,-0.171875,-0.53125,0.15625
1696253927334,-0.41577148,-0.15631104,-0.86431885,-0.28125,-0.328125,0.234375
1696253927373,-0.42211914,-0.15435791,-0.8604126,-0.203125,-0.5,0.234375
1696253927413,-0.42773438,-0.15679932,-0.8674927,0.046875,-0.234375,0.1875
1696253927453,-0.42211914,-0.15093994,-0.862854,0.015625,-0.421875,0.125
1696253927495,-0.42944336,-0.15582275,-0.8623657,0.0,-0.578125,0.140625
1696253927537,-0.42333984,-0.15679932,-0.8674927,-0.046875,-0.4375,0.3125
1696253927573,-0.4206543,-0.1531372,-0.8623657,-0.046875,-0.390625,0.125
1696253927616,-0.42382812,-0.15509033,-0.8670044,-0.125,-0.40625,0.125
1696253927654,-0.42089844,-0.15435791,-0.8652954,-0.515625,-0.21875,0.265625
1696253927696,-0.42333984,-0.15655518,-0.8694458,-1.046875,-0.453125,0.25
1696253927713,-0.4284668,-0.15753174,-0.8677368,-0.25,-0.453125,0.03125
1696253927755,-0.42041016,-0.16168213,-0.8635864,0.375,-0.703125,0.15625
1696253927839,-0.42016602,-0.15802002,-0.862854,1.546875,-0.234375,-0.171875
1696253927843,-0.42016602,-0.15386963,-0.86138916,1.5625,-0.234375,0.015625
1696253927875,-0.41723633,-0.1506958,-0.8677368,0.765625,0.109375,0.046875
1696253927915,-0.42626953,-0.15093994,-0.87286377,-0.65625,-0.140625,0.140625
1696253927955,-0.42260742,-0.15802002,-0.87628174,-0.578125,-0.1875,0.203125
1696253927993,-0.41967773,-0.15557861,-0.8694458,-0.140625,-0.09375,0.15625
1696253928033,-0.41723633,-0.15533447,-0.85479736,-0.0625,-0.53125,0.125
1696253928076,-0.42358398,-0.1494751,-0.862854,-0.171875,-0.8125,0.21875
1696253928114,-0.4267578,-0.15240479,-0.8689575,-0.03125,-0.671875,0.21875
1696253928157,-0.42333984,-0.15338135,-0.866272,-0.296875,-0.5,0.3125
1696253928218,-0.42797852,-0.15753174,-0.8735962,-0.03125,-0.796875,0.25
1696253928233,-0.41967773,-0.15704346,-0.8677368,-0.203125,-0.78125,0.125
1696253928273,-0.42407227,-0.15802002,-0.8677368,-0.1875,-0.46875,0.1875
1696253928335,-0.42651367,-0.15240479,-0.8689575,-0.109375,-0.34375,0.171875
1696253928354,-0.41967773,-0.15338135,-0.8587036,0.171875,-0.234375,0.171875
1696253928393,-0.42407227,-0.15118408,-0.85821533,0.359375,-0.625,0.28125
1696253928437,-0.42089844,-0.15020752,-0.8701782,0.125,-0.4375,0.171875
1696253928472,-0.4230957,-0.15484619,-0.8723755,0.140625,-0.375,0.15625
1696253928514,-0.41796875,-0.15704346,-0.8652954,0.203125,-0.46875,0.0625
1696253928556,-0.42358398,-0.1585083,-0.86676025,0.0625,-0.1875,-0.078125
1696253928594,-0.42114258,-0.15484619,-0.8640747,0.140625,-0.28125,0.078125
1696253928634,-0.4206543,-0.14971924,-0.8623657,0.21875,-0.34375,0.140625
1696253928672,-0.42138672,-0.15533447,-0.87164307,-0.171875,-0.390625,0.015625
1696253928715,-0.4140625,-0.14923096,-0.8699341,0.125,-0.234375,0.015625
1696253928756,-0.4206543,-0.1519165,-0.8687134,-0.265625,-0.484375,0.234375
1696253928794,-0.42626953,-0.14776611,-0.86138916,-0.09375,-0.390625,0.21875
1696253928834,-0.4140625,-0.15362549,-0.86260986,0.203125,-0.484375,0.265625
1696253928894,-0.4152832,-0.15338135,-0.85650635,0.015625,-0.328125,0.0625
1696253928935,-0.41967773,-0.15802002,-0.8753052,-0.1875,-0.625,0.171875
1696253928952,-0.4267578,-0.14923096,-0.8674927,-0.109375,-0.375,0.203125
1696253928993,-0.42651367,-0.15289307,-0.8711548,-0.046875,-0.375,0.171875
1696253929012,-0.42578125,-0.15533447,-0.8713989,-0.34375,-0.4375,0.203125
1696253929055,-0.4189453,-0.15240479,-0.86505127,0.046875,-0.46875,0.078125
1696253929094,-0.42138672,-0.15045166,-0.8689575,0.03125,-0.4375,0.078125
1696253929156,-0.4194336,-0.15386963,-0.87384033,-0.28125,-0.625,0.203125
1696253929172,-0.41479492,-0.14996338,-0.86505127,-0.078125,-0.328125,0.140625
1696253929213,-0.41552734,-0.14971924,-0.86676025,-0.15625,-0.46875,0.1875
1696253929254,-0.4255371,-0.15240479,-0.8648071,0.0,-0.453125,0.125
1696253929294,-0.41918945,-0.14801025,-0.8694458,-0.203125,-0.4375,0.15625
1696253929333,-0.41870117,-0.14874268,-0.86724854,-0.171875,-0.25,0.171875
1696253929373,-0.42895508,-0.15557861,-0.86383057,-0.15625,-0.1875,0.15625
1696253929412,-0.42236328,-0.15240479,-0.8652954,-0.0625,-0.453125,0.078125
1696253929454,-0.42016602,-0.14923096,-0.87042236,-0.109375,-0.390625,0.34375
1696253929514,-0.42163086,-0.15289307,-0.86968994,-0.09375,-0.4375,0.203125
1696253929534,-0.42529297,-0.15435791,-0.8699341,-0.03125,-0.5,0.15625
1696253929574,-0.42407227,-0.14996338,-0.8687134,-0.171875,-0.6875,0.296875
1696253929613,-0.41723633,-0.14898682,-0.8633423,-0.015625,-0.375,0.171875
1696253929654,-0.4182129,-0.15264893,-0.8623657,0.0625,-0.203125,0.1875
1696253929693,-0.42211914,-0.15460205,-0.8677368,0.015625,-0.28125,0.09375
1696253929735,-0.4248047,-0.14459229,-0.86505127,-0.328125,-0.5,0.15625
1696253929775,-0.42211914,-0.1531372,-0.86309814,-0.125,-0.375,0.140625
1696253929814,-0.4255371,-0.15264893,-0.86724854,-0.15625,-0.546875,0.078125
1696253929855,-0.42260742,-0.15509033,-0.8604126,0.0,-0.421875,0.109375
1696253929893,-0.42016602,-0.15216064,-0.878479,-0.34375,-0.484375,0.15625
1696253929936,-0.41967773,-0.15240479,-0.8621216,0.015625,0.046875,0.125
1696253929974,-0.42333984,-0.1519165,-0.8713989,-0.328125,-0.734375,0.171875
1696253930015,-0.42089844,-0.1531372,-0.8682251,-0.03125,-0.296875,0.15625
1696253930053,-0.41430664,-0.14923096,-0.85894775,0.03125,-0.25,-0.046875
1696253930093,-0.41845703,-0.15704346,-0.85528564,0.109375,-0.21875,0.140625
1696253930135,-0.41918945,-0.15533447,-0.86138916,-0.03125,-0.59375,0.15625
1696253930176,-0.4182129,-0.15460205,-0.8689575,-0.0625,-0.265625,-0.03125
1696253930213,-0.42358398,-0.1519165,-0.8648071,0.0,-0.328125,0.09375
1696253930256,-0.42407227,-0.15484619,-0.8682251,-0.234375,-0.46875,0.09375
1696253930295,-0.41992188,-0.15875244,-0.8701782,-0.171875,-0.5,0.078125
1696253930333,-0.42358398,-0.15826416,-0.8652954,-0.140625,-0.296875,0.28125
1696253930353,-0.42041016,-0.15142822,-0.85894775,-0.0625,-0.328125,0.0625
1696253930393,-0.42797852,-0.14971924,-0.8713989,-0.0625,-0.53125,0.078125
1696253930434,-0.41796875,-0.14996338,-0.8689575,-0.140625,-0.1875,0.09375
1696253930494,-0.4260254,-0.15289307,-0.86553955,-0.296875,-0.25,0.0625
1696253930514,-0.42578125,-0.15142822,-0.86724854,-0.0625,-0.203125,0.34375
1696253930556,-0.4189453,-0.15484619,-0.86602783,-0.390625,-0.53125,0.15625
1696253930594,-0.4230957,-0.15386963,-0.86138916,-0.03125,-0.484375,0.21875
1696253930635,-0.42211914,-0.15411377,-0.8635864,-0.015625,-0.546875,0.078125
1696253930675,-0.42382812,-0.15679932,-0.8726196,-0.375,-0.59375,0.3125
1696253930713,-0.41552734,-0.15264893,-0.86505127,0.03125,-0.53125,0.1875
1696253930753,-0.42114258,-0.15777588,-0.8711548,0.03125,-0.296875,-0.015625
1696253930812,-0.41748047,-0.15264893,-0.86602783,0.109375,-0.234375,0.140625
1696253930831,-0.4230957,-0.15411377,-0.8665161,0.0,-0.25,0.1875
1696253930874,-0.42700195,-0.1494751,-0.8665161,0.03125,-0.546875,0.109375
1696253930914,-0.42333984,-0.15802002,-0.87042236,-0.09375,-0.515625,0.09375
1696253930953,-0.42700195,-0.15216064,-0.8699341,0.09375,-0.453125,0.03125
1696253930995,-0.41967773,-0.15753174,-0.86505127,0.109375,-0.578125,0.046875
1696253931034,-0.4243164,-0.15655518,-0.8682251,0.125,-0.5,0.125
1696253931073,-0.42041016,-0.14971924,-0.862854,0.234375,-0.3125,0.140625
1696253931114,-0.4248047,-0.1482544,-0.8706665,0.53125,-0.296875,0.140625
1696253931177,-0.42236328,-0.1519165,-0.86920166,-0.15625,-0.484375,0.125
1696253931193,-0.41967773,-0.15093994,-0.86138916,0.0,-0.796875,0.15625
1696253931256,-0.42260742,-0.15142822,-0.86602783,-0.265625,-0.71875,0.0625
1696253931294,-0.42138672,-0.15948486,-0.8809204,-0.265625,-0.234375,0.21875
1696253931312,-0.42114258,-0.14727783,-0.8677368,-0.03125,-0.203125,0.3125
1696253931352,-0.41601562,-0.15020752,-0.86676025,0.1875,-0.109375,0.296875
1696253931396,-0.4206543,-0.15631104,-0.8623657,-0.0625,-0.234375,0.09375
1696253931434,-0.42260742,-0.15411377,-0.87457275,-0.203125,-0.734375,0.21875
1696253931474,-0.42114258,-0.15411377,-0.86846924,-0.328125,-0.875,0.203125
1696253931515,-0.41918945,-0.15045166,-0.86846924,-0.296875,-0.703125,0.1875
1696253931554,-0.4182129,-0.15411377,-0.8621216,-0.421875,-0.65625,0.078125
1696253931595,-0.42016602,-0.1531372,-0.8599243,-0.5625,-0.734375,0.15625
1696253931657,-0.42504883,-0.15167236,-0.87042236,-0.265625,-0.6875,0.03125
1696253931661,-0.42163086,-0.15118408,-0.8701782,-0.015625,-0.5625,0.21875
1696253931696,-0.41625977,-0.1572876,-0.87579346,-0.03125,-0.671875,0.078125
1696253931776,-0.41333008,-0.15704346,-0.8677368,0.5,-0.703125,0.125
1696253931779,-0.41503906,-0.15240479,-0.87213135,-0.171875,-0.75,0.15625
1696253931813,-0.41601562,-0.15435791,-0.8743286,-0.765625,-0.75,0.265625
1696253931853,-0.41796875,-0.15582275,-0.86846924,-0.453125,-0.453125,0.328125
1696253931893,-0.4243164,-0.15582275,-0.86260986,0.0,-0.1875,-0.03125
1696253931935,-0.42041016,-0.1572876,-0.86676025,0.328125,-0.515625,0.109375
1696253931974,-0.4267578,-0.15679932,-0.8689575,0.4375,-0.625,0.203125
1696253932013,-0.4194336,-0.15802002,-0.8652954,0.375,-0.234375,0.125
1696253932053,-0.41967773,-0.15045166,-0.8699341,0.453125,-0.125,0.046875
1696253932094,-0.42211914,-0.14630127,-0.8711548,0.421875,-0.40625,0.078125
1696253932135,-0.4206543,-0.15582275,-0.8635864,0.15625,-0.421875,0.21875
1696253932174,-0.4182129,-0.15460205,-0.86383057,-0.078125,-0.34375,0.015625
1696253932212,-0.41552734,-0.15582275,-0.86260986,-0.125,-0.625,0.078125
1696253932253,-0.4182129,-0.15093994,-0.8723755,0.046875,-0.421875,0.140625
1696253932295,-0.41625977,-0.15411377,-0.8682251,-0.171875,-0.546875,0.171875
1696253932336,-0.42114258,-0.1531372,-0.8713989,0.0,-0.328125,0.125
1696253932374,-0.41210938,-0.15240479,-0.8640747,0.09375,-0.40625,0.140625
1696253932415,-0.42456055,-0.15020752,-0.86505127,0.09375,-0.421875,0.21875
1696253932454,-0.41479492,-0.1506958,-0.8699341,0.03125,-0.421875,0.234375
1696253932493,-0.42504883,-0.14752197,-0.8731079,-0.09375,-0.109375,0.1875
1696253932533,-0.41723633,-0.14898682,-0.86431885,-0.21875,-0.421875,0.203125
1696253932574,-0.42700195,-0.15020752,-0.86798096,-0.171875,-0.390625,0.265625
1696253932635,-0.41845703,-0.14923096,-0.86016846,0.171875,-0.421875,0.171875
1696253932652,-0.42407227,-0.1494751,-0.8640747,-0.078125,-0.4375,0.21875
1696253932693,-0.42114258,-0.14996338,-0.87213135,0.0625,-0.390625,0.1875
1696253932733,-0.41723633,-0.1506958,-0.86676025,-0.21875,-0.34375,0.09375
1696253932774,-0.4182129,-0.14434814,-0.8699341,-0.265625,-0.40625,0.109375
1696253932814,-0.4177246,-0.15118408,-0.86724854,-0.28125,-0.34375,0.203125
1696253932853,-0.41674805,-0.15264893,-0.87213135,-0.390625,-0.515625,0.265625
1696253932893,-0.41479492,-0.1482544,-0.8706665,-0.265625,-0.328125,0.140625
1696253932933,-0.4169922,-0.14801025,-0.8633423,-0.234375,-0.296875,0.265625
1696253932953,-0.42382812,-0.1531372,-0.86846924,-0.25,-0.484375,0.125
1696253932994,-0.4189453,-0.14434814,-0.86724854,0.03125,-0.125,0.15625
1696253933034,-0.42016602,-0.1506958,-0.8718872,-0.390625,-0.578125,0.21875
1696253933072,-0.42382812,-0.15264893,-0.86920166,-0.03125,-0.28125,0.28125
1696253933134,-0.42016602,-0.1531372,-0.86016846,-0.3125,-0.28125,0.25
1696253933174,-0.41748047,-0.1519165,-0.86602783,0.015625,-0.171875,0.171875
1696253933214,-0.41967773,-0.14923096,-0.8694458,-0.234375,-0.421875,0.203125
1696253933256,-0.42163086,-0.14996338,-0.8694458,0.03125,-0.265625,0.171875
1696253933273,-0.4169922,-0.1560669,-0.8701782,-0.34375,-0.359375,0.203125
1696253933313,-0.421875,-0.15386963,-0.86798096,0.015625,-0.484375,0.21875
1696253933373,-0.4177246,-0.15655518,-0.8701782,0.03125,-0.140625,0.1875
1696253933395,-0.4182129,-0.15289307,-0.8657837,-0.03125,-0.234375,0.078125
1696253933435,-0.42138672,-0.14898682,-0.8706665,-0.296875,-0.046875,0.15625
1696253933499,-0.42285156,-0.15264893,-0.87042236,-0.40625,-0.28125,0.328125
1696253933533,-0.4194336,-0.15802002,-0.864563,0.0,-0.1875,0.125
1696253933553,-0.41918945,-0.14874268,-0.8623657,-0.03125,-0.234375,0.0625
1696253933594,-0.4177246,-0.15631104,-0.8701782,-0.046875,-0.484375,0.171875
1696253933634,-0.42163086,-0.15460205,-0.8701782,-0.3125,-0.46875,0.265625
1696253933675,-0.42211914,-0.15386963,-0.8648071,-0.015625,-0.234375,0.078125
1696253933714,-0.42407227,-0.14923096,-0.87506104,-0.015625,-0.484375,0.265625
1696253933754,-0.4230957,-0.15289307,-0.8657837,0.21875,-0.546875,0.21875
1696253933794,-0.41210938,-0.14996338,-0.85772705,0.453125,-0.484375,0.15625
1696253933854,-0.41577148,-0.1453247,-0.85894775,0.484375,-0.40625,0.078125
1696253933894,-0.42260742,-0.15118408,-0.8677368,0.078125,-0.09375,0.21875
1696253933914,-0.4189453,-0.14605713,-0.8635864,-0.328125,-0.046875,0.171875
1696253933977,-0.42211914,-0.15240479,-0.8677368,0.0625,0.0625,0.171875
1696253933992,-0.42236328,-0.15386963,-0.86431885,0.34375,-0.015625,0.03125
1696253934033,-0.42626953,-0.15264893,-0.8652954,-0.5,-0.453125,0.03125
1696253934096,-0.43408203,-0.15020752,-0.8706665,-0.984375,-0.546875,0.203125
1696253934133,-0.42382812,-0.15704346,-0.8569946,-0.375,-0.0625,0.234375
1696253934153,-0.42041016,-0.1531372,-0.8604126,-0.4375,-0.109375,0.15625
1696253934194,-0.4248047,-0.15338135,-0.86798096,-0.125,-0.546875,0.09375
1696253934232,-0.4255371,-0.15655518,-0.8657837,-0.046875,-0.4375,0.15625
1696253934275,-0.41992188,-0.16168213,-0.87091064,-0.234375,-0.703125,0.375
1696253934296,-0.41992188,-0.15386963,-0.86016846,-0.171875,-0.390625,0.203125
1696253934333,-0.42114258,-0.1506958,-0.8657837,-0.25,-0.484375,0.3125
1696253934374,-0.4194336,-0.15118408,-0.8616333,-0.515625,-0.4375,0.28125
1696253934413,-0.42138672,-0.15753174,-0.8713989,-0.5625,-0.265625,0.109375
1696253934456,-0.41870117,-0.15679932,-0.8677368,-0.1875,-0.4375,0.109375
1696253934493,-0.42407227,-0.15435791,-0.8694458,0.0,-0.4375,0.15625
1696253934534,-0.42163086,-0.16290283,-0.86920166,-0.0625,-0.375,0.125
1696253934573,-0.42651367,-0.16217041,-0.8711548,-0.25,-0.515625,0.15625
1696253934617,-0.4189453,-0.15924072,-0.85650635,0.0625,-0.125,0.0625
1696253934654,-0.42211914,-0.15460205,-0.86016846,-0.15625,-0.546875,0.203125
1696253934694,-0.42773438,-0.15997314,-0.8687134,-0.140625,-0.453125,0.25
1696253934734,-0.4267578,-0.15411377,-0.8718872,-0.125,-0.34375,0.1875
1696253934775,-0.42797852,-0.15899658,-0.8674927,-0.21875,-0.546875,0.203125
1696253934814,-0.42016602,-0.15924072,-0.85894775,-0.296875,-0.546875,0.234375
1696253934857,-0.4230957,-0.15777588,-0.86260986,-0.234375,-0.296875,0.15625
1696253934895,-0.42407227,-0.15557861,-0.8616333,-0.125,-0.296875,0.265625
1696253934933,-0.42236328,-0.15484619,-0.8687134,-0.046875,-0.28125,0.140625
1696253934974,-0.42163086,-0.15704346,-0.8616333,0.0625,-0.65625,0.15625
1696253935013,-0.42529297,-0.1560669,-0.8726196,-0.015625,-0.390625,0.125
1696253935053,-0.4169922,-0.15899658,-0.8633423,0.125,-0.25,0.28125
1696253935095,-0.42016602,-0.15435791,-0.864563,-0.171875,-0.40625,0.234375
1696253935133,-0.42016602,-0.16119385,-0.864563,-0.0625,-0.5625,0.28125
1696253935174,-0.42138672,-0.15704346,-0.86065674,-0.21875,-0.5,0.234375
1696253935213,-0.4230957,-0.15753174,-0.86602783,-0.21875,-0.4375,0.09375
1696253935254,-0.42626953,-0.15411377,-0.862854,0.09375,-0.40625,0.28125
1696253935294,-0.41674805,-0.1585083,-0.8731079,-0.328125,-0.59375,0.171875
1696253935336,-0.42211914,-0.15460205,-0.86602783,-0.375,-0.484375,0.21875
1696253935373,-0.41796875,-0.16168213,-0.8623657,-0.21875,-0.296875,0.28125
1696253935414,-0.42456055,-0.16070557,-0.8674927,-0.171875,-0.40625,0.15625
1696253935454,-0.4255371,-0.16021729,-0.8718872,-0.21875,-0.390625,0.140625
1696253935493,-0.42626953,-0.15411377,-0.87384033,-0.421875,-0.515625,0.3125
1696253935535,-0.41992188,-0.15924072,-0.8640747,-0.03125,-0.3125,0.28125
1696253935594,-0.4165039,-0.16339111,-0.8665161,-0.046875,-0.484375,0.1875
1696253935597,-0.4230957,-0.15924072,-0.8609009,0.359375,-0.46875,-0.03125
1696253935634,-0.41967773,-0.15435791,-0.86383057,0.15625,-0.171875,0.015625
1696253935735,-0.42626953,-0.16534424,-0.8718872,-0.21875,-0.546875,0.171875
1696253935738,-0.42016602,-0.1560669,-0.86968994,-0.21875,-0.390625,0.0
1696253935753,-0.42138672,-0.16168213,-0.86138916,0.046875,-0.21875,0.125
1696253935793,-0.42138672,-0.16143799,-0.8670044,-0.125,-0.5625,0.296875
1696253935855,-0.42993164,-0.1609497,-0.8682251,-0.265625,-0.453125,0.265625
1696253935873,-0.41748047,-0.15655518,-0.8687134,-0.25,-0.234375,0.296875
1696253935914,-0.4260254,-0.16119385,-0.86602783,-0.34375,-0.5,0.171875
1696253935953,-0.4230957,-0.14776611,-0.86187744,0.03125,-0.4375,0.203125
1696253935995,-0.4255371,-0.16070557,-0.8674927,0.109375,-0.140625,0.09375
1696253936036,-0.42578125,-0.16046143,-0.86676025,-0.25,-0.78125,0.125
1696253936076,-0.41455078,-0.16143799,-0.86431885,-0.296875,-0.53125,0.296875
1696253936113,-0.4255371,-0.16119385,-0.861145,-0.296875,-0.296875,0.21875
1696253936153,-0.41625977,-0.15826416,-0.8635864,-0.140625,-0.515625,0.171875
1696253936193,-0.42285156,-0.16168213,-0.86798096,0.09375,-0.515625,0.25
1696253936233,-0.4230957,-0.16485596,-0.86187744,-0.03125,-0.546875,0.09375
1696253936273,-0.4243164,-0.1560669,-0.86431885,-0.09375,-0.21875,0.234375
1696253936314,-0.42016602,-0.16436768,-0.87042236,0.046875,-0.265625,0.140625
1696253936354,-0.4230957,-0.16119385,-0.8648071,0.0625,-0.359375,0.0
1696253936396,-0.4206543,-0.15997314,-0.87091064,0.171875,-0.4375,-0.015625
1696253936434,-0.42236328,-0.1651001,-0.8621216,0.703125,-0.34375,-0.015625
1696253936476,-0.42260742,-0.15679932,-0.87286377,0.578125,-0.859375,0.0625
1696253936518,-0.41308594,-0.1572876,-0.85650635,1.515625,-0.65625,0.09375
1696253936555,-0.41210938,-0.15240479,-0.85943604,1.65625,-1.6875,-0.046875
1696253936593,-0.4206543,-0.15142822,-0.86553955,1.046875,-2.5,0.109375
1696253936637,-0.41967773,-0.15118408,-0.8875122,0.0,-1.171875,0.046875
1696253936676,-0.41992188,-0.1506958,-0.861145,-0.65625,0.09375,0.125
1696253936713,-0.4140625,-0.15826416,-0.86798096,-0.28125,-0.25,0.15625
1696253936755,-0.4182129,-0.15167236,-0.88165283,-0.203125,-0.609375,0.21875
1696253936795,-0.41308594,-0.15142822,-0.85040283,-0.9375,-0.9375,0.296875
1696253936833,-0.41210938,-0.15362549,-0.85235596,-0.921875,-0.359375,0.21875
1696253936917,-0.42382812,-0.14801025,-0.8821411,-0.546875,-0.578125,0.25
1696253936920,-0.41992188,-0.16168213,-0.88238525,-0.46875,-0.546875,0.375
1696253936934,-0.4116211,-0.15045166,-0.8587036,-0.484375,0.109375,0.234375
1696253936994,-0.41381836,-0.16192627,-0.8701782,-0.265625,-0.203125,0.171875
1696253937013,-0.41357422,-0.15557861,-0.86505127,0.59375,0.09375,-0.015625
1696253937054,-0.42285156,-0.1494751,-0.8633423,0.421875,-0.25,0.109375
1696253937094,-0.42211914,-0.1519165,-0.8701782,0.171875,-0.421875,0.21875
1696253937134,-0.40893555,-0.15240479,-0.8682251,-0.0625,-0.171875,0.265625
1696253937196,-0.42138672,-0.15557861,-0.8731079,0.140625,-0.296875,-0.015625
1696253937212,-0.41479492,-0.159729,-0.85772705,0.296875,-0.390625,0.09375
1696253937254,-0.4206543,-0.15460205,-0.87286377,-0.09375,-0.421875,0.234375
1696253937295,-0.40795898,-0.15460205,-0.86676025,-0.1875,-0.46875,0.15625
1696253937336,-0.4177246,-0.15264893,-0.87164307,-0.28125,-0.375,0.109375
1696253937373,-0.41918945,-0.15509033,-0.8687134,0.0,-0.28125,0.015625
1696253937413,-0.4165039,-0.15655518,-0.864563,-0.015625,-0.34375,0.015625
1696253937454,-0.41186523,-0.1531372,-0.86187744,0.015625,-0.390625,0.203125
1696253937495,-0.42626953,-0.15509033,-0.86676025,-0.15625,-0.5625,0.203125
1696253937533,-0.41259766,-0.15704346,-0.8633423,-0.03125,-0.5625,0.140625
1696253937575,-0.41381836,-0.14898682,-0.8640747,0.03125,-0.265625,0.09375
1696253937636,-0.42285156,-0.15679932,-0.86968994,0.140625,-0.390625,0.09375
1696253937654,-0.41625977,-0.15509033,-0.8723755,-0.03125,-0.390625,0.234375
1696253937716,-0.4140625,-0.14849854,-0.84747314,0.03125,-0.34375,0.125
1696253937735,-0.41918945,-0.15167236,-0.8621216,0.171875,-0.375,0.21875
1696253937796,-0.4177246,-0.15289307,-0.878479,-0.03125,-0.234375,0.3125
1696253937812,-0.41748047,-0.15655518,-0.8670044,0.0,-0.109375,0.078125
1696253937852,-0.4169922,-0.15386963,-0.86968994,0.0625,-0.40625,0.09375
1696253937894,-0.41918945,-0.15289307,-0.8711548,0.0,-0.65625,0.125
1696253937934,-0.4189453,-0.15045166,-0.86724854,-0.109375,-0.375,0.265625
1696253937975,-0.42089844,-0.1519165,-0.86431885,-0.390625,-0.5,0.203125
1696253938013,-0.4140625,-0.15020752,-0.8713989,-0.125,-0.265625,0.296875
1696253938054,-0.41967773,-0.15118408,-0.87628174,-0.296875,-0.5,0.171875
1696253938093,-0.41088867,-0.15020752,-0.86553955,0.0,-0.296875,0.234375
1696253938135,-0.4140625,-0.1572876,-0.8687134,0.0625,-0.265625,0.109375
1696253938175,-0.41967773,-0.15533447,-0.86920166,-0.09375,-0.484375,0.140625
1696253938234,-0.42236328,-0.15533447,-0.8731079,-0.25,-0.390625,0.265625
1696253938237,-0.41796875,-0.14801025,-0.8648071,-0.125,-0.578125,0.21875
1696253938274,-0.41308594,-0.1572876,-0.8652954,0.046875,-0.328125,0.09375
1696253938314,-0.4152832,-0.15264893,-0.8591919,0.109375,-0.40625,0.0
1696253938355,-0.42016602,-0.15362549,-0.866272,-0.34375,-0.28125,0.265625
1696253938393,-0.4152832,-0.1572876,-0.87042236,-0.140625,-0.078125,0.140625
1696253938433,-0.4189453,-0.15142822,-0.8640747,-0.0625,-0.265625,0.265625
1696253938474,-0.41845703,-0.15020752,-0.87384033,-0.28125,-0.59375,0.21875
1696253938514,-0.4177246,-0.15679932,-0.87335205,0.171875,-0.1875,0.03125
1696253938555,-0.42163086,-0.15655518,-0.86724854,0.015625,-0.40625,0.140625
1696253938599,-0.41455078,-0.16070557,-0.8674927,-0.03125,-0.515625,0.203125
1696253938635,-0.41137695,-0.15386963,-0.8657837,-0.03125,-0.46875,0.234375
1696253938674,-0.41748047,-0.15362549,-0.87164307,-0.203125,-0.265625,0.296875
1696253938715,-0.4165039,-0.15753174,-0.864563,-0.375,-0.171875,0.25
1696253938755,-0.41967773,-0.15045166,-0.87579346,-0.234375,-0.375,0.296875
1696253938795,-0.42041016,-0.15753174,-0.87042236,-0.703125,-0.5,0.265625
1696253938838,-0.41235352,-0.15948486,-0.86431885,-0.203125,-0.09375,0.109375
1696253938874,-0.421875,-0.15484619,-0.85894775,-0.390625,-0.046875,0.234375
1696253938915,-0.4243164,-0.15704346,-0.8748169,-0.484375,-0.5,0.28125
1696253938954,-0.4189453,-0.15655518,-0.864563,-0.015625,-0.109375,0.3125
1696253938995,-0.41674805,-0.1560669,-0.86431885,-0.046875,-0.21875,0.15625
1696253939035,-0.41796875,-0.15899658,-0.87213135,-0.015625,-0.3125,0.171875
1696253939074,-0.4230957,-0.15045166,-0.8687134,-0.40625,-0.34375,0.234375
1696253939114,-0.42211914,-0.1609497,-0.86602783,-0.21875,-0.28125,0.15625
1696253939154,-0.41796875,-0.15655518,-0.8623657,-0.15625,-0.328125,0.234375
1696253939193,-0.41625977,-0.15093994,-0.86846924,-0.34375,-0.53125,0.015625
1696253939236,-0.4189453,-0.15362549,-0.86676025,-0.21875,-0.171875,0.21875
1696253939274,-0.41723633,-0.15533447,-0.86968994,-0.125,-0.3125,0.125
1696253939315,-0.4194336,-0.1560669,-0.8687134,0.203125,-0.3125,0.0
1696253939354,-0.41455078,-0.15533447,-0.8635864,-0.078125,-0.375,0.171875
1696253939396,-0.42626953,-0.15704346,-0.86920166,-0.234375,-0.46875,0.421875
1696253939435,-0.41918945,-0.16363525,-0.8677368,-0.359375,-0.578125,0.21875
1696253939473,-0.42016602,-0.15997314,-0.8713989,-0.21875,-0.40625,0.0625
1696253939536,-0.4140625,-0.15557861,-0.8621216,-0.140625,-0.3125,0.109375
1696253939539,-0.42407227,-0.15655518,-0.8701782,-0.203125,-0.5,0.1875
1696253939574,-0.41552734,-0.16046143,-0.8635864,-0.078125,-0.484375,0.328125
1696253939678,-0.4230957,-0.15948486,-0.866272,-0.234375,-0.28125,0.0
1696253939681,-0.43017578,-0.1560669,-0.8706665,-0.125,-0.171875,0.078125
1696253939694,-0.4243164,-0.1638794,-0.87628174,-0.078125,-0.546875,0.21875
1696253939734,-0.41674805,-0.15264893,-0.8604126,0.046875,-0.1875,0.28125
1696253939793,-0.42163086,-0.15997314,-0.8665161,-0.21875,-0.375,0.21875
1696253939834,-0.41967773,-0.159729,-0.86505127,0.078125,-0.515625,0.203125
1696253939854,-0.42407227,-0.1560669,-0.8755493,-0.140625,-0.515625,0.1875
1696253939895,-0.4177246,-0.15997314,-0.8677368,-0.234375,-0.375,0.203125
1696253939955,-0.42138672,-0.159729,-0.86676025,-0.109375,-0.25,0.03125
1696253939971,-0.41918945,-0.1572876,-0.8694458,-0.328125,-0.140625,0.125
1696253940033,-0.4177246,-0.16021729,-0.87091064,-0.390625,-0.390625,0.125
1696253940074,-0.42016602,-0.15924072,-0.8579712,-0.15625,-0.25,0.140625
1696253940095,-0.4267578,-0.1609497,-0.86309814,-0.109375,-0.75,0.21875
1696253940135,-0.42260742,-0.15533447,-0.87042236,-0.046875,-0.390625,0.125
1696253940176,-0.41479492,-0.15826416,-0.87335205,-0.21875,-0.296875,0.0
1696253940214,-0.4177246,-0.15753174,-0.8789673,-0.140625,-0.53125,0.203125
1696253940254,-0.42260742,-0.15631104,-0.8574829,0.015625,-0.296875,0.09375
1696253940296,-0.42333984,-0.15948486,-0.8652954,-0.015625,-0.5,0.15625
1696253940337,-0.41967773,-0.15875244,-0.86187744,-0.109375,-0.421875,0.15625
1696253940373,-0.42041016,-0.16290283,-0.861145,-0.171875,-0.5,0.1875
1696253940435,-0.42504883,-0.16192627,-0.8652954,-0.296875,-0.59375,0.0625
1696253940453,-0.41796875,-0.16192627,-0.8701782,-0.125,-0.484375,0.09375
1696253940494,-0.41625977,-0.15924072,-0.8699341,-0.140625,-0.4375,0.09375
1696253940534,-0.4182129,-0.159729,-0.862854,0.140625,-0.3125,0.140625
1696253940574,-0.41625977,-0.15557861,-0.8687134,-0.015625,-0.484375,0.015625
1696253940612,-0.42626953,-0.16046143,-0.8584595,-0.03125,-0.171875,0.140625
1696253940654,-0.42089844,-0.16265869,-0.8755493,-0.203125,-0.328125,0.1875
1696253940693,-0.4189453,-0.16583252,-0.8694458,-0.171875,-0.359375,0.203125
1696253940752,-0.4177246,-0.16217041,-0.8713989,-0.28125,-0.46875,0.328125
1696253940773,-0.41186523,-0.16192627,-0.8599243,-0.046875,-0.25,0.328125
1696253940814,-0.42089844,-0.15997314,-0.8713989,-0.203125,-0.328125,0.109375
1696253940834,-0.42163086,-0.15997314,-0.866272,-0.03125,-0.484375,0.296875
1696253940875,-0.42016602,-0.16046143,-0.8665161,0.171875,-0.4375,0.21875
1696253940913,-0.42285156,-0.1638794,-0.8567505,0.078125,-0.40625,0.0625
1696253940954,-0.41845703,-0.16119385,-0.86553955,0.0625,-0.296875,0.0625
1696253940996,-0.41918945,-0.16265869,-0.8657837,0.171875,-0.40625,0.171875
1696253941034,-0.42089844,-0.16070557,-0.862854,-0.171875,-0.28125,0.1875
1696253941077,-0.41845703,-0.15557861,-0.8718872,-0.234375,-0.546875,0.0
1696253941113,-0.4194336,-0.159729,-0.86676025,0.125,-0.328125,0.078125
1696253941154,-0.42114258,-0.15826416,-0.8665161,0.328125,-0.484375,0.03125
1696253941193,-0.4189453,-0.15899658,-0.8701782,0.765625,-0.3125,0.140625
1696253941233,-0.42456055,-0.16119385,-0.86553955,0.796875,-0.21875,0.125
1696253941272,-0.42163086,-0.16192627,-0.86431885,0.875,-0.34375,-0.109375
