# Sensor type: Respeck
# Activity type: Ascending stairs
# Activity subtype: Normal
# Subject id: s2106809
# Notes: unprocessed
timestamp,accel_x,accel_y,accel_z,gyro_x,gyro_y,gyro_z
1696258326930,0.19018555,-0.5635376,0.02166748,0.90625,0.90625,-3.5
1696258326970,0.053710938,-0.61260986,0.014343262,4.390625,-7.234375,4.1875
1696258327009,0.020996094,-0.71661377,-0.020568848,5.875,5.75,4.265625
1696258327050,-0.080566406,-0.7276001,-0.06427002,2.046875,9.515625,0.0
1696258327090,-0.021728516,-0.93292236,-0.09136963,4.328125,11.0,4.21875
1696258327129,0.1315918,-1.3442993,-0.09967041,-4.453125,7.796875,11.765625
1696258327189,0.15649414,-1.5588989,-0.1795044,-2.609375,6.359375,3.296875
1696258327196,0.13305664,-1.2097778,-0.11065674,-28.234375,-6.828125,9.046875
1696258327250,0.60791016,-1.2715454,0.0038452148,-17.421875,-2.875,13.671875
1696258327311,0.6188965,-1.1365356,-0.0947876,5.0625,-24.8125,-11.09375
1696258327316,0.34423828,-0.89801025,-0.0154418945,-9.890625,6.359375,6.78125
1696258327349,0.38793945,-0.83013916,-0.113342285,-5.328125,-8.296875,3.765625
1696258327389,0.43774414,-0.9199829,0.05609131,2.546875,-9.28125,-4.90625
1696258327431,0.28857422,-0.9314575,0.07635498,-9.328125,-2.15625,-0.4375
1696258327470,0.2084961,-0.7752075,0.018737793,-6.03125,-18.125,-5.234375
1696258327510,0.14404297,-0.66070557,0.04119873,3.53125,-20.03125,-6.984375
1696258327552,0.16113281,-0.6729126,0.090026855,2.765625,-10.8125,0.34375
1696258327591,0.1730957,-0.60284424,0.1071167,3.5,-9.203125,4.75
1696258327631,0.13012695,-0.5725708,0.09051514,7.640625,-16.65625,4.359375
1696258327671,0.020996094,-0.64263916,0.124938965,0.203125,-17.515625,7.6875
1696258327733,0.017822266,-0.83062744,0.19378662,-10.125,-0.6875,17.609375
1696258327752,0.24243164,-1.5239868,0.32244873,7.1875,12.96875,28.15625
1696258327792,0.546875,-2.0,0.23382568,12.890625,5.421875,-2.203125
1696258327830,0.5041504,-1.4778442,0.14251709,10.703125,-18.140625,-23.96875
1696258327870,0.5354004,-1.0645142,0.015319824,-17.546875,-5.0,-13.265625
1696258327911,0.103271484,-0.7415161,-0.13482666,-18.125,2.25,-18.453125
1696258327952,0.046142578,-0.6531372,-0.20977783,4.796875,-1.578125,-20.328125
1696258327989,0.18139648,-0.62506104,-0.065979004,-5.46875,6.4375,-3.109375
1696258328030,0.31518555,-0.77301025,0.0036010742,4.171875,10.640625,-1.515625
1696258328074,0.19604492,-1.0942993,0.012634277,6.125,-7.0,-4.46875
1696258328112,-0.06298828,-1.0960083,0.07122803,3.265625,-3.859375,-11.5
1696258328153,-0.11010742,-0.8286743,0.027526855,10.03125,9.328125,-10.765625
1696258328191,0.037109375,-0.7007446,-0.046691895,1.328125,13.953125,-7.75
1696258328231,0.12768555,-0.71221924,0.0524292,-2.734375,10.453125,0.21875
1696258328271,0.115478516,-0.6868286,0.105163574,1.859375,5.484375,1.765625
1696258328309,-0.0146484375,-0.67071533,0.053894043,0.796875,3.328125,4.140625
1696258328355,-0.13085938,-0.77716064,-0.04473877,7.71875,8.203125,7.703125
1696258328390,-0.048583984,-1.0689087,-0.05987549,6.171875,19.4375,15.703125
1696258328429,0.31713867,-1.5950317,0.049743652,30.984375,11.296875,22.421875
1696258328489,0.27661133,-1.451477,0.116882324,7.859375,-28.453125,11.53125
1696258328509,0.07006836,-1.6790161,-0.042053223,-20.921875,19.109375,29.15625
1696258328530,0.4091797,-1.4880981,-0.11529541,7.46875,-12.5,-1.0
1696258328570,0.28881836,-0.92755127,-0.05230713,5.46875,12.375,-20.359375
1696258328611,0.41259766,-0.5864868,-0.22149658,-12.984375,22.109375,-11.359375
1696258328650,0.41845703,-0.7173462,0.0036010742,-6.375,11.625,4.46875
1696258328691,0.33032227,-1.1773071,0.15960693,-22.234375,8.59375,9.34375
1696258328735,0.04711914,-1.144104,-0.031555176,-26.4375,-20.6875,-3.171875
1696258328771,0.14331055,-0.7078247,-0.046203613,-11.203125,-10.671875,-14.5
1696258328810,0.22460938,-0.32208252,0.027038574,-1.578125,2.203125,-6.125
1696258328850,0.18286133,-0.38531494,0.039489746,6.625,5.234375,8.09375
1696258328892,0.18017578,-0.5366821,0.034851074,9.390625,20.515625,17.890625
1696258328932,0.09448242,-0.6343384,0.06463623,-7.265625,-2.03125,18.015625
1696258328972,0.16796875,-0.6331177,0.3168335,-5.5625,-17.0,14.3125
1696258329010,-0.039794922,-1.0178833,0.04852295,13.578125,-10.140625,13.84375
1696258329052,0.13305664,-1.5010376,0.12908936,12.765625,30.796875,37.421875
1696258329089,0.33666992,-1.5879517,0.4730835,-4.046875,21.765625,19.15625
1696258329132,0.33374023,-1.6348267,0.44476318,-1.015625,11.40625,-9.1875
1696258329171,-0.04296875,-1.5083618,-0.237854,-0.359375,18.75,-14.0
1696258329210,0.60546875,-1.1399536,-0.16949463,13.109375,41.953125,-4.6875
1696258329250,0.20532227,-0.819397,-0.19390869,-3.421875,44.296875,-26.765625
1696258329289,0.38183594,-0.6712036,-0.36676025,-4.09375,30.3125,-18.1875
1696258329342,0.026123047,-0.6670532,-0.35992432,-39.5625,42.71875,-11.515625
1696258329369,-0.114746094,-0.80352783,-0.32281494,-57.25,55.59375,-12.34375
1696258329409,-0.07055664,-1.2620239,-0.21832275,-14.390625,65.09375,-12.609375
1696258329450,0.36914062,-1.1555786,-0.15631104,-11.671875,44.734375,-13.84375
1696258329490,0.23022461,-0.753479,-0.011291504,-12.15625,36.515625,-16.3125
1696258329530,0.0637207,-0.6992798,-0.010803223,-19.59375,26.8125,-8.59375
1696258329572,-0.04272461,-0.77008057,0.015808105,-14.15625,23.734375,1.484375
1696258329610,-0.068847656,-0.73321533,0.042663574,-5.3125,26.21875,-0.03125
1696258329650,-0.07055664,-0.72735596,0.030700684,-1.921875,29.125,-2.53125
1696258329691,-0.053222656,-0.7017212,-0.015686035,1.40625,24.703125,0.21875
1696258329731,-0.023925781,-0.74713135,-0.022766113,-7.765625,23.25,5.984375
1696258329789,0.111572266,-0.83843994,0.048034668,0.796875,26.734375,13.515625
1696258329811,0.12841797,-0.90753174,0.31707764,5.140625,12.90625,19.203125
1696258329829,-0.2548828,-1.6277466,0.13494873,15.1875,-5.625,21.546875
1696258329870,-0.2043457,-1.5108032,-0.20220947,8.25,3.46875,18.265625
1696258329911,0.33691406,-1.3953247,-0.3081665,-1.546875,7.28125,29.75
1696258329971,0.99609375,-1.7373657,0.06341553,8.734375,24.625,4.953125
1696258329988,0.3642578,-1.0474243,-0.27496338,3.484375,6.0,-12.53125
1696258330031,0.33911133,-0.68756104,-0.19537354,-12.390625,12.90625,-5.96875
1696258330073,0.30493164,-0.6177368,-0.21710205,-7.28125,22.9375,-6.375
1696258330109,0.37963867,-0.88482666,-0.10650635,-9.609375,23.546875,-2.21875
1696258330151,0.375,-1.0525513,-0.066711426,-17.28125,23.609375,-0.015625
1696258330191,0.34057617,-0.8423462,0.038757324,-10.375,17.203125,-10.140625
1696258330229,0.29589844,-0.6343384,0.05291748,-5.828125,7.21875,-9.328125
1696258330271,0.1586914,-0.66412354,0.031921387,-5.53125,6.8125,1.53125
1696258330310,0.037597656,-0.7415161,0.049987793,-7.46875,11.34375,7.734375
1696258330352,-0.0068359375,-0.82281494,0.032409668,-6.0,17.796875,4.0
1696258330390,0.042236328,-0.83013916,0.058044434,-0.984375,17.5625,2.890625
1696258330430,0.2836914,-0.9985962,0.11883545,3.4375,21.078125,10.953125
1696258330470,0.5629883,-1.321106,0.24676514,1.96875,8.8125,17.046875
1696258330513,0.099121094,-1.128479,0.03656006,0.84375,2.484375,-10.578125
1696258330570,-0.12207031,-1.270813,-0.1675415,-6.828125,11.484375,-8.875
1696258330590,0.27539062,-1.3030396,-0.33551025,21.953125,54.734375,-7.34375
1696258330630,0.40112305,-1.0256958,-0.14093018,14.796875,45.90625,-16.296875
1696258330671,0.43310547,-0.68878174,-0.12579346,-5.609375,18.71875,-11.546875
1696258330709,0.27807617,-0.71051025,-0.14556885,-25.75,7.515625,-8.90625
1696258330750,0.004638672,-0.8513794,-0.19805908,-26.875,8.09375,-0.84375
1696258330789,-0.1743164,-1.2280884,-0.19122314,-17.390625,18.90625,-1.515625
1696258330829,-0.049560547,-1.0903931,-0.008361816,1.046875,21.140625,-6.765625
1696258330868,0.2109375,-0.7036743,0.010681152,6.78125,28.5,-5.9375
1696258330909,0.22705078,-0.56036377,0.04437256,-5.09375,17.28125,-1.390625
1696258330949,0.12036133,-0.6013794,0.039733887,-7.1875,4.25,7.109375
1696258330990,0.020019531,-0.6968384,-0.0095825195,-2.0625,5.828125,8.8125
1696258331029,-0.12719727,-0.8657837,0.014343262,4.25,15.53125,5.828125
1696258331071,-0.19873047,-1.2754517,0.023620605,-3.28125,25.71875,12.265625
1696258331112,-0.09863281,-1.6331177,0.10614014,-38.453125,27.703125,13.546875
1696258331129,0.07373047,-1.4348755,-0.09503174,-4.25,0.0,-4.234375
1696258331170,0.39111328,-1.2070923,-0.089904785,-4.53125,-0.03125,-1.46875
1696258331209,0.89038086,-1.2276001,0.008483887,-2.6875,-1.75,10.28125
1696258331251,0.6040039,-0.94854736,0.04534912,2.734375,-25.765625,-5.140625
1696258331293,0.0769043,-0.8106079,0.036315918,-8.09375,-1.90625,-0.3125
1696258331331,0.080078125,-0.8032837,-0.12506104,4.484375,5.734375,4.953125
1696258331372,0.37670898,-0.9024048,0.13763428,4.203125,10.75,4.53125
1696258331410,0.3251953,-0.9439087,0.18157959,-2.6875,8.109375,0.5
1696258331450,0.17773438,-0.79815674,0.04510498,0.625,-11.375,-6.734375
1696258331489,0.107910156,-0.5552368,0.06707764,3.296875,-17.671875,2.453125
1696258331529,0.13208008,-0.553772,0.09564209,6.609375,-8.984375,8.90625
1696258331570,0.12158203,-0.7461548,0.07757568,6.28125,-2.390625,12.3125
1696258331611,0.14257812,-0.725647,0.08905029,2.859375,-3.09375,11.40625
1696258331651,0.21069336,-0.82647705,0.116882324,4.875,-5.953125,13.140625
1696258331690,0.28295898,-1.1160278,0.17718506,5.609375,-6.1875,13.484375
1696258331731,0.30322266,-1.3953247,0.22479248,11.171875,-3.828125,6.703125
1696258331769,0.18066406,-1.2857056,0.13787842,5.75,-2.765625,-7.3125
1696258331811,0.09887695,-1.3919067,-0.005432129,7.28125,4.734375,-16.28125
1696258331850,0.623291,-1.296936,-0.10284424,12.390625,18.203125,-3.109375
1696258331893,0.41259766,-1.0142212,-0.057678223,10.671875,8.0625,-28.515625
1696258331931,0.15991211,-0.84820557,-0.07672119,-1.390625,6.03125,-31.171875
1696258331971,0.083984375,-0.65045166,-0.253479,-3.484375,3.109375,-11.5625
1696258332011,0.1550293,-0.7280884,-0.1765747,9.625,10.625,-2.609375
1696258332052,0.19189453,-0.9380493,-0.046691895,8.203125,13.15625,1.125
1696258332089,0.15649414,-1.0501099,0.04144287,5.890625,2.6875,-11.671875
1696258332131,0.12841797,-0.88946533,-0.020324707,8.5625,-0.34375,-10.0
1696258332171,0.033447266,-0.77301025,-0.043518066,-0.03125,1.28125,-2.734375
1696258332217,-0.07861328,-0.78448486,-0.026428223,-4.328125,-7.15625,-2.03125
1696258332249,-0.052246094,-0.79034424,-0.013977051,-10.578125,-4.4375,-2.53125
1696258332291,-7.324219E-4,-0.66656494,-0.026428223,-8.96875,4.1875,3.015625
1696258332331,-0.028320312,-0.7263794,-0.054504395,13.703125,11.859375,9.390625
1696258332370,-0.059814453,-0.9751587,-0.0076293945,2.96875,4.734375,8.734375
1696258332411,-0.076660156,-1.2407837,0.013122559,-12.578125,5.5625,10.25
1696258332429,0.08666992,-1.5171509,0.07537842,-8.046875,4.859375,12.015625
1696258332470,0.1928711,-1.5391235,-0.031311035,3.375,3.71875,5.53125
1696258332508,0.28808594,-1.5393677,-0.21466064,7.3125,-5.96875,19.46875
1696258332549,0.7246094,-1.3862915,-0.028381348,21.484375,-33.265625,7.71875
1696258332589,0.4934082,-0.8648071,-0.11602783,2.125,-5.78125,6.828125
1696258332632,0.28637695,-0.61138916,-0.08428955,-13.953125,2.015625,4.8125
1696258332670,0.15576172,-0.69781494,-0.105529785,0.484375,-16.5,1.375
1696258332711,0.059570312,-0.83380127,9.1552734E-4,-17.21875,-7.96875,6.890625
1696258332751,0.11450195,-0.74786377,0.06121826,-19.875,-3.765625,-0.21875
1696258332789,0.16088867,-0.54400635,0.009216309,-5.21875,-5.203125,-10.078125
1696258332831,0.15112305,-0.4126587,0.001159668,6.59375,-14.875,-1.84375
1696258332869,0.119384766,-0.49517822,-0.023742676,13.34375,-15.796875,11.265625
1696258332910,0.21069336,-0.7522583,0.121276855,5.71875,-3.53125,22.328125
1696258332949,0.30444336,-1.1653442,0.12200928,8.609375,-4.078125,21.578125
1696258332994,0.33618164,-1.6773071,0.12713623,3.4375,-17.75,8.46875
1696258333032,0.122558594,-1.350647,0.1281128,9.40625,-0.5625,-9.4375
1696258333070,0.14208984,-1.1902466,-0.055236816,14.109375,11.984375,-24.53125
1696258333113,0.4411621,-1.223938,-0.22784424,3.765625,17.984375,-9.1875
1696258333151,0.45532227,-1.0332642,-0.1272583,4.453125,13.5625,0.125
1696258333190,0.29833984,-0.95977783,-0.20611572,-1.234375,15.015625,-17.9375
1696258333232,0.18969727,-0.84942627,-0.2078247,-11.78125,1.453125,-17.703125
1696258333269,0.103271484,-0.73223877,-0.1638794,3.453125,8.796875,-12.9375
1696258333311,0.18041992,-0.8960571,-0.11016846,7.546875,12.421875,-6.171875
1696258333351,0.14575195,-1.0596313,-0.031311035,-2.015625,8.78125,-7.75
1696258333390,0.15063477,-0.92071533,-0.033996582,-2.109375,-3.03125,-10.984375
1696258333430,0.057128906,-0.6404419,-0.10308838,2.78125,-1.09375,-3.640625
1696258333470,-0.02709961,-0.5823364,-0.07696533,5.296875,6.640625,-0.734375
1696258333509,-0.04248047,-0.67071533,-0.03741455,6.28125,7.234375,1.328125
1696258333550,-0.01953125,-0.73150635,-0.065979004,7.015625,9.796875,7.515625
1696258333589,9.765625E-4,-0.8196411,-0.06817627,12.3125,15.015625,10.765625
1696258333635,0.0087890625,-1.1028442,-0.054748535,5.28125,13.390625,10.734375
1696258333670,0.10180664,-1.4465942,-0.026916504,-4.65625,0.46875,10.890625
1696258333733,0.16723633,-1.479065,-0.20123291,-5.5,0.84375,13.90625
1696258333738,0.17553711,-1.3779907,-0.3850708,-17.546875,-7.015625,17.75
1696258333770,0.73095703,-1.6604614,-0.10772705,-7.59375,-11.6875,10.875
1696258333811,0.37231445,-0.9089966,-0.08770752,-6.359375,-7.65625,-3.859375
1696258333850,0.3671875,-0.6658325,-0.16046143,-19.5,2.453125,-1.34375
1696258333890,0.33374023,-0.70977783,-0.08502197,-13.625,-10.59375,-3.3125
1696258333931,0.17041016,-0.9768677,0.035339355,-17.359375,-10.4375,7.03125
1696258333969,0.15893555,-0.99835205,0.07366943,-26.109375,-18.28125,2.90625
1696258334010,0.17651367,-0.7901001,0.06390381,-8.921875,-9.453125,-9.640625
1696258334052,0.12573242,-0.5166626,0.059020996,0.625,-17.09375,-6.75
1696258334089,0.02709961,-0.46539307,0.013122559,-0.25,-12.0,0.28125
1696258334131,0.08203125,-0.48760986,0.09442139,4.234375,2.84375,10.265625
1696258334170,0.1496582,-0.58843994,0.11541748,5.96875,8.453125,21.078125
1696258334210,0.13671875,-0.88482666,0.1762085,0.15625,0.203125,28.265625
1696258334252,0.42089844,-1.6594849,0.14886475,15.203125,3.015625,27.65625
1696258334292,0.37695312,-1.6123657,0.21234131,17.625,-6.015625,-5.140625
1696258334331,0.20825195,-1.3057251,-0.018371582,18.203125,-9.0,-17.671875
1696258334371,0.5515137,-1.1851196,-0.11846924,15.796875,5.59375,10.75
1696258334410,0.34350586,-1.1099243,-0.15167236,13.546875,18.0625,-7.203125
1696258334451,0.115234375,-1.038147,-0.25665283,-12.078125,9.46875,-29.640625
1696258334490,0.103271484,-0.85040283,-0.18804932,-15.1875,23.046875,-19.40625
1696258334531,0.2763672,-0.84552,-0.117248535,-3.359375,9.046875,-17.578125
1696258334570,0.34106445,-0.9800415,0.013366699,-1.125,0.328125,-17.421875
1696258334612,0.13208008,-0.8567505,0.015808105,-4.828125,-5.9375,-20.328125
1696258334652,-0.033447266,-0.57818604,-0.02520752,-7.96875,0.9375,-11.765625
1696258334691,-0.018066406,-0.4199829,-0.0071411133,2.890625,-1.28125,-7.625
1696258334730,-0.015380859,-0.517395,-0.006652832,0.015625,3.75,0.3125
1696258334773,0.0078125,-0.57940674,0.048034668,-5.453125,10.921875,4.859375
1696258334815,-0.125,-0.630188,-0.019836426,0.671875,-5.09375,3.984375
1696258334850,-0.038085938,-0.86602783,-0.013000488,19.65625,8.3125,12.328125
1696258334891,0.09301758,-1.1817017,0.04925537,22.953125,23.953125,22.453125
1696258334931,-0.2006836,-2.0,0.012634277,7.828125,-4.953125,27.359375
1696258334971,-0.18139648,-1.7268677,0.022644043,5.0,-8.859375,8.625
1696258335031,0.10961914,-1.2886353,-0.5491333,13.3125,-1.75,14.625
1696258335051,0.5180664,-0.9507446,-0.09918213,-36.5,20.40625,46.125
1696258335070,0.7089844,-1.8318481,-0.18267822,-5.109375,-22.9375,-0.171875
1696258335112,0.25927734,-0.7197876,-0.11627197,3.859375,13.90625,-19.828125
1696258335150,0.26049805,-0.60284424,-0.28033447,-6.765625,25.734375,-14.5625
1696258335192,0.2524414,-0.39361572,-0.18267822,-34.515625,23.046875,-21.609375
1696258335231,0.123535156,-0.7852173,-0.15484619,-36.25,56.171875,-5.078125
1696258335272,0.2939453,-1.3084106,0.15496826,-31.3125,31.6875,-5.671875
1696258335310,0.2668457,-1.0977173,0.07122803,-13.0625,21.125,-18.75
1696258335356,0.2175293,-0.68951416,0.03338623,-16.15625,28.9375,-23.3125
1696258335390,0.07397461,-0.6387329,0.04949951,-24.90625,34.90625,-10.359375
1696258335431,-0.1081543,-0.7227173,0.020690918,-17.625,36.46875,0.46875
1696258335490,-0.037353516,-0.69073486,0.018493652,-2.3125,37.03125,2.84375
1696258335509,0.079833984,-0.66656494,0.013122559,-1.671875,52.84375,7.125
1696258335550,0.15820312,-0.673645,0.16326904,-11.15625,42.109375,8.34375
1696258335590,0.19677734,-0.82891846,0.23138428,-1.921875,20.734375,4.78125
1696258335632,0.026123047,-1.0361938,0.18743896,-1.21875,17.8125,17.546875
1696258335672,-0.114746094,-1.3418579,0.035095215,11.3125,30.046875,24.578125
1696258335710,0.037109375,-1.3145142,0.058044434,18.390625,35.234375,-8.421875
1696258335752,0.48779297,-1.300354,-0.19854736,18.859375,43.453125,13.953125
1696258335790,0.31958008,-1.4876099,-0.17510986,7.6875,64.34375,12.71875
1696258335832,0.24560547,-1.2109985,-0.33624268,9.859375,27.28125,-20.734375
1696258335870,0.24072266,-0.8377075,-0.3899536,6.734375,34.90625,-9.21875
1696258335909,0.3725586,-0.60723877,-0.3164673,-11.1875,48.515625,2.265625
1696258335950,0.29248047,-0.84869385,-0.24102783,4.453125,40.4375,-6.78125
1696258335991,0.08129883,-1.1213989,-0.21612549,2.0,31.6875,0.640625
1696258336032,0.10058594,-0.9439087,-0.11383057,-7.703125,36.984375,-3.171875
1696258336072,0.19165039,-0.7942505,-0.12652588,-7.34375,29.90625,-11.921875
1696258336111,0.15698242,-0.69488525,-0.18927002,2.21875,18.84375,-4.34375
1696258336152,0.036621094,-0.66363525,-0.11846924,-0.765625,16.734375,6.796875
1696258336190,-0.08691406,-0.71881104,-0.12310791,-1.5,22.9375,10.90625
1696258336234,-0.0637207,-0.7490845,-0.09039307,7.859375,27.765625,11.03125
1696258336271,0.021484375,-0.87164307,-0.16168213,8.09375,27.25,14.171875
1696258336311,0.07910156,-1.1079712,-0.16729736,-3.421875,17.40625,18.1875
1696258336352,0.10571289,-1.5213013,-0.22149658,-9.46875,7.5,15.140625
1696258336369,0.12939453,-1.3435669,-0.2744751,-11.21875,6.953125,4.109375
1696258336410,0.33764648,-1.4351196,-0.14923096,-32.0625,14.71875,8.96875
1696258336472,0.515625,-1.2857056,-0.286438,-12.140625,-17.71875,-17.15625
1696258336491,0.2939453,-0.95269775,-0.11138916,-6.90625,10.921875,-4.625
1696258336530,0.32250977,-0.63409424,-0.21710205,-24.6875,12.375,0.375
1696258336569,0.34936523,-0.6069946,-0.08453369,-23.453125,-1.1875,2.03125
1696258336609,0.2998047,-0.9661255,0.04071045,-16.0,5.59375,7.59375
1696258336650,0.16015625,-0.91485596,0.082458496,-20.40625,-4.046875,8.578125
1696258336689,0.18457031,-0.6799927,0.10858154,-7.109375,-7.96875,0.515625
1696258336732,0.13085938,-0.631897,0.11077881,-1.28125,-12.125,0.671875
1696258336772,0.114746094,-0.7114868,0.078063965,-7.015625,-12.5,3.375
1696258336810,0.125,-0.71710205,0.078552246,2.71875,-0.75,6.3125
1696258336853,0.15258789,-0.7617798,0.11468506,7.71875,-0.640625,13.734375
1696258336891,0.16381836,-0.86309814,0.1798706,-2.078125,-2.8125,18.484375
1696258336934,0.27539062,-1.1109009,0.2584839,8.234375,2.609375,19.0625
1696258336972,0.16064453,-1.6253052,0.09613037,44.78125,-7.9375,15.28125
1696258337010,0.40722656,-1.4107056,0.11224365,7.171875,-12.15625,-12.71875
1696258337051,0.26367188,-1.0828247,-0.055480957,-3.53125,-0.546875,-25.671875
1696258337089,0.49365234,-0.9212036,0.046813965,2.25,-5.96875,0.125
1696258337130,0.103271484,-1.0046997,-0.23394775,5.546875,8.46875,-17.296875
1696258337174,0.18066406,-1.0342407,-0.17901611,-7.625,6.4375,-14.625
1696258337210,0.21801758,-0.75372314,-0.17242432,-1.65625,12.015625,-9.734375
1696258337251,0.2397461,-0.84161377,-0.12677002,5.75,12.21875,-14.921875
1696258337292,0.07885742,-0.9194946,-0.026184082,8.1875,7.296875,-15.46875
1696258337329,2.4414062E-4,-0.9507446,-0.0020141602,10.203125,4.671875,-10.71875
1696258337370,0.014404297,-0.8062134,-0.039855957,4.5625,8.703125,-1.875
1696258337410,0.07788086,-0.7666626,-0.008117676,0.765625,3.8125,-3.703125
1696258337451,0.036621094,-0.79229736,0.008972168,2.640625,1.609375,-4.609375
1696258337491,0.010986328,-0.7788696,0.029968262,2.25,2.84375,-2.09375
1696258337531,-0.012207031,-0.66070557,-0.043273926,4.890625,4.796875,-0.921875
1696258337571,-0.03173828,-0.6878052,-0.12530518,13.921875,-2.53125,5.828125
1696258337611,0.052246094,-0.7402954,-0.06573486,25.359375,-2.15625,19.0
1696258337651,-0.21044922,-1.3718872,-0.2774048,21.0625,-8.8125,32.5625
1696258337671,-0.119140625,-2.0,-0.06524658,-17.96875,9.625,13.59375
1696258337734,0.0017089844,-1.357727,-0.2649536,-8.265625,4.59375,4.53125
1696258337752,0.6386719,-1.409729,-0.5237427,-33.921875,3.9375,22.1875
1696258337791,0.22680664,-1.366272,0.022155762,-0.0625,-2.890625,-6.21875
1696258337832,0.31640625,-0.77130127,-0.34381104,-10.046875,28.640625,3.25
1696258337871,0.41601562,-0.5210571,-0.2930298,-5.4375,30.65625,-1.234375
1696258337912,0.34545898,-0.56622314,-0.074035645,-14.015625,46.03125,-0.8125
1696258337950,0.20117188,-0.97979736,-0.032043457,-36.84375,27.234375,-1.203125
1696258337991,0.045654297,-1.1323853,-0.08648682,-30.5625,19.3125,-5.78125
1696258338031,0.09008789,-0.8713989,-0.051574707,-20.5625,44.921875,-10.34375
1696258338070,0.22851562,-0.6880493,0.09857178,-3.75,42.984375,-10.859375
1696258338111,0.13305664,-0.8110962,-0.02130127,-11.875,24.296875,-12.859375
1696258338157,-0.10083008,-0.89068604,-0.06695557,-16.890625,53.453125,-7.640625
1696258338191,-0.118652344,-0.8804321,0.0211792,-14.34375,54.5,-5.265625
1696258338232,0.18408203,-0.7163696,0.043395996,-4.203125,43.5625,-8.625
1696258338278,0.25854492,-0.7449341,0.18743896,-17.59375,32.875,-2.96875
1696258338313,0.043945312,-0.7227173,0.043395996,-0.6875,10.90625,1.015625
1696258338351,-0.07104492,-0.8220825,0.03314209,-7.65625,10.328125,12.328125
1696258338390,-0.11376953,-0.98101807,0.12591553,-0.265625,38.6875,10.703125
1696258338431,-0.10253906,-1.1365356,0.1408081,17.734375,33.96875,4.5
1696258338470,-0.021484375,-1.1106567,-0.0154418945,43.3125,24.9375,-5.484375
1696258338510,0.5957031,-1.3953247,-0.37945557,19.09375,39.296875,38.125
1696258338550,0.46435547,-1.2918091,0.02166748,9.703125,47.53125,32.15625
1696258338590,0.35253906,-1.576477,-0.25567627,15.96875,12.5,-1.40625
1696258338637,0.1081543,-1.0286255,-0.5281372,4.25,12.609375,-11.515625
1696258338669,0.27197266,-0.61602783,-0.5269165,-3.859375,34.625,4.171875
1696258338712,0.27563477,-0.722229,-0.3735962,12.984375,41.71875,2.09375
1696258338749,0.037353516,-1.013977,-0.31280518,1.734375,43.25,1.921875
1696258338789,0.119140625,-1.0193481,-0.21466064,-3.28125,36.21875,0.15625
1696258338830,0.25439453,-0.86309814,-0.17022705,-4.703125,22.5625,-9.078125
1696258338869,0.25317383,-0.6519165,-0.21051025,-4.75,11.703125,-1.859375
1696258338911,0.11645508,-0.5894165,-0.20904541,-5.078125,6.75,8.6875
1696258338951,-0.16113281,-0.75372314,-0.15875244,-7.953125,13.828125,11.125
1696258338970,-0.2998047,-0.9834595,-0.19073486,3.0625,30.09375,3.484375
1696258339012,-0.08178711,-0.9312134,-0.25421143,1.03125,35.140625,2.203125
1696258339050,0.3022461,-0.7908325,-0.2234497,-8.875,26.390625,7.578125
1696258339092,0.4375,-1.0776978,-0.28741455,-5.03125,2.78125,13.90625
1696258339129,0.103271484,-1.4487915,-0.4265747,-22.0,-6.34375,21.09375
1696258339169,0.32788086,-1.7017212,-0.23028564,-26.296875,15.46875,9.046875
1696258339211,0.18725586,-1.0881958,-0.28790283,-14.390625,-16.140625,-21.171875
1696258339249,0.359375,-0.7949829,-0.21612549,-15.46875,28.140625,-6.0625
1696258339291,0.4128418,-0.5952759,-0.21881104,-35.078125,17.296875,1.640625
1696258339332,0.36767578,-0.80303955,-0.008850098,-17.671875,8.4375,11.390625
1696258339370,0.21826172,-1.0337524,0.10614014,-17.765625,3.265625,12.21875
1696258339410,0.087646484,-0.9002075,0.039001465,-26.015625,-4.28125,-1.6875
1696258339449,0.107910156,-0.6411743,0.005065918,-10.8125,-0.234375,-5.625
1696258339492,0.17407227,-0.5984497,0.085876465,1.34375,-8.078125,1.578125
1696258339551,0.20678711,-0.63726807,0.06854248,-1.4375,-4.8125,5.84375
1696258339569,0.15942383,-0.736145,0.08294678,4.0625,-1.390625,9.96875
1696258339609,0.19848633,-0.850647,0.11029053,10.09375,-7.1875,12.8125
1696258339649,0.2783203,-1.029602,0.17669678,12.984375,-9.234375,14.703125
1696258339689,0.2565918,-1.4343872,0.04949951,18.328125,-18.875,10.1875
1696258339729,0.1105957,-1.107727,0.0602417,9.296875,-18.15625,-21.28125
1696258339772,0.34960938,-1.1543579,-0.059387207,3.984375,-10.15625,-7.9375
1696258339810,0.2866211,-1.291565,-0.06060791,14.546875,14.296875,2.640625
1696258339852,0.10644531,-1.2849731,-0.054992676,2.796875,6.484375,-20.25
1696258339890,0.20800781,-0.861145,-0.12310791,-9.71875,4.9375,-16.8125
1696258339930,0.2734375,-0.7554321,-0.18365479,-4.421875,8.5625,-11.328125
1696258339970,0.24707031,-0.8777466,-0.07550049,12.828125,11.609375,-12.734375
1696258340011,0.0,-1.0081177,-0.10772705,19.65625,0.609375,-5.90625
1696258340051,-0.12915039,-0.8772583,-0.11895752,9.84375,6.671875,-5.6875
1696258340092,0.0053710938,-0.80718994,-0.10211182,6.4375,23.40625,-9.28125
1696258340131,0.17993164,-0.72613525,-0.101379395,10.21875,19.453125,-0.078125
1696258340172,0.16259766,-0.70758057,-0.03302002,5.515625,12.8125,9.96875
1696258340214,0.10595703,-0.7620239,-0.062805176,10.359375,5.3125,12.125
1696258340273,0.0107421875,-0.9065552,-0.09503174,9.265625,3.9375,11.171875
1696258340288,-0.036621094,-0.9331665,-0.039611816,15.140625,8.453125,10.46875
1696258340312,-0.14550781,-0.99346924,-0.21002197,11.890625,8.1875,10.625
1696258340349,-0.15356445,-1.3770142,-0.20904541,-3.59375,15.140625,21.78125
1696258340390,0.36767578,-1.3711548,-0.40533447,4.28125,19.28125,-3.28125
1696258340432,0.18701172,-1.4778442,-0.28399658,-28.734375,24.75,3.921875
1696258340471,0.8925781,-1.427063,-0.33233643,-22.484375,-3.390625,-6.90625
1696258340511,0.36328125,-0.9624634,-0.1272583,-10.5625,-21.25,-8.078125
1696258340551,0.35058594,-0.7095337,-0.12896729,-18.765625,0.671875,3.140625
1696258340589,0.13623047,-0.65704346,-0.23345947,-25.234375,-25.90625,3.921875
1696258340631,0.24121094,-0.90167236,0.010681152,-4.0,-7.234375,1.90625
1696258340671,0.14501953,-0.8814087,0.0770874,-25.375,5.4375,0.609375
1696258340711,0.1508789,-0.7234497,0.0026245117,-17.9375,-5.765625,-6.5
1696258340752,0.16430664,-0.60601807,0.061462402,-0.3125,-8.703125,-1.390625
1696258340791,0.17260742,-0.7625122,0.10272217,-8.734375,-22.625,8.921875
1696258340831,0.2614746,-0.8936157,0.12908936,-8.6875,-20.34375,12.0
1696258340872,0.17529297,-0.87628174,0.13104248,-3.375,-20.640625,5.453125
1696258340912,0.0637207,-0.7373657,0.16619873,-6.8125,-18.078125,-2.203125
1696258340951,-0.010009766,-0.7803345,0.15765381,5.359375,-10.140625,0.171875
1696258340991,0.034179688,-0.80841064,0.086364746,6.96875,-11.8125,4.03125
1696258341030,0.30004883,-0.9187622,0.25823975,18.59375,-4.171875,9.53125
1696258341071,0.32495117,-1.2520142,0.30169678,23.234375,-10.078125,13.15625
1696258341112,0.068359375,-1.3618774,-0.016418457,26.265625,-31.453125,5.34375
1696258341152,0.19726562,-1.2402954,-0.159729,16.34375,-20.875,0.5625
1696258341192,0.24047852,-1.2786255,-0.1296997,34.0625,34.890625,7.09375
1696258341233,0.14794922,-1.2693481,-0.06329346,-12.265625,21.90625,-10.65625
1696258341272,0.22802734,-0.96954346,-0.1428833,-5.3125,12.90625,-10.015625
1696258341312,0.38598633,-0.74346924,-0.2341919,-8.109375,15.328125,-11.15625
1696258341352,0.38842773,-0.93951416,-0.090148926,0.046875,13.734375,-14.953125
1696258341392,-0.0021972656,-1.0674438,-0.13092041,9.703125,-6.796875,-12.796875
1696258341432,-0.22338867,-0.9326782,-0.11431885,-1.71875,9.390625,-4.921875
1696258341470,0.061279297,-0.7671509,-0.09942627,2.78125,22.8125,-4.328125
1696258341512,0.23510742,-0.6609497,-0.10089111,6.703125,18.890625,-4.375
1696258341554,0.1953125,-0.5901489,-0.04449463,4.625,5.25,-0.234375
1696258341590,0.075927734,-0.55670166,-0.0076293945,6.734375,3.4375,7.328125
1696258341612,-0.057128906,-0.7061157,-0.117492676,7.046875,4.4375,9.8125
1696258341650,-0.0625,-0.975647,-0.10626221,4.609375,6.75,10.328125
1696258341691,0.05834961,-1.3538208,-0.1716919,-0.734375,4.890625,18.765625
1696258341730,0.18530273,-1.6565552,-0.10601807,-0.734375,8.75,13.671875
1696258341770,0.11645508,-1.3220825,-0.1609497,-28.59375,0.25,5.703125
1696258341813,0.5917969,-1.3660278,-0.21173096,-20.890625,17.96875,5.078125
1696258341851,0.37963867,-1.2817993,-0.15997314,-9.890625,-10.375,-16.328125
1696258341895,0.4506836,-0.89019775,-0.1519165,-1.859375,5.890625,-3.84375
1696258341929,0.20581055,-0.6790161,-0.17266846,-9.5,-4.984375,-1.203125
1696258341972,0.19165039,-0.8015747,-0.035949707,-0.640625,4.546875,-4.140625
1696258342010,0.21777344,-0.8911743,0.0119018555,-9.71875,4.9375,2.578125
1696258342051,0.22827148,-0.6934204,0.0060424805,-7.34375,-2.3125,-2.140625
1696258342091,0.17529297,-0.5654907,0.04510498,6.546875,-10.859375,0.46875
1696258342131,0.11767578,-0.52838135,0.06829834,-0.34375,-27.859375,6.625
1696258342172,0.043945312,-0.61065674,0.05682373,-10.0625,-18.046875,16.1875
1696258342209,0.07885742,-0.73028564,0.059753418,-2.125,-4.546875,18.46875
1696258342251,0.14672852,-0.9155884,0.101989746,6.15625,-6.15625,16.265625
1696258342292,0.3256836,-1.3821411,0.109802246,10.609375,7.921875,21.15625
1696258342333,0.42578125,-1.6484985,0.30828857,3.71875,-9.421875,2.40625
1696258342376,0.14086914,-1.0784302,-0.023010254,8.03125,-16.078125,-21.0625
1696258342409,0.25878906,-1.0830688,-0.27398682,-20.515625,-1.15625,-11.9375
1696258342452,0.28686523,-0.94854736,-0.024475098,3.28125,30.15625,-2.90625
1696258342492,0.060302734,-1.02594,-0.093566895,3.53125,24.84375,-15.921875
1696258342531,0.25976562,-1.0056763,-0.24542236,-8.8125,13.515625,-10.84375
1696258342571,0.3864746,-0.9529419,-0.18341064,-4.9375,25.21875,-8.125
1696258342614,0.3413086,-1.0222778,-3.0517578E-4,3.734375,5.5625,-9.328125
1696258342651,0.028076172,-1.0818481,-0.0012817383,11.34375,-8.234375,-12.46875
1696258342691,-0.07006836,-0.95318604,-0.0791626,15.140625,5.78125,-6.546875
1696258342730,0.044189453,-0.7095337,-0.06573486,5.09375,9.125,-2.15625
1696258342769,0.09692383,-0.5449829,-0.053771973,2.890625,12.0625,-0.234375
1696258342812,0.06982422,-0.60723877,-3.0517578E-4,11.375,8.90625,-0.53125
1696258342848,0.0026855469,-0.6765747,-0.0491333,10.03125,17.46875,-1.078125
1696258342891,-0.047851562,-0.72491455,-0.10333252,3.625,14.875,5.3125
1696258342911,-0.025634766,-0.8887329,-0.1338501,0.0,14.828125,14.0
1696258342949,0.09741211,-1.1455688,-0.022766113,0.296875,13.484375,15.90625
1696258342990,0.14013672,-1.4849243,0.018493652,6.796875,9.015625,13.53125
1696258343029,-0.055419922,-1.5264282,-0.27130127,-10.796875,0.515625,8.296875
1696258343071,0.44702148,-1.4463501,-0.4109497,-20.078125,29.359375,26.4375
1696258343112,0.6184082,-1.4175415,-0.14581299,6.015625,-13.109375,-0.0625
1696258343152,0.46069336,-1.0852661,-0.12896729,-6.390625,12.4375,-0.34375
1696258343190,0.2685547,-0.7214966,-0.24346924,-16.15625,3.203125,0.921875
1696258343232,0.35791016,-0.7305298,-0.12945557,-5.734375,0.375,-1.171875
1696258343275,0.2529297,-1.0005493,0.050476074,-18.390625,8.0,1.265625
1696258343311,0.18017578,-0.92852783,-0.066711426,-25.21875,0.421875,0.046875
1696258343372,0.20947266,-0.7473755,0.050476074,-11.109375,-2.890625,-11.265625
1696258343391,0.07397461,-0.67926025,0.08709717,-1.796875,3.328125,-6.96875
1696258343431,0.04638672,-0.6760864,0.012390137,-9.8125,2.65625,1.796875
1696258343470,0.1328125,-0.61676025,0.0446167,-7.375,6.203125,5.015625
1696258343511,0.16870117,-0.61383057,0.1593628,-2.9375,-5.515625,2.828125
1696258343551,0.15527344,-0.7046509,0.2531128,-8.125,-11.09375,5.640625
1696258343592,0.15795898,-0.7034302,0.15985107,-3.984375,-23.546875,8.375
1696258343632,0.07446289,-0.66851807,0.06756592,2.203125,-27.921875,4.453125
1696258343672,0.14233398,-1.0474243,0.17840576,-3.9375,-1.265625,14.53125
1696258343710,0.19238281,-1.6411743,0.30999756,27.109375,14.28125,22.28125
1696258343750,-0.13427734,-1.4512329,0.12860107,21.921875,8.3125,-11.625
1696258343792,0.12768555,-1.3181763,-0.044006348,4.734375,23.6875,2.140625
1696258343832,0.7175293,-1.159729,0.085632324,31.390625,32.859375,26.984375
1696258343870,0.35913086,-1.4866333,-0.1404419,-11.546875,-6.09375,-18.734375
1696258343911,0.21606445,-1.0825806,-0.45465088,-17.140625,-6.328125,-11.875
1696258343952,0.22631836,-0.66729736,-0.37286377,-21.515625,20.265625,-11.28125
1696258344012,0.2163086,-0.7510376,-0.2732544,-5.453125,27.421875,-17.671875
1696258344032,-2.4414062E-4,-1.1223755,-0.13653564,-17.15625,37.015625,-12.65625
1696258344071,0.055908203,-1.1140747,0.01361084,-12.015625,33.765625,-15.40625
1696258344110,0.21777344,-0.8062134,0.007019043,-17.4375,18.03125,-20.875
1696258344149,0.22363281,-0.52667236,-0.06890869,-9.6875,4.453125,-15.34375
1696258344211,0.016113281,-0.48443604,-0.13189697,-0.421875,0.46875,1.6875
1696258344230,-0.03125,-0.66900635,-0.066467285,4.671875,14.0,10.75
1696258344250,-0.023925781,-0.7686157,0.02532959,-1.546875,39.984375,7.84375
1696258344293,-0.10205078,-0.7761841,-0.028137207,-0.1875,37.515625,3.828125
1696258344333,-0.087402344,-0.7617798,-0.08746338,5.78125,26.328125,2.734375
1696258344371,-0.017333984,-0.9380493,-0.03643799,3.265625,30.6875,12.703125
1696258344414,0.029785156,-1.4985962,-0.026672363,14.25,35.015625,23.859375
1696258344450,0.08203125,-1.5828247,-0.2498169,-1.0,28.28125,11.53125
1696258344491,0.21606445,-1.4700317,-0.31695557,-14.421875,32.359375,23.890625
1696258344534,0.6044922,-1.472229,-0.22979736,-9.078125,2.734375,-2.1875
1696258344572,0.4567871,-1.0061646,-0.300354,-0.125,25.9375,-9.515625
1696258344610,0.29833984,-0.630188,-0.21343994,-6.90625,24.890625,-2.03125
1696258344654,0.19433594,-0.64923096,-0.30792236,-17.484375,17.953125,0.421875
1696258344694,0.3310547,-1.0032349,-0.1416626,-13.921875,32.671875,5.25
1696258344730,0.38745117,-1.0967407,-0.0869751,-15.953125,34.875,6.1875
1696258344770,0.3881836,-0.82647705,0.027770996,-10.546875,18.3125,-11.171875
1696258344809,0.2631836,-0.630188,-0.0037231445,6.25,5.0625,-6.3125
1696258344851,0.08520508,-0.6885376,-0.049621582,-7.796875,8.40625,8.8125
1696258344890,0.09472656,-0.8088989,-0.020812988,-3.015625,17.859375,9.71875
1696258344930,0.056396484,-0.82232666,0.08416748,-3.34375,18.0,4.1875
1696258344970,0.12036133,-0.70318604,0.06488037,-2.234375,7.421875,0.65625
1696258345011,0.13500977,-0.7415161,0.09173584,-12.609375,-12.5,-0.984375
1696258345052,0.08081055,-0.9846802,0.13494873,-14.296875,-4.578125,13.84375
1696258345093,0.026611328,-1.3621216,0.020446777,-7.828125,6.53125,16.484375
1696258345131,0.033203125,-1.5759888,-0.21832275,-3.546875,15.515625,-4.296875
1696258345170,0.94189453,-1.2341919,-0.333313,24.5625,44.21875,3.1875
1696258345212,-0.0026855469,-0.99713135,-0.11138916,-14.296875,50.40625,-17.234375
1696258345252,0.068603516,-0.9060669,-0.22930908,-4.6875,20.796875,-13.4375
1696258345293,0.23657227,-0.87335205,-0.34259033,-5.59375,30.34375,-4.765625
1696258345334,0.43676758,-0.97003174,-0.026672363,-30.78125,28.78125,-1.96875
1696258345371,0.3178711,-1.1218872,0.013366699,-4.578125,-4.96875,-10.203125
1696258345414,0.0043945312,-0.85113525,-0.0068969727,-8.703125,-8.65625,-8.5625
1696258345451,-0.15600586,-0.71759033,-0.07745361,-8.484375,21.25,-5.796875
1696258345490,-0.021484375,-0.6826782,-0.050354004,6.328125,29.59375,-0.59375
1696258345512,0.13598633,-0.65167236,-0.0025024414,-0.828125,21.953125,4.203125
1696258345551,0.123535156,-0.66363525,0.039001465,7.375,14.875,3.828125
1696258345592,0.032958984,-0.7554321,-0.008850098,8.21875,12.390625,9.390625
1696258345631,-0.03491211,-0.8699341,-0.011047363,4.796875,17.296875,13.875
1696258345673,-0.044189453,-1.3325806,-0.03717041,6.390625,7.4375,18.71875
1696258345711,0.19067383,-1.7896118,0.14251709,-0.703125,5.59375,21.71875
1696258345753,0.2746582,-1.2476196,-0.32208252,-7.875,-10.328125,9.515625
1696258345791,0.28295898,-1.6797485,-0.21612549,-16.21875,23.828125,12.859375
1696258345830,0.6088867,-1.1997681,-0.038146973,-3.328125,-14.484375,-6.625
1696258345872,0.50390625,-0.73101807,-0.09649658,-6.28125,6.171875,-8.609375
1696258345911,0.28173828,-0.53253174,-0.05255127,-18.390625,11.890625,2.375
1696258345951,0.21484375,-0.70928955,-0.06036377,-2.609375,8.375,10.734375
1696258345991,0.09838867,-0.8804321,0.08929443,-22.75,8.015625,13.15625
1696258346044,0.14868164,-0.91656494,0.07659912,-16.015625,9.359375,-5.453125
1696258346069,0.14916992,-0.7107544,0.07269287,-2.796875,15.28125,-12.328125
1696258346110,0.17382812,-0.66973877,0.16497803,-0.5,14.359375,-3.25
1696258346151,0.14819336,-0.8179321,0.11956787,-5.453125,11.328125,2.609375
1696258346191,0.19970703,-0.7920532,0.17181396,-1.21875,8.546875,2.390625
1696258346232,0.11401367,-0.64434814,0.12884521,-1.4375,3.953125,-0.375
1696258346271,-0.022216797,-0.5276489,0.090026855,1.109375,3.734375,1.578125
1696258346311,0.009277344,-0.55718994,0.184021,10.09375,11.953125,12.234375
1696258346352,0.14135742,-0.94659424,0.17645264,16.828125,18.875,24.953125
1696258346392,0.3779297,-2.0,0.3583374,11.6875,32.75,46.40625
1696258346434,0.103515625,-1.6187134,0.27313232,7.03125,1.546875,-14.34375
1696258346472,0.111816406,-1.3779907,-0.28546143,21.265625,18.03125,-24.984375
1696258346516,0.82714844,-1.3086548,-0.23052979,21.09375,38.65625,10.015625
1696258346550,0.30444336,-1.4199829,-0.3460083,-4.15625,34.203125,-18.859375
1696258346592,0.27783203,-0.78692627,-0.27667236,-12.53125,7.75,-29.65625
1696258346631,0.16625977,-0.66119385,-0.33746338,-31.6875,34.8125,-14.84375
1696258346670,0.19018555,-0.6878052,-0.25006104,-34.875,24.578125,-18.84375
1696258346712,0.12451172,-1.0076294,0.0048217773,-17.609375,30.828125,-16.234375
1696258346751,0.27539062,-1.1602173,-0.054748535,-6.5625,16.53125,-15.609375
1696258346792,0.18115234,-0.7608032,0.08709717,-7.984375,-0.625,-12.796875
1696258346830,0.02319336,-0.64141846,-0.049621582,-22.03125,5.515625,-9.6875
1696258346851,-0.036621094,-0.7439575,-0.005432129,-11.34375,8.859375,-0.765625
1696258346891,-0.1184082,-0.88897705,0.074645996,-4.21875,3.171875,6.21875
1696258346934,-0.08129883,-0.77667236,0.16619873,3.0625,7.75,1.078125
1696258346970,-0.03564453,-0.5877075,0.1618042,11.0625,5.015625,-0.890625
1696258347031,-0.030029297,-0.5515747,0.015563965,-8.328125,-1.71875,3.71875
1696258347050,-0.083740234,-0.6487427,0.070495605,-7.453125,7.40625,7.71875
1696258347091,-0.19702148,-1.053772,0.16766357,8.796875,32.046875,13.515625
1696258347131,-0.13452148,-1.5410767,0.1828003,19.28125,2.71875,13.5
1696258347171,0.14331055,-1.3638306,-0.059631348,35.234375,13.4375,19.84375
1696258347209,0.17333984,-1.2146606,-0.18585205,-2.234375,9.15625,35.765625
1696258347251,0.5097656,-1.9653931,0.13885498,21.015625,-0.3125,19.34375
1696258347290,0.27441406,-1.2041626,-0.3977661,15.875,-0.515625,-5.28125
1696258347329,0.6015625,-0.79644775,-0.4578247,-1.359375,20.0625,-7.671875
1696258347372,0.6611328,-0.7949829,-0.13360596,-3.375,24.46875,1.109375
1696258347413,0.57006836,-1.0593872,-0.11553955,-14.734375,2.8125,-0.484375
1696258347451,0.30126953,-1.0559692,-0.19683838,-20.9375,-1.421875,-8.890625
1696258347493,0.115234375,-0.82354736,-0.13873291,-12.125,17.09375,-11.140625
1696258347530,0.17260742,-0.64849854,-0.042541504,-9.609375,13.71875,-12.0
1696258347575,0.20532227,-0.6055298,-0.020324707,-5.78125,16.9375,-3.53125
1696258347611,0.16088867,-0.64019775,0.0079956055,-11.296875,13.828125,5.5625
1696258347652,0.047607422,-0.72125244,0.024353027,-11.65625,16.875,7.890625
1696258347690,0.022460938,-0.7481079,0.08001709,-8.453125,16.390625,3.4375
1696258347734,0.14013672,-0.756897,0.12200928,-1.515625,16.671875,4.671875
1696258347774,0.2133789,-0.95318604,0.07342529,0.625,11.953125,17.015625
1696258347812,0.119628906,-1.1983032,0.0099487305,4.703125,20.296875,25.390625
1696258347851,-0.07495117,-1.4353638,0.09295654,-6.796875,56.671875,2.53125
1696258347891,0.6538086,-1.4780884,-0.33892822,5.609375,39.078125,18.0625
1696258347933,0.44189453,-1.2109985,-0.2654419,-0.046875,57.921875,-22.09375
1696258347970,0.5283203,-0.84381104,-0.3550415,10.796875,9.671875,-27.34375
1696258348011,0.24804688,-0.66656494,-0.24371338,-5.140625,23.796875,-1.75
1696258348054,0.015625,-0.83551025,-0.27008057,-3.796875,19.578125,1.765625
1696258348090,-0.07714844,-1.0083618,-0.17828369,-10.703125,22.09375,-6.40625
1696258348130,-0.035888672,-0.9380493,-0.08795166,-33.21875,22.890625,-8.984375
1696258348150,0.0715332,-0.7727661,-0.15386963,-25.140625,29.921875,-3.390625
1696258348191,0.1928711,-0.7710571,-0.06329346,1.34375,22.765625,-2.65625
1696258348229,0.18823242,-0.75006104,-0.046936035,-1.890625,11.484375,-1.0
1696258348272,0.1809082,-0.72442627,-0.03741455,-7.40625,15.234375,1.109375
1696258348312,0.09008789,-0.7930298,-0.047668457,-2.578125,13.859375,5.40625
1696258348349,-0.03515625,-0.85723877,-0.022033691,8.734375,8.5,8.75
1696258348392,-0.021972656,-0.93096924,-0.037902832,7.875,2.796875,11.875
1696258348432,0.079833984,-1.1524048,-0.038146973,-4.3125,6.859375,15.59375
1696258348471,0.1508789,-1.5161743,-5.493164E-4,1.609375,8.328125,11.9375
1696258348511,0.087402344,-1.5132446,-0.27545166,12.265625,7.625,11.90625
1696258348573,0.66259766,-1.5332642,-0.31524658,18.78125,22.59375,28.5
1696258348589,0.70166016,-0.94903564,-0.11578369,10.875,-21.890625,-2.03125
1696258348631,0.2944336,-0.6758423,-0.23931885,-3.890625,1.1875,0.703125
1696258348673,0.0026855469,-0.63897705,-0.2276001,-16.875,-9.875,6.640625
1696258348712,0.19726562,-0.7937622,-0.26715088,-0.859375,-2.484375,7.203125
1696258348750,0.3383789,-0.87335205,0.028747559,-14.59375,11.84375,3.328125
1696258348792,0.3413086,-0.8130493,0.06439209,-13.84375,2.09375,-4.796875
1696258348830,0.30371094,-0.8049927,-0.059143066,-8.484375,-12.03125,-2.1875
1696258348871,0.22753906,-0.6536255,-0.0044555664,-6.609375,-14.609375,0.828125
1696258348912,0.14819336,-0.67852783,0.030700684,-6.5,-6.921875,4.671875
1696258348952,0.14892578,-0.7749634,0.02923584,-1.953125,-6.28125,5.796875
1696258348993,0.18457031,-0.8789673,0.059020996,-1.390625,-8.0625,5.6875
1696258349033,0.19580078,-0.9209595,0.06585693,1.65625,-9.3125,1.734375
1696258349071,0.20825195,-0.9065552,0.20159912,3.15625,-11.640625,-1.640625
1696258349110,0.11694336,-0.940979,-0.03643799,7.046875,-8.0,1.78125
1696258349152,-0.053955078,-1.1328735,-0.15924072,5.828125,6.671875,-4.296875
1696258349191,0.37451172,-1.2097778,0.01751709,9.859375,30.984375,0.359375
1696258349231,0.64331055,-1.531311,-0.12896729,31.578125,32.46875,7.5
1696258349273,0.5241699,-1.4309692,-0.0032348633,-15.78125,13.546875,-21.3125
1696258349316,0.29638672,-0.91485596,-0.22418213,18.09375,-4.828125,-22.921875
1696258349351,0.23364258,-0.7703247,-0.28253174,8.71875,17.25,-12.203125
1696258349393,0.08691406,-0.8213501,-0.21026611,3.265625,24.640625,-4.203125
1696258349453,0.13720703,-1.0603638,-0.18829346,11.28125,17.84375,-8.40625
1696258349472,0.10595703,-1.0127563,-0.105773926,7.515625,18.84375,-13.171875
1696258349489,0.21484375,-0.9055786,-0.043762207,-1.3125,13.15625,-18.46875
1696258349571,0.17553711,-0.67974854,-0.046447754,-5.875,4.125,-10.59375
1696258349579,-0.001953125,-0.5864868,-0.074035645,-15.90625,-11.078125,2.3125
1696258349611,-0.13208008,-0.5930786,-0.12921143,-19.28125,-2.8125,3.203125
1696258349649,-0.123291016,-0.6502075,-0.11920166,-5.515625,25.28125,4.21875
1696258349693,-0.025634766,-0.84552,-0.08135986,10.109375,24.390625,5.546875
1696258349732,0.07421875,-1.0689087,-0.08917236,-4.703125,7.875,9.015625
1696258349773,0.13452148,-1.159729,0.0040893555,-19.3125,2.28125,16.078125
1696258349811,0.03930664,-1.2720337,0.031677246,-12.78125,20.90625,19.015625
1696258349872,-0.18530273,-1.4158325,0.0060424805,-30.609375,6.96875,7.40625
1696258349891,0.15185547,-1.4995728,-0.15264893,-5.5,11.734375,6.671875
1696258349932,0.6315918,-1.2678833,0.07684326,17.625,-4.46875,-0.375
1696258349971,0.7097168,-1.0413208,-0.09625244,-19.640625,-28.4375,4.015625
1696258350032,0.34399414,-0.9998169,-0.32403564,-3.15625,-25.359375,-1.75
1696258350051,0.24853516,-0.7905884,-0.13653564,-8.5,-11.859375,1.3125
1696258350092,0.3466797,-0.81451416,0.07659912,-7.421875,3.328125,3.953125
1696258350130,0.27929688,-0.8670044,0.010925293,-14.84375,-9.03125,5.40625
1696258350172,0.17700195,-0.7529907,0.06756592,-16.5,-11.265625,-1.984375
1696258350210,0.15063477,-0.600647,0.08465576,2.5625,-20.65625,-2.875
1696258350254,0.20751953,-0.5894165,0.050231934,10.859375,-21.234375,4.65625
1696258350292,0.2043457,-0.61846924,0.035095215,11.46875,-19.578125,9.828125
1696258350330,0.13183594,-0.7805786,0.03704834,18.15625,-18.609375,14.921875
1696258350371,0.19458008,-0.90802,0.113220215,14.109375,-14.40625,13.859375
1696258350416,0.18969727,-1.0025024,0.054626465,13.4375,-16.59375,12.40625
1696258350451,0.29467773,-1.1934204,0.070495605,23.625,-6.296875,14.609375
1696258350493,0.24584961,-1.3115845,0.0758667,20.59375,-1.75,-1.15625
1696258350532,0.14355469,-1.2532349,-0.007873535,7.140625,1.453125,-20.28125
1696258350570,0.5275879,-1.1912231,-0.1531372,-1.140625,8.890625,6.96875
1696258350611,0.19897461,-1.2666626,-0.22467041,4.609375,23.21875,-18.734375
1696258350655,0.28466797,-1.086731,-0.06011963,-6.3125,12.359375,-25.984375
1696258350695,0.24047852,-0.7732544,-0.3040161,-2.609375,17.65625,-18.890625
1696258350731,0.27783203,-0.7671509,-0.22198486,-4.65625,21.5,-12.765625
1696258350750,0.17700195,-0.975647,-0.13775635,5.921875,13.46875,-11.0
1696258350792,0.021484375,-1.0213013,-0.035217285,0.171875,12.1875,-13.0
1696258350829,0.033447266,-0.80474854,-0.09161377,3.015625,17.078125,-12.5625
1696258350870,0.068847656,-0.70269775,-0.089416504,5.4375,18.734375,-6.78125
1696258350911,0.05859375,-0.68414307,-0.07989502,6.65625,12.03125,-3.828125
1696258350954,-0.040771484,-0.7234497,-0.062805176,-0.53125,8.8125,0.578125
1696258350993,-0.13598633,-0.7666626,-0.12335205,1.265625,17.484375,4.109375
1696258351030,-0.068115234,-0.7888794,-0.14019775,5.3125,22.5625,8.296875
1696258351076,-0.064208984,-0.86187744,-0.11871338,6.5,15.484375,18.1875
1696258351113,0.095458984,-0.9710083,-0.08795166,4.90625,15.1875,25.328125
1696258351152,-0.022460938,-1.1572876,-0.07598877,-4.1875,0.25,25.328125
1696258351192,-0.22851562,-1.4326782,-0.20025635,-11.171875,12.53125,22.859375
1696258351233,-0.008300781,-1.7705688,-0.21148682,-24.453125,36.703125,14.25
1696258351274,0.5578613,-1.2454224,-0.18682861,-11.171875,24.828125,1.375
1696258351311,0.72875977,-0.9963989,-0.23272705,1.359375,-12.515625,3.59375
1696258351355,0.31323242,-1.1777954,-0.32891846,-16.328125,12.421875,11.953125
1696258351392,0.22021484,-0.77960205,-0.22784424,-25.03125,15.1875,5.265625
1696258351432,0.2409668,-0.68218994,-0.10650635,-14.8125,11.671875,-4.515625
1696258351472,0.5175781,-0.81256104,-0.03741455,-13.625,-6.75,-4.203125
1696258351511,0.46606445,-0.8010864,0.034851074,-17.9375,-15.078125,6.28125
1696258351555,0.27978516,-0.77667236,0.12835693,-18.703125,-12.34375,11.53125
1696258351593,0.16625977,-0.770813,0.0993042,-11.421875,-20.140625,4.890625
1696258351629,0.079589844,-0.7666626,0.06414795,-8.625,-13.25,-0.75
1696258351669,0.076171875,-0.7546997,0.08050537,-2.15625,-3.90625,-0.890625
1696258351709,0.12231445,-0.7217407,0.1281128,6.734375,6.234375,-0.71875
1696258351750,0.17504883,-0.8118286,0.14178467,2.140625,9.328125,4.484375
1696258351791,0.14086914,-0.8130493,0.18450928,8.390625,9.890625,9.90625
1696258351832,0.083984375,-0.986145,0.07366943,7.9375,-21.3125,9.53125
1696258351870,0.2368164,-1.1482544,0.15911865,20.65625,-20.21875,0.375
1696258351913,0.19335938,-1.1421509,-0.049621582,27.765625,-12.296875,-11.609375
1696258351953,0.41674805,-1.1367798,0.105163574,16.828125,6.828125,-8.84375
1696258351991,0.50146484,-1.2009888,-0.030090332,20.109375,0.421875,7.21875
1696258352032,0.18969727,-1.4605103,-0.109191895,1.984375,9.609375,2.28125
1696258352071,0.3203125,-1.3123169,-0.028625488,6.71875,-1.390625,-13.734375
1696258352090,0.33129883,-0.8753052,-0.13287354,-0.484375,7.203125,-21.8125
1696258352134,0.18237305,-0.69122314,-0.22906494,-20.734375,2.78125,-24.515625
1696258352172,-0.022216797,-0.83599854,-0.22808838,-0.125,5.984375,-23.28125
1696258352212,-0.08203125,-0.8389282,-0.031799316,4.25,9.1875,-8.859375
1696258352252,0.2055664,-0.8809204,-0.06915283,-5.9375,18.109375,-8.09375
1696258352290,0.44262695,-0.9175415,0.11102295,-10.90625,-10.953125,-15.5625
1696258352333,0.12109375,-0.67144775,-0.058166504,-2.078125,-27.84375,-6.640625
1696258352370,-0.09033203,-0.6362915,-0.097961426,3.046875,-12.59375,9.3125
1696258352415,-0.14355469,-0.612854,-0.14337158,7.625,0.484375,4.9375
1696258352452,-0.1381836,-0.51348877,-0.073791504,15.15625,6.09375,3.78125
1696258352492,-0.09106445,-0.6069946,-0.0010375977,20.640625,22.953125,13.609375
1696258352531,-0.14379883,-0.89434814,0.06414795,19.484375,17.390625,25.9375
1696258352573,-0.10595703,-1.3811646,-0.121154785,15.140625,-3.453125,26.59375
1696258352610,-0.06933594,-1.6641235,-0.050354004,13.921875,12.515625,28.859375
1696258352654,0.09008789,-1.6419067,-0.2197876,12.421875,8.34375,20.671875
1696258352691,0.3017578,-1.4534302,-0.38311768,-20.046875,4.421875,34.03125
1696258352731,0.9975586,-1.5130005,-0.5667114,-1.828125,3.375,28.765625
1696258352773,0.66845703,-0.77667236,-0.054504395,-2.90625,-3.328125,17.8125
1696258352811,0.3779297,-0.5918579,-0.34259033,-30.625,-25.859375,20.625
1696258352852,0.08618164,-0.6565552,-0.31695557,-12.46875,19.484375,12.359375
1696258352891,0.08886719,-0.9890747,-0.26324463,-10.078125,45.171875,-4.640625
1696258352934,0.27172852,-0.88604736,-0.109191895,-49.09375,29.140625,-6.796875
1696258352973,0.5385742,-0.72369385,-0.16290283,-44.53125,30.15625,-4.421875
1696258353012,0.51464844,-0.772522,0.02947998,-33.046875,20.90625,-8.6875
1696258353052,0.32250977,-0.95391846,0.059753418,-32.6875,12.890625,-17.515625
1696258353091,0.13378906,-0.90802,0.008728027,-32.453125,27.46875,-18.671875
1696258353133,0.07128906,-0.87750244,0.073913574,-31.578125,27.96875,-13.953125
1696258353172,0.17236328,-0.62091064,0.08123779,-16.34375,13.34375,-14.90625
1696258353213,0.36621094,-0.5449829,0.20452881,-10.46875,10.0,-7.390625
1696258353252,0.1706543,-0.57696533,0.19818115,-6.1875,11.65625,1.34375
1696258353291,-0.09667969,-0.8101196,0.059020996,6.140625,-9.359375,10.5625
1696258353331,-0.07128906,-0.8040161,0.15252686,10.046875,16.90625,5.046875
1696258353373,0.0014648438,-0.80841064,0.11395264,23.765625,36.0625,-1.890625
1696258353391,0.12060547,-0.9365845,0.17669678,14.5625,35.734375,-0.4375
1696258353430,0.2541504,-1.0498657,0.14593506,19.03125,24.65625,0.421875
1696258353471,0.6020508,-1.5112915,-0.0413208,5.046875,6.8125,19.28125
1696258353513,0.52685547,-1.4363403,-0.12554932,41.578125,20.046875,35.890625
1696258353551,0.044677734,-1.5264282,-0.16241455,-28.703125,32.09375,-7.96875
1696258353593,0.088378906,-1.1350708,-0.6921997,43.390625,9.359375,-23.328125
1696258353631,0.5656738,-0.7337036,-0.46051025,31.34375,43.6875,7.6875
1696258353671,0.8076172,-0.7334595,-0.46246338,-7.21875,28.6875,-0.828125
1696258353731,0.27661133,-0.99053955,-0.30499268,-2.03125,13.390625,-5.390625
1696258353813,-0.010009766,-1.1209106,-0.34405518,-0.828125,27.375,0.359375
1696258353816,-0.025390625,-0.89019775,-0.3057251,-3.703125,22.765625,-17.34375
1696258353830,0.21728516,-0.6814575,-0.22955322,-7.578125,22.109375,-11.953125
1696258353872,0.23901367,-0.55303955,-0.26934814,-20.390625,19.046875,-3.296875
1696258353913,0.12768555,-0.65460205,-0.2510376,-10.484375,12.5,4.671875
1696258353951,0.091796875,-0.7630005,-0.19244385,-8.4375,7.421875,7.890625
1696258353990,0.0871582,-0.79156494,-0.10089111,-4.890625,1.28125,0.359375
1696258354033,2.4414062E-4,-0.7925415,-0.15655518,-5.828125,-1.453125,-2.53125
1696258354092,-0.009765625,-0.8208618,-0.12945557,-6.890625,9.0,6.0
1696258354110,0.06542969,-0.97857666,-0.13775635,-3.265625,18.953125,18.8125
1696258354151,0.03100586,-1.265686,-0.18585205,-10.953125,6.046875,18.28125
1696258354193,-0.14208984,-1.5984497,-0.29449463,-25.734375,5.625,10.546875
1696258354231,0.38012695,-1.4170532,-0.2053833,-28.1875,29.03125,5.75
1696258354274,0.38110352,-0.9085083,-0.16168213,-50.5,-17.796875,-6.5625
1696258354313,0.32250977,-0.87091064,-0.23736572,-27.59375,-2.171875,0.28125
1696258354354,0.40966797,-1.0274048,-0.11114502,-11.109375,27.375,13.953125
1696258354392,0.31103516,-0.9812622,-0.031066895,-24.140625,18.65625,4.296875
1696258354433,0.27685547,-0.74786377,0.030700684,-32.28125,6.359375,-3.984375
1696258354472,0.23754883,-0.85772705,-0.010070801,-13.125,10.734375,-3.875
1696258354510,0.21459961,-0.92266846,-7.9345703E-4,-14.421875,17.90625,-2.71875
1696258354550,0.16894531,-0.7859497,0.13372803,-8.40625,13.34375,1.28125
1696258354591,0.1550293,-0.76885986,0.14056396,-0.59375,17.453125,5.4375
1696258354632,0.19799805,-0.7090454,0.12689209,-2.859375,14.90625,4.203125
1696258354694,0.17993164,-0.67144775,0.113464355,-1.53125,10.0625,6.296875
1696258354697,0.17651367,-0.63360596,0.12249756,-1.0625,4.359375,9.09375
1696258354733,0.12719727,-0.6983032,0.12957764,3.859375,9.796875,8.140625
1696258354815,0.09814453,-0.91485596,0.035827637,15.125,9.578125,11.4375
1696258354820,0.27929688,-1.2114868,0.16522217,16.03125,13.34375,15.765625
1696258354853,0.35131836,-1.2407837,-0.032043457,37.125,14.640625,-0.84375
1696258354892,0.62768555,-1.3218384,-0.1482544,4.0,3.734375,-7.359375
1696258354933,0.48291016,-1.1829224,-0.0015258789,38.6875,15.78125,0.890625
1696258354992,0.10522461,-1.5310669,-0.13970947,-3.90625,12.6875,-21.828125
1696258355011,0.23925781,-0.9187622,-0.24224854,6.453125,3.734375,-17.53125
1696258355052,0.39453125,-0.72784424,-0.2197876,-1.875,27.640625,-11.078125
1696258355092,0.36279297,-0.8911743,-0.11798096,-8.171875,13.984375,-22.640625
1696258355131,0.01928711,-0.97662354,-0.08087158,3.625,-10.421875,-14.453125
1696258355172,-0.043701172,-0.86309814,-0.085998535,1.390625,9.6875,-7.609375
1696258355211,0.084228516,-0.788147,-0.085510254,5.453125,29.796875,-14.859375
1696258355253,0.13452148,-0.64923096,-0.05303955,8.390625,17.75,-17.078125
1696258355293,0.013183594,-0.6084595,6.713867E-4,-8.78125,4.796875,-8.15625
1696258355330,-0.091796875,-0.61505127,-0.0029907227,-5.140625,5.765625,0.25
1696258355373,-0.12207031,-0.741272,-0.16217041,-0.453125,5.5625,4.203125
1696258355410,0.049560547,-0.8101196,-0.07696533,6.578125,7.84375,9.53125
1696258355452,0.0715332,-0.831604,0.050476074,10.09375,3.0625,16.328125
1696258355498,-0.14135742,-0.89801025,0.016540527,9.265625,1.09375,23.046875
1696258355530,-0.48291016,-1.3604126,-0.29718018,14.96875,-1.859375,29.984375
1696258355570,0.09863281,-1.7307739,-0.2144165,19.0,24.375,38.03125
1696258355611,0.16552734,-1.4758911,-0.12164307,-22.65625,17.59375,20.09375
1696258355653,0.8000488,-1.3408813,-0.6296997,-15.171875,-11.890625,27.109375
1696258355693,0.82714844,-1.1983032,0.06512451,-6.0625,-38.640625,29.84375
1696258355731,0.5559082,-1.2869263,-0.33428955,-4.296875,-1.25,11.359375
1696258355772,0.24389648,-0.7461548,-0.315979,-8.34375,26.09375,9.796875
1696258355810,0.31860352,-0.58795166,-0.17144775,-18.984375,43.65625,-4.46875
1696258355853,0.33520508,-0.55596924,-0.085510254,-27.703125,21.4375,-18.046875
1696258355892,0.3449707,-0.755188,-0.09454346,-34.71875,13.875,-6.703125
1696258355930,0.4807129,-0.7776489,-0.03765869,-17.0625,-10.484375,-3.4375
1696258355992,0.33935547,-0.8440552,0.14813232,-16.421875,-19.09375,-8.921875
1696258356002,0.107421875,-0.83013916,-0.04473877,-37.234375,16.953125,-18.015625
1696258356032,-0.17944336,-0.83843994,-0.007385254,-24.03125,37.4375,-17.953125
1696258356073,-0.037841797,-0.82696533,-0.045959473,-20.078125,41.578125,-18.953125
1696258356113,0.24609375,-0.69659424,0.051208496,5.625,47.328125,-15.328125
1696258356151,0.24023438,-0.85528564,0.11907959,-13.109375,37.8125,-11.671875
1696258356191,0.13623047,-0.7305298,0.08905029,-17.25,12.546875,-5.796875
1696258356231,0.004638672,-0.6795044,0.06317139,-4.609375,15.5,-0.71875
1696258356272,-0.0637207,-0.6980591,0.14984131,-0.3125,35.28125,-2.453125
1696258356312,0.017089844,-0.93170166,0.0770874,3.125,37.796875,1.859375
1696258356352,0.3022461,-1.3538208,0.020202637,12.15625,21.9375,7.40625
1696258356390,0.7614746,-1.2940063,0.018737793,19.96875,16.734375,27.25
1696258356430,0.1315918,-1.8850708,-0.07159424,-18.125,51.703125,25.21875
1696258356470,0.14160156,-1.5342407,-0.27960205,24.4375,21.921875,-13.359375
1696258356511,0.27124023,-0.97491455,-0.39361572,54.296875,26.578125,-6.375
1696258356551,0.51831055,-0.63409424,-0.37261963,-2.828125,42.5625,3.109375
1696258356593,0.38989258,-0.6668091,-0.26324463,-2.109375,35.90625,0.46875
1696258356631,-0.10913086,-0.9182739,-0.49371338,18.84375,34.640625,1.0625
1696258356671,-0.14379883,-1.0762329,-0.40899658,-1.046875,58.046875,8.0
1696258356712,0.2607422,-0.95269775,-0.17242432,-7.109375,39.765625,-0.609375
1696258356750,0.3959961,-0.76104736,-0.17901611,-3.03125,30.484375,-6.625
1696258356792,0.24389648,-0.5762329,-0.19488525,-2.953125,19.421875,2.953125
1696258356832,0.012207031,-0.57232666,-0.12750244,-12.1875,17.171875,12.984375
1696258356872,-0.12695312,-0.76519775,-0.097473145,-25.828125,13.328125,13.671875
1696258356910,-0.099365234,-0.93096924,-0.1831665,-12.34375,12.46875,6.640625
1696258356950,0.13574219,-1.1121216,-0.2966919,0.328125,15.234375,7.875
1696258356992,0.32202148,-1.3596802,-0.22052002,-14.015625,19.046875,8.546875
1696258357031,0.005126953,-1.2481079,-0.3760376,-34.390625,9.96875,5.453125
1696258357070,0.027832031,-1.4214478,-0.33843994,-25.0,24.6875,17.515625
1696258357111,0.92944336,-1.3955688,0.026794434,-27.265625,-6.203125,-10.265625
1696258357170,0.5695801,-0.88848877,-0.144104,-24.375,5.40625,-6.578125
1696258357190,0.3244629,-0.6453247,-0.16339111,-27.6875,-2.421875,2.8125
1696258357232,0.20117188,-0.7197876,-0.20269775,-4.828125,-19.75,0.5625
1696258357272,0.17700195,-0.92388916,0.09954834,-14.078125,10.390625,6.921875
1696258357331,0.20825195,-0.8167114,0.078308105,-21.203125,9.9375,1.59375
1696258357339,0.25097656,-0.6008911,0.026550293,-2.625,1.4375,-9.328125
1696258357372,0.16186523,-0.46343994,0.07342529,0.953125,-6.609375,-2.4375
1696258357414,0.14746094,-0.62750244,0.093933105,-1.0,-8.6875,11.421875
1696258357452,0.1953125,-0.72979736,0.08905029,11.1875,-14.109375,13.25
1696258357490,0.2331543,-0.8621216,0.094177246,19.640625,-14.765625,10.25
1696258357533,0.21386719,-0.99005127,0.20916748,3.734375,-12.453125,7.765625
1696258357572,0.17285156,-1.0982056,0.17889404,8.078125,-11.1875,9.03125
1696258357610,0.2241211,-1.1333618,0.14520264,15.328125,-4.96875,-2.6875
1696258357652,0.04248047,-1.0957642,0.0021362305,17.78125,-3.390625,-14.90625
1696258357692,0.12060547,-1.2896118,-0.014465332,6.90625,6.125,-6.84375
1696258357731,0.6069336,-1.3755493,-0.1375122,19.296875,19.75,9.640625
1696258357771,0.34887695,-1.279602,-0.10430908,4.09375,4.203125,-18.265625
1696258357812,0.2487793,-1.0025024,-0.10406494,-3.078125,-5.21875,-18.546875
1696258357851,0.28857422,-0.76885986,-0.16900635,3.15625,5.359375,-14.5625
1696258357891,0.1875,-0.82525635,-0.18878174,11.53125,13.984375,-12.578125
1696258357932,0.016601562,-0.9714966,-0.07281494,5.03125,16.578125,0.671875
1696258357971,0.0068359375,-0.9221802,-0.08843994,5.546875,11.671875,-4.84375
1696258358013,0.099853516,-0.7835083,-0.085510254,10.890625,24.71875,-1.953125
1696258358054,0.111572266,-0.6243286,-0.093811035,10.734375,19.625,0.84375
1696258358093,0.0871582,-0.7234497,-0.04156494,8.96875,12.21875,6.125
1696258358132,0.0769043,-0.7468872,-0.10748291,6.421875,5.015625,6.671875
1696258358170,0.028808594,-0.72540283,-0.07940674,13.40625,9.40625,6.25
1696258358213,-0.04663086,-0.8496704,-0.16314697,13.0,14.09375,10.46875
1696258358252,0.036621094,-1.0762329,-0.19854736,2.53125,6.34375,16.65625
1696258358292,0.2548828,-1.3462524,-0.06768799,2.171875,6.21875,18.484375
1696258358334,0.19042969,-1.4922485,-0.2859497,-5.015625,-2.78125,2.359375
1696258358372,0.091552734,-1.4024048,-0.3821411,-36.109375,5.59375,18.578125
1696258358412,0.6723633,-1.4797974,-0.22930908,-16.046875,-19.859375,-9.453125
1696258358449,0.52490234,-0.9841919,-0.0029907227,-4.203125,-16.796875,-22.71875
1696258358492,0.39892578,-0.7415161,-0.25152588,-32.875,-11.4375,-6.890625
1696258358533,0.17358398,-0.6499634,-0.17926025,-29.765625,-21.90625,-2.265625
1696258358571,0.22753906,-0.9495239,0.003112793,-12.28125,-14.125,3.984375
1696258358613,0.15771484,-0.9885864,0.12298584,-24.125,-4.359375,3.3125
1696258358630,0.19213867,-0.6721802,0.06585693,-18.28125,-10.328125,-6.5
1696258358670,0.078125,-0.5442505,0.051696777,-4.734375,-17.765625,-2.21875
1696258358712,0.08496094,-0.5652466,0.10321045,-4.75,-12.578125,7.390625
1696258358753,0.08959961,-0.6831665,0.12567139,5.0625,-2.203125,12.25
1696258358792,0.12475586,-0.83966064,0.13372803,6.609375,-0.328125,12.140625
1696258358830,0.12548828,-0.92266846,0.18255615,5.796875,-0.328125,7.421875
1696258358874,0.13842773,-1.0247192,0.19744873,5.375,-4.859375,6.984375
1696258358913,0.1328125,-1.1018677,0.14715576,13.140625,-2.984375,6.53125
1696258358951,0.12939453,-1.1438599,0.06732178,20.921875,6.59375,1.53125
1696258358990,0.10986328,-1.3547974,-0.03717041,14.78125,10.515625,-8.640625
1696258359033,0.7949219,-1.3086548,-0.14874268,20.765625,20.53125,10.3125
1696258359074,0.23632812,-1.2876587,-0.062072754,19.5,16.96875,-21.171875
1696258359112,0.12573242,-1.0613403,-0.14312744,-11.796875,4.28125,-19.703125
1696258359155,0.23925781,-0.71173096,-0.34454346,6.5,8.5625,-9.6875
1696258359192,0.36328125,-0.7991333,-0.17559814,14.59375,23.109375,-2.890625
1696258359232,0.24194336,-1.0855103,-0.0960083,10.265625,3.578125,-3.21875
1696258359273,0.0087890625,-1.1765747,-0.10626221,2.671875,2.03125,-9.0625
1696258359313,0.021240234,-0.8970337,-0.11602783,-1.296875,8.640625,-7.09375
1696258359352,0.15917969,-0.6729126,-0.06573486,1.640625,6.109375,-1.765625
1696258359393,0.20288086,-0.5750122,-0.026428223,1.765625,-2.765625,4.40625
1696258359431,0.079833984,-0.58062744,-0.06402588,6.640625,-9.390625,7.0625
1696258359472,-0.11450195,-0.737854,-0.085510254,6.265625,-0.640625,6.28125
1696258359512,-0.20678711,-0.86431885,-0.13897705,5.09375,11.359375,2.296875
1696258359552,-0.015625,-0.90631104,-0.10992432,-4.75,15.765625,7.125
1696258359592,0.15625,-1.1275024,-0.11187744,-6.171875,17.375,11.65625
1696258359633,0.23706055,-1.5457153,-0.29278564,5.515625,3.515625,11.8125
1696258359674,0.13183594,-1.3928833,-0.21343994,-23.875,-7.640625,15.5
1696258359712,0.7224121,-1.2874146,-0.14361572,-20.34375,-6.171875,19.328125
1696258359753,0.5175781,-1.1497192,-0.17681885,6.78125,-23.984375,-6.78125
1696258359792,0.27026367,-0.96295166,-0.17999268,-8.421875,0.5,1.15625
1696258359830,0.20825195,-0.7842407,-0.24957275,-11.6875,-9.71875,0.125
1696258359869,0.45947266,-0.864563,-0.13067627,-1.484375,-4.515625,-4.734375
1696258359910,0.3569336,-0.897522,0.061706543,-11.46875,-5.765625,-1.171875
1696258359930,0.24780273,-0.7966919,-0.020080566,-13.640625,-13.71875,-2.828125
1696258359970,0.12719727,-0.67510986,-0.004211426,-2.578125,-20.453125,-4.4375
1696258360011,0.12011719,-0.647522,0.016540527,-2.046875,-16.421875,0.125
1696258360052,0.15307617,-0.6643677,0.034362793,-3.6875,-12.5,3.15625
1696258360091,0.12524414,-0.7180786,0.08514404,1.328125,-11.234375,3.03125
1696258360131,0.080322266,-0.88775635,0.0680542,7.1875,-6.875,3.53125
1696258360174,0.115234375,-0.91290283,0.08782959,-1.890625,-11.4375,2.875
1696258360213,0.22143555,-0.913147,0.1630249,5.1875,-16.109375,6.140625
1696258360251,0.22631836,-1.0066528,0.15765381,0.453125,-15.34375,9.015625
1696258360289,0.11328125,-1.1467896,0.057556152,19.625,-4.90625,3.75
1696258360332,0.19116211,-1.388977,0.027282715,17.390625,-0.546875,-3.828125
1696258360371,0.55200195,-1.2974243,-0.28912354,17.171875,6.921875,7.203125
1696258360412,0.18701172,-1.1555786,-0.018371582,-23.890625,22.296875,-6.25
1696258360450,0.3557129,-1.0564575,-0.13702393,0.234375,17.71875,-10.65625
1696258360490,0.2854004,-0.8740845,-0.23687744,-7.40625,10.859375,-7.484375
1696258360531,0.37646484,-0.9661255,-0.03643799,-18.5625,3.625,-11.828125
1696258360573,0.13500977,-1.0088501,-0.101135254,0.15625,0.203125,-17.390625
1696258360613,-0.060302734,-0.9741821,-0.046936035,-3.46875,2.96875,-9.203125
1696258360652,0.016845703,-0.79937744,0.032165527,-1.171875,15.46875,-9.875
1696258360691,0.14379883,-0.73150635,0.019714355,3.0625,12.453125,-11.09375
1696258360733,0.08178711,-0.63482666,-0.04888916,-8.171875,5.921875,-5.40625
1696258360773,0.0021972656,-0.6189575,-0.018859863,0.59375,9.859375,1.671875
1696258360813,4.8828125E-4,-0.7732544,-0.05255127,-0.140625,15.1875,7.25
1696258360852,0.025146484,-0.8308716,-0.0044555664,-5.140625,18.296875,7.609375
1696258360890,0.0024414062,-1.0286255,0.0099487305,-1.125,12.484375,13.84375
1696258360932,0.06518555,-1.3030396,0.0692749,-11.625,6.5,18.0625
1696258360975,0.11767578,-1.3984985,-0.07940674,8.015625,14.796875,6.875
1696258361011,0.119140625,-1.3508911,0.06976318,-29.46875,15.03125,11.109375
1696258361052,0.45239258,-1.4849243,-0.17315674,15.84375,-0.984375,6.484375
1696258361092,0.5900879,-1.1433716,-0.11431885,-1.78125,-11.953125,-3.046875
1696258361134,0.38061523,-0.98809814,-0.033996582,-6.625,2.203125,-3.953125
1696258361172,0.31835938,-0.7913208,-0.14849854,-11.84375,-7.96875,-6.125
1696258361232,0.31103516,-0.8040161,-0.008605957,-15.40625,-0.1875,-5.40625
1696258361251,0.21191406,-0.9109497,0.061706543,-19.765625,6.71875,2.6875
1696258361271,0.16015625,-0.8171997,0.044128418,-16.96875,5.90625,-1.890625
1696258361312,0.12646484,-0.67437744,0.13909912,-11.140625,1.640625,-5.3125
1696258361350,0.10986328,-0.6992798,0.11224365,-6.8125,4.484375,-0.640625
1696258361392,0.10107422,-0.7527466,0.11273193,-7.15625,5.78125,2.984375
1696258361433,0.13867188,-0.7888794,0.16595459,-4.71875,6.765625,8.984375
1696258361472,0.16455078,-0.9343872,0.19915771,1.4375,7.8125,7.375
1696258361512,0.14013672,-1.0806274,0.26312256,-6.578125,-0.84375,0.265625
1696258361551,0.10668945,-0.81329346,0.20892334,7.6875,7.515625,3.359375
1696258361591,0.09643555,-0.6265259,0.13763428,1.453125,3.90625,-4.828125
1696258361631,0.06689453,-0.597229,0.23919678,11.4375,8.796875,-2.90625
1696258361674,0.09814453,-0.77789307,0.19378662,18.546875,6.625,4.6875
1696258361712,0.20654297,-0.9636841,0.30194092,18.921875,-1.578125,4.875
1696258361752,0.08862305,-1.2874146,0.24041748,23.28125,-1.0,5.90625
1696258361791,-0.076660156,-1.4297485,0.101989746,27.015625,-1.46875,1.96875
1696258361832,0.3630371,-1.3372192,0.043395996,4.078125,14.890625,25.53125
1696258361872,0.42016602,-1.5830688,-0.10235596,31.34375,28.109375,19.578125
1696258361913,0.35205078,-1.4553833,-0.22979736,-8.140625,7.953125,-6.453125
1696258361952,0.23852539,-0.8987427,-0.27227783,-7.375,-0.953125,-11.046875
1696258361990,0.26391602,-0.6331177,-0.46148682,-22.375,13.671875,-12.078125
1696258362033,0.19677734,-0.78082275,-0.49786377,-34.265625,16.3125,-3.15625
1696258362071,0.17602539,-1.2278442,-0.16680908,-19.828125,40.65625,-0.34375
1696258362111,0.13427734,-1.3098755,-0.028381348,-5.859375,38.765625,-16.625
1696258362153,0.119384766,-0.96881104,-0.10479736,-34.203125,26.171875,-29.09375
1696258362194,0.111328125,-0.60357666,-0.05645752,-28.625,23.484375,-28.28125
1696258362230,0.05908203,-0.5540161,-0.055725098,-21.640625,29.140625,-15.5625
1696258362269,0.08251953,-0.600647,0.031677246,-10.46875,31.703125,-2.078125
1696258362317,-0.04321289,-0.5772095,0.08148193,3.96875,31.609375,0.390625
1696258362349,-0.13134766,-0.70880127,-0.008605957,-3.875,33.515625,-1.84375
1696258362390,-0.041748047,-0.77545166,-0.07330322,-0.625,33.328125,1.375
1696258362430,0.041015625,-0.89971924,0.058532715,7.15625,23.28125,14.65625
1696258362471,0.10253906,-1.173645,0.12005615,4.9375,9.109375,25.171875
1696258362532,0.07885742,-1.5686646,0.11175537,-2.25,11.34375,15.609375
1696258362551,-0.42578125,-1.4817505,0.08001709,-11.375,19.0625,3.296875
1696258362572,0.040039062,-1.5054321,-0.40142822,2.515625,26.03125,7.4375
1696258362612,0.79174805,-1.3660278,-0.18365479,2.75,27.59375,-3.390625
1696258362651,0.6567383,-1.0108032,-0.13873291,3.40625,23.15625,-10.34375
1696258362692,0.51342773,-0.67437744,-0.061828613,-3.3125,3.6875,2.734375
1696258362731,0.24658203,-0.7493286,-0.16021729,-4.765625,5.59375,6.3125
1696258362771,0.104003906,-0.9644165,-0.09698486,-15.515625,12.453125,10.8125
1696258362812,0.13891602,-0.97540283,-0.049621582,-7.328125,28.234375,4.6875
1696258362852,0.27856445,-0.6873169,0.046081543,-4.1875,30.703125,-3.6875
1696258362900,0.24902344,-0.642395,0.07244873,-1.5625,26.390625,0.5
1696258362932,0.18603516,-0.75787354,0.029968262,-1.8125,24.859375,8.21875
1696258362971,0.1352539,-0.87164307,0.028259277,-6.59375,18.515625,10.25
1696258363011,0.12890625,-0.7764282,0.050964355,0.125,12.859375,7.15625
1696258363052,0.08935547,-0.7842407,0.025817871,0.25,16.4375,7.578125
1696258363091,0.12866211,-0.8999634,0.007019043,-4.96875,26.125,11.9375
1696258363132,0.115722656,-1.1018677,0.1071167,7.53125,27.03125,11.859375
1696258363191,-0.038330078,-1.520813,-0.12799072,28.59375,40.921875,11.546875
1696258363210,0.26953125,-1.1983032,-0.4126587,13.359375,49.546875,-18.25
1696258363253,0.8496094,-0.8928833,-0.049865723,8.734375,27.5625,-10.4375
1696258363292,0.3881836,-1.2307739,-0.28790283,26.40625,24.859375,-20.484375
1696258363333,0.35546875,-1.0794067,-0.22149658,-33.078125,-9.65625,-17.140625
1696258363372,0.19140625,-0.87091064,-0.18756104,-51.953125,-6.890625,-17.546875
1696258363410,0.118896484,-0.83062744,-0.109680176,-38.359375,7.8125,-14.515625
1696258363450,0.103759766,-0.9360962,-0.08868408,-13.59375,12.640625,-4.90625
1696258363492,0.16186523,-0.986145,-0.022277832,2.125,14.015625,-1.34375
1696258363530,0.13378906,-0.6826782,-0.035949707,3.625,28.78125,-0.625
1696258363571,-0.09716797,-0.6030884,-0.035461426,2.734375,14.96875,0.28125
1696258363610,-0.10839844,-0.70391846,-0.017150879,3.765625,6.171875,5.625
1696258363672,0.047607422,-0.673645,-0.015686035,7.015625,10.125,8.140625
1696258363692,0.056152344,-0.74786377,-0.005432129,1.890625,25.078125,11.984375
1696258363730,0.06640625,-1.0689087,0.016784668,-1.0,18.578125,11.640625
1696258363772,0.103759766,-1.5154419,0.10003662,-0.59375,1.265625,11.109375
1696258363811,0.1586914,-1.194397,-0.12677002,9.234375,3.671875,7.640625
1696258363851,0.14892578,-1.0576782,-0.2559204,-0.984375,8.28125,12.4375
1696258363871,0.53271484,-1.4338989,-0.14263916,3.15625,13.015625,20.625
1696258363911,0.5751953,-1.3474731,0.010925293,10.875,-8.71875,4.09375
1696258363952,0.3322754,-0.94781494,-0.09942627,-9.9375,-14.625,1.59375
1696258363991,0.34521484,-0.7715454,-0.19952393,-1.25,-12.828125,-4.0
1696258364031,0.33374023,-0.83428955,-0.10992432,-1.0625,-5.265625,-2.609375
1696258364070,0.29638672,-0.9807739,0.061950684,-11.640625,-2.40625,-1.46875
1696258364112,0.119140625,-0.8694458,0.019226074,-15.9375,-4.75,-10.578125
1696258364152,0.08203125,-0.76226807,-0.016906738,-7.375,-2.125,-14.8125
1696258364197,0.14697266,-0.708313,0.0914917,-9.234375,-1.171875,-15.796875
1696258364231,0.23291016,-0.69488525,0.08343506,-5.625,-2.484375,-5.78125
1696258364271,0.19677734,-0.66363525,0.042419434,-1.640625,-8.953125,1.1875
1696258364310,0.029296875,-0.6692505,0.04852295,3.59375,-1.59375,7.890625
1696258364350,0.01171875,-0.8106079,0.1305542,10.71875,9.65625,6.59375
1696258364391,0.06347656,-0.86968994,0.15985107,12.5625,3.21875,-3.9375
1696258364430,0.087646484,-0.913147,0.08709717,16.71875,5.234375,7.21875
1696258364472,0.14794922,-0.909729,0.19329834,7.609375,2.015625,18.40625
1696258364512,0.16845703,-1.0496216,0.29779053,1.765625,-7.3125,18.6875
1696258364550,0.0014648438,-1.3452759,0.34002686,9.03125,8.078125,18.046875
1696258364592,-0.15820312,-1.2319946,-0.0960083,22.375,18.1875,6.28125
1696258364631,0.5625,-1.2078247,-0.17144775,1.015625,26.84375,26.90625
1696258364671,0.18920898,-1.4539185,-0.25543213,-3.828125,51.4375,23.625
1696258364712,0.48876953,-1.1560669,-0.37579346,40.046875,29.71875,-2.8125
1696258364750,0.31469727,-0.97979736,-0.6194458,-5.1875,14.515625,-3.515625
1696258364791,0.46435547,-0.7000122,-0.44024658,-49.0,28.203125,-1.65625
1696258364832,0.18359375,-0.8255005,-0.317688,-6.671875,28.8125,-7.5625
1696258364871,-0.014160156,-1.0842896,-0.40582275,-14.046875,26.140625,-9.125
1696258364910,-0.05810547,-1.1831665,-0.16802979,-15.6875,29.59375,-20.5
1696258364950,0.19335938,-0.96881104,-0.078186035,-17.40625,24.546875,-19.6875
1696258364991,0.2529297,-0.69195557,-0.14581299,-21.234375,25.03125,-18.0625
1696258365033,0.07128906,-0.6831665,-0.16217041,-8.0625,27.390625,-10.5
1696258365073,-0.0107421875,-0.80963135,-0.09307861,-6.21875,37.96875,0.765625
1696258365112,-0.08862305,-0.9500122,0.008239746,-5.203125,34.421875,4.5625
1696258365192,-0.1027832,-0.7720337,-0.0037231445,-6.65625,24.0625,-3.9375
1696258365200,-0.0847168,-0.5342407,-0.09625244,-11.484375,20.875,-8.265625
1696258365232,-0.06591797,-0.4854126,-0.15093994,-2.328125,24.453125,3.90625
1696258365250,-0.07470703,-0.6729126,-0.1609497,-0.890625,23.28125,25.359375
1696258365312,-0.018310547,-1.1328735,-0.085510254,4.3125,37.421875,28.875
1696258365329,-0.011962891,-1.7437134,0.1149292,-4.109375,33.4375,10.46875
1696258365371,-0.23388672,-1.40802,-0.1038208,-11.609375,21.171875,5.65625
1696258365471,0.22558594,-1.378479,-0.6026001,-5.0,33.234375,28.234375
1696258365475,1.114502,-1.5510864,-0.23883057,3.421875,9.90625,10.4375
1696258365491,0.47387695,-1.1016235,-0.1482544,7.59375,4.84375,-1.5625
1696258365533,0.18286133,-0.6760864,-0.26275635,-14.90625,5.875,3.765625
1696258365571,0.06762695,-0.6790161,-0.43292236,-4.25,8.734375,-1.359375
1696258365614,0.3017578,-0.9143677,-0.12237549,-9.453125,32.46875,1.078125
1696258365651,0.4128418,-0.92681885,-0.065979004,-12.34375,26.21875,7.21875
1696258365715,0.34838867,-0.70928955,-0.020568848,-14.78125,16.640625,-4.625
1696258365730,0.16357422,-0.6651001,-0.018127441,-5.75,10.6875,-3.96875
1696258365772,0.08520508,-0.7017212,-0.06793213,-9.1875,10.625,5.046875
1696258365813,0.14672852,-0.83966064,-0.022277832,-8.1875,17.46875,9.828125
1696258365855,0.21020508,-0.86920166,0.045837402,-4.375,15.125,7.265625
1696258365890,0.13891602,-0.87579346,0.054870605,-3.234375,14.578125,10.90625
1696258365932,0.07519531,-0.86968994,0.010681152,-5.46875,9.796875,8.75
1696258365974,0.125,-0.87091064,0.034118652,-8.171875,14.59375,10.921875
1696258366016,0.122802734,-0.98321533,0.028503418,-2.328125,20.015625,10.40625
1696258366051,0.10864258,-1.2886353,-0.12872314,0.8125,25.921875,-0.078125
1696258366153,0.52319336,-1.3445435,-0.32281494,-1.578125,21.3125,14.625
1696258366161,0.45703125,-1.272522,-0.20245361,-27.75,31.78125,-1.5
1696258366171,0.6047363,-1.0264282,-0.23492432,2.203125,2.53125,-9.9375
1696258366212,0.31518555,-0.8179321,-0.117004395,-3.453125,15.015625,-9.0625
1696258366273,0.1159668,-0.8574829,-0.09967041,-20.109375,19.359375,-13.96875
1696258366291,0.033203125,-0.99591064,-0.117004395,-8.953125,6.953125,-15.96875
1696258366352,0.1743164,-0.8670044,-0.11895752,-3.5625,22.921875,-16.40625
1696258366370,0.2409668,-0.694397,-0.09576416,5.015625,34.78125,-14.875
1696258366432,0.17407227,-0.6746216,-0.03643799,1.4375,23.984375,-4.609375
1696258366451,0.07397461,-0.6777954,-0.02545166,-6.34375,5.265625,5.453125
1696258366471,0.0,-0.798645,-0.10430908,3.125,7.265625,9.1875
1696258366512,-0.03125,-0.9336548,-0.08087158,4.546875,19.53125,10.765625
1696258366551,0.05053711,-0.94000244,0.010192871,-5.4375,16.390625,8.0
1696258366621,0.09692383,-1.013977,0.06512451,-12.8125,11.78125,8.40625
1696258366632,0.17456055,-1.3052368,0.018737793,8.875,10.34375,13.09375
1696258366671,0.26416016,-1.1123657,-0.3562622,4.84375,-10.828125,4.578125
1696258366711,0.27075195,-1.3994751,0.042175293,-6.6875,11.203125,13.96875
1696258366752,0.70654297,-1.4585571,0.010192871,3.515625,-14.84375,-1.484375
1696258366793,0.47729492,-1.05719,-0.043762207,-5.140625,-21.125,-6.890625
1696258366852,0.4243164,-0.8484497,-0.11480713,-7.09375,-11.625,-3.328125
1696258366871,0.3137207,-0.8550415,-0.1362915,-10.09375,-15.1875,-5.3125
1696258366911,0.40942383,-0.82354736,0.061706543,-8.40625,-16.078125,-4.25
1696258366995,0.30908203,-0.833313,0.10345459,-3.703125,-6.296875,-2.9375
1696258367001,0.19824219,-0.68292236,0.011169434,-6.5,-14.4375,-1.890625
1696258367030,0.1352539,-0.60894775,0.14129639,2.21875,-20.90625,-0.703125
1696258367071,0.07861328,-0.6519165,0.066589355,6.171875,-17.890625,-0.421875
1696258367116,0.068603516,-0.7005005,0.014831543,7.109375,-15.0625,3.15625
1696258367172,0.16430664,-0.7703247,0.11883545,7.328125,-3.875,7.25
1696258367191,0.20703125,-0.85650635,0.1984253,6.328125,-9.765625,4.84375
1696258367253,0.20117188,-0.91070557,0.19085693,8.359375,-24.890625,-6.046875
1696258367271,0.076660156,-0.8789673,0.047546387,14.796875,-28.390625,-3.25
1696258367311,0.0017089844,-0.97052,0.034362793,10.796875,-9.375,12.296875
1696258367373,-0.005126953,-1.3838501,0.06854248,19.125,16.734375,13.4375
1696258367391,0.16625977,-1.5359497,-0.13189697,7.9375,14.4375,-3.734375
1696258367434,0.7692871,-1.3530884,-0.15802002,17.78125,19.03125,5.203125
1696258367472,0.28759766,-1.326477,-0.09063721,2.5625,20.671875,-24.921875
1696258367512,0.39208984,-0.9336548,-0.11651611,6.453125,-3.453125,-15.625
1696258367554,0.30664062,-0.71881104,-0.101623535,-10.765625,2.8125,-2.0
1696258367592,0.2319336,-0.8179321,-0.17510986,-23.390625,-2.640625,-4.046875
1696258367631,0.111328125,-1.0200806,-0.042541504,-25.96875,-3.796875,-10.21875
1696258367672,0.04736328,-0.93951416,-0.035461426,-0.234375,4.8125,-6.640625
1696258367713,0.03930664,-0.68048096,-0.12506104,14.8125,9.0,-4.734375
1696258367792,0.068603516,-0.54278564,-0.069885254,12.078125,22.15625,1.765625
1696258367798,0.15405273,-0.6416626,0.08392334,2.703125,9.25,10.8125
1696258367809,0.10498047,-0.8609009,0.06317139,-6.765625,-0.078125,8.265625
1696258367852,0.060791016,-0.9727173,0.02166748,-3.84375,0.125,-0.8125
1696258367892,0.14624023,-1.093811,0.08001709,4.78125,-6.015625,0.203125
1696258367932,0.28515625,-1.3396606,-0.077941895,7.1875,-15.640625,10.625
1696258367972,0.14794922,-1.3076782,-0.30255127,-19.46875,-25.734375,1.4375
1696258368013,0.17651367,-1.6248169,0.058532715,-1.625,20.453125,-0.484375
1696258368051,0.57666016,-1.3252563,0.018249512,-4.5,-22.078125,-10.4375
1696258368091,0.5686035,-0.894104,-0.13946533,-5.984375,-21.3125,-15.140625
1696258368132,0.42749023,-0.63067627,-0.08648682,-7.15625,-31.15625,-3.84375
1696258368172,0.1586914,-0.75323486,0.043151855,-1.765625,-12.59375,5.890625
1696258368214,0.10839844,-0.8921509,0.13909912,-7.140625,-15.109375,6.171875
1696258368252,0.15283203,-0.80792236,0.046081543,-7.28125,-14.296875,-2.828125
1696258368292,0.1730957,-0.6917114,0.16131592,2.640625,-10.265625,-2.15625
1696258368333,0.18017578,-0.64630127,0.073913574,6.828125,-14.5625,1.453125
1696258368371,0.16430664,-0.67071533,0.08734131,8.8125,-18.5625,10.25
1696258368412,0.12695312,-0.73443604,0.13983154,8.25,-13.921875,15.796875
1696258368451,0.07788086,-0.82159424,0.090270996,6.21875,-11.78125,17.234375
1696258368491,0.10107422,-0.98687744,0.13128662,8.734375,-3.875,10.8125
1696258368532,0.14941406,-1.0281372,0.15301514,7.140625,-4.078125,4.890625
1696258368573,0.23046875,-1.015686,0.24139404,24.328125,-3.640625,8.46875
1696258368611,0.15454102,-1.0889282,-0.019836426,19.390625,-11.421875,8.796875
1696258368654,0.1538086,-1.1155396,0.012634277,19.71875,10.328125,-0.015625
1696258368715,0.55737305,-1.2786255,-0.15899658,20.203125,15.703125,17.4375
1696258368730,0.23706055,-1.4424438,-0.2876587,4.734375,36.984375,-10.3125
1696258368771,0.30029297,-1.1199341,-0.25079346,8.1875,14.71875,-15.09375
1696258368812,0.40649414,-0.86065674,-0.23736572,3.46875,28.4375,-10.46875
1696258368851,0.4658203,-0.9529419,-0.2263794,3.046875,13.6875,-13.796875
1696258368892,0.14697266,-1.0349731,-0.25445557,-0.125,4.0,-10.859375
1696258368929,-0.0107421875,-0.8682251,-0.21099854,-0.6875,8.125,-9.953125
1696258369036,-0.05053711,-0.7720337,-0.11993408,3.671875,23.609375,-12.4375
1696258369048,0.050048828,-0.661438,-0.08404541,-5.046875,24.046875,0.78125
1696258369091,0.12524414,-0.61968994,-0.09234619,-23.578125,4.203125,6.484375
1696258369098,0.12988281,-0.53912354,-0.105529785,-26.90625,3.234375,4.921875
1696258369110,0.061279297,-0.61383057,-0.02154541,-0.09375,14.6875,8.328125
1696258369151,0.05102539,-0.90826416,-0.08721924,18.671875,4.453125,8.390625
1696258369193,-0.1003418,-1.1414185,-0.0803833,-7.84375,3.6875,10.796875
1696258369233,-0.02758789,-1.1360474,-0.02154541,-11.125,16.8125,18.015625
1696258369272,0.15039062,-1.5210571,-0.1843872,-2.3125,8.5625,7.78125
1696258369313,0.114746094,-1.583313,-0.045715332,-23.25,20.25,8.953125
1696258369351,0.73535156,-1.3955688,-0.07867432,15.84375,-24.578125,5.484375
1696258369391,0.89501953,-0.8428345,-0.1843872,-12.109375,-27.8125,1.578125
1696258369431,0.3659668,-1.0046997,-0.20758057,-9.140625,-0.15625,1.8125
1696258369471,0.10961914,-1.0022583,-0.20831299,-5.09375,-19.8125,-1.796875
1696258369511,0.21118164,-0.8526001,-0.07623291,-13.40625,-11.625,-10.328125
1696258369552,0.41503906,-0.6939087,-0.05670166,-4.6875,1.46875,-2.703125
1696258369593,0.37036133,-0.68878174,0.042907715,-4.828125,-5.171875,3.171875
1696258369630,0.1418457,-0.71954346,0.051696777,-3.125,-39.21875,0.515625
1696258369673,0.022460938,-0.7024536,-0.015930176,-0.703125,-31.421875,4.609375
1696258369712,0.10131836,-0.7161255,0.05316162,5.359375,-5.765625,7.5
1696258369753,0.18603516,-0.59161377,0.07366943,9.5,-8.484375,7.40625
1696258369793,0.16137695,-0.61920166,0.12542725,9.453125,-10.265625,12.1875
1696258369835,0.17749023,-0.8623657,0.15814209,2.796875,-15.859375,13.921875
1696258369872,0.28735352,-1.2192993,0.15032959,17.0,-14.0625,21.8125
1696258369911,0.40893555,-1.4712524,0.090270996,17.46875,-20.15625,15.421875
1696258369953,0.05444336,-1.2835083,0.105895996,21.484375,-2.4375,-12.859375
1696258369991,0.18969727,-1.0828247,-0.10650635,-11.625,7.453125,-11.0625
1696258370033,0.5578613,-1.0828247,-0.015197754,24.140625,23.96875,11.53125
1696258370072,0.26293945,-1.3474731,-0.26470947,-2.234375,27.390625,-30.59375
1696258370113,0.25341797,-1.019104,-0.21221924,-2.390625,2.5625,-18.421875
1696258370155,0.32617188,-0.72613525,-0.23492432,-6.203125,21.78125,-18.625
1696258370192,0.19165039,-0.7581177,-0.2288208,1.640625,11.15625,-23.03125
1696258370230,-0.072021484,-0.9356079,-0.112854004,-1.203125,7.875,-8.90625
1696258370269,0.024414062,-0.7642212,-0.07965088,5.890625,30.8125,-4.9375
1696258370310,0.1586914,-0.60113525,-0.14117432,6.390625,28.59375,-2.875
1696258370350,0.23242188,-0.6045532,-0.10284424,8.78125,13.671875,-4.578125
1696258370390,0.15600586,-0.65997314,-0.058654785,-0.515625,-5.171875,3.515625
1696258370409,0.037597656,-0.69854736,-0.039855957,1.953125,-6.734375,15.296875
1696258370450,-0.07080078,-0.79034424,-0.09259033,10.28125,1.609375,17.171875
1696258370491,-0.22949219,-1.0542603,-0.06402588,9.75,15.296875,20.53125
1696258370531,-0.3400879,-1.5200806,-0.30596924,20.78125,1.984375,31.015625
1696258370570,-0.057128906,-1.779602,-0.16534424,-25.75,23.265625,23.546875
1696258370609,0.35253906,-1.3833618,-0.0049438477,-37.859375,25.140625,20.8125
1696258370651,0.41723633,-1.171936,-0.32354736,-7.15625,10.828125,19.765625
1696258370690,0.22167969,-0.9590454,-0.534729,-63.890625,-13.625,38.46875
1696258370731,0.30126953,-0.96343994,-0.3477173,-7.453125,3.59375,17.96875
1696258370773,0.3173828,-0.56036377,-0.37921143,-41.75,59.640625,-17.015625
1696258370811,0.24194336,-0.69976807,-0.44781494,-25.09375,28.328125,-15.203125
1696258370852,0.44433594,-0.80718994,-0.34429932,-37.90625,69.0,-9.125
1696258370892,0.65649414,-1.1167603,-0.19586182,-47.46875,74.4375,3.96875
1696258370934,0.45581055,-1.0601196,-0.0071411133,-41.703125,43.328125,-16.1875
1696258370971,0.26953125,-1.0112915,-0.06964111,-22.671875,47.671875,-23.609375
1696258371020,0.3154297,-0.88409424,-0.06842041,-26.9375,33.6875,-19.5
1696258371053,0.2421875,-0.8357544,-0.05645752,-11.53125,55.046875,-14.6875
1696258371094,0.111083984,-0.76446533,-0.08843994,0.9375,56.421875,-4.671875
1696258371133,0.16455078,-0.7383423,0.061462402,-9.21875,55.53125,1.046875
1696258371171,0.25097656,-0.7119751,0.08294678,-1.109375,47.359375,3.53125
1696258371211,0.26757812,-0.6748657,0.08782959,-0.546875,25.859375,2.890625
1696258371252,0.14135742,-0.67315674,0.08758545,-14.0,7.375,8.078125
1696258371291,-0.06958008,-0.7022095,0.101989746,-0.0625,11.234375,14.625
1696258371331,-0.11621094,-0.93707275,0.13031006,3.046875,35.765625,16.265625
1696258371374,0.075927734,-1.260315,-0.026916504,10.921875,44.796875,15.671875
1696258371415,0.54907227,-1.4485474,-0.08868408,14.53125,49.890625,9.984375
1696258371452,0.93310547,-1.4141235,-0.09039307,7.953125,28.78125,18.53125
1696258371491,0.25170898,-1.4776001,-0.39727783,-6.484375,25.125,-24.03125
1696258371530,0.30126953,-1.2371216,-0.39215088,26.5625,17.65625,-17.34375
1696258371573,0.47387695,-0.7229614,-0.21710205,2.84375,43.75,-5.171875
1696258371613,0.5671387,-0.6975708,-0.24810791,-7.546875,31.359375,-13.90625
1696258371651,0.12133789,-0.93634033,-0.2835083,2.890625,13.953125,-13.15625
1696258371691,-0.0043945312,-0.9668579,-0.1843872,5.75,28.984375,-0.578125
1696258371733,0.0793457,-0.8255005,-0.14459229,5.59375,30.5625,-17.46875
1696258371751,0.1237793,-0.6470337,-0.23028564,3.40625,22.359375,-13.84375
1696258371792,0.21582031,-0.66070557,-0.2954712,-0.0625,8.828125,4.28125
1696258371832,0.19140625,-0.69732666,-0.01763916,-3.03125,10.765625,14.375
1696258371874,0.005126953,-0.7112427,-0.039367676,-7.25,9.71875,11.296875
1696258371911,-0.15893555,-0.7246704,-0.20147705,-6.484375,-5.046875,3.171875
1696258371952,-0.032226562,-0.67193604,-0.26104736,-6.28125,11.59375,5.0625
1696258371991,0.07519531,-0.92510986,-0.30181885,-6.078125,15.71875,14.0
1696258372032,0.114990234,-1.5772095,-0.25128174,-20.8125,17.6875,26.546875
1696258372073,0.046142578,-1.3972778,-0.29888916,-32.6875,30.9375,18.671875
1696258372109,0.6320801,-1.482727,-0.1260376,-14.28125,12.46875,15.796875
1696258372150,0.49291992,-1.2007446,-0.050598145,-11.09375,-33.4375,6.21875
1696258372191,0.7939453,-0.9956665,-0.24591064,-11.625,-15.78125,11.234375
1696258372232,0.44189453,-0.9133911,-0.26715088,3.328125,-16.3125,-0.65625
1696258372271,0.30810547,-0.81256104,-0.16217041,-9.671875,-8.90625,-4.53125
1696258372312,0.24902344,-0.77301025,-0.027160645,-9.171875,1.984375,-3.96875
1696258372353,0.33862305,-0.7070923,-0.057678223,0.53125,-4.796875,-1.1875
1696258372391,0.32983398,-0.6465454,0.045837402,-7.125,-0.71875,-0.09375
1696258372430,0.18774414,-0.6487427,0.07879639,-12.046875,-12.859375,2.09375
1696258372469,0.12133789,-0.69610596,-0.050354004,-8.28125,-33.40625,6.515625
1696258372510,0.14331055,-0.80426025,0.029724121,18.453125,-21.578125,4.421875
1696258372552,0.20800781,-0.80426025,0.12982178,8.75,0.265625,2.765625
1696258372593,0.19165039,-0.8428345,0.13397217,9.234375,-2.65625,5.84375
1696258372634,0.17871094,-0.87335205,0.120788574,11.5625,-11.359375,5.796875
1696258372672,0.18481445,-0.9024048,0.02557373,10.40625,-15.78125,4.53125
1696258372712,0.32617188,-1.0515747,0.09124756,14.90625,-3.59375,13.640625
1696258372756,0.2709961,-1.3535767,-0.039123535,26.328125,0.640625,-1.078125
1696258372793,0.4345703,-1.3340454,-0.06964111,-2.859375,1.8125,-7.890625
1696258372833,0.35424805,-1.3091431,-0.15167236,14.765625,27.96875,-8.453125
1696258372871,0.2956543,-1.1907349,-0.17852783,-3.34375,16.6875,-27.96875
1696258372912,0.32666016,-0.77301025,-0.28155518,-2.890625,12.25,-16.109375
1696258372953,0.3701172,-0.7649536,-0.3201294,-1.296875,28.921875,-12.546875
1696258373011,0.24487305,-0.94122314,-0.1338501,1.703125,13.109375,-18.75
1696258373031,0.14428711,-0.9976196,-0.08428955,1.296875,1.203125,-14.71875
1696258373053,0.05883789,-0.8233032,-0.16680908,1.109375,11.875,-13.75
1696258373090,0.056152344,-0.63116455,-0.15167236,-1.265625,12.734375,-8.234375
1696258373131,0.06225586,-0.6121216,-0.10430908,0.984375,10.890625,-2.578125
1696258373172,0.015380859,-0.61968994,-0.09112549,-0.140625,7.015625,-0.015625
1696258373209,-0.01928711,-0.6321411,-0.11480713,4.125,11.125,2.46875
1696258373252,0.043701172,-0.65509033,-0.1687622,6.546875,8.25,4.390625
1696258373292,0.13500977,-0.67388916,-0.1116333,16.1875,5.453125,9.875
1696258373330,0.07470703,-0.79278564,-0.06939697,15.921875,-2.6875,20.953125
1696258373375,-0.13916016,-1.0144653,-0.097961426,14.890625,-2.953125,30.296875
1696258373411,-0.1953125,-1.5440063,-0.19610596,17.390625,-1.375,28.921875
1696258373455,0.08325195,-1.848938,-0.14093018,-0.15625,2.140625,24.65625
1696258373492,0.22973633,-1.4873657,-0.20147705,-9.921875,5.140625,26.4375
1696258373531,-0.00390625,-1.1638794,-0.33135986,-51.203125,4.28125,42.0
1696258373570,0.34594727,-1.3933716,-0.4307251,-15.796875,-3.59375,19.453125
1696258373613,0.25683594,-1.0288696,-0.42633057,-20.125,10.375,-5.140625
1696258373651,0.98413086,-0.79522705,-0.52716064,-7.421875,38.6875,3.375
1696258373691,0.8547363,-0.5342407,-0.30426025,-17.75,14.34375,12.890625
1696258373732,0.48242188,-0.67022705,-0.21392822,-34.1875,8.125,0.984375
1696258373771,0.16625977,-1.0076294,-0.15167236,-46.40625,17.078125,10.15625
1696258373812,0.23217773,-0.96954346,-0.23199463,-50.609375,38.015625,-10.796875
1696258373853,0.3408203,-0.7859497,-0.10723877,-35.546875,34.203125,-24.765625
1696258373890,0.45166016,-0.76153564,-0.05230713,-20.03125,28.03125,-16.265625
1696258373941,0.3605957,-0.7661743,0.006286621,-20.78125,22.875,-18.5
1696258373972,0.2006836,-0.79156494,-0.016662598,-14.1875,23.171875,-11.96875
1696258374012,0.09814453,-0.7463989,-0.05645752,-17.15625,17.890625,-8.515625
1696258374053,0.0859375,-0.6958618,0.001159668,-13.171875,21.984375,-10.078125
1696258374091,0.16894531,-0.67633057,0.08709717,-13.0,38.828125,-5.578125
1696258374131,0.18481445,-0.76519775,0.13226318,-5.8125,39.21875,-2.03125
1696258374172,0.21240234,-0.8743286,0.1749878,-12.359375,19.375,-4.125
1696258374212,0.12695312,-0.7905884,0.10296631,-6.09375,18.921875,3.015625
1696258374252,0.043945312,-0.8670044,0.10345459,2.34375,17.953125,17.03125
1696258374291,-0.048828125,-1.1143188,0.08514404,12.984375,35.859375,29.140625
1696258374331,-0.05053711,-1.3103638,-0.078186035,27.984375,72.921875,13.28125
1696258374351,0.45458984,-1.4402466,-0.117248535,0.1875,61.40625,10.234375
1696258374391,0.5534668,-1.1663208,-0.070373535,20.703125,71.390625,9.125
1696258374431,0.20605469,-1.1502075,-0.33673096,-10.78125,66.46875,-22.8125
1696258374473,0.13085938,-0.9151001,-0.58013916,24.8125,37.03125,-5.78125
1696258374512,0.54296875,-0.89849854,-0.44488525,-7.671875,52.328125,12.828125
1696258374551,0.5859375,-1.0171509,-0.42486572,8.96875,44.40625,-12.703125
1696258374592,0.2541504,-0.92071533,-0.34332275,-6.3125,32.34375,-6.9375
1696258374631,-0.005859375,-0.77008057,-0.32867432,-18.875,40.96875,-0.71875
1696258374675,0.020751953,-0.6399536,-0.28814697,2.875,53.875,-11.234375
1696258374713,0.22827148,-0.5696411,-0.22198486,-1.921875,36.671875,-1.1875
1696258374751,0.29174805,-0.53790283,-0.18634033,-8.90625,24.46875,11.265625
1696258374791,0.23046875,-0.5889282,-0.070129395,-7.359375,19.671875,14.1875
1696258374837,-0.006591797,-0.76348877,-0.10797119,-6.921875,10.546875,15.859375
1696258374872,-0.1628418,-0.9800415,-0.23248291,4.3125,1.234375,14.296875
1696258374911,0.030273438,-1.0110474,-0.3303833,-6.015625,0.671875,15.6875
1696258374953,0.26513672,-1.2300415,-0.380188,-1.265625,8.828125,18.6875
1696258374992,0.27172852,-1.3972778,-0.40338135,-21.640625,-4.3125,11.390625
1696258375031,0.5217285,-1.7805786,-0.24273682,-20.90625,-6.0,29.359375
1696258375075,0.74658203,-1.0984497,-0.07208252,-20.109375,-36.34375,-0.8125
1696258375112,0.47143555,-0.7959595,-0.380188,-23.703125,-15.984375,2.671875
1696258375153,0.43823242,-0.68707275,-0.2649536,-18.96875,-19.0,6.875
1696258375195,0.42260742,-0.7383423,-0.070373535,-5.828125,-1.953125,4.796875
1696258375231,0.41723633,-0.75445557,0.059265137,-15.875,0.109375,5.03125
1696258375271,0.33618164,-0.72540283,-0.046691895,-7.625,-14.375,-1.265625
1696258375311,0.2836914,-0.661438,-0.051818848,-5.21875,-20.53125,-7.796875
1696258375351,0.1694336,-0.45074463,0.04510498,7.15625,-21.390625,-7.9375
1696258375391,0.18676758,-0.5610962,-0.054748535,16.453125,-11.734375,0.515625
1696258375433,0.21679688,-0.70562744,-0.0154418945,22.0,3.265625,7.28125
1696258375473,0.3425293,-0.9783325,0.08831787,9.265625,2.890625,11.90625
1696258375511,0.32788086,-1.0640259,0.09100342,8.6875,-3.078125,11.703125
1696258375552,0.23510742,-1.2070923,-0.024475098,29.78125,-10.15625,8.75
1696258375590,0.22387695,-1.1643677,-0.20098877,6.3125,-4.40625,-14.703125
1696258375632,0.60375977,-1.2947388,-0.038635254,-3.703125,18.859375,-7.5
1696258375651,0.5131836,-1.31427,-0.10211182,0.78125,15.6875,-13.703125
1696258375691,0.30078125,-1.0374146,-0.18804932,-13.453125,0.15625,-30.71875
1696258375730,0.33032227,-0.77960205,-0.23687744,-11.578125,-1.828125,-23.984375
1696258375794,0.37060547,-0.73883057,-0.20123291,4.65625,10.03125,-17.28125
1696258375813,0.2692871,-0.85943604,-0.19268799,10.546875,9.921875,-14.90625
1696258375851,0.07543945,-0.87457275,-0.18463135,6.8125,4.90625,-15.046875
1696258375891,0.0078125,-0.7949829,-0.11529541,10.71875,9.65625,-16.6875
1696258375931,0.026123047,-0.7424927,-0.14898682,14.6875,12.359375,-15.484375
1696258375973,0.14501953,-0.73394775,-0.13067627,6.46875,8.421875,-6.953125
1696258376011,0.19458008,-0.7161255,-0.101379395,6.546875,-1.328125,2.546875
1696258376053,0.01586914,-0.8184204,-0.16241455,7.46875,0.3125,7.546875
1696258376091,-0.07861328,-0.93585205,-0.19122314,5.875,6.171875,5.296875
1696258376130,-0.115722656,-0.9561157,-0.14556885,10.5,14.21875,3.75
1696258376171,0.033935547,-0.8843384,-0.28326416,10.4375,4.546875,8.046875
1696258376213,0.2956543,-0.7468872,-0.13409424,0.640625,11.96875,14.4375
1696258376252,0.1743164,-1.0110474,-0.014465332,5.25,21.171875,16.703125
1696258376334,-0.17382812,-1.7139282,-0.38116455,-15.6875,-1.6875,23.40625
1696258376415,0.5332031,-1.7207642,-0.2695923,-18.8125,5.625,16.265625
1696258376422,0.47729492,-1.1287231,0.0016479492,-6.3125,-19.796875,-1.984375
1696258376427,0.3317871,-0.98565674,-0.5706177,-9.890625,-50.984375,8.765625
1696258376452,0.4465332,-0.8579712,-0.34039307,-22.21875,-31.1875,3.375
1696258376491,0.41210938,-0.753479,-0.17608643,-28.9375,1.125,2.5625
1696258376553,0.38232422,-0.9011841,0.013122559,-26.8125,-0.125,-1.140625
1696258376570,0.296875,-0.8682251,-0.015686035,-17.734375,-13.421875,-6.265625
1696258376612,0.22607422,-0.62579346,-0.019836426,-7.90625,-15.34375,-4.78125
1696258376652,0.21777344,-0.48150635,0.028259277,-11.828125,-28.1875,-0.671875
1696258376712,0.140625,-0.5623169,0.050476074,-2.109375,-26.65625,7.578125
1696258376731,0.10644531,-0.73883057,0.01776123,-0.9375,-15.078125,10.4375
1696258376773,0.14648438,-0.8870239,0.042907715,11.53125,-4.46875,13.203125
1696258376812,0.265625,-0.9360962,0.11785889,14.015625,1.84375,12.109375
1696258376851,0.2849121,-0.8633423,0.06561279,16.71875,-4.25,7.390625
1696258376891,0.16503906,-0.8609009,0.09637451,46.921875,-14.28125,6.703125
1696258376950,0.21704102,-1.0794067,-0.38360596,60.53125,-18.96875,15.5
1696258376971,0.21264648,-1.0090942,0.0072631836,28.9375,21.140625,7.109375
1696258376990,0.8208008,-1.2713013,-0.14874268,25.75,8.609375,17.984375
1696258377032,0.44433594,-1.2730103,-0.3916626,-2.6875,6.65625,2.09375
1696258377072,0.34936523,-1.2063599,-0.35845947,-8.390625,11.328125,-9.265625
1696258377111,0.46313477,-0.8831177,-0.17779541,13.3125,4.09375,-12.46875
1696258377152,0.45947266,-0.850647,-0.3423462,-1.984375,12.015625,-15.046875
1696258377195,0.32714844,-0.8604126,-0.44732666,6.84375,12.53125,-19.015625
1696258377252,0.15673828,-0.9175415,-0.35723877,1.703125,20.859375,-15.5625
1696258377272,0.018554688,-0.82769775,-0.23956299,-5.109375,25.6875,-13.0
1696258377311,0.099853516,-0.7493286,-0.18023682,-4.640625,19.09375,-17.734375
1696258377351,0.22363281,-0.7581177,-0.23931885,-3.859375,17.328125,-12.078125
1696258377392,0.21484375,-0.74102783,-0.24371338,-9.515625,4.421875,0.453125
1696258377452,0.10107422,-0.7324829,-0.21588135,-5.25,2.75,3.796875
1696258377471,-0.0690918,-0.8069458,-0.22515869,-5.671875,11.828125,2.625
1696258377511,-0.12939453,-0.8303833,-0.18389893,3.015625,21.0,1.1875
1696258377550,0.0107421875,-0.7058716,-0.25421143,3.484375,21.453125,3.546875
1696258377592,0.21435547,-0.6021118,-0.16851807,-0.890625,15.703125,14.328125
1696258377632,0.21777344,-0.65167236,-0.010803223,7.234375,11.09375,25.34375
1696258377673,0.111328125,-1.164856,-0.37261963,17.390625,-6.359375,28.21875
1696258377713,-0.10473633,-2.0,-0.631897,-41.078125,-9.078125,21.5
1696258377752,0.36108398,-1.8735962,-0.24249268,-34.046875,45.578125,5.65625
1696258377814,0.5617676,-1.0361938,-0.15557861,3.3125,-21.390625,2.625
1696258377851,0.61083984,-0.8526001,-0.4439087,-19.703125,-37.40625,8.59375
1696258377972,0.66015625,-0.9031372,-0.3423462,-16.390625,-29.453125,12.28125
1696258377976,0.39892578,-0.89678955,-0.2288208,-8.53125,-21.265625,3.921875
1696258377982,0.40161133,-0.69122314,-0.10675049,-27.734375,-21.890625,-3.171875
1696258377992,0.37646484,-0.7481079,-0.10675049,-9.1875,-23.78125,-7.859375
1696258378031,0.39404297,-0.70147705,-0.0960083,-12.015625,-16.4375,-6.59375
1696258378093,0.2590332,-0.5852661,0.015075684,-16.484375,-18.53125,-5.09375
1696258378112,0.19799805,-0.6436157,0.04559326,-5.875,-24.0,-0.828125
1696258378191,0.17553711,-0.7210083,-0.018127441,-0.875,-25.0,1.34375
1696258378197,0.20458984,-0.80010986,0.06097412,5.71875,-19.28125,4.3125
1696258378250,0.24584961,-0.8140259,0.14324951,12.40625,-24.5,4.5625
1696258378254,0.13671875,-0.8323364,0.09320068,12.609375,-15.984375,1.625
1696258378393,0.068847656,-0.8755493,-0.0049438477,10.953125,-10.328125,2.21875
1696258378398,0.11450195,-0.8567505,0.07635498,11.484375,-1.359375,4.296875
1696258378412,0.234375,-1.1443481,0.062438965,13.15625,10.953125,8.234375
1696258378417,0.4411621,-1.2139282,0.032409668,8.875,4.8125,0.796875
1696258378452,0.64453125,-1.3320923,-0.18023682,15.265625,-2.921875,10.53125
1696258378570,0.3815918,-1.5059204,-0.06451416,2.171875,21.125,-6.21875
1696258378574,0.29589844,-1.1148071,-0.11090088,8.3125,22.25,-14.953125
1696258378630,0.3503418,-0.8467407,-0.2420044,11.390625,31.515625,-16.0625
1696258378651,0.41259766,-0.7349243,-0.12017822,-16.015625,23.671875,-12.84375
1696258378654,0.30517578,-0.8154907,-0.16900635,4.578125,10.671875,-14.96875
1696258378689,0.14208984,-0.91534424,-0.2420044,4.75,10.765625,-15.046875
1696258378750,-0.0068359375,-0.881897,-0.13970947,-9.5625,16.9375,-14.859375
1696258378932,0.08203125,-0.84161377,-0.0725708,0.546875,11.546875,-11.8125
1696258379071,0.21289062,-0.69659424,-0.13702393,-4.03125,7.890625,-2.046875
1696258379076,0.14331055,-0.64971924,-0.089416504,-12.1875,8.875,4.84375
1696258379112,0.01928711,-0.7896118,-0.17510986,3.28125,8.171875,7.09375
1696258379119,-0.045654297,-0.8731079,-0.20245361,12.09375,15.75,5.03125
1696258379122,0.0,-0.81207275,-0.10723877,9.046875,23.28125,6.515625
1696258379124,0.083496094,-0.6865845,-0.124816895,16.359375,19.328125,12.296875
1696258379125,0.16577148,-0.83184814,-0.1453247,11.984375,7.1875,17.734375
1696258379126,0.21240234,-1.3047485,-0.30181885,12.046875,12.34375,17.6875
1696258379130,0.0715332,-2.0,-0.38409424,-14.8125,1.734375,17.46875
1696258379170,0.65600586,-1.6865845,4.272461E-4,-10.671875,4.484375,-1.09375
1696258379211,0.30126953,-0.9495239,-0.3069458,-8.09375,-15.0,-16.015625
1696258379290,0.17773438,-0.9463501,-0.48712158,-18.671875,-5.0625,-4.84375
1696258379297,0.33935547,-0.8591919,-0.22149658,-13.1875,10.609375,1.421875
1696258379473,0.4873047,-0.7571411,-0.105773926,-11.875,2.015625,0.703125
1696258379480,0.48413086,-0.76519775,-0.07281494,-24.96875,-7.046875,-0.609375
1696258379513,0.32836914,-0.81988525,-0.032043457,-21.5625,-11.015625,1.5
1696258379517,0.17016602,-0.7859497,-0.014465332,-26.90625,-9.46875,-1.375
1696258379521,0.080078125,-0.6851196,-0.046691895,-33.46875,-6.171875,-5.125
1696258379525,0.075683594,-0.7871704,0.06048584,-14.9375,-3.859375,-6.90625
1696258379571,0.11425781,-0.8882446,0.01776123,-9.546875,7.046875,-1.578125
1696258379654,0.2241211,-0.83917236,0.11395264,-7.015625,6.234375,1.703125
1696258379659,0.28051758,-0.86383057,0.1930542,-7.5625,1.640625,1.6875
1696258379731,0.16186523,-0.8713989,0.16741943,-12.90625,-15.03125,-0.15625
1696258379736,0.1015625,-0.864563,0.1486206,-5.875,-16.3125,0.59375
1696258379751,0.07128906,-0.8128052,0.16766357,5.15625,-5.328125,1.359375
1696258379790,0.11352539,-0.84576416,0.16571045,4.109375,7.828125,4.484375
1696258379829,0.17651367,-0.8140259,0.24676514,7.53125,4.359375,2.765625
1696258379870,0.16040039,-0.87164307,0.29266357,11.703125,-5.984375,5.796875
1696258379911,0.099853516,-0.8218384,0.2243042,6.203125,-15.5625,7.3125
1696258379951,-0.020751953,-0.8135376,0.13665771,3.875,-12.5,8.203125
