,timestamp,accel_x,accel_y,accel_z,gyro_x,gyro_y,gyro_z,ind
0,1696254293163,0.5305176,-0.24493408,-0.75128174,-0.09375,-0.390625,0.21875,0
1,1696254293203,0.5205078,-0.24493408,-0.756897,-0.40625,-0.453125,0.25,1
2,1696254293243,0.5251465,-0.23931885,-0.75567627,-0.046875,-0.34375,0.328125,2
3,1696254293283,0.53271484,-0.24224854,-0.7576294,-0.28125,-0.375,0.09375,3
4,1696254293323,0.52734375,-0.23834229,-0.7463989,-0.09375,-0.5625,0.140625,4
5,1696254293363,0.529541,-0.24224854,-0.75372314,0.109375,-0.578125,0.3125,5
6,1696254293403,0.52685547,-0.23321533,-0.7527466,-0.03125,-0.265625,0.015625,6
7,1696254293443,0.5305176,-0.2341919,-0.755188,-0.03125,-0.25,0.125,7
8,1696254293483,0.52734375,-0.24029541,-0.75006104,-0.046875,-0.453125,0.09375,8
9,1696254293523,0.5305176,-0.23736572,-0.7476196,-0.046875,-0.53125,0.296875,9
10,1696254293563,0.5292969,-0.24005127,-0.7539673,0.046875,-0.25,0.1875,10
11,1696254293603,0.52563477,-0.24298096,-0.7515259,0.40625,-0.21875,0.34375,11
12,1696254293643,0.5307617,-0.23760986,-0.7539673,1.140625,0.328125,0.203125,12
13,1696254293683,0.52978516,-0.23345947,-0.7527466,1.4375,1.71875,0.078125,13
14,1696254293723,0.5209961,-0.23492432,-0.75909424,1.9375,3.15625,-0.15625,14
15,1696254293763,0.52075195,-0.23199463,-0.7695923,1.25,2.953125,-0.421875,15
16,1696254293803,0.52001953,-0.23272705,-0.7744751,0.265625,2.34375,-0.390625,16
17,1696254293843,0.5031738,-0.23394775,-0.76031494,0.015625,1.984375,-0.453125,17
18,1696254293883,0.50439453,-0.23321533,-0.7686157,-0.203125,1.625,-0.34375,18
19,1696254293923,0.51000977,-0.2366333,-0.77716064,-0.4375,1.46875,-0.421875,19
20,1696254293963,0.501709,-0.23614502,-0.77667236,-0.34375,0.859375,-0.1875,20
21,1696254294003,0.50219727,-0.23638916,-0.7695923,-0.59375,0.46875,-0.28125,21
22,1696254294043,0.50219727,-0.23248291,-0.7752075,-1.078125,0.0,-0.296875,22
23,1696254294083,0.50512695,-0.23809814,-0.77471924,-1.53125,-0.40625,-0.375,23
24,1696254294123,0.5004883,-0.24176025,-0.76763916,-1.34375,-0.34375,-0.40625,24
25,1696254294163,0.49560547,-0.23492432,-0.767395,-1.015625,-1.171875,-0.25,25
26,1696254294203,0.5065918,-0.24298096,-0.767395,-0.984375,-0.578125,-0.1875,26
27,1696254294243,0.5029297,-0.24346924,-0.7698364,-1.421875,-1.15625,-0.234375,27
28,1696254294283,0.51220703,-0.24078369,-0.7727661,-1.828125,-1.46875,-0.5,28
29,1696254294323,0.5061035,-0.25421143,-0.76031494,-1.34375,-0.9375,-0.390625,29
30,1696254294363,0.5070801,-0.2510376,-0.7659302,-1.078125,-0.875,-0.234375,30
31,1696254294403,0.50268555,-0.25543213,-0.769104,0.21875,0.03125,-0.015625,31
32,1696254294443,0.49365234,-0.2510376,-0.74542236,1.921875,0.015625,0.59375,32
33,1696254294483,0.4868164,-0.24371338,-0.76763916,2.4375,-2.4375,1.265625,33
34,1696254294523,0.5041504,-0.23590088,-0.7385864,2.390625,-3.53125,1.34375,34
35,1696254294563,0.50097656,-0.23248291,-0.75128174,1.34375,-2.171875,0.96875,35
36,1696254294603,0.5180664,-0.24737549,-0.7744751,0.46875,-1.46875,0.78125,36
37,1696254294643,0.53125,-0.24176025,-0.78692627,-0.234375,-1.265625,0.578125,37
38,1696254294683,0.52783203,-0.24542236,-0.7737427,-0.671875,-0.78125,0.265625,38
39,1696254294723,0.5217285,-0.23931885,-0.76690674,-0.53125,-0.5,0.5,39
40,1696254294763,0.51538086,-0.23297119,-0.75738525,-0.453125,-0.625,0.375,40
41,1696254294803,0.50878906,-0.2300415,-0.74664307,-0.546875,-0.171875,0.0625,41
42,1696254294843,0.5131836,-0.23101807,-0.7493286,-0.15625,-0.0625,0.046875,42
43,1696254294883,0.51782227,-0.23931885,-0.7647095,-0.078125,0.015625,0.234375,43
44,1696254294923,0.5073242,-0.24542236,-0.7666626,0.125,-1.15625,0.484375,44
45,1696254294963,0.5187988,-0.23590088,-0.7600708,0.265625,-1.0,0.609375,45
46,1696254295003,0.5136719,-0.23590088,-0.7732544,0.296875,-1.015625,0.5,46
47,1696254295043,0.517334,-0.23809814,-0.7649536,0.0625,-0.796875,0.640625,47
48,1696254295083,0.51123047,-0.23150635,-0.75909424,0.03125,-0.609375,0.5,48
49,1696254295123,0.51293945,-0.2341919,-0.755188,0.125,-0.484375,0.375,49
50,1696254295163,0.5097656,-0.23297119,-0.75177,0.46875,0.109375,0.296875,50
51,1696254295203,0.50927734,-0.23980713,-0.7527466,0.921875,1.578125,0.140625,51
52,1696254295243,0.5192871,-0.23492432,-0.76153564,1.6875,3.828125,-0.1875,52
53,1696254295283,0.5073242,-0.22833252,-0.7671509,1.75,4.390625,-0.25,53
54,1696254295323,0.50219727,-0.22686768,-0.784729,1.078125,3.265625,-0.40625,54
55,1696254295363,0.49731445,-0.22735596,-0.7774048,1.1875,2.75,-0.34375,55
56,1696254295403,0.49365234,-0.2300415,-0.78204346,0.6875,2.28125,-0.46875,56
57,1696254295443,0.4873047,-0.22442627,-0.77960205,0.0,1.140625,-0.125,57
58,1696254295483,0.4794922,-0.22955322,-0.7737427,-0.046875,0.53125,-0.25,58
59,1696254295523,0.49047852,-0.22784424,-0.78131104,-0.375,0.1875,-0.1875,59
60,1696254295563,0.4819336,-0.23712158,-0.7839966,-0.734375,-0.203125,-0.171875,60
61,1696254295603,0.4963379,-0.23760986,-0.7893677,-0.890625,-0.578125,-0.359375,61
62,1696254295643,0.4970703,-0.22979736,-0.7859497,-1.1875,-0.625,-0.15625,62
63,1696254295683,0.49267578,-0.23321533,-0.77838135,-1.0,-0.8125,-0.3125,63
64,1696254295723,0.49414062,-0.22906494,-0.7842407,-1.546875,-1.96875,-0.234375,64
65,1696254295763,0.49389648,-0.24298096,-0.77423096,-1.8125,-1.96875,-0.296875,65
66,1696254295803,0.5031738,-0.24176025,-0.7756958,-1.953125,-1.75,-0.328125,66
67,1696254295843,0.49291992,-0.24151611,-0.7710571,-1.84375,-1.796875,-0.21875,67
68,1696254295883,0.4987793,-0.24713135,-0.78009033,-2.078125,-2.03125,-0.328125,68
69,1696254295923,0.5126953,-0.24346924,-0.78326416,-2.609375,-2.671875,-0.296875,69
70,1696254295963,0.5058594,-0.24859619,-0.77178955,-1.1875,-1.578125,-0.171875,70
71,1696254296003,0.50439453,-0.25372314,-0.7608032,0.78125,-0.640625,0.578125,71
72,1696254296043,0.49389648,-0.24517822,-0.767395,2.1875,-3.265625,1.359375,72
73,1696254296083,0.4958496,-0.24395752,-0.7373657,2.671875,-3.296875,1.765625,73
74,1696254296123,0.5024414,-0.23736572,-0.75079346,1.328125,-2.796875,1.375,74
75,1696254296163,0.51538086,-0.23834229,-0.7749634,0.03125,-1.828125,0.6875,75
76,1696254296203,0.52441406,-0.23712158,-0.784729,-0.15625,-1.21875,0.515625,76
77,1696254296243,0.5258789,-0.23687744,-0.77545166,-0.390625,-0.421875,0.28125,77
78,1696254296283,0.5197754,-0.23443604,-0.7720337,-0.5625,-0.25,0.390625,78
79,1696254296323,0.51049805,-0.2432251,-0.75250244,-0.5625,-0.28125,0.21875,79
80,1696254296363,0.5041504,-0.24029541,-0.7461548,-0.484375,-0.03125,0.171875,80
81,1696254296403,0.50634766,-0.23590088,-0.75445557,-0.296875,-0.40625,0.328125,81
82,1696254296443,0.51342773,-0.24615479,-0.7630005,-0.265625,-0.40625,0.46875,82
83,1696254296483,0.51416016,-0.24639893,-0.7654419,-0.15625,-0.5625,0.375,83
84,1696254296523,0.52001953,-0.24468994,-0.7761841,-0.203125,-0.21875,0.546875,84
85,1696254296563,0.51708984,-0.23516846,-0.7686157,0.078125,0.0,0.390625,85
86,1696254296603,0.5161133,-0.2366333,-0.7654419,0.03125,-0.4375,0.265625,86
87,1696254296643,0.51123047,-0.23687744,-0.7583618,0.203125,-0.3125,0.28125,87
88,1696254296683,0.50512695,-0.23516846,-0.7546997,0.421875,-0.359375,0.21875,88
89,1696254296723,0.5131836,-0.23834229,-0.755188,0.6875,-0.296875,0.609375,89
90,1696254296763,0.5136719,-0.24078369,-0.75909424,0.828125,0.40625,0.3125,90
91,1696254296803,0.5151367,-0.23272705,-0.7671509,1.6875,2.140625,0.171875,91
92,1696254296843,0.51416016,-0.2288208,-0.78302,0.78125,2.296875,-0.109375,92
93,1696254296883,0.5131836,-0.23468018,-0.77960205,-0.453125,1.328125,-0.484375,93
94,1696254296923,0.50512695,-0.24127197,-0.7764282,-0.734375,0.828125,-0.359375,94
95,1696254296963,0.50024414,-0.2354126,-0.772522,-0.78125,0.65625,-0.578125,95
96,1696254297003,0.49169922,-0.2354126,-0.7632446,-0.59375,-0.046875,-0.375,96
97,1696254297043,0.49853516,-0.23956299,-0.7564087,-0.140625,0.03125,-0.015625,97
98,1696254297083,0.4921875,-0.23809814,-0.770813,-0.09375,0.0,-0.125,98
99,1696254297123,0.5031738,-0.23687744,-0.7752075,-0.421875,-0.09375,-0.046875,99
100,1696254297163,0.5041504,-0.23394775,-0.7842407,-0.5,0.078125,-0.109375,100
101,1696254297203,0.5031738,-0.25054932,-0.78302,-0.875,-0.5625,-0.1875,101
102,1696254297243,0.5031738,-0.23956299,-0.7761841,-1.140625,-0.65625,-0.375,102
103,1696254297283,0.51293945,-0.24224854,-0.7737427,-1.328125,-0.90625,-0.3125,103
104,1696254297323,0.49414062,-0.24005127,-0.7625122,-1.484375,-0.765625,-0.40625,104
105,1696254297363,0.49560547,-0.24298096,-0.7666626,-1.40625,-1.390625,-0.109375,105
106,1696254297403,0.5036621,-0.25079346,-0.7698364,-1.640625,-0.90625,-0.484375,106
107,1696254297443,0.5004883,-0.2546997,-0.77008057,-1.296875,-1.25,-0.15625,107
108,1696254297483,0.5148926,-0.25250244,-0.7781372,-0.015625,-0.59375,0.03125,108
109,1696254297523,0.50561523,-0.2559204,-0.7737427,2.546875,-0.890625,0.84375,109
110,1696254297563,0.5007324,-0.24786377,-0.7661743,3.4375,-3.296875,1.75,110
111,1696254297603,0.48339844,-0.23370361,-0.72540283,3.34375,-2.828125,2.015625,111
112,1696254297643,0.5144043,-0.22955322,-0.77008057,0.5625,-2.203125,0.859375,112
113,1696254297683,0.5280762,-0.23638916,-0.78375244,-0.390625,-1.6875,0.34375,113
114,1696254297723,0.52856445,-0.24395752,-0.7776489,-0.125,-0.578125,0.484375,114
115,1696254297763,0.5241699,-0.23590088,-0.77423096,-0.046875,0.125,0.5,115
116,1696254297803,0.5163574,-0.23321533,-0.7683716,-0.359375,0.34375,0.4375,116
117,1696254297843,0.5085449,-0.23272705,-0.7564087,-0.578125,0.109375,0.328125,117
118,1696254297883,0.49926758,-0.23199463,-0.7481079,-0.28125,-0.046875,0.203125,118
119,1696254297923,0.5041504,-0.23760986,-0.7546997,0.0,-0.59375,0.484375,119
120,1696254297963,0.51538086,-0.23345947,-0.7683716,0.234375,-0.53125,0.453125,120
121,1696254298003,0.515625,-0.23883057,-0.7769165,0.0625,-0.546875,0.546875,121
122,1696254298043,0.5187988,-0.2366333,-0.7815552,0.03125,-0.625,0.609375,122
123,1696254298083,0.52124023,-0.22955322,-0.772522,-0.203125,-0.40625,0.1875,123
124,1696254298123,0.5109863,-0.23516846,-0.7595825,-0.046875,-0.3125,0.171875,124
125,1696254298163,0.5,-0.23468018,-0.7522583,-0.28125,-0.671875,0.265625,125
126,1696254298203,0.51171875,-0.23150635,-0.7559204,0.296875,-0.828125,0.515625,126
127,1696254298243,0.5131836,-0.23443604,-0.75372314,0.640625,-0.453125,0.578125,127
128,1696254298283,0.5185547,-0.23516846,-0.767395,1.171875,1.078125,0.234375,128
129,1696254298323,0.5246582,-0.23687744,-0.78302,0.40625,2.234375,-0.375,129
130,1696254298363,0.5078125,-0.22808838,-0.77789307,0.34375,2.25,-0.21875,130
131,1696254298403,0.5029297,-0.23248291,-0.7776489,-0.421875,1.09375,-0.296875,131
132,1696254298443,0.49731445,-0.23492432,-0.7649536,-0.078125,1.015625,-0.359375,132
133,1696254298483,0.49414062,-0.2312622,-0.770813,0.171875,0.4375,-0.09375,133
134,1696254298523,0.5029297,-0.2288208,-0.76934814,-0.046875,0.171875,-0.1875,134
135,1696254298563,0.501709,-0.22784424,-0.7749634,-0.328125,-0.296875,-0.21875,135
136,1696254298603,0.5058594,-0.23443604,-0.77227783,-0.28125,-0.3125,-0.078125,136
137,1696254298643,0.5029297,-0.23272705,-0.7761841,-0.328125,-0.15625,0.0625,137
138,1696254298683,0.49902344,-0.23077393,-0.77301025,-0.859375,-0.1875,-0.375,138
139,1696254298723,0.5019531,-0.23321533,-0.7695923,-0.953125,-0.53125,-0.1875,139
140,1696254298763,0.5019531,-0.23614502,-0.770813,-1.359375,-0.6875,-0.390625,140
141,1696254298803,0.49389648,-0.23809814,-0.75787354,-1.0,-0.546875,-0.21875,141
142,1696254298843,0.49658203,-0.24029541,-0.7798462,-1.328125,-0.75,-0.09375,142
143,1696254298883,0.50634766,-0.24737549,-0.7727661,-0.953125,-1.0,-0.140625,143
144,1696254298923,0.5083008,-0.25030518,-0.77423096,-1.203125,-0.796875,-0.1875,144
145,1696254298963,0.5058594,-0.25054932,-0.77911377,-0.03125,-0.328125,0.15625,145
146,1696254299003,0.49291992,-0.2468872,-0.7781372,1.953125,-1.453125,0.765625,146
147,1696254299043,0.51000977,-0.23712158,-0.76763916,2.421875,-3.4375,1.375,147
148,1696254299083,0.4909668,-0.22955322,-0.741272,2.203125,-2.890625,1.640625,148
149,1696254299123,0.5061035,-0.2354126,-0.7581177,0.203125,-2.75,0.734375,149
150,1696254299163,0.5246582,-0.2390747,-0.786438,-0.6875,-1.65625,0.1875,150
151,1696254299203,0.5185547,-0.2366333,-0.7788696,-0.421875,-1.125,0.3125,151
152,1696254299243,0.52734375,-0.23028564,-0.76934814,-0.578125,-0.734375,0.5,152
153,1696254299283,0.5187988,-0.23883057,-0.7666626,-1.0,-0.53125,0.296875,153
154,1696254299323,0.50439453,-0.23956299,-0.7564087,-0.796875,-0.453125,0.234375,154
155,1696254299363,0.5124512,-0.24176025,-0.7554321,-0.625,-0.53125,0.203125,155
156,1696254299403,0.51586914,-0.24249268,-0.7559204,-0.21875,-0.390625,0.359375,156
157,1696254299443,0.5119629,-0.23956299,-0.7600708,0.09375,-0.4375,0.640625,157
158,1696254299483,0.51708984,-0.2390747,-0.76226807,-0.046875,-0.140625,0.328125,158
159,1696254299523,0.51660156,-0.24029541,-0.767395,0.03125,0.015625,0.375,159
160,1696254299563,0.51708984,-0.23175049,-0.76446533,-0.1875,-0.0625,0.265625,160
161,1696254299603,0.51416016,-0.24078369,-0.7617798,-0.09375,-0.15625,0.296875,161
162,1696254299643,0.5109863,-0.23321533,-0.75567627,0.140625,-0.265625,0.390625,162
163,1696254299683,0.5095215,-0.2341919,-0.75567627,0.140625,-0.21875,0.359375,163
164,1696254299723,0.51416016,-0.23516846,-0.75787354,0.5,0.375,0.4375,164
165,1696254299763,0.51171875,-0.22979736,-0.7571411,0.984375,1.859375,0.109375,165
166,1696254299803,0.5070801,-0.2341919,-0.770813,1.921875,2.984375,-0.015625,166
167,1696254299843,0.5085449,-0.22613525,-0.7798462,1.609375,2.65625,0.0,167
168,1696254299883,0.5029297,-0.22662354,-0.7786255,0.890625,2.203125,-0.171875,168
169,1696254299923,0.49169922,-0.22320557,-0.77667236,0.65625,1.875,-0.203125,169
170,1696254299963,0.4951172,-0.22979736,-0.7788696,-0.453125,0.8125,-0.375,170
171,1696254300003,0.49267578,-0.22467041,-0.7720337,-0.1875,0.40625,-0.125,171
172,1696254300043,0.4970703,-0.22540283,-0.7788696,-0.1875,0.171875,-0.265625,172
173,1696254300083,0.4975586,-0.23175049,-0.78570557,-0.1875,-0.09375,-0.109375,173
174,1696254300123,0.4946289,-0.22613525,-0.7859497,-0.0625,0.828125,-0.03125,174
175,1696254300163,0.4897461,-0.22369385,-0.78863525,-0.734375,0.15625,-0.125,175
176,1696254300203,0.49072266,-0.23077393,-0.7752075,-0.78125,-0.40625,-0.25,176
177,1696254300243,0.4868164,-0.22076416,-0.77716064,-0.96875,-0.5625,-0.140625,177
178,1696254300283,0.49121094,-0.23370361,-0.77471924,-1.078125,-1.1875,-0.140625,178
179,1696254300323,0.49194336,-0.23394775,-0.772522,-0.828125,-1.3125,-0.125,179
180,1696254300363,0.4946289,-0.23394775,-0.77960205,-1.453125,-1.375,-0.140625,180
181,1696254300403,0.4987793,-0.23858643,-0.7839966,-2.15625,-2.015625,-0.3125,181
182,1696254300443,0.5053711,-0.24395752,-0.76885986,-1.28125,-2.21875,-0.09375,182
183,1696254300483,0.5048828,-0.24591064,-0.7883911,1.171875,-1.359375,0.421875,183
184,1696254300523,0.49902344,-0.23834229,-0.75860596,3.0625,-2.1875,1.328125,184
185,1696254300563,0.5012207,-0.22979736,-0.76226807,2.71875,-3.234375,1.453125,185
186,1696254300603,0.49414062,-0.22662354,-0.7571411,1.546875,-2.234375,1.234375,186
187,1696254300643,0.501709,-0.22930908,-0.7659302,0.234375,-1.578125,0.671875,187
188,1696254300683,0.52124023,-0.22515869,-0.7930298,-0.40625,-1.546875,0.4375,188
189,1696254300723,0.52563477,-0.22979736,-0.78497314,-0.8125,-0.984375,0.265625,189
190,1696254300763,0.5161133,-0.23809814,-0.784729,-0.796875,-1.0625,0.328125,190
191,1696254300803,0.5187988,-0.23248291,-0.769104,-1.0,-0.9375,0.15625,191
192,1696254300843,0.5048828,-0.22149658,-0.75079346,-0.78125,-0.703125,0.21875,192
193,1696254300883,0.5048828,-0.23150635,-0.7522583,-0.53125,-0.375,0.078125,193
194,1696254300923,0.5041504,-0.23370361,-0.75177,-0.203125,-0.8125,0.28125,194
195,1696254300963,0.5161133,-0.2354126,-0.76812744,-0.171875,-0.609375,0.421875,195
196,1696254301003,0.51000977,-0.23638916,-0.77911377,-0.125,-0.609375,0.3125,196
197,1696254301043,0.51953125,-0.2276001,-0.7786255,-0.234375,-0.4375,0.359375,197
198,1696254301083,0.517334,-0.23736572,-0.7737427,-0.53125,-0.265625,0.15625,198
199,1696254301123,0.51049805,-0.23272705,-0.7559204,-0.546875,-0.421875,0.140625,199
200,1696254301163,0.51049805,-0.23760986,-0.7529907,-0.328125,-0.234375,0.203125,200
201,1696254301203,0.50097656,-0.22686768,-0.76519775,-0.265625,-0.171875,0.3125,201
202,1696254301243,0.51342773,-0.23614502,-0.76226807,0.375,0.015625,0.4375,202
203,1696254301283,0.5065918,-0.23321533,-0.76226807,0.859375,1.375,0.15625,203
204,1696254301323,0.515625,-0.22808838,-0.77471924,1.71875,2.515625,0.015625,204
205,1696254301363,0.50756836,-0.22808838,-0.7749634,2.46875,3.640625,0.203125,205
206,1696254301403,0.5048828,-0.222229,-0.79815674,0.421875,1.875,-0.390625,206
207,1696254301443,0.5024414,-0.22735596,-0.78375244,-0.046875,0.78125,-0.21875,207
208,1696254301483,0.49414062,-0.22589111,-0.7671509,0.234375,0.953125,-0.25,208
209,1696254301523,0.49780273,-0.22198486,-0.7710571,0.21875,0.390625,0.015625,209
210,1696254301563,0.49536133,-0.23345947,-0.7774048,-0.171875,0.640625,-0.171875,210
211,1696254301603,0.49121094,-0.23443604,-0.7852173,-0.234375,0.390625,-0.203125,211
212,1696254301643,0.48950195,-0.22857666,-0.78985596,-0.3125,0.3125,-0.21875,212
213,1696254301683,0.4897461,-0.23590088,-0.7918091,-0.671875,0.0625,-0.1875,213
214,1696254301723,0.4873047,-0.2300415,-0.7810669,-0.859375,-0.859375,-0.09375,214
215,1696254301763,0.4951172,-0.22711182,-0.77178955,-1.046875,-0.875,-0.28125,215
216,1696254301803,0.49731445,-0.23223877,-0.7852173,-1.296875,-1.125,-0.265625,216
217,1696254301843,0.49072266,-0.2288208,-0.7732544,-1.125,-1.03125,-0.265625,217
218,1696254301883,0.49365234,-0.23468018,-0.78448486,-1.21875,-1.328125,-0.171875,218
219,1696254301923,0.49414062,-0.24127197,-0.7839966,-1.1875,-1.375,0.03125,219
220,1696254301963,0.5058594,-0.24346924,-0.77960205,-0.59375,-0.546875,-0.078125,220
221,1696254302003,0.5,-0.23809814,-0.7793579,0.765625,0.125,0.40625,221
222,1696254302043,0.48901367,-0.23345947,-0.77667236,2.25,-0.15625,0.671875,222
223,1696254302083,0.4831543,-0.22784424,-0.7576294,2.875,-2.6875,1.609375,223
224,1696254302123,0.4885254,-0.22613525,-0.7600708,1.703125,-1.625,1.390625,224
225,1696254302163,0.4958496,-0.22735596,-0.7749634,0.25,-1.234375,0.46875,225
226,1696254302203,0.50878906,-0.22296143,-0.78741455,-0.46875,-1.84375,0.359375,226
227,1696254302243,0.5144043,-0.23199463,-0.7871704,-0.640625,-1.5,0.375,227
228,1696254302283,0.5119629,-0.22393799,-0.7761841,-0.828125,-1.328125,0.40625,228
229,1696254302323,0.5078125,-0.22955322,-0.76885986,-1.28125,-1.0625,0.15625,229
230,1696254302363,0.5029297,-0.23175049,-0.76446533,-0.828125,-1.234375,0.0625,230
231,1696254302403,0.49951172,-0.22857666,-0.755188,-0.40625,-1.109375,0.203125,231
232,1696254302443,0.5114746,-0.23345947,-0.76763916,-0.125,-0.9375,0.40625,232
233,1696254302483,0.50927734,-0.24224854,-0.7764282,0.0,-0.84375,0.625,233
234,1696254302523,0.5097656,-0.23052979,-0.78009033,0.046875,-0.375,0.40625,234
235,1696254302563,0.5126953,-0.23077393,-0.77789307,0.0,0.015625,0.421875,235
236,1696254302603,0.5073242,-0.22808838,-0.77667236,-0.21875,0.140625,0.234375,236
237,1696254302643,0.50390625,-0.2300415,-0.76275635,0.109375,0.078125,0.046875,237
238,1696254302683,0.50634766,-0.2276001,-0.7695923,-0.109375,-0.296875,0.15625,238
239,1696254302723,0.5024414,-0.22979736,-0.7703247,0.5,-0.296875,0.359375,239
240,1696254302763,0.5048828,-0.23565674,-0.7630005,0.703125,0.640625,0.0,240
241,1696254302803,0.50756836,-0.22955322,-0.7744751,0.640625,1.9375,-0.234375,241
242,1696254302843,0.50024414,-0.22369385,-0.7893677,0.53125,2.125,-0.3125,242
243,1696254302883,0.49682617,-0.2234497,-0.7876587,-0.203125,1.296875,-0.1875,243
244,1696254302923,0.49487305,-0.22686768,-0.7739868,0.078125,0.890625,-0.234375,244
245,1696254302963,0.48706055,-0.22491455,-0.7752075,-0.359375,0.421875,-0.3125,245
246,1696254303003,0.4892578,-0.22784424,-0.77178955,-0.5625,0.171875,-0.25,246
247,1696254303043,0.49389648,-0.22491455,-0.7774048,-0.453125,0.28125,-0.046875,247
248,1696254303083,0.49414062,-0.23101807,-0.7744751,-0.5,-0.265625,-0.234375,248
249,1696254303123,0.49658203,-0.23199463,-0.7888794,-0.828125,-0.671875,-0.25,249
250,1696254303163,0.48950195,-0.22906494,-0.7866821,-1.078125,-0.546875,-0.3125,250
251,1696254303203,0.49438477,-0.23223877,-0.7805786,-1.1875,-1.171875,-0.25,251
252,1696254303243,0.4958496,-0.23248291,-0.7815552,-1.3125,-1.21875,-0.21875,252
253,1696254303283,0.49609375,-0.23883057,-0.77545166,-1.09375,-1.234375,-0.046875,253
254,1696254303323,0.49365234,-0.23736572,-0.7617798,-0.78125,-1.0,-0.203125,254
255,1696254303363,0.49804688,-0.23199463,-0.7739868,-0.78125,-1.109375,0.0625,255
256,1696254303403,0.49951172,-0.23956299,-0.77838135,-0.234375,-0.609375,0.109375,256
257,1696254303443,0.49951172,-0.23931885,-0.78204346,0.828125,0.375,0.46875,257
258,1696254303483,0.49365234,-0.2312622,-0.7776489,1.609375,1.140625,0.765625,258
259,1696254303523,0.4711914,-0.22833252,-0.7583618,2.75,-3.359375,1.46875,259
260,1696254303563,0.49267578,-0.21929932,-0.76397705,1.546875,-5.046875,1.296875,260
261,1696254303603,0.51123047,-0.23345947,-0.7798462,-0.21875,-2.53125,0.453125,261
262,1696254303643,0.52075195,-0.22735596,-0.78692627,-0.890625,-1.40625,0.1875,262
263,1696254303683,0.5163574,-0.23614502,-0.7822876,-1.078125,-0.5625,0.21875,263
264,1696254303723,0.51293945,-0.22930908,-0.77349854,-0.625,-0.140625,0.109375,264
265,1696254303763,0.5114746,-0.2312622,-0.770813,-1.140625,-0.578125,0.078125,265
266,1696254303803,0.50878906,-0.23712158,-0.7642212,-0.59375,-0.421875,0.0625,266
267,1696254303843,0.5085449,-0.2341919,-0.75860596,-0.453125,-0.4375,0.3125,267
268,1696254303883,0.5078125,-0.22735596,-0.7737427,-0.046875,-0.34375,0.46875,268
269,1696254303923,0.51171875,-0.23638916,-0.77593994,0.09375,-0.421875,0.4375,269
270,1696254303963,0.5065918,-0.23809814,-0.77593994,0.140625,-0.296875,0.453125,270
271,1696254304003,0.51000977,-0.23175049,-0.77471924,0.0,-0.390625,0.53125,271
272,1696254304043,0.5073242,-0.2300415,-0.7727661,-0.203125,-0.484375,0.359375,272
273,1696254304083,0.5012207,-0.23248291,-0.76275635,-0.09375,-0.328125,0.3125,273
274,1696254304123,0.5041504,-0.22906494,-0.7620239,0.09375,-0.484375,0.46875,274
275,1696254304163,0.5046387,-0.23248291,-0.769104,0.453125,-0.5,0.328125,275
276,1696254304203,0.51049805,-0.23199463,-0.77178955,0.8125,0.015625,0.375,276
277,1696254304243,0.49926758,-0.222229,-0.76446533,1.234375,1.140625,0.28125,277
278,1696254304283,0.5065918,-0.22564697,-0.7756958,0.78125,1.4375,0.015625,278
279,1696254304323,0.5029297,-0.22808838,-0.78570557,0.71875,2.21875,-0.171875,279
280,1696254304363,0.4958496,-0.22369385,-0.7835083,0.140625,2.390625,-0.4375,280
281,1696254304403,0.48950195,-0.22125244,-0.78619385,0.140625,2.46875,-0.40625,281
282,1696254304443,0.49731445,-0.22784424,-0.78570557,-0.703125,0.96875,-0.484375,282
283,1696254304483,0.4880371,-0.22833252,-0.7966919,-1.265625,0.421875,-0.609375,283
284,1696254304523,0.48754883,-0.22296143,-0.78326416,-1.59375,-0.34375,-0.546875,284
285,1696254304563,0.49853516,-0.2234497,-0.78448486,-0.5625,-1.875,0.484375,301
286,1696254304603,0.49047852,-0.22589111,-0.77423096,-1.265625,-1.703125,0.3125,302
287,1696254304643,0.4880371,-0.22442627,-0.75201416,-1.078125,-1.5625,0.078125,303
288,1696254304683,0.49682617,-0.22540283,-0.7659302,-0.59375,-1.0625,0.203125,304
289,1696254304723,0.49975586,-0.2288208,-0.7769165,-0.4375,-1.15625,0.515625,305
290,1696254304763,0.5065918,-0.22418213,-0.7896118,-0.453125,-0.890625,0.4375,306
291,1696254304803,0.50097656,-0.22906494,-0.784729,-0.1875,-1.0625,0.40625,307
292,1696254304843,0.5041504,-0.23052979,-0.77716064,-0.453125,-0.59375,0.34375,308
293,1696254304883,0.5029297,-0.22589111,-0.77178955,-0.484375,-0.546875,0.109375,309
294,1696254304923,0.4970703,-0.22247314,-0.76348877,-0.171875,-0.84375,0.40625,310
295,1696254304963,0.4987793,-0.22198486,-0.76568604,0.0625,-0.734375,0.203125,311
296,1696254305003,0.5048828,-0.22808838,-0.7661743,0.0625,-0.28125,0.328125,312
297,1696254305043,0.5041504,-0.22955322,-0.7686157,0.125,0.859375,0.203125,313
298,1696254305083,0.50561523,-0.22418213,-0.770813,1.140625,2.703125,0.03125,314
299,1696254305123,0.5029297,-0.22198486,-0.79937744,1.328125,3.625,-0.046875,315
300,1696254305163,0.49169922,-0.21954346,-0.7971802,0.296875,2.3125,-0.125,316
301,1696254305203,0.49267578,-0.21905518,-0.77178955,0.65625,1.796875,-0.140625,317
302,1696254305243,0.47851562,-0.21246338,-0.78619385,0.640625,1.796875,-0.125,318
303,1696254305283,0.48388672,-0.2185669,-0.7954712,-0.03125,0.828125,-0.34375,319
304,1696254305323,0.47998047,-0.2185669,-0.7854614,-0.53125,0.453125,-0.484375,320
305,1696254305363,0.48608398,-0.21685791,-0.7908325,-0.484375,0.015625,-0.046875,321
306,1696254305403,0.4802246,-0.21685791,-0.79278564,-0.328125,-0.203125,-0.125,322
307,1696254305443,0.48608398,-0.22418213,-0.7835083,-0.4375,-0.34375,-0.171875,323
308,1696254305483,0.48632812,-0.22515869,-0.78863525,-0.734375,-0.125,-0.1875,324
309,1696254305523,0.4819336,-0.21832275,-0.786438,-0.796875,-0.5625,-0.171875,325
310,1696254305563,0.48242188,-0.22052002,-0.78912354,-1.1875,-1.15625,-0.25,326
311,1696254305603,0.48120117,-0.22686768,-0.7793579,-1.453125,-1.25,-0.1875,327
312,1696254305643,0.48632812,-0.23175049,-0.78985596,-1.15625,-1.515625,-0.125,328
313,1696254305683,0.48608398,-0.23199463,-0.7905884,-1.21875,-1.734375,-0.03125,329
314,1696254305723,0.4934082,-0.2300415,-0.78082275,-0.625,-1.296875,-0.046875,330
315,1696254305763,0.48999023,-0.23150635,-0.7901001,0.546875,-0.625,0.296875,331
316,1696254305803,0.48486328,-0.22515869,-0.77838135,2.265625,-0.640625,0.75,332
317,1696254305843,0.4741211,-0.22418213,-0.7632446,3.421875,-3.9375,1.546875,333
318,1696254305883,0.48828125,-0.21343994,-0.7666626,1.765625,-3.515625,1.390625,334
319,1696254305923,0.5019531,-0.21661377,-0.78009033,0.21875,-2.390625,0.84375,335
320,1696254305963,0.50756836,-0.22930908,-0.79400635,-0.375,-1.578125,0.546875,336
321,1696254306003,0.5097656,-0.22467041,-0.79571533,-0.5625,-1.15625,0.421875,337
322,1696254306043,0.5148926,-0.21514893,-0.78863525,-0.8125,-1.1875,0.421875,338
323,1696254306083,0.50512695,-0.21905518,-0.7854614,-1.046875,-1.09375,0.3125,339
324,1696254306123,0.4958496,-0.21905518,-0.769104,-1.125,-1.09375,-0.0625,340
325,1696254306163,0.49658203,-0.21783447,-0.7637329,-0.625,-0.828125,0.3125,341
326,1696254306203,0.49926758,-0.2234497,-0.7686157,-0.328125,-1.125,0.421875,342
327,1696254306243,0.5119629,-0.22906494,-0.77301025,-0.15625,-0.953125,0.375,343
328,1696254306283,0.51000977,-0.22027588,-0.7810669,-0.171875,-0.859375,0.4375,344
329,1696254306323,0.51171875,-0.22613525,-0.7803345,-0.25,-0.515625,0.328125,345
330,1696254306363,0.5083008,-0.22564697,-0.7737427,-0.359375,-0.421875,0.265625,346
331,1696254306403,0.49487305,-0.22613525,-0.7642212,-0.453125,-0.609375,0.28125,347
332,1696254306443,0.4987793,-0.22271729,-0.7649536,-0.484375,-0.84375,0.203125,348
333,1696254306483,0.501709,-0.22515869,-0.76104736,0.171875,-0.453125,0.296875,349
334,1696254306523,0.5061035,-0.22442627,-0.77056885,0.84375,0.765625,0.21875,350
335,1696254306563,0.5090332,-0.22320557,-0.7749634,0.890625,2.15625,0.03125,351
336,1696254306603,0.515625,-0.22955322,-0.79400635,1.0625,3.109375,-0.28125,352
337,1696254306643,0.49389648,-0.21905518,-0.7822876,0.984375,2.765625,-0.359375,353
338,1696254306683,0.48779297,-0.21929932,-0.7761841,0.828125,2.53125,-0.25,354
339,1696254306723,0.48388672,-0.21539307,-0.78448486,0.5,2.328125,-0.5,355
340,1696254306763,0.48266602,-0.21881104,-0.77960205,-0.03125,1.5625,-0.328125,356
341,1696254306803,0.48583984,-0.21514893,-0.77911377,-0.28125,0.8125,-0.390625,357
342,1696254306843,0.48046875,-0.2276001,-0.7842407,-0.03125,0.5625,-0.34375,358
343,1696254306883,0.47680664,-0.21124268,-0.79107666,0.09375,0.515625,-0.046875,359
344,1696254306923,0.48168945,-0.21514893,-0.7871704,-0.609375,-0.296875,-0.21875,360
345,1696254306963,0.4831543,-0.22174072,-0.798645,-1.359375,-0.5625,-0.390625,361
346,1696254307003,0.4814453,-0.21954346,-0.7918091,-1.421875,-0.75,-0.34375,362
347,1696254307043,0.4855957,-0.22393799,-0.784729,-1.359375,-1.015625,-0.1875,363
348,1696254307083,0.48364258,-0.22735596,-0.7781372,-1.015625,-1.03125,-0.25,364
349,1696254307123,0.48486328,-0.22857666,-0.7883911,-1.015625,-1.328125,-0.046875,365
350,1696254307163,0.4880371,-0.23394775,-0.78131104,-0.859375,-1.296875,-0.1875,366
351,1696254307203,0.48999023,-0.22711182,-0.7883911,0.21875,-0.34375,0.046875,367
352,1696254307243,0.48535156,-0.23101807,-0.78692627,1.875,-0.0625,0.625,368
353,1696254307283,0.47631836,-0.22686768,-0.7817993,2.65625,-2.84375,1.3125,369
354,1696254307323,0.48168945,-0.21661377,-0.7612915,2.234375,-3.46875,1.578125,370
355,1696254307363,0.4921875,-0.21685791,-0.786438,0.671875,-3.375,0.953125,371
356,1696254307403,0.50634766,-0.22589111,-0.7979126,-0.53125,-2.703125,0.375,372
357,1696254307443,0.51123047,-0.2234497,-0.79644775,-0.390625,-1.859375,0.53125,373
358,1696254307483,0.5070801,-0.21173096,-0.78692627,-0.640625,-1.328125,0.453125,374
359,1696254307523,0.5078125,-0.22198486,-0.784729,-0.9375,-1.28125,0.453125,375
360,1696254307563,0.5046387,-0.21368408,-0.7637329,-1.234375,-0.953125,0.1875,376
361,1696254307603,0.49731445,-0.21954346,-0.76812744,-1.125,-0.625,0.1875,377
362,1696254307643,0.50561523,-0.21807861,-0.7744751,-1.484375,-0.609375,0.046875,378
363,1696254307683,0.50439453,-0.22686768,-0.77056885,-1.25,-0.859375,-0.015625,379
364,1696254307723,0.5107422,-0.22955322,-0.7774048,-0.296875,-0.578125,0.3125,380
365,1696254307763,0.50561523,-0.22198486,-0.77667236,-0.09375,-0.578125,0.453125,381
366,1696254307803,0.5061035,-0.22613525,-0.7756958,-0.40625,-0.609375,0.40625,382
367,1696254307843,0.5070801,-0.2263794,-0.77056885,-0.390625,-0.9375,0.28125,383
368,1696254307883,0.49682617,-0.22174072,-0.76397705,-0.390625,-0.953125,0.328125,384
369,1696254307923,0.50756836,-0.22735596,-0.76519775,-0.125,-1.0625,0.234375,385
370,1696254307963,0.51538086,-0.22589111,-0.7720337,-0.15625,-1.109375,0.46875,386
371,1696254308003,0.5209961,-0.22735596,-0.77838135,-0.296875,-1.125,0.046875,387
372,1696254308043,0.513916,-0.2300415,-0.76275635,-0.390625,-0.375,0.15625,388
373,1696254308083,0.5119629,-0.22857666,-0.76934814,0.0,1.25,-0.15625,389
374,1696254308123,0.50756836,-0.21759033,-0.77911377,0.421875,2.265625,-0.265625,390
375,1696254308163,0.49438477,-0.2234497,-0.7698364,1.046875,2.5625,-0.078125,391
376,1696254308203,0.49804688,-0.2234497,-0.78326416,0.640625,2.03125,-0.28125,392
377,1696254308243,0.49609375,-0.2234497,-0.78790283,0.84375,1.796875,-0.078125,393
378,1696254308283,0.4880371,-0.21759033,-0.77911377,0.671875,1.734375,-0.046875,394
379,1696254308323,0.4873047,-0.22271729,-0.79107666,0.171875,1.5625,-0.296875,395
380,1696254308363,0.48461914,-0.22149658,-0.7888794,0.125,1.0625,-0.28125,396
381,1696254308403,0.48461914,-0.22467041,-0.7901001,-0.125,0.71875,-0.328125,397
382,1696254308443,0.4873047,-0.2210083,-0.78448486,-0.515625,0.34375,-0.296875,398
383,1696254308483,0.4855957,-0.22247314,-0.7852173,-0.90625,-0.0625,-0.296875,399
384,1696254308523,0.4814453,-0.22662354,-0.78302,-1.296875,-0.515625,-0.421875,400
385,1696254308563,0.4873047,-0.22711182,-0.7959595,-1.3125,-0.59375,-0.171875,401
386,1696254308603,0.48217773,-0.22930908,-0.77838135,-0.84375,-0.6875,-0.140625,402
387,1696254308643,0.49072266,-0.22711182,-0.78131104,-0.890625,-0.890625,-0.078125,403
388,1696254308683,0.48828125,-0.23394775,-0.78375244,-0.28125,-0.484375,0.1875,404
389,1696254308723,0.49072266,-0.23175049,-0.7835083,0.859375,-0.296875,0.46875,405
390,1696254308763,0.4819336,-0.23028564,-0.7793579,2.140625,-0.71875,0.8125,406
391,1696254308803,0.4777832,-0.22467041,-0.7769165,2.078125,-4.296875,1.5,407
392,1696254308843,0.4880371,-0.22808838,-0.7805786,0.984375,-4.5,1.125,408
393,1696254308883,0.50756836,-0.2185669,-0.77960205,-0.21875,-3.34375,0.515625,409
394,1696254308923,0.51464844,-0.21832275,-0.788147,-0.921875,-2.109375,0.234375,410
395,1696254308963,0.50756836,-0.2210083,-0.7776489,-0.921875,-1.4375,0.3125,411
396,1696254309003,0.5061035,-0.2234497,-0.7769165,-1.1875,-1.0625,0.3125,412
397,1696254309043,0.5048828,-0.22198486,-0.76568604,-0.75,-0.921875,0.3125,413
398,1696254309083,0.4963379,-0.22735596,-0.767395,-0.640625,-0.5625,0.21875,414
399,1696254309123,0.50024414,-0.2300415,-0.76690674,-0.515625,-0.71875,0.28125,415
400,1696254309163,0.51049805,-0.22906494,-0.77838135,-0.09375,-0.515625,0.265625,416
401,1696254309203,0.50683594,-0.2276001,-0.7776489,-0.21875,-0.40625,0.3125,417
402,1696254309243,0.50390625,-0.2276001,-0.77911377,-0.09375,-0.546875,0.3125,418
403,1696254309283,0.5124512,-0.22418213,-0.7749634,-0.1875,-0.28125,0.296875,419
404,1696254309323,0.4987793,-0.23052979,-0.7715454,-0.1875,-0.046875,0.390625,420
405,1696254309363,0.5061035,-0.22369385,-0.76812744,0.21875,0.109375,0.265625,421
406,1696254309403,0.5065918,-0.22735596,-0.769104,0.09375,0.0,0.4375,422
407,1696254309443,0.50341797,-0.22393799,-0.7781372,0.46875,0.109375,0.4375,423
408,1696254309483,0.5031738,-0.22784424,-0.770813,1.25,1.171875,0.421875,424
409,1696254309523,0.49780273,-0.2197876,-0.7744751,1.46875,1.9375,0.078125,425
410,1696254309563,0.5012207,-0.2234497,-0.79400635,0.6875,2.15625,-0.171875,426
411,1696254309603,0.48779297,-0.21539307,-0.7817993,0.296875,2.40625,-0.1875,427
412,1696254309643,0.48510742,-0.21832275,-0.7901001,0.609375,1.84375,-0.234375,428
413,1696254309683,0.4855957,-0.21734619,-0.79107666,0.015625,1.265625,-0.34375,429
414,1696254309723,0.48413086,-0.21783447,-0.7798462,0.3125,0.953125,-0.203125,430
415,1696254309763,0.48168945,-0.22564697,-0.7944946,-0.28125,0.65625,-0.234375,431
416,1696254309803,0.48461914,-0.22052002,-0.7835083,-0.265625,0.171875,0.109375,432
417,1696254309843,0.48486328,-0.22613525,-0.7932739,-0.390625,0.015625,-0.15625,433
418,1696254309883,0.48535156,-0.22662354,-0.7920532,-0.578125,-0.203125,-0.234375,434
419,1696254309923,0.4814453,-0.22174072,-0.7913208,-0.625,-0.234375,-0.125,435
420,1696254309963,0.48461914,-0.22320557,-0.78375244,-0.8125,-0.40625,-0.171875,436
421,1696254310003,0.4807129,-0.21905518,-0.78497314,-0.984375,-0.859375,-0.34375,437
422,1696254310043,0.48046875,-0.22613525,-0.7854614,-1.015625,-0.78125,-0.234375,438
423,1696254310083,0.48120117,-0.22076416,-0.7817993,-0.921875,-0.765625,-0.234375,439
424,1696254310123,0.484375,-0.22320557,-0.7859497,-0.65625,-0.9375,0.0,440
425,1696254310163,0.49072266,-0.22442627,-0.78863525,-0.0625,-0.84375,0.078125,441
426,1696254310203,0.48779297,-0.23223877,-0.7942505,0.90625,-0.703125,0.375,442
427,1696254310243,0.47631836,-0.22686768,-0.78790283,2.1875,-3.71875,1.0,443
428,1696254310283,0.48510742,-0.21734619,-0.7761841,0.578125,-6.6875,1.1875,444
429,1696254310323,0.5046387,-0.22296143,-0.7866821,-2.640625,-7.484375,0.375,445
430,1696254310363,0.5109863,-0.23150635,-0.770813,-2.546875,-5.796875,0.1875,446
431,1696254310403,0.5253906,-0.22589111,-0.7686157,-1.96875,-3.703125,0.09375,447
432,1696254310443,0.51953125,-0.2341919,-0.7576294,-1.140625,-2.28125,0.21875,448
433,1696254310483,0.5136719,-0.23297119,-0.76104736,-0.96875,-1.3125,0.21875,449
434,1696254310523,0.52490234,-0.2366333,-0.7642212,-0.8125,-0.4375,0.109375,450
435,1696254310563,0.5126953,-0.23931885,-0.7600708,-0.421875,-0.015625,0.125,451
436,1696254310603,0.515625,-0.23736572,-0.7581177,0.046875,0.203125,0.28125,452
437,1696254310643,0.5151367,-0.23199463,-0.7620239,0.40625,0.53125,0.5,453
438,1696254310683,0.5144043,-0.2366333,-0.77008057,0.359375,0.8125,0.421875,454
439,1696254310723,0.51831055,-0.23052979,-0.77471924,0.25,0.578125,0.53125,455
440,1696254310763,0.51586914,-0.22589111,-0.77008057,0.265625,0.234375,0.53125,456
441,1696254310803,0.5065918,-0.2312622,-0.76519775,0.171875,0.53125,0.328125,457
442,1696254310843,0.51293945,-0.23175049,-0.76153564,0.28125,0.390625,0.40625,458
443,1696254310883,0.5061035,-0.2288208,-0.76934814,0.53125,0.53125,0.5625,459
444,1696254310923,0.5058594,-0.22930908,-0.76446533,1.21875,1.65625,0.421875,460
445,1696254310963,0.50024414,-0.22540283,-0.7774048,1.8125,2.421875,0.40625,461
446,1696254311003,0.49951172,-0.22784424,-0.78448486,1.734375,2.234375,0.328125,462
447,1696254311043,0.49853516,-0.21392822,-0.78497314,0.640625,1.84375,0.15625,463
448,1696254311083,0.5004883,-0.2210083,-0.7793579,0.421875,2.421875,-0.21875,464
449,1696254311123,0.49316406,-0.21905518,-0.78326416,0.5,2.09375,-0.25,465
450,1696254311163,0.48779297,-0.22149658,-0.7817993,0.546875,1.75,-0.375,466
451,1696254311203,0.4819336,-0.22320557,-0.79229736,0.015625,0.34375,-0.21875,467
452,1696254311243,0.47753906,-0.22393799,-0.7805786,-0.265625,-0.4375,0.09375,468
453,1696254311283,0.48608398,-0.2234497,-0.78375244,-1.03125,-0.8125,-0.09375,469
454,1696254311323,0.48339844,-0.22564697,-0.77789307,-0.71875,-1.046875,-0.3125,470
455,1696254311363,0.49291992,-0.21807861,-0.7913208,-0.578125,-0.5,-0.140625,471
456,1696254311403,0.4880371,-0.2300415,-0.7866821,-0.3125,-0.53125,-0.15625,472
457,1696254311443,0.4897461,-0.22271729,-0.78375244,-0.390625,-0.53125,-0.1875,473
458,1696254311483,0.4855957,-0.22296143,-0.78253174,-0.546875,-0.4375,-0.125,474
459,1696254311523,0.49194336,-0.22515869,-0.78912354,-0.640625,-0.484375,-0.15625,475
460,1696254311563,0.48388672,-0.23101807,-0.78448486,-0.8125,-0.734375,-0.125,476
461,1696254311603,0.49414062,-0.22589111,-0.7815552,-0.328125,-0.78125,0.15625,477
462,1696254311643,0.49145508,-0.22735596,-0.7744751,0.65625,-0.5625,0.390625,478
463,1696254311683,0.49145508,-0.22686768,-0.7959595,1.5625,-2.90625,1.03125,479
464,1696254311723,0.48388672,-0.2234497,-0.7788696,2.375,-7.15625,1.609375,480
465,1696254311763,0.49975586,-0.21807861,-0.7647095,1.015625,-6.125,1.40625,481
466,1696254311803,0.5090332,-0.22296143,-0.7647095,0.046875,-6.734375,0.984375,482
467,1696254311843,0.5307617,-0.21539307,-0.77789307,-0.203125,-3.265625,0.578125,483
468,1696254311883,0.52685547,-0.21002197,-0.7632446,-0.78125,-2.53125,0.328125,484
469,1696254311923,0.5266113,-0.21807861,-0.7744751,-0.828125,-0.9375,0.03125,485
470,1696254311963,0.51953125,-0.21539307,-0.75787354,-0.796875,-0.578125,0.0,486
471,1696254312003,0.51782227,-0.22296143,-0.7632446,-0.828125,0.078125,0.109375,487
472,1696254312043,0.5234375,-0.22003174,-0.756897,-0.796875,0.421875,-0.140625,488
473,1696254312083,0.51831055,-0.22369385,-0.76275635,-0.75,0.21875,0.078125,489
474,1696254312123,0.51660156,-0.2288208,-0.77130127,-0.53125,0.15625,0.359375,490
475,1696254312163,0.52368164,-0.22833252,-0.77227783,-0.359375,0.375,0.234375,491
476,1696254312203,0.52197266,-0.22418213,-0.76690674,-0.109375,0.265625,0.328125,492
477,1696254312243,0.51220703,-0.22589111,-0.76275635,-0.09375,0.34375,0.390625,493
478,1696254312283,0.51953125,-0.22857666,-0.75982666,-0.046875,0.734375,0.296875,494
479,1696254312323,0.51586914,-0.22296143,-0.7659302,-0.078125,0.90625,0.15625,495
480,1696254312363,0.5058594,-0.22955322,-0.755188,0.84375,1.875,0.1875,496
481,1696254312403,0.5041504,-0.2197876,-0.7666626,1.5,2.53125,0.203125,497
482,1696254312443,0.5041504,-0.22174072,-0.7866821,0.828125,2.5625,-0.125,498
483,1696254312483,0.5078125,-0.21417236,-0.78741455,0.296875,2.171875,-0.15625,499
484,1696254312523,0.5012207,-0.2197876,-0.7788696,0.421875,2.3125,-0.28125,500
485,1696254312563,0.4855957,-0.22564697,-0.77423096,0.96875,2.515625,-0.015625,501
486,1696254312603,0.48632812,-0.21636963,-0.7876587,0.140625,1.625,-0.203125,502
487,1696254312643,0.48632812,-0.21490479,-0.7788696,-0.09375,0.984375,-0.28125,503
488,1696254312683,0.4831543,-0.21929932,-0.78912354,-0.328125,0.390625,-0.390625,504
489,1696254312723,0.49023438,-0.2185669,-0.7901001,-0.234375,-0.046875,-0.125,505
490,1696254312763,0.48364258,-0.21832275,-0.7839966,-0.515625,0.0625,-0.1875,506
491,1696254312803,0.48095703,-0.22613525,-0.7803345,-0.484375,0.125,-0.25,507
492,1696254312843,0.48120117,-0.21392822,-0.7842407,-0.65625,0.109375,-0.203125,508
493,1696254312883,0.47973633,-0.21685791,-0.7793579,-0.65625,-0.1875,-0.203125,509
494,1696254312923,0.48095703,-0.22174072,-0.7883911,-0.75,-0.359375,-0.375,510
495,1696254312963,0.48779297,-0.22613525,-0.788147,-0.671875,-0.6875,-0.21875,511
496,1696254313003,0.48876953,-0.21929932,-0.7842407,-0.71875,-0.546875,-0.078125,512
497,1696254313043,0.4873047,-0.22540283,-0.7859497,-0.140625,-0.5625,0.015625,513
498,1696254313083,0.48999023,-0.22320557,-0.7901001,0.484375,-0.359375,0.3125,514
499,1696254313123,0.48583984,-0.22442627,-0.7854614,1.671875,-2.984375,0.84375,515
500,1696254313163,0.48608398,-0.2197876,-0.7920532,0.171875,-7.96875,1.296875,516
501,1696254313203,0.49829102,-0.22052002,-0.7666626,0.171875,-6.9375,1.203125,517
502,1696254313243,0.5114746,-0.21661377,-0.7659302,-0.953125,-4.265625,0.390625,518
503,1696254313283,0.5161133,-0.21929932,-0.76641846,-1.0625,-3.3125,0.296875,519
504,1696254313323,0.52441406,-0.21905518,-0.7805786,-1.046875,-1.390625,0.140625,520
505,1696254313363,0.5202637,-0.2197876,-0.7732544,-1.203125,-0.6875,0.03125,521
506,1696254313403,0.51293945,-0.2300415,-0.7683716,-1.109375,-0.84375,0.0625,522
507,1696254313443,0.5119629,-0.23052979,-0.7485962,-0.84375,-0.640625,0.078125,523
508,1696254313483,0.5144043,-0.22833252,-0.76226807,-0.390625,-0.171875,0.203125,524
509,1696254313523,0.5168457,-0.2234497,-0.7683716,-0.296875,-0.140625,0.296875,525
510,1696254313563,0.51782227,-0.22491455,-0.77423096,-0.09375,0.53125,0.296875,526
511,1696254313603,0.51049805,-0.22149658,-0.77227783,0.234375,0.625,0.375,527
512,1696254313643,0.50878906,-0.23248291,-0.76812744,0.046875,0.734375,0.390625,528
513,1696254313683,0.51123047,-0.21929932,-0.76031494,0.09375,0.875,0.453125,529
514,1696254313723,0.50634766,-0.22686768,-0.76934814,-0.125,0.65625,0.453125,530
515,1696254313763,0.50268555,-0.2197876,-0.7671509,0.46875,0.609375,0.25,531
516,1696254313803,0.5119629,-0.22296143,-0.7654419,1.140625,2.0625,0.421875,532
517,1696254313843,0.5,-0.2210083,-0.76519775,1.875,3.09375,0.203125,533
518,1696254313883,0.5031738,-0.21612549,-0.7959595,0.640625,2.765625,-0.03125,534
519,1696254313923,0.50268555,-0.2185669,-0.7871704,0.84375,2.796875,-0.34375,535
520,1696254313963,0.4951172,-0.21343994,-0.784729,1.109375,3.203125,-0.171875,536
521,1696254314003,0.4885254,-0.21807861,-0.7979126,0.78125,2.59375,-0.296875,537
522,1696254314043,0.47460938,-0.21148682,-0.798645,-0.1875,1.09375,-0.265625,538
523,1696254314083,0.47705078,-0.2156372,-0.78790283,-0.609375,0.015625,-0.296875,539
524,1696254314123,0.48095703,-0.22052002,-0.78741455,-0.796875,-0.015625,-0.125,540
525,1696254314163,0.47680664,-0.2210083,-0.7756958,-0.578125,-0.234375,-0.140625,541
526,1696254314203,0.48828125,-0.21783447,-0.7896118,-0.71875,-0.15625,-0.28125,542
527,1696254314243,0.47607422,-0.22027588,-0.7871704,-0.71875,0.0,-0.25,543
528,1696254314283,0.48217773,-0.2197876,-0.78131104,-1.015625,-0.5,-0.4375,544
529,1696254314323,0.48339844,-0.22369385,-0.7876587,-1.140625,-0.578125,-0.25,545
530,1696254314363,0.48168945,-0.22735596,-0.7920532,-1.09375,-0.5,-0.203125,546
531,1696254314403,0.48095703,-0.2276001,-0.7817993,-0.515625,-0.703125,-0.109375,547
532,1696254314443,0.48120117,-0.22662354,-0.7930298,-0.046875,-0.890625,0.25,548
533,1696254314483,0.48388672,-0.22174072,-0.7901001,1.25,-1.484375,0.546875,549
534,1696254314523,0.4790039,-0.21710205,-0.7827759,1.5625,-6.09375,1.109375,550
535,1696254314563,0.48950195,-0.22296143,-0.7737427,0.40625,-9.234375,1.40625,551
536,1696254314603,0.5151367,-0.21759033,-0.7671509,-0.875,-5.828125,0.59375,552
537,1696254314643,0.51049805,-0.2234497,-0.786438,-1.78125,-5.4375,0.078125,553
538,1696254314683,0.5288086,-0.22589111,-0.76934814,-1.546875,-4.046875,0.1875,554
539,1696254314723,0.5214844,-0.22149658,-0.76641846,-1.265625,-2.3125,0.46875,555
540,1696254314763,0.52563477,-0.22369385,-0.7583618,-1.015625,-0.8125,0.15625,556
541,1696254314803,0.5205078,-0.23077393,-0.7581177,-1.0,-0.125,0.0,557
542,1696254314843,0.51831055,-0.22808838,-0.7510376,-0.546875,0.484375,0.203125,558
543,1696254314883,0.5168457,-0.22979736,-0.75982666,0.03125,0.625,0.359375,559
544,1696254314923,0.5270996,-0.23248291,-0.7715454,0.078125,0.75,0.359375,560
545,1696254314963,0.5205078,-0.22613525,-0.77349854,0.28125,0.703125,0.421875,561
546,1696254315003,0.5185547,-0.22467041,-0.77789307,0.28125,0.8125,0.328125,562
547,1696254315043,0.51220703,-0.22857666,-0.7715454,0.484375,-0.328125,0.5625,563
548,1696254315083,0.51464844,-0.22393799,-0.76519775,0.046875,-0.515625,0.453125,564
549,1696254315123,0.51123047,-0.222229,-0.7554321,-0.125,0.140625,0.375,565
550,1696254315163,0.517334,-0.22613525,-0.7661743,-0.109375,1.125,0.203125,566
551,1696254315203,0.5058594,-0.23248291,-0.7571411,0.25,2.640625,0.109375,567
552,1696254315243,0.5036621,-0.2288208,-0.7739868,1.21875,4.515625,0.125,568
553,1696254315283,0.5024414,-0.21881104,-0.7959595,1.265625,3.953125,-0.0625,569
554,1696254315323,0.4951172,-0.22467041,-0.7769165,1.15625,3.15625,-0.015625,570
555,1696254315363,0.48779297,-0.21368408,-0.7822876,1.390625,3.21875,-0.046875,571
556,1696254315403,0.48266602,-0.21832275,-0.7883911,1.28125,3.15625,-0.171875,572
557,1696254315443,0.48388672,-0.21295166,-0.78985596,0.5,1.140625,0.078125,573
558,1696254315483,0.48339844,-0.21759033,-0.79156494,0.203125,0.765625,-0.296875,574
559,1696254315523,0.48046875,-0.2144165,-0.7913208,-0.109375,0.65625,-0.125,575
560,1696254315563,0.4802246,-0.21710205,-0.79693604,-0.53125,0.0625,-0.265625,576
561,1696254315603,0.47558594,-0.21392822,-0.7971802,-0.359375,0.0625,-0.328125,577
562,1696254315643,0.47436523,-0.21783447,-0.79107666,-0.609375,-0.046875,-0.3125,578
563,1696254315683,0.47509766,-0.2197876,-0.7883911,-0.5625,-0.46875,-0.09375,579
564,1696254315723,0.48120117,-0.22467041,-0.7859497,-0.84375,0.09375,-0.375,580
565,1696254315763,0.47338867,-0.22418213,-0.7839966,-0.390625,-0.53125,0.171875,581
566,1696254315803,0.47338867,-0.21905518,-0.78253174,0.46875,-0.296875,0.265625,582
567,1696254315843,0.47729492,-0.21832275,-0.78912354,0.1875,-0.609375,0.4375,583
568,1696254315883,0.47607422,-0.22491455,-0.7908325,-0.171875,-0.640625,0.140625,584
569,1696254315923,0.47924805,-0.22198486,-0.79522705,-0.078125,-0.875,0.140625,585
570,1696254315963,0.47485352,-0.22393799,-0.803772,0.53125,-1.578125,0.5625,586
571,1696254316003,0.47583008,-0.21588135,-0.79888916,0.65625,-7.078125,1.15625,587
572,1696254316043,0.4958496,-0.21905518,-0.7896118,-0.9375,-7.578125,0.546875,588
573,1696254316083,0.49145508,-0.22003174,-0.77349854,-1.453125,-6.078125,0.484375,589
574,1696254316123,0.5097656,-0.21661377,-0.7671509,-1.671875,-6.78125,0.484375,590
575,1696254316163,0.52197266,-0.21929932,-0.7805786,-1.671875,-4.234375,0.265625,591
576,1696254316203,0.53027344,-0.22174072,-0.77838135,-2.03125,-3.234375,-0.140625,592
577,1696254316243,0.53515625,-0.23199463,-0.769104,-1.6875,-1.734375,-0.1875,593
578,1696254316283,0.52490234,-0.22686768,-0.76104736,-0.984375,-0.53125,0.0,594
579,1696254316323,0.52490234,-0.22979736,-0.76275635,-1.0,0.96875,0.046875,595
580,1696254316363,0.5187988,-0.22735596,-0.75445557,-0.1875,1.0,0.078125,596
581,1696254316403,0.51293945,-0.23077393,-0.76226807,0.3125,1.625,0.375,597
582,1696254316443,0.5109863,-0.23248291,-0.7649536,0.640625,0.9375,0.59375,598
583,1696254316483,0.5097656,-0.2210083,-0.769104,0.703125,1.484375,0.6875,599
584,1696254316523,0.5024414,-0.23443604,-0.7620239,1.09375,1.5625,0.78125,600
585,1696254316563,0.5058594,-0.22320557,-0.7776489,1.265625,1.421875,0.8125,601
586,1696254316603,0.49951172,-0.21905518,-0.7761841,2.015625,2.40625,0.890625,602
587,1696254316643,0.50024414,-0.21636963,-0.78570557,1.265625,2.703125,0.203125,603
588,1696254316683,0.50756836,-0.22076416,-0.7944946,-0.0625,2.5,-0.265625,604
589,1696254316723,0.49975586,-0.22393799,-0.7810669,0.828125,3.359375,-0.421875,605
590,1696254316763,0.49047852,-0.21539307,-0.7835083,0.953125,2.8125,-0.3125,606
591,1696254316803,0.47973633,-0.2210083,-0.784729,1.390625,2.5625,0.015625,607
592,1696254316843,0.47509766,-0.21221924,-0.7962036,0.765625,1.734375,-0.109375,608
593,1696254316883,0.48510742,-0.21148682,-0.7905884,-0.328125,0.25,-0.25,609
594,1696254316923,0.4741211,-0.21148682,-0.78302,-0.4375,-0.328125,-0.109375,610
595,1696254316963,0.47802734,-0.21490479,-0.78790283,-0.515625,-0.53125,-0.1875,611
596,1696254317003,0.48364258,-0.2131958,-0.7896118,-0.84375,-0.65625,-0.234375,612
597,1696254317043,0.48291016,-0.21343994,-0.7905884,-0.59375,-0.53125,-0.203125,613
598,1696254317083,0.48706055,-0.21905518,-0.7966919,-0.859375,-0.40625,-0.3125,614
599,1696254317123,0.47753906,-0.222229,-0.7852173,-1.15625,-0.8125,-0.109375,615
600,1696254317163,0.47387695,-0.22515869,-0.7752075,-1.078125,-1.234375,-0.28125,616
601,1696254317203,0.48999023,-0.222229,-0.7991333,-1.125,-1.171875,-0.171875,617
602,1696254317243,0.48828125,-0.22125244,-0.7930298,-0.46875,-0.90625,-0.21875,618
603,1696254317283,0.4790039,-0.22711182,-0.78326416,1.078125,-0.828125,0.84375,619
604,1696254317323,0.4736328,-0.2197876,-0.7744751,2.234375,-2.953125,1.125,620
605,1696254317363,0.46899414,-0.21368408,-0.76812744,1.890625,-6.203125,1.546875,621
606,1696254317403,0.49853516,-0.21490479,-0.7695923,0.3125,-4.4375,1.015625,622
607,1696254317443,0.51220703,-0.2119751,-0.7913208,-0.546875,-2.609375,0.453125,623
608,1696254317483,0.50805664,-0.21661377,-0.80133057,-0.984375,-2.328125,0.4375,624
609,1696254317523,0.5163574,-0.222229,-0.7817993,-1.0625,-2.390625,0.4375,625
610,1696254317563,0.5085449,-0.2234497,-0.7727661,-1.015625,-1.546875,0.28125,626
611,1696254317603,0.5070801,-0.22198486,-0.7659302,-1.234375,-1.765625,0.15625,627
612,1696254317643,0.5180664,-0.21759033,-0.76641846,-0.828125,-0.578125,-0.03125,628
613,1696254317683,0.51000977,-0.21881104,-0.76104736,-0.484375,-0.296875,-0.015625,629
614,1696254317723,0.51538086,-0.22467041,-0.77423096,-0.015625,0.109375,0.359375,630
615,1696254317763,0.5095215,-0.22125244,-0.7752075,0.03125,0.046875,0.484375,631
616,1696254317803,0.51293945,-0.22930908,-0.7803345,-0.109375,0.0625,0.390625,632
617,1696254317843,0.5095215,-0.21832275,-0.769104,0.0625,0.296875,0.25,633
618,1696254317883,0.5024414,-0.21466064,-0.7786255,0.046875,0.140625,0.21875,634
619,1696254317923,0.49926758,-0.22027588,-0.76568604,-0.078125,0.453125,0.3125,635
620,1696254317963,0.5102539,-0.21929932,-0.7695923,0.421875,0.875,0.375,636
621,1696254318003,0.49487305,-0.21173096,-0.7642212,1.203125,2.546875,0.1875,637
622,1696254318043,0.5046387,-0.20709229,-0.79522705,0.9375,2.890625,0.0625,638
623,1696254318083,0.5031738,-0.22271729,-0.7918091,0.609375,2.546875,-0.203125,639
624,1696254318123,0.4897461,-0.21514893,-0.7954712,0.5,2.171875,-0.34375,640
625,1696254318163,0.4819336,-0.21783447,-0.7854614,0.484375,1.828125,-0.109375,641
626,1696254318203,0.47998047,-0.21295166,-0.78009033,0.5,1.578125,-0.25,642
627,1696254318243,0.47705078,-0.2119751,-0.7937622,0.3125,1.265625,-0.046875,643
628,1696254318283,0.47387695,-0.21759033,-0.80255127,-0.375,0.28125,-0.21875,644
629,1696254318323,0.48657227,-0.21221924,-0.798645,-0.546875,-0.015625,-0.234375,645
630,1696254318363,0.4794922,-0.21661377,-0.78570557,-0.765625,-0.203125,-0.140625,646
631,1696254318403,0.4777832,-0.21539307,-0.7942505,-0.703125,-0.46875,-0.46875,647
632,1696254318443,0.48217773,-0.21612549,-0.80059814,-1.40625,-1.109375,-0.546875,648
633,1696254318483,0.47509766,-0.22027588,-0.7876587,-1.6875,-1.328125,-0.375,649
634,1696254318523,0.48120117,-0.21783447,-0.7893677,-2.15625,-2.0,-0.171875,650
635,1696254318563,0.48461914,-0.22564697,-0.7852173,-1.8125,-2.34375,-0.171875,651
636,1696254318603,0.48583984,-0.23297119,-0.7805786,-0.859375,-1.140625,0.09375,652
637,1696254318643,0.5004883,-0.22930908,-0.78741455,0.484375,-0.359375,0.25,653
638,1696254318683,0.48999023,-0.22686768,-0.77911377,2.703125,-0.5,1.078125,654
639,1696254318723,0.484375,-0.21954346,-0.78326416,3.40625,-2.25,1.671875,655
640,1696254318763,0.4802246,-0.21270752,-0.77227783,2.390625,-2.78125,1.453125,656
641,1696254318803,0.4892578,-0.2156372,-0.78692627,0.9375,-2.453125,1.0,657
642,1696254318843,0.49975586,-0.21759033,-0.80255127,-0.171875,-2.265625,0.59375,658
643,1696254318883,0.5031738,-0.20855713,-0.79888916,-0.328125,-2.828125,0.578125,659
644,1696254318923,0.51171875,-0.21246338,-0.7962036,-0.875,-2.859375,0.328125,660
645,1696254318963,0.5061035,-0.21221924,-0.78009033,-0.734375,-1.75,0.375,661
646,1696254319003,0.5012207,-0.21295166,-0.76446533,-1.015625,-1.140625,0.078125,662
647,1696254319043,0.5004883,-0.21710205,-0.770813,-0.796875,-0.921875,0.109375,663
648,1696254319083,0.5046387,-0.21832275,-0.7642212,-0.75,-0.8125,0.109375,664
649,1696254319123,0.50561523,-0.21612549,-0.77911377,-0.703125,-0.875,0.375,665
650,1696254319163,0.5124512,-0.2131958,-0.77789307,-0.65625,-0.46875,0.171875,666
651,1696254319203,0.51464844,-0.2185669,-0.77838135,-0.4375,-0.421875,0.3125,667
652,1696254319243,0.5085449,-0.21514893,-0.7776489,-0.125,0.109375,0.390625,668
653,1696254319283,0.5007324,-0.21588135,-0.7720337,0.015625,0.0625,0.359375,669
654,1696254319323,0.49829102,-0.21661377,-0.76812744,-0.078125,0.390625,0.328125,670
655,1696254319363,0.49658203,-0.21832275,-0.7542114,0.796875,1.375,0.234375,671
656,1696254319403,0.49951172,-0.21661377,-0.7732544,1.203125,2.5625,0.046875,672
657,1696254319443,0.49853516,-0.2185669,-0.7918091,0.84375,2.875,-0.0625,673
658,1696254319483,0.50512695,-0.21490479,-0.80548096,0.171875,2.53125,-0.328125,674
659,1696254319523,0.49829102,-0.2107544,-0.7913208,0.171875,2.28125,-0.34375,675
660,1696254319563,0.48339844,-0.2144165,-0.7761841,0.5,2.3125,-0.25,676
661,1696254319603,0.4802246,-0.20489502,-0.7883911,0.5,1.65625,-0.15625,677
662,1696254319643,0.47705078,-0.21417236,-0.7913208,0.21875,1.390625,-0.1875,678
663,1696254319683,0.47070312,-0.20489502,-0.7822876,0.03125,0.84375,-0.375,679
664,1696254319723,0.47827148,-0.2210083,-0.7920532,0.0625,0.671875,-0.234375,680
665,1696254319763,0.4765625,-0.21710205,-0.79400635,-0.484375,-0.0625,-0.234375,681
666,1696254319803,0.47729492,-0.21612549,-0.79473877,-0.90625,-0.421875,-0.390625,682
667,1696254319843,0.4814453,-0.21905518,-0.8010864,-1.171875,-0.5,-0.390625,683
668,1696254319883,0.48754883,-0.2263794,-0.79522705,-1.5,-0.9375,-0.25,684
669,1696254319923,0.4741211,-0.22271729,-0.7893677,-0.6875,-0.671875,-0.15625,685
670,1696254319963,0.48095703,-0.22418213,-0.7854614,-0.53125,-0.375,0.046875,686
671,1696254320003,0.48120117,-0.21710205,-0.7827759,0.9375,-0.15625,0.359375,687
672,1696254320043,0.46972656,-0.22540283,-0.78692627,2.828125,-1.515625,0.84375,688
673,1696254320083,0.48217773,-0.21124268,-0.78985596,2.78125,-5.140625,1.453125,689
674,1696254320123,0.47875977,-0.21099854,-0.7749634,1.453125,-4.515625,1.21875,690
675,1696254320163,0.49389648,-0.20977783,-0.79229736,0.03125,-3.921875,0.671875,691
676,1696254320203,0.5,-0.21099854,-0.79156494,-0.3125,-3.8125,0.5,692
677,1696254320243,0.5151367,-0.20733643,-0.78863525,-1.1875,-3.15625,0.171875,693
678,1696254320283,0.5114746,-0.21173096,-0.7893677,-1.609375,-3.28125,0.140625,694
679,1696254320323,0.50878906,-0.21099854,-0.7710571,-1.90625,-1.9375,0.078125,695
680,1696254320363,0.49853516,-0.21710205,-0.7654419,-1.65625,-1.28125,-0.03125,696
681,1696254320403,0.5065918,-0.22418213,-0.76104736,-0.90625,-0.75,0.25,697
682,1696254320443,0.50805664,-0.21588135,-0.77227783,-0.421875,-0.375,0.390625,698
683,1696254320483,0.50756836,-0.2131958,-0.77545166,-0.21875,-0.09375,0.359375,699
684,1696254320523,0.5136719,-0.21759033,-0.784729,-0.0625,-0.03125,0.203125,700
685,1696254320563,0.50683594,-0.21466064,-0.77911377,-0.0625,-0.03125,0.328125,701
686,1696254320603,0.50756836,-0.21612549,-0.77130127,-0.1875,0.46875,0.21875,702
687,1696254320643,0.5102539,-0.22076416,-0.76690674,0.140625,0.71875,0.09375,703
688,1696254320683,0.50219727,-0.21368408,-0.7647095,0.203125,0.859375,0.28125,704
689,1696254320723,0.49853516,-0.22271729,-0.7659302,0.03125,2.03125,0.09375,705
690,1696254320763,0.4963379,-0.21636963,-0.77301025,1.40625,3.359375,0.0,706
691,1696254320803,0.4946289,-0.2107544,-0.7930298,1.078125,3.265625,-0.09375,707
692,1696254320843,0.49291992,-0.2107544,-0.80133057,0.53125,3.3125,-0.28125,708
693,1696254320883,0.47753906,-0.20758057,-0.7959595,0.40625,2.953125,-0.34375,709
694,1696254320923,0.47509766,-0.20977783,-0.80255127,0.296875,1.921875,-0.25,710
695,1696254320963,0.47070312,-0.21051025,-0.788147,0.046875,1.203125,-0.1875,711
696,1696254321003,0.47192383,-0.20904541,-0.7966919,-0.015625,1.03125,-0.234375,712
697,1696254321043,0.46850586,-0.21734619,-0.7930298,-0.125,0.453125,-0.234375,713
698,1696254321083,0.4711914,-0.21002197,-0.7871704,-0.171875,0.515625,-0.203125,714
699,1696254321123,0.47338867,-0.21710205,-0.8010864,-0.3125,0.28125,-0.171875,715
700,1696254321163,0.47070312,-0.21099854,-0.7974243,-0.46875,0.078125,-0.28125,716
701,1696254321203,0.47338867,-0.21490479,-0.80181885,-0.328125,0.171875,-0.296875,717
702,1696254321243,0.47070312,-0.21514893,-0.79156494,-0.5,-0.046875,-0.328125,718
703,1696254321283,0.47192383,-0.21783447,-0.79571533,-0.484375,-0.359375,-0.25,719
704,1696254321323,0.4724121,-0.21417236,-0.8023071,-0.453125,-0.515625,-0.1875,720
705,1696254321363,0.47753906,-0.22003174,-0.79937744,-0.21875,-0.625,0.0625,721
706,1696254321403,0.46948242,-0.21368408,-0.784729,0.65625,-0.703125,0.484375,722
707,1696254321443,0.46801758,-0.2144165,-0.802063,1.546875,-3.421875,0.984375,723
708,1696254321483,0.47143555,-0.2029419,-0.788147,1.375,-7.53125,1.234375,724
709,1696254321523,0.48608398,-0.20489502,-0.7752075,-0.328125,-6.421875,0.703125,725
710,1696254321563,0.49682617,-0.21588135,-0.7827759,-1.421875,-4.375,0.203125,726
711,1696254321603,0.5012207,-0.21246338,-0.7998657,-1.25,-2.40625,0.03125,727
712,1696254321643,0.50634766,-0.2131958,-0.78375244,-1.484375,-2.515625,0.171875,728
713,1696254321683,0.50805664,-0.2210083,-0.7852173,-1.296875,-2.125,0.15625,729
714,1696254321723,0.5090332,-0.22076416,-0.784729,-1.34375,-1.90625,0.125,730
715,1696254321763,0.5019531,-0.22003174,-0.7649536,-1.03125,-1.1875,0.1875,731
716,1696254321803,0.49951172,-0.21881104,-0.7647095,-0.890625,-0.671875,0.15625,732
717,1696254321843,0.49658203,-0.22613525,-0.7659302,-0.34375,-0.203125,0.1875,733
718,1696254321883,0.5046387,-0.21929932,-0.77716064,-0.375,-0.1875,0.421875,734
719,1696254321923,0.5083008,-0.21807861,-0.7793579,-0.171875,-0.21875,0.4375,735
720,1696254321963,0.5046387,-0.22027588,-0.77838135,-0.203125,-0.03125,0.3125,736
721,1696254322003,0.5078125,-0.2185669,-0.7764282,-0.1875,0.421875,0.25,737
722,1696254322043,0.49951172,-0.22052002,-0.7793579,-0.265625,0.5625,0.28125,738
723,1696254322083,0.49682617,-0.22393799,-0.7678833,0.125,0.8125,0.390625,739
724,1696254322123,0.49853516,-0.21759033,-0.7546997,1.140625,2.9375,0.21875,740
725,1696254322163,0.48950195,-0.21466064,-0.7817993,1.625,4.78125,0.25,741
726,1696254322203,0.4951172,-0.21514893,-0.7901001,1.671875,4.6875,0.0,742
727,1696254322243,0.48266602,-0.21588135,-0.8023071,1.203125,4.328125,-0.140625,743
728,1696254322283,0.4790039,-0.20831299,-0.80841064,1.171875,2.921875,-0.125,744
729,1696254322323,0.46362305,-0.20977783,-0.79937744,0.78125,2.171875,-0.296875,745
730,1696254322363,0.46801758,-0.20806885,-0.7984009,0.46875,1.078125,-0.171875,746
731,1696254322403,0.4645996,-0.20635986,-0.79522705,-0.015625,0.65625,-0.015625,747
732,1696254322443,0.46435547,-0.21466064,-0.7949829,-0.03125,0.140625,-0.078125,748
733,1696254322483,0.4711914,-0.21148682,-0.8074341,-0.3125,-0.34375,-0.328125,749
734,1696254322523,0.47070312,-0.2131958,-0.81427,-0.46875,-0.828125,-0.21875,750
735,1696254322563,0.4584961,-0.20977783,-0.7905884,-1.140625,-1.84375,-0.3125,751
736,1696254322603,0.47753906,-0.20904541,-0.81500244,-2.796875,-4.53125,-0.3125,752
737,1696254322643,0.48779297,-0.2234497,-0.8049927,-3.109375,-4.890625,-0.453125,753
738,1696254322683,0.48657227,-0.22564697,-0.7761841,-1.59375,-3.265625,-0.140625,754
739,1696254322723,0.49169922,-0.22589111,-0.78619385,-0.171875,-1.46875,0.109375,755
740,1696254322763,0.48950195,-0.22174072,-0.7752075,1.375,-0.46875,0.609375,756
741,1696254322803,0.48242188,-0.21514893,-0.7937622,1.6875,-1.984375,1.046875,757
742,1696254322843,0.48901367,-0.21490479,-0.77301025,1.453125,-4.296875,1.3125,758
743,1696254322883,0.48828125,-0.2144165,-0.7774048,-0.171875,-4.921875,0.796875,759
744,1696254322923,0.5095215,-0.22198486,-0.81915283,-3.125,-7.328125,0.03125,760
745,1696254322963,0.5319824,-0.22589111,-0.77911377,-2.640625,-8.59375,0.140625,761
746,1696254323003,0.5300293,-0.2210083,-0.76812744,-2.625,-3.71875,-0.0625,762
747,1696254323043,0.517334,-0.21685791,-0.7468872,-2.84375,-2.953125,-0.171875,763
748,1696254323083,0.513916,-0.22540283,-0.74591064,-2.109375,-1.328125,-0.09375,764
749,1696254323123,0.5109863,-0.23077393,-0.7427368,-0.703125,-0.4375,0.15625,765
750,1696254323163,0.5217285,-0.22564697,-0.7600708,-0.328125,0.09375,0.1875,766
751,1696254323203,0.5217285,-0.23443604,-0.7620239,0.328125,0.3125,0.40625,767
752,1696254323243,0.52075195,-0.23150635,-0.7732544,0.328125,0.921875,0.453125,768
753,1696254323283,0.52490234,-0.23736572,-0.7756958,0.203125,1.296875,0.375,769
754,1696254323323,0.517334,-0.22149658,-0.7683716,0.0625,0.875,0.5625,770
755,1696254323363,0.5085449,-0.22589111,-0.7612915,0.09375,0.84375,0.421875,771
756,1696254323403,0.50390625,-0.22125244,-0.7595825,0.15625,0.6875,0.40625,772
757,1696254323443,0.51049805,-0.22418213,-0.75665283,0.40625,0.703125,0.34375,773
758,1696254323483,0.5144043,-0.22247314,-0.7661743,0.578125,1.40625,0.546875,774
759,1696254323523,0.5053711,-0.22857666,-0.7620239,1.890625,3.015625,0.375,775
