,timestamp,accel_x,accel_y,accel_z,gyro_x,gyro_y,gyro_z,ind
0,1696252523649,-0.59765625,-0.05987549,0.88153076,0.25,0.125,-0.46875,0
1,1696252523689,-0.6022949,-0.074523926,0.8759155,-0.546875,-0.578125,0.0625,1
2,1696252523729,-0.6044922,-0.08721924,0.8847046,-0.734375,-0.375,0.078125,2
3,1696252523769,-0.6027832,-0.08526611,0.91033936,1.75,1.109375,0.03125,3
4,1696252523809,-0.5949707,-0.0791626,0.8825073,-0.21875,-1.921875,-0.421875,4
5,1696252523849,-0.6208496,-0.06500244,0.86590576,-0.578125,-1.703125,-0.375,5
6,1696252523889,-0.59521484,-0.06451416,0.87420654,0.296875,0.484375,-0.59375,6
7,1696252523929,-0.5805664,-0.066223145,0.88568115,0.375,0.359375,-0.515625,7
8,1696252523969,-0.58081055,-0.07598877,0.8978882,2.171875,1.125,-0.734375,8
9,1696252524009,-0.59033203,-0.08258057,0.8925171,0.546875,-0.453125,-0.21875,9
10,1696252524049,-0.6125488,-0.0881958,0.8842163,-0.515625,-2.65625,1.046875,10
11,1696252524089,-0.62768555,-0.06060791,0.86932373,-0.46875,-1.171875,0.40625,11
12,1696252524129,-0.58862305,-0.062561035,0.86883545,-0.46875,-1.09375,-0.328125,12
13,1696252524169,-0.59277344,-0.062561035,0.8678589,-0.203125,-2.671875,-0.078125,13
14,1696252524209,-0.5979004,-0.04815674,0.838562,1.859375,-3.5,-0.359375,14
15,1696252524249,-0.6296387,-0.055480957,0.72650146,10.890625,-20.1875,-0.875,15
16,1696252524289,-0.63842773,-0.09552002,0.7880249,-3.21875,-25.109375,-2.734375,16
17,1696252524329,-0.54345703,-0.018859863,0.9447632,0.109375,4.125,0.359375,17
18,1696252524369,-0.5998535,-0.16461182,0.8798218,-2.15625,-8.53125,9.828125,18
19,1696252524409,-0.8208008,-0.15020752,0.8685913,2.84375,-9.34375,5.953125,19
20,1696252524449,-0.68969727,-0.11627197,0.83270264,-0.421875,-2.015625,-7.21875,20
21,1696252524489,-0.6044922,-0.0005493164,0.79974365,-3.78125,3.078125,-6.953125,21
22,1696252524529,-0.638916,-0.020324707,0.8151245,-5.078125,-1.859375,2.796875,22
23,1696252524569,-0.7211914,-0.117248535,0.8065796,0.921875,-5.109375,2.984375,23
24,1696252524609,-0.6862793,-0.15704346,0.8397827,-0.171875,-0.734375,-1.140625,24
25,1696252524649,-0.6003418,-0.04058838,0.87127686,-3.25,2.15625,-4.953125,25
26,1696252524689,-0.657959,-0.049621582,0.79119873,-9.1875,-12.265625,4.703125,26
27,1696252524729,-0.75097656,-0.059631348,0.7963257,7.6875,5.453125,4.1875,27
28,1696252524769,-0.70458984,-0.13677979,0.8666382,-1.09375,-1.21875,-3.53125,28
29,1696252524809,-0.6364746,-0.062561035,0.8551636,1.515625,4.171875,-3.71875,29
30,1696252524849,-0.6755371,-0.05230713,0.80389404,-2.53125,-4.96875,0.28125,30
31,1696252524889,-0.6953125,-0.039855957,0.8126831,2.921875,3.671875,-0.875,31
32,1696252524929,-0.6503906,-0.0803833,0.80633545,-3.28125,3.078125,-0.59375,32
33,1696252524969,-0.6125488,-0.06402588,0.8759155,0.4375,-0.625,-0.96875,33
34,1696252525009,-0.6442871,-0.0491333,0.83148193,-1.390625,-4.234375,-1.65625,34
35,1696252525049,-0.69873047,-0.043273926,0.7987671,-2.90625,-4.703125,-1.4375,35
36,1696252525089,-0.6542969,-0.062316895,0.8121948,-0.859375,0.015625,-1.140625,36
37,1696252525129,-0.6953125,-0.05596924,0.81903076,0.890625,-3.203125,-2.0,37
38,1696252525169,-0.7363281,-0.069885254,0.79974365,-4.59375,-6.109375,-0.53125,38
39,1696252525209,-0.7050781,-0.036193848,0.80389404,-0.984375,-0.90625,0.125,39
40,1696252525249,-0.7114258,-0.023742676,0.8197632,2.265625,1.34375,-0.546875,40
41,1696252525289,-0.6804199,-0.059631348,0.85980225,-0.09375,1.515625,-0.015625,41
42,1696252525329,-0.67089844,-0.05328369,0.81414795,1.265625,-2.140625,1.015625,42
43,1696252525369,-0.64941406,-0.054748535,0.82562256,0.5625,1.5625,-0.046875,43
44,1696252525409,-0.6464844,-0.033996582,0.83099365,-1.5625,-0.140625,0.21875,44
45,1696252525449,-0.6687012,-0.04083252,0.8168335,-0.671875,-1.296875,0.84375,45
46,1696252525489,-0.6628418,-0.04498291,0.82562256,-0.59375,-3.203125,0.875,46
47,1696252525529,-0.71728516,-0.06011963,0.8029175,-0.3125,-3.59375,0.0625,47
48,1696252525569,-0.6989746,-0.06329346,0.80145264,-0.625,-1.265625,-1.171875,48
49,1696252525609,-0.7077637,-0.042297363,0.80511475,0.046875,-2.734375,-1.03125,49
50,1696252525649,-0.71362305,-0.04498291,0.8004761,-2.40625,-0.15625,-0.625,50
51,1696252525689,-0.6855469,-0.03277588,0.79681396,-0.171875,1.8125,-1.34375,51
52,1696252525729,-0.67871094,-0.035217285,0.8222046,-2.234375,-0.5,0.203125,52
53,1696252525769,-0.6894531,-0.035217285,0.8209839,-1.0,-0.15625,0.796875,53
54,1696252525809,-0.6621094,-0.039855957,0.8307495,-0.234375,1.46875,-0.40625,54
55,1696252525849,-0.6738281,-0.05670166,0.8295288,0.109375,0.875,0.109375,55
56,1696252525889,-0.67407227,-0.030822754,0.8121948,0.765625,-2.265625,-0.390625,56
57,1696252525929,-0.6826172,-0.044006348,0.80340576,-1.71875,-0.4375,-0.09375,57
58,1696252525969,-0.704834,-0.016418457,0.8053589,-0.203125,-0.28125,-0.203125,58
59,1696252526009,-0.71484375,-0.032287598,0.79315186,-0.578125,0.546875,1.34375,59
60,1696252526049,-0.6982422,-0.044006348,0.81658936,-1.390625,1.671875,0.9375,60
61,1696252526089,-0.6633301,-0.039367676,0.8295288,-0.390625,2.8125,-0.203125,61
62,1696252526129,-0.673584,-0.031311035,0.8241577,-0.265625,0.015625,0.0625,62
63,1696252526169,-0.6567383,-0.035949707,0.85150146,-2.296875,1.40625,0.171875,63
64,1696252526209,-0.6645508,-0.04425049,0.89520264,-4.96875,6.921875,0.203125,64
65,1696252526249,-0.6816406,-0.016418457,0.9088745,0.21875,19.84375,0.6875,65
66,1696252526289,-0.7026367,-0.016906738,0.89764404,6.171875,16.71875,3.34375,66
67,1696252526329,-0.62353516,-0.022766113,0.8048706,5.46875,14.796875,6.171875,67
68,1696252526369,-0.623291,-0.039123535,0.82073975,6.46875,13.8125,8.203125,68
69,1696252526409,-0.60595703,-0.11578369,0.85028076,8.09375,5.421875,4.46875,69
70,1696252526449,-0.5744629,-0.1326294,0.8571167,1.015625,0.03125,-1.796875,70
71,1696252526489,-0.5444336,-0.04425049,0.81414795,-0.203125,-5.40625,-3.875,71
72,1696252526529,-0.56225586,0.046569824,0.76483154,3.203125,-17.359375,-3.484375,72
73,1696252526569,-0.70458984,-0.10406494,0.73968506,-4.796875,-36.125,0.03125,73
74,1696252526609,-0.47753906,0.04510498,0.9645386,4.421875,-3.5625,-3.09375,74
75,1696252526649,-0.49609375,-0.13580322,0.9747925,-2.25,-12.3125,-0.1875,75
76,1696252526689,-0.8378906,-0.10040283,0.8444214,-1.46875,-12.578125,0.28125,76
77,1696252526729,-0.85498047,-0.07232666,0.8012085,-0.015625,-8.0,-1.15625,77
78,1696252526769,-0.7207031,-0.039367676,0.68377686,-4.78125,4.359375,-3.84375,78
79,1696252526809,-0.5793457,-0.042785645,0.8258667,-3.859375,4.046875,0.46875,79
80,1696252526849,-0.6628418,-0.02960205,0.8456421,0.71875,-2.875,-0.484375,80
81,1696252526889,-0.7414551,-0.09307861,0.8102417,-1.53125,-3.1875,1.09375,81
82,1696252526929,-0.6809082,-0.030822754,0.83587646,-0.796875,1.84375,-1.140625,82
83,1696252526969,-0.62109375,-0.013000488,0.8427124,-0.890625,0.203125,-0.90625,83
84,1696252527009,-0.70214844,-0.06060791,0.8151245,-1.328125,-3.84375,0.0625,84
85,1696252527049,-0.7072754,-0.058654785,0.7992554,-4.109375,0.203125,0.6875,85
86,1696252527089,-0.66186523,-0.023742676,0.7848511,-4.40625,-1.890625,-2.875,86
87,1696252527129,-0.62524414,-0.009094238,0.84124756,-2.796875,0.25,-4.859375,87
88,1696252527169,-0.6760254,-0.026428223,0.8217163,-0.078125,-4.234375,-1.90625,88
89,1696252527209,-0.7375488,-0.034729004,0.8019409,-0.265625,-2.75,2.125,89
90,1696252527249,-0.7651367,-0.018859863,0.8143921,0.828125,2.140625,0.984375,90
91,1696252527289,-0.6948242,-0.043029785,0.80462646,-0.765625,3.1875,0.4375,91
92,1696252527329,-0.64453125,-0.023498535,0.8185425,1.453125,2.15625,-0.03125,92
93,1696252527369,-0.69311523,-0.009094238,0.8070679,2.546875,-1.140625,0.765625,93
94,1696252527409,-0.7685547,-0.012023926,0.8053589,1.1875,-3.359375,1.40625,94
95,1696252527449,-0.65063477,-0.050109863,0.81658936,-3.5,6.0625,1.265625,95
96,1696252527489,-0.55493164,-0.05230713,0.8649292,2.375,0.875,-2.4375,96
97,1696252527529,-0.66015625,-0.03692627,0.81781006,1.359375,-4.328125,-0.75,97
98,1696252527569,-0.72436523,-0.023010254,0.7975464,-2.328125,-2.640625,0.078125,98
99,1696252527609,-0.70288086,-0.018615723,0.8239136,-0.28125,1.53125,1.5625,99
100,1696252527649,-0.6677246,-0.013000488,0.8161011,0.625,-0.578125,1.65625,100
101,1696252527689,-0.6911621,-0.043518066,0.82733154,0.09375,-1.109375,0.84375,101
102,1696252527729,-0.6982422,-0.03668213,0.80926514,-0.578125,-2.0,-0.1875,102
103,1696252527769,-0.69018555,-0.035705566,0.80462646,-0.171875,-0.03125,-0.0625,103
104,1696252527809,-0.6567383,-0.034729004,0.8287964,-0.8125,-0.78125,0.109375,104
105,1696252527849,-0.6994629,-0.007385254,0.8234253,1.296875,-2.5625,0.53125,105
106,1696252527889,-0.6940918,-0.028381348,0.8156128,-0.796875,0.8125,1.296875,106
107,1696252527929,-0.68603516,-0.04425049,0.84198,2.65625,0.234375,2.453125,107
108,1696252527969,-0.6760254,-0.053771973,0.7875366,-0.234375,-1.25,1.359375,108
109,1696252528009,-0.7133789,-0.051574707,0.78826904,-1.953125,-1.40625,0.890625,109
110,1696252528049,-0.6677246,-0.023742676,0.8019409,-0.109375,0.671875,-0.0625,110
111,1696252528089,-0.69506836,-0.022277832,0.79681396,-0.953125,-1.59375,1.140625,111
112,1696252528129,-0.6623535,-0.034240723,0.8305054,1.578125,-0.59375,1.390625,112
113,1696252528169,-0.64624023,-0.027404785,0.8463745,0.90625,0.3125,-1.734375,113
114,1696252528209,-0.70214844,-0.03692627,0.8197632,1.125,-2.6875,-0.734375,114
115,1696252528249,-0.7043457,-0.054016113,0.79241943,-1.640625,-0.75,1.015625,115
116,1696252528289,-0.6899414,-0.04107666,0.8275757,0.671875,-0.125,0.484375,116
117,1696252528329,-0.671875,-0.034484863,0.82244873,-0.296875,1.359375,-0.140625,117
118,1696252528369,-0.71655273,-0.031555176,0.809021,0.328125,-2.703125,1.078125,118
119,1696252528409,-0.7067871,-0.042785645,0.8019409,-0.765625,0.125,0.359375,119
120,1696252528449,-0.6623535,-0.023254395,0.78045654,0.609375,0.953125,-1.046875,120
121,1696252528489,-0.6413574,-0.02935791,0.8414917,0.4375,0.15625,-0.609375,121
122,1696252528529,-0.67089844,-0.035217285,0.8383179,0.421875,-1.640625,0.21875,122
123,1696252528569,-0.7158203,-0.038635254,0.7926636,-0.90625,-2.546875,1.125,123
124,1696252528609,-0.6928711,-0.039367676,0.7926636,0.765625,-0.296875,0.390625,124
125,1696252528649,-0.6633301,-0.03765869,0.826355,0.21875,-0.75,-0.71875,125
126,1696252528689,-0.67285156,-0.040100098,0.82562256,-0.75,1.03125,-0.609375,126
127,1696252528729,-0.7011719,-0.028137207,0.8366089,2.640625,-0.546875,0.328125,127
128,1696252528769,-0.74365234,-0.04156494,0.7758179,-2.203125,-2.125,1.609375,128
129,1696252528809,-0.69384766,-0.050354004,0.79901123,0.734375,1.671875,0.375,129
130,1696252528849,-0.6335449,-0.03643799,0.8317261,2.15625,2.734375,-0.5625,130
131,1696252528889,-0.6911621,-0.031555176,0.81463623,-0.75,-0.03125,1.109375,131
132,1696252528929,-0.6989746,-0.040100098,0.82977295,-1.75,1.90625,1.25,132
133,1696252528969,-0.68359375,-0.06304932,0.899353,-7.875,9.765625,0.4375,133
134,1696252529009,-0.71191406,-0.033996582,0.96868896,-2.875,31.84375,2.328125,134
135,1696252529049,-0.6743164,-0.049865723,0.84490967,8.125,22.28125,5.59375,135
136,1696252529089,-0.6191406,0.0065307617,0.8336792,15.640625,18.40625,7.5625,136
137,1696252529129,-0.57299805,-0.04107666,0.8139038,9.90625,11.578125,9.421875,137
138,1696252529169,-0.5270996,-0.12945557,0.8786011,5.375,5.359375,4.375,138
139,1696252529209,-0.51904297,-0.12799072,0.85272217,-1.90625,-1.40625,-1.09375,139
140,1696252529249,-0.52368164,-0.058898926,0.84173584,4.265625,-10.203125,-4.9375,140
141,1696252529289,-0.6320801,-0.09283447,0.68548584,4.046875,-39.890625,-2.515625,141
142,1696252529329,-0.69628906,-0.09820557,0.9398804,-6.5625,-31.40625,-5.921875,142
143,1696252529369,-0.40600586,0.028747559,0.91937256,-3.75,7.21875,-2.921875,143
144,1696252529409,-0.6479492,-0.16046143,0.9279175,-5.515625,-10.609375,1.75,144
145,1696252529449,-0.9177246,-0.07989502,0.8029175,6.5625,-15.765625,4.0625,145
146,1696252529489,-0.8066406,-0.14727783,0.75897217,-7.59375,5.375,-3.25,146
147,1696252529529,-0.54174805,-0.058166504,0.8085327,-3.3125,8.0,-2.859375,147
148,1696252529569,-0.6098633,-0.034729004,0.84246826,0.171875,-0.65625,-0.171875,148
149,1696252529609,-0.70751953,-0.07159424,0.77215576,-2.1875,-9.875,0.375,149
150,1696252529649,-0.6906738,-0.06060791,0.8637085,-2.28125,0.796875,-1.953125,150
151,1696252529689,-0.6479492,-0.020568848,0.84417725,0.234375,1.859375,-0.90625,151
152,1696252529729,-0.673584,-0.08428955,0.8060913,-0.34375,-4.296875,1.140625,152
153,1696252529769,-0.65478516,-0.08721924,0.8239136,-1.0,0.46875,-0.46875,153
154,1696252529809,-0.6574707,-0.042785645,0.8312378,0.5625,-1.90625,-1.234375,154
155,1696252529849,-0.6503906,-0.034484863,0.8353882,-2.25,-0.78125,0.5625,155
156,1696252529889,-0.72265625,-0.062072754,0.81414795,0.125,-4.0,1.828125,156
157,1696252529929,-0.7236328,-0.077697754,0.74139404,-1.046875,-2.015625,0.734375,157
158,1696252529969,-0.67163086,-0.05987549,0.85736084,0.578125,3.765625,-2.328125,158
159,1696252530009,-0.6459961,-0.042297363,0.8722534,-0.5625,1.671875,-1.21875,159
160,1696252530049,-0.69628906,-0.05645752,0.789978,-2.03125,-4.171875,1.6875,160
161,1696252530089,-0.6711426,-0.045959473,0.79803467,0.5625,-1.078125,-0.84375,161
162,1696252530129,-0.6501465,-0.051574707,0.8439331,-1.921875,1.8125,-1.671875,162
163,1696252530169,-0.6508789,-0.027160645,0.8522339,-0.140625,0.046875,-0.359375,163
164,1696252530209,-0.7363281,-0.061340332,0.7514038,0.6875,-6.828125,2.5625,164
165,1696252530249,-0.6984863,-0.01739502,0.8307495,2.140625,1.28125,-3.046875,226
166,1696252530289,-0.657959,-0.026672363,0.854187,0.734375,1.84375,-1.5625,227
167,1696252530329,-0.6479492,-0.043273926,0.8451538,2.0625,1.96875,2.71875,228
168,1696252530369,-0.6713867,-0.086242676,0.78289795,-3.328125,-6.15625,2.75,229
169,1696252530409,-0.7080078,-0.03692627,0.80584717,-1.046875,-2.125,-1.78125,230
170,1696252530449,-0.67407227,-0.0134887695,0.82977295,1.84375,2.390625,-2.484375,231
171,1696252530489,-0.64746094,-0.028625488,0.87786865,0.8125,1.546875,0.875,232
172,1696252530529,-0.69384766,-0.062316895,0.8407593,-0.65625,0.765625,3.375,233
173,1696252530569,-0.65771484,-0.06744385,0.777771,-3.0625,-5.359375,-0.03125,234
174,1696252530609,-0.6933594,-0.027648926,0.8148804,1.109375,-0.921875,-2.953125,235
175,1696252530649,-0.6616211,-0.010314941,0.83514404,0.28125,-0.234375,-2.15625,236
176,1696252530689,-0.70947266,-0.0413208,0.85809326,-0.296875,3.609375,2.59375,237
177,1696252530729,-0.68115234,-0.0713501,0.86273193,-0.015625,0.015625,3.390625,238
178,1696252530769,-0.6779785,-0.08258057,0.75775146,-5.140625,-3.390625,-0.890625,239
179,1696252530809,-0.6894531,-0.0032348633,0.80462646,1.859375,1.828125,-2.546875,240
180,1696252530849,-0.64746094,-0.0051879883,0.85736084,1.671875,1.546875,-2.0625,241
181,1696252530889,-0.6621094,-0.0256958,0.8200073,0.921875,0.328125,2.765625,242
182,1696252530929,-0.6594238,-0.07550049,0.8114624,-1.875,-2.578125,2.96875,243
183,1696252530969,-0.7067871,-0.050354004,0.82196045,-1.0625,-2.3125,-0.40625,244
184,1696252531009,-0.6809082,-0.017150879,0.8373413,1.84375,2.234375,-2.0625,245
185,1696252531049,-0.6179199,-0.042053223,0.82928467,0.765625,0.5,0.046875,246
186,1696252531089,-0.6672363,-0.04815674,0.87615967,0.984375,0.578125,3.28125,247
187,1696252531129,-0.6960449,-0.070129395,0.9423218,2.765625,1.125,5.5,248
188,1696252531169,-0.7211914,-0.022766113,0.9164429,5.421875,10.640625,3.59375,249
189,1696252531209,-0.77905273,-0.02911377,0.7819214,-1.421875,18.765625,4.46875,250
190,1696252531249,-0.6220703,-0.10357666,0.7218628,3.515625,22.828125,6.09375,251
191,1696252531289,-0.5109863,-0.12652588,0.81658936,8.140625,14.25,8.0,252
192,1696252531329,-0.51953125,-0.13214111,0.8695679,8.921875,0.0,0.953125,253
193,1696252531369,-0.6381836,-0.10357666,0.8348999,-1.015625,-8.65625,-7.328125,254
194,1696252531409,-0.60253906,0.00018310547,0.7301636,-3.953125,-25.3125,-8.359375,255
195,1696252531449,-0.6826172,-0.047668457,0.94647217,-3.671875,-27.140625,-4.15625,256
196,1696252531489,-0.3996582,-0.030822754,0.9154663,-8.546875,11.1875,-5.828125,257
197,1696252531529,-0.64160156,-0.12579346,0.92962646,-6.109375,-17.328125,3.3125,258
198,1696252531569,-0.8894043,-0.028137207,0.76971436,6.375,-5.03125,7.203125,259
199,1696252531609,-0.6850586,-0.07305908,0.78900146,-6.46875,3.1875,-3.453125,260
200,1696252531649,-0.5559082,-0.077697754,0.8746948,3.96875,2.390625,-2.96875,261
201,1696252531689,-0.7121582,-0.097229004,0.7831421,-0.828125,-11.9375,-0.671875,262
202,1696252531729,-0.7661133,-0.03643799,0.826355,0.046875,-0.640625,-1.515625,263
203,1696252531769,-0.6789551,-0.024230957,0.8773804,1.1875,4.453125,0.140625,264
204,1696252531809,-0.6098633,-0.047424316,0.81243896,-1.484375,-2.546875,0.890625,265
205,1696252531849,-0.65405273,-0.077697754,0.8278198,-0.921875,-1.921875,0.3125,266
206,1696252531889,-0.671875,-0.057434082,0.795105,0.546875,-1.140625,-0.28125,267
207,1696252531929,-0.65478516,-0.019592285,0.83514404,-0.25,-1.6875,0.296875,268
208,1696252531969,-0.6821289,-0.046447754,0.8317261,-1.109375,-2.40625,0.71875,269
209,1696252532009,-0.7067871,-0.07989502,0.8004761,-1.0,-1.984375,0.546875,270
210,1696252532049,-0.69970703,-0.05328369,0.821228,1.015625,0.40625,-1.328125,271
211,1696252532089,-0.67871094,-0.046691895,0.81658936,0.21875,-0.546875,-1.46875,272
212,1696252532129,-0.68115234,-0.04425049,0.8197632,-0.5,0.421875,0.375,273
213,1696252532169,-0.67456055,-0.049621582,0.8200073,-0.625,0.90625,1.125,274
214,1696252532209,-0.671875,-0.05621338,0.8226929,0.359375,-0.578125,-1.296875,275
215,1696252532249,-0.6755371,-0.054992676,0.822937,-0.546875,-0.453125,-0.625,276
216,1696252532289,-0.6911621,-0.04522705,0.8336792,0.890625,1.0625,1.0,277
217,1696252532329,-0.6682129,-0.051574707,0.8222046,-0.03125,0.15625,0.90625,278
218,1696252532369,-0.66381836,-0.057922363,0.8131714,0.5,-1.890625,-0.90625,279
219,1696252532409,-0.670166,-0.050842285,0.8395386,-1.421875,0.734375,-0.46875,280
220,1696252532449,-0.68530273,-0.030822754,0.7999878,0.0625,-0.25,0.984375,281
221,1696252532489,-0.67749023,-0.04815674,0.80755615,0.203125,0.359375,0.4375,282
222,1696252532529,-0.6652832,-0.0569458,0.83929443,0.171875,-0.59375,-0.796875,283
223,1696252532569,-0.70410156,-0.055236816,0.8239136,-1.296875,0.203125,0.015625,284
224,1696252532609,-0.6804199,-0.027648926,0.8966675,3.671875,6.609375,0.46875,285
225,1696252532649,-0.68652344,-0.09210205,0.9320679,3.359375,14.328125,3.46875,286
226,1696252532689,-0.6335449,-0.05645752,0.85321045,-0.109375,15.125,3.25,287
227,1696252532729,-0.6640625,-0.046691895,0.809021,4.84375,13.609375,7.078125,288
228,1696252532769,-0.5961914,-0.08502197,0.8019409,6.046875,12.46875,6.015625,289
229,1696252532809,-0.5673828,-0.101867676,0.8209839,5.453125,3.796875,2.609375,290
230,1696252532849,-0.5866699,-0.12432861,0.86468506,1.984375,-5.234375,-1.140625,291
231,1696252532889,-0.5949707,-0.09039307,0.88201904,-1.734375,-7.84375,-5.6875,292
232,1696252532929,-0.59521484,-0.034729004,0.8468628,-4.109375,-12.375,-5.296875,293
233,1696252532969,-0.6772461,-0.042297363,0.77801514,-4.921875,-19.640625,0.671875,294
234,1696252533009,-0.6796875,-0.0569458,0.83099365,-5.46875,-22.765625,-0.609375,295
235,1696252533049,-0.595459,-0.0134887695,0.8566284,0.71875,-1.25,-1.453125,296
236,1696252533089,-0.6057129,-0.12823486,0.8590698,-2.640625,-11.09375,-3.828125,297
237,1696252533129,-0.6816406,-0.07086182,0.8290405,-3.8125,-1.859375,-5.109375,298
238,1696252533169,-0.7553711,-0.034973145,0.82318115,-6.15625,-5.078125,-1.140625,299
239,1696252533209,-0.73535156,-0.019836426,0.789978,-2.921875,1.734375,0.078125,300
240,1696252533249,-0.6767578,-0.042785645,0.793396,-3.4375,-2.4375,-1.09375,301
241,1696252533289,-0.68969727,-0.059631348,0.84002686,0.1875,-4.359375,-2.03125,302
242,1696252533329,-0.7080078,-0.015197754,0.8348999,-0.234375,1.8125,-1.46875,303
243,1696252533369,-0.73950195,-0.023254395,0.795105,-0.03125,0.515625,1.046875,304
244,1696252533409,-0.68115234,-0.013000488,0.8161011,0.6875,-2.328125,-0.40625,305
245,1696252533449,-0.6748047,-0.05718994,0.8497925,-0.8125,3.46875,-1.703125,306
246,1696252533489,-0.6870117,-0.04425049,0.79681396,1.0625,1.140625,-0.546875,307
247,1696252533529,-0.6916504,-0.043029785,0.795105,-0.390625,-0.9375,2.140625,308
248,1696252533569,-0.63623047,0.0004272461,0.8180542,1.21875,-0.5,-0.8125,309
249,1696252533609,-0.7043457,-0.06524658,0.8253784,0.484375,-3.4375,0.140625,310
250,1696252533649,-0.689209,-0.04425049,0.8439331,-1.0625,2.40625,-0.875,311
251,1696252533689,-0.7368164,-0.022521973,0.77215576,1.40625,-1.71875,1.046875,312
252,1696252533729,-0.68310547,-0.02960205,0.8012085,0.078125,-0.8125,0.40625,313
253,1696252533769,-0.66503906,-0.038635254,0.8434448,0.421875,1.828125,0.09375,314
254,1696252533809,-0.68310547,-0.039367676,0.8139038,-0.703125,0.5625,0.1875,315
255,1696252533849,-0.72998047,-0.024719238,0.79901123,1.078125,2.515625,0.359375,316
256,1696252533889,-0.6713867,-0.04815674,0.8121948,0.3125,1.890625,-0.15625,317
257,1696252533929,-0.60913086,-0.05279541,0.8517456,0.5,5.21875,0.109375,318
258,1696252533969,-0.65356445,-0.03717041,0.83807373,2.109375,-1.75,0.9375,319
259,1696252534009,-0.69799805,-0.02960205,0.78167725,-1.03125,-5.40625,0.21875,320
260,1696252534049,-0.6791992,-0.04522705,0.8444214,2.015625,-0.84375,-0.421875,321
261,1696252534089,-0.6530762,-0.045715332,0.8383179,-2.140625,1.890625,-0.140625,322
262,1696252534129,-0.7348633,-0.03302002,0.7975464,1.015625,-1.171875,1.1875,323
263,1696252534169,-0.69018555,-0.050109863,0.8109741,-1.90625,4.3125,0.203125,324
264,1696252534209,-0.64038086,-0.03375244,0.8275757,-0.796875,0.25,-1.078125,325
265,1696252534249,-0.6621094,-0.031799316,0.8427124,-0.3125,-1.078125,-1.5,326
266,1696252534289,-0.6999512,-0.034484863,0.8200073,-0.09375,-2.0,0.171875,327
267,1696252534329,-0.689209,-0.031311035,0.8336792,2.28125,-2.078125,0.96875,328
268,1696252534369,-0.59887695,-0.05279541,0.8278198,-3.609375,5.328125,-0.375,329
269,1696252534409,-0.6508789,0.0036010742,0.8563843,0.4375,0.859375,0.625,330
270,1696252534449,-0.73291016,-0.010803223,0.77508545,3.015625,-0.75,3.34375,331
271,1696252534489,-0.6699219,-0.054504395,0.8305054,1.703125,1.09375,0.40625,332
272,1696252534529,-0.6279297,-0.07550049,0.8493042,0.078125,0.984375,-0.09375,333
273,1696252534569,-0.69506836,-0.05279541,0.82562256,-1.046875,-4.65625,0.1875,334
274,1696252534609,-0.7067871,-0.035461426,0.7994995,0.125,-0.359375,-0.578125,335
275,1696252534649,-0.6430664,-0.026916504,0.838562,-0.15625,0.640625,-0.453125,336
276,1696252534689,-0.6491699,-0.04058838,0.8432007,0.0625,0.578125,0.953125,337
277,1696252534729,-0.6530762,-0.044006348,0.82733154,0.5,-2.234375,1.1875,338
278,1696252534769,-0.67211914,-0.030578613,0.8329468,-0.4375,-1.921875,-0.078125,339
279,1696252534809,-0.6906738,-0.039367676,0.82806396,0.1875,-2.328125,-0.609375,340
280,1696252534849,-0.69677734,-0.046936035,0.8283081,0.0625,0.453125,0.890625,341
281,1696252534889,-0.68188477,-0.04888916,0.8168335,0.890625,-0.125,1.53125,342
282,1696252534929,-0.6520996,-0.024719238,0.8085327,1.25,-2.328125,-0.765625,343
283,1696252534969,-0.6635742,-0.061828613,0.83587646,0.609375,-2.21875,-0.265625,344
284,1696252535009,-0.66796875,-0.03253174,0.83758545,-1.296875,2.359375,0.546875,345
285,1696252535049,-0.7163086,-0.028137207,0.81121826,0.53125,-0.84375,1.484375,346
286,1696252535089,-0.66552734,-0.05230713,0.81414795,0.046875,-0.203125,-0.53125,347
287,1696252535129,-0.640625,-0.06793213,0.84906006,-1.21875,1.265625,-0.46875,348
288,1696252535169,-0.67333984,-0.030334473,0.8468628,1.28125,0.3125,0.40625,349
289,1696252535209,-0.6801758,-0.059387207,0.918396,-4.671875,13.5625,1.484375,350
290,1696252535249,-0.6796875,0.020202637,0.93133545,1.09375,15.375,4.109375,351
291,1696252535289,-0.70532227,-0.066223145,0.82196045,7.09375,8.796875,9.453125,352
292,1696252535329,-0.61572266,-0.116760254,0.7645874,11.859375,13.828125,9.671875,353
293,1696252535369,-0.50341797,-0.11773682,0.8666382,13.90625,20.46875,6.0625,354
294,1696252535409,-0.4765625,-0.116760254,0.94158936,15.453125,7.671875,-0.0625,355
295,1696252535449,-0.7050781,-0.18829346,0.84710693,3.546875,-5.21875,2.0625,356
296,1696252535489,-0.7397461,-0.089904785,0.8251343,-2.609375,3.984375,4.84375,357
297,1696252535529,-0.58984375,-0.0095825195,0.8690796,0.0,10.4375,1.46875,358
298,1696252535569,-0.4453125,-0.0791626,0.9003296,3.21875,5.34375,-2.40625,359
299,1696252535609,-0.43432617,-0.17608643,0.8912964,-8.015625,-12.234375,-2.53125,360
300,1696252535649,-0.53344727,-0.15167236,0.7875366,-28.515625,-38.25,-3.203125,361
301,1696252535689,-0.657959,0.014831543,0.87420654,-6.984375,-29.5625,-6.796875,362
302,1696252535729,-0.75341797,-0.055480957,0.84417725,-0.9375,-16.875,-1.203125,363
303,1696252535769,-0.6154785,-0.08648682,0.78411865,-5.96875,-11.53125,-0.171875,364
304,1696252535809,-0.62158203,-0.07354736,0.9418335,-0.96875,-5.5,-1.1875,365
305,1696252535849,-0.65771484,-0.034484863,0.88323975,5.25,2.828125,-4.203125,366
306,1696252535889,-0.75756836,-0.0635376,0.80999756,-3.0625,-8.390625,0.265625,367
307,1696252535929,-0.73339844,-0.07208252,0.81365967,0.078125,1.375,3.328125,368
308,1696252535969,-0.68237305,-0.08673096,0.7235718,0.8125,-5.40625,-2.15625,369
309,1696252536009,-0.64868164,-0.040100098,0.84295654,-3.203125,7.453125,-5.0625,370
310,1696252536049,-0.7211914,-0.050598145,0.83514404,-1.59375,-1.46875,0.375,371
311,1696252536089,-0.7175293,-0.02935791,0.7963257,-0.296875,-1.046875,4.125,372
312,1696252536129,-0.64941406,-0.031066895,0.8539429,0.46875,4.4375,0.890625,373
313,1696252536169,-0.66308594,-0.08892822,0.9706421,7.84375,5.640625,1.203125,374
314,1696252536209,-0.73876953,-0.13287354,0.95062256,4.890625,20.90625,4.390625,375
315,1696252536249,-0.64501953,-0.07525635,0.71673584,-4.78125,22.265625,-1.234375,376
316,1696252536289,-0.57910156,0.043640137,0.7692261,-0.734375,8.125,-1.90625,377
317,1696252536329,-0.6052246,-0.003967285,0.7826538,5.0625,-8.28125,1.015625,378
318,1696252536369,-0.64282227,-0.11920166,0.7626343,5.578125,-11.6875,2.515625,379
319,1696252536409,-0.6452637,-0.11480713,0.8600464,5.0,-9.390625,2.578125,380
320,1696252536449,-0.63671875,-0.06109619,0.838562,-6.28125,-16.640625,1.875,381
321,1696252536489,-0.5830078,-0.05303955,0.82855225,-1.484375,-15.625,-2.5,382
322,1696252536529,-0.7084961,-0.11578369,0.9076538,-0.1875,-6.34375,-6.140625,383
323,1696252536569,-0.60253906,-0.04449463,0.81365967,-9.484375,0.890625,-4.421875,384
324,1696252536609,-0.75878906,0.009460449,0.8624878,-0.21875,-2.03125,1.859375,385
325,1696252536649,-0.7963867,-0.077941895,0.7706909,2.375,1.65625,4.640625,386
326,1696252536689,-0.670166,-0.13067627,0.76190186,-3.15625,2.328125,-1.078125,387
327,1696252536729,-0.6135254,-0.07696533,0.8878784,3.25,3.71875,-3.53125,388
328,1696252536769,-0.70825195,-0.038635254,0.7994995,-0.078125,-7.40625,0.03125,389
329,1696252536809,-0.72802734,-6.1035156e-05,0.7435913,-1.53125,-4.984375,0.59375,390
330,1696252536849,-0.6418457,-0.010314941,0.90545654,3.296875,9.125,-1.03125,391
331,1696252536889,-0.6298828,-0.08502197,0.84539795,0.046875,0.015625,-0.109375,392
332,1696252536929,-0.71435547,-0.11480713,0.77752686,-1.4375,-3.84375,2.5625,393
333,1696252536969,-0.65625,-0.059631348,0.8344116,0.40625,0.3125,-3.21875,394
334,1696252537009,-0.64086914,-0.023986816,0.84661865,-0.078125,2.5,-0.828125,395
335,1696252537049,-0.74121094,-0.058410645,0.7821655,-0.984375,-5.75,4.328125,396
336,1696252537089,-0.73046875,-0.07281494,0.7404175,-0.140625,-5.765625,1.03125,397
337,1696252537129,-0.640625,-0.04937744,0.8624878,2.46875,4.796875,-2.984375,398
338,1696252537169,-0.6359863,-0.042053223,0.868103,-1.296875,1.6875,-1.703125,399
339,1696252537209,-0.7458496,-0.06451416,0.7716675,-1.078125,-5.78125,3.0625,400
340,1696252537249,-0.68652344,-0.058410645,0.78900146,0.875,0.796875,0.25,401
341,1696252537289,-0.64208984,-0.051330566,0.8617554,2.28125,4.96875,-0.34375,402
342,1696252537329,-0.67871094,-0.06695557,0.79852295,0.703125,-3.25,1.125,403
343,1696252537369,-0.7158203,-0.07965088,0.77874756,3.1875,-3.5,2.71875,404
344,1696252537409,-0.7404785,-0.062316895,0.82611084,2.484375,-4.421875,1.046875,405
345,1696252537449,-0.59936523,-0.05230713,0.8312378,-4.265625,10.78125,-2.125,406
346,1696252537489,-0.6398926,-0.06109619,0.89764404,-2.625,-1.609375,-3.234375,407
347,1696252537529,-0.8071289,-0.06011963,0.7550659,1.859375,-4.546875,3.984375,408
348,1696252537569,-0.65527344,-0.06817627,0.7797241,-2.875,2.09375,-0.609375,409
349,1696252537609,-0.60839844,-0.043273926,0.8661499,1.640625,5.046875,-1.25,410
350,1696252537649,-0.68725586,-0.06402588,0.82318115,-2.9375,-7.28125,-0.25,411
351,1696252537689,-0.7446289,-0.07159424,0.77142334,-0.5625,-2.84375,1.625,412
352,1696252537729,-0.6809082,-0.031066895,0.84002686,1.796875,7.0625,0.640625,413
353,1696252537769,-0.6237793,-0.061584473,0.87615967,1.5625,4.5625,1.796875,414
354,1696252537809,-0.68652344,-0.10821533,0.8114624,-0.671875,-4.984375,3.46875,415
355,1696252537849,-0.6743164,-0.07720947,0.7706909,-0.59375,-4.5625,-0.828125,416
356,1696252537889,-0.6706543,-0.010803223,0.8414917,-0.203125,3.4375,-1.6875,417
357,1696252537929,-0.67456055,-0.038879395,0.83587646,0.53125,-1.890625,0.9375,418
358,1696252537969,-0.7067871,-0.081604004,0.7802124,-1.4375,-4.96875,1.078125,419
359,1696252538009,-0.7126465,-0.06744385,0.7975464,1.359375,0.171875,-0.15625,420
360,1696252538049,-0.66259766,-0.058654785,0.838562,-1.046875,2.453125,-1.234375,421
361,1696252538089,-0.642334,-0.07208252,0.84173584,-1.328125,-0.9375,-0.4375,422
362,1696252538129,-0.6972656,-0.07208252,0.8029175,-0.765625,-4.390625,0.9375,423
363,1696252538169,-0.6982422,-0.043029785,0.81170654,-0.265625,-0.0625,-0.953125,424
364,1696252538209,-0.65234375,-0.04498291,0.83343506,0.78125,2.734375,-1.03125,425
365,1696252538249,-0.638916,-0.06939697,0.8200073,1.0625,-3.078125,-0.78125,426
366,1696252538289,-0.6828613,-0.06085205,0.8048706,0.078125,-3.109375,-0.328125,427
367,1696252538329,-0.7331543,-0.054260254,0.7658081,-0.078125,-3.09375,0.875,428
368,1696252538369,-0.7272949,-0.058654785,0.8143921,-0.140625,-0.265625,0.890625,429
369,1696252538409,-0.69677734,-0.062561035,0.8473511,1.828125,3.546875,1.03125,430
370,1696252538449,-0.67700195,-0.07501221,0.79559326,1.125,0.71875,0.28125,431
371,1696252538489,-0.6467285,-0.059387207,0.8143921,-0.390625,0.6875,-0.34375,432
372,1696252538529,-0.6645508,-0.054260254,0.79681396,-0.390625,-3.0625,-0.25,433
373,1696252538569,-0.69018555,-0.06085205,0.81536865,0.0,-1.6875,0.09375,434
374,1696252538609,-0.6940918,-0.055236816,0.8451538,1.390625,0.5,-0.140625,435
375,1696252538649,-0.67749023,-0.074279785,0.8031616,-0.5,-1.28125,0.234375,436
376,1696252538689,-0.6647949,-0.055236816,0.8004761,0.578125,-3.453125,-1.015625,437
377,1696252538729,-0.70336914,-0.055725098,0.81243896,-0.4375,-0.09375,-0.203125,438
378,1696252538769,-0.7414551,-0.057434082,0.8070679,-0.6875,-0.59375,0.546875,439
379,1696252538809,-0.7133789,-0.06304932,0.80096436,-0.421875,1.0,0.703125,440
380,1696252538849,-0.64282227,-0.062561035,0.82025146,1.015625,1.53125,-0.109375,441
381,1696252538889,-0.65185547,-0.055725098,0.83270264,-0.703125,-0.390625,-0.921875,442
382,1696252538929,-0.7080078,-0.054016113,0.8139038,-0.703125,-2.09375,0.796875,443
383,1696252538969,-0.7019043,-0.053771973,0.78704834,-1.359375,-0.359375,0.75,444
384,1696252539009,-0.66503906,-0.054504395,0.8265991,2.78125,1.109375,-0.359375,445
385,1696252539049,-0.68359375,-0.08111572,0.8148804,-0.265625,-2.4375,0.03125,446
386,1696252539089,-0.70947266,-0.06842041,0.79852295,0.640625,-1.859375,1.25,447
387,1696252539129,-0.6821289,-0.059143066,0.80877686,0.65625,0.765625,0.03125,448
388,1696252539169,-0.671875,-0.04449463,0.8048706,2.5625,-2.28125,-0.390625,449
389,1696252539209,-0.6855469,-0.08282471,0.8175659,-0.484375,-1.796875,0.359375,450
390,1696252539249,-0.71362305,-0.057434082,0.81170654,0.234375,-0.59375,0.5,451
391,1696252539289,-0.7023926,-0.05987549,0.78704834,-0.5625,-0.859375,0.734375,452
392,1696252539329,-0.6723633,-0.06427002,0.8024292,0.875,0.140625,0.109375,453
393,1696252539369,-0.6828613,-0.06744385,0.81903076,0.765625,-1.453125,-0.09375,454
394,1696252539409,-0.7133789,-0.06524658,0.7880249,0.578125,-2.265625,0.828125,455
395,1696252539449,-0.70336914,-0.06427002,0.7992554,-1.5625,1.875,1.8125,456
396,1696252539489,-0.66967773,-0.06573486,0.8251343,-0.296875,1.53125,0.359375,457
397,1696252539529,-0.68115234,-0.081848145,0.8114624,1.234375,-0.5625,-1.078125,458
398,1696252539569,-0.6713867,-0.069885254,0.7958374,-2.328125,-3.046875,-1.484375,459
399,1696252539609,-0.6958008,-0.030822754,0.8031616,-0.578125,0.6875,0.765625,460
400,1696252539649,-0.7036133,-0.058166504,0.81781006,0.15625,-1.1875,0.046875,461
401,1696252539689,-0.69091797,-0.081604004,0.8217163,-1.53125,2.578125,-1.0,462
402,1696252539729,-0.6694336,-0.074035645,0.82684326,-5.046875,1.078125,0.203125,463
403,1696252539769,-0.7375488,-0.03643799,0.8878784,-2.875,8.421875,0.03125,464
404,1696252539809,-0.751709,-0.05670166,0.87054443,3.015625,16.0,2.9375,465
405,1696252539849,-0.65283203,-0.06011963,0.8319702,4.171875,16.296875,5.75,466
406,1696252539889,-0.6152344,-0.039611816,0.83807373,9.609375,18.609375,8.1875,467
407,1696252539929,-0.5769043,-0.09674072,0.8151245,7.046875,11.390625,6.078125,468
408,1696252539969,-0.60595703,-0.109436035,0.86468506,1.921875,5.71875,3.328125,469
409,1696252540009,-0.6015625,-0.116760254,0.901062,3.421875,4.953125,1.5625,470
410,1696252540049,-0.5617676,-0.12310791,0.81585693,-0.515625,-1.671875,-0.25,471
411,1696252540089,-0.5551758,-0.073791504,0.8361206,-1.21875,-8.875,-2.546875,472
412,1696252540129,-0.5974121,-0.05230713,0.7680054,-2.59375,-19.5625,-3.734375,473
413,1696252540169,-0.69311523,-0.11016846,0.8251343,-2.5,-30.96875,-3.265625,474
414,1696252540209,-0.5708008,-0.04034424,0.9039917,-4.203125,-4.65625,-1.78125,475
415,1696252540249,-0.51831055,-0.10870361,0.87713623,-4.5625,-11.296875,-1.90625,476
416,1696252540289,-0.8310547,-0.08428955,0.8344116,-1.890625,-7.625,-3.125,477
417,1696252540329,-0.78125,-0.074523926,0.82928467,-0.328125,-5.609375,-1.96875,478
418,1696252540369,-0.7331543,-0.077941895,0.76239014,-3.71875,1.671875,1.3125,479
419,1696252540409,-0.64990234,-0.07989502,0.8036499,-3.390625,4.296875,-1.546875,480
420,1696252540449,-0.6213379,-0.023010254,0.8600464,-1.90625,0.625,-6.28125,481
421,1696252540489,-0.6413574,-0.04522705,0.87298584,-3.875,-2.390625,-2.65625,482
422,1696252540529,-0.7055664,-0.07476807,0.8788452,-3.46875,10.515625,2.96875,483
423,1696252540569,-0.6870117,-0.085754395,0.8859253,-4.171875,16.171875,2.3125,484
424,1696252540609,-0.734375,-0.055480957,0.80926514,0.34375,9.046875,3.828125,485
425,1696252540649,-0.66430664,-0.035949707,0.76068115,7.90625,2.0625,5.953125,486
426,1696252540689,-0.6123047,-0.032287598,0.8143921,7.109375,2.609375,3.328125,487
427,1696252540729,-0.59594727,-0.0803833,0.7982788,3.1875,-1.625,-1.21875,488
428,1696252540769,-0.5822754,-0.04156494,0.7572632,2.859375,-20.3125,-6.140625,489
429,1696252540809,-0.69506836,-0.06036377,0.8065796,1.453125,-29.21875,-2.921875,490
430,1696252540849,-0.65722656,-0.0635376,0.85491943,-3.453125,-3.015625,3.171875,491
431,1696252540889,-0.69970703,-0.07574463,0.8859253,3.09375,0.15625,1.765625,492
432,1696252540929,-0.7077637,-0.109191895,0.8278198,-4.53125,-1.59375,-4.75,493
433,1696252540969,-0.69970703,-0.066711426,0.80999756,-2.484375,-5.328125,-6.65625,494
434,1696252541009,-0.7114258,-0.031799316,0.7770386,-3.90625,0.359375,-0.578125,495
435,1696252541049,-0.72265625,0.0060424805,0.8019409,-1.53125,-5.3125,-1.828125,496
436,1696252541089,-0.68408203,-0.05621338,0.8226929,-0.71875,-1.71875,-5.453125,497
437,1696252541129,-0.71899414,-0.059631348,0.8060913,-2.484375,-1.890625,-0.09375,498
438,1696252541169,-0.73706055,-0.031799316,0.7687378,1.03125,-0.8125,2.6875,499
439,1696252541209,-0.6984863,-0.05670166,0.7494507,-1.4375,-2.359375,0.703125,500
440,1696252541249,-0.67456055,-0.046691895,0.83709717,0.96875,0.53125,-2.078125,501
441,1696252541289,-0.73950195,-0.023986816,0.7880249,0.0,0.359375,-0.015625,502
442,1696252541329,-0.7470703,-0.027648926,0.76898193,1.328125,-2.078125,1.265625,503
443,1696252541369,-0.67626953,-0.03326416,0.7977905,1.015625,0.484375,-1.734375,504
444,1696252541409,-0.70288086,-0.066711426,0.7992554,-1.8125,-0.25,-0.1875,505
445,1696252541449,-0.7216797,-0.028381348,0.7904663,1.15625,0.859375,0.09375,506
446,1696252541489,-0.7272949,-0.038391113,0.7597046,-2.65625,-1.890625,0.734375,507
447,1696252541529,-0.6567383,0.006286621,0.8156128,-0.015625,0.546875,-1.375,508
448,1696252541569,-0.7265625,-0.061340332,0.80633545,1.390625,-1.3125,0.515625,509
449,1696252541609,-0.75756836,-0.06939697,0.78338623,-0.859375,-0.46875,1.171875,510
450,1696252541649,-0.72021484,-0.04107666,0.7692261,-0.734375,-1.078125,0.75,511
451,1696252541689,-0.689209,-0.013977051,0.79608154,0.703125,0.625,-0.671875,512
452,1696252541729,-0.72875977,-0.03692627,0.78656006,-1.09375,-1.109375,0.796875,513
453,1696252541769,-0.76049805,-0.058898926,0.79119873,-0.640625,0.21875,1.53125,514
454,1696252541809,-0.7297363,-0.02911377,0.80218506,0.109375,3.171875,1.09375,515
455,1696252541849,-0.701416,-0.02154541,0.8395386,3.875,5.375,1.1875,516
456,1696252541889,-0.66430664,-0.06842041,0.9406128,5.53125,19.6875,2.84375,517
457,1696252541929,-0.6767578,-0.08428955,0.8463745,6.109375,21.703125,6.9375,518
458,1696252541969,-0.6882324,-0.093566895,0.777771,2.984375,13.640625,8.75,519
459,1696252542009,-0.6437988,-0.08770752,0.7938843,3.21875,12.203125,5.09375,520
460,1696252542049,-0.60253906,-0.0725708,0.79437256,1.359375,2.40625,0.34375,521
461,1696252542089,-0.5830078,-0.053527832,0.79486084,-0.15625,-2.96875,-2.859375,522
462,1696252542129,-0.59277344,-0.042297363,0.72283936,-6.015625,-12.140625,-1.875,523
463,1696252542169,-0.7553711,-0.06744385,0.71014404,-2.734375,-42.109375,1.84375,524
464,1696252542209,-0.53271484,-0.038391113,1.0263062,10.34375,2.015625,-4.25,525
465,1696252542249,-0.6008301,-0.116760254,0.90789795,-8.5,-8.640625,-5.0625,526
466,1696252542289,-0.8063965,-0.022521973,0.8043823,-8.0625,-8.921875,2.59375,527
467,1696252542329,-0.7458496,-0.047668457,0.6039429,6.015625,-5.875,0.515625,528
468,1696252542369,-0.59716797,-0.074523926,0.840271,-4.3125,2.625,-4.109375,529
469,1696252542409,-0.6904297,-0.066711426,0.899353,-3.5625,0.375,-1.96875,530
470,1696252542449,-0.7885742,-0.028381348,0.7340698,1.765625,-7.984375,2.921875,531
471,1696252542489,-0.7409668,-0.074279785,0.7123413,-3.4375,-5.234375,-0.359375,532
472,1696252542529,-0.63720703,-0.0076293945,0.8617554,-0.234375,10.953125,-2.515625,533
473,1696252542569,-0.68310547,-0.028381348,0.8397827,-0.84375,-4.296875,1.140625,534
474,1696252542609,-0.7805176,-0.08428955,0.68426514,-1.828125,-7.09375,2.453125,535
475,1696252542649,-0.6484375,-0.06329346,0.8226929,-0.640625,7.0,-3.75,536
476,1696252542689,-0.6489258,0.016296387,0.8612671,1.40625,1.703125,-1.09375,537
477,1696252542729,-0.7531738,-0.0335083,0.78826904,-1.78125,-4.875,2.671875,538
478,1696252542769,-0.73583984,-0.070373535,0.7218628,-1.578125,-3.96875,0.125,539
479,1696252542809,-0.6567383,-0.014953613,0.83026123,2.796875,9.765625,-2.296875,540
480,1696252542849,-0.7038574,-0.0020141602,0.8739624,-1.734375,-4.5,-0.671875,541
481,1696252542889,-0.75512695,-0.066711426,0.7506714,-1.46875,-2.09375,4.390625,542
482,1696252542929,-0.6923828,-0.045959473,0.75823975,2.28125,0.890625,-0.6875,543
483,1696252542969,-0.6347656,-0.014953613,0.8600464,1.40625,5.59375,-3.5625,544
484,1696252543009,-0.7216797,-0.028869629,0.85614014,-2.65625,-4.84375,0.125,545
485,1696252543049,-0.7290039,-0.05255127,0.70648193,-0.921875,-3.84375,4.125,546
486,1696252543089,-0.67089844,-0.016174316,0.7860718,3.28125,3.078125,-2.4375,547
487,1696252543129,-0.63720703,-0.04107666,0.88079834,-4.5,0.4375,-3.515625,548
488,1696252543169,-0.7595215,-0.018859863,0.8463745,0.0625,-3.703125,2.78125,549
489,1696252543209,-0.7597656,-0.04034424,0.6815796,0.609375,-1.59375,5.078125,550
490,1696252543249,-0.6479492,-0.04083252,0.79241943,0.5,4.078125,-2.84375,551
491,1696252543289,-0.63793945,-0.02911377,0.8695679,0.71875,2.28125,-2.9375,552
492,1696252543329,-0.767334,-0.03277588,0.7880249,-1.078125,-5.71875,2.484375,553
493,1696252543369,-0.7282715,-0.031066895,0.7609253,-0.359375,0.921875,1.5,554
494,1696252543409,-0.6726074,-0.0095825195,0.8048706,4.78125,2.78125,-1.65625,555
495,1696252543449,-0.67285156,-0.057922363,0.83221436,-2.171875,-2.671875,-0.828125,556
496,1696252543489,-0.7355957,-0.044006348,0.8065796,0.984375,-0.6875,3.015625,557
497,1696252543529,-0.7348633,-0.028137207,0.7843628,0.296875,4.390625,3.5,558
498,1696252543569,-0.67456055,-0.005432129,0.84124756,2.046875,3.390625,2.75,559
499,1696252543609,-0.63671875,-0.07110596,0.83099365,1.578125,0.296875,0.921875,560
500,1696252543649,-0.6882324,-0.07550049,0.8500366,3.09375,1.65625,-1.453125,561
501,1696252543689,-0.7114258,-0.051818848,0.7506714,-3.796875,0.796875,-0.546875,562
502,1696252543729,-0.6833496,0.007751465,0.7941284,-2.671875,-0.640625,-3.015625,563
503,1696252543769,-0.7182617,-0.04058838,0.8366089,3.96875,8.59375,-1.0625,564
504,1696252543809,-0.6730957,-0.08428955,0.89764404,12.78125,12.515625,4.125,565
505,1696252543849,-0.72314453,-0.08648682,0.8305054,8.8125,15.890625,11.34375,566
506,1696252543889,-0.69018555,-0.08306885,0.83221436,13.34375,15.828125,10.453125,567
507,1696252543929,-0.5966797,-0.11090088,0.855896,9.0,9.96875,1.234375,568
508,1696252543969,-0.5065918,-0.13165283,0.8217163,3.671875,1.21875,-3.265625,569
509,1696252544009,-0.51953125,-0.09503174,0.821228,-4.4375,-8.25,-2.671875,570
510,1696252544049,-0.6154785,-0.06939697,0.7601929,-8.0,-22.078125,0.5625,571
511,1696252544089,-0.82006836,-0.17388916,0.7147827,-12.59375,-42.0625,0.171875,572
512,1696252544129,-0.60961914,0.058532715,0.8563843,-6.765625,15.671875,-12.328125,573
513,1696252544169,-0.59716797,-0.13360596,0.92523193,-9.734375,-11.921875,-2.59375,574
514,1696252544209,-0.8210449,-0.06719971,0.8563843,1.0,-7.09375,6.859375,575
515,1696252544249,-0.7805176,-0.1687622,0.6635132,-1.53125,-7.9375,-1.53125,576
516,1696252544289,-0.5983887,-0.061340332,0.8583374,-5.078125,7.765625,-7.921875,577
517,1696252544329,-0.65527344,-0.0012817383,0.8727417,-0.078125,-1.515625,-1.421875,578
518,1696252544369,-0.7832031,-0.011047363,0.7172241,0.15625,-8.34375,4.265625,579
519,1696252544409,-0.7314453,-0.04449463,0.8192749,-4.015625,6.671875,-1.859375,580
520,1696252544449,-0.61572266,-0.022033691,0.84783936,5.671875,5.28125,-0.921875,581
521,1696252544489,-0.7077637,-0.10455322,0.81658936,-1.828125,-6.40625,0.984375,582
522,1696252544529,-0.71313477,-0.082092285,0.7868042,-1.59375,-2.890625,0.078125,583
523,1696252544569,-0.6599121,0.004333496,0.8378296,4.375,6.1875,-1.078125,584
524,1696252544609,-0.6706543,-0.042541504,0.85076904,1.25,-2.140625,-0.140625,585
525,1696252544649,-0.7043457,-0.09429932,0.9696655,5.21875,15.328125,3.984375,586
526,1696252544689,-0.7138672,-0.07354736,0.8612671,5.796875,24.140625,7.71875,587
527,1696252544729,-0.7080078,-0.05621338,0.77874756,4.515625,15.625,5.53125,588
528,1696252544769,-0.61499023,-0.061828613,0.74823,3.140625,5.265625,3.09375,589
529,1696252544809,-0.5720215,-0.06890869,0.6630249,2.8125,-6.984375,-0.125,590
530,1696252544849,-0.6516113,-0.11895752,0.8095093,6.53125,-24.65625,-1.859375,591
531,1696252544889,-0.61157227,-0.04034424,0.97406006,-6.484375,-15.203125,-8.25,592
532,1696252544929,-0.578125,-0.07696533,0.932312,-16.0,-9.03125,-4.515625,593
533,1696252544969,-0.736084,-0.038879395,0.8578491,-2.171875,-3.1875,2.6875,594
534,1696252545009,-0.8208008,-0.053771973,0.8060913,5.328125,-1.171875,6.171875,595
535,1696252545049,-0.68481445,-0.1560669,0.63568115,-6.046875,-9.4375,-0.96875,596
536,1696252545089,-0.5751953,-0.05670166,0.9022827,-1.90625,7.53125,-6.4375,597
537,1696252545129,-0.65185547,-0.009338379,0.8566284,1.40625,-4.40625,-2.34375,598
538,1696252545169,-0.845459,-0.05230713,0.7616577,-3.203125,-5.125,4.625,599
539,1696252545209,-0.72924805,-0.086242676,0.77801514,0.328125,3.015625,1.609375,600
540,1696252545249,-0.6242676,-0.05621338,0.80267334,4.3125,3.3125,-2.5,601
541,1696252545289,-0.6191406,-0.06842041,0.8798218,-1.640625,3.0625,-2.953125,602
542,1696252545329,-0.6779785,-0.08502197,0.92840576,-0.390625,11.34375,3.25,603
543,1696252545369,-0.70043945,-0.047668457,0.87615967,-4.171875,21.6875,5.828125,604
544,1696252545409,-0.7109375,-0.05303955,0.81170654,3.53125,11.890625,4.890625,605
545,1696252545449,-0.64404297,-0.093322754,0.81365967,4.296875,3.875,1.828125,606
546,1696252545489,-0.5852051,-0.08746338,0.8241577,3.09375,6.359375,3.03125,607
547,1696252545529,-0.6088867,-0.05987549,0.82928467,0.625,0.015625,3.71875,608
548,1696252545569,-0.63500977,-0.059631348,0.8348999,-1.25,-1.671875,1.15625,609
549,1696252545609,-0.6171875,-0.06085205,0.8727417,4.671875,4.828125,-0.875,610
550,1696252545649,-0.5900879,-0.10479736,0.86224365,5.25,3.53125,1.109375,611
551,1696252545689,-0.59350586,-0.101135254,0.88690186,2.84375,0.828125,2.671875,612
552,1696252545729,-0.6081543,-0.097229004,0.86761475,4.0,-3.296875,3.375,613
553,1696252545769,-0.61328125,-0.10455322,0.8319702,1.4375,-4.296875,1.34375,614
554,1696252545809,-0.6203613,-0.09063721,0.836853,3.046875,-7.59375,0.03125,615
555,1696252545849,-0.65112305,-0.12554932,0.822937,-2.0625,-13.46875,-1.171875,616
556,1696252545889,-0.65966797,-0.10821533,0.82318115,-10.390625,-18.375,-2.8125,617
557,1696252545929,-0.6555176,-0.019104004,0.86761475,-4.078125,-13.21875,-2.875,618
558,1696252545969,-0.62768555,-0.09576416,0.8102417,-3.0,-10.390625,-0.25,619
559,1696252546009,-0.6699219,-0.12042236,0.8539429,-1.21875,-11.03125,-0.65625,620
560,1696252546049,-0.72631836,-0.077941895,0.8173218,1.734375,-8.6875,-2.265625,621
561,1696252546089,-0.7180176,-0.06695557,0.78900146,-1.59375,-1.171875,-3.6875,622
562,1696252546129,-0.68188477,-0.069885254,0.8126831,-2.125,3.984375,-1.15625,623
563,1696252546169,-0.7116699,-0.082336426,0.8329468,-2.984375,2.65625,1.015625,624
564,1696252546209,-0.73535156,-0.070617676,0.8043823,1.703125,4.03125,-0.15625,625
565,1696252546249,-0.7084961,-0.06011963,0.7921753,-0.03125,-1.328125,-1.234375,626
566,1696252546289,-0.6616211,-0.05596924,0.75994873,1.296875,-2.46875,0.75,627
567,1696252546329,-0.66796875,-0.065979004,0.809021,0.9375,-2.4375,0.984375,628
568,1696252546369,-0.61694336,-0.07232666,0.8305054,-4.25,0.578125,-2.296875,629
569,1696252546409,-0.73583984,-0.070373535,0.8185425,-2.96875,-6.5625,-1.953125,630
570,1696252546449,-0.76220703,-0.027648926,0.8131714,0.078125,0.09375,0.53125,631
571,1696252546489,-0.7307129,-0.05279541,0.8710327,1.546875,9.625,1.203125,632
572,1696252546529,-0.6525879,-0.112854004,0.9191284,-0.421875,21.890625,0.28125,633
573,1696252546569,-0.68237305,-0.04937744,0.8529663,3.21875,21.296875,1.15625,634
574,1696252546609,-0.7324219,-0.06500244,0.7736206,2.59375,7.453125,5.265625,635
575,1696252546649,-0.63134766,-0.053771973,0.7736206,7.15625,7.484375,1.875,636
576,1696252546689,-0.56811523,-0.09088135,0.7872925,6.765625,-2.03125,-0.78125,637
577,1696252546729,-0.5883789,-0.09136963,0.7855835,2.859375,-12.578125,-1.078125,638
578,1696252546769,-0.61376953,-0.06890869,0.85443115,1.84375,-15.640625,0.1875,639
579,1696252546809,-0.6652832,-0.04058838,0.85687256,-1.109375,-17.609375,3.0625,640
580,1696252546849,-0.67871094,-0.10235596,0.8012085,0.609375,-15.9375,0.6875,641
581,1696252546889,-0.7216797,-0.15362549,0.934021,-1.625,2.078125,-7.46875,642
582,1696252546929,-0.60961914,-0.077697754,0.8192749,-10.21875,-1.390625,-6.078125,643
583,1696252546969,-0.7937012,0.0072631836,0.8109741,0.0,-1.875,2.125,644
584,1696252547009,-0.79418945,-0.06573486,0.7675171,1.765625,4.84375,4.890625,645
585,1696252547049,-0.63671875,-0.14678955,0.7711792,-3.625,-1.875,-1.78125,646
586,1696252547089,-0.6118164,-0.08502197,0.8690796,0.734375,1.4375,-4.21875,647
587,1696252547129,-0.71533203,-0.050109863,0.82025146,-1.1875,-2.171875,-0.859375,648
588,1696252547169,-0.70166016,-0.034240723,0.71698,-5.3125,0.234375,-0.296875,649
589,1696252547209,-0.65966797,-0.01763916,0.88397217,6.71875,-1.25,-1.21875,650
590,1696252547249,-0.66381836,-0.097229004,0.84490967,-3.9375,0.1875,0.71875,651
591,1696252547289,-0.7697754,-0.08746338,0.80755615,-0.125,-1.765625,3.625,652
592,1696252547329,-0.74438477,-0.10284424,0.7453003,-0.109375,-0.546875,1.265625,653
593,1696252547369,-0.62768555,-0.057678223,0.8121948,-0.421875,5.40625,-2.90625,654
594,1696252547409,-0.67993164,-0.074035645,0.8336792,-1.421875,-2.78125,-0.078125,655
595,1696252547449,-0.7248535,-0.051574707,0.7992554,-0.171875,-1.59375,0.6875,656
596,1696252547489,-0.6870117,-0.03692627,0.82196045,-0.671875,3.640625,-1.109375,657
597,1696252547529,-0.64868164,-0.031555176,0.821228,-0.953125,-0.78125,-0.78125,658
598,1696252547569,-0.6633301,-0.053527832,0.7970581,-0.265625,-4.625,1.484375,659
599,1696252547609,-0.69262695,-0.08135986,0.84417725,0.75,-0.625,-0.015625,660
600,1696252547649,-0.7141113,-0.07501221,0.7982788,-3.484375,-1.78125,-1.203125,661
601,1696252547689,-0.7246094,-0.04815674,0.7953491,-0.6875,-1.8125,-1.0,662
602,1696252547729,-0.73999023,-0.06817627,0.8070679,-0.4375,0.453125,0.421875,663
603,1696252547769,-0.732666,-0.054016113,0.7848511,-3.5,1.234375,1.0625,664
604,1696252547809,-0.6530762,-0.034240723,0.82977295,-0.5,2.734375,0.265625,665
605,1696252547849,-0.6347656,-0.023254395,0.83514404,0.421875,0.265625,-0.125,666
606,1696252547889,-0.65771484,-0.04937744,0.82562256,0.140625,-1.703125,-0.15625,667
607,1696252547929,-0.66845703,-0.074279785,0.84124756,0.25,0.609375,-0.09375,668
608,1696252547969,-0.67456055,-0.074279785,0.82855225,-1.453125,1.140625,-0.125,669
609,1696252548009,-0.6855469,-0.030578613,0.7802124,-1.109375,-2.203125,-0.125,670
610,1696252548049,-0.71435547,-0.026672363,0.8024292,1.421875,-2.40625,-0.1875,671
611,1696252548089,-0.72753906,-0.042541504,0.8041382,0.5,-1.59375,-0.515625,672
612,1696252548129,-0.72143555,-0.06451416,0.82147217,-1.25,0.671875,1.125,673
613,1696252548169,-0.6870117,-0.04888916,0.8126831,0.375,1.296875,0.15625,674
614,1696252548209,-0.6555176,-0.050598145,0.7880249,0.703125,0.03125,-0.515625,675
615,1696252548249,-0.6755371,-0.049621582,0.8290405,-0.53125,-1.375,-0.34375,676
616,1696252548289,-0.67993164,-0.042297363,0.82855225,-0.96875,1.9375,-0.140625,677
617,1696252548329,-0.6777344,-0.034973145,0.81829834,-1.921875,0.640625,0.28125,678
618,1696252548369,-0.69140625,-0.04864502,0.81292725,-3.640625,0.3125,0.03125,679
619,1696252548409,-0.69970703,-0.05230713,0.87323,-6.03125,5.21875,-0.75,680
620,1696252548449,-0.6989746,-0.00982666,0.83465576,-0.125,7.453125,1.109375,681
621,1696252548489,-0.69384766,-0.030334473,0.7687378,7.0625,-0.75,2.984375,682
622,1696252548529,-0.67700195,-0.034484863,0.8505249,9.71875,7.484375,2.375,683
623,1696252548569,-0.64404297,-0.06402588,0.89471436,16.46875,14.265625,1.953125,684
624,1696252548609,-0.6364746,-0.124572754,0.85858154,10.625,9.28125,4.09375,685
625,1696252548649,-0.6323242,-0.12335205,0.7719116,0.34375,0.875,2.8125,686
626,1696252548689,-0.6455078,-0.047912598,0.8043823,0.828125,-4.265625,0.78125,687
627,1696252548729,-0.6171875,-0.055480957,0.81463623,3.015625,-3.625,-0.046875,688
628,1696252548769,-0.6208496,-0.07305908,0.7662964,5.0625,-10.421875,0.671875,689
629,1696252548809,-0.6833496,-0.13897705,0.83270264,-0.046875,-21.375,3.65625,690
630,1696252548849,-0.70166016,-0.07745361,0.8461304,-0.0625,-10.734375,4.078125,691
631,1696252548889,-0.6015625,-0.17340088,0.7694702,-3.03125,-7.875,-1.515625,692
632,1696252548929,-0.6401367,-0.10064697,0.84539795,-5.734375,3.84375,-7.65625,693
633,1696252548969,-0.7421875,-0.06719971,0.8019409,-5.71875,-8.625,-1.6875,694
634,1696252549009,-0.7871094,-0.0256958,0.7821655,0.046875,1.5625,3.34375,695
635,1696252549049,-0.7097168,-0.10455322,0.81903076,0.4375,3.96875,2.625,696
636,1696252549089,-0.6826172,-0.13043213,0.7875366,3.046875,-1.109375,0.109375,697
637,1696252549129,-0.66625977,-0.09820557,0.81829834,-1.453125,0.046875,0.015625,698
638,1696252549169,-0.6801758,-0.070617676,0.8041382,-2.6875,3.25,-0.53125,699
639,1696252549209,-0.6689453,-0.07867432,0.77557373,0.609375,0.59375,-0.25,700
640,1696252549249,-0.65600586,-0.09893799,0.79241943,-3.59375,-3.265625,-2.640625,701
641,1696252549289,-0.6652832,-0.06915283,0.85614014,-4.0,0.671875,-1.71875,702
642,1696252549329,-0.7233887,-0.04058838,0.8119507,-0.140625,-3.28125,0.859375,703
643,1696252549369,-0.703125,-0.066711426,0.7860718,-1.90625,-4.078125,-0.34375,704
644,1696252549409,-0.68237305,-0.06500244,0.80926514,-0.421875,-5.578125,-0.90625,705
645,1696252549449,-0.7062988,-0.108947754,0.8016968,-2.875,-1.3125,-0.84375,706
646,1696252549489,-0.69506836,-0.085998535,0.81073,-0.578125,1.109375,-2.09375,707
647,1696252549529,-0.7546387,-0.073791504,0.76678467,-1.75,-1.765625,2.046875,708
648,1696252549569,-0.6801758,-0.043762207,0.7941284,-0.84375,2.3125,-0.078125,709
649,1696252549609,-0.6867676,-0.047668457,0.82806396,3.125,0.28125,-0.59375,710
650,1696252549649,-0.6945801,-0.07305908,0.8031616,0.3125,-2.8125,2.265625,711
651,1696252549689,-0.6953125,-0.06768799,0.8036499,-2.53125,-0.921875,1.046875,712
652,1696252549729,-0.68774414,-0.07940674,0.7987671,-1.671875,1.71875,-1.609375,713
653,1696252549769,-0.67529297,-0.058654785,0.7963257,-2.109375,-0.421875,-1.40625,714
654,1696252549809,-0.7050781,-0.05670166,0.8041382,-1.546875,-2.328125,0.3125,715
655,1696252549849,-0.70751953,-0.035949707,0.8114624,-0.25,0.84375,-0.03125,716
656,1696252549889,-0.7055664,-0.06842041,0.76849365,-1.328125,-1.671875,0.0625,717
657,1696252549929,-0.67089844,-0.07476807,0.82025146,-1.0625,0.828125,-1.09375,718
658,1696252549969,-0.70092773,-0.054748535,0.7887573,-1.8125,-1.5625,-0.953125,719
659,1696252550009,-0.7102051,-0.036193848,0.8016968,-0.984375,-1.953125,-0.578125,720
660,1696252550049,-0.6862793,-0.050354004,0.8048706,-0.046875,-0.984375,-1.0625,721
661,1696252550089,-0.71777344,-0.058898926,0.8148804,-1.40625,-0.96875,-0.546875,722
662,1696252550129,-0.7265625,-0.047668457,0.8307495,-1.078125,3.953125,0.921875,723
663,1696252550169,-0.69091797,-0.059631348,0.840271,-1.859375,5.328125,1.40625,724
664,1696252550209,-0.6694336,-0.031555176,0.80096436,-2.421875,7.046875,-0.453125,725
665,1696252550249,-0.68603516,-0.024475098,0.7789917,-0.453125,1.03125,-1.4375,726
666,1696252550289,-0.7062988,-0.06451416,0.7868042,-1.125,0.15625,-1.71875,727
667,1696252550329,-0.68652344,-0.03326416,0.8295288,2.640625,1.359375,-0.3125,728
668,1696252550369,-0.6508789,-0.018371582,0.8331909,0.03125,0.5625,0.375,729
669,1696252550409,-0.66748047,-0.05255127,0.8192749,-1.21875,-0.59375,-0.21875,730
670,1696252550449,-0.68725586,-0.057922363,0.83099365,-0.46875,1.0,-0.125,731
671,1696252550489,-0.67285156,-0.03668213,0.8356323,-0.875,3.09375,0.4375,732
672,1696252550529,-0.6791992,-0.034240723,0.8617554,4.484375,4.359375,2.75,733
673,1696252550569,-0.6911621,-0.04425049,0.8617554,8.34375,4.484375,4.21875,734
674,1696252550609,-0.66625977,-0.074523926,0.81170654,5.578125,10.75,4.640625,735
675,1696252550649,-0.6333008,-0.08135986,0.75946045,1.3125,2.765625,2.75,736
676,1696252550689,-0.640625,-0.047668457,0.83099365,0.984375,-1.265625,-0.90625,737
677,1696252550729,-0.6430664,-0.05206299,0.8427124,-0.3125,-3.640625,-1.203125,738
678,1696252550769,-0.6442871,-0.077697754,0.84954834,-1.546875,-4.84375,-1.09375,739
679,1696252550809,-0.66967773,-0.0569458,0.9191284,-0.53125,-2.703125,-0.703125,740
680,1696252550849,-0.66625977,-0.09503174,0.87323,4.375,2.65625,1.703125,741
681,1696252550889,-0.64038086,-0.09210205,0.89837646,3.75,12.5625,1.0625,742
682,1696252550929,-0.65185547,-0.07891846,0.8781128,1.0,12.421875,2.546875,743
683,1696252550969,-0.6459961,-0.06842041,0.8209839,1.640625,5.828125,4.984375,744
684,1696252551009,-0.6123047,-0.0869751,0.8356323,3.296875,1.90625,3.4375,745
685,1696252551049,-0.5612793,-0.08892822,0.7926636,-0.171875,-0.34375,-2.109375,746
686,1696252551089,-0.5876465,-0.049621582,0.7406616,-1.234375,-7.84375,0.390625,747
687,1696252551129,-0.67211914,-0.07525635,0.7255249,2.59375,-25.09375,3.40625,748
688,1696252551169,-0.7307129,-0.10748291,0.8217163,-2.796875,-27.859375,-2.96875,749
689,1696252551209,-0.60668945,-0.020080566,0.92645264,1.828125,2.46875,-4.265625,750
690,1696252551249,-0.5686035,-0.17852783,0.8991089,-8.875,-6.359375,-4.0,751
691,1696252551289,-0.8676758,-0.0635376,0.80145264,-4.9375,-6.9375,1.359375,752
692,1696252551329,-0.79345703,-0.054504395,0.8446655,6.578125,3.015625,0.453125,753
693,1696252551369,-0.64282227,-0.105773926,0.7555542,-6.5625,2.984375,-1.6875,754
694,1696252551409,-0.6101074,-0.10601807,0.795105,-4.390625,2.421875,-0.96875,755
695,1696252551449,-0.64160156,-0.053527832,0.8353882,-1.859375,2.71875,-2.65625,756
696,1696252551489,-0.71484375,-0.002746582,0.9020386,-5.8125,6.234375,-1.984375,757
697,1696252551529,-0.720459,-0.0025024414,0.92059326,2.078125,20.46875,2.09375,758
698,1696252551569,-0.69018555,-0.105529785,0.81073,6.828125,15.796875,7.796875,759
699,1696252551609,-0.6118164,-0.11138916,0.8226929,6.765625,10.125,5.515625,760
700,1696252551649,-0.5842285,-0.070129395,0.8444214,6.609375,4.796875,-0.5625,761
701,1696252551689,-0.5847168,-0.07232666,0.79681396,1.734375,-3.84375,-1.546875,762
702,1696252551729,-0.5859375,-0.05255127,0.81658936,0.609375,-11.046875,-1.953125,763
703,1696252551769,-0.6730957,-0.06549072,0.7670288,-0.578125,-19.375,1.796875,764
704,1696252551809,-0.68066406,-0.059387207,0.8578491,3.484375,-17.5625,2.09375,765
705,1696252551849,-0.59375,-0.10479736,0.80218506,0.796875,-14.171875,2.21875,766
706,1696252551889,-0.5432129,-0.1375122,0.9130249,-6.4375,-4.15625,-9.171875,767
707,1696252551929,-0.7150879,-0.02960205,0.9098511,-8.109375,-5.140625,-6.921875,768
708,1696252551969,-0.91015625,-0.007385254,0.8414917,3.078125,-8.921875,3.625,769
709,1696252552009,-0.80249023,-0.09429932,0.6893921,-0.9375,4.125,5.84375,770
710,1696252552049,-0.70654297,-0.17364502,0.83929443,0.328125,-0.9375,-1.46875,771
711,1696252552089,-0.57958984,-0.042541504,0.7970581,-9.953125,10.328125,-9.078125,772
712,1696252552129,-0.6516113,0.03387451,0.90301514,0.953125,-2.265625,-2.453125,773
713,1696252552169,-0.73168945,0.0021362305,0.79486084,2.734375,0.84375,5.59375,774
714,1696252552209,-0.6948242,-0.120666504,0.7484741,-5.96875,-0.03125,3.828125,775
715,1696252552249,-0.6098633,-0.1104126,0.8534546,2.0625,7.03125,-3.765625,776
716,1696252552289,-0.64282227,-0.062316895,0.85198975,0.65625,-4.515625,-3.703125,777
717,1696252552329,-0.69091797,-0.040100098,0.79608154,-2.65625,-8.21875,-0.484375,778
718,1696252552369,-0.71362305,-6.1035156e-05,0.8317261,-2.734375,-0.65625,-0.984375,779
719,1696252552409,-0.7248535,-0.06036377,0.7914429,-0.1875,-2.65625,2.28125,780
720,1696252552449,-0.7404785,-0.08770752,0.7575073,-0.40625,-4.546875,2.296875,781
721,1696252552489,-0.72265625,-0.04449463,0.7562866,-1.015625,0.875,-0.1875,782
722,1696252552529,-0.66137695,-0.013000488,0.80584717,0.25,-0.453125,-2.078125,783
723,1696252552569,-0.6645508,-0.032043457,0.836853,-1.984375,0.921875,0.3125,784
724,1696252552609,-0.7402344,-0.05303955,0.8602905,3.671875,1.8125,2.21875,785
725,1696252552649,-0.74072266,-0.093811035,0.7736206,0.359375,0.296875,2.8125,786
726,1696252552689,-0.67285156,-0.06719971,0.80755615,-0.703125,3.953125,-1.46875,787
727,1696252552729,-0.64746094,-0.026428223,0.8588257,1.140625,5.09375,-1.515625,788
728,1696252552769,-0.68530273,-0.0713501,0.86590576,-2.875,12.125,2.5625,789
729,1696252552809,-0.68652344,-0.036193848,0.8685913,0.015625,23.265625,1.890625,790
730,1696252552849,-0.7072754,-0.04058838,0.8644409,4.375,13.96875,4.703125,791
731,1696252552889,-0.6464844,-0.0869751,0.82073975,5.96875,8.171875,5.578125,792
732,1696252552929,-0.5895996,-0.101623535,0.84832764,6.234375,5.859375,3.6875,793
733,1696252552969,-0.5817871,-0.1116333,0.8493042,1.5,1.625,1.125,794
734,1696252553009,-0.6015625,-0.08306885,0.80511475,-5.5,-4.09375,-2.25,795
735,1696252553049,-0.5944824,-0.028625488,0.8378296,-1.25,-11.203125,-4.890625,796
736,1696252553089,-0.6064453,-0.0017700195,0.8114624,-3.296875,-13.0,-3.71875,797
737,1696252553129,-0.6640625,-0.026672363,0.73773193,-0.15625,-19.71875,0.375,798
738,1696252553169,-0.6923828,-0.11895752,0.7965698,-3.296875,-19.359375,-0.140625,799
739,1696252553209,-0.46240234,-0.023010254,0.9335327,2.25,-3.484375,-8.546875,800
740,1696252553249,-0.7182617,-0.035705566,0.89227295,-4.03125,-3.1875,-5.203125,801
741,1696252553289,-0.89086914,-0.078186035,0.85809326,-1.546875,-9.15625,5.703125,802
742,1696252553329,-0.8310547,-0.08477783,0.75579834,4.96875,5.859375,5.21875,803
743,1696252553369,-0.6411133,-0.117248535,0.7404175,-1.5625,5.46875,0.0625,804
744,1696252553409,-0.59814453,-0.06500244,0.7489624,-0.703125,-2.78125,-4.875,805
745,1696252553449,-0.6101074,-0.018615723,0.87713623,1.53125,-2.09375,-3.265625,806
746,1696252553489,-0.76000977,0.02923584,0.8654175,-1.3125,-3.078125,2.96875,807
747,1696252553529,-0.78222656,-0.05255127,0.7982788,3.125,-0.359375,5.171875,808
748,1696252553569,-0.6936035,-0.1194458,0.8722534,4.109375,5.25,2.1875,809
749,1696252553609,-0.6777344,-0.117004395,0.87371826,1.96875,7.1875,2.375,810
750,1696252553649,-0.64331055,-0.10455322,0.8571167,4.015625,20.09375,3.40625,811
751,1696252553689,-0.58691406,-0.10211182,0.8317261,-2.84375,19.984375,2.15625,812
752,1696252553729,-0.6052246,-0.007385254,0.7904663,-9.15625,7.0625,-0.53125,813
753,1696252553769,-0.67333984,0.011413574,0.8329468,1.1875,0.84375,1.140625,814
754,1696252553809,-0.6401367,-0.10235596,0.8102417,6.125,-2.40625,0.578125,815
755,1696252553849,-0.59399414,-0.12017822,0.82489014,3.125,-7.5,-1.453125,816
756,1696252553889,-0.6555176,-0.047424316,0.8341675,4.015625,-12.546875,0.3125,817
757,1696252553929,-0.6833496,-0.08502197,0.8300171,1.25,-16.765625,3.8125,818
758,1696252553969,-0.5847168,-0.03375244,0.8571167,1.765625,-4.15625,3.171875,819
759,1696252554009,-0.60961914,-0.16021729,0.8024292,-0.34375,-11.375,2.84375,820
