,timestamp,accel_x,accel_y,accel_z,gyro_x,gyro_y,gyro_z
0,1696250540418,-0.39282227,-0.7608032,0.5795288,-1.3125,0.015625,0.109375
1,1696250540458,-0.4033203,-0.7661743,0.56585693,1.171875,-0.453125,0.40625
2,1696250540498,-0.4013672,-0.7564087,0.55511475,-1.734375,-0.75,-0.125
3,1696250540538,-0.40527344,-0.7659302,0.56414795,-1.203125,-0.515625,-0.21875
4,1696250540578,-0.40698242,-0.77911377,0.56463623,-1.546875,-1.09375,0.59375
5,1696250540618,-0.40893555,-0.7630005,0.5704956,-2.75,-0.828125,0.21875
6,1696250540658,-0.4050293,-0.7710571,0.576355,-2.21875,-0.78125,0.375
7,1696250540698,-0.40649414,-0.7649536,0.58148193,0.15625,-0.640625,0.25
8,1696250540738,-0.40185547,-0.7647095,0.5805054,1.734375,-0.0625,-0.109375
9,1696250540778,-0.4169922,-0.7649536,0.5734253,1.640625,-1.125,0.78125
10,1696250540818,-0.41308594,-0.7678833,0.57977295,1.734375,-1.765625,1.125
11,1696250540858,-0.3798828,-0.75787354,0.57244873,2.671875,-0.6875,-0.109375
12,1696250540898,-0.40576172,-0.76763916,0.5639038,4.75,-0.75,0.171875
13,1696250540938,-0.40942383,-0.7695923,0.5321655,0.3125,-1.578125,0.40625
14,1696250540978,-0.3972168,-0.7503052,0.55584717,-0.890625,-1.65625,0.328125
15,1696250541018,-0.40356445,-0.76226807,0.5673218,1.9375,-0.75,0.765625
16,1696250541058,-0.40722656,-0.7786255,0.55389404,5.875,-0.359375,1.453125
17,1696250541098,-0.39111328,-0.76348877,0.5302124,8.421875,-2.171875,1.21875
18,1696250541138,-0.39013672,-0.77056885,0.54486084,8.25,-1.234375,1.703125
19,1696250541178,-0.41064453,-0.80255127,0.52508545,7.640625,-2.984375,2.453125
20,1696250541218,-0.41357422,-0.7984009,0.51361084,5.078125,-4.234375,0.671875
21,1696250541258,-0.40307617,-0.79522705,0.50579834,2.046875,-2.9375,-0.546875
22,1696250541298,-0.38964844,-0.78009033,0.5109253,-2.09375,-1.1875,-0.75
23,1696250541338,-0.40234375,-0.7959595,0.50994873,-1.828125,0.640625,0.1875
24,1696250541378,-0.40551758,-0.7944946,0.5165405,0.28125,-0.390625,0.421875
25,1696250541418,-0.40405273,-0.7930298,0.5153198,-0.203125,-0.015625,-0.03125
26,1696250541458,-0.40966797,-0.78790283,0.51849365,-1.0625,0.0,0.0625
27,1696250541498,-0.40576172,-0.7937622,0.51678467,-0.8125,-0.046875,0.5625
28,1696250541538,-0.3947754,-0.7930298,0.50946045,-0.46875,0.109375,0.5
29,1696250541578,-0.4038086,-0.78448486,0.5133667,-0.6875,-0.0625,-0.234375
30,1696250541618,-0.4020996,-0.788147,0.5206909,-0.859375,-0.140625,0.15625
31,1696250541658,-0.39770508,-0.79278564,0.5223999,-0.953125,0.015625,0.265625
32,1696250541698,-0.40454102,-0.7908325,0.52093506,0.171875,0.046875,0.078125
33,1696250541738,-0.40454102,-0.79278564,0.5158081,-0.0625,-0.4375,0.40625
34,1696250541778,-0.40234375,-0.78009033,0.5162964,-1.40625,-0.375,-0.171875
35,1696250541818,-0.41015625,-0.7932739,0.5282593,-0.890625,-0.53125,0.6875
36,1696250541858,-0.3930664,-0.79644775,0.5314331,0.359375,-0.25,-0.28125
37,1696250541898,-0.39282227,-0.7756958,0.5258179,0.890625,-0.015625,-0.40625
38,1696250541938,-0.40600586,-0.7942505,0.5175171,1.234375,-0.359375,0.046875
39,1696250541978,-0.41088867,-0.7930298,0.5216675,0.328125,-0.4375,-0.03125
40,1696250542018,-0.40722656,-0.7937622,0.5204468,0.359375,-0.5,0.40625
41,1696250542058,-0.40551758,-0.7888794,0.51898193,-0.65625,-1.0625,-0.09375
42,1696250542098,-0.41210938,-0.7944946,0.5211792,-0.90625,-0.484375,-0.046875
43,1696250542138,-0.39282227,-0.7918091,0.5248413,-1.125,-1.203125,0.140625
44,1696250542178,-0.40161133,-0.78375244,0.52557373,-0.203125,-0.84375,-0.078125
45,1696250542218,-0.40771484,-0.78790283,0.52630615,0.921875,-0.546875,0.203125
46,1696250542258,-0.40112305,-0.7835083,0.51239014,-1.75,-0.265625,-0.515625
47,1696250542298,-0.4104004,-0.7852173,0.5297241,-1.34375,0.4375,-0.109375
48,1696250542338,-0.41333008,-0.80426025,0.5211792,-1.03125,-1.890625,0.8125
49,1696250542378,-0.39404297,-0.78619385,0.52264404,-0.671875,-1.6875,-1.015625
50,1696250542418,-0.41064453,-0.7930298,0.53460693,1.5,-1.171875,0.375
51,1696250542458,-0.39672852,-0.79107666,0.53338623,1.15625,0.25,0.21875
52,1696250542498,-0.39208984,-0.7774048,0.52459717,0.984375,0.765625,-0.40625
53,1696250542538,-0.41577148,-0.78375244,0.5055542,-0.265625,-0.4375,-0.09375
54,1696250542578,-0.42211914,-0.78692627,0.52948,-1.234375,-0.625,0.609375
55,1696250542618,-0.39575195,-0.784729,0.524353,-1.21875,-1.375,0.40625
56,1696250542658,-0.39233398,-0.78912354,0.5165405,-0.78125,-0.65625,-0.28125
57,1696250542698,-0.41601562,-0.79278564,0.52020264,-0.390625,-0.625,0.078125
58,1696250542738,-0.41357422,-0.7876587,0.52948,-0.546875,-1.1875,0.3125
59,1696250542778,-0.4013672,-0.7756958,0.53240967,-0.34375,-0.5625,0.03125
60,1696250542818,-0.40576172,-0.7827759,0.52142334,0.171875,-0.375,-0.1875
61,1696250542858,-0.4116211,-0.78375244,0.52752686,-1.34375,-0.328125,-0.140625
62,1696250542898,-0.41235352,-0.77789307,0.53582764,-0.171875,-0.296875,0.75
63,1696250542938,-0.39794922,-0.78253174,0.52874756,-0.234375,-0.21875,0.09375
64,1696250542978,-0.41137695,-0.7876587,0.539978,0.546875,-0.140625,0.390625
65,1696250543018,-0.40698242,-0.7888794,0.53240967,-0.28125,0.015625,0.375
66,1696250543058,-0.4140625,-0.7815552,0.52264404,-0.59375,-0.03125,-0.21875
67,1696250543098,-0.41503906,-0.7827759,0.524353,0.375,-0.78125,-0.03125
68,1696250543138,-0.40771484,-0.7896118,0.53338623,-0.421875,-1.15625,0.1875
69,1696250543178,-0.40625,-0.78326416,0.53118896,0.359375,-0.765625,-0.0625
70,1696250543218,-0.41503906,-0.7954712,0.5282593,1.265625,-0.515625,0.296875
71,1696250543258,-0.41845703,-0.7937622,0.5231323,1.015625,-0.484375,0.640625
72,1696250543298,-0.40478516,-0.7749634,0.526062,-0.1875,-0.5,0.109375
73,1696250543338,-0.41088867,-0.7769165,0.5223999,-1.453125,-0.21875,0.203125
74,1696250543378,-0.40722656,-0.7842407,0.54901123,-2.296875,-0.53125,0.296875
75,1696250543418,-0.40014648,-0.7827759,0.5499878,0.046875,-1.9375,-0.234375
76,1696250543458,-0.39575195,-0.7776489,0.52630615,3.109375,-2.140625,-0.359375
77,1696250543498,-0.39941406,-0.7966919,0.50213623,1.421875,-1.625,0.328125
78,1696250543538,-0.44384766,-0.7918091,0.5014038,0.84375,0.3125,0.4375
79,1696250543578,-0.41796875,-0.78985596,0.5162964,-0.296875,-0.734375,0.625
80,1696250543618,-0.39746094,-0.7744751,0.51068115,-1.84375,-0.234375,-0.046875
81,1696250543658,-0.41723633,-0.77593994,0.539978,-1.703125,-0.828125,-0.265625
82,1696250543698,-0.40551758,-0.7786255,0.5438843,-0.984375,-0.234375,0.15625
83,1696250543738,-0.39819336,-0.7803345,0.54071045,2.046875,-0.75,1.015625
84,1696250543778,-0.40161133,-0.78741455,0.5165405,2.296875,-0.859375,0.34375
85,1696250543818,-0.42114258,-0.7888794,0.5228882,0.765625,-0.84375,-0.171875
86,1696250543858,-0.4296875,-0.7901001,0.5182495,0.0625,-0.71875,0.421875
87,1696250543898,-0.41625977,-0.78619385,0.5153198,-1.703125,-0.640625,0.046875
88,1696250543938,-0.4086914,-0.7822876,0.5228882,-2.09375,-0.703125,-0.34375
89,1696250543978,-0.41259766,-0.7781372,0.5272827,-1.4375,-0.71875,0.203125
90,1696250544018,-0.4074707,-0.77911377,0.52996826,-0.4375,-0.078125,0.3125
91,1696250544058,-0.40283203,-0.7752075,0.5363159,-0.09375,-0.671875,0.265625
92,1696250544098,-0.41381836,-0.77960205,0.5350952,1.765625,-0.78125,0.296875
93,1696250544138,-0.41503906,-0.7842407,0.51678467,0.90625,-0.375,-0.015625
94,1696250544178,-0.42260742,-0.78326416,0.51116943,0.515625,-0.25,0.234375
95,1696250544218,-0.41601562,-0.7871704,0.51605225,-0.6875,-0.328125,-0.21875
96,1696250544258,-0.41577148,-0.7852173,0.5199585,-1.3125,-0.515625,-0.265625
97,1696250544298,-0.4194336,-0.78131104,0.5194702,-1.453125,-1.515625,-0.515625
98,1696250544338,-0.4177246,-0.78302,0.5302124,-2.140625,-1.0,-0.59375
99,1696250544378,-0.41088867,-0.7788696,0.5375366,-1.78125,0.15625,-0.625
100,1696250544418,-0.4206543,-0.77593994,0.5421753,0.390625,0.140625,0.09375
101,1696250544458,-0.4272461,-0.78619385,0.5241089,1.03125,-0.34375,0.5
102,1696250544498,-0.4206543,-0.770813,0.5297241,-0.75,-0.6875,0.09375
103,1696250544538,-0.42163086,-0.77349854,0.5180054,-1.265625,-0.515625,-0.046875
104,1696250544578,-0.4182129,-0.78375244,0.53167725,-0.828125,-0.75,0.15625
105,1696250544618,-0.42333984,-0.78082275,0.5385132,0.015625,-0.859375,0.453125
106,1696250544658,-0.41210938,-0.77349854,0.53656006,0.75,-0.671875,0.15625
107,1696250544698,-0.4140625,-0.7769165,0.53167725,0.640625,-0.46875,0.28125
108,1696250544738,-0.41625977,-0.7793579,0.5309448,0.125,-0.390625,0.484375
109,1696250544778,-0.41479492,-0.7776489,0.5241089,-0.484375,-0.390625,-0.078125
110,1696250544818,-0.42089844,-0.7756958,0.53900146,0.328125,0.171875,0.265625
111,1696250544858,-0.42382812,-0.7859497,0.5258179,-0.0625,-0.515625,0.453125
112,1696250544898,-0.4140625,-0.78009033,0.5314331,-0.8125,-0.28125,-0.5625
113,1696250544938,-0.40844727,-0.756897,0.53460693,-2.359375,-0.609375,-0.828125
114,1696250544978,-0.41381836,-0.7666626,0.5387573,-2.8125,-1.203125,-0.78125
115,1696250545018,-0.42626953,-0.7959595,0.54608154,1.578125,-1.140625,0.140625
116,1696250545058,-0.43017578,-0.7979126,0.5368042,2.140625,0.34375,0.59375
117,1696250545098,-0.4248047,-0.77716064,0.5036011,1.53125,-0.453125,0.40625
118,1696250545138,-0.43139648,-0.7727661,0.5162964,0.546875,-0.640625,1.078125
119,1696250545178,-0.41430664,-0.7637329,0.5397339,-2.15625,-0.5,0.78125
120,1696250545218,-0.40014648,-0.76690674,0.55145264,-2.640625,-0.609375,-0.125
121,1696250545258,-0.39208984,-0.76641846,0.5519409,-0.546875,-0.328125,-0.40625
122,1696250545298,-0.42529297,-0.7727661,0.54119873,-0.078125,-0.5,0.4375
123,1696250545338,-0.42358398,-0.77301025,0.5421753,1.0,-0.453125,0.265625
124,1696250545378,-0.41064453,-0.76519775,0.5331421,0.8125,-0.1875,-0.0625
125,1696250545418,-0.43432617,-0.7774048,0.5309448,-0.34375,-0.6875,-0.421875
126,1696250545458,-0.4267578,-0.7810669,0.52557373,-0.4375,-0.609375,-0.03125
127,1696250545498,-0.42504883,-0.78497314,0.5319214,-0.890625,-0.265625,0.46875
128,1696250545538,-0.41870117,-0.76812744,0.5363159,-0.578125,-0.234375,0.078125
129,1696250545578,-0.42089844,-0.7703247,0.53704834,0.09375,-0.359375,0.28125
130,1696250545618,-0.4128418,-0.77056885,0.54364014,-0.03125,-0.28125,0.65625
131,1696250545658,-0.41796875,-0.76812744,0.5429077,-0.1875,-0.53125,-0.109375
132,1696250545698,-0.41992188,-0.77178955,0.53045654,0.09375,-0.578125,-0.171875
133,1696250545738,-0.4194336,-0.7744751,0.5348511,0.0,-0.578125,0.28125
134,1696250545778,-0.42138672,-0.7774048,0.53533936,0.203125,-0.171875,0.109375
135,1696250545818,-0.42919922,-0.7710571,0.53533936,0.265625,-0.515625,0.109375
136,1696250545858,-0.42260742,-0.7761841,0.5338745,-0.265625,-0.515625,0.265625
137,1696250545898,-0.41674805,-0.76934814,0.5336304,-0.8125,-0.71875,0.34375
138,1696250545938,-0.41992188,-0.7683716,0.5368042,-0.359375,-0.96875,0.0
139,1696250545978,-0.41503906,-0.7703247,0.53704834,0.15625,-0.625,-0.234375
140,1696250546018,-0.42138672,-0.77716064,0.5355835,0.234375,-0.3125,0.328125
141,1696250546058,-0.42919922,-0.7739868,0.5492554,0.53125,-0.1875,0.515625
142,1696250546098,-0.42236328,-0.7666626,0.53118896,0.3125,-0.109375,0.03125
143,1696250546138,-0.41357422,-0.77008057,0.52679443,-0.890625,-0.46875,-0.21875
144,1696250546178,-0.4182129,-0.7678833,0.54022217,-2.015625,-0.078125,0.015625
145,1696250546218,-0.42504883,-0.78302,0.5504761,-0.484375,0.1875,0.25
146,1696250546258,-0.42333984,-0.77008057,0.53778076,0.625,-0.34375,0.390625
147,1696250546298,-0.42041016,-0.7649536,0.5360718,0.1875,-0.953125,-0.078125
148,1696250546338,-0.4177246,-0.7659302,0.54193115,-0.28125,-0.578125,0.140625
149,1696250546378,-0.4255371,-0.7827759,0.5385132,-0.03125,-0.734375,0.6875
150,1696250546418,-0.42358398,-0.7654419,0.5458374,0.515625,-0.203125,0.328125
151,1696250546458,-0.41845703,-0.77667236,0.5380249,0.09375,-0.5,0.28125
152,1696250546498,-0.42089844,-0.77227783,0.539978,-0.375,-0.65625,0.25
153,1696250546538,-0.41601562,-0.767395,0.5397339,-0.375,-0.71875,0.125
154,1696250546578,-0.41479492,-0.76690674,0.5414429,-0.390625,-0.5,0.3125
155,1696250546618,-0.41625977,-0.7678833,0.54364014,-0.53125,-0.328125,0.3125
156,1696250546658,-0.41674805,-0.7761841,0.54486084,-0.171875,-0.296875,0.21875
157,1696250546698,-0.42626953,-0.7686157,0.5438843,0.34375,-0.1875,0.359375
158,1696250546738,-0.42260742,-0.7737427,0.53582764,0.375,-0.6875,0.34375
159,1696250546778,-0.4194336,-0.76934814,0.53338623,-0.0625,-0.796875,0.140625
160,1696250546818,-0.421875,-0.7695923,0.539978,-0.28125,-0.484375,0.0
161,1696250546858,-0.41918945,-0.77349854,0.54022217,-0.34375,-0.375,0.390625
162,1696250546898,-0.41992188,-0.7715454,0.54974365,0.34375,-0.453125,0.265625
163,1696250546938,-0.41723633,-0.77227783,0.5368042,0.125,-0.34375,0.234375
164,1696250546978,-0.41552734,-0.770813,0.5363159,-0.46875,-0.171875,-0.171875
165,1696250547018,-0.42797852,-0.7703247,0.53948975,-0.625,0.015625,0.265625
166,1696250547058,-0.42407227,-0.77838135,0.5477905,0.0,0.015625,0.453125
167,1696250547098,-0.4206543,-0.77056885,0.53656006,0.296875,-1.015625,0.15625
168,1696250547138,-0.4206543,-0.76934814,0.54315186,0.15625,-0.8125,-0.09375
169,1696250547178,-0.41748047,-0.77008057,0.53167725,0.28125,-1.4375,0.390625
170,1696250547218,-0.42260742,-0.7815552,0.53582764,-0.640625,-2.40625,-0.265625
171,1696250547258,-0.4260254,-0.77130127,0.5477905,-1.515625,-1.71875,-0.921875
172,1696250547298,-0.41479492,-0.75006104,0.55511475,-1.578125,0.03125,-1.078125
173,1696250547338,-0.42407227,-0.7630005,0.545105,-1.578125,0.09375,0.03125
174,1696250547378,-0.4345703,-0.76934814,0.54608154,0.59375,0.125,0.734375
175,1696250547418,-0.4267578,-0.772522,0.54486084,-0.75,-0.03125,0.578125
176,1696250547458,-0.41723633,-0.77227783,0.54681396,-1.453125,-0.34375,0.234375
177,1696250547498,-0.42114258,-0.76275635,0.545105,0.609375,0.21875,0.125
178,1696250547538,-0.4333496,-0.7678833,0.54852295,0.125,-0.734375,0.21875
179,1696250547578,-0.42504883,-0.7710571,0.54437256,0.21875,-0.796875,0.21875
180,1696250547618,-0.4165039,-0.7608032,0.54730225,-0.140625,-0.4375,-0.015625
181,1696250547658,-0.42260742,-0.7649536,0.5397339,-0.328125,-0.234375,0.265625
182,1696250547698,-0.4255371,-0.7661743,0.54852295,-0.515625,-0.59375,0.375
183,1696250547738,-0.41918945,-0.76446533,0.5519409,-0.46875,-0.328125,-0.046875
184,1696250547778,-0.41992188,-0.76934814,0.54486084,0.0625,-0.53125,-0.03125
185,1696250547818,-0.41845703,-0.76031494,0.54437256,0.3125,0.234375,-0.484375
186,1696250547858,-0.4375,-0.76934814,0.54681396,-1.171875,-0.234375,-0.046875
187,1696250547898,-0.42529297,-0.77227783,0.5458374,-0.78125,-0.46875,0.265625
188,1696250547938,-0.41503906,-0.76226807,0.54681396,-0.1875,-0.375,0.265625
189,1696250547978,-0.41870117,-0.7608032,0.55755615,-0.171875,-0.28125,-0.0625
190,1696250548018,-0.4309082,-0.76519775,0.559021,0.078125,-0.296875,0.390625
191,1696250548058,-0.42089844,-0.76812744,0.54852295,-0.171875,-0.40625,0.484375
192,1696250548098,-0.4165039,-0.75860596,0.54852295,-0.125,-0.296875,0.0
193,1696250548138,-0.4165039,-0.7583618,0.55340576,-0.40625,0.203125,-0.1875
194,1696250548178,-0.42822266,-0.7737427,0.5507202,-0.828125,-0.265625,0.609375
195,1696250548218,-0.4267578,-0.76348877,0.5524292,-0.46875,-0.90625,-0.09375
196,1696250548258,-0.4194336,-0.7625122,0.5519409,-0.078125,-1.25,0.109375
197,1696250548298,-0.4189453,-0.7539673,0.5536499,-0.234375,-0.171875,-0.53125
198,1696250548338,-0.43139648,-0.7583618,0.5548706,-1.203125,0.015625,0.15625
199,1696250548378,-0.42749023,-0.77301025,0.55218506,-1.0,-0.25,0.375
200,1696250548418,-0.4243164,-0.7503052,0.57025146,0.4375,1.40625,-0.125
201,1696250548458,-0.43188477,-0.7600708,0.5626831,2.296875,1.484375,2.171875
202,1696250548498,-0.42456055,-0.75909424,0.5236206,1.609375,1.546875,0.828125
203,1696250548538,-0.43066406,-0.7727661,0.5673218,1.375,0.90625,2.0625
204,1696250548578,-0.40405273,-0.76568604,0.5348511,-0.171875,-2.203125,1.21875
205,1696250548618,-0.39575195,-0.76690674,0.5392456,0.859375,0.015625,-1.59375
206,1696250548658,-0.42016602,-0.77423096,0.5494995,2.890625,0.8125,1.578125
207,1696250548698,-0.42260742,-0.7617798,0.5626831,0.546875,-0.875,0.4375
208,1696250548738,-0.4260254,-0.7732544,0.56658936,3.875,-1.15625,1.203125
209,1696250548778,-0.41064453,-0.7774048,0.5350952,5.5625,0.328125,2.109375
210,1696250548818,-0.39013672,-0.7661743,0.51483154,3.703125,-1.359375,0.703125
211,1696250548858,-0.40454102,-0.78863525,0.50042725,0.890625,-4.515625,-1.859375
212,1696250548898,-0.41845703,-0.78326416,0.54071045,2.46875,-2.328125,-2.859375
213,1696250548938,-0.41381836,-0.78448486,0.5153198,0.0625,-0.296875,0.390625
214,1696250548978,-0.43969727,-0.7678833,0.5204468,-2.390625,-1.75,-0.328125
215,1696250549018,-0.42822266,-0.79034424,0.5319214,-2.734375,-2.546875,-0.359375
216,1696250549058,-0.41381836,-0.7539673,0.54852295,-3.046875,-2.0625,-0.1875
217,1696250549098,-0.41674805,-0.76885986,0.52948,-1.0,-1.234375,0.21875
218,1696250549138,-0.4267578,-0.79522705,0.53045654,-0.15625,-0.3125,0.453125
219,1696250549178,-0.43066406,-0.7839966,0.5368042,-1.921875,-0.296875,0.75
220,1696250549218,-0.42578125,-0.7649536,0.5307007,-1.03125,0.21875,-0.046875
221,1696250549258,-0.41625977,-0.7617798,0.53582764,0.078125,-0.171875,0.28125
222,1696250549298,-0.42138672,-0.767395,0.5392456,-0.78125,-0.875,0.25
223,1696250549338,-0.4345703,-0.7737427,0.53460693,-0.984375,-0.546875,0.15625
224,1696250549378,-0.43164062,-0.770813,0.5309448,-1.625,0.09375,-0.109375
225,1696250549418,-0.44018555,-0.76348877,0.54437256,-0.96875,-0.015625,-0.40625
226,1696250549458,-0.41064453,-0.7786255,0.54852295,-0.890625,0.359375,0.46875
227,1696250549498,-0.40307617,-0.7727661,0.5470581,-1.96875,-0.0625,-0.078125
228,1696250549538,-0.42089844,-0.7583618,0.5385132,1.1875,-0.390625,0.265625
229,1696250549578,-0.4387207,-0.76153564,0.53778076,1.328125,-1.546875,0.03125
230,1696250549618,-0.43652344,-0.7542114,0.5453491,-0.6875,-1.265625,-0.265625
231,1696250549658,-0.42822266,-0.77056885,0.54730225,-0.828125,-1.046875,0.203125
232,1696250549698,-0.42041016,-0.77227783,0.5499878,0.59375,0.015625,-0.40625
233,1696250549738,-0.42236328,-0.77545166,0.5385132,0.796875,0.125,-0.484375
234,1696250549778,-0.43188477,-0.7632446,0.52874756,0.203125,-0.84375,0.375
235,1696250549818,-0.43164062,-0.76348877,0.5368042,-0.484375,-0.84375,0.4375
236,1696250549858,-0.4375,-0.7761841,0.5414429,-1.421875,-0.25,0.90625
237,1696250549898,-0.42797852,-0.76226807,0.5499878,-1.765625,-0.515625,0.46875
238,1696250549938,-0.4091797,-0.77716064,0.5470581,-1.9375,0.046875,-0.140625
239,1696250549978,-0.42114258,-0.7617798,0.54974365,0.8125,1.34375,-0.171875
240,1696250550018,-0.43945312,-0.76397705,0.5409546,0.921875,-0.578125,0.265625
241,1696250550058,-0.43188477,-0.7647095,0.545105,-0.96875,-0.703125,0.546875
242,1696250550098,-0.4194336,-0.769104,0.54315186,-0.75,-0.84375,0.296875
243,1696250550138,-0.41552734,-0.76275635,0.55340576,1.1875,-0.328125,0.078125
244,1696250550178,-0.42700195,-0.77056885,0.54608154,1.171875,-0.078125,0.140625
245,1696250550218,-0.42382812,-0.7761841,0.539978,0.3125,-0.359375,-0.328125
246,1696250550258,-0.42285156,-0.7571411,0.5426636,-0.53125,-0.390625,0.15625
247,1696250550298,-0.42260742,-0.7683716,0.53900146,-0.265625,-0.328125,0.78125
248,1696250550338,-0.4230957,-0.75909424,0.54901123,-1.109375,-1.296875,-0.34375
249,1696250550378,-0.43066406,-0.7671509,0.5507202,0.40625,-0.546875,0.546875
250,1696250550418,-0.42944336,-0.7678833,0.54437256,-0.484375,-0.828125,-0.3125
251,1696250550458,-0.42797852,-0.76812744,0.539978,0.921875,-0.203125,0.21875
252,1696250550498,-0.42407227,-0.756897,0.5421753,-0.296875,-0.859375,0.171875
253,1696250550538,-0.42773438,-0.7654419,0.54974365,-0.59375,-0.890625,0.078125
254,1696250550578,-0.4230957,-0.78204346,0.54681396,0.046875,-0.515625,0.25
255,1696250550618,-0.42871094,-0.76568604,0.54364014,0.09375,-0.984375,-0.078125
256,1696250550658,-0.43115234,-0.7654419,0.539978,0.5625,-0.34375,0.296875
257,1696250550698,-0.4230957,-0.7647095,0.5458374,-0.421875,-0.015625,0.375
258,1696250550738,-0.43164062,-0.7595825,0.55096436,-0.5625,-0.21875,0.234375
259,1696250550778,-0.4272461,-0.770813,0.543396,-0.5,-0.46875,0.375
260,1696250550818,-0.4206543,-0.75665283,0.5458374,-0.59375,-0.375,0.265625
261,1696250550858,-0.4243164,-0.76763916,0.54486084,-0.0625,-0.59375,0.140625
262,1696250550898,-0.43164062,-0.769104,0.55145264,0.203125,-0.703125,-0.109375
263,1696250550938,-0.42895508,-0.75982666,0.54608154,0.09375,-1.125,0.1875
264,1696250550978,-0.41552734,-0.75567627,0.54071045,-0.09375,-0.359375,-0.09375
265,1696250551018,-0.43188477,-0.76934814,0.54119873,-0.734375,-0.59375,-0.203125
266,1696250551058,-0.42626953,-0.7703247,0.54974365,0.078125,-0.34375,0.515625
267,1696250551098,-0.4206543,-0.7608032,0.5487671,0.03125,-0.046875,0.40625
268,1696250551138,-0.43676758,-0.7612915,0.54364014,-0.375,-0.421875,0.015625
269,1696250551178,-0.42578125,-0.76348877,0.54364014,-0.734375,-0.5,0.296875
270,1696250551218,-0.4272461,-0.76934814,0.5470581,-0.796875,-0.875,0.359375
271,1696250551258,-0.42211914,-0.767395,0.55267334,0.390625,-0.109375,-0.125
272,1696250551298,-0.43579102,-0.7647095,0.54901123,0.09375,-0.140625,0.125
273,1696250551338,-0.42993164,-0.7630005,0.5372925,-0.4375,-0.515625,0.1875
274,1696250551378,-0.4248047,-0.76153564,0.55462646,-0.3125,-0.921875,0.21875
275,1696250551418,-0.41992188,-0.7593384,0.5470581,0.359375,-0.59375,0.0625
276,1696250551458,-0.4375,-0.7617798,0.55145264,-0.1875,-0.65625,0.0625
277,1696250551498,-0.43725586,-0.7710571,0.5519409,-0.671875,-0.578125,0.203125
278,1696250551538,-0.4260254,-0.7546997,0.5438843,-0.15625,-0.5,0.1875
279,1696250551578,-0.42700195,-0.74957275,0.5475464,0.328125,-0.46875,0.015625
280,1696250551618,-0.4296875,-0.7632446,0.55340576,0.15625,-0.078125,0.65625
281,1696250551658,-0.43286133,-0.7620239,0.55096436,-0.5,-0.421875,0.0625
282,1696250551698,-0.42871094,-0.7630005,0.54974365,-0.140625,-0.34375,0.328125
283,1696250551738,-0.41674805,-0.76446533,0.54022217,0.578125,-0.21875,0.171875
284,1696250551778,-0.42797852,-0.76568604,0.5392456,0.484375,-0.015625,0.40625
285,1696250551818,-0.43188477,-0.7659302,0.54803467,0.953125,0.140625,0.5
286,1696250551858,-0.42749023,-0.7625122,0.55267334,0.28125,-0.328125,0.953125
287,1696250551898,-0.43164062,-0.7554321,0.53826904,0.546875,-1.234375,0.125
288,1696250551938,-0.41870117,-0.76763916,0.54193115,-0.28125,-0.125,0.5
289,1696250551978,-0.42382812,-0.7571411,0.5548706,-0.875,-0.328125,-0.046875
290,1696250552018,-0.43554688,-0.7720337,0.55096436,1.125,-0.234375,0.59375
291,1696250552058,-0.43115234,-0.7617798,0.5516968,0.4375,-0.578125,0.71875
292,1696250552098,-0.41967773,-0.76397705,0.5465698,0.203125,0.40625,0.546875
293,1696250552138,-0.42089844,-0.7637329,0.5438843,-1.828125,0.375,-0.109375
294,1696250552178,-0.42944336,-0.7649536,0.54730225,-0.90625,-0.453125,-0.046875
295,1696250552218,-0.42651367,-0.76226807,0.54901123,0.171875,-0.015625,0.375
296,1696250552258,-0.42749023,-0.7620239,0.5336304,-0.25,-1.8125,-0.03125
297,1696250552298,-0.42504883,-0.75128174,0.53338623,3.15625,-2.90625,-0.6875
298,1696250552338,-0.42260742,-0.7695923,0.5404663,4.53125,-1.75,1.140625
299,1696250552378,-0.4321289,-0.7554321,0.5634155,3.328125,-0.640625,0.921875
300,1696250552418,-0.4255371,-0.7678833,0.5368042,1.4375,-0.734375,0.34375
301,1696250552458,-0.42285156,-0.7666626,0.53289795,-1.03125,-0.09375,0.40625
302,1696250552498,-0.42700195,-0.7630005,0.5397339,0.203125,-0.078125,0.0625
303,1696250552538,-0.42114258,-0.78131104,0.5319214,-1.21875,-1.140625,0.453125
304,1696250552578,-0.4272461,-0.7686157,0.53240967,-1.0,-0.546875,-0.4375
305,1696250552618,-0.43066406,-0.772522,0.54681396,0.703125,0.8125,0.625
306,1696250552658,-0.44702148,-0.7781372,0.5343628,-1.265625,-1.78125,0.59375
307,1696250552698,-0.42358398,-0.7647095,0.5270386,1.28125,-1.171875,-0.375
308,1696250552738,-0.40844727,-0.7654419,0.53411865,-0.0625,-0.046875,0.71875
309,1696250552778,-0.42773438,-0.7683716,0.54608154,-2.15625,0.015625,0.609375
310,1696250552818,-0.43554688,-0.772522,0.5348511,0.265625,-0.453125,-0.171875
311,1696250552858,-0.42236328,-0.77471924,0.5270386,0.25,-0.515625,0.546875
312,1696250552898,-0.42016602,-0.7686157,0.5392456,-0.53125,0.03125,0.671875
313,1696250552938,-0.43041992,-0.7810669,0.54071045,0.15625,-0.5625,-0.1875
314,1696250552978,-0.42407227,-0.7710571,0.53948975,1.640625,-0.828125,0.46875
315,1696250553018,-0.41918945,-0.7703247,0.53778076,1.0,-0.125,0.71875
316,1696250553058,-0.42529297,-0.76275635,0.5375366,-1.453125,-0.5625,-0.125
317,1696250553098,-0.4260254,-0.77716064,0.53778076,-0.453125,-0.6875,0.3125
318,1696250553138,-0.4338379,-0.77789307,0.53826904,0.390625,-0.875,0.296875
319,1696250553178,-0.42529297,-0.767395,0.539978,1.328125,0.046875,0.25
320,1696250553218,-0.421875,-0.7744751,0.53240967,0.25,-0.203125,0.375
321,1696250553258,-0.43652344,-0.7737427,0.5414429,0.03125,-0.796875,0.03125
322,1696250553298,-0.41601562,-0.7810669,0.5309448,0.796875,-0.296875,0.484375
323,1696250553338,-0.42089844,-0.770813,0.52508545,0.171875,-0.140625,0.40625
324,1696250553378,-0.4375,-0.78009033,0.5109253,-0.734375,-2.28125,-0.6875
325,1696250553418,-0.41967773,-0.77349854,0.5438843,0.359375,-0.015625,-0.4375
326,1696250553458,-0.4272461,-0.7683716,0.5524292,-0.65625,0.578125,-0.515625
327,1696250553498,-0.43920898,-0.7625122,0.54364014,0.875,0.453125,-0.78125
328,1696250553538,-0.42773438,-0.7774048,0.53948975,0.390625,0.171875,1.328125
329,1696250553578,-0.41088867,-0.76934814,0.53338623,-1.921875,-0.5,0.984375
330,1696250553618,-0.4284668,-0.78497314,0.53289795,-0.703125,0.28125,0.09375
331,1696250553658,-0.43408203,-0.770813,0.5350952,-0.21875,-0.390625,-0.171875
332,1696250553698,-0.42382812,-0.77008057,0.53948975,0.734375,-0.546875,0.234375
333,1696250553738,-0.4182129,-0.76275635,0.54193115,1.046875,0.234375,0.234375
334,1696250553778,-0.42700195,-0.772522,0.5285034,-0.484375,-0.078125,-0.359375
335,1696250553818,-0.42260742,-0.7608032,0.5272827,-0.203125,-0.5625,0.4375
336,1696250553858,-0.42529297,-0.7749634,0.54315186,1.375,-0.046875,0.875
337,1696250553898,-0.421875,-0.7695923,0.53778076,1.46875,0.0,0.5625
338,1696250553938,-0.42944336,-0.7774048,0.5309448,0.984375,-0.203125,0.359375
339,1696250553978,-0.41967773,-0.7817993,0.5309448,0.671875,0.125,0.8125
340,1696250554018,-0.41992188,-0.78082275,0.5368042,0.515625,0.0625,0.1875
341,1696250554058,-0.42138672,-0.77471924,0.5228882,0.453125,-0.0625,0.234375
342,1696250554098,-0.41870117,-0.7727661,0.5309448,0.359375,0.484375,0.625
343,1696250554138,-0.42163086,-0.7727661,0.5319214,-0.484375,-0.484375,0.34375
344,1696250554178,-0.41918945,-0.7774048,0.54071045,0.765625,-0.375,0.546875
345,1696250554218,-0.41259766,-0.7698364,0.52679443,2.34375,-0.125,1.421875
346,1696250554258,-0.42138672,-0.7798462,0.52459717,4.640625,0.15625,2.390625
347,1696250554298,-0.41308594,-0.79644775,0.5153198,1.296875,-0.421875,2.0
348,1696250554338,-0.40942383,-0.79400635,0.5297241,0.96875,0.171875,0.515625
349,1696250554378,-0.4074707,-0.77349854,0.52557373,-0.125,0.171875,-0.109375
350,1696250554418,-0.42041016,-0.7852173,0.5285034,-0.421875,0.6875,0.65625
351,1696250554458,-0.4169922,-0.7913208,0.5265503,1.515625,1.078125,1.375
352,1696250554498,-0.4091797,-0.78302,0.52508545,4.15625,0.1875,1.359375
353,1696250554538,-0.3881836,-0.79278564,0.5175171,2.71875,0.03125,0.90625
354,1696250554578,-0.40649414,-0.7937622,0.51727295,1.59375,0.703125,0.515625
355,1696250554618,-0.41674805,-0.7984009,0.5170288,0.25,-0.375,0.046875
356,1696250554658,-0.3972168,-0.79693604,0.512146,-0.953125,-0.234375,0.453125
357,1696250554698,-0.40551758,-0.79473877,0.513855,-1.953125,-1.34375,-0.21875
358,1696250554738,-0.40844727,-0.7896118,0.52264404,-1.515625,-1.0,-1.28125
359,1696250554778,-0.39770508,-0.7822876,0.5180054,-0.96875,-0.640625,-0.78125
360,1696250554818,-0.41674805,-0.7944946,0.51190186,0.203125,-0.015625,0.484375
361,1696250554858,-0.4086914,-0.7901001,0.5282593,-0.71875,-0.25,-0.234375
362,1696250554898,-0.4128418,-0.7893677,0.51727295,-1.5,-1.140625,0.078125
363,1696250554938,-0.4074707,-0.7827759,0.51898193,1.1875,0.28125,0.59375
364,1696250554978,-0.41992188,-0.79400635,0.51898193,0.5625,-0.828125,0.1875
365,1696250555018,-0.40844727,-0.79571533,0.5150757,0.59375,-0.390625,0.359375
366,1696250555058,-0.40429688,-0.7925415,0.51361084,0.0625,-0.1875,0.625
367,1696250555098,-0.4099121,-0.7827759,0.51898193,0.375,-0.171875,0.0
368,1696250555138,-0.39282227,-0.78448486,0.527771,-0.015625,0.34375,0.5
369,1696250555178,-0.40551758,-0.78863525,0.524353,-1.234375,-0.796875,0.453125
370,1696250555218,-0.4140625,-0.7944946,0.5302124,-0.109375,-0.671875,0.359375
371,1696250555258,-0.41601562,-0.7974243,0.5165405,-0.125,-0.84375,0.53125
372,1696250555298,-0.40771484,-0.78497314,0.52142334,1.078125,-0.59375,-0.09375
373,1696250555338,-0.40283203,-0.79229736,0.51678467,0.1875,-0.265625,0.15625
374,1696250555378,-0.41503906,-0.7913208,0.51678467,0.0,-0.15625,0.1875
375,1696250555418,-0.4033203,-0.7942505,0.51971436,-0.5,-0.765625,0.59375
376,1696250555458,-0.40234375,-0.79034424,0.52801514,-0.296875,-0.390625,0.453125
377,1696250555498,-0.3955078,-0.7876587,0.5187378,0.5625,-0.6875,0.21875
378,1696250555538,-0.40063477,-0.7937622,0.5150757,0.53125,-0.1875,0.0
379,1696250555578,-0.40942383,-0.7908325,0.5307007,0.28125,0.109375,-0.125
380,1696250555618,-0.42016602,-0.7859497,0.5206909,-0.734375,-0.90625,0.171875
381,1696250555658,-0.39672852,-0.7871704,0.5194702,-0.59375,-0.359375,0.375
382,1696250555698,-0.4050293,-0.77838135,0.5219116,0.46875,-0.65625,0.0
383,1696250555738,-0.41259766,-0.79522705,0.52508545,1.515625,-0.75,0.546875
384,1696250555778,-0.40429688,-0.8023071,0.50408936,-0.6875,-1.34375,0.859375
385,1696250555818,-0.39575195,-0.7842407,0.5241089,1.078125,-0.5,0.34375
386,1696250555858,-0.40551758,-0.79644775,0.5075073,0.234375,-0.59375,0.25
387,1696250555898,-0.40893555,-0.7918091,0.5097046,-0.90625,-0.484375,-0.265625
388,1696250555938,-0.39868164,-0.78497314,0.524353,-0.90625,-0.6875,-0.234375
389,1696250555978,-0.40307617,-0.78985596,0.53118896,-1.359375,0.28125,0.09375
390,1696250556018,-0.40649414,-0.7893677,0.53045654,-2.640625,0.390625,-0.6875
391,1696250556058,-0.38598633,-0.77667236,0.53411865,-5.671875,0.921875,-1.21875
392,1696250556098,-0.4206543,-0.78497314,0.5331421,-7.015625,3.90625,-0.671875
393,1696250556138,-0.41479492,-0.78253174,0.54974365,-2.1875,4.0625,1.015625
394,1696250556178,-0.41577148,-0.7876587,0.5458374,-1.078125,0.90625,2.46875
395,1696250556218,-0.42578125,-0.7649536,0.5348511,-2.4375,-2.421875,0.9375
396,1696250556258,-0.38964844,-0.7720337,0.5582886,0.984375,-2.453125,0.609375
397,1696250556298,-0.38354492,-0.7732544,0.55584717,1.328125,0.734375,2.375
398,1696250556338,-0.38745117,-0.78619385,0.5565796,0.6875,3.03125,1.375
399,1696250556378,-0.39013672,-0.7781372,0.54193115,0.234375,1.03125,0.578125
400,1696250556418,-0.38964844,-0.7859497,0.53118896,-2.375,-1.828125,0.875
401,1696250556458,-0.40112305,-0.77349854,0.54022217,-1.609375,-1.625,-0.25
402,1696250556498,-0.4086914,-0.8008423,0.5529175,6.171875,-0.578125,1.015625
403,1696250556538,-0.39648438,-0.79571533,0.53338623,4.984375,-2.46875,3.4375
404,1696250556578,-0.38134766,-0.7815552,0.5241089,3.359375,0.0625,1.59375
405,1696250556618,-0.37109375,-0.7871704,0.5206909,0.78125,-1.109375,0.390625
406,1696250556658,-0.37841797,-0.7817993,0.5272827,-0.140625,-0.96875,0.84375
407,1696250556698,-0.38842773,-0.7942505,0.54241943,0.671875,-0.53125,0.78125
408,1696250556738,-0.38208008,-0.7942505,0.5414429,0.6875,0.734375,-0.171875
409,1696250556778,-0.3852539,-0.7918091,0.5175171,0.515625,0.328125,0.015625
410,1696250556818,-0.39526367,-0.7866821,0.52508545,2.265625,-1.125,0.71875
411,1696250556858,-0.38598633,-0.80914307,0.5128784,3.078125,-2.0,0.421875
412,1696250556898,-0.39038086,-0.7954712,0.5150757,2.34375,-1.671875,0.03125
413,1696250556938,-0.38964844,-0.7918091,0.5048218,1.453125,-3.390625,0.21875
414,1696250556978,-0.4086914,-0.80010986,0.5272827,0.46875,-3.953125,-0.546875
415,1696250557018,-0.38623047,-0.7991333,0.5211792,1.375,-2.453125,-0.140625
416,1696250557058,-0.39404297,-0.798645,0.5084839,1.796875,-3.890625,0.78125
417,1696250557098,-0.39868164,-0.81036377,0.50335693,-0.40625,-2.578125,-0.8125
418,1696250557138,-0.39257812,-0.7930298,0.52215576,-0.703125,-1.96875,-1.71875
419,1696250557178,-0.3955078,-0.79766846,0.5126343,-1.75,-0.296875,-0.203125
420,1696250557218,-0.40966797,-0.79351807,0.5036011,-0.953125,0.0625,-0.421875
421,1696250557258,-0.39404297,-0.79888916,0.5158081,-0.5625,-0.125,-0.015625
422,1696250557298,-0.39868164,-0.7966919,0.513855,-0.75,0.140625,-0.046875
423,1696250557338,-0.40625,-0.79156494,0.513855,-0.828125,0.25,-0.53125
424,1696250557378,-0.40405273,-0.79937744,0.5150757,-1.015625,-0.8125,-0.375
425,1696250557418,-0.39697266,-0.7876587,0.512146,0.71875,-0.171875,0.453125
426,1696250557458,-0.40112305,-0.7896118,0.51776123,0.71875,-0.375,0.390625
427,1696250557498,-0.41137695,-0.8110962,0.5165405,0.140625,-0.921875,-0.3125
428,1696250557538,-0.40185547,-0.79522705,0.51190186,-0.59375,-0.84375,0.15625
429,1696250557578,-0.39331055,-0.7930298,0.50775146,-0.546875,0.03125,-0.078125
430,1696250557618,-0.4008789,-0.78863525,0.5140991,-0.8125,-0.515625,-0.109375
431,1696250557658,-0.40844727,-0.80426025,0.5194702,0.015625,-0.328125,0.375
432,1696250557698,-0.4116211,-0.7944946,0.50775146,-0.015625,-0.6875,0.3125
433,1696250557738,-0.39672852,-0.7893677,0.52679443,-0.171875,-0.21875,-0.28125
434,1696250557778,-0.3984375,-0.79400635,0.5050659,0.15625,-0.28125,0.15625
435,1696250557818,-0.41186523,-0.7949829,0.5170288,-0.03125,-0.75,0.171875
436,1696250557858,-0.40039062,-0.786438,0.5153198,-0.59375,-0.8125,0.171875
437,1696250557898,-0.3935547,-0.7937622,0.51556396,-0.296875,-0.453125,0.015625
438,1696250557938,-0.4091797,-0.80059814,0.5145874,0.921875,-0.546875,0.71875
439,1696250557978,-0.40649414,-0.78741455,0.51727295,0.84375,-0.875,-0.0625
440,1696250558018,-0.3947754,-0.78985596,0.5182495,0.46875,-0.296875,-0.1875
441,1696250558058,-0.40942383,-0.7925415,0.5060425,-1.296875,-0.5,0.03125
442,1696250558098,-0.40625,-0.7930298,0.52020264,-0.546875,-0.59375,0.171875
443,1696250558138,-0.39941406,-0.79034424,0.5204468,-0.296875,-0.21875,0.234375
444,1696250558178,-0.40649414,-0.80548096,0.51678467,-0.15625,-0.0625,0.265625
445,1696250558218,-0.40649414,-0.79473877,0.51556396,-0.375,-0.796875,-0.21875
446,1696250558258,-0.4038086,-0.7839966,0.51312256,-0.359375,-0.625,-0.21875
447,1696250558298,-0.4025879,-0.7979126,0.5199585,-0.578125,0.015625,0.40625
448,1696250558338,-0.39819336,-0.7817993,0.52215576,-0.21875,-0.015625,-0.09375
449,1696250558378,-0.40820312,-0.7854614,0.5231323,-0.3125,-0.4375,-0.25
450,1696250558418,-0.4111328,-0.7930298,0.5162964,-0.984375,-0.625,0.234375
451,1696250558458,-0.39868164,-0.79693604,0.51849365,-0.0625,-0.71875,0.5
452,1696250558498,-0.40405273,-0.784729,0.5140991,-0.546875,-0.25,-0.140625
453,1696250558538,-0.4050293,-0.7859497,0.5258179,-1.265625,-0.5,-0.859375
454,1696250558578,-0.40771484,-0.7913208,0.5282593,-2.390625,-1.03125,-0.546875
455,1696250558618,-0.4165039,-0.77911377,0.5170288,-1.890625,-1.703125,-0.234375
456,1696250558658,-0.40722656,-0.7920532,0.5231323,0.75,-0.9375,-0.03125
457,1696250558698,-0.41015625,-0.78570557,0.52630615,0.125,-0.546875,-0.171875
458,1696250558738,-0.42358398,-0.7805786,0.5231323,-0.203125,-0.21875,0.296875
459,1696250558778,-0.4169922,-0.7852173,0.51678467,-1.390625,-0.828125,0.0625
460,1696250558818,-0.39672852,-0.7842407,0.52630615,-1.703125,-1.34375,-0.015625
461,1696250558858,-0.3972168,-0.7803345,0.5338745,-0.921875,-0.84375,-0.453125
462,1696250558898,-0.4074707,-0.7842407,0.52752686,-0.875,-0.484375,-0.71875
463,1696250558938,-0.43066406,-0.7798462,0.5272827,-0.171875,-0.640625,-0.140625
464,1696250558978,-0.4165039,-0.77593994,0.5265503,-0.890625,-0.921875,0.1875
465,1696250559018,-0.41064453,-0.7739868,0.5223999,0.3125,-0.296875,-0.015625
466,1696250559058,-0.41479492,-0.78375244,0.52630615,-0.734375,-0.453125,0.484375
467,1696250559098,-0.41259766,-0.7822876,0.54608154,-0.84375,-0.328125,0.359375
468,1696250559138,-0.41992188,-0.7842407,0.53582764,-0.25,-0.171875,0.171875
469,1696250559178,-0.41674805,-0.7761841,0.5241089,0.546875,-0.359375,0.21875
470,1696250559218,-0.40454102,-0.77716064,0.53289795,-0.96875,-0.140625,-0.34375
471,1696250559258,-0.41870117,-0.7776489,0.5309448,-0.71875,0.078125,0.40625
472,1696250559298,-0.41967773,-0.7803345,0.52996826,-1.15625,-0.84375,-0.28125
473,1696250559338,-0.41455078,-0.7859497,0.53778076,0.421875,-0.09375,0.0
474,1696250559378,-0.41088867,-0.77545166,0.5336304,-0.71875,-0.5,-0.046875
475,1696250559418,-0.4169922,-0.7732544,0.5309448,0.234375,-0.71875,-0.015625
476,1696250559458,-0.41748047,-0.78082275,0.5307007,0.578125,-0.265625,0.578125
477,1696250559498,-0.41088867,-0.77349854,0.5326538,-0.65625,-0.296875,0.359375
478,1696250559538,-0.41015625,-0.7822876,0.5314331,-0.40625,-0.625,-0.21875
479,1696250559578,-0.41455078,-0.78570557,0.54119873,-0.421875,-0.078125,0.015625
480,1696250559618,-0.42456055,-0.7769165,0.527771,-0.234375,-0.5,0.1875
481,1696250559658,-0.41601562,-0.7798462,0.5338745,0.4375,-0.171875,0.34375
482,1696250559698,-0.41503906,-0.7671509,0.5307007,0.0625,-0.84375,0.21875
483,1696250559738,-0.41455078,-0.770813,0.53826904,-0.6875,-0.78125,0.09375
484,1696250559778,-0.41992188,-0.78375244,0.54022217,0.1875,-0.8125,0.53125
485,1696250559818,-0.4086914,-0.7805786,0.53460693,0.734375,-0.796875,0.25
486,1696250559858,-0.41455078,-0.7698364,0.527771,0.796875,-0.546875,0.0625
487,1696250559898,-0.4189453,-0.78375244,0.5385132,-0.171875,-0.5,0.078125
488,1696250559938,-0.41137695,-0.77545166,0.5319214,-0.921875,-0.375,0.015625
489,1696250559978,-0.41503906,-0.77716064,0.53533936,-0.59375,-0.015625,-0.359375
490,1696250560018,-0.41064453,-0.7798462,0.54193115,-1.484375,0.734375,0.28125
491,1696250560058,-0.41333008,-0.77130127,0.5446167,-2.703125,1.0,-0.453125
492,1696250560098,-0.40942383,-0.7637329,0.5722046,-0.828125,4.140625,0.296875
493,1696250560138,-0.43945312,-0.7774048,0.5560913,0.640625,3.28125,2.71875
494,1696250560178,-0.4267578,-0.77716064,0.5165405,1.46875,-0.96875,1.734375
495,1696250560218,-0.4033203,-0.7727661,0.5626831,9.546875,-4.5625,1.125
496,1696250560258,-0.38305664,-0.7710571,0.5446167,13.046875,-1.0625,4.34375
497,1696250560298,-0.3959961,-0.8023071,0.49383545,6.5,-0.9375,3.65625
498,1696250560338,-0.42089844,-0.81573486,0.47772217,4.0625,-5.8125,1.921875
499,1696250560378,-0.3947754,-0.8179321,0.48773193,3.734375,-2.875,-0.28125
500,1696250560418,-0.38183594,-0.8052368,0.4689331,-0.0625,-1.953125,0.203125
501,1696250560458,-0.40112305,-0.7979126,0.48675537,1.265625,-2.640625,-0.25
502,1696250560498,-0.41137695,-0.80548096,0.50701904,-1.5625,-1.59375,-0.421875
503,1696250560538,-0.40600586,-0.7971802,0.5228882,-5.046875,-1.09375,-0.96875
504,1696250560578,-0.39672852,-0.7798462,0.5072632,-0.859375,0.671875,-0.25
505,1696250560618,-0.40673828,-0.7962036,0.4887085,-0.53125,0.34375,0.484375
506,1696250560658,-0.4104004,-0.8171997,0.5036011,-1.90625,-0.46875,0.1875
507,1696250560698,-0.40649414,-0.7949829,0.51483154,0.71875,-0.25,0.109375
508,1696250560738,-0.42236328,-0.800354,0.49188232,0.09375,-0.109375,0.015625
509,1696250560778,-0.4116211,-0.7913208,0.50286865,-0.3125,-0.375,0.390625
510,1696250560818,-0.40161133,-0.80133057,0.50457764,-1.1875,0.28125,-0.109375
511,1696250560858,-0.4050293,-0.80133057,0.510437,-0.34375,0.546875,0.140625
512,1696250560898,-0.41845703,-0.79888916,0.51849365,1.34375,0.765625,0.71875
513,1696250560938,-0.39135742,-0.8010864,0.494812,-0.28125,-0.59375,0.25
514,1696250560978,-0.41186523,-0.800354,0.5050659,-0.578125,-0.640625,-0.40625
515,1696250561018,-0.40112305,-0.78912354,0.50213623,-0.46875,-0.375,-0.09375
516,1696250561058,-0.4194336,-0.79888916,0.50213623,-1.5,-0.59375,-0.171875
517,1696250561098,-0.4025879,-0.8023071,0.50579834,-0.234375,-0.890625,0.09375
518,1696250561138,-0.39819336,-0.7930298,0.51116943,-0.53125,0.0625,-0.171875
519,1696250561178,-0.4169922,-0.7920532,0.5133667,-0.265625,-0.78125,0.21875
520,1696250561218,-0.41210938,-0.79400635,0.5031128,-0.765625,-1.421875,-0.015625
521,1696250561258,-0.40600586,-0.79693604,0.5128784,-0.546875,-0.6875,0.359375
522,1696250561298,-0.40551758,-0.79473877,0.51678467,-1.234375,-0.34375,0.125
523,1696250561338,-0.40673828,-0.80133057,0.5133667,-0.21875,-0.09375,-0.46875
524,1696250561378,-0.41479492,-0.7920532,0.50946045,1.03125,-0.0625,0.171875
525,1696250561418,-0.40356445,-0.7932739,0.51361084,-0.265625,-0.25,0.75
526,1696250561458,-0.39990234,-0.79693604,0.52020264,-0.1875,0.46875,0.09375
527,1696250561498,-0.40625,-0.7966919,0.5050659,-0.03125,-0.59375,0.203125
528,1696250561538,-0.40673828,-0.79400635,0.50946045,0.59375,-0.578125,0.3125
529,1696250561578,-0.40576172,-0.7908325,0.5060425,0.0,-0.234375,0.546875
530,1696250561618,-0.40795898,-0.7944946,0.5055542,0.140625,-0.703125,0.1875
531,1696250561658,-0.41186523,-0.8015747,0.5126343,0.078125,-0.65625,0.140625
532,1696250561698,-0.40063477,-0.7888794,0.5084839,-0.1875,-0.484375,0.09375
533,1696250561738,-0.4050293,-0.7942505,0.51312256,-0.421875,0.109375,-0.28125
534,1696250561778,-0.42529297,-0.7984009,0.51678467,-0.359375,-0.5,0.234375
535,1696250561818,-0.40600586,-0.80303955,0.5038452,-0.46875,-1.234375,0.734375
536,1696250561858,-0.40722656,-0.7859497,0.512146,0.640625,-0.53125,0.671875
537,1696250561898,-0.4104004,-0.800354,0.5175171,-0.125,0.0,0.453125
538,1696250561938,-0.42016602,-0.79400635,0.51116943,-0.625,0.1875,0.78125
539,1696250561978,-0.40161133,-0.78863525,0.5079956,-0.640625,-0.578125,0.390625
540,1696250562018,-0.40698242,-0.7984009,0.5116577,0.09375,-0.578125,0.359375
541,1696250562058,-0.39916992,-0.79766846,0.5206909,0.421875,-0.609375,0.09375
542,1696250562098,-0.39770508,-0.7996216,0.508728,-0.125,-1.328125,0.3125
543,1696250562138,-0.41625977,-0.78790283,0.50701904,0.484375,-1.59375,0.640625
544,1696250562178,-0.4152832,-0.80133057,0.5043335,0.609375,-0.1875,0.703125
545,1696250562218,-0.41479492,-0.79473877,0.50653076,-1.8125,-1.25,-0.109375
546,1696250562258,-0.3996582,-0.7852173,0.5175171,-1.1875,-1.25,-0.140625
547,1696250562298,-0.39892578,-0.7920532,0.5165405,0.6875,0.28125,0.203125
548,1696250562338,-0.4104004,-0.800354,0.51190186,0.546875,-0.21875,0.3125
549,1696250562378,-0.39770508,-0.7959595,0.5079956,-0.875,-0.40625,0.0625
550,1696250562418,-0.39990234,-0.79278564,0.50531006,0.3125,-0.296875,0.0
551,1696250562458,-0.41430664,-0.79693604,0.508728,-0.5,-0.1875,0.0
552,1696250562498,-0.41088867,-0.7991333,0.5165405,-0.796875,-0.453125,0.0
553,1696250562538,-0.4038086,-0.78863525,0.5067749,-2.078125,-0.421875,-0.15625
554,1696250562578,-0.40185547,-0.788147,0.5162964,0.765625,0.109375,-0.015625
555,1696250562618,-0.41210938,-0.7954712,0.5158081,-0.28125,-0.296875,0.078125
556,1696250562658,-0.41674805,-0.79693604,0.5231323,-1.328125,-0.671875,0.0
557,1696250562698,-0.4038086,-0.7913208,0.5182495,-0.515625,-0.375,-0.109375
558,1696250562738,-0.40942383,-0.7901001,0.5158081,0.453125,0.34375,0.109375
559,1696250562778,-0.41186523,-0.7979126,0.508728,-1.140625,-0.828125,0.671875
560,1696250562818,-0.4074707,-0.7827759,0.51776123,-0.6875,-1.03125,-0.5625
561,1696250562858,-0.39770508,-0.7984009,0.5170288,-0.0625,0.015625,-0.078125
562,1696250562898,-0.41601562,-0.79107666,0.5199585,-0.078125,-0.3125,0.203125
563,1696250562938,-0.41503906,-0.7854614,0.5079956,0.34375,-0.84375,-0.015625
564,1696250562978,-0.40600586,-0.7803345,0.5165405,-0.359375,-0.640625,0.390625
565,1696250563018,-0.4033203,-0.78204346,0.5162964,-0.703125,-0.421875,-0.046875
566,1696250563058,-0.42114258,-0.78863525,0.5258179,0.28125,-0.296875,0.34375
567,1696250563098,-0.41186523,-0.7979126,0.51678467,0.078125,-0.640625,0.53125
568,1696250563138,-0.4038086,-0.784729,0.5258179,-0.046875,-0.125,0.15625
569,1696250563178,-0.4013672,-0.78497314,0.51116943,-0.890625,-0.921875,0.0
570,1696250563218,-0.4140625,-0.78741455,0.5187378,0.515625,0.03125,-0.4375
571,1696250563258,-0.4177246,-0.7991333,0.5145874,-0.28125,-0.375,0.609375
572,1696250563298,-0.4020996,-0.78619385,0.51605225,-0.9375,-0.390625,-0.0625
573,1696250563338,-0.41259766,-0.7925415,0.52337646,0.453125,0.03125,-0.359375
574,1696250563378,-0.4074707,-0.7871704,0.51776123,-0.09375,-0.640625,0.203125
575,1696250563418,-0.40893555,-0.7842407,0.51678467,-0.28125,-0.53125,0.203125
576,1696250563458,-0.40014648,-0.788147,0.52630615,-0.265625,-0.015625,0.265625
577,1696250563498,-0.40820312,-0.7944946,0.5153198,-0.28125,-0.53125,-0.0625
578,1696250563538,-0.42114258,-0.7937622,0.51898193,0.40625,-0.78125,-0.0625
579,1696250563578,-0.40942383,-0.7871704,0.51971436,0.390625,-0.203125,0.09375
580,1696250563618,-0.40844727,-0.7805786,0.52508545,-0.296875,0.09375,0.359375
581,1696250563658,-0.40307617,-0.79278564,0.5204468,-0.875,-0.65625,-0.25
582,1696250563698,-0.41381836,-0.7893677,0.5150757,0.8125,-0.421875,0.359375
583,1696250563738,-0.40625,-0.7942505,0.5162964,0.8125,-0.46875,0.046875
584,1696250563778,-0.4033203,-0.78204346,0.524353,0.203125,-0.640625,0.078125
585,1696250563818,-0.40576172,-0.7866821,0.52142334,-0.75,-0.6875,0.40625
586,1696250563858,-0.4116211,-0.78741455,0.5170288,-0.3125,-0.90625,0.3125
587,1696250563898,-0.40966797,-0.7901001,0.5133667,-0.75,-1.03125,0.171875
588,1696250563938,-0.4099121,-0.7827759,0.52459717,-0.078125,0.125,0.265625
589,1696250563978,-0.40673828,-0.7908325,0.5272827,-1.390625,-0.203125,0.359375
590,1696250564018,-0.40063477,-0.78131104,0.52337646,-0.296875,0.265625,0.265625
591,1696250564058,-0.4025879,-0.7798462,0.51849365,0.296875,-0.75,-0.109375
592,1696250564098,-0.4091797,-0.7905884,0.52337646,-0.09375,-0.078125,-0.5625
593,1696250564138,-0.4116211,-0.7942505,0.52508545,1.140625,0.0625,1.171875
594,1696250564178,-0.41723633,-0.7888794,0.5219116,1.0,-0.671875,0.34375
595,1696250564218,-0.40014648,-0.7839966,0.5204468,0.015625,-0.578125,-0.640625
596,1696250564258,-0.40966797,-0.7839966,0.5228882,-0.890625,0.421875,-0.140625
597,1696250564298,-0.4260254,-0.7913208,0.52630615,-0.8125,0.21875,0.109375
598,1696250564338,-0.41625977,-0.7942505,0.5272827,-1.890625,0.015625,-0.03125
599,1696250564378,-0.40307617,-0.78131104,0.51727295,-2.484375,0.453125,-0.578125
600,1696250564418,-0.39892578,-0.77789307,0.5360718,-1.109375,2.390625,-1.015625
601,1696250564458,-0.42236328,-0.7920532,0.54315186,-0.125,3.0,0.78125
602,1696250564498,-0.45336914,-0.78082275,0.5614624,2.484375,2.71875,1.34375
603,1696250564538,-0.40966797,-0.7937622,0.54681396,5.71875,2.234375,2.03125
604,1696250564578,-0.36132812,-0.79766846,0.52508545,3.125,-1.671875,1.734375
605,1696250564618,-0.38867188,-0.7698364,0.5092163,4.453125,-0.34375,2.890625
606,1696250564658,-0.38134766,-0.815979,0.48846436,4.3125,-3.21875,1.796875
607,1696250564698,-0.40795898,-0.80181885,0.51678467,2.515625,-2.0,-0.703125
608,1696250564738,-0.42993164,-0.80426025,0.5079956,7.3125,-1.265625,0.671875
609,1696250564778,-0.38232422,-0.81500244,0.479187,5.203125,-4.140625,2.5625
610,1696250564818,-0.3881836,-0.8230591,0.4706421,10.390625,0.125,2.828125
611,1696250564858,-0.38476562,-0.8110962,0.47381592,2.75,-3.15625,0.625
612,1696250564898,-0.37060547,-0.8032837,0.46429443,-1.1875,-2.359375,-0.515625
613,1696250564938,-0.39038086,-0.81427,0.4616089,-0.34375,-0.953125,0.359375
614,1696250564978,-0.41186523,-0.8335571,0.47991943,-3.828125,-2.25,-0.9375
615,1696250565018,-0.4104004,-0.817688,0.49822998,-4.140625,-1.421875,-0.671875
616,1696250565058,-0.40283203,-0.8171997,0.48065186,-2.671875,-1.59375,0.5
617,1696250565098,-0.39038086,-0.80010986,0.50286865,-0.765625,0.65625,-0.46875
618,1696250565138,-0.39257812,-0.8128052,0.49066162,-1.1875,0.46875,-0.171875
619,1696250565178,-0.4033203,-0.7996216,0.49456787,-1.125,-0.078125,-0.109375
620,1696250565218,-0.40112305,-0.8128052,0.49554443,0.5,-0.796875,0.15625
621,1696250565258,-0.4038086,-0.8201294,0.4882202,-0.75,0.265625,-0.171875
622,1696250565298,-0.41186523,-0.81085205,0.47747803,-0.5,0.1875,0.515625
623,1696250565338,-0.39990234,-0.8064575,0.4882202,-0.515625,0.078125,-0.578125
624,1696250565378,-0.39672852,-0.8110962,0.494812,-1.5,-0.328125,-0.328125
625,1696250565418,-0.4013672,-0.8049927,0.5001831,-0.25,-0.03125,0.21875
626,1696250565458,-0.40356445,-0.80181885,0.49993896,-0.265625,0.0,0.140625
627,1696250565498,-0.4020996,-0.8069458,0.48553467,0.015625,-0.09375,0.09375
628,1696250565538,-0.3984375,-0.8049927,0.49676514,0.34375,-0.5,0.609375
629,1696250565578,-0.39892578,-0.8086548,0.49090576,-0.515625,-0.546875,0.234375
630,1696250565618,-0.40161133,-0.80718994,0.49334717,-0.078125,0.03125,-0.578125
631,1696250565658,-0.40527344,-0.80670166,0.5031128,0.234375,0.359375,0.53125
632,1696250565698,-0.4050293,-0.8140259,0.47576904,-1.84375,-1.46875,-0.203125
633,1696250565738,-0.39379883,-0.798645,0.5009155,0.65625,-1.203125,-0.28125
634,1696250565778,-0.39624023,-0.8062134,0.50531006,-1.078125,-0.859375,0.203125
635,1696250565818,-0.40698242,-0.80010986,0.49725342,-0.359375,0.21875,0.140625
636,1696250565858,-0.40820312,-0.8062134,0.49066162,0.515625,-1.109375,0.1875
637,1696250565898,-0.3972168,-0.80010986,0.48944092,-1.34375,-0.015625,-0.1875
638,1696250565938,-0.39331055,-0.798645,0.5050659,-0.109375,1.375,-0.484375
639,1696250565978,-0.42260742,-0.8088989,0.4857788,-0.515625,-0.546875,0.359375
640,1696250566018,-0.4152832,-0.8052368,0.50457764,-0.390625,-1.40625,0.171875
641,1696250566058,-0.39624023,-0.80352783,0.50531006,-1.0,-1.375,-0.34375
642,1696250566098,-0.39453125,-0.8045044,0.5026245,-0.671875,-0.421875,0.234375
643,1696250566138,-0.4128418,-0.79693604,0.4869995,-0.671875,-0.515625,-0.78125
644,1696250566178,-0.40283203,-0.7942505,0.50946045,-1.25,0.40625,-0.78125
645,1696250566218,-0.3996582,-0.80303955,0.5060425,-1.140625,0.671875,0.484375
646,1696250566258,-0.4104004,-0.79351807,0.50897217,-1.453125,-0.578125,-0.484375
647,1696250566298,-0.41015625,-0.8015747,0.50946045,-0.625,-1.171875,0.25
648,1696250566338,-0.40454102,-0.78863525,0.50994873,-1.40625,-0.90625,-0.125
649,1696250566378,-0.40356445,-0.8049927,0.5116577,-0.53125,-0.109375,0.015625
650,1696250566418,-0.40722656,-0.8023071,0.50775146,-0.265625,-0.171875,0.09375
651,1696250566458,-0.4104004,-0.79351807,0.5092163,0.953125,-0.5,0.359375
652,1696250566498,-0.4020996,-0.79351807,0.51361084,-0.765625,-0.359375,-0.03125
653,1696250566538,-0.41186523,-0.7896118,0.5192261,-1.34375,-0.953125,0.46875
654,1696250566578,-0.40454102,-0.7954712,0.5192261,0.265625,-0.703125,-0.203125
655,1696250566618,-0.40795898,-0.7930298,0.50335693,0.203125,-0.640625,-0.125
656,1696250566658,-0.40600586,-0.7937622,0.5050659,0.875,-0.359375,-0.15625
657,1696250566698,-0.4091797,-0.79644775,0.51239014,-1.296875,-0.59375,-0.234375
658,1696250566738,-0.40844727,-0.7984009,0.5126343,-0.9375,-0.015625,-0.21875
659,1696250566778,-0.41186523,-0.8010864,0.5128784,0.3125,-0.078125,0.203125
660,1696250566818,-0.41308594,-0.7871704,0.5072632,-0.25,-0.859375,-0.046875
661,1696250566858,-0.40844727,-0.7954712,0.51776123,-0.859375,-0.21875,-0.03125
662,1696250566898,-0.40014648,-0.7913208,0.5194702,-0.75,-0.078125,0.359375
663,1696250566938,-0.40771484,-0.7942505,0.5072632,0.078125,-0.125,0.390625
664,1696250566978,-0.40820312,-0.79278564,0.5133667,-0.1875,-0.6875,0.234375
665,1696250567018,-0.40405273,-0.79473877,0.5128784,-0.5,-0.890625,0.03125
666,1696250567058,-0.40795898,-0.7888794,0.51849365,0.421875,-0.375,-0.03125
667,1696250567098,-0.41479492,-0.79888916,0.5180054,-0.125,-0.640625,0.28125
668,1696250567138,-0.4116211,-0.7920532,0.50653076,-0.21875,-0.015625,0.078125
669,1696250567178,-0.4128418,-0.7905884,0.50775146,-0.984375,-0.546875,-0.046875
670,1696250567218,-0.40771484,-0.7920532,0.51556396,-0.40625,-0.65625,0.296875
671,1696250567258,-0.40527344,-0.79522705,0.52557373,-0.21875,-0.25,0.390625
672,1696250567298,-0.4182129,-0.7944946,0.5253296,0.46875,-0.625,0.109375
673,1696250567338,-0.41259766,-0.7905884,0.51605225,0.265625,-0.859375,0.015625
674,1696250567378,-0.40795898,-0.7839966,0.50653076,-0.171875,-0.59375,-0.40625
675,1696250567418,-0.41259766,-0.7883911,0.51116943,-0.34375,-0.4375,-0.015625
676,1696250567458,-0.40795898,-0.7996216,0.5140991,-0.5625,-0.625,0.484375
677,1696250567498,-0.41577148,-0.78497314,0.5206909,-0.15625,-0.25,0.109375
678,1696250567538,-0.4140625,-0.78497314,0.513855,-0.140625,-0.375,0.0625
679,1696250567578,-0.41333008,-0.78692627,0.5206909,-0.4375,-0.375,0.28125
680,1696250567618,-0.40161133,-0.7998657,0.5182495,0.796875,-0.28125,0.5
681,1696250567658,-0.4169922,-0.78204346,0.5133667,0.234375,-0.640625,0.203125
682,1696250567698,-0.41845703,-0.8023071,0.5153198,0.109375,-0.375,0.359375
683,1696250567738,-0.40698242,-0.79278564,0.5165405,-0.765625,-1.0,0.265625
684,1696250567778,-0.40966797,-0.79229736,0.51678467,0.328125,-0.75,-0.25
685,1696250567818,-0.41357422,-0.786438,0.51556396,0.296875,-0.234375,0.046875
686,1696250567858,-0.4152832,-0.788147,0.5140991,-0.828125,-0.21875,0.40625
687,1696250567898,-0.41088867,-0.79034424,0.51849365,-0.21875,-0.328125,0.265625
688,1696250567938,-0.40625,-0.78570557,0.51727295,-0.25,-0.375,0.140625
689,1696250567978,-0.40600586,-0.78619385,0.52093506,-0.125,-0.5625,-0.28125
690,1696250568018,-0.4116211,-0.7979126,0.5133667,0.703125,-0.78125,0.171875
691,1696250568058,-0.41186523,-0.788147,0.50897217,-0.953125,-0.859375,-0.078125
692,1696250568098,-0.42626953,-0.7866821,0.50457764,0.609375,-0.671875,0.15625
693,1696250568138,-0.40625,-0.7871704,0.52020264,-0.515625,-0.359375,0.046875
694,1696250568178,-0.41381836,-0.7954712,0.5258179,-0.28125,-0.5625,0.1875
695,1696250568218,-0.41674805,-0.78741455,0.524353,1.125,-0.796875,0.609375
696,1696250568258,-0.41210938,-0.78497314,0.5060425,3.40625,-0.5,1.71875
697,1696250568298,-0.39892578,-0.79156494,0.5126343,2.703125,-0.109375,1.171875
698,1696250568338,-0.4104004,-0.8093872,0.5114136,1.5625,-0.421875,0.546875
699,1696250568378,-0.41064453,-0.80548096,0.49847412,-0.59375,-1.265625,0.09375
700,1696250568418,-0.40063477,-0.7764282,0.5150757,0.8125,0.390625,-0.15625
701,1696250568458,-0.41064453,-0.80596924,0.5062866,-0.8125,-0.3125,0.8125
702,1696250568498,-0.4050293,-0.80303955,0.5175171,-0.21875,-0.46875,0.171875
703,1696250568538,-0.41333008,-0.79229736,0.5060425,0.59375,-0.640625,-0.109375
704,1696250568578,-0.41333008,-0.7942505,0.50408936,-0.171875,-0.5,0.375
705,1696250568618,-0.40478516,-0.800354,0.5060425,-0.875,-0.40625,0.203125
706,1696250568658,-0.41186523,-0.8023071,0.5140991,0.09375,-0.421875,0.046875
707,1696250568698,-0.40698242,-0.7966919,0.5001831,-0.15625,-0.65625,0.375
708,1696250568738,-0.40844727,-0.78692627,0.51361084,-0.078125,-0.515625,-0.375
709,1696250568778,-0.40478516,-0.8049927,0.5067749,-0.140625,-0.546875,0.421875
710,1696250568818,-0.41259766,-0.7944946,0.5162964,-0.21875,-0.15625,0.1875
711,1696250568858,-0.4091797,-0.7971802,0.50408936,-0.359375,-0.84375,-0.71875
712,1696250568898,-0.41088867,-0.7962036,0.5038452,-0.640625,-0.40625,-0.609375
713,1696250568938,-0.4169922,-0.79473877,0.51971436,-0.59375,0.15625,-0.09375
714,1696250568978,-0.40795898,-0.7949829,0.50775146,-0.578125,-0.265625,-0.0625
715,1696250569018,-0.41015625,-0.78570557,0.50457764,0.296875,-0.59375,0.234375
716,1696250569058,-0.41064453,-0.7954712,0.5199585,-0.5625,-0.125,0.0
717,1696250569098,-0.4152832,-0.7998657,0.51116943,-0.75,0.046875,0.203125
718,1696250569138,-0.40844727,-0.79400635,0.50823975,0.0,-0.421875,0.09375
719,1696250569178,-0.40625,-0.7842407,0.5060425,0.171875,-0.859375,0.171875
720,1696250569218,-0.39941406,-0.78326416,0.51898193,0.703125,-0.859375,0.078125
721,1696250569258,-0.40039062,-0.7937622,0.5182495,2.28125,-1.625,0.34375
722,1696250569298,-0.40795898,-0.7991333,0.5097046,1.984375,-1.5,-0.15625
723,1696250569338,-0.42773438,-0.8052368,0.5043335,1.578125,-0.1875,0.03125
724,1696250569378,-0.42797852,-0.7974243,0.49432373,0.921875,0.015625,0.171875
725,1696250569418,-0.40698242,-0.788147,0.48846436,-1.5625,0.015625,0.28125
726,1696250569458,-0.40649414,-0.79693604,0.51116943,-1.8125,-0.1875,0.359375
727,1696250569498,-0.41503906,-0.79351807,0.5211792,-0.546875,0.046875,0.234375
728,1696250569538,-0.4099121,-0.79693604,0.49798584,1.96875,0.046875,0.875
729,1696250569578,-0.4033203,-0.80010986,0.5001831,2.8125,-0.9375,1.09375
730,1696250569618,-0.4013672,-0.7944946,0.5050659,3.890625,-1.046875,1.421875
731,1696250569658,-0.40063477,-0.80792236,0.4882202,2.578125,0.21875,1.359375
732,1696250569698,-0.4128418,-0.79888916,0.50579834,0.40625,0.0,0.375
733,1696250569738,-0.40600586,-0.81085205,0.4882202,0.46875,-0.734375,0.203125
734,1696250569778,-0.41137695,-0.79522705,0.48651123,0.5625,-0.390625,0.203125
735,1696250569818,-0.39794922,-0.802063,0.48944092,0.78125,-0.078125,0.59375
736,1696250569858,-0.40429688,-0.81329346,0.49847412,0.125,-0.703125,0.71875
737,1696250569898,-0.40527344,-0.81256104,0.50042725,1.03125,0.078125,0.3125
738,1696250569938,-0.41430664,-0.79522705,0.48968506,0.515625,0.046875,0.46875
739,1696250569978,-0.39257812,-0.8032837,0.49017334,-1.015625,-0.296875,0.75
740,1696250570018,-0.40356445,-0.8106079,0.5001831,-1.171875,-0.015625,-0.078125
741,1696250570058,-0.40698242,-0.81573486,0.49920654,-0.296875,-0.046875,-0.546875
742,1696250570098,-0.41064453,-0.8032837,0.49945068,-0.296875,-0.21875,0.53125
743,1696250570138,-0.40014648,-0.800354,0.49578857,-0.28125,0.0625,0.046875
744,1696250570178,-0.40283203,-0.8023071,0.49212646,0.109375,0.375,0.640625
745,1696250570218,-0.40454102,-0.7954712,0.49700928,-0.328125,-0.03125,0.3125
746,1696250570258,-0.41235352,-0.8130493,0.5026245,1.21875,-0.765625,0.625
747,1696250570298,-0.3930664,-0.800354,0.5018921,0.5625,0.15625,0.046875
748,1696250570338,-0.40112305,-0.79888916,0.48651123,1.03125,0.46875,0.015625
749,1696250570378,-0.40185547,-0.8076782,0.49017334,2.046875,-0.25,0.328125
750,1696250570418,-0.40600586,-0.8110962,0.49798584,2.671875,0.0625,0.640625
751,1696250570458,-0.40625,-0.8154907,0.47625732,1.734375,0.078125,0.609375
752,1696250570498,-0.39990234,-0.79034424,0.4874878,-0.59375,-0.734375,0.90625
753,1696250570538,-0.39453125,-0.8110962,0.48919678,-0.65625,-0.171875,0.296875
754,1696250570578,-0.39892578,-0.82647705,0.5001831,1.3125,0.375,0.140625
755,1696250570618,-0.4050293,-0.80670166,0.47601318,0.796875,0.03125,0.53125
756,1696250570658,-0.3942871,-0.80303955,0.48431396,-2.125,-0.578125,0.296875
757,1696250570698,-0.39819336,-0.81695557,0.49163818,-0.28125,-0.15625,0.125
758,1696250570738,-0.3881836,-0.8152466,0.49066162,-0.484375,-0.3125,0.171875
759,1696250570778,-0.41137695,-0.80718994,0.49505615,-0.375,-0.59375,-0.265625
