# Sensor type: Respeck
# Activity type: Lying down on stomach
# Activity subtype: Normal
# Subject id: s2106809
# Notes: unprocessed
timestamp,accel_x,accel_y,accel_z,gyro_x,gyro_y,gyro_z
1696254968804,0.6003418,-0.19708252,-0.7102661,0.28125,-1.1875,0.484375
1696254968844,0.60595703,-0.19488525,-0.7085571,0.15625,-1.140625,0.546875
1696254968884,0.6105957,-0.19439697,-0.7114868,-0.015625,-0.640625,0.3125
1696254968925,0.60302734,-0.18487549,-0.7136841,-0.15625,-0.703125,0.390625
1696254968964,0.6105957,-0.20172119,-0.7070923,-0.0625,-0.578125,0.359375
1696254969004,0.6088867,-0.1921997,-0.7102661,-0.015625,-0.65625,0.28125
1696254969045,0.61035156,-0.18658447,-0.7107544,-0.015625,-0.421875,0.359375
1696254969086,0.6008301,-0.19195557,-0.7058716,0.046875,-0.515625,0.234375
1696254969105,0.60839844,-0.18609619,-0.7131958,-0.203125,-0.5625,0.25
1696254969186,0.60375977,-0.18804932,-0.7070923,0.09375,-0.84375,0.171875
1696254969189,0.60717773,-0.1921997,-0.710022,-0.390625,-0.3125,0.21875
1696254969225,0.6047363,-0.19268799,-0.7112427,0.125,-0.453125,0.328125
1696254969265,0.6064453,-0.18829346,-0.70758057,-0.03125,-0.671875,0.296875
1696254969326,0.61157227,-0.19610596,-0.7131958,0.046875,-0.546875,0.3125
1696254969344,0.60546875,-0.19049072,-0.70880127,-0.09375,-0.578125,0.21875
1696254969408,0.60131836,-0.19293213,-0.7139282,-0.0625,-0.546875,0.3125
1696254969426,0.60253906,-0.19293213,-0.71051025,-0.109375,-0.484375,0.265625
1696254969464,0.61206055,-0.19073486,-0.7073364,-0.140625,-0.4375,0.25
1696254969506,0.6035156,-0.19000244,-0.7078247,0.015625,-0.375,0.25
1696254969545,0.6062012,-0.18609619,-0.7085571,-0.03125,-0.484375,0.203125
1696254969585,0.6064453,-0.190979,-0.70806885,0.078125,-0.40625,0.09375
1696254969626,0.60180664,-0.18634033,-0.7151489,-0.046875,-0.359375,0.265625
1696254969665,0.6086426,-0.18414307,-0.7090454,-0.015625,-0.3125,0.265625
1696254969704,0.60546875,-0.18707275,-0.7036743,0.09375,-0.46875,0.28125
1696254969745,0.6022949,-0.1897583,-0.708313,-0.078125,-0.421875,0.109375
1696254969811,0.609375,-0.19024658,-0.7090454,-0.015625,-0.375,0.125
1696254969824,0.60595703,-0.19024658,-0.7173462,-0.3125,-0.1875,0.125
1696254969865,0.6020508,-0.19195557,-0.70147705,-0.046875,-0.34375,0.171875
1696254969907,0.5998535,-0.19024658,-0.7139282,-0.015625,-0.25,0.09375
1696254969945,0.60546875,-0.18536377,-0.708313,0.015625,-0.265625,0.140625
1696254969985,0.5979004,-0.18756104,-0.71881104,-0.140625,-0.21875,0.109375
1696254970049,0.59765625,-0.18511963,-0.7112427,-0.140625,-0.28125,0.203125
1696254970064,0.60131836,-0.19024658,-0.7114868,-0.296875,-0.390625,0.015625
1696254970106,0.6081543,-0.19171143,-0.7127075,-0.234375,-0.359375,-0.015625
1696254970147,0.60375977,-0.19317627,-0.7090454,-0.078125,-0.25,0.15625
1696254970187,0.59277344,-0.1897583,-0.708313,-0.125,-0.328125,0.15625
1696254970226,0.60253906,-0.19342041,-0.710022,-0.171875,-0.34375,0.109375
1696254970265,0.6022949,-0.18658447,-0.70635986,-0.125,-0.234375,0.109375
1696254970307,0.6032715,-0.19024658,-0.7131958,-0.140625,-0.234375,0.1875
1696254970345,0.5996094,-0.18829346,-0.71661377,-0.015625,-0.5,0.203125
1696254970365,0.5974121,-0.1843872,-0.7090454,-0.109375,-0.3125,0.0625
1696254970408,0.6020508,-0.190979,-0.71173096,-0.140625,-0.5,0.375
1696254970445,0.6032715,-0.19293213,-0.7085571,-0.125,-0.390625,0.171875
1696254970485,0.60717773,-0.19317627,-0.7090454,-0.34375,-0.234375,0.109375
1696254970529,0.60009766,-0.19244385,-0.71099854,-0.015625,-0.359375,0.09375
1696254970565,0.6062012,-0.1897583,-0.71051025,0.0625,-0.3125,0.125
1696254970608,0.60375977,-0.19293213,-0.7185669,-0.234375,-0.390625,0.015625
1696254970646,0.60302734,-0.19659424,-0.7127075,-0.125,-0.484375,0.09375
1696254970685,0.60180664,-0.19610596,-0.7102661,-0.125,-0.421875,0.09375
1696254970724,0.6015625,-0.19683838,-0.7124634,-0.234375,-0.421875,0.078125
1696254970766,0.6035156,-0.19488525,-0.71099854,-0.015625,-0.515625,0.234375
1696254970806,0.5983887,-0.19781494,-0.71539307,-0.046875,-0.484375,0.265625
1696254970846,0.6003418,-0.19244385,-0.7090454,0.046875,-0.34375,0.21875
1696254970885,0.60375977,-0.19390869,-0.71661377,0.015625,-0.59375,0.15625
1696254970925,0.60253906,-0.1897583,-0.70928955,0.125,-0.546875,0.109375
1696254970965,0.60302734,-0.18927002,-0.71466064,-0.125,-0.515625,0.203125
1696254971004,0.60180664,-0.18609619,-0.71295166,-0.1875,-0.71875,0.3125
1696254971045,0.60498047,-0.19342041,-0.7102661,0.03125,-0.75,0.265625
1696254971084,0.60498047,-0.18536377,-0.7085571,-0.0625,-0.484375,0.171875
1696254971128,0.60791016,-0.19146729,-0.71343994,-0.109375,-0.65625,0.15625
1696254971165,0.6062012,-0.1897583,-0.71417236,0.0625,-0.84375,0.484375
1696254971204,0.6047363,-0.1897583,-0.7168579,0.0,-0.609375,0.34375
1696254971244,0.60424805,-0.1897583,-0.7102661,0.0,-0.578125,0.125
1696254971285,0.6027832,-0.1951294,-0.70928955,-0.109375,-0.46875,0.1875
1696254971325,0.6015625,-0.19805908,-0.7119751,-0.1875,-0.515625,0.1875
1696254971364,0.6105957,-0.18951416,-0.70806885,-0.078125,-0.484375,0.3125
1696254971404,0.609375,-0.18927002,-0.71417236,-0.03125,-0.46875,0.34375
1696254971446,0.6081543,-0.1921997,-0.7136841,-0.078125,-0.640625,0.109375
1696254971486,0.60253906,-0.19073486,-0.7112427,-0.0625,-0.421875,0.1875
1696254971526,0.6027832,-0.1951294,-0.7041626,0.015625,-0.5625,0.328125
1696254971566,0.6032715,-0.19561768,-0.7107544,0.0625,-0.4375,0.296875
1696254971605,0.6064453,-0.1975708,-0.7095337,0.015625,-0.546875,0.296875
1696254971645,0.60498047,-0.19049072,-0.70880127,-0.046875,-0.4375,0.203125
1696254971685,0.6044922,-0.18682861,-0.71099854,-0.015625,-0.59375,0.234375
1696254971703,0.6020508,-0.18707275,-0.71588135,-0.15625,-0.5625,0.296875
1696254971746,0.607666,-0.19366455,-0.7085571,-0.03125,-0.546875,0.25
1696254971786,0.6125488,-0.19342041,-0.71221924,-0.125,-0.4375,0.21875
1696254971849,0.60546875,-0.190979,-0.71051025,-0.078125,-0.46875,0.1875
1696254971885,0.6047363,-0.18365479,-0.7061157,0.125,-0.6875,0.3125
1696254971925,0.607666,-0.19537354,-0.710022,-0.34375,-0.640625,0.15625
1696254971945,0.6062012,-0.1831665,-0.7085571,-0.171875,-0.640625,0.203125
1696254971986,0.6027832,-0.19024658,-0.7112427,-0.171875,-0.53125,0.203125
1696254972025,0.6074219,-0.18804932,-0.70880127,-0.21875,-0.421875,0.0625
1696254972065,0.6022949,-0.19342041,-0.7168579,-0.015625,-0.5625,0.125
1696254972115,0.60498047,-0.1885376,-0.71099854,-0.140625,-0.578125,0.28125
1696254972168,0.6057129,-0.19561768,-0.7107544,-0.203125,-0.71875,0.21875
1696254972186,0.61328125,-0.18780518,-0.7119751,-0.109375,-0.5625,0.21875
1696254972225,0.6047363,-0.18927002,-0.7095337,-0.046875,-0.546875,0.3125
1696254972267,0.6086426,-0.18878174,-0.7107544,0.046875,-0.421875,0.171875
1696254972305,0.6052246,-0.1885376,-0.7090454,0.09375,-0.53125,0.203125
1696254972346,0.61279297,-0.19439697,-0.7102661,-0.25,-0.265625,0.328125
1696254972387,0.6010742,-0.19146729,-0.70635986,-0.0625,-0.53125,0.140625
1696254972426,0.60375977,-0.19708252,-0.7112427,-0.125,-0.5,0.21875
1696254972487,0.6081543,-0.18585205,-0.708313,-0.1875,-0.46875,0.25
1696254972504,0.60791016,-0.18267822,-0.7131958,-0.109375,-0.609375,0.09375
1696254972545,0.6081543,-0.19537354,-0.7139282,0.078125,-0.5625,0.296875
1696254972585,0.6118164,-0.19244385,-0.7073364,0.03125,-0.671875,0.15625
1696254972626,0.6052246,-0.18780518,-0.7124634,-0.25,-0.375,0.140625
1696254972666,0.6142578,-0.19317627,-0.706604,0.0625,-0.65625,0.0625
1696254972706,0.6047363,-0.19195557,-0.71099854,0.03125,-0.53125,0.203125
1696254972745,0.60375977,-0.18536377,-0.7090454,-0.03125,-0.359375,0.171875
1696254972806,0.60961914,-0.1951294,-0.70635986,-0.15625,-0.484375,0.140625
1696254972823,0.60253906,-0.18511963,-0.7053833,-0.140625,-0.59375,0.265625
1696254972866,0.6101074,-0.19244385,-0.71051025,-0.03125,-0.390625,0.328125
1696254972905,0.60546875,-0.18682861,-0.7053833,-0.0625,-0.453125,0.1875
1696254972947,0.60302734,-0.18682861,-0.70440674,0.03125,-0.421875,0.140625
1696254972986,0.6044922,-0.18658447,-0.7107544,0.125,-0.265625,0.140625
1696254973005,0.60791016,-0.19000244,-0.71466064,0.0625,-0.390625,0.125
1696254973048,0.60717773,-0.18878174,-0.708313,-0.03125,-0.203125,0.015625
1696254973086,0.6027832,-0.18780518,-0.7114868,-0.125,-0.484375,0.078125
1696254973126,0.60791016,-0.19146729,-0.708313,-0.078125,-0.265625,0.03125
1696254973165,0.6074219,-0.190979,-0.7114868,-0.140625,-0.375,0.125
1696254973207,0.60180664,-0.18585205,-0.7046509,-0.109375,-0.296875,0.046875
1696254973246,0.60498047,-0.1873169,-0.7149048,-0.15625,0.046875,-0.125
1696254973285,0.6086426,-0.19268799,-0.71343994,-0.109375,-0.171875,0.265625
1696254973328,0.60668945,-0.19171143,-0.7061157,-0.28125,-0.25,0.1875
1696254973385,0.6022949,-0.18560791,-0.71466064,-0.359375,-0.25,0.015625
1696254973404,0.6020508,-0.18927002,-0.70684814,-0.078125,-0.296875,-0.0625
1696254973447,0.6069336,-0.1897583,-0.7144165,-0.1875,-0.375,0.046875
1696254973485,0.6047363,-0.18878174,-0.7136841,-0.109375,-0.234375,0.15625
1696254973526,0.60058594,-0.1963501,-0.71417236,-0.125,-0.25,0.125
1696254973565,0.60668945,-0.1873169,-0.704895,-0.09375,-0.4375,0.109375
1696254973605,0.6008301,-0.1843872,-0.70806885,-0.21875,-0.484375,0.0625
1696254973648,0.60668945,-0.19342041,-0.7107544,-0.203125,-0.375,0.140625
1696254973685,0.5986328,-0.1921997,-0.70513916,-0.09375,-0.28125,0.296875
1696254973727,0.60131836,-0.18927002,-0.7107544,-0.03125,-0.328125,0.109375
1696254973789,0.6081543,-0.19293213,-0.71099854,-0.140625,-0.421875,0.125
1696254973804,0.6022949,-0.1963501,-0.71588135,-0.171875,-0.25,0.109375
1696254973846,0.60717773,-0.19146729,-0.7119751,-0.140625,-0.203125,0.109375
1696254973886,0.6010742,-0.19390869,-0.7131958,-0.15625,-0.484375,0.046875
1696254973927,0.6022949,-0.19146729,-0.7102661,-0.265625,-0.546875,-0.015625
1696254973965,0.6035156,-0.19732666,-0.70977783,-0.171875,-0.421875,0.03125
1696254974027,0.6057129,-0.19122314,-0.7095337,-0.09375,-0.46875,0.234375
1696254974045,0.6015625,-0.19390869,-0.70806885,0.046875,-0.34375,0.296875
1696254974086,0.6003418,-0.19268799,-0.71051025,-0.140625,-0.359375,0.09375
1696254974125,0.5979004,-0.19342041,-0.7136841,-0.0625,-0.328125,0.1875
1696254974166,0.6044922,-0.19342041,-0.71295166,-0.140625,-0.4375,0.171875
1696254974206,0.5979004,-0.19683838,-0.70806885,-0.03125,-0.5,0.203125
1696254974245,0.5986328,-0.19903564,-0.71173096,-0.125,-0.25,0.171875
1696254974288,0.60131836,-0.18780518,-0.7112427,0.03125,-0.46875,0.296875
1696254974305,0.59936523,-0.19732666,-0.71954346,0.078125,-0.46875,0.359375
1696254974346,0.6010742,-0.1921997,-0.7151489,-0.015625,-0.515625,0.3125
1696254974387,0.6040039,-0.19073486,-0.71051025,-0.078125,-0.375,0.171875
1696254974426,0.6010742,-0.18829346,-0.7124634,0.0625,-0.609375,0.296875
1696254974465,0.6027832,-0.19342041,-0.7046509,0.03125,-0.546875,0.265625
1696254974505,0.60180664,-0.18902588,-0.71099854,0.109375,-0.59375,0.3125
1696254974545,0.6032715,-0.19439697,-0.7119751,0.140625,-0.421875,0.328125
1696254974586,0.6022949,-0.19683838,-0.70977783,0.03125,-0.5,0.3125
1696254974625,0.60668945,-0.19122314,-0.71343994,0.0,-0.703125,0.328125
1696254974665,0.60180664,-0.19317627,-0.7061157,-0.015625,-0.46875,0.328125
1696254974705,0.59936523,-0.19146729,-0.7180786,-0.078125,-0.328125,0.109375
1696254974745,0.60009766,-0.19122314,-0.7112427,0.03125,-0.59375,0.390625
1696254974785,0.6035156,-0.190979,-0.7119751,-0.015625,-0.578125,0.234375
1696254974824,0.60253906,-0.19122314,-0.7112427,-0.265625,-0.40625,0.1875
1696254974866,0.6040039,-0.18902588,-0.70562744,-0.03125,-0.484375,0.28125
1696254974905,0.6022949,-0.18560791,-0.7136841,-0.171875,-0.5,0.15625
1696254974946,0.6074219,-0.19586182,-0.71051025,-0.015625,-0.53125,0.140625
1696254974986,0.6008301,-0.19024658,-0.7119751,0.015625,-0.6875,0.171875
1696254975028,0.6040039,-0.1975708,-0.70928955,0.0625,-0.578125,0.3125
1696254975068,0.60791016,-0.19293213,-0.71466064,-0.234375,-0.59375,0.125
1696254975113,0.6098633,-0.19854736,-0.7085571,0.015625,-0.46875,0.234375
1696254975145,0.60839844,-0.19146729,-0.7090454,-0.1875,-0.265625,0.21875
1696254975185,0.6069336,-0.19610596,-0.7095337,0.078125,-0.59375,0.203125
1696254975226,0.6035156,-0.19024658,-0.70928955,-0.203125,-0.640625,0.328125
1696254975265,0.60498047,-0.18804932,-0.71221924,0.0625,-0.515625,0.265625
1696254975310,0.60180664,-0.19415283,-0.7078247,-0.21875,-0.578125,0.15625
1696254975346,0.6040039,-0.19073486,-0.71173096,-0.046875,-0.4375,0.1875
1696254975387,0.6020508,-0.19171143,-0.70928955,-0.140625,-0.546875,0.109375
1696254975428,0.6003418,-0.18658447,-0.70880127,-0.296875,-0.609375,0.203125
1696254975466,0.5991211,-0.19171143,-0.70758057,0.015625,-0.28125,0.25
1696254975507,0.6086426,-0.19415283,-0.7161255,-0.125,-0.546875,0.078125
1696254975547,0.6057129,-0.18609619,-0.7102661,-0.1875,-0.328125,0.15625
1696254975586,0.6032715,-0.19195557,-0.7085571,-0.25,-0.71875,0.234375
1696254975627,0.6062012,-0.18536377,-0.71295166,-0.265625,-0.609375,0.3125
1696254975645,0.6047363,-0.19415283,-0.7029419,-0.15625,-0.46875,0.21875
1696254975708,0.6040039,-0.19732666,-0.7061157,-0.015625,-0.453125,0.15625
1696254975724,0.611084,-0.19390869,-0.7112427,-0.03125,-0.25,0.3125
1696254975765,0.60961914,-0.19073486,-0.7061157,-0.109375,-0.515625,0.140625
1696254975805,0.6062012,-0.19366455,-0.7107544,0.0,-0.6875,0.265625
1696254975845,0.60424805,-0.19293213,-0.7058716,0.0625,-0.625,0.109375
1696254975907,0.61279297,-0.18707275,-0.7090454,0.0,-0.53125,0.015625
1696254975924,0.6032715,-0.19342041,-0.70977783,0.15625,-0.46875,0.203125
1696254975966,0.6069336,-0.18927002,-0.7119751,0.03125,-0.734375,0.078125
1696254976006,0.6069336,-0.19122314,-0.7078247,-0.015625,-0.5,0.234375
1696254976047,0.6113281,-0.19122314,-0.7131958,-0.046875,-0.484375,0.203125
1696254976086,0.5979004,-0.19171143,-0.71099854,-0.171875,-0.484375,0.15625
1696254976125,0.60180664,-0.18878174,-0.70562744,-0.125,-0.359375,0.21875
1696254976166,0.6088867,-0.18927002,-0.7151489,-0.21875,-0.484375,0.03125
1696254976208,0.6047363,-0.18780518,-0.7046509,-0.203125,-0.515625,0.171875
1696254976267,0.6032715,-0.19171143,-0.71173096,-0.109375,-0.625,0.1875
1696254976313,0.6086426,-0.18658447,-0.7090454,-0.28125,-0.296875,0.1875
1696254976324,0.6027832,-0.19000244,-0.7095337,-0.0625,-0.375,0.0625
1696254976390,0.6040039,-0.1873169,-0.70635986,-0.046875,-0.28125,0.1875
1696254976405,0.6052246,-0.19317627,-0.7144165,-0.203125,-0.34375,0.171875
1696254976465,0.60180664,-0.190979,-0.70440674,0.046875,-0.4375,0.109375
1696254976484,0.6032715,-0.19366455,-0.70928955,-0.0625,-0.421875,0.203125
1696254976526,0.6044922,-0.19464111,-0.71051025,-0.046875,-0.15625,0.15625
1696254976588,0.6015625,-0.19464111,-0.7131958,-0.21875,-0.265625,0.015625
1696254976604,0.6057129,-0.18780518,-0.71221924,-0.171875,-0.40625,0.125
1696254976647,0.6062012,-0.18414307,-0.710022,-0.28125,-0.21875,0.0
1696254976687,0.6062012,-0.18780518,-0.7095337,-0.03125,-0.328125,-0.046875
1696254976749,0.5991211,-0.19000244,-0.7046509,-0.03125,-0.3125,0.109375
1696254976766,0.6015625,-0.18829346,-0.71295166,-0.015625,-0.375,0.109375
1696254976807,0.60009766,-0.19171143,-0.710022,-0.109375,-0.5,0.265625
1696254976865,0.6081543,-0.19317627,-0.71295166,-0.140625,-0.1875,0.1875
1696254976886,0.60595703,-0.19683838,-0.71466064,-0.203125,-0.3125,0.03125
1696254976948,0.60375977,-0.190979,-0.71661377,-0.421875,-0.28125,0.09375
1696254976963,0.60131836,-0.19683838,-0.7136841,-0.328125,-0.5625,0.140625
1696254976984,0.6008301,-0.19366455,-0.7053833,-0.109375,-0.421875,0.171875
1696254977025,0.6003418,-0.19171143,-0.710022,-0.125,-0.203125,0.15625
1696254977067,0.60791016,-0.18902588,-0.7127075,-0.21875,-0.328125,-0.03125
1696254977107,0.6101074,-0.19268799,-0.7136841,-0.15625,-0.484375,0.28125
1696254977146,0.60498047,-0.18560791,-0.71539307,-0.125,-0.375,0.109375
1696254977185,0.5996094,-0.19439697,-0.7070923,-0.171875,-0.328125,0.25
1696254977226,0.5983887,-0.19366455,-0.7022095,-0.15625,-0.421875,0.125
1696254977267,0.6057129,-0.1963501,-0.7061157,-0.140625,-0.5,0.0
1696254977305,0.59765625,-0.19415283,-0.7180786,0.0,-0.234375,0.21875
1696254977349,0.60009766,-0.19146729,-0.7180786,-0.03125,-0.375,0.078125
1696254977386,0.60498047,-0.1897583,-0.71417236,-0.03125,-0.3125,0.203125
1696254977447,0.5991211,-0.18634033,-0.71295166,0.015625,-0.296875,0.265625
1696254977467,0.6010742,-0.19366455,-0.7151489,-0.015625,-0.53125,0.203125
1696254977508,0.5974121,-0.19464111,-0.7095337,-0.1875,-0.359375,0.1875
1696254977546,0.5991211,-0.19293213,-0.708313,0.0,-0.375,0.125
1696254977587,0.6062012,-0.19024658,-0.7180786,-0.015625,-0.53125,0.265625
1696254977625,0.6052246,-0.18878174,-0.71466064,0.109375,-0.390625,0.359375
1696254977666,0.5966797,-0.19000244,-0.7095337,0.109375,-0.359375,0.1875
1696254977707,0.60009766,-0.1873169,-0.7114868,0.0,-0.53125,0.265625
1696254977746,0.6022949,-0.19561768,-0.7073364,-0.1875,-0.546875,0.3125
1696254977786,0.6020508,-0.18780518,-0.7127075,0.0625,-0.484375,0.390625
1696254977826,0.5998535,-0.18878174,-0.71099854,0.203125,-0.59375,0.328125
1696254977885,0.60791016,-0.1897583,-0.7119751,0.203125,-0.40625,0.28125
1696254977904,0.60131836,-0.18927002,-0.7124634,0.078125,-0.484375,0.234375
1696254977946,0.60131836,-0.19146729,-0.7078247,0.21875,-0.5625,0.265625
1696254977985,0.6064453,-0.19268799,-0.7127075,0.09375,-0.59375,0.390625
1696254978026,0.5998535,-0.19317627,-0.7156372,-0.109375,-0.53125,0.28125
1696254978065,0.6027832,-0.18804932,-0.7112427,-0.015625,-0.734375,0.40625
1696254978107,0.6057129,-0.19317627,-0.70758057,-0.078125,-0.5,0.296875
1696254978145,0.6020508,-0.1873169,-0.708313,-0.078125,-0.4375,0.28125
1696254978186,0.6064453,-0.18902588,-0.71417236,-0.0625,-0.578125,0.3125
1696254978246,0.6035156,-0.1897583,-0.71832275,0.0,-0.484375,0.265625
1696254978265,0.60546875,-0.18780518,-0.7078247,-0.03125,-0.53125,0.125
1696254978285,0.6064453,-0.18829346,-0.70806885,-0.09375,-0.625,0.15625
1696254978327,0.6020508,-0.18463135,-0.7024536,0.0,-0.609375,0.296875
1696254978365,0.6022949,-0.18756104,-0.71417236,-0.046875,-0.40625,0.34375
1696254978406,0.6035156,-0.18927002,-0.71051025,0.109375,-0.578125,0.046875
1696254978447,0.60424805,-0.1921997,-0.70977783,-0.046875,-0.546875,0.203125
1696254978486,0.60791016,-0.1897583,-0.70513916,0.0,-0.515625,0.171875
1696254978529,0.60546875,-0.19268799,-0.71173096,-0.09375,-0.71875,0.25
1696254978565,0.607666,-0.18682861,-0.7058716,-0.171875,-0.609375,0.171875
1696254978605,0.6040039,-0.1873169,-0.708313,-0.109375,-0.609375,0.25
1696254978645,0.60839844,-0.18780518,-0.71051025,0.125,-0.65625,0.375
1696254978686,0.6022949,-0.19000244,-0.7136841,-0.078125,-0.546875,0.21875
1696254978728,0.6064453,-0.18658447,-0.70806885,-0.171875,-0.4375,0.078125
1696254978768,0.6027832,-0.19952393,-0.7112427,-0.0625,-0.46875,0.234375
1696254978805,0.60253906,-0.18951416,-0.7073364,-0.03125,-0.5,0.265625
1696254978850,0.60839844,-0.18609619,-0.71417236,-0.140625,-0.359375,0.328125
1696254978885,0.6047363,-0.19268799,-0.70196533,-0.09375,-0.578125,0.203125
1696254978927,0.607666,-0.18658447,-0.7085571,-0.078125,-0.46875,0.171875
1696254978966,0.61206055,-0.18536377,-0.71295166,-0.015625,-0.484375,0.09375
1696254979006,0.6022949,-0.19268799,-0.71099854,-0.171875,-0.46875,0.140625
1696254979046,0.6052246,-0.1921997,-0.70806885,-0.0625,-0.5,0.25
1696254979086,0.6062012,-0.18829346,-0.71221924,-0.125,-0.53125,0.1875
1696254979125,0.6088867,-0.19342041,-0.7114868,-0.296875,-0.625,0.25
1696254979169,0.6008301,-0.18902588,-0.71295166,-0.296875,-0.390625,0.203125
1696254979206,0.60595703,-0.18829346,-0.7053833,-0.03125,-0.546875,0.234375
1696254979246,0.6032715,-0.18121338,-0.7124634,-0.03125,-0.484375,0.3125
1696254979285,0.6062012,-0.18902588,-0.7095337,0.125,-0.4375,0.140625
1696254979328,0.609375,-0.19439697,-0.71051025,-0.140625,-0.578125,0.28125
1696254979364,0.60253906,-0.18707275,-0.7114868,-0.046875,-0.4375,0.3125
1696254979405,0.6064453,-0.18804932,-0.70977783,-0.078125,-0.578125,0.171875
1696254979447,0.60253906,-0.18218994,-0.70635986,-0.125,-0.359375,0.21875
1696254979486,0.60961914,-0.18829346,-0.70806885,-0.109375,-0.453125,0.28125
1696254979525,0.6020508,-0.19122314,-0.71051025,0.0,-0.625,0.265625
1696254979566,0.61035156,-0.18927002,-0.71221924,-0.015625,-0.296875,0.171875
1696254979585,0.6044922,-0.19342041,-0.71417236,-0.078125,-0.484375,0.21875
1696254979625,0.60913086,-0.18951416,-0.7124634,0.03125,-0.4375,0.21875
1696254979667,0.60913086,-0.18511963,-0.71173096,-0.0625,-0.5625,0.203125
1696254979705,0.5979004,-0.1873169,-0.7034302,-0.125,-0.546875,0.28125
1696254979769,0.6015625,-0.18389893,-0.7119751,0.0,-0.34375,0.125
1696254979784,0.6101074,-0.19000244,-0.7139282,-0.078125,-0.3125,0.171875
1696254979825,0.6008301,-0.18927002,-0.7114868,-0.109375,-0.4375,0.078125
1696254979887,0.60839844,-0.18658447,-0.71099854,0.09375,-0.359375,0.25
1696254979925,0.6057129,-0.18780518,-0.70928955,-0.125,-0.21875,0.09375
1696254979944,0.60961914,-0.1885376,-0.7151489,-0.046875,-0.328125,0.171875
1696254979986,0.6047363,-0.18414307,-0.7178345,-0.296875,-0.140625,0.09375
1696254980049,0.6052246,-0.19439697,-0.7085571,0.0,-0.390625,-0.03125
1696254980065,0.60913086,-0.19659424,-0.7156372,-0.109375,-0.390625,0.171875
1696254980128,0.6062012,-0.18658447,-0.7119751,0.078125,-0.15625,0.1875
1696254980169,0.6032715,-0.18634033,-0.72052,-0.03125,-0.375,0.125
1696254980184,0.60546875,-0.18560791,-0.71710205,-0.09375,-0.296875,0.0625
1696254980225,0.6010742,-0.19195557,-0.7144165,-0.171875,-0.328125,0.0
1696254980288,0.61035156,-0.19366455,-0.71099854,-0.078125,-0.390625,0.078125
1696254980304,0.61083984,-0.18878174,-0.7085571,-0.140625,-0.453125,0.203125
1696254980347,0.6022949,-0.18389893,-0.7102661,-0.125,-0.359375,0.15625
1696254980386,0.6032715,-0.1951294,-0.72076416,-0.140625,-0.140625,0.0625
1696254980425,0.60717773,-0.19171143,-0.71466064,-0.390625,-0.21875,0.28125
1696254980466,0.5974121,-0.18829346,-0.71295166,-0.1875,-0.375,0.15625
1696254980506,0.60058594,-0.18780518,-0.7119751,-0.328125,-0.40625,0.109375
1696254980567,0.60131836,-0.19122314,-0.7070923,-0.09375,-0.5,0.21875
1696254980584,0.60424805,-0.19024658,-0.7085571,-0.15625,-0.40625,0.078125
1696254980625,0.6020508,-0.1921997,-0.7119751,-0.1875,-0.140625,0.203125
1696254980688,0.60546875,-0.19122314,-0.7090454,-0.078125,-0.390625,0.078125
1696254980703,0.5979004,-0.19293213,-0.71295166,-0.140625,-0.328125,0.265625
1696254980744,0.60375977,-0.18536377,-0.7161255,-0.203125,-0.484375,0.046875
1696254980789,0.59814453,-0.18536377,-0.7112427,0.0,-0.28125,0.21875
1696254980826,0.5986328,-0.1921997,-0.70513916,-0.1875,-0.421875,0.15625
1696254980865,0.60546875,-0.1921997,-0.7144165,-0.09375,-0.375,0.1875
1696254980885,0.5991211,-0.1873169,-0.70635986,0.0,-0.609375,0.0625
1696254980926,0.6008301,-0.190979,-0.7114868,-0.125,-0.328125,0.140625
1696254980966,0.60791016,-0.18878174,-0.71466064,-0.09375,-0.421875,0.171875
1696254981004,0.5991211,-0.18609619,-0.7112427,-0.203125,-0.390625,0.171875
1696254981046,0.6020508,-0.18902588,-0.7107544,-0.015625,-0.609375,0.03125
1696254981087,0.6020508,-0.19439697,-0.7127075,-0.109375,-0.484375,0.171875
1696254981126,0.6035156,-0.18609619,-0.7107544,-0.171875,-0.484375,0.25
1696254981165,0.60253906,-0.19342041,-0.7058716,0.171875,-0.515625,0.28125
1696254981205,0.6022949,-0.19659424,-0.71417236,0.09375,-0.484375,0.21875
1696254981269,0.6086426,-0.19049072,-0.71173096,0.109375,-0.640625,0.21875
1696254981288,0.5986328,-0.19073486,-0.70758057,0.03125,-0.671875,0.484375
1696254981325,0.60131836,-0.19122314,-0.708313,0.09375,-0.546875,0.296875
1696254981366,0.6003418,-0.19073486,-0.70880127,-0.03125,-0.578125,0.265625
1696254981406,0.60058594,-0.18634033,-0.7124634,0.078125,-0.578125,0.296875
1696254981448,0.6044922,-0.1897583,-0.71295166,0.203125,-0.578125,0.296875
1696254981486,0.59936523,-0.19049072,-0.7053833,-0.0625,-0.484375,0.3125
1696254981529,0.6008301,-0.19244385,-0.710022,0.03125,-0.609375,0.203125
1696254981565,0.60498047,-0.1885376,-0.7107544,-0.1875,-0.59375,0.25
1696254981607,0.6035156,-0.1897583,-0.71221924,0.09375,-0.703125,0.265625
1696254981645,0.59716797,-0.19415283,-0.7058716,-0.109375,-0.46875,0.125
1696254981689,0.60717773,-0.19342041,-0.7151489,-0.1875,-0.515625,0.3125
1696254981725,0.6069336,-0.18634033,-0.71221924,0.0,-0.40625,0.203125
1696254981766,0.6052246,-0.18487549,-0.7131958,-0.21875,-0.40625,0.109375
1696254981806,0.59765625,-0.18804932,-0.710022,-0.203125,-0.484375,0.171875
1696254981844,0.60302734,-0.19171143,-0.7085571,-0.15625,-0.515625,0.21875
1696254981885,0.6047363,-0.18756104,-0.7136841,-0.03125,-0.59375,0.28125
1696254981928,0.60058594,-0.18804932,-0.7078247,-0.03125,-0.625,0.328125
1696254981965,0.60180664,-0.19610596,-0.71173096,-0.140625,-0.578125,0.171875
1696254982006,0.60668945,-0.1951294,-0.710022,0.03125,-0.46875,0.296875
1696254982044,0.6044922,-0.18536377,-0.7107544,-0.1875,-0.484375,0.265625
1696254982085,0.6074219,-0.18658447,-0.7095337,0.078125,-0.53125,0.203125
1696254982147,0.60791016,-0.18487549,-0.71588135,-0.140625,-0.46875,0.171875
1696254982166,0.6057129,-0.19366455,-0.7102661,-0.234375,-0.515625,0.28125
1696254982207,0.611084,-0.19195557,-0.708313,0.015625,-0.71875,0.21875
1696254982224,0.6105957,-0.1951294,-0.7124634,-0.015625,-0.5625,0.203125
1696254982266,0.60253906,-0.18756104,-0.71173096,-0.21875,-0.484375,0.1875
1696254982305,0.60424805,-0.19488525,-0.7114868,-0.140625,-0.46875,0.21875
1696254982370,0.60839844,-0.19146729,-0.710022,-0.046875,-0.640625,0.328125
1696254982384,0.5996094,-0.19146729,-0.7095337,-0.046875,-0.578125,0.1875
1696254982426,0.6044922,-0.18463135,-0.7156372,-0.15625,-0.40625,0.109375
1696254982465,0.609375,-0.18951416,-0.70758057,-0.046875,-0.546875,0.21875
1696254982511,0.61157227,-0.1873169,-0.71221924,-0.203125,-0.53125,0.25
1696254982547,0.60717773,-0.18878174,-0.71099854,-0.09375,-0.265625,-0.0625
1696254982588,0.59887695,-0.18902588,-0.7178345,-0.125,-0.375,0.09375
1696254982627,0.60668945,-0.18707275,-0.7107544,-0.015625,-0.5625,0.140625
1696254982665,0.6074219,-0.19342041,-0.71173096,-0.265625,-0.640625,0.234375
1696254982707,0.6047363,-0.19122314,-0.7112427,-0.171875,-0.5,0.125
1696254982747,0.6032715,-0.18829346,-0.7161255,-0.046875,-0.359375,0.234375
1696254982785,0.60668945,-0.18609619,-0.7078247,0.078125,-0.484375,0.140625
1696254982848,0.6074219,-0.19268799,-0.7127075,-0.109375,-0.5,0.234375
1696254982871,0.6064453,-0.18756104,-0.71417236,0.046875,-0.296875,0.34375
1696254982906,0.60913086,-0.18951416,-0.7078247,0.0625,-0.4375,0.1875
1696254982946,0.6064453,-0.19146729,-0.7151489,-0.15625,-0.59375,0.0625
1696254982985,0.60375977,-0.19073486,-0.70880127,-0.125,-0.390625,-0.015625
1696254983025,0.6125488,-0.18829346,-0.7114868,0.03125,-0.5,0.15625
1696254983088,0.6086426,-0.18902588,-0.7061157,0.015625,-0.28125,0.171875
1696254983105,0.60595703,-0.18682861,-0.7127075,0.140625,-0.265625,0.171875
1696254983145,0.6062012,-0.19073486,-0.706604,-0.203125,-0.3125,0.078125
1696254983188,0.6044922,-0.18756104,-0.7046509,0.140625,-0.390625,0.25
1696254983226,0.60595703,-0.18829346,-0.7124634,-0.171875,-0.265625,0.03125
1696254983267,0.60546875,-0.18804932,-0.70684814,-0.046875,-0.390625,0.046875
1696254983306,0.6062012,-0.18927002,-0.7178345,-0.171875,-0.375,0.203125
1696254983346,0.6027832,-0.18511963,-0.7041626,0.03125,-0.390625,0.0
1696254983385,0.60498047,-0.18902588,-0.710022,-0.15625,-0.234375,0.046875
1696254983427,0.60498047,-0.19366455,-0.71466064,-0.265625,-0.203125,0.21875
1696254983486,0.60424805,-0.19024658,-0.71417236,-0.109375,-0.328125,0.078125
1696254983525,0.6027832,-0.18829346,-0.71173096,-0.125,-0.375,0.265625
1696254983527,0.6020508,-0.18927002,-0.70806885,-0.234375,-0.375,0.15625
1696254983566,0.6047363,-0.190979,-0.7112427,-0.0625,-0.4375,0.015625
1696254983606,0.6044922,-0.19122314,-0.71417236,-0.140625,-0.140625,0.078125
1696254983648,0.60498047,-0.19561768,-0.7124634,-0.203125,-0.265625,-0.015625
1696254983687,0.60717773,-0.19268799,-0.71881104,-0.28125,-0.453125,0.09375
1696254983726,0.59887695,-0.1873169,-0.70880127,-0.34375,-0.296875,0.109375
1696254983766,0.5961914,-0.18682861,-0.70562744,-0.09375,-0.484375,0.015625
1696254983805,0.60302734,-0.19000244,-0.7136841,-0.125,-0.234375,0.015625
1696254983845,0.60058594,-0.19537354,-0.72003174,-0.140625,-0.4375,0.125
1696254983888,0.60302734,-0.19024658,-0.7073364,-0.09375,-0.25,0.109375
1696254983926,0.6022949,-0.18560791,-0.71173096,-0.25,-0.25,0.171875
1696254983967,0.6057129,-0.19317627,-0.71759033,-0.171875,-0.28125,0.140625
1696254984005,0.60009766,-0.19293213,-0.7085571,-0.265625,-0.53125,0.15625
1696254984048,0.5966797,-0.19244385,-0.7119751,-0.234375,-0.34375,0.21875
1696254984085,0.5986328,-0.190979,-0.7119751,-0.078125,-0.4375,0.0625
1696254984126,0.6035156,-0.19268799,-0.71881104,-0.140625,-0.59375,0.28125
1696254984166,0.6027832,-0.1885376,-0.7139282,0.015625,-0.34375,0.03125
1696254984206,0.5998535,-0.19293213,-0.7136841,-0.15625,-0.59375,0.046875
1696254984244,0.59814453,-0.19171143,-0.71661377,-0.03125,-0.5,0.109375
1696254984286,0.6008301,-0.19366455,-0.71343994,-0.078125,-0.546875,0.171875
1696254984327,0.59936523,-0.18878174,-0.71099854,-0.0625,-0.59375,0.40625
1696254984365,0.60791016,-0.18829346,-0.7161255,-0.03125,-0.453125,0.109375
1696254984406,0.59716797,-0.19122314,-0.7144165,-0.140625,-0.453125,0.375
1696254984446,0.6035156,-0.18267822,-0.70684814,0.140625,-0.6875,0.375
1696254984492,0.60717773,-0.190979,-0.70635986,0.046875,-0.46875,0.21875
1696254984526,0.6003418,-0.19195557,-0.71343994,0.125,-0.484375,0.375
1696254984565,0.6010742,-0.1885376,-0.7061157,0.078125,-0.625,0.203125
1696254984605,0.59765625,-0.19366455,-0.71221924,0.125,-0.546875,0.265625
1696254984649,0.6101074,-0.19390869,-0.70928955,0.046875,-0.40625,0.40625
1696254984686,0.6074219,-0.18609619,-0.7107544,0.140625,-0.578125,0.40625
1696254984727,0.6003418,-0.19049072,-0.7180786,0.0,-0.609375,0.203125
1696254984766,0.6015625,-0.1873169,-0.7144165,-0.0625,-0.46875,0.40625
1696254984825,0.6044922,-0.18609619,-0.7085571,0.125,-0.609375,0.359375
1696254984844,0.5983887,-0.19488525,-0.7058716,-0.0625,-0.453125,0.40625
1696254984886,0.6035156,-0.1921997,-0.71466064,-0.015625,-0.390625,0.15625
1696254984905,0.6027832,-0.19317627,-0.71173096,0.03125,-0.546875,0.203125
1696254984945,0.60546875,-0.18951416,-0.7144165,-0.078125,-0.46875,0.3125
1696254984986,0.6032715,-0.18829346,-0.7114868,-0.125,-0.59375,0.125
1696254985026,0.60180664,-0.18682861,-0.7161255,0.03125,-0.4375,0.171875
1696254985065,0.60498047,-0.18902588,-0.7090454,-0.015625,-0.609375,0.265625
1696254985106,0.6074219,-0.19390869,-0.7090454,0.0625,-0.5625,0.359375
1696254985146,0.60595703,-0.19024658,-0.70928955,-0.0625,-0.625,0.125
1696254985207,0.6032715,-0.19171143,-0.71295166,0.109375,-0.609375,0.140625
1696254985227,0.60375977,-0.18927002,-0.710022,0.015625,-0.390625,0.28125
1696254985266,0.6044922,-0.18804932,-0.71051025,0.03125,-0.609375,0.203125
1696254985306,0.6069336,-0.19000244,-0.7139282,-0.1875,-0.421875,0.125
1696254985367,0.6088867,-0.18511963,-0.70928955,-0.109375,-0.609375,0.265625
1696254985386,0.6035156,-0.18902588,-0.71173096,0.03125,-0.390625,0.203125
1696254985427,0.60913086,-0.19366455,-0.7095337,-0.078125,-0.65625,0.234375
1696254985466,0.60180664,-0.18902588,-0.7102661,-0.03125,-0.53125,0.296875
1696254985506,0.60546875,-0.1873169,-0.71417236,-0.078125,-0.640625,0.171875
1696254985547,0.6105957,-0.18634033,-0.7070923,-0.0625,-0.609375,0.28125
1696254985587,0.60913086,-0.1873169,-0.7156372,-0.140625,-0.46875,0.09375
1696254985627,0.60595703,-0.1885376,-0.70977783,0.0625,-0.421875,0.21875
1696254985667,0.61035156,-0.19464111,-0.7136841,0.03125,-0.625,0.328125
1696254985706,0.60424805,-0.19049072,-0.71539307,-0.078125,-0.40625,0.125
1696254985747,0.61035156,-0.18707275,-0.70806885,-0.140625,-0.515625,0.21875
1696254985787,0.60253906,-0.18951416,-0.7073364,-0.0625,-0.421875,0.140625
1696254985826,0.6027832,-0.18878174,-0.71099854,-0.109375,-0.578125,0.140625
1696254985866,0.60424805,-0.1885376,-0.7078247,0.03125,-0.59375,0.140625
1696254985928,0.60375977,-0.18756104,-0.71417236,0.046875,-0.421875,0.1875
1696254985946,0.60180664,-0.18951416,-0.708313,-0.1875,-0.359375,0.0625
1696254985985,0.60668945,-0.17974854,-0.7139282,-0.03125,-0.328125,0.171875
1696254986027,0.6074219,-0.18780518,-0.70977783,0.0,-0.375,0.109375
1696254986064,0.60424805,-0.18927002,-0.7085571,-0.046875,-0.484375,0.234375
1696254986106,0.60058594,-0.18756104,-0.7161255,-0.015625,-0.296875,0.015625
1696254986147,0.6062012,-0.19073486,-0.7070923,-0.140625,-0.421875,0.125
1696254986186,0.60791016,-0.18609619,-0.7144165,-0.015625,-0.328125,0.03125
1696254986205,0.60498047,-0.18658447,-0.71539307,-0.109375,-0.265625,0.0625
1696254986267,0.6069336,-0.19146729,-0.7168579,-0.140625,-0.03125,0.0625
1696254986285,0.60546875,-0.18804932,-0.7144165,-0.140625,-0.265625,0.09375
1696254986326,0.60131836,-0.18780518,-0.7124634,-0.1875,-0.359375,0.046875
1696254986365,0.6040039,-0.19293213,-0.7085571,-0.125,-0.328125,0.078125
1696254986405,0.60546875,-0.18536377,-0.7119751,-0.140625,-0.34375,0.21875
1696254986447,0.6008301,-0.19561768,-0.7107544,-0.09375,-0.265625,-0.171875
1696254986486,0.6032715,-0.19171143,-0.7124634,-0.078125,-0.21875,0.015625
1696254986527,0.6003418,-0.19708252,-0.7112427,-0.140625,-0.34375,0.09375
1696254986566,0.5957031,-0.18487549,-0.7151489,-0.09375,-0.359375,0.28125
1696254986606,0.59814453,-0.19268799,-0.7149048,-0.171875,-0.375,0.140625
1696254986646,0.60180664,-0.18878174,-0.7144165,-0.078125,-0.46875,0.15625
1696254986686,0.6020508,-0.18243408,-0.7119751,-0.109375,-0.5,0.015625
1696254986726,0.60375977,-0.19146729,-0.71221924,-0.21875,-0.46875,0.234375
1696254986768,0.6057129,-0.18267822,-0.71221924,-0.09375,-0.359375,0.1875
1696254986804,0.6047363,-0.18536377,-0.7139282,-0.09375,-0.203125,0.203125
1696254986846,0.59643555,-0.19268799,-0.7144165,-0.125,-0.296875,0.09375
1696254986887,0.5983887,-0.18511963,-0.7149048,-0.15625,-0.25,0.15625
1696254986927,0.60498047,-0.19439697,-0.7144165,-0.234375,-0.59375,0.203125
1696254986965,0.5983887,-0.18902588,-0.71051025,-0.1875,-0.40625,0.109375
1696254987008,0.5998535,-0.19195557,-0.7085571,-0.046875,-0.4375,0.0625
1696254987047,0.6022949,-0.19171143,-0.70977783,-0.1875,-0.421875,0.21875
1696254987088,0.607666,-0.18634033,-0.7107544,0.0,-0.4375,0.0625
1696254987126,0.6032715,-0.190979,-0.7119751,0.015625,-0.40625,0.234375
1696254987167,0.6022949,-0.19000244,-0.71221924,0.078125,-0.46875,0.140625
1696254987207,0.6020508,-0.19830322,-0.71661377,-0.171875,-0.578125,0.140625
1696254987246,0.60058594,-0.19293213,-0.71099854,-0.125,-0.53125,0.234375
1696254987285,0.60498047,-0.19244385,-0.71343994,-0.046875,-0.328125,0.34375
1696254987326,0.6022949,-0.19464111,-0.7151489,0.109375,-0.625,0.171875
1696254987366,0.60058594,-0.18927002,-0.7173462,0.0,-0.546875,0.28125
1696254987410,0.60424805,-0.18658447,-0.710022,0.046875,-0.390625,0.296875
1696254987446,0.60180664,-0.19683838,-0.7149048,-0.140625,-0.6875,0.28125
1696254987466,0.6015625,-0.1963501,-0.7144165,-0.078125,-0.5,0.21875
1696254987526,0.5996094,-0.18658447,-0.71173096,-0.234375,-0.5625,0.203125
1696254987547,0.5991211,-0.18389893,-0.7127075,0.0,-0.703125,0.171875
1696254987585,0.6074219,-0.19268799,-0.7136841,0.015625,-0.484375,0.28125
1696254987626,0.611084,-0.18658447,-0.71295166,0.078125,-0.515625,0.25
1696254987666,0.6032715,-0.18511963,-0.7114868,-0.03125,-0.578125,0.328125
1696254987726,0.6047363,-0.19000244,-0.7112427,-0.078125,-0.515625,0.375
1696254987745,0.60302734,-0.19317627,-0.7144165,0.015625,-0.546875,0.453125
1696254987786,0.6069336,-0.19073486,-0.7139282,0.09375,-0.453125,0.25
1696254987827,0.6044922,-0.19049072,-0.7173462,-0.359375,-0.515625,0.28125
1696254987888,0.6081543,-0.19195557,-0.7124634,-0.171875,-0.6875,0.34375
1696254987927,0.60717773,-0.19146729,-0.71221924,-0.015625,-0.453125,0.25
1696254987965,0.6074219,-0.19537354,-0.7173462,-0.03125,-0.28125,0.3125
1696254987985,0.6062012,-0.1975708,-0.7119751,0.03125,-0.609375,0.3125
1696254988025,0.6044922,-0.18658447,-0.7139282,-0.109375,-0.4375,0.15625
1696254988089,0.6047363,-0.18243408,-0.70928955,0.0625,-0.453125,0.15625
1696254988104,0.60424805,-0.1885376,-0.70758057,-0.1875,-0.53125,0.265625
1696254988147,0.59765625,-0.19049072,-0.704895,-0.078125,-0.59375,0.171875
1696254988187,0.6064453,-0.19244385,-0.70880127,0.0,-0.453125,0.21875
1696254988249,0.6069336,-0.19000244,-0.70928955,-0.125,-0.46875,0.1875
1696254988264,0.6101074,-0.18463135,-0.7112427,-0.09375,-0.375,0.234375
1696254988306,0.60180664,-0.1897583,-0.7053833,-0.046875,-0.421875,0.125
1696254988347,0.6040039,-0.18634033,-0.7085571,-0.125,-0.421875,0.203125
1696254988386,0.6118164,-0.18756104,-0.7136841,0.0625,-0.640625,0.265625
1696254988428,0.6003418,-0.1897583,-0.71295166,-0.09375,-0.5,0.203125
1696254988466,0.609375,-0.19439697,-0.7078247,0.09375,-0.46875,0.4375
1696254988508,0.6015625,-0.18389893,-0.71173096,-0.125,-0.5,0.265625
1696254988547,0.6022949,-0.18365479,-0.7029419,0.015625,-0.46875,0.171875
1696254988610,0.5996094,-0.19683838,-0.7119751,0.09375,-0.328125,0.34375
1696254988623,0.60375977,-0.1897583,-0.7029419,0.09375,-0.578125,0.125
1696254988686,0.61206055,-0.19390869,-0.7090454,0.015625,-0.53125,0.296875
1696254988724,0.607666,-0.1885376,-0.7163696,-0.21875,-0.4375,0.140625
1696254988745,0.60375977,-0.19415283,-0.7070923,-0.015625,-0.4375,0.203125
1696254988786,0.60546875,-0.18780518,-0.70806885,-0.0625,-0.34375,0.125
1696254988805,0.6105957,-0.19000244,-0.7136841,-0.203125,-0.28125,0.109375
1696254988846,0.60595703,-0.1921997,-0.7127075,-0.140625,-0.453125,0.015625
1696254988886,0.60424805,-0.1897583,-0.70684814,-0.03125,-0.3125,0.234375
1696254988928,0.609375,-0.18634033,-0.7178345,-0.078125,-0.203125,0.171875
1696254988966,0.60375977,-0.18560791,-0.7124634,0.0,-0.4375,0.171875
1696254989007,0.60668945,-0.18902588,-0.7095337,0.0,-0.359375,0.0625
1696254989045,0.6032715,-0.19268799,-0.7102661,0.09375,-0.34375,0.15625
1696254989086,0.60546875,-0.18658447,-0.704895,-0.078125,-0.34375,0.171875
1696254989126,0.60498047,-0.18780518,-0.70562744,-0.078125,-0.34375,0.171875
1696254989167,0.6057129,-0.1921997,-0.7102661,-0.109375,-0.203125,0.078125
1696254989207,0.607666,-0.18634033,-0.71417236,-0.09375,-0.25,0.109375
1696254989245,0.5998535,-0.18829346,-0.70977783,-0.078125,-0.328125,0.125
1696254989287,0.6027832,-0.1897583,-0.71417236,0.0,-0.3125,0.28125
1696254989328,0.6032715,-0.19342041,-0.71343994,0.046875,-0.3125,0.171875
1696254989366,0.6015625,-0.19049072,-0.71466064,-0.125,-0.328125,0.171875
1696254989405,0.60791016,-0.1885376,-0.7095337,-0.046875,-0.28125,0.078125
1696254989446,0.60375977,-0.18951416,-0.70928955,0.0625,-0.515625,0.109375
1696254989491,0.6020508,-0.18878174,-0.7168579,0.015625,-0.546875,0.125
1696254989526,0.6003418,-0.19317627,-0.70684814,-0.234375,-0.53125,0.25
1696254989568,0.6027832,-0.19439697,-0.7107544,-0.0625,-0.296875,0.015625
1696254989606,0.60595703,-0.19073486,-0.71466064,0.0,-0.203125,0.046875
1696254989647,0.6047363,-0.18756104,-0.7139282,0.03125,-0.375,0.046875
1696254989687,0.6020508,-0.19317627,-0.7180786,-0.078125,-0.203125,0.203125
1696254989725,0.60058594,-0.18634033,-0.7095337,-0.015625,-0.1875,0.015625
1696254989768,0.59936523,-0.18365479,-0.7124634,-0.09375,-0.34375,0.125
1696254989806,0.5942383,-0.19171143,-0.71051025,-0.140625,-0.3125,0.015625
1696254989845,0.60498047,-0.18927002,-0.71710205,-0.25,-0.265625,0.046875
1696254989887,0.5998535,-0.1885376,-0.7127075,-0.140625,-0.65625,0.046875
1696254989927,0.6040039,-0.19171143,-0.7144165,0.09375,-0.34375,-0.015625
1696254989986,0.60791016,-0.18804932,-0.7192993,-0.109375,-0.546875,0.140625
1696254990006,0.6027832,-0.1921997,-0.7185669,-0.328125,-0.234375,0.125
1696254990049,0.60375977,-0.19171143,-0.71221924,-0.140625,-0.3125,0.140625
1696254990086,0.5932617,-0.19244385,-0.7114868,-0.21875,-0.40625,0.046875
1696254990128,0.6020508,-0.18511963,-0.7131958,-0.25,-0.53125,0.109375
1696254990144,0.60180664,-0.18829346,-0.71173096,-0.15625,-0.46875,0.109375
1696254990185,0.5996094,-0.1885376,-0.71466064,-0.09375,-0.15625,0.03125
1696254990228,0.5998535,-0.19390869,-0.7173462,-0.015625,-0.375,0.140625
1696254990287,0.59887695,-0.19171143,-0.7197876,-0.28125,-0.484375,0.140625
1696254990305,0.5996094,-0.18585205,-0.7156372,-0.171875,-0.421875,0.171875
1696254990345,0.59350586,-0.18634033,-0.7112427,-0.21875,-0.4375,0.28125
1696254990409,0.60131836,-0.19073486,-0.71759033,-0.15625,-0.421875,0.125
1696254990426,0.6020508,-0.18804932,-0.71221924,0.0625,-0.40625,0.15625
1696254990468,0.5983887,-0.1921997,-0.71539307,0.015625,-0.484375,0.21875
1696254990506,0.60009766,-0.19049072,-0.71588135,-0.03125,-0.5,0.125
1696254990546,0.6027832,-0.1987915,-0.7139282,-0.078125,-0.484375,0.21875
1696254990586,0.6062012,-0.19000244,-0.71466064,0.0,-0.640625,0.25
1696254990626,0.60546875,-0.18756104,-0.710022,-0.09375,-0.375,0.1875
1696254990665,0.5998535,-0.190979,-0.7124634,0.125,-0.515625,0.25
1696254990706,0.6047363,-0.18804932,-0.7139282,0.15625,-0.6875,0.171875
1696254990766,0.60302734,-0.19024658,-0.71099854,0.1875,-0.4375,0.234375
1696254990785,0.60668945,-0.19317627,-0.71417236,-0.015625,-0.625,0.375
1696254990848,0.6062012,-0.18878174,-0.7127075,0.0625,-0.671875,0.296875
1696254990866,0.6020508,-0.18951416,-0.7107544,-0.03125,-0.765625,0.140625
1696254990908,0.6032715,-0.18780518,-0.71099854,-0.15625,-0.828125,0.34375
1696254990948,0.60253906,-0.19073486,-0.70977783,0.078125,-0.59375,0.203125
1696254990987,0.60009766,-0.18902588,-0.7090454,0.0625,-0.75,0.328125
1696254991028,0.6032715,-0.1921997,-0.71661377,-0.234375,-0.578125,0.265625
1696254991067,0.6057129,-0.1885376,-0.7102661,-0.078125,-0.5,0.421875
1696254991108,0.6057129,-0.1873169,-0.7136841,-0.28125,-0.53125,0.21875
1696254991166,0.6057129,-0.19366455,-0.7085571,-0.21875,-0.484375,0.09375
1696254991184,0.59936523,-0.18609619,-0.7149048,-0.09375,-0.625,0.15625
1696254991228,0.60058594,-0.19024658,-0.7161255,-0.046875,-0.515625,0.234375
1696254991266,0.60668945,-0.19122314,-0.71343994,-0.046875,-0.59375,0.265625
1696254991308,0.6064453,-0.1951294,-0.7161255,-0.1875,-0.59375,0.265625
1696254991347,0.60791016,-0.18536377,-0.7190552,-0.0625,-0.453125,0.21875
1696254991385,0.6062012,-0.18414307,-0.7151489,0.09375,-0.46875,0.15625
1696254991405,0.60424805,-0.1885376,-0.7102661,0.046875,-0.578125,0.25
1696254991447,0.6069336,-0.1885376,-0.70977783,-0.09375,-0.515625,0.109375
1696254991487,0.6047363,-0.19244385,-0.71417236,-0.140625,-0.65625,0.421875
1696254991528,0.60302734,-0.18756104,-0.7078247,-0.046875,-0.5,0.21875
1696254991568,0.6040039,-0.1951294,-0.7139282,-0.0625,-0.5,0.140625
1696254991607,0.6022949,-0.19659424,-0.7107544,-0.1875,-0.625,0.15625
1696254991646,0.6047363,-0.19171143,-0.70635986,-0.0625,-0.578125,0.234375
1696254991685,0.60595703,-0.19342041,-0.70269775,-0.015625,-0.546875,0.296875
1696254991725,0.6032715,-0.18707275,-0.706604,-0.046875,-0.671875,0.140625
1696254991765,0.61279297,-0.19073486,-0.7173462,0.03125,-0.421875,0.328125
1696254991806,0.60595703,-0.19171143,-0.70977783,0.0,-0.46875,0.25
1696254991846,0.61035156,-0.18707275,-0.7127075,-0.109375,-0.265625,0.078125
1696254991885,0.60302734,-0.1885376,-0.7124634,-0.078125,-0.546875,0.140625
1696254991927,0.60595703,-0.190979,-0.71295166,-0.125,-0.515625,0.125
1696254991968,0.60375977,-0.19195557,-0.708313,-0.046875,-0.34375,0.09375
1696254992005,0.6044922,-0.19049072,-0.70758057,-0.046875,-0.46875,0.265625
1696254992048,0.61499023,-0.18414307,-0.71588135,-0.09375,-0.46875,0.15625
1696254992085,0.6027832,-0.18756104,-0.70928955,-0.09375,-0.546875,0.171875
1696254992125,0.6130371,-0.19146729,-0.7107544,-0.28125,-0.46875,0.140625
1696254992165,0.61083984,-0.18829346,-0.708313,-0.046875,-0.59375,0.171875
1696254992207,0.6098633,-0.18218994,-0.7151489,0.078125,-0.390625,0.171875
1696254992246,0.60546875,-0.18951416,-0.7131958,0.03125,-0.296875,0.015625
1696254992286,0.60717773,-0.1843872,-0.70684814,-0.046875,-0.25,0.078125
1696254992325,0.59936523,-0.18511963,-0.7124634,-0.125,-0.40625,0.15625
1696254992367,0.60791016,-0.18682861,-0.708313,-0.109375,-0.5625,0.21875
1696254992407,0.6086426,-0.18829346,-0.7124634,0.0,-0.578125,0.203125
1696254992450,0.61035156,-0.19293213,-0.71051025,0.03125,-0.34375,0.15625
1696254992485,0.6047363,-0.18756104,-0.7151489,-0.03125,-0.453125,0.09375
1696254992525,0.60546875,-0.18927002,-0.7161255,0.0,-0.4375,0.34375
1696254992566,0.6088867,-0.19000244,-0.7144165,-0.046875,-0.46875,0.328125
1696254992606,0.60302734,-0.1885376,-0.7058716,-0.3125,-0.296875,0.046875
1696254992648,0.6008301,-0.19366455,-0.7102661,-0.015625,-0.4375,0.171875
1696254992686,0.61035156,-0.19049072,-0.7151489,0.015625,-0.375,0.109375
1696254992705,0.6101074,-0.18927002,-0.7151489,0.0,-0.125,0.203125
1696254992750,0.60253906,-0.18658447,-0.7085571,-0.0625,-0.40625,0.0625
1696254992785,0.6062012,-0.19390869,-0.7178345,-0.046875,-0.265625,0.09375
1696254992826,0.60498047,-0.19000244,-0.70977783,-0.03125,-0.28125,0.046875
1696254992868,0.6008301,-0.18927002,-0.7163696,-0.03125,-0.203125,0.109375
1696254992906,0.6027832,-0.19415283,-0.7114868,-0.09375,-0.34375,0.234375
1696254992968,0.6020508,-0.19049072,-0.7119751,-0.015625,-0.484375,0.140625
1696254992984,0.6052246,-0.18609619,-0.7139282,0.015625,-0.171875,0.15625
1696254993047,0.5996094,-0.1897583,-0.71661377,-0.046875,-0.15625,0.046875
1696254993066,0.59765625,-0.19293213,-0.7131958,-0.21875,-0.28125,0.125
1696254993111,0.5996094,-0.18902588,-0.7070923,-0.171875,-0.28125,0.03125
1696254993146,0.6052246,-0.18658447,-0.7090454,-0.296875,-0.390625,-0.015625
1696254993186,0.6010742,-0.19488525,-0.7107544,-0.1875,-0.421875,0.109375
1696254993229,0.6010742,-0.19049072,-0.70758057,-0.109375,-0.34375,0.109375
1696254993266,0.5986328,-0.19122314,-0.7112427,-0.078125,-0.234375,0.171875
1696254993307,0.6022949,-0.18707275,-0.7156372,-0.03125,-0.421875,0.0625
1696254993369,0.60302734,-0.18829346,-0.71173096,-0.203125,-0.234375,0.125
1696254993383,0.6010742,-0.19049072,-0.71588135,-0.21875,-0.171875,0.140625
1696254993427,0.6035156,-0.18609619,-0.71099854,-0.140625,-0.265625,0.015625
1696254993470,0.6020508,-0.18658447,-0.7136841,-0.09375,-0.296875,0.078125
1696254993508,0.6074219,-0.1885376,-0.71099854,0.015625,-0.25,0.03125
1696254993546,0.6015625,-0.19024658,-0.7156372,-0.0625,-0.421875,0.125
1696254993585,0.6020508,-0.19293213,-0.7136841,-0.203125,-0.21875,0.125
1696254993626,0.6044922,-0.18585205,-0.71173096,-0.21875,-0.328125,-0.109375
1696254993666,0.6064453,-0.19732666,-0.7139282,-0.546875,-0.328125,-0.1875
1696254993707,0.60131836,-0.19805908,-0.71343994,-0.078125,-0.390625,0.15625
1696254993768,0.5974121,-0.19293213,-0.7114868,-0.125,-0.59375,0.078125
1696254993785,0.59643555,-0.19049072,-0.70806885,-0.1875,-0.5,0.09375
1696254993827,0.60180664,-0.18756104,-0.7131958,-0.015625,-0.5,0.234375
1696254993909,0.59814453,-0.18878174,-0.71539307,0.0625,-0.203125,0.125
1696254993916,0.5983887,-0.19146729,-0.7095337,-0.0625,-0.65625,0.234375
1696254993965,0.60498047,-0.1885376,-0.7178345,-0.0625,-0.6875,0.21875
1696254994047,0.5974121,-0.18902588,-0.710022,-0.046875,-0.375,0.15625
1696254994050,0.6027832,-0.190979,-0.72052,-0.078125,-0.40625,0.09375
1696254994053,0.60253906,-0.190979,-0.7149048,0.015625,-0.546875,0.34375
1696254994085,0.6027832,-0.1963501,-0.7149048,0.0,-0.6875,0.265625
1696254994126,0.5974121,-0.19268799,-0.7119751,0.0,-0.53125,0.125
1696254994167,0.59594727,-0.19293213,-0.7102661,-0.0625,-0.4375,0.171875
1696254994207,0.60253906,-0.19073486,-0.7139282,-0.15625,-0.640625,0.234375
1696254994245,0.60058594,-0.18756104,-0.7168579,0.09375,-0.515625,0.421875
1696254994287,0.60253906,-0.18682861,-0.7090454,-0.03125,-0.40625,0.359375
1696254994326,0.60595703,-0.18707275,-0.7156372,0.0625,-0.640625,0.15625
1696254994366,0.59814453,-0.19024658,-0.71099854,-0.109375,-0.484375,0.203125
1696254994406,0.59765625,-0.19073486,-0.7127075,-0.09375,-0.828125,0.3125
1696254994446,0.59643555,-0.18829346,-0.7107544,-0.203125,-0.53125,0.28125
1696254994488,0.6040039,-0.19586182,-0.7144165,-0.046875,-0.578125,0.203125
1696254994528,0.60498047,-0.19171143,-0.71099854,-0.09375,-0.671875,0.328125
1696254994568,0.60595703,-0.18804932,-0.7151489,0.109375,-0.453125,0.28125
1696254994610,0.6040039,-0.18682861,-0.71661377,-0.078125,-0.53125,0.3125
1696254994646,0.6003418,-0.19293213,-0.7114868,-0.09375,-0.40625,0.265625
1696254994689,0.5991211,-0.19024658,-0.70880127,0.0,-0.53125,0.359375
1696254994727,0.6052246,-0.1897583,-0.7124634,-0.125,-0.515625,0.390625
1696254994765,0.60595703,-0.19049072,-0.7085571,-0.03125,-0.390625,0.140625
1696254994806,0.6057129,-0.18756104,-0.7131958,-0.203125,-0.46875,0.171875
1696254994847,0.5969238,-0.18682861,-0.71173096,-0.09375,-0.53125,0.234375
1696254994886,0.609375,-0.1885376,-0.7061157,0.0,-0.625,0.265625
1696254994926,0.6062012,-0.18609619,-0.7168579,-0.171875,-0.5,0.234375
1696254994967,0.6010742,-0.18927002,-0.70977783,-0.125,-0.609375,0.171875
1696254995005,0.6064453,-0.19122314,-0.7102661,0.125,-0.53125,0.234375
1696254995047,0.6047363,-0.18829346,-0.7190552,-0.09375,-0.4375,0.265625
1696254995086,0.60009766,-0.18560791,-0.70928955,-0.046875,-0.546875,0.140625
1696254995127,0.5991211,-0.18682861,-0.71051025,-0.03125,-0.4375,0.375
1696254995165,0.607666,-0.18756104,-0.7070923,-0.046875,-0.640625,0.203125
1696254995206,0.6027832,-0.18634033,-0.7124634,-0.25,-0.59375,0.375
1696254995248,0.607666,-0.18951416,-0.7114868,-0.34375,-0.484375,0.265625
1696254995290,0.5998535,-0.18609619,-0.70880127,-0.0625,-0.5625,0.46875
1696254995350,0.6052246,-0.19122314,-0.71221924,0.015625,-0.59375,0.125
1696254995353,0.60498047,-0.18829346,-0.7114868,-0.03125,-0.484375,0.1875
1696254995387,0.60302734,-0.190979,-0.7163696,-0.078125,-0.328125,0.171875
1696254995489,0.6008301,-0.18829346,-0.7124634,-0.09375,-0.15625,0.140625
1696254995493,0.60424805,-0.19073486,-0.71417236,-0.1875,-0.46875,0.15625
1696254995504,0.60913086,-0.19049072,-0.7139282,-0.046875,-0.328125,0.140625
1696254995546,0.60498047,-0.19122314,-0.7136841,-0.125,-0.375,0.1875
1696254995604,0.60180664,-0.18878174,-0.71221924,-0.171875,-0.375,0.0625
1696254995627,0.6022949,-0.19537354,-0.7144165,0.015625,-0.109375,0.140625
1696254995666,0.60498047,-0.18463135,-0.71343994,-0.171875,-0.3125,0.265625
1696254995709,0.60668945,-0.18585205,-0.71099854,0.015625,-0.375,0.046875
1696254995747,0.6040039,-0.18878174,-0.71539307,-0.046875,-0.359375,0.078125
1696254995787,0.5983887,-0.19024658,-0.7173462,-0.265625,-0.3125,0.1875
1696254995825,0.6032715,-0.18951416,-0.7107544,-0.0625,-0.4375,0.21875
1696254995870,0.60009766,-0.18658447,-0.7136841,-0.09375,-0.28125,0.21875
1696254995926,0.60253906,-0.1831665,-0.71588135,-0.1875,-0.125,0.25
1696254995945,0.60180664,-0.19049072,-0.7124634,-0.046875,-0.390625,0.125
1696254995989,0.6008301,-0.19366455,-0.71417236,-0.21875,-0.390625,0.15625
1696254996025,0.60180664,-0.18145752,-0.70635986,-0.09375,-0.40625,0.1875
1696254996066,0.609375,-0.19244385,-0.7185669,-0.15625,-0.328125,0.140625
1696254996125,0.5996094,-0.18951416,-0.71099854,-0.03125,-0.21875,0.125
1696254996166,0.60595703,-0.19244385,-0.7095337,-0.09375,-0.453125,0.078125
1696254996186,0.60595703,-0.18341064,-0.7136841,0.046875,-0.28125,0.125
1696254996225,0.6040039,-0.190979,-0.71539307,-0.21875,-0.125,0.09375
1696254996288,0.60009766,-0.18951416,-0.71099854,-0.171875,-0.1875,0.203125
1696254996307,0.5974121,-0.18267822,-0.7139282,-0.34375,-0.390625,0.125
1696254996346,0.6008301,-0.18951416,-0.7102661,-0.3125,-0.1875,0.015625
1696254996386,0.5983887,-0.19049072,-0.7112427,-0.28125,-0.328125,0.234375
1696254996426,0.59814453,-0.18951416,-0.71661377,0.09375,-0.171875,0.046875
1696254996471,0.5996094,-0.19415283,-0.71710205,-0.265625,-0.28125,0.109375
1696254996507,0.60058594,-0.19073486,-0.7073364,-0.1875,-0.53125,-0.046875
1696254996546,0.60498047,-0.19122314,-0.71539307,-0.34375,-0.578125,0.0625
1696254996587,0.5974121,-0.190979,-0.70977783,-0.140625,-0.46875,0.125
1696254996648,0.60424805,-0.18804932,-0.70928955,-0.046875,-0.5625,0.15625
1696254996688,0.60180664,-0.19073486,-0.71173096,-0.1875,-0.453125,0.046875
1696254996691,0.59936523,-0.1963501,-0.7161255,-0.234375,-0.328125,0.171875
1696254996727,0.5996094,-0.19317627,-0.7163696,-0.171875,-0.296875,0.015625
1696254996769,0.6064453,-0.1963501,-0.71343994,-0.078125,-0.484375,0.0625
1696254996806,0.5991211,-0.19049072,-0.71343994,0.015625,-0.484375,0.0625
1696254996850,0.59936523,-0.19537354,-0.7156372,0.03125,-0.484375,0.0625
1696254996885,0.5986328,-0.19268799,-0.7102661,0.015625,-0.71875,0.28125
1696254996926,0.6057129,-0.19171143,-0.7161255,0.078125,-0.546875,0.234375
1696254996967,0.59765625,-0.19390869,-0.72076416,0.03125,-0.546875,0.28125
1696254997007,0.59936523,-0.19293213,-0.71295166,0.03125,-0.40625,0.171875
1696254997047,0.59936523,-0.19268799,-0.7156372,0.140625,-0.484375,0.328125
1696254997086,0.6022949,-0.19244385,-0.71588135,-0.1875,-0.6875,0.328125
1696254997125,0.60546875,-0.18707275,-0.7197876,0.0,-0.8125,0.234375
1696254997168,0.59643555,-0.19146729,-0.7178345,0.0625,-0.625,0.34375
1696254997206,0.60498047,-0.18536377,-0.71417236,-0.03125,-0.578125,0.203125
1696254997247,0.6032715,-0.18927002,-0.72052,-0.03125,-0.40625,0.265625
1696254997286,0.6010742,-0.19122314,-0.71759033,-0.03125,-0.5625,0.140625
1696254997325,0.6020508,-0.19049072,-0.7127075,0.171875,-0.796875,0.34375
1696254997365,0.5925293,-0.18878174,-0.71539307,0.0625,-0.65625,0.15625
1696254997408,0.59228516,-0.18951416,-0.7127075,0.0,-0.796875,0.21875
1696254997447,0.6032715,-0.19268799,-0.7149048,-0.015625,-0.578125,0.15625
1696254997493,0.60253906,-0.19390869,-0.7112427,0.03125,-0.421875,0.203125
1696254997524,0.6020508,-0.18804932,-0.71539307,-0.234375,-0.53125,0.15625
1696254997566,0.60302734,-0.1885376,-0.7136841,0.03125,-0.65625,0.265625
1696254997612,0.6074219,-0.1897583,-0.7144165,-0.171875,-0.3125,0.296875
1696254997647,0.59936523,-0.19537354,-0.7119751,-0.0625,-0.75,0.234375
1696254997687,0.60717773,-0.1921997,-0.7136841,-0.109375,-0.484375,0.1875
1696254997727,0.60302734,-0.18927002,-0.71051025,-0.078125,-0.6875,0.140625
1696254997768,0.60717773,-0.18536377,-0.71466064,0.046875,-0.640625,0.34375
1696254997807,0.60131836,-0.19244385,-0.7124634,-0.078125,-0.65625,0.140625
1696254997846,0.6022949,-0.19415283,-0.7127075,-0.046875,-0.6875,0.140625
1696254997889,0.60668945,-0.19024658,-0.71539307,-0.046875,-0.296875,0.21875
1696254997929,0.6064453,-0.19195557,-0.71295166,-0.140625,-0.484375,0.171875
1696254997967,0.6044922,-0.19171143,-0.71051025,-0.078125,-0.5,0.109375
1696254997984,0.6062012,-0.1885376,-0.7127075,-0.09375,-0.65625,0.28125
1696254998027,0.60546875,-0.18878174,-0.7149048,0.0625,-0.328125,0.3125
1696254998066,0.6010742,-0.19537354,-0.7127075,0.078125,-0.53125,0.28125
1696254998108,0.60302734,-0.18756104,-0.71588135,-0.046875,-0.609375,0.1875
1696254998147,0.6032715,-0.18389893,-0.71539307,0.109375,-0.46875,0.234375
1696254998187,0.6035156,-0.1873169,-0.7136841,-0.3125,-0.40625,0.234375
1696254998226,0.60302734,-0.19049072,-0.7095337,-0.125,-0.78125,0.203125
1696254998289,0.6040039,-0.18951416,-0.7144165,-0.015625,-0.53125,0.171875
1696254998305,0.6081543,-0.18927002,-0.71710205,0.046875,-0.375,0.25
1696254998367,0.6064453,-0.190979,-0.7095337,-0.03125,-0.53125,0.359375
1696254998384,0.6015625,-0.18707275,-0.7163696,0.0,-0.4375,0.140625
1696254998446,0.60595703,-0.18878174,-0.71099854,-0.1875,-0.453125,0.171875
1696254998465,0.6069336,-0.18487549,-0.71099854,-0.125,-0.546875,0.390625
1696254998509,0.6022949,-0.18804932,-0.7058716,-0.140625,-0.453125,0.296875
1696254998550,0.60791016,-0.18829346,-0.71295166,0.09375,-0.46875,0.265625
1696254998586,0.6086426,-0.18756104,-0.710022,-0.09375,-0.28125,0.171875
1696254998627,0.6074219,-0.19024658,-0.7119751,-0.125,-0.34375,0.1875
1696254998674,0.5949707,-0.19049072,-0.7124634,-0.109375,-0.21875,0.171875
1696254998707,0.6044922,-0.19171143,-0.7131958,-0.0625,-0.328125,0.203125
1696254998745,0.6040039,-0.18292236,-0.70928955,-0.109375,-0.359375,0.125
1696254998786,0.6040039,-0.1897583,-0.7156372,-0.09375,-0.390625,-0.046875
1696254998866,0.60180664,-0.18658447,-0.7197876,0.015625,-0.296875,0.21875
1696254998870,0.60791016,-0.18780518,-0.71099854,0.046875,-0.34375,0.15625
1696254998905,0.60546875,-0.19122314,-0.7192993,-0.109375,-0.3125,0.046875
1696254998947,0.6074219,-0.18560791,-0.7090454,-0.0625,-0.296875,0.125
1696254999008,0.6052246,-0.190979,-0.71173096,-0.140625,-0.3125,0.03125
1696254999025,0.6040039,-0.18878174,-0.71099854,-0.078125,-0.296875,0.046875
1696254999109,0.6008301,-0.19268799,-0.71661377,-0.078125,-0.40625,0.1875
1696254999112,0.6015625,-0.19903564,-0.7163696,-0.078125,-0.203125,-0.015625
1696254999146,0.60058594,-0.18756104,-0.7192993,-0.15625,-0.109375,0.21875
1696254999190,0.5991211,-0.1843872,-0.7156372,-0.15625,-0.265625,0.0625
1696254999228,0.60375977,-0.18878174,-0.7131958,-0.078125,-0.359375,0.078125
1696254999290,0.5998535,-0.19317627,-0.70977783,-0.171875,-0.375,0.109375
1696254999307,0.6101074,-0.19268799,-0.7127075,-0.15625,-0.328125,0.0625
1696254999325,0.6008301,-0.19073486,-0.71466064,-0.0625,-0.3125,0.21875
1696254999368,0.60009766,-0.19415283,-0.71343994,-0.03125,-0.25,0.15625
1696254999407,0.6044922,-0.18927002,-0.7149048,0.125,-0.34375,0.109375
1696254999447,0.60302734,-0.19293213,-0.71588135,-0.09375,-0.296875,0.09375
1696254999488,0.5998535,-0.18707275,-0.71954346,-0.171875,-0.15625,0.046875
1696254999527,0.5996094,-0.19049072,-0.71099854,0.0,-0.359375,0.15625
1696254999566,0.5991211,-0.19268799,-0.71588135,-0.15625,-0.609375,0.140625
1696254999609,0.6015625,-0.1921997,-0.71759033,-0.203125,-0.484375,0.21875
1696254999644,0.5969238,-0.19073486,-0.70928955,-0.109375,-0.390625,0.203125
1696254999687,0.60253906,-0.19317627,-0.7119751,-0.234375,-0.28125,-0.0625
1696254999730,0.6027832,-0.19049072,-0.71417236,-0.078125,-0.390625,0.078125
1696254999766,0.60498047,-0.1885376,-0.7136841,-0.046875,-0.46875,0.140625
1696254999806,0.5979004,-0.19366455,-0.7178345,-0.140625,-0.34375,0.25
1696254999845,0.5991211,-0.19464111,-0.7090454,-0.234375,-0.34375,0.375
1696254999887,0.6010742,-0.18243408,-0.7163696,-0.0625,-0.5625,0.234375
1696254999928,0.6003418,-0.19000244,-0.7151489,-0.015625,-0.453125,0.171875
1696254999966,0.60253906,-0.19293213,-0.7197876,0.015625,-0.484375,0.21875
1696255000007,0.5983887,-0.19244385,-0.71295166,-0.015625,-0.609375,0.390625
1696255000046,0.6010742,-0.1897583,-0.7112427,0.09375,-0.5625,0.3125
1696255000086,0.59399414,-0.18756104,-0.70806885,0.03125,-0.578125,0.40625
1696255000126,0.60058594,-0.18634033,-0.72076416,-0.21875,-0.265625,0.15625
1696255000165,0.6008301,-0.19171143,-0.70880127,0.09375,-0.46875,0.328125
1696255000207,0.6047363,-0.18487549,-0.7149048,0.03125,-0.765625,0.078125
1696255000246,0.6003418,-0.19342041,-0.7185669,0.0625,-0.484375,0.203125
1696255000288,0.6022949,-0.18682861,-0.71343994,0.03125,-0.421875,0.296875
1696255000326,0.59936523,-0.190979,-0.7112427,-0.046875,-0.578125,0.203125
1696255000366,0.5998535,-0.19073486,-0.70806885,-0.453125,-0.5625,0.28125
1696255000406,0.60180664,-0.1873169,-0.71710205,-0.03125,-0.515625,0.40625
1696255000446,0.6003418,-0.18756104,-0.7112427,-0.015625,-0.65625,0.265625
1696255000490,0.6015625,-0.18585205,-0.71343994,-0.015625,-0.53125,0.15625
1696255000528,0.5998535,-0.18682861,-0.7095337,0.171875,-0.625,0.359375
1696255000566,0.6035156,-0.18780518,-0.7131958,0.046875,-0.375,0.375
1696255000585,0.60595703,-0.18780518,-0.70928955,-0.078125,-0.5,0.328125
1696255000626,0.6035156,-0.18487549,-0.71343994,-0.328125,-0.5,0.0625
1696255000688,0.6032715,-0.19342041,-0.7124634,-0.203125,-0.671875,0.09375
1696255000705,0.60180664,-0.18829346,-0.71661377,0.015625,-0.71875,0.296875
1696255000747,0.6105957,-0.19390869,-0.7131958,-0.0625,-0.53125,0.265625
1696255000787,0.6027832,-0.18389893,-0.70928955,0.078125,-0.484375,0.296875
1696255000827,0.60668945,-0.18902588,-0.70513916,0.03125,-0.484375,0.265625
1696255000866,0.60595703,-0.18341064,-0.7119751,-0.125,-0.671875,0.3125
1696255000905,0.60180664,-0.18902588,-0.71417236,-0.109375,-0.46875,0.25
1696255000947,0.6062012,-0.18536377,-0.7085571,-0.03125,-0.4375,0.1875
1696255000987,0.60546875,-0.19073486,-0.71417236,-0.125,-0.4375,0.171875
1696255001026,0.60717773,-0.1843872,-0.71343994,0.0625,-0.578125,0.1875
1696255001065,0.60131836,-0.19244385,-0.7112427,-0.109375,-0.5625,0.328125
1696255001107,0.6047363,-0.18707275,-0.7180786,-0.15625,-0.453125,0.1875
1696255001148,0.6010742,-0.18804932,-0.71417236,-0.140625,-0.546875,0.015625
1696255001189,0.60668945,-0.18658447,-0.706604,-0.171875,-0.640625,0.140625
1696255001226,0.6035156,-0.18487549,-0.7163696,-0.1875,-0.421875,0.171875
1696255001265,0.6098633,-0.18927002,-0.71173096,-0.125,-0.5625,0.21875
1696255001328,0.60839844,-0.1885376,-0.71661377,-0.03125,-0.28125,0.046875
1696255001346,0.6015625,-0.18463135,-0.7112427,-0.1875,-0.359375,0.234375
1696255001386,0.6088867,-0.18560791,-0.710022,0.0,-0.5,0.203125
1696255001427,0.60961914,-0.18951416,-0.7107544,-0.203125,-0.453125,0.1875
1696255001465,0.5979004,-0.19366455,-0.70684814,-0.125,-0.546875,0.0625
1696255001507,0.6044922,-0.18927002,-0.71099854,-0.0625,-0.53125,0.125
1696255001547,0.6057129,-0.18634033,-0.7180786,-0.09375,-0.359375,0.25
1696255001586,0.60253906,-0.18658447,-0.7112427,-0.109375,-0.53125,0.125
1696255001628,0.6015625,-0.19342041,-0.7078247,0.046875,-0.578125,0.359375
1696255001665,0.6044922,-0.19317627,-0.7131958,-0.140625,-0.546875,0.21875
1696255001727,0.6064453,-0.1897583,-0.70318604,-0.078125,-0.546875,0.09375
1696255001745,0.6044922,-0.18341064,-0.70684814,-0.015625,-0.25,0.1875
1696255001809,0.6081543,-0.18756104,-0.7139282,0.171875,-0.390625,0.09375
1696255001825,0.611084,-0.18609619,-0.7124634,-0.125,-0.390625,0.15625
1696255001886,0.6081543,-0.18414307,-0.71295166,0.03125,-0.140625,0.25
1696255001905,0.60180664,-0.18658447,-0.7136841,-0.125,-0.375,0.125
1696255001925,0.5983887,-0.18463135,-0.71173096,-0.171875,-0.375,0.03125
1696255001968,0.5996094,-0.19732666,-0.70758057,-0.140625,-0.453125,0.203125
1696255002006,0.60302734,-0.19122314,-0.71710205,-0.03125,-0.28125,0.078125
1696255002047,0.6032715,-0.19146729,-0.7107544,-0.25,-0.515625,0.171875
1696255002086,0.60546875,-0.1885376,-0.71051025,0.09375,-0.1875,0.0625
1696255002126,0.6015625,-0.19122314,-0.7161255,0.015625,-0.28125,0.140625
1696255002187,0.60498047,-0.1921997,-0.71539307,-0.03125,-0.34375,0.15625
1696255002205,0.6015625,-0.19171143,-0.71221924,-0.109375,-0.3125,0.140625
1696255002246,0.59643555,-0.18804932,-0.708313,-0.140625,-0.296875,0.21875
1696255002286,0.6035156,-0.19146729,-0.71173096,-0.1875,-0.46875,0.015625
1696255002327,0.6032715,-0.18634033,-0.7078247,-0.078125,-0.34375,0.015625
1696255002370,0.6044922,-0.1975708,-0.71832275,0.03125,-0.15625,0.15625
1696255002405,0.5998535,-0.19293213,-0.7139282,0.0,-0.34375,0.0625
1696255002446,0.5966797,-0.19464111,-0.708313,-0.21875,-0.203125,0.25
1696255002485,0.5979004,-0.18389893,-0.7107544,-0.109375,-0.375,-0.0625
1696255002526,0.59814453,-0.18927002,-0.71539307,-0.234375,-0.21875,0.03125
1696255002565,0.59814453,-0.1885376,-0.71539307,-0.09375,-0.34375,0.140625
1696255002607,0.6035156,-0.19317627,-0.7161255,-0.078125,-0.46875,0.078125
1696255002648,0.60131836,-0.1885376,-0.71710205,-0.046875,-0.484375,0.0
1696255002686,0.5991211,-0.18756104,-0.7131958,-0.125,-0.21875,0.125
1696255002725,0.60180664,-0.18634033,-0.70977783,-0.203125,-0.28125,0.140625
1696255002765,0.59375,-0.19000244,-0.7168579,-0.375,-0.375,0.046875
1696255002806,0.5983887,-0.19415283,-0.7070923,-0.203125,-0.359375,0.21875
1696255002849,0.5966797,-0.1873169,-0.71173096,-0.140625,-0.375,0.125
1696255002908,0.59936523,-0.18585205,-0.7185669,-0.15625,-0.296875,0.03125
1696255002925,0.5974121,-0.19830322,-0.7127075,-0.25,-0.4375,0.015625
1696255002966,0.5986328,-0.1831665,-0.7136841,-0.171875,-0.46875,0.171875
1696255003006,0.59765625,-0.18878174,-0.70758057,-0.3125,-0.234375,0.140625
1696255003046,0.5979004,-0.19195557,-0.7114868,-0.28125,-0.59375,0.171875
1696255003088,0.5998535,-0.1963501,-0.71466064,-0.046875,-0.546875,0.109375
1696255003127,0.59716797,-0.18560791,-0.7107544,-0.234375,-0.390625,0.234375
1696255003166,0.6047363,-0.19146729,-0.7139282,0.0,-0.40625,0.234375
1696255003208,0.59887695,-0.19317627,-0.71954346,-0.015625,-0.578125,0.203125
1696255003225,0.60253906,-0.19464111,-0.7168579,0.0,-0.421875,0.21875
1696255003288,0.6057129,-0.19805908,-0.7119751,0.125,-0.46875,0.1875
1696255003306,0.59765625,-0.1951294,-0.71588135,-0.09375,-0.421875,0.21875
1696255003370,0.60424805,-0.19049072,-0.71051025,0.0,-0.59375,0.1875
1696255003384,0.6044922,-0.18780518,-0.71343994,-0.046875,-0.578125,0.1875
1696255003427,0.6020508,-0.19342041,-0.71295166,0.015625,-0.375,0.1875
1696255003472,0.6020508,-0.19122314,-0.7127075,-0.015625,-0.625,0.328125
1696255003528,0.59716797,-0.18951416,-0.71759033,-0.09375,-0.71875,0.421875
1696255003546,0.60253906,-0.18927002,-0.70928955,-0.078125,-0.609375,0.34375
1696255003608,0.6032715,-0.19488525,-0.7144165,0.03125,-0.5625,0.3125
1696255003626,0.60424805,-0.19073486,-0.71588135,-0.03125,-0.609375,0.171875
1696255003666,0.607666,-0.19439697,-0.71173096,0.03125,-0.609375,0.21875
1696255003707,0.6027832,-0.19049072,-0.71539307,0.046875,-0.4375,0.234375
1696255003747,0.6035156,-0.19268799,-0.7180786,-0.015625,-0.4375,0.328125
1696255003784,0.5991211,-0.19049072,-0.71417236,-0.25,-0.59375,0.21875
1696255003826,0.5974121,-0.19024658,-0.71466064,-0.0625,-0.453125,0.0625
1696255003869,0.6044922,-0.19024658,-0.71343994,0.140625,-0.734375,0.28125
1696255003931,0.6027832,-0.19049072,-0.7214966,-0.046875,-0.453125,0.328125
1696255003946,0.60131836,-0.18927002,-0.70758057,-0.0625,-0.640625,0.34375
1696255004008,0.60546875,-0.19342041,-0.7234497,-0.0625,-0.453125,0.296875
1696255004025,0.5974121,-0.18609619,-0.7085571,-0.125,-0.640625,0.296875
1696255004086,0.6040039,-0.18780518,-0.71417236,-0.21875,-0.5625,0.15625
1696255004127,0.5996094,-0.18536377,-0.7102661,0.09375,-0.5,0.203125
1696255004144,0.6035156,-0.18682861,-0.7144165,-0.15625,-0.46875,0.109375
1696255004185,0.6088867,-0.18487549,-0.71417236,0.15625,-0.46875,0.171875
1696255004247,0.6086426,-0.19000244,-0.7124634,-0.09375,-0.53125,0.140625
1696255004266,0.6032715,-0.18927002,-0.7127075,-0.171875,-0.375,0.15625
1696255004306,0.609375,-0.19268799,-0.7139282,-0.234375,-0.46875,0.15625
1696255004370,0.60546875,-0.19854736,-0.7107544,-0.03125,-0.609375,0.296875
1696255004385,0.6074219,-0.19073486,-0.7114868,-0.109375,-0.5,0.203125
1696255004427,0.60180664,-0.18902588,-0.71051025,-0.015625,-0.578125,0.265625
1696255004466,0.6130371,-0.18951416,-0.70977783,0.015625,-0.453125,0.375
1696255004507,0.60253906,-0.19122314,-0.7119751,0.015625,-0.609375,0.265625
1696255004546,0.60253906,-0.19342041,-0.70977783,-0.03125,-0.4375,0.359375
1696255004564,0.61206055,-0.1885376,-0.7095337,0.109375,-0.640625,0.453125
1696255004606,0.6047363,-0.18658447,-0.70880127,-0.28125,-0.453125,0.03125
1696255004647,0.6044922,-0.18878174,-0.7124634,-0.0625,-0.375,0.203125
1696255004688,0.6062012,-0.18536377,-0.71710205,0.0,-0.578125,0.234375
1696255004725,0.6035156,-0.19073486,-0.7139282,-0.09375,-0.4375,0.296875
1696255004769,0.6074219,-0.18804932,-0.71588135,0.109375,-0.40625,0.296875
1696255004806,0.60546875,-0.19024658,-0.7114868,-0.015625,-0.484375,0.140625
1696255004846,0.6047363,-0.18804932,-0.7112427,0.0625,-0.546875,0.234375
1696255004888,0.6044922,-0.18756104,-0.7149048,-0.140625,-0.296875,0.125
1696255004927,0.6035156,-0.18780518,-0.71173096,-0.03125,-0.640625,0.25
1696255004965,0.6035156,-0.18707275,-0.7124634,-0.03125,-0.328125,0.328125
1696255005007,0.6044922,-0.19073486,-0.7102661,-0.140625,-0.421875,0.171875
1696255005049,0.6035156,-0.18023682,-0.7131958,-0.046875,-0.25,0.171875
1696255005086,0.60180664,-0.19122314,-0.71343994,0.109375,-0.484375,0.125
1696255005128,0.6003418,-0.18829346,-0.70977783,-0.015625,-0.390625,0.234375
1696255005167,0.6069336,-0.18756104,-0.7127075,-0.203125,-0.3125,0.1875
1696255005207,0.6010742,-0.19073486,-0.7144165,-0.296875,-0.28125,0.28125
1696255005246,0.6020508,-0.18511963,-0.7190552,-0.03125,-0.25,0.203125
1696255005288,0.6062012,-0.18585205,-0.71221924,0.046875,-0.421875,0.140625
1696255005327,0.60595703,-0.18414307,-0.7173462,-0.203125,-0.328125,0.0
1696255005368,0.60131836,-0.18487549,-0.7149048,-0.125,-0.4375,0.15625
1696255005406,0.6027832,-0.19317627,-0.7112427,-0.1875,-0.1875,-0.046875
1696255005447,0.6086426,-0.18902588,-0.71417236,-0.125,-0.296875,-0.0625
1696255005487,0.6062012,-0.19171143,-0.708313,-0.234375,-0.15625,0.171875
1696255005526,0.60009766,-0.1819458,-0.7112427,-0.09375,-0.25,0.078125
1696255005566,0.59716797,-0.19390869,-0.71221924,-0.140625,-0.125,0.046875
1696255005606,0.59814453,-0.18463135,-0.70758057,-0.078125,-0.296875,0.09375
1696255005647,0.60424805,-0.1921997,-0.7107544,-0.171875,-0.328125,0.203125
1696255005687,0.60302734,-0.19171143,-0.7127075,-0.265625,-0.25,0.0625
1696255005726,0.60791016,-0.18682861,-0.7107544,0.09375,-0.46875,0.125
1696255005766,0.59375,-0.18585205,-0.7163696,-0.046875,-0.375,0.0625
1696255005806,0.6015625,-0.18365479,-0.7149048,-0.03125,-0.453125,0.1875
1696255005849,0.5998535,-0.1897583,-0.72003174,-0.078125,-0.328125,0.171875
1696255005866,0.60253906,-0.18927002,-0.7185669,-0.140625,-0.296875,0.203125
1696255005904,0.6003418,-0.18682861,-0.71710205,-0.140625,-0.375,0.109375
1696255005946,0.6008301,-0.18389893,-0.71417236,-0.25,-0.453125,0.171875
1696255005990,0.6035156,-0.1897583,-0.7090454,-0.15625,-0.546875,0.171875
1696255006026,0.60302734,-0.18927002,-0.71539307,-0.09375,-0.421875,0.28125
1696255006065,0.5974121,-0.19024658,-0.7178345,-0.109375,-0.328125,0.234375
1696255006124,0.6003418,-0.19293213,-0.71343994,-0.125,-0.359375,0.1875
1696255006144,0.60058594,-0.19439697,-0.7197876,-0.03125,-0.4375,0.203125
1696255006205,0.6003418,-0.18511963,-0.71588135,-0.109375,-0.546875,0.125
1696255006231,0.59643555,-0.19268799,-0.7078247,-0.046875,-0.484375,0.234375
1696255006268,0.60009766,-0.19488525,-0.71221924,-0.1875,-0.25,0.078125
1696255006326,0.6003418,-0.19293213,-0.71099854,-0.03125,-0.5,0.25
1696255006347,0.60302734,-0.1885376,-0.7119751,0.078125,-0.703125,0.296875
1696255006386,0.60058594,-0.18927002,-0.7149048,0.015625,-0.546875,0.171875
1696255006448,0.60375977,-0.18682861,-0.7190552,0.0625,-0.546875,0.40625
1696255006466,0.5991211,-0.190979,-0.7144165,0.046875,-0.59375,0.375
1696255006504,0.59814453,-0.18634033,-0.71881104,0.03125,-0.640625,0.3125
1696255006568,0.6035156,-0.190979,-0.71173096,-0.140625,-0.5,0.203125
1696255006587,0.5996094,-0.19122314,-0.71295166,0.0625,-0.703125,0.171875
1696255006627,0.5986328,-0.19366455,-0.71417236,-0.125,-0.5,0.109375
1696255006668,0.6047363,-0.18536377,-0.7139282,-0.09375,-0.625,0.3125
1696255006706,0.60302734,-0.19317627,-0.71417236,0.078125,-0.6875,0.1875
1696255006747,0.6027832,-0.18634033,-0.71295166,-0.125,-0.578125,0.1875
1696255006786,0.5974121,-0.18658447,-0.71221924,-0.109375,-0.46875,0.171875
1696255006849,0.60058594,-0.19244385,-0.7085571,-0.109375,-0.5,0.125
1696255006865,0.60253906,-0.18780518,-0.71295166,-0.140625,-0.6875,0.375
1696255006906,0.60546875,-0.18658447,-0.70928955,-0.03125,-0.5,0.421875
1696255006968,0.6032715,-0.1897583,-0.71099854,-0.078125,-0.578125,0.34375
1696255007006,0.60302734,-0.19415283,-0.7102661,-0.125,-0.515625,0.28125
1696255007026,0.6074219,-0.19146729,-0.7156372,-0.046875,-0.515625,0.25
1696255007089,0.6010742,-0.190979,-0.71173096,0.03125,-0.578125,0.375
1696255007105,0.6032715,-0.18487549,-0.71539307,-0.21875,-0.390625,0.25
1696255007170,0.6032715,-0.19244385,-0.71661377,-0.046875,-0.46875,0.21875
1696255007186,0.60302734,-0.18658447,-0.7168579,0.015625,-0.515625,0.421875
1696255007207,0.60839844,-0.19049072,-0.7202759,-0.140625,-0.421875,0.171875
1696255007246,0.6035156,-0.19317627,-0.7119751,-0.1875,-0.515625,0.171875
1696255007287,0.6040039,-0.19073486,-0.7139282,0.078125,-0.5625,0.09375
1696255007326,0.6027832,-0.18927002,-0.7139282,-0.078125,-0.453125,0.296875
1696255007366,0.6040039,-0.19122314,-0.71759033,0.015625,-0.578125,0.203125
1696255007409,0.6020508,-0.19195557,-0.7136841,0.046875,-0.59375,0.046875
1696255007448,0.6008301,-0.18585205,-0.7131958,-0.125,-0.390625,0.171875
1696255007489,0.6047363,-0.19122314,-0.7149048,-0.140625,-0.40625,0.171875
1696255007529,0.60498047,-0.1897583,-0.7107544,-0.203125,-0.40625,0.1875
1696255007568,0.5998535,-0.18951416,-0.71295166,0.125,-0.484375,0.21875
1696255007608,0.61450195,-0.1807251,-0.7131958,0.015625,-0.453125,0.21875
1696255007646,0.60253906,-0.1795044,-0.71173096,0.0625,-0.46875,0.1875
1696255007685,0.60424805,-0.18927002,-0.7107544,-0.15625,-0.4375,0.296875
1696255007726,0.60180664,-0.1873169,-0.7144165,-0.203125,-0.421875,0.265625
1696255007767,0.5998535,-0.1897583,-0.7149048,-0.09375,-0.734375,0.140625
1696255007826,0.60375977,-0.19049072,-0.7139282,-0.03125,-0.65625,0.15625
1696255007845,0.6044922,-0.19049072,-0.71173096,0.03125,-0.5,0.09375
1696255007887,0.6052246,-0.1873169,-0.72052,-0.0625,-0.484375,0.265625
1696255007925,0.6020508,-0.18878174,-0.71295166,-0.1875,-0.484375,0.203125
1696255007968,0.6074219,-0.19293213,-0.7131958,-0.015625,-0.21875,0.21875
1696255008008,0.6098633,-0.19268799,-0.7144165,0.0,-0.40625,0.203125
1696255008047,0.6052246,-0.1885376,-0.7124634,0.046875,-0.5,0.171875
1696255008088,0.60791016,-0.18682861,-0.7144165,-0.140625,-0.546875,0.21875
1696255008126,0.60058594,-0.18756104,-0.7131958,0.0,-0.390625,0.109375
1696255008166,0.60009766,-0.19073486,-0.71710205,-0.078125,-0.34375,0.125
1696255008207,0.6052246,-0.18658447,-0.7151489,-0.078125,-0.5,0.125
1696255008249,0.6118164,-0.1831665,-0.71539307,-0.078125,-0.171875,0.328125
1696255008288,0.6010742,-0.18804932,-0.70977783,-0.109375,-0.328125,0.171875
1696255008327,0.6064453,-0.18756104,-0.7112427,-0.140625,-0.296875,0.15625
1696255008367,0.6032715,-0.18218994,-0.71173096,-0.046875,-0.171875,0.171875
1696255008406,0.60498047,-0.18878174,-0.7131958,-0.15625,-0.203125,0.015625
1696255008447,0.60302734,-0.1921997,-0.7131958,-0.046875,-0.328125,0.109375
1696255008487,0.60498047,-0.18780518,-0.72003174,-0.078125,-0.34375,0.125
1696255008531,0.6069336,-0.18585205,-0.7136841,0.0,-0.375,0.046875
1696255008546,0.59936523,-0.18560791,-0.7178345,-0.234375,-0.390625,-0.046875
1696255008586,0.5996094,-0.18756104,-0.7139282,-0.078125,-0.265625,0.296875
1696255008627,0.6020508,-0.18658447,-0.71343994,-0.25,-0.34375,0.09375
1696255008667,0.595459,-0.1963501,-0.70440674,-0.203125,-0.5,0.109375
1696255008706,0.6027832,-0.1921997,-0.7124634,-0.046875,-0.28125,0.21875
1696255008748,0.60375977,-0.18682861,-0.7139282,-0.1875,-0.28125,0.28125
1696255008789,0.6010742,-0.190979,-0.7156372,-0.203125,-0.296875,0.109375
1696255008828,0.6040039,-0.18487549,-0.71539307,-0.1875,-0.15625,-0.015625
1696255008868,0.5969238,-0.18804932,-0.71759033,0.015625,-0.265625,0.140625
1696255008908,0.60839844,-0.18951416,-0.71051025,-0.015625,-0.34375,0.21875
1696255008946,0.59887695,-0.19146729,-0.71661377,-0.015625,-0.1875,0.09375
1696255008988,0.60131836,-0.19195557,-0.71295166,-0.046875,-0.1875,-0.046875
1696255009027,0.60253906,-0.18536377,-0.71417236,-0.15625,-0.375,0.015625
1696255009066,0.60375977,-0.18902588,-0.7173462,-0.1875,-0.3125,0.078125
1696255009106,0.5974121,-0.19122314,-0.7178345,-0.171875,-0.3125,0.125
1696255009168,0.6010742,-0.18829346,-0.71295166,-0.15625,-0.296875,0.28125
1696255009185,0.5979004,-0.18292236,-0.7163696,0.140625,-0.296875,0.234375
1696255009248,0.59716797,-0.19049072,-0.7168579,-0.015625,-0.296875,0.03125
1696255009265,0.6081543,-0.19000244,-0.7149048,-0.265625,-0.3125,0.046875
1696255009307,0.5944824,-0.1951294,-0.70806885,0.125,-0.359375,0.09375
1696255009346,0.5983887,-0.18560791,-0.7168579,-0.265625,-0.421875,0.203125
1696255009387,0.6027832,-0.19000244,-0.7161255,-0.140625,-0.34375,0.046875
1696255009426,0.5998535,-0.18902588,-0.71466064,-0.265625,-0.1875,0.078125
1696255009487,0.60131836,-0.18804932,-0.722229,-0.25,-0.296875,0.125
1696255009505,0.60302734,-0.19586182,-0.71221924,-0.328125,-0.546875,0.046875
1696255009548,0.6020508,-0.19537354,-0.70977783,-0.0625,-0.484375,0.28125
1696255009586,0.59887695,-0.18878174,-0.72052,0.109375,-0.59375,0.234375
1696255009626,0.6047363,-0.1897583,-0.7119751,0.0,-0.4375,0.15625
1696255009670,0.60180664,-0.18682861,-0.7229614,-0.03125,-0.625,0.25
1696255009706,0.6044922,-0.1897583,-0.7149048,-0.078125,-0.59375,0.234375
1696255009770,0.6057129,-0.18780518,-0.71881104,-0.015625,-0.59375,0.15625
1696255009786,0.6020508,-0.1843872,-0.7139282,-0.0625,-0.546875,0.34375
1696255009807,0.5986328,-0.18951416,-0.71099854,-0.1875,-0.609375,0.21875
1696255009848,0.6015625,-0.1921997,-0.71661377,-0.109375,-0.4375,0.265625
1696255009886,0.60253906,-0.19342041,-0.7180786,0.15625,-0.484375,0.3125
1696255009925,0.60546875,-0.19122314,-0.71099854,-0.03125,-0.375,0.15625
1696255009967,0.60180664,-0.19122314,-0.7178345,-0.140625,-0.65625,0.34375
1696255010008,0.5961914,-0.18487549,-0.7144165,-0.015625,-0.515625,0.078125
1696255010045,0.6008301,-0.19366455,-0.71051025,-0.140625,-0.6875,0.03125
1696255010086,0.60546875,-0.19317627,-0.7197876,-0.09375,-0.4375,0.1875
1696255010126,0.60009766,-0.19171143,-0.7090454,0.046875,-0.71875,0.328125
1696255010166,0.6064453,-0.19049072,-0.7190552,-0.21875,-0.640625,0.359375
1696255010207,0.60009766,-0.18658447,-0.7161255,0.078125,-0.5,0.21875
1696255010246,0.5996094,-0.18560791,-0.7156372,-0.046875,-0.609375,0.25
1696255010286,0.6044922,-0.18829346,-0.7151489,-0.140625,-0.453125,0.140625
1696255010327,0.59521484,-0.1921997,-0.710022,-0.21875,-0.59375,0.140625
1696255010366,0.5969238,-0.19122314,-0.7114868,0.0,-0.546875,0.265625
1696255010405,0.60131836,-0.19390869,-0.71295166,-0.046875,-0.5625,0.1875
