# Sensor type: Respeck
# Activity type: Lying down right
# Activity subtype: Normal
# Subject id: s2106809
# Notes: unprocessed
timestamp,accel_x,accel_y,accel_z,gyro_x,gyro_y,gyro_z
1696254867181,0.6870117,-0.13848877,0.7382202,0.140625,-0.140625,0.03125
1696254867220,0.69189453,-0.13848877,0.7399292,0.0,-0.25,0.359375
1696254867261,0.69311523,-0.13848877,0.7374878,-0.390625,-0.625,0.15625
1696254867301,0.69018555,-0.14337158,0.7333374,-0.421875,-0.71875,0.03125
1696254867341,0.6933594,-0.13995361,0.73773193,-0.953125,-0.875,0.390625
1696254867382,0.689209,-0.14337158,0.74261475,-1.078125,-2.0625,0.3125
1696254867441,0.67871094,-0.1428833,0.7411499,-2.546875,-3.90625,-0.140625
1696254867460,0.6911621,-0.12799072,0.75042725,-2.421875,-2.6875,-0.484375
1696254867523,0.6867676,-0.13067627,0.74627686,-1.296875,-0.890625,-0.171875
1696254867541,0.68603516,-0.12872314,0.75335693,0.09375,-0.578125,0.515625
1696254867602,0.6779785,-0.13433838,0.74920654,-0.71875,-2.09375,0.515625
1696254867623,0.67211914,-0.13555908,0.7484741,-1.375,-2.484375,0.109375
1696254867663,0.673584,-0.13189697,0.7489624,-0.625,-1.03125,0.359375
1696254867722,0.67626953,-0.13092041,0.75286865,-0.046875,-0.984375,0.546875
1696254867762,0.67578125,-0.12506104,0.7514038,-0.296875,-1.5,0.375
1696254867801,0.6750488,-0.1260376,0.75335693,-1.015625,-1.546875,0.328125
1696254867822,0.68115234,-0.124816895,0.7575073,-0.796875,-1.296875,0.4375
1696254867884,0.6743164,-0.12896729,0.7562866,-0.984375,-1.40625,0.109375
1696254867888,0.6777344,-0.12286377,0.7543335,-1.296875,-1.796875,-0.03125
1696254867924,0.68115234,-0.12799072,0.763855,-0.4375,-1.0,0.28125
1696254867962,0.6738281,-0.13433838,0.7626343,0.65625,-0.859375,0.109375
1696254868001,0.6687012,-0.12554932,0.7609253,0.171875,-1.109375,0.078125
1696254868044,0.66748047,-0.120666504,0.7626343,-0.640625,-1.375,0.09375
1696254868082,0.67285156,-0.11602783,0.7584839,-0.484375,-1.234375,-0.046875
1696254868121,0.670166,-0.12554932,0.75946045,-0.5625,-0.953125,0.3125
1696254868162,0.6647949,-0.12750244,0.7584839,-0.734375,-1.15625,0.265625
1696254868202,0.67163086,-0.12164307,0.7704468,-0.28125,-1.25,0.171875
1696254868242,0.66552734,-0.1272583,0.7601929,-0.078125,-1.125,0.421875
1696254868283,0.66503906,-0.12774658,0.7628784,-0.40625,-1.8125,0.265625
1696254868323,0.6635742,-0.11920166,0.76727295,-1.609375,-2.75,0.046875
1696254868362,0.6628418,-0.12188721,0.7645874,-2.40625,-2.90625,-0.171875
1696254868403,0.66674805,-0.11431885,0.77508545,-1.0,-1.390625,-0.125
1696254868441,0.6677246,-0.12213135,0.777771,0.453125,-0.84375,0.109375
1696254868485,0.65893555,-0.11846924,0.7687378,-1.0625,-1.453125,0.296875
1696254868522,0.6557617,-0.11431885,0.77337646,-0.5,-0.53125,0.3125
1696254868562,0.6608887,-0.12677002,0.7741089,0.859375,-0.578125,0.546875
1696254868602,0.65600586,-0.11773682,0.77337646,-0.4375,-0.5,0.25
1696254868642,0.6591797,-0.11553955,0.77459717,-1.03125,-0.765625,0.15625
1696254868703,0.6569824,-0.10797119,0.7699585,-0.203125,-0.546875,0.0625
1696254868721,0.65600586,-0.11407471,0.7658081,-0.09375,0.125,0.296875
1696254868763,0.65722656,-0.11846924,0.77557373,-0.203125,-0.65625,0.328125
1696254868801,0.66015625,-0.11920166,0.7704468,0.359375,-0.65625,0.125
1696254868842,0.65844727,-0.11138916,0.7699585,0.71875,-0.5625,-0.015625
1696254868882,0.65649414,-0.11773682,0.77215576,0.46875,-1.109375,0.203125
1696254868921,0.65283203,-0.11895752,0.77630615,-1.078125,-1.84375,-0.09375
1696254868975,0.66186523,-0.113586426,0.7748413,-1.296875,-1.5,-0.25
1696254869001,0.6582031,-0.109680176,0.77752686,-0.53125,-0.265625,-0.078125
1696254869041,0.6557617,-0.113342285,0.7770386,0.09375,-0.109375,0.015625
1696254869083,0.65966797,-0.1194458,0.77142334,-0.125,-0.65625,0.109375
1696254869122,0.65600586,-0.117492676,0.7699585,-0.328125,0.34375,0.125
1696254869163,0.6542969,-0.12432861,0.77801514,0.953125,1.078125,0.375
1696254869183,0.657959,-0.117004395,0.7723999,1.234375,0.6875,-0.21875
1696254869244,0.6557617,-0.1182251,0.7741089,0.609375,0.859375,-0.390625
1696254869263,0.66748047,-0.11505127,0.77020264,0.40625,0.75,-0.09375
1696254869326,0.6765137,-0.12017822,0.7723999,0.578125,0.890625,0.15625
1696254869342,0.66918945,-0.12774658,0.76678467,0.171875,0.765625,0.4375
1696254869384,0.6621094,-0.1338501,0.7670288,-0.03125,-0.21875,0.109375
1696254869425,0.6628418,-0.11578369,0.77020264,0.1875,-0.5,0.171875
1696254869467,0.66625977,-0.12408447,0.7572632,0.859375,-0.125,0.234375
1696254869502,0.66259766,-0.12872314,0.7692261,1.296875,0.390625,0.328125
1696254869542,0.6594238,-0.12213135,0.763855,1.15625,-0.234375,0.109375
1696254869581,0.66796875,-0.12554932,0.7628784,0.453125,-0.28125,0.109375
1696254869623,0.66918945,-0.12359619,0.76361084,-0.015625,0.09375,-0.046875
1696254869661,0.67333984,-0.12872314,0.7675171,0.484375,0.265625,0.09375
1696254869701,0.6711426,-0.13043213,0.7614136,0.1875,-0.328125,0.125
1696254869743,0.6713867,-0.13287354,0.7509155,0.359375,0.203125,0.109375
1696254869806,0.6738281,-0.12432861,0.7640991,-0.546875,0.5625,0.140625
1696254869821,0.671875,-0.12261963,0.7645874,0.0,0.234375,-0.171875
1696254869885,0.65966797,-0.12750244,0.7548218,1.078125,0.375,0.359375
1696254869901,0.6711426,-0.13092041,0.75701904,0.453125,-0.03125,0.15625
1696254869962,0.67700195,-0.1272583,0.75457764,0.484375,0.109375,0.328125
1696254870005,0.6796875,-0.1296997,0.7562866,0.34375,0.375,0.0625
1696254870020,0.6713867,-0.12896729,0.75579834,0.15625,-0.265625,0.328125
1696254870063,0.6677246,-0.13092041,0.7523804,-0.046875,-0.9375,0.3125
1696254870102,0.670166,-0.1260376,0.75946045,0.34375,-0.1875,0.234375
1696254870142,0.6682129,-0.13067627,0.7597046,0.78125,0.28125,0.375
1696254870204,0.671875,-0.13726807,0.758728,0.734375,-0.0625,0.140625
1696254870226,0.67089844,-0.12506104,0.75531006,-0.078125,-0.578125,0.078125
1696254870262,0.67578125,-0.13702393,0.75164795,-0.15625,-0.3125,0.328125
1696254870304,0.6640625,-0.13189697,0.75213623,-0.046875,0.109375,0.3125
1696254870362,0.6765137,-0.13897705,0.7523804,0.109375,-0.234375,0.296875
1696254870381,0.67822266,-0.13067627,0.75775146,0.296875,-0.703125,0.1875
1696254870422,0.6723633,-0.13214111,0.7494507,-0.65625,-0.40625,0.140625
1696254870484,0.6779785,-0.13189697,0.760437,-0.5625,-0.25,0.359375
1696254870523,0.6743164,-0.13482666,0.75115967,0.21875,0.015625,0.140625
1696254870526,0.67871094,-0.1338501,0.75335693,0.6875,-0.453125,0.03125
1696254870561,0.6867676,-0.12823486,0.7526245,0.015625,-0.359375,0.0625
1696254870603,0.67944336,-0.12799072,0.7538452,0.0625,-0.296875,0.21875
1696254870645,0.6767578,-0.14019775,0.75653076,-0.140625,-0.921875,0.515625
1696254870682,0.6738281,-0.13604736,0.7550659,-0.453125,-2.0625,0.265625
1696254870723,0.6723633,-0.12774658,0.7592163,-0.984375,-1.578125,0.0625
1696254870764,0.66430664,-0.13287354,0.7514038,-0.359375,-0.828125,0.421875
1696254870801,0.6672363,-0.13458252,0.758728,-0.609375,-1.5,0.4375
1696254870842,0.66918945,-0.1296997,0.75823975,-0.796875,-1.875,0.328125
1696254870883,0.66625977,-0.12628174,0.75457764,-1.078125,-1.765625,0.03125
1696254870923,0.67211914,-0.12945557,0.7628784,-0.578125,-1.203125,0.09375
1696254870964,0.67529297,-0.13238525,0.7614136,0.484375,-2.390625,-0.171875
1696254871003,0.67211914,-0.1338501,0.7572632,-0.5,-2.765625,-0.125
1696254871044,0.65844727,-0.12677002,0.7609253,-1.015625,-2.171875,0.09375
1696254871085,0.66064453,-0.12799072,0.7645874,-1.5625,-1.203125,0.3125
1696254871122,0.66186523,-0.13067627,0.7748413,-0.625,-1.375,0.578125
1696254871164,0.657959,-0.13311768,0.7785034,-0.546875,-1.1875,0.390625
1696254871202,0.66259766,-0.12579346,0.77752686,-1.28125,-1.484375,0.09375
1696254871262,0.6652832,-0.11773682,0.7665405,-0.6875,-1.203125,0.0625
1696254871282,0.6501465,-0.121398926,0.76434326,-0.125,-0.4375,0.296875
1696254871324,0.657959,-0.12579346,0.7706909,0.15625,-0.859375,0.40625
1696254871361,0.6633301,-0.121154785,0.77386475,-0.421875,-1.328125,0.28125
1696254871403,0.65600586,-0.11871338,0.7736206,-0.265625,-1.21875,0.21875
1696254871444,0.65625,-0.12213135,0.7736206,-0.109375,-0.96875,0.40625
1696254871483,0.65356445,-0.12261963,0.7782593,-0.21875,-0.640625,0.578125
1696254871522,0.65234375,-0.11773682,0.77874756,-0.421875,-0.734375,0.34375
1696254871563,0.6555176,-0.120910645,0.7772827,-0.640625,-0.828125,0.21875
1696254871602,0.6599121,-0.113098145,0.77874756,-0.71875,-0.703125,0.28125
1696254871643,0.65185547,-0.120910645,0.7716675,0.15625,-1.109375,0.171875
1696254871683,0.65283203,-0.120666504,0.77386475,-0.328125,-1.296875,0.21875
1696254871721,0.6555176,-0.11138916,0.77215576,-0.828125,-0.953125,0.109375
1696254871761,0.6496582,-0.117004395,0.7789917,-0.265625,-0.640625,0.21875
1696254871803,0.6467285,-0.11480713,0.78045654,0.1875,-0.8125,0.25
1696254871823,0.6550293,-0.11627197,0.7797241,-0.359375,-0.765625,0.03125
1696254871865,0.64990234,-0.12213135,0.77679443,-0.671875,-0.984375,0.109375
1696254871906,0.65405273,-0.11383057,0.774353,-0.21875,-0.625,0.125
1696254871942,0.65356445,-0.11846924,0.7723999,-0.09375,-0.21875,0.28125
1696254871985,0.65527344,-0.12384033,0.78411865,0.1875,-0.34375,0.359375
1696254872043,0.6516113,-0.117004395,0.7711792,-0.078125,-0.8125,0.21875
1696254872083,0.6459961,-0.11602783,0.78338623,0.109375,-0.265625,0.109375
1696254872100,0.65405273,-0.1260376,0.78118896,0.59375,-0.390625,0.28125
1696254872143,0.65112305,-0.11968994,0.7782593,0.4375,-0.296875,0.203125
1696254872185,0.6542969,-0.120666504,0.777771,-0.46875,-0.328125,-0.03125
1696254872242,0.6484375,-0.11431885,0.7875366,-0.15625,0.109375,0.1875
1696254872262,0.6530762,-0.113342285,0.77801514,-0.5,-0.515625,0.140625
1696254872304,0.65771484,-0.12164307,0.7785034,-0.09375,-0.609375,0.03125
1696254872343,0.6508789,-0.12164307,0.7785034,1.03125,-0.40625,0.125
1696254872383,0.64941406,-0.117492676,0.7770386,1.265625,-0.796875,0.109375
1696254872422,0.6489258,-0.11138916,0.77264404,0.03125,-0.78125,0.078125
1696254872487,0.64941406,-0.12359619,0.7770386,-0.734375,0.75,0.265625
1696254872500,0.65478516,-0.12432861,0.7814331,-0.03125,-0.125,0.140625
1696254872562,0.6513672,-0.12554932,0.77386475,-0.296875,-0.359375,0.28125
1696254872582,0.6567383,-0.1182251,0.7753296,-0.265625,-0.484375,-0.09375
1696254872643,0.65356445,-0.11529541,0.7675171,0.359375,-0.171875,0.015625
1696254872660,0.65185547,-0.117492676,0.7692261,1.890625,1.0,0.09375
1696254872704,0.65478516,-0.11920166,0.78118896,2.53125,0.640625,0.046875
1696254872743,0.6586914,-0.13311768,0.7765503,1.953125,0.0,0.203125
1696254872805,0.65966797,-0.124816895,0.7716675,0.421875,-0.546875,0.171875
1696254872821,0.65527344,-0.12945557,0.77459717,-0.703125,0.140625,0.203125
1696254872884,0.6599121,-0.13458252,0.7765503,-0.125,0.375,0.265625
1696254872900,0.6599121,-0.12896729,0.76678467,-0.71875,0.6875,0.328125
1696254872942,0.66967773,-0.12237549,0.7716675,-0.515625,0.46875,0.328125
1696254872983,0.66259766,-0.11993408,0.77386475,-0.078125,0.828125,0.171875
1696254873022,0.66430664,-0.1194458,0.76312256,0.640625,0.046875,0.3125
1696254873064,0.6616211,-0.12432861,0.7640991,0.90625,0.40625,0.234375
1696254873144,0.66137695,-0.13336182,0.76776123,1.46875,0.46875,0.359375
1696254873147,0.6672363,-0.13531494,0.7687378,0.6875,-0.203125,0.109375
1696254873162,0.6669922,-0.13018799,0.7658081,-0.203125,-0.59375,0.171875
1696254873201,0.6599121,-0.13287354,0.7628784,-0.890625,0.078125,0.25
1696254873241,0.66503906,-0.12506104,0.76483154,-0.90625,0.0625,0.171875
1696254873282,0.66308594,-0.13775635,0.7662964,0.359375,0.59375,0.234375
1696254873322,0.66796875,-0.13092041,0.7680054,0.984375,0.171875,0.203125
1696254873363,0.6726074,-0.12530518,0.7601929,0.234375,0.515625,0.15625
1696254873401,0.6621094,-0.12408447,0.76068115,0.0625,0.671875,0.46875
1696254873443,0.66625977,-0.13043213,0.758728,-0.390625,0.65625,0.515625
1696254873482,0.6689453,-0.13018799,0.7555542,-0.375,-0.390625,0.390625
1696254873521,0.6755371,-0.124572754,0.7548218,-0.28125,-0.59375,0.0625
1696254873564,0.67407227,-0.12652588,0.76116943,-0.03125,0.296875,0.265625
1696254873604,0.66748047,-0.13433838,0.75897217,0.3125,-0.03125,0.40625
1696254873641,0.66796875,-0.12554932,0.75653076,0.390625,-0.34375,0.171875
1696254873681,0.67456055,-0.12872314,0.7609253,-0.21875,-0.59375,0.25
1696254873724,0.67456055,-0.12750244,0.7592163,-0.359375,-0.09375,0.265625
1696254873765,0.67822266,-0.13043213,0.76116943,-0.390625,0.171875,0.40625
1696254873802,0.6748047,-0.13287354,0.760437,-0.109375,0.78125,0.5625
1696254873843,0.6713867,-0.1326294,0.75531006,0.25,0.46875,0.296875
1696254873883,0.6669922,-0.128479,0.7538452,-0.0625,-0.34375,0.140625
1696254873922,0.6723633,-0.12872314,0.7543335,0.171875,-0.484375,0.203125
1696254873963,0.67529297,-0.13165283,0.75823975,-0.03125,-0.109375,0.25
1696254874002,0.673584,-0.12677002,0.7592163,-0.53125,-0.921875,0.140625
1696254874043,0.6772461,-0.12506104,0.7518921,0.015625,-0.96875,0.171875
1696254874082,0.6738281,-0.12628174,0.7536011,-0.578125,-0.4375,0.203125
1696254874122,0.6750488,-0.12823486,0.75531006,-0.46875,0.15625,0.171875
1696254874162,0.6748047,-0.13555908,0.75775146,0.453125,-0.328125,0.125
1696254874203,0.68115234,-0.12261963,0.7523804,0.28125,-0.78125,-0.203125
1696254874241,0.67211914,-0.12164307,0.7514038,-0.046875,-0.46875,0.078125
1696254874283,0.6699219,-0.12677002,0.75653076,-0.4375,0.015625,0.46875
1696254874323,0.6743164,-0.1272583,0.75408936,-0.09375,-0.9375,0.234375
1696254874362,0.67333984,-0.12286377,0.75897217,-0.3125,-0.765625,0.109375
1696254874402,0.6777344,-0.120666504,0.75164795,-0.265625,-0.125,0.21875
1696254874442,0.6711426,-0.12945557,0.7562866,0.34375,0.328125,0.515625
1696254874461,0.6730957,-0.13067627,0.758728,0.5625,-0.28125,0.34375
1696254874504,0.67626953,-0.12921143,0.74920654,-0.46875,-0.578125,0.046875
1696254874542,0.67822266,-0.12164307,0.7514038,-0.71875,-0.3125,0.34375
1696254874583,0.6777344,-0.12677002,0.7543335,-0.234375,-0.296875,0.359375
1696254874625,0.67700195,-0.13360596,0.7509155,-0.0625,-0.734375,0.09375
1696254874686,0.67529297,-0.12286377,0.7614136,0.28125,-0.65625,0.09375
1696254874701,0.67407227,-0.12677002,0.75775146,0.296875,-0.5625,0.046875
1696254874741,0.6750488,-0.12677002,0.75457764,0.0625,-0.609375,0.234375
1696254874781,0.67333984,-0.13458252,0.7562866,-0.28125,-0.546875,0.140625
1696254874823,0.6750488,-0.12945557,0.7484741,0.140625,-0.5625,0.234375
1696254874862,0.67333984,-0.13238525,0.7518921,-0.140625,-0.84375,0.171875
1696254874925,0.6750488,-0.1296997,0.7601929,-0.171875,-1.21875,0.171875
1696254874941,0.67407227,-0.13092041,0.7501831,-0.96875,-0.890625,0.390625
1696254875025,0.67163086,-0.12530518,0.75579834,-1.03125,-1.15625,0.1875
1696254875028,0.66796875,-0.12432861,0.7601929,0.015625,-1.078125,0.046875
1696254875063,0.6723633,-0.13116455,0.7597046,0.234375,-1.484375,0.15625
1696254875102,0.6713867,-0.12213135,0.760437,-0.421875,-1.578125,0.109375
1696254875163,0.67211914,-0.12261963,0.7609253,-0.4375,-1.078125,0.234375
1696254875184,0.6640625,-0.12896729,0.7658081,-0.609375,-0.859375,0.375
1696254875222,0.66503906,-0.1260376,0.76556396,-0.171875,-1.53125,0.34375
1696254875262,0.6665039,-0.11529541,0.76116943,-0.296875,-1.390625,0.125
1696254875303,0.6665039,-0.12359619,0.7609253,-0.015625,-0.96875,0.203125
1696254875343,0.6616211,-0.121154785,0.7662964,-0.0625,-0.84375,0.375
1696254875384,0.6657715,-0.12213135,0.76605225,-0.296875,-0.953125,0.171875
1696254875487,0.670166,-0.1194458,0.7633667,-0.5,-1.484375,0.125
1696254875490,0.6738281,-0.117492676,0.76605225,-0.5625,-1.53125,0.203125
1696254875501,0.6672363,-0.12042236,0.7699585,-0.953125,-1.578125,0.203125
1696254875562,0.6604004,-0.12628174,0.76776123,-0.53125,-1.75,0.21875
1696254875582,0.6591797,-0.12384033,0.76678467,-0.3125,-1.65625,0.078125
1696254875622,0.6621094,-0.11993408,0.7706909,0.0,-1.4375,0.125
1696254875661,0.65234375,-0.121398926,0.7728882,-0.21875,-1.25,0.28125
1696254875745,0.66308594,-0.116760254,0.7741089,-0.265625,-1.078125,0.359375
1696254875749,0.65649414,-0.124816895,0.7736206,-0.921875,-1.09375,0.265625
1696254875761,0.6582031,-0.11773682,0.7716675,-1.09375,-1.1875,0.3125
1696254875802,0.65405273,-0.11431885,0.7731323,-0.671875,-0.828125,0.234375
1696254875844,0.6569824,-0.117248535,0.77679443,-0.265625,-0.859375,0.4375
1696254875881,0.6464844,-0.116760254,0.77215576,-0.140625,-0.9375,0.3125
1696254875926,0.65600586,-0.117248535,0.7797241,-0.4375,-1.203125,0.0625
1696254875961,0.65625,-0.117248535,0.77557373,-0.203125,-1.09375,-0.046875
1696254876004,0.6569824,-0.113098145,0.7789917,0.140625,-0.828125,0.234375
1696254876043,0.65722656,-0.11773682,0.7802124,-0.453125,-0.71875,0.3125
1696254876083,0.64990234,-0.1182251,0.77337646,-0.46875,-1.234375,0.359375
1696254876125,0.6508789,-0.11407471,0.77215576,-0.515625,-0.8125,0.03125
1696254876165,0.65234375,-0.120910645,0.77679443,0.28125,-0.171875,0.375
1696254876204,0.6557617,-0.12652588,0.77679443,0.421875,-0.3125,0.3125
1696254876242,0.6508789,-0.1182251,0.7770386,0.03125,-0.53125,0.171875
1696254876283,0.65844727,-0.11138916,0.776062,-0.203125,-0.4375,0.28125
1696254876324,0.65600586,-0.11383057,0.7785034,-0.375,-0.359375,0.015625
1696254876362,0.6555176,-0.11993408,0.7753296,-0.125,-0.46875,0.171875
1696254876402,0.65478516,-0.12042236,0.7736206,0.21875,-0.53125,0.0625
1696254876444,0.65527344,-0.11871338,0.7731323,0.546875,-0.40625,0.15625
1696254876483,0.6472168,-0.124572754,0.77508545,0.6875,-0.078125,0.21875
1696254876523,0.6520996,-0.11846924,0.7765503,0.609375,0.109375,0.25
1696254876565,0.6569824,-0.11968994,0.7770386,0.0,0.359375,0.109375
1696254876603,0.65722656,-0.1194458,0.7807007,0.0,0.0625,-0.03125
1696254876651,0.6555176,-0.11846924,0.77386475,0.15625,0.125,0.265625
1696254876681,0.65478516,-0.12213135,0.7758179,-0.296875,0.21875,0.390625
1696254876725,0.6538086,-0.12335205,0.77459717,0.1875,0.171875,0.15625
1696254876764,0.65722656,-0.12432861,0.7826538,0.515625,0.40625,-0.09375
1696254876803,0.65722656,-0.12579346,0.7785034,0.171875,-0.015625,0.046875
1696254876847,0.65771484,-0.11993408,0.7711792,0.3125,0.25,0.296875
1696254876882,0.6582031,-0.12164307,0.7680054,-0.109375,0.546875,0.296875
1696254876925,0.65771484,-0.12628174,0.76727295,-0.046875,-0.265625,0.390625
1696254876961,0.66674805,-0.11895752,0.7706909,-0.34375,-0.484375,0.125
1696254877002,0.66748047,-0.113342285,0.7626343,0.203125,0.4375,-0.015625
1696254877042,0.65600586,-0.12799072,0.7670288,0.578125,0.859375,0.390625
1696254877082,0.6657715,-0.12823486,0.77020264,0.78125,0.0625,0.296875
1696254877101,0.6660156,-0.12286377,0.76776123,-0.015625,-0.390625,0.03125
1696254877164,0.6726074,-0.12408447,0.7675171,-0.421875,-0.421875,0.0625
1696254877182,0.66748047,-0.12042236,0.7699585,-0.734375,-0.421875,0.15625
1696254877244,0.6645508,-0.121398926,0.7680054,-0.328125,-0.4375,0.171875
1696254877261,0.6652832,-0.124572754,0.7645874,0.140625,-0.21875,0.1875
1696254877302,0.6682129,-0.12335205,0.7687378,0.484375,0.015625,0.375
1696254877343,0.6738281,-0.1194458,0.76483154,0.671875,-0.046875,0.1875
1696254877384,0.66259766,-0.1272583,0.76898193,-0.1875,-0.28125,0.25
1696254877423,0.66430664,-0.11968994,0.7662964,-0.21875,-0.59375,0.171875
1696254877463,0.6604004,-0.12701416,0.75457764,-0.109375,-0.390625,0.375
1696254877510,0.67089844,-0.12579346,0.76898193,-0.8125,-0.390625,0.296875
1696254877544,0.66552734,-0.12237549,0.7711792,-0.078125,-0.046875,0.03125
1696254877584,0.67626953,-0.12823486,0.76483154,0.671875,-0.390625,0.125
1696254877622,0.67089844,-0.12213135,0.7560425,0.171875,-0.40625,0.046875
1696254877662,0.66796875,-0.120666504,0.76239014,0.015625,-0.140625,0.3125
1696254877723,0.6647949,-0.128479,0.77093506,-0.078125,0.046875,0.390625
1696254877742,0.6611328,-0.12579346,0.7706909,-0.03125,-0.703125,0.28125
1696254877804,0.66625977,-0.11871338,0.7626343,-0.34375,-0.671875,0.078125
1696254877823,0.6687012,-0.117248535,0.7650757,-0.078125,0.265625,0.265625
1696254877863,0.66137695,-0.13018799,0.7628784,0.34375,0.078125,0.53125
1696254877902,0.66674805,-0.12042236,0.76849365,0.234375,-0.609375,0.0625
1696254877941,0.6645508,-0.12164307,0.76068115,-0.28125,-0.890625,0.21875
1696254878004,0.6665039,-0.12286377,0.758728,-0.34375,-0.484375,0.203125
1696254878022,0.66381836,-0.12310791,0.7626343,-0.21875,-0.5,0.21875
1696254878086,0.6652832,-0.124572754,0.7675171,0.109375,-0.734375,0.25
1696254878102,0.66430664,-0.12359619,0.7592163,0.390625,-0.640625,0.21875
1696254878145,0.66430664,-0.128479,0.7665405,0.296875,-0.3125,0.203125
1696254878183,0.6647949,-0.12554932,0.763855,0.265625,-0.53125,0.25
1696254878223,0.6730957,-0.12628174,0.76361084,-0.765625,-0.453125,0.28125
1696254878261,0.66503906,-0.12310791,0.7653198,-0.28125,-0.625,0.0625
1696254878303,0.66967773,-0.124572754,0.75653076,-0.296875,-0.296875,0.359375
1696254878347,0.6640625,-0.12286377,0.76605225,-0.75,-0.234375,0.0625
1696254878405,0.6623535,-0.121398926,0.76483154,0.453125,-0.109375,0.28125
1696254878409,0.66552734,-0.12164307,0.7680054,0.921875,-0.40625,0.265625
1696254878443,0.6760254,-0.11993408,0.7665405,0.546875,-0.171875,0.203125
1696254878483,0.6665039,-0.121154785,0.7597046,-0.5,-0.359375,0.390625
1696254878523,0.6647949,-0.12261963,0.7645874,-0.828125,-0.90625,0.484375
1696254878563,0.6682129,-0.12506104,0.7645874,-0.0625,-1.203125,0.375
1696254878603,0.66674805,-0.1194458,0.7614136,-0.21875,-0.921875,0.234375
1696254878649,0.6611328,-0.12164307,0.7665405,-0.234375,-0.28125,0.375
1696254878706,0.67089844,-0.12945557,0.7650757,0.03125,-1.03125,0.59375
1696254878721,0.66918945,-0.12213135,0.77020264,-0.09375,-1.546875,0.21875
1696254878764,0.6647949,-0.11895752,0.76190186,-0.71875,-1.578125,0.328125
1696254878802,0.6647949,-0.12945557,0.76678467,-0.921875,-1.421875,0.1875
1696254878844,0.6574707,-0.12042236,0.7692261,-0.640625,-1.484375,0.3125
1696254878886,0.6652832,-0.11871338,0.77215576,-0.40625,-1.546875,0.203125
1696254878923,0.6594238,-0.11773682,0.77020264,-0.109375,-1.359375,0.125
1696254878963,0.65527344,-0.12164307,0.7748413,0.234375,-1.03125,0.15625
1696254879003,0.65722656,-0.12261963,0.77337646,0.0,-0.953125,0.1875
1696254879041,0.6567383,-0.120666504,0.7728882,-0.78125,-0.828125,0.359375
1696254879083,0.6594238,-0.117004395,0.76434326,-0.796875,-0.890625,0.15625
1696254879123,0.65234375,-0.11773682,0.7736206,-0.859375,-0.765625,0.359375
1696254879165,0.65283203,-0.12310791,0.77679443,-0.515625,-1.25,0.21875
1696254879203,0.65185547,-0.12408447,0.77459717,-0.34375,-1.53125,0.109375
1696254879244,0.6569824,-0.11773682,0.7758179,-0.84375,-2.046875,0.0625
1696254879282,0.6567383,-0.1116333,0.77508545,-1.28125,-2.171875,0.0
1696254879322,0.6491699,-0.11578369,0.7782593,-0.453125,-1.15625,0.109375
1696254879364,0.65234375,-0.11846924,0.79022217,-0.171875,-0.90625,0.421875
1696254879401,0.6557617,-0.124572754,0.7736206,-0.59375,-1.5625,0.296875
1696254879443,0.64941406,-0.11016846,0.7789917,-0.671875,-1.09375,0.28125
1696254879483,0.65600586,-0.11456299,0.7807007,-0.03125,-0.421875,0.515625
1696254879524,0.6472168,-0.11578369,0.7772827,0.0,-0.84375,0.328125
1696254879563,0.65283203,-0.11212158,0.78826904,-0.53125,-1.125,0.203125
1696254879603,0.64868164,-0.113342285,0.7809448,-1.0,-1.078125,0.265625
1696254879643,0.64746094,-0.1116333,0.7814331,-1.234375,-0.921875,0.296875
1696254879704,0.64282227,-0.10626221,0.78338623,-0.640625,-1.171875,0.03125
1696254879721,0.65112305,-0.113586426,0.7821655,0.03125,-1.578125,0.1875
1696254879741,0.64941406,-0.10870361,0.7892456,0.375,-1.234375,-0.03125
1696254879783,0.6398926,-0.11553955,0.7880249,0.625,-0.90625,0.328125
1696254879823,0.642334,-0.11456299,0.7909546,-0.5625,-0.625,0.3125
1696254879862,0.6503906,-0.112854004,0.7819214,-1.0625,-0.8125,0.359375
1696254879924,0.6464844,-0.109680176,0.7797241,-0.71875,-0.71875,0.296875
1696254879963,0.64453125,-0.10797119,0.7904663,-0.4375,-0.703125,0.3125
1696254880004,0.6459961,-0.10797119,0.78900146,-0.1875,-0.546875,0.4375
1696254880022,0.6447754,-0.11260986,0.78045654,-0.203125,-1.0,0.09375
1696254880086,0.64624023,-0.10845947,0.7826538,-0.359375,-0.703125,0.078125
1696254880104,0.6459961,-0.10772705,0.7821655,0.171875,-0.484375,0.171875
1696254880145,0.6452637,-0.11065674,0.7880249,-0.265625,-0.3125,0.21875
1696254880203,0.6435547,-0.11114502,0.7904663,-0.1875,-0.375,0.125
1696254880221,0.64282227,-0.10601807,0.7843628,-0.203125,-0.515625,0.140625
1696254880266,0.6418457,-0.1038208,0.7929077,0.4375,0.15625,0.09375
1696254880302,0.64086914,-0.11138916,0.78826904,0.9375,0.421875,0.359375
1696254880345,0.64624023,-0.108947754,0.7872925,0.75,0.046875,0.03125
1696254880383,0.6418457,-0.10797119,0.7868042,-0.265625,-0.328125,0.21875
1696254880421,0.64575195,-0.109436035,0.7819214,-0.796875,-0.640625,0.0625
1696254880464,0.6430664,-0.10845947,0.78778076,-0.90625,-0.796875,0.046875
1696254880504,0.6467285,-0.10772705,0.7872925,-0.53125,-0.84375,0.0
1696254880544,0.6464844,-0.101867676,0.78582764,0.0625,-0.40625,0.125
1696254880583,0.6447754,-0.11383057,0.79241943,0.8125,-0.140625,0.046875
1696254880623,0.6435547,-0.116760254,0.7836304,0.53125,0.078125,0.1875
1696254880663,0.63842773,-0.109436035,0.78118896,-0.125,0.0625,0.265625
1696254880724,0.64868164,-0.10992432,0.7875366,0.375,0.28125,0.125
1696254880742,0.6455078,-0.117248535,0.7872925,-0.21875,0.21875,0.125
1696254880784,0.6467285,-0.11016846,0.7772827,-0.1875,0.515625,0.015625
1696254880823,0.64575195,-0.11602783,0.7863159,0.453125,0.46875,0.125
1696254880886,0.65063477,-0.11651611,0.7843628,0.1875,0.140625,0.140625
1696254880901,0.65722656,-0.109680176,0.78167725,0.203125,0.265625,0.125
1696254880943,0.64746094,-0.11260986,0.78289795,0.21875,0.515625,0.265625
1696254880985,0.64746094,-0.11480713,0.78533936,-0.171875,-0.078125,0.21875
1696254881022,0.6516113,-0.117004395,0.78338623,-0.09375,-0.515625,0.125
1696254881042,0.6503906,-0.1182251,0.78338623,0.109375,0.015625,0.171875
1696254881082,0.65405273,-0.11846924,0.77557373,0.578125,0.625,0.3125
1696254881125,0.6484375,-0.11651611,0.78240967,0.609375,0.171875,0.53125
1696254881164,0.64868164,-0.11456299,0.77679443,0.015625,-0.0625,0.140625
1696254881207,0.6557617,-0.1104126,0.77459717,0.09375,0.21875,0.15625
1696254881242,0.65722656,-0.11212158,0.7772827,0.6875,0.453125,0.171875
1696254881282,0.6542969,-0.12261963,0.77264404,0.40625,-0.03125,0.25
1696254881323,0.6635742,-0.1182251,0.7736206,0.265625,-0.3125,0.03125
1696254881363,0.65625,-0.112854004,0.7736206,0.453125,-0.015625,0.09375
1696254881403,0.65234375,-0.11187744,0.7699585,0.65625,0.046875,0.140625
1696254881443,0.6501465,-0.12042236,0.7741089,0.75,0.1875,0.390625
1696254881483,0.66064453,-0.12164307,0.77801514,-0.421875,-0.1875,0.21875
1696254881523,0.6604004,-0.11212158,0.77264404,-0.4375,-0.3125,0.203125
1696254881562,0.66552734,-0.11138916,0.7687378,-0.265625,0.25,0.28125
1696254881604,0.65771484,-0.11407471,0.7658081,-0.40625,-0.171875,0.25
1696254881641,0.6557617,-0.12017822,0.7694702,0.171875,0.171875,0.34375
1696254881683,0.6582031,-0.12164307,0.7692261,0.859375,-0.34375,0.09375
1696254881723,0.6682129,-0.112854004,0.76776123,0.140625,-0.421875,-0.046875
1696254881762,0.6599121,-0.11431885,0.77142334,-0.140625,0.03125,0.28125
1696254881806,0.657959,-0.12237549,0.77557373,-0.265625,0.0625,0.46875
1696254881842,0.66918945,-0.12164307,0.7711792,-0.09375,-0.21875,0.359375
1696254881883,0.66381836,-0.12213135,0.7731323,-0.015625,0.03125,0.28125
1696254881922,0.66137695,-0.113586426,0.75579834,0.203125,0.4375,0.234375
1696254881962,0.6672363,-0.12042236,0.7716675,0.265625,-0.109375,0.296875
1696254882004,0.6623535,-0.11895752,0.76361084,0.5625,-0.6875,0.171875
1696254882044,0.6574707,-0.11993408,0.7616577,-0.34375,-0.71875,0.3125
1696254882082,0.66430664,-0.11993408,0.7650757,-0.421875,-0.28125,0.171875
1696254882122,0.66552734,-0.1260376,0.76971436,-0.140625,-0.671875,0.0625
1696254882162,0.66308594,-0.12164307,0.76434326,0.375,-0.625,0.15625
1696254882203,0.6689453,-0.121398926,0.7675171,0.703125,-0.203125,0.28125
1696254882242,0.66503906,-0.121398926,0.760437,0.109375,0.0,0.296875
1696254882283,0.6640625,-0.120910645,0.7675171,0.28125,-0.34375,0.265625
1696254882325,0.66137695,-0.1194458,0.7692261,-0.296875,-0.5625,0.328125
1696254882343,0.6689453,-0.11846924,0.7682495,-0.453125,-0.4375,0.1875
1696254882405,0.66308594,-0.116760254,0.76898193,0.0625,-0.5625,0.3125
1696254882444,0.66552734,-0.11553955,0.7670288,-0.28125,-0.6875,0.375
1696254882483,0.66845703,-0.117248535,0.76898193,-0.265625,-0.71875,-0.078125
1696254882502,0.6677246,-0.11993408,0.7741089,0.359375,-1.1875,0.234375
1696254882543,0.6694336,-0.11383057,0.76776123,-0.203125,-1.484375,0.0
1696254882583,0.6660156,-0.11431885,0.7665405,-0.5625,-0.84375,0.171875
1696254882624,0.6616211,-0.11871338,0.7711792,-0.671875,-0.8125,0.4375
1696254882664,0.6608887,-0.12506104,0.77459717,-0.4375,-1.578125,0.296875
1696254882706,0.6599121,-0.11236572,0.7682495,-0.71875,-1.6875,0.421875
1696254882744,0.6669922,-0.10601807,0.7753296,-0.34375,-0.78125,0.109375
1696254882805,0.6569824,-0.11651611,0.7753296,0.15625,-0.859375,0.390625
1696254882823,0.6569824,-0.116760254,0.76727295,-0.296875,-1.5625,0.1875
1696254882862,0.65405273,-0.11236572,0.77215576,-0.53125,-1.453125,0.296875
1696254882905,0.6538086,-0.11480713,0.76971436,-0.671875,-1.8125,0.25
1696254882962,0.65722656,-0.117248535,0.7765503,-0.703125,-1.84375,0.328125
1696254882982,0.6567383,-0.11187744,0.7772827,-0.609375,-1.96875,0.0625
1696254883024,0.6574707,-0.11846924,0.777771,-0.390625,-1.71875,0.109375
1696254883062,0.6516113,-0.11187744,0.78460693,0.171875,-1.296875,0.265625
1696254883102,0.6472168,-0.11138916,0.78460693,-0.21875,-1.140625,0.234375
1696254883164,0.6430664,-0.11187744,0.7758179,-0.5,-1.3125,0.40625
1696254883181,0.6525879,-0.11602783,0.7838745,-1.0625,-1.5,0.3125
1696254883225,0.6464844,-0.11456299,0.78460693,-1.109375,-1.09375,0.21875
1696254883263,0.6418457,-0.112854004,0.777771,-0.765625,-0.75,0.328125
1696254883314,0.6467285,-0.108947754,0.78582764,-0.328125,-1.140625,0.359375
1696254883344,0.63916016,-0.113586426,0.7785034,-0.5,-1.375,0.125
1696254883384,0.64501953,-0.11065674,0.7819214,-0.5,-1.71875,0.0625
1696254883423,0.6455078,-0.1038208,0.78289795,-0.546875,-1.5,0.046875
1696254883485,0.6496582,-0.10748291,0.7860718,-0.234375,-0.921875,0.109375
1696254883524,0.6467285,-0.11016846,0.7880249,-0.453125,-0.8125,0.109375
1696254883541,0.64453125,-0.113586426,0.78900146,0.046875,-1.078125,0.265625
1696254883605,0.6381836,-0.101623535,0.78778076,-0.1875,-0.890625,0.359375
1696254883620,0.64453125,-0.10601807,0.791687,-0.015625,-0.484375,0.40625
1696254883644,0.64501953,-0.11236572,0.7885132,0.03125,-0.828125,0.3125
1696254883682,0.6435547,-0.11090088,0.7982788,-0.75,-0.53125,0.34375
1696254883723,0.638916,-0.10089111,0.79071045,-0.859375,-0.875,0.296875
1696254883766,0.63842773,-0.1038208,0.78411865,-0.703125,-0.65625,0.375
1696254883804,0.6472168,-0.10430908,0.79071045,-0.34375,-0.515625,0.234375
1696254883842,0.64501953,-0.11065674,0.7904663,0.25,-0.796875,0.203125
1696254883885,0.6435547,-0.10479736,0.79241943,0.609375,-0.78125,0.109375
1696254883923,0.64160156,-0.101135254,0.7897339,0.40625,-0.671875,0.21875
1696254883967,0.6411133,-0.10723877,0.78778076,0.046875,-0.140625,0.140625
1696254884003,0.6418457,-0.10699463,0.7904663,-0.234375,0.03125,0.25
1696254884042,0.63964844,-0.10235596,0.7855835,0.171875,-0.109375,0.1875
1696254884083,0.6455078,-0.10308838,0.7848511,0.078125,0.171875,0.15625
1696254884123,0.64331055,-0.10748291,0.7982788,0.1875,0.53125,0.125
1696254884165,0.6442871,-0.11065674,0.7836304,0.59375,0.375,0.109375
1696254884203,0.6442871,-0.10479736,0.7885132,0.265625,-0.015625,-0.078125
1696254884243,0.64453125,-0.10357666,0.78460693,-0.5,-0.8125,-0.1875
1696254884283,0.6472168,-0.10772705,0.78826904,0.328125,-0.03125,-0.1875
1696254884323,0.6477051,-0.1116333,0.79364014,0.171875,0.5,0.171875
1696254884364,0.6484375,-0.11505127,0.79193115,0.78125,0.390625,0.171875
1696254884402,0.6447754,-0.1104126,0.789978,0.40625,0.03125,0.09375
1696254884442,0.64624023,-0.113342285,0.7887573,0.171875,0.40625,0.328125
1696254884482,0.64208984,-0.11480713,0.7863159,0.203125,0.765625,0.703125
1696254884522,0.6479492,-0.10748291,0.7843628,0.546875,0.40625,0.21875
1696254884564,0.6503906,-0.10772705,0.7826538,-0.109375,0.109375,0.046875
1696254884602,0.65722656,-0.11383057,0.7809448,-0.125,0.078125,0.25
1696254884644,0.6525879,-0.11187744,0.78045654,-0.03125,0.015625,0.25
1696254884682,0.65112305,-0.113586426,0.7819214,0.359375,-0.421875,0.0625
1696254884727,0.6503906,-0.10845947,0.77923584,0.734375,-0.1875,0.046875
1696254884765,0.6516113,-0.11431885,0.7723999,0.984375,0.234375,0.234375
1696254884802,0.6503906,-0.11553955,0.78045654,0.359375,0.328125,0.203125
1696254884844,0.654541,-0.11260986,0.78533936,0.328125,0.3125,0.203125
1696254884882,0.66015625,-0.11627197,0.7785034,-0.171875,-0.046875,0.203125
1696254884926,0.6616211,-0.11651611,0.77801514,0.21875,-0.171875,0.203125
1696254884965,0.657959,-0.11431885,0.77679443,-0.375,0.125,0.4375
1696254885003,0.6582031,-0.11187744,0.77630615,-0.3125,-0.078125,0.15625
1696254885045,0.6550293,-0.1194458,0.77874756,0.5625,0.140625,0.140625
1696254885063,0.6604004,-0.11651611,0.7741089,0.984375,-0.65625,0.203125
1696254885103,0.6611328,-0.10699463,0.77679443,0.15625,-0.421875,0.0
1696254885142,0.65649414,-0.117492676,0.7765503,0.09375,0.21875,0.125
1696254885182,0.6555176,-0.11773682,0.77923584,0.0,0.171875,0.28125
1696254885222,0.65722656,-0.11895752,0.7728882,0.234375,-0.671875,0.484375
1696254885266,0.65600586,-0.10699463,0.776062,-0.390625,-0.234375,0.171875
1696254885302,0.65527344,-0.11114502,0.7687378,-0.15625,0.578125,0.359375
1696254885342,0.66015625,-0.12237549,0.77508545,0.484375,0.09375,0.34375
1696254885381,0.6591797,-0.11895752,0.7736206,0.3125,-0.46875,-0.015625
1696254885423,0.6594238,-0.105285645,0.7731323,-0.171875,-0.703125,0.15625
1696254885462,0.66064453,-0.11505127,0.76971436,-0.125,-0.59375,0.3125
1696254885502,0.66137695,-0.1104126,0.777771,-0.109375,-0.328125,0.359375
1696254885542,0.6623535,-0.113586426,0.7723999,0.09375,-0.59375,0.21875
1696254885584,0.654541,-0.11529541,0.7728882,0.390625,-0.390625,0.265625
1696254885644,0.6525879,-0.124572754,0.77874756,-0.09375,-0.390625,0.21875
1696254885663,0.66381836,-0.11871338,0.77630615,0.265625,-0.078125,0.171875
1696254885702,0.6591797,-0.11114502,0.7682495,-0.3125,-0.171875,0.28125
1696254885764,0.6594238,-0.1182251,0.7728882,-0.453125,-0.609375,0.0
1696254885805,0.65722656,-0.117248535,0.76898193,0.0625,-0.53125,0.25
1696254885843,0.6640625,-0.11480713,0.7728882,-0.640625,-0.4375,0.203125
1696254885861,0.6594238,-0.11114502,0.76898193,-0.03125,-0.234375,0.0625
1696254885903,0.6604004,-0.12286377,0.774353,1.078125,-0.5625,0.0625
1696254885962,0.66015625,-0.11383057,0.774353,0.96875,-0.421875,0.15625
1696254885982,0.6633301,-0.112854004,0.77093506,0.265625,-0.203125,0.28125
1696254886024,0.6569824,-0.11920166,0.77386475,-0.390625,-0.109375,0.34375
1696254886086,0.6604004,-0.12164307,0.77948,-0.25,-0.921875,0.375
1696254886101,0.6608887,-0.11529541,0.7682495,-0.328125,-0.96875,0.34375
1696254886144,0.657959,-0.10748291,0.77264404,-0.375,-0.484375,0.296875
1696254886184,0.6567383,-0.112854004,0.7736206,-0.03125,-0.34375,0.484375
1696254886224,0.6665039,-0.12188721,0.77679443,0.0625,-0.875,0.3125
1696254886287,0.66503906,-0.10870361,0.7741089,-0.15625,-1.0,0.21875
1696254886291,0.6623535,-0.113586426,0.76898193,-0.53125,-0.484375,0.046875
1696254886323,0.66186523,-0.116760254,0.77459717,-0.1875,-0.609375,0.28125
1696254886405,0.6628418,-0.116760254,0.77459717,0.390625,-0.734375,0.296875
1696254886411,0.66381836,-0.11553955,0.77508545,0.6875,-0.25,0.40625
1696254886441,0.6611328,-0.11651611,0.7748413,0.578125,-0.109375,0.265625
1696254886485,0.65966797,-0.11553955,0.7704468,0.3125,-0.25,0.171875
1696254886526,0.65600586,-0.12384033,0.7731323,0.09375,-0.34375,0.171875
1696254886564,0.66259766,-0.11578369,0.77874756,-0.296875,-0.625,0.171875
1696254886602,0.65625,-0.11529541,0.7785034,-0.078125,-0.640625,0.171875
1696254886642,0.6555176,-0.11260986,0.77337646,-1.125,-0.59375,0.3125
1696254886683,0.6599121,-0.11407471,0.7782593,-1.109375,-0.875,0.15625
1696254886723,0.65893555,-0.11260986,0.77215576,0.1875,-0.671875,0.171875
1696254886766,0.65405273,-0.11480713,0.76971436,0.265625,-1.4375,0.203125
1696254886802,0.6608887,-0.11260986,0.7719116,-0.34375,-1.640625,0.203125
1696254886843,0.65649414,-0.11920166,0.77142334,-0.40625,-1.015625,0.328125
1696254886883,0.6542969,-0.1116333,0.78338623,-0.953125,-1.484375,0.171875
1696254886924,0.6567383,-0.11016846,0.7785034,-0.4375,-1.78125,0.203125
1696254886963,0.66064453,-0.11553955,0.77996826,-0.15625,-1.390625,0.203125
1696254887003,0.65527344,-0.11090088,0.7765503,0.09375,-0.828125,0.375
1696254887044,0.6479492,-0.113098145,0.77801514,0.09375,-1.0625,0.46875
1696254887084,0.65722656,-0.113342285,0.7831421,-0.4375,-1.28125,0.328125
1696254887123,0.6513672,-0.11114502,0.77508545,-0.5625,-1.15625,0.234375
1696254887166,0.6555176,-0.10601807,0.776062,-0.625,-1.140625,0.359375
1696254887203,0.6530762,-0.11114502,0.77801514,-0.75,-1.578125,0.21875
1696254887245,0.6513672,-0.1104126,0.78411865,-0.515625,-1.484375,0.0625
1696254887304,0.64941406,-0.10748291,0.7826538,0.0,-1.15625,0.28125
1696254887321,0.64331055,-0.11090088,0.7843628,0.3125,-0.875,0.1875
1696254887362,0.6452637,-0.11090088,0.7885132,-0.1875,-0.8125,0.390625
1696254887404,0.64990234,-0.10723877,0.78582764,-0.921875,-1.046875,0.40625
1696254887443,0.64624023,-0.10284424,0.7887573,-0.84375,-0.953125,0.359375
1696254887483,0.6452637,-0.11090088,0.78460693,-0.875,-0.796875,0.171875
1696254887522,0.6442871,-0.11260986,0.7860718,-0.390625,-1.125,0.203125
1696254887564,0.64404297,-0.09967041,0.78948975,-0.375,-1.40625,0.234375
1696254887582,0.64501953,-0.105285645,0.7909546,-0.515625,-1.375,-0.078125
1696254887624,0.642334,-0.10211182,0.78900146,-0.484375,-1.21875,0.109375
1696254887664,0.63842773,-0.10479736,0.7860718,-0.390625,-0.921875,0.25
1696254887708,0.63256836,-0.11138916,0.795105,-0.53125,-1.234375,0.34375
1696254887745,0.63793945,-0.10723877,0.7892456,-0.59375,-1.15625,0.21875
1696254887783,0.6386719,-0.101623535,0.79193115,-0.375,-0.6875,0.109375
1696254887823,0.63427734,-0.10845947,0.78778076,-0.03125,-0.0625,0.328125
1696254887863,0.64086914,-0.108947754,0.795105,0.265625,-0.171875,0.25
1696254887906,0.6442871,-0.1026001,0.7914429,0.296875,-0.515625,0.125
1696254887944,0.6401367,-0.10064697,0.7885132,-0.03125,-0.46875,0.125
1696254887985,0.6398926,-0.1026001,0.7965698,-0.078125,-0.453125,0.203125
1696254888023,0.63916016,-0.10870361,0.7914429,-0.09375,-0.671875,0.03125
1696254888063,0.6369629,-0.10992432,0.7941284,0.46875,-0.609375,0.234375
1696254888103,0.638916,-0.10650635,0.79437256,0.765625,-0.265625,0.21875
1696254888166,0.63964844,-0.109191895,0.7914429,-0.296875,0.0625,0.21875
1696254888205,0.6369629,-0.10235596,0.7909546,-0.453125,0.53125,0.234375
1696254888221,0.6359863,-0.10748291,0.79193115,0.125,0.671875,0.203125
1696254888263,0.6489258,-0.105773926,0.79071045,0.46875,0.375,0.203125
1696254888308,0.6435547,-0.1038208,0.78582764,0.0625,0.296875,0.125
1696254888345,0.64282227,-0.109436035,0.7836304,0.5,0.453125,0.046875
1696254888385,0.6459961,-0.10333252,0.79071045,0.65625,0.328125,-0.015625
1696254888422,0.65185547,-0.11138916,0.78582764,0.921875,0.5,0.171875
1696254888465,0.6455078,-0.11407471,0.78533936,0.375,0.421875,0.265625
1696254888503,0.64624023,-0.11920166,0.7814331,-0.078125,0.015625,0.265625
1696254888543,0.6542969,-0.112854004,0.7826538,-0.1875,-0.25,0.109375
1696254888582,0.6513672,-0.105773926,0.78533936,0.203125,0.40625,0.03125
1696254888622,0.6418457,-0.1104126,0.7838745,0.234375,0.84375,0.390625
1696254888684,0.6479492,-0.11090088,0.7802124,0.375,0.265625,0.53125
1696254888724,0.65356445,-0.113342285,0.7819214,-0.15625,-0.0625,0.109375
1696254888742,0.65405273,-0.11236572,0.7797241,-0.75,-0.125,0.09375
1696254888804,0.6477051,-0.117492676,0.77923584,-1.28125,-0.84375,0.265625
1696254888824,0.64746094,-0.10723877,0.78460693,0.125,-0.171875,0.171875
1696254888865,0.657959,-0.113098145,0.77630615,1.25,0.09375,0.40625
1696254888922,0.65625,-0.113586426,0.77923584,1.4375,0.0,0.34375
1696254888925,0.65112305,-0.12286377,0.77874756,0.1875,-0.015625,0.375
1696254888962,0.65600586,-0.1104126,0.7868042,-0.34375,-0.203125,0.203125
1696254889003,0.6530762,-0.1116333,0.77386475,-0.203125,-0.015625,0.296875
1696254889044,0.6550293,-0.10845947,0.78289795,-0.625,-0.015625,0.1875
1696254889083,0.65405273,-0.11090088,0.77752686,0.046875,-0.03125,0.296875
1696254889122,0.6530762,-0.11529541,0.7789917,0.671875,-0.484375,0.1875
1696254889162,0.65722656,-0.10723877,0.77874756,0.34375,-0.390625,-0.140625
1696254889202,0.65527344,-0.10479736,0.7814331,0.25,-0.25,0.109375
1696254889243,0.6516113,-0.11798096,0.78045654,-0.09375,-0.09375,0.203125
1696254889285,0.65722656,-0.11968994,0.7765503,0.0625,-0.859375,0.296875
1696254889320,0.6567383,-0.11212158,0.7821655,-0.328125,-0.75,0.21875
1696254889361,0.6538086,-0.11383057,0.777771,-0.4375,-0.046875,0.234375
1696254889402,0.6520996,-0.1182251,0.7758179,0.0625,0.359375,0.34375
1696254889442,0.6608887,-0.1116333,0.7728882,0.46875,-0.296875,0.109375
1696254889483,0.6594238,-0.1116333,0.77386475,-0.28125,-0.828125,0.015625
1696254889522,0.6567383,-0.11236572,0.7758179,-0.484375,-0.34375,0.296875
1696254889564,0.6567383,-0.113586426,0.77215576,-0.15625,-0.484375,0.25
1696254889604,0.6557617,-0.117248535,0.7819214,-0.0625,-0.65625,0.078125
1696254889643,0.65722656,-0.1182251,0.774353,0.0625,-0.625,0.25
1696254889682,0.6520996,-0.11187744,0.78045654,0.4375,-0.15625,0.21875
1696254889722,0.65478516,-0.11553955,0.77557373,0.28125,-0.296875,0.140625
1696254889762,0.65063477,-0.10870361,0.7736206,-0.734375,-0.78125,0.109375
1696254889822,0.6582031,-0.10455322,0.77752686,-0.234375,-0.515625,0.078125
1696254889843,0.6660156,-0.116760254,0.77337646,-0.8125,-0.296875,0.28125
1696254889882,0.6574707,-0.11016846,0.7731323,-0.875,-0.796875,0.0625
1696254889923,0.657959,-0.117248535,0.7772827,0.171875,-0.59375,0.125
1696254889964,0.65771484,-0.10992432,0.77459717,1.015625,-0.765625,0.0625
1696254890000,0.6586914,-0.10748291,0.76971436,0.34375,-0.4375,0.03125
1696254890042,0.65405273,-0.113342285,0.776062,-0.0625,0.0,0.34375
1696254890082,0.65600586,-0.117248535,0.7819214,-0.265625,-0.1875,0.296875
1696254890143,0.6616211,-0.11895752,0.776062,0.046875,-0.28125,0.5
1696254890163,0.6591797,-0.10406494,0.78118896,-0.0625,-0.09375,0.1875
1696254890245,0.6530762,-0.11187744,0.7758179,0.21875,0.1875,0.359375
1696254890250,0.65722656,-0.12188721,0.7802124,0.1875,-0.53125,0.375
1696254890291,0.6574707,-0.10821533,0.77557373,0.0625,-0.9375,0.09375
1696254890363,0.65649414,-0.113586426,0.77630615,-0.640625,-0.90625,0.28125
1696254890366,0.66308594,-0.11016846,0.77459717,-0.078125,-0.984375,0.421875
1696254890382,0.6569824,-0.11968994,0.7802124,-0.078125,-1.390625,0.359375
1696254890423,0.65649414,-0.112854004,0.77557373,-0.359375,-1.46875,0.21875
1696254890464,0.65625,-0.109436035,0.7765503,-0.21875,-1.359375,0.390625
1696254890504,0.65234375,-0.113342285,0.77948,-0.4375,-1.359375,0.296875
1696254890542,0.65234375,-0.11065674,0.77874756,-0.140625,-1.21875,0.234375
1696254890584,0.6477051,-0.1104126,0.77874756,-0.546875,-1.34375,0.203125
1696254890625,0.6508789,-0.112854004,0.7814331,-0.546875,-1.65625,0.34375
1696254890666,0.65283203,-0.11138916,0.7802124,-0.46875,-0.953125,0.28125
1696254890705,0.65063477,-0.109436035,0.7855835,-0.359375,-0.890625,0.28125
1696254890764,0.6467285,-0.11383057,0.7872925,0.234375,-1.015625,0.21875
1696254890782,0.642334,-0.10748291,0.78411865,-0.078125,-1.453125,0.15625
1696254890824,0.6479492,-0.10675049,0.7897339,-0.65625,-1.5625,0.1875
1696254890863,0.6442871,-0.105041504,0.7848511,-0.09375,-0.9375,0.234375
1696254890903,0.6425781,-0.11773682,0.7868042,-0.5625,-1.140625,0.40625
1696254890967,0.6425781,-0.10821533,0.78948975,-0.375,-1.65625,0.34375
1696254890981,0.64331055,-0.105041504,0.78826904,-0.6875,-1.703125,0.28125
1696254891023,0.64453125,-0.10479736,0.7855835,-0.421875,-0.71875,0.40625
1696254891063,0.64160156,-0.109680176,0.79364014,-0.1875,-0.796875,0.5
1696254891105,0.6447754,-0.1026001,0.7965698,-0.28125,-0.765625,0.21875
1696254891143,0.6442871,-0.10357666,0.7880249,-0.734375,-1.1875,0.078125
1696254891206,0.6464844,-0.10430908,0.78778076,-0.921875,-0.96875,0.21875
1696254891222,0.63964844,-0.10845947,0.78778076,-0.515625,-0.75,0.15625
1696254891264,0.6398926,-0.10675049,0.78948975,-0.46875,-1.234375,0.234375
1696254891307,0.63720703,-0.101379395,0.7921753,-0.046875,-1.03125,0.125
1696254891342,0.6455078,-0.10870361,0.7904663,0.15625,-1.03125,0.1875
1696254891383,0.6376953,-0.105285645,0.79803467,-0.046875,-0.859375,0.15625
1696254891423,0.6359863,-0.10845947,0.7970581,-0.609375,-0.46875,0.078125
1696254891486,0.6328125,-0.105529785,0.7914429,-0.390625,-0.65625,0.1875
1696254891501,0.6437988,-0.097229004,0.79119873,-0.140625,-0.4375,0.25
1696254891522,0.63842773,-0.09967041,0.7904663,-0.3125,-0.03125,0.203125
1696254891563,0.638916,-0.10211182,0.7926636,-0.03125,-0.234375,0.203125
1696254891602,0.6335449,-0.10455322,0.7921753,0.125,-0.75,-0.09375
1696254891644,0.64038086,-0.09967041,0.7929077,-0.078125,-0.734375,-0.171875
1696254891682,0.63623047,-0.10064697,0.7946167,0.3125,0.171875,0.140625
1696254891725,0.6320801,-0.105285645,0.7941284,0.390625,0.625,0.109375
1696254891762,0.6352539,-0.10015869,0.79437256,-0.140625,-0.25,0.09375
1696254891804,0.6425781,-0.10284424,0.79022217,-0.078125,-0.171875,0.09375
1696254891843,0.64819336,-0.09967041,0.7887573,0.140625,0.375,0.15625
1696254891882,0.6425781,-0.101623535,0.78582764,0.53125,0.828125,0.328125
1696254891922,0.6425781,-0.11260986,0.7941284,0.234375,0.296875,0.328125
1696254891963,0.6411133,-0.1026001,0.7885132,-0.34375,0.015625,0.109375
1696254892004,0.6442871,-0.097961426,0.78948975,-0.421875,0.015625,-0.015625
1696254892043,0.6459961,-0.10040283,0.79364014,-0.140625,0.34375,0.203125
1696254892084,0.6437988,-0.10772705,0.7909546,0.28125,0.046875,0.296875
1696254892125,0.6484375,-0.10284424,0.78240967,0.5,-0.171875,0.09375
1696254892163,0.64624023,-0.10430908,0.789978,0.609375,0.109375,0.203125
1696254892203,0.6467285,-0.10308838,0.7821655,0.265625,0.15625,0.25
1696254892243,0.6464844,-0.11114502,0.79022217,0.53125,0.328125,0.3125
1696254892284,0.65063477,-0.10650635,0.7880249,0.015625,0.265625,0.234375
1696254892324,0.64746094,-0.10601807,0.7831421,-0.4375,-0.203125,-0.015625
1696254892362,0.6503906,-0.112854004,0.78289795,-0.390625,-0.109375,0.109375
1696254892402,0.64697266,-0.10455322,0.78582764,-0.6875,-0.125,0.140625
1696254892444,0.64868164,-0.105285645,0.7809448,0.109375,-0.03125,0.15625
1696254892485,0.6530762,-0.112854004,0.78045654,0.765625,-0.203125,0.0625
1696254892523,0.6520996,-0.09918213,0.7772827,0.484375,-0.640625,-0.046875
1696254892562,0.65283203,-0.11016846,0.78167725,0.171875,-0.109375,0.046875
1696254892604,0.64868164,-0.10821533,0.7843628,0.125,0.359375,0.4375
1696254892642,0.65063477,-0.11456299,0.78778076,0.46875,-0.53125,0.40625
1696254892683,0.65283203,-0.11480713,0.777771,-0.078125,-0.640625,0.09375
1696254892724,0.654541,-0.109680176,0.7765503,-0.28125,0.03125,0.171875
1696254892762,0.65356445,-0.105529785,0.7836304,0.03125,0.765625,0.4375
1696254892803,0.64941406,-0.11260986,0.7782593,0.375,-0.390625,0.15625
1696254892845,0.65478516,-0.097961426,0.77923584,-0.109375,-0.625,0.03125
1696254892862,0.65356445,-0.10040283,0.77923584,-0.28125,-0.359375,0.171875
1696254892904,0.6520996,-0.11260986,0.77557373,-0.203125,-0.125,0.140625
1696254892945,0.654541,-0.10601807,0.7797241,0.0625,-0.640625,0.09375
1696254893006,0.6574707,-0.11236572,0.77996826,0.140625,-0.5625,0.15625
1696254893022,0.65283203,-0.109680176,0.77679443,0.171875,-0.578125,0.34375
1696254893064,0.65234375,-0.10992432,0.78045654,-0.359375,-0.484375,0.296875
1696254893105,0.6501465,-0.105773926,0.7892456,-0.140625,-0.078125,0.359375
1696254893142,0.6491699,-0.10772705,0.7809448,0.21875,-0.140625,0.296875
1696254893184,0.65893555,-0.108947754,0.78411865,-0.1875,-0.515625,0.09375
1696254893245,0.6574707,-0.10723877,0.7789917,-0.15625,-0.609375,0.1875
1696254893261,0.65405273,-0.113342285,0.77337646,-0.625,-0.359375,0.265625
1696254893305,0.65478516,-0.11431885,0.78045654,-0.125,-0.1875,-0.0625
1696254893363,0.65063477,-0.11529541,0.7772827,0.921875,-0.140625,0.171875
1696254893381,0.64819336,-0.11065674,0.7785034,0.890625,-0.796875,0.21875
1696254893424,0.65234375,-0.10284424,0.77996826,0.015625,-0.5,0.25
1696254893464,0.6530762,-0.10772705,0.7789917,-0.046875,0.140625,0.203125
1696254893505,0.654541,-0.117248535,0.7860718,-0.21875,-0.046875,0.46875
1696254893543,0.6599121,-0.11187744,0.776062,0.3125,-1.03125,0.359375
1696254893586,0.65893555,-0.11016846,0.7711792,-0.34375,-0.96875,0.21875
1696254893623,0.6530762,-0.109191895,0.7765503,-0.03125,0.15625,0.359375
1696254893663,0.65844727,-0.109436035,0.77386475,0.34375,-0.59375,0.484375
1696254893702,0.6599121,-0.10845947,0.7802124,0.15625,-1.265625,0.234375
1696254893744,0.65234375,-0.11260986,0.774353,-0.359375,-1.375,0.109375
1696254893782,0.657959,-0.109680176,0.777771,-0.578125,-0.875,0.28125
1696254893845,0.6525879,-0.11602783,0.7838745,-0.296875,-1.203125,0.15625
1696254893863,0.6484375,-0.11456299,0.7807007,-0.03125,-1.625,0.15625
1696254893903,0.6525879,-0.11480713,0.7826538,0.28125,-1.375,0.234375
1696254893945,0.64746094,-0.11480713,0.77996826,-0.125,-1.046875,0.21875
1696254893982,0.65185547,-0.11212158,0.78289795,-0.375,-1.125,0.21875
1696254894024,0.64941406,-0.11260986,0.78582764,-0.484375,-0.90625,0.171875
1696254894062,0.6538086,-0.10870361,0.77996826,-0.6875,-1.6875,0.0625
1696254894103,0.65283203,-0.11212158,0.7860718,-0.5,-1.25,0.203125
1696254894165,0.6386719,-0.10992432,0.7860718,-1.0625,-1.0,0.28125
1696254894183,0.6516113,-0.10626221,0.79022217,-0.171875,-0.828125,0.078125
1696254894202,0.6452637,-0.105285645,0.7819214,0.109375,-1.1875,-0.078125
1696254894243,0.6467285,-0.105773926,0.78289795,-0.515625,-1.484375,0.125
1696254894284,0.64575195,-0.105041504,0.7897339,-0.125,-1.375,0.03125
1696254894325,0.6430664,-0.11138916,0.78167725,-0.3125,-0.875,0.375
1696254894363,0.64331055,-0.10699463,0.793396,-0.921875,-1.1875,0.3125
1696254894403,0.6477051,-0.10430908,0.7914429,-0.578125,-1.296875,0.328125
1696254894444,0.642334,-0.109436035,0.78948975,-0.34375,-0.8125,0.25
1696254894482,0.6411133,-0.10845947,0.79437256,0.28125,-0.640625,0.453125
1696254894524,0.6381836,-0.10675049,0.7938843,-0.125,-1.09375,0.484375
1696254894563,0.63916016,-0.09893799,0.793396,-0.734375,-1.15625,0.296875
1696254894603,0.6411133,-0.10357666,0.7904663,-0.59375,-0.953125,0.328125
1696254894644,0.6455078,-0.10455322,0.795105,-0.625,-0.875,0.28125
1696254894683,0.6386719,-0.1038208,0.793396,-0.8125,-1.21875,0.21875
1696254894724,0.640625,-0.10406494,0.7953491,-0.515625,-1.515625,0.109375
1696254894765,0.6340332,-0.09991455,0.79803467,-0.015625,-0.78125,0.1875
1696254894806,0.6352539,-0.105285645,0.79559326,0.359375,-0.796875,0.328125
1696254894863,0.62768555,-0.10015869,0.789978,-0.4375,-0.78125,0.171875
1696254894882,0.6347656,-0.10089111,0.7914429,-0.75,-0.828125,0.109375
1696254894923,0.6352539,-0.09844971,0.79608154,-0.328125,-0.5625,0.03125
1696254894963,0.6335449,-0.09967041,0.80145264,-0.125,-0.03125,0.328125
1696254895002,0.6357422,-0.10430908,0.79559326,0.0,-0.171875,0.28125
1696254895044,0.63500977,-0.09918213,0.7975464,-0.078125,-0.953125,-0.09375
1696254895084,0.64208984,-0.09454346,0.7975464,-0.03125,-0.671875,-0.203125
1696254895123,0.63720703,-0.097961426,0.79241943,0.390625,-0.0625,0.078125
1696254895162,0.6359863,-0.09893799,0.79364014,0.4375,0.296875,-0.046875
1696254895202,0.63623047,-0.11187744,0.80584717,0.265625,0.203125,0.09375
1696254895244,0.6364746,-0.10406494,0.793396,0.1875,0.3125,0.28125
1696254895289,0.64160156,-0.10235596,0.7953491,0.359375,0.46875,0.203125
1696254895321,0.638916,-0.105529785,0.79071045,0.578125,0.578125,0.234375
1696254895366,0.63964844,-0.11114502,0.79364014,0.984375,0.53125,0.15625
1696254895404,0.6425781,-0.10211182,0.789978,0.296875,0.328125,0.21875
1696254895466,0.6413574,-0.09844971,0.7868042,-0.46875,0.359375,0.1875
1696254895482,0.64501953,-0.10406494,0.78656006,-0.5,0.328125,0.265625
1696254895503,0.6442871,-0.10748291,0.78900146,0.0,0.03125,0.140625
1696254895565,0.6430664,-0.10650635,0.7860718,0.46875,-0.046875,0.046875
1696254895604,0.6455078,-0.10601807,0.79119873,0.84375,0.140625,0.234375
1696254895622,0.64575195,-0.10992432,0.7914429,0.75,0.296875,0.21875
1696254895663,0.64575195,-0.1038208,0.78582764,0.109375,-0.125,0.203125
1696254895704,0.64453125,-0.10284424,0.78411865,-0.390625,0.015625,0.234375
1696254895743,0.64746094,-0.109680176,0.7802124,-0.546875,0.34375,0.28125
1696254895784,0.64746094,-0.10601807,0.78778076,-0.515625,0.078125,0.234375
1696254895824,0.6467285,-0.10675049,0.78460693,0.234375,0.25,0.28125
1696254895885,0.6525879,-0.11187744,0.7904663,0.921875,-0.296875,-0.015625
1696254895925,0.6472168,-0.10064697,0.7809448,0.53125,-0.078125,0.046875
1696254895964,0.64819336,-0.10723877,0.78338623,0.15625,0.015625,0.078125
1696254895983,0.64697266,-0.10992432,0.78582764,-0.4375,0.21875,0.265625
1696254896026,0.6520996,-0.11114502,0.7855835,0.15625,-0.453125,0.265625
1696254896061,0.6479492,-0.105041504,0.7875366,-0.1875,-0.5,0.203125
1696254896125,0.6513672,-0.105529785,0.78289795,0.1875,0.421875,0.421875
1696254896143,0.64453125,-0.116760254,0.78167725,0.390625,0.171875,0.375
1696254896182,0.6567383,-0.10748291,0.7850952,0.1875,-0.421875,0.078125
1696254896222,0.6569824,-0.10650635,0.7772827,-0.296875,-0.421875,0.15625
1696254896264,0.65283203,-0.10626221,0.777771,-0.328125,0.015625,0.265625
1696254896303,0.65356445,-0.1116333,0.78656006,-0.015625,-0.234375,0.328125
1696254896346,0.65112305,-0.109436035,0.7821655,0.15625,-0.59375,0.046875
1696254896383,0.65625,-0.105041504,0.7821655,0.078125,-0.25,0.265625
1696254896424,0.6525879,-0.10992432,0.78240967,0.515625,-0.203125,0.28125
1696254896463,0.6520996,-0.11016846,0.776062,0.125,-0.4375,0.015625
1696254896502,0.6501465,-0.10040283,0.7802124,-0.46875,-0.75,0.265625
1696254896544,0.65356445,-0.11065674,0.77557373,-0.1875,0.03125,0.296875
1696254896604,0.65893555,-0.10479736,0.7802124,-0.3125,-0.171875,0.265625
1696254896645,0.66015625,-0.11090088,0.78289795,-0.25,-0.390625,0.21875
1696254896664,0.6508789,-0.1116333,0.7785034,0.5625,-0.984375,0.109375
1696254896724,0.65844727,-0.10748291,0.78582764,0.34375,-0.875,0.140625
1696254896763,0.6491699,-0.10601807,0.77801514,-0.0625,-0.609375,0.09375
1696254896783,0.6489258,-0.10748291,0.7855835,-0.75,-0.625,0.328125
1696254896802,0.65478516,-0.10675049,0.78900146,-0.125,-1.3125,0.21875
1696254896843,0.6513672,-0.10650635,0.78118896,-0.515625,-1.21875,0.203125
1696254896884,0.6503906,-0.10601807,0.78289795,-0.5,-0.796875,0.046875
1696254896924,0.6455078,-0.11114502,0.7814331,0.375,-0.78125,0.328125
1696254896962,0.6472168,-0.109680176,0.7809448,0.171875,-1.265625,0.265625
1696254897002,0.65405273,-0.101623535,0.78533936,-0.53125,-1.390625,0.109375
1696254897042,0.6542969,-0.101867676,0.7809448,-0.859375,-1.390625,0.25
1696254897084,0.6489258,-0.10845947,0.78900146,-0.203125,-1.203125,0.203125
1696254897126,0.6430664,-0.113586426,0.78826904,-0.78125,-2.3125,0.09375
1696254897164,0.64746094,-0.10455322,0.79119873,-1.21875,-2.015625,0.03125
1696254897202,0.6394043,-0.105773926,0.79022217,0.015625,-1.1875,0.234375
1696254897243,0.6394043,-0.105529785,0.78289795,-0.1875,-1.234375,0.265625
1696254897285,0.64453125,-0.11090088,0.79022217,-0.78125,-1.484375,0.265625
1696254897323,0.63916016,-0.09698486,0.7946167,-0.359375,-1.234375,0.40625
1696254897363,0.640625,-0.10430908,0.78533936,-0.234375,-0.8125,0.4375
1696254897404,0.6394043,-0.10333252,0.7904663,-0.1875,-1.1875,0.34375
1696254897443,0.6398926,-0.101135254,0.7926636,-0.125,-1.15625,0.3125
1696254897484,0.64038086,-0.10235596,0.7987671,-0.328125,-1.21875,0.09375
1696254897524,0.6413574,-0.10211182,0.7963257,0.078125,-1.0,0.265625
1696254897563,0.63500977,-0.10308838,0.7914429,-0.03125,-0.578125,0.203125
1696254897602,0.63256836,-0.10357666,0.8041382,-0.8125,-1.109375,0.421875
1696254897646,0.6394043,-0.10748291,0.7926636,-0.640625,-1.296875,0.1875
1696254897702,0.63305664,-0.10211182,0.7987671,-0.859375,-0.890625,0.265625
1696254897722,0.6401367,-0.097473145,0.79437256,-0.515625,-0.296875,0.4375
1696254897765,0.63916016,-0.109436035,0.7958374,-0.015625,-0.84375,0.3125
1696254897801,0.6352539,-0.094055176,0.7977905,-0.234375,-1.078125,0.34375
1696254897846,0.6357422,-0.10040283,0.7970581,-0.3125,-0.84375,0.234375
1696254897883,0.63793945,-0.10040283,0.7970581,-0.703125,-0.875,0.328125
1696254897923,0.63623047,-0.09576416,0.79852295,-0.796875,-1.1875,0.328125
1696254897963,0.6328125,-0.1026001,0.8024292,-0.21875,-1.15625,0.28125
1696254898003,0.63134766,-0.09576416,0.8043823,0.421875,-1.3125,0.296875
1696254898042,0.626709,-0.10357666,0.79974365,-0.09375,-0.984375,0.203125
1696254898125,0.62890625,-0.09674072,0.7992554,-0.390625,-0.84375,0.296875
1696254898129,0.625,-0.09991455,0.7977905,-0.9375,-0.65625,0.328125
1696254898166,0.6340332,-0.09454346,0.8029175,-0.375,-0.25,0.21875
1696254898183,0.63134766,-0.097961426,0.8060913,0.15625,-0.5,0.1875
1696254898245,0.6347656,-0.105041504,0.7987671,-0.453125,-0.375,0.1875
1696254898262,0.6311035,-0.09210205,0.7999878,0.296875,-0.75,0.109375
1696254898302,0.63427734,-0.089904785,0.8012085,0.25,-0.625,0.015625
1696254898344,0.6345215,-0.09991455,0.80340576,0.4375,-0.09375,0.328125
1696254898401,0.6315918,-0.09503174,0.7999878,-0.375,-0.5,0.15625
1696254898421,0.62890625,-0.09893799,0.79974365,-0.125,-0.4375,0.25
1696254898463,0.63500977,-0.10211182,0.79974365,-0.21875,-0.484375,0.078125
1696254898502,0.63134766,-0.09649658,0.7987671,0.40625,0.203125,0.21875
1696254898545,0.6281738,-0.101379395,0.7958374,0.59375,0.015625,0.3125
1696254898583,0.63720703,-0.09503174,0.80340576,0.359375,-0.046875,0.0
1696254898624,0.63134766,-0.097717285,0.79486084,-0.25,-0.234375,0.046875
1696254898664,0.63256836,-0.09576416,0.7975464,-0.1875,-0.0625,0.265625
1696254898704,0.62890625,-0.101867676,0.7914429,0.375,-0.015625,0.125
1696254898745,0.63427734,-0.10797119,0.7965698,0.828125,0.1875,0.078125
1696254898805,0.6323242,-0.10455322,0.8031616,1.5,0.390625,-0.015625
1696254898845,0.63061523,-0.10357666,0.79852295,1.359375,0.421875,0.265625
1696254898884,0.6381836,-0.10845947,0.79803467,0.03125,0.171875,0.0
1696254898901,0.63378906,-0.0960083,0.79193115,-0.875,0.40625,0.234375
1696254898966,0.63671875,-0.105773926,0.7875366,-0.09375,0.671875,0.25
1696254899006,0.6430664,-0.1038208,0.7909546,-0.28125,0.375,0.171875
1696254899022,0.63916016,-0.097473145,0.7880249,-0.21875,0.15625,0.015625
1696254899085,0.6357422,-0.10601807,0.79119873,0.625,0.046875,0.1875
1696254899124,0.64868164,-0.101135254,0.79022217,0.953125,0.296875,0.015625
1696254899142,0.6411133,-0.09429932,0.795105,1.03125,0.515625,-0.015625
1696254899184,0.640625,-0.10430908,0.78582764,0.046875,0.75,0.125
1696254899223,0.6477051,-0.10650635,0.78900146,-0.296875,-0.234375,0.15625
1696254899263,0.6459961,-0.10479736,0.79119873,-0.1875,-0.40625,0.234375
1696254899304,0.6437988,-0.105773926,0.78704834,-0.03125,0.1875,0.1875
1696254899343,0.64038086,-0.10430908,0.78704834,0.28125,0.65625,0.359375
1696254899403,0.64404297,-0.1116333,0.79241943,0.484375,0.109375,0.296875
1696254899422,0.642334,-0.10089111,0.79022217,0.09375,-0.0625,0.265625
1696254899442,0.6503906,-0.10601807,0.7887573,-0.25,-0.171875,0.203125
1696254899483,0.6513672,-0.109436035,0.7885132,-0.3125,-0.109375,0.1875
1696254899523,0.6484375,-0.109191895,0.7855835,0.078125,-0.421875,0.15625
1696254899563,0.64575195,-0.10211182,0.78533936,0.40625,-0.1875,0.171875
1696254899603,0.6496582,-0.109436035,0.7836304,0.359375,0.1875,0.171875
1696254899647,0.6430664,-0.10650635,0.78826904,0.234375,-0.09375,0.21875
1696254899683,0.64624023,-0.108947754,0.7860718,0.25,0.046875,0.21875
1696254899722,0.6520996,-0.1104126,0.7809448,-0.03125,-0.078125,0.109375
1696254899763,0.6508789,-0.10235596,0.77948,-0.234375,-0.421875,0.15625
1696254899803,0.6472168,-0.10626221,0.7723999,-0.28125,-0.53125,0.0625
1696254899845,0.65112305,-0.105773926,0.7860718,-0.8125,-0.234375,0.28125
1696254899886,0.6501465,-0.10357666,0.7848511,-0.15625,-0.109375,0.109375
1696254899922,0.6525879,-0.113342285,0.7868042,0.875,-0.453125,0.078125
1696254899963,0.6530762,-0.10284424,0.78289795,0.421875,-0.921875,0.203125
1696254900003,0.6459961,-0.101135254,0.7838745,-0.109375,-0.296875,0.0625
1696254900044,0.6452637,-0.10772705,0.77996826,-0.25,0.0,0.28125
1696254900085,0.65234375,-0.10748291,0.79022217,0.28125,-0.40625,0.25
1696254900123,0.65234375,-0.10675049,0.78118896,0.15625,-0.59375,0.328125
1696254900165,0.6550293,-0.09967041,0.78411865,-0.1875,-0.109375,0.109375
1696254900203,0.6530762,-0.11431885,0.77923584,0.15625,0.46875,0.5
1696254900243,0.65771484,-0.10601807,0.7782593,0.515625,-0.46875,0.28125
1696254900293,0.6550293,-0.10455322,0.78582764,-0.015625,-0.59375,-0.046875
1696254900344,0.64868164,-0.09893799,0.77679443,-0.234375,-0.5,0.171875
1696254900363,0.65600586,-0.10699463,0.7789917,-0.109375,-0.375,0.203125
1696254900402,0.6516113,-0.109436035,0.7821655,-0.015625,-0.671875,0.3125
1696254900443,0.65478516,-0.10675049,0.77801514,0.359375,-0.484375,0.125
1696254900483,0.65185547,-0.1104126,0.77752686,0.21875,-0.390625,0.140625
1696254900523,0.6516113,-0.1026001,0.7826538,-0.3125,-0.21875,0.234375
1696254900562,0.6520996,-0.10626221,0.78167725,0.078125,-0.125,0.359375
1696254900603,0.65771484,-0.1104126,0.7765503,-0.0625,-0.453125,0.265625
1696254900644,0.6567383,-0.10626221,0.7863159,0.109375,-0.59375,0.1875
1696254900682,0.64990234,-0.10626221,0.77508545,-0.5,-0.5625,0.421875
1696254900725,0.6599121,-0.112854004,0.7814331,-0.75,-0.546875,0.1875
1696254900742,0.6472168,-0.10601807,0.78118896,0.171875,-0.40625,0.078125
1696254900783,0.657959,-0.10992432,0.7843628,0.859375,-1.34375,0.09375
1696254900823,0.65600586,-0.10626221,0.78118896,0.21875,-1.390625,0.03125
1696254900863,0.64501953,-0.10772705,0.78411865,-0.296875,-0.765625,0.421875
1696254900904,0.6496582,-0.11187744,0.7904663,-0.84375,-0.828125,0.328125
1696254900942,0.6557617,-0.113098145,0.78289795,-0.109375,-1.359375,0.3125
1696254900984,0.6437988,-0.10357666,0.78656006,-0.65625,-1.015625,0.25
1696254901026,0.64868164,-0.10089111,0.78778076,0.015625,-0.96875,0.34375
1696254901064,0.64746094,-0.10748291,0.78533936,0.03125,-1.328125,0.453125
1696254901102,0.6513672,-0.101867676,0.78826904,-0.65625,-1.15625,0.328125
1696254901144,0.6479492,-0.09698486,0.78411865,-0.71875,-1.65625,0.203125
1696254901184,0.6491699,-0.09698486,0.7838745,-0.640625,-1.578125,0.21875
1696254901245,0.6447754,-0.10308838,0.791687,-0.609375,-1.609375,0.140625
1696254901261,0.6447754,-0.109436035,0.79119873,-0.625,-1.578125,0.328125
1696254901304,0.6425781,-0.10821533,0.78948975,-0.3125,-1.703125,0.25
1696254901366,0.6386719,-0.10357666,0.791687,-0.28125,-1.390625,0.109375
1696254901382,0.6364746,-0.105285645,0.7941284,-0.1875,-1.265625,0.28125
1696254901445,0.6386719,-0.1026001,0.795105,-0.828125,-1.1875,0.34375
1696254901464,0.63964844,-0.10064697,0.7904663,-0.796875,-1.234375,0.0625
1696254901525,0.63964844,-0.09967041,0.7887573,-0.59375,-1.25,0.28125
1696254901542,0.6357422,-0.09454346,0.79364014,-0.625,-0.6875,0.28125
1696254901584,0.640625,-0.10308838,0.80218506,-0.59375,-0.921875,0.078125
1696254901624,0.6315918,-0.105529785,0.79559326,-0.6875,-1.53125,0.15625
1696254901664,0.6357422,-0.094055176,0.80145264,-0.65625,-1.5,0.171875
1696254901744,0.6352539,-0.09698486,0.79559326,0.15625,-1.234375,0.234375
1696254901747,0.6257324,-0.101867676,0.79901123,-0.140625,-0.78125,0.296875
1696254901804,0.625,-0.097717285,0.8070679,-0.1875,-1.1875,0.234375
1696254901822,0.6364746,-0.09234619,0.80023193,-0.375,-1.15625,0.453125
1696254901863,0.6374512,-0.09844971,0.7975464,-0.625,-0.5,0.21875
1696254901904,0.63500977,-0.101867676,0.7958374,0.5625,0.0625,0.359375
1696254901943,0.6340332,-0.10284424,0.79681396,0.640625,-0.328125,0.21875
1696254901983,0.63378906,-0.09698486,0.79803467,0.046875,-0.625,0.109375
1696254902026,0.63720703,-0.09893799,0.79559326,-0.46875,-0.421875,0.234375
1696254902043,0.63623047,-0.10308838,0.80340576,-0.15625,-0.375,0.203125
1696254902083,0.63427734,-0.09967041,0.7994995,-0.03125,-0.453125,0.34375
1696254902124,0.63500977,-0.09088135,0.807312,0.359375,-0.390625,0.078125
1696254902163,0.62524414,-0.10089111,0.80462646,1.015625,-0.125,0.15625
1696254902202,0.63134766,-0.101379395,0.8041382,0.03125,0.046875,0.140625
1696254902245,0.63720703,-0.09844971,0.7958374,-0.359375,0.0625,0.21875
1696254902283,0.63134766,-0.09625244,0.79681396,0.171875,0.53125,0.15625
1696254902325,0.63378906,-0.10235596,0.79364014,0.09375,0.40625,0.140625
1696254902364,0.6374512,-0.1038208,0.793396,-0.046875,0.140625,0.0625
1696254902403,0.63720703,-0.10064697,0.7958374,0.328125,-0.03125,0.09375
1696254902442,0.6364746,-0.10723877,0.79437256,0.328125,-0.03125,0.078125
1696254902483,0.640625,-0.0960083,0.7926636,0.609375,0.40625,0.046875
1696254902523,0.6386719,-0.101379395,0.79730225,0.25,0.8125,0.203125
1696254902563,0.63793945,-0.10333252,0.8012085,0.3125,0.421875,0.078125
1696254902606,0.6464844,-0.101135254,0.7926636,0.125,-0.078125,0.1875
1696254902644,0.64404297,-0.09063721,0.78900146,0.28125,0.4375,0.109375
1696254902684,0.63378906,-0.109436035,0.7904663,0.640625,1.296875,0.421875
1696254902727,0.6386719,-0.10723877,0.78582764,0.9375,0.53125,0.28125
1696254902769,0.64990234,-0.109191895,0.78533936,0.4375,0.171875,0.1875
1696254902804,0.65405273,-0.10601807,0.7909546,-0.265625,0.03125,0.09375
1696254902844,0.6425781,-0.109191895,0.7785034,-0.171875,-0.015625,0.09375
1696254902905,0.6430664,-0.112854004,0.78582764,-0.15625,-0.28125,0.078125
1696254902922,0.64575195,-0.10675049,0.78900146,0.015625,-0.140625,0.15625
1696254902963,0.64331055,-0.10333252,0.7909546,0.625,0.171875,0.234375
1696254903004,0.64086914,-0.10626221,0.78900146,0.703125,0.28125,0.375
1696254903043,0.6508789,-0.10211182,0.7802124,-0.125,-0.265625,0.203125
1696254903083,0.63916016,-0.10626221,0.78289795,-0.53125,-0.203125,0.109375
1696254903125,0.64697266,-0.105773926,0.7843628,-0.546875,-0.03125,0.15625
1696254903165,0.65112305,-0.10870361,0.7855835,-0.3125,0.328125,0.0625
1696254903205,0.6464844,-0.10821533,0.78826904,0.71875,0.0625,0.15625
1696254903245,0.654541,-0.10601807,0.77996826,0.5,-0.6875,0.1875
1696254903285,0.65527344,-0.09942627,0.78289795,0.25,-0.59375,0.15625
1696254903364,0.64404297,-0.10675049,0.7785034,-0.109375,0.46875,0.3125
1696254903368,0.6467285,-0.10845947,0.7887573,0.09375,0.28125,0.375
1696254903386,0.6503906,-0.11065674,0.78167725,0.078125,-0.515625,0.03125
1696254903423,0.6538086,-0.09967041,0.7836304,0.078125,-0.28125,0.234375
1696254903464,0.6525879,-0.11383057,0.78045654,0.59375,0.15625,0.421875
1696254903505,0.64746094,-0.113342285,0.78240967,0.21875,-1.0,0.484375
1696254903543,0.65185547,-0.11138916,0.7875366,-0.296875,-1.40625,0.078125
1696254903590,0.6508789,-0.10455322,0.7807007,-0.9375,-0.984375,0.09375
1696254903623,0.6516113,-0.11016846,0.7819214,-0.59375,-0.984375,0.28125
1696254903663,0.6447754,-0.10455322,0.7863159,-0.484375,-1.59375,0.21875
1696254903704,0.6479492,-0.10699463,0.7843628,-0.171875,-1.609375,0.28125
1696254903745,0.6459961,-0.10430908,0.78900146,0.09375,-1.515625,0.109375
1696254903786,0.6455078,-0.1104126,0.78656006,0.28125,-1.328125,0.25
1696254903824,0.64575195,-0.1116333,0.78704834,-0.546875,-1.71875,0.203125
1696254903864,0.6430664,-0.10015869,0.78656006,-0.71875,-1.625,0.046875
1696254903905,0.6401367,-0.101867676,0.7953491,-0.921875,-0.96875,0.109375
1696254903943,0.64038086,-0.10626221,0.79901123,-0.84375,-1.171875,0.25
1696254904005,0.6452637,-0.1026001,0.78948975,-0.609375,-1.265625,0.203125
1696254904044,0.63916016,-0.10357666,0.79486084,-0.328125,-1.453125,-0.015625
1696254904062,0.6477051,-0.09625244,0.7885132,0.359375,-1.125,0.125
1696254904104,0.63916016,-0.10430908,0.7926636,0.234375,-0.453125,0.375
1696254904144,0.6345215,-0.10357666,0.79974365,-0.84375,-0.984375,0.28125
1696254904204,0.6418457,-0.10064697,0.7897339,-0.34375,-1.421875,0.203125
1696254904223,0.64208984,-0.097473145,0.7992554,-0.59375,-1.1875,0.15625
1696254904264,0.6320801,-0.10015869,0.79559326,-0.328125,-0.703125,0.421875
1696254904302,0.6369629,-0.09918213,0.8019409,-0.109375,-1.03125,0.40625
1696254904366,0.63720703,-0.10284424,0.79803467,-0.734375,-1.34375,0.109375
1696254904382,0.64038086,-0.09185791,0.8007202,-0.625,-1.140625,0.21875
1696254904422,0.6386719,-0.09210205,0.7992554,-0.53125,-0.984375,0.1875
1696254904464,0.63305664,-0.10406494,0.80023193,-0.71875,-1.125,0.34375
1696254904506,0.6291504,-0.097229004,0.80267334,-0.3125,-1.046875,0.109375
1696254904544,0.6328125,-0.10333252,0.80389404,-0.015625,-1.109375,0.28125
1696254904583,0.63061523,-0.09844971,0.7975464,0.328125,-0.734375,0.1875
1696254904624,0.6386719,-0.09674072,0.7999878,-0.296875,-1.015625,0.1875
1696254904663,0.63061523,-0.093566895,0.79730225,-0.796875,-0.671875,0.265625
1696254904684,0.63061523,-0.10333252,0.7977905,-0.515625,-0.140625,0.28125
1696254904722,0.6315918,-0.09869385,0.7992554,-0.078125,-0.203125,0.203125
1696254904762,0.6315918,-0.0960083,0.7982788,-0.09375,-0.21875,0.234375
1696254904803,0.6333008,-0.093811035,0.8012085,0.671875,-0.609375,0.109375
1696254904844,0.623291,-0.09576416,0.7975464,0.390625,-0.78125,-0.03125
1696254904884,0.63183594,-0.097229004,0.7975464,0.328125,-0.15625,0.109375
1696254904923,0.63378906,-0.09820557,0.8036499,0.015625,0.0625,0.234375
1696254904964,0.6279297,-0.09942627,0.80804443,0.09375,-0.1875,0.046875
1696254905004,0.6320801,-0.0947876,0.7999878,0.0,-0.140625,0.109375
1696254905045,0.6320801,-0.09527588,0.7987671,0.375,0.125,0.265625
1696254905084,0.62719727,-0.101623535,0.80096436,0.625,0.453125,0.34375
1696254905126,0.6357422,-0.10479736,0.7994995,0.9375,0.484375,0.09375
1696254905164,0.63183594,-0.10064697,0.7987671,0.203125,0.328125,0.203125
1696254905205,0.6394043,-0.09918213,0.7958374,0.0,0.5,0.15625
1696254905245,0.6452637,-0.10772705,0.79437256,-0.203125,0.15625,0.25
1696254905282,0.6394043,-0.1038208,0.7999878,-0.109375,-0.234375,0.078125
1696254905324,0.64331055,-0.10430908,0.79559326,0.46875,0.0625,0.171875
1696254905363,0.63500977,-0.10430908,0.8004761,0.765625,0.515625,0.0625
1696254905402,0.6352539,-0.09942627,0.7977905,0.765625,0.375,0.25
1696254905444,0.63549805,-0.1038208,0.7953491,-0.421875,0.140625,0.078125
1696254905482,0.6359863,-0.10235596,0.7914429,-0.296875,0.234375,0.203125
1696254905523,0.6435547,-0.10406494,0.78704834,-0.4375,0.453125,0.34375
1696254905563,0.64624023,-0.1026001,0.79486084,-0.203125,0.078125,0.125
1696254905604,0.64404297,-0.109191895,0.78704834,0.578125,0.046875,0.09375
1696254905644,0.64868164,-0.10723877,0.7880249,0.640625,-0.203125,0.03125
1696254905684,0.6442871,-0.10650635,0.78826904,0.5,-0.03125,-0.078125
1696254905723,0.6455078,-0.105529785,0.78167725,0.296875,0.40625,0.1875
1696254905763,0.6413574,-0.11431885,0.7958374,-0.140625,0.0625,0.15625
1696254905803,0.6398926,-0.11236572,0.789978,0.09375,-0.453125,0.109375
1696254905844,0.6520996,-0.1038208,0.7797241,-0.328125,-0.359375,0.171875
1696254905883,0.64282227,-0.10040283,0.7848511,0.1875,0.640625,0.328125
1696254905922,0.6437988,-0.108947754,0.78826904,0.421875,0.25,0.484375
1696254905986,0.64282227,-0.09942627,0.78411865,0.03125,-0.34375,0.15625
1696254906004,0.65405273,-0.097473145,0.78289795,-0.34375,-0.34375,0.15625
1696254906023,0.6503906,-0.11090088,0.78240967,-0.078125,-0.28125,0.078125
1696254906065,0.6464844,-0.10992432,0.7848511,-0.015625,-0.515625,0.15625
1696254906104,0.65356445,-0.1038208,0.7838745,0.171875,-0.703125,0.109375
1696254906145,0.64624023,-0.1104126,0.7872925,0.40625,-0.265625,0.125
1696254906183,0.6479492,-0.09918213,0.78118896,-0.203125,-0.125,0.296875
1696254906245,0.64575195,-0.1104126,0.7863159,-0.1875,-0.140625,0.375
1696254906285,0.65112305,-0.1038208,0.78704834,0.0625,-0.171875,0.234375
1696254906303,0.64990234,-0.09967041,0.78411865,-0.171875,-0.46875,0.21875
1696254906343,0.65405273,-0.11187744,0.78948975,0.1875,-0.390625,0.3125
1696254906384,0.64990234,-0.105529785,0.7872925,-0.265625,-0.34375,0.421875
1696254906424,0.64868164,-0.10455322,0.78289795,-0.765625,-0.890625,0.109375
1696254906464,0.6437988,-0.11383057,0.78460693,0.234375,-0.875,-0.046875
1696254906524,0.6525879,-0.113342285,0.78167725,0.65625,-1.40625,0.109375
1696254906543,0.64697266,-0.10333252,0.7850952,-0.140625,-1.234375,0.046875
1696254906584,0.64697266,-0.10284424,0.7887573,-0.609375,-0.84375,0.234375
1696254906622,0.6479492,-0.11212158,0.7909546,-0.703125,-1.109375,0.4375
1696254906665,0.63793945,-0.105285645,0.7838745,0.03125,-1.65625,0.234375
1696254906705,0.640625,-0.1038208,0.7843628,-0.5625,-1.578125,0.1875
1696254906745,0.6374512,-0.10333252,0.79022217,-0.1875,-1.046875,0.3125
1696254906785,0.6401367,-0.1026001,0.78533936,-0.203125,-1.4375,0.359375
1696254906823,0.64501953,-0.10406494,0.7977905,-0.3125,-1.546875,0.09375
1696254906883,0.6369629,-0.09942627,0.79437256,-0.703125,-1.859375,0.25
1696254906902,0.64624023,-0.101623535,0.7992554,-0.359375,-1.375,0.265625
1696254906943,0.64038086,-0.10675049,0.79241943,-0.84375,-1.34375,0.28125
1696254906981,0.640625,-0.1026001,0.80023193,-0.171875,-1.3125,0.421875
1696254907021,0.63183594,-0.105773926,0.7946167,-0.296875,-1.359375,0.296875
1696254907064,0.6328125,-0.0960083,0.7977905,-0.34375,-1.34375,0.15625
1696254907103,0.6308594,-0.10430908,0.7941284,-0.203125,-1.234375,0.328125
1696254907144,0.64160156,-0.097473145,0.80267334,-0.875,-1.34375,0.296875
1696254907205,0.6376953,-0.09844971,0.79852295,-0.921875,-1.34375,0.078125
1696254907224,0.6311035,-0.09991455,0.7963257,-0.5,-1.109375,0.296875
1696254907265,0.6381836,-0.10015869,0.8053589,-0.09375,-0.6875,0.28125
1696254907303,0.63305664,-0.10357666,0.79974365,-0.828125,-0.796875,0.125
1696254907323,0.6323242,-0.101135254,0.79974365,-0.5,-1.0,0.296875
1696254907364,0.6320801,-0.09210205,0.79486084,-0.140625,-1.4375,0.15625
1696254907405,0.6274414,-0.09429932,0.80145264,-0.078125,-0.671875,0.203125
1696254907444,0.62890625,-0.10064697,0.80145264,-0.59375,-0.90625,0.28125
1696254907483,0.6296387,-0.09698486,0.8007202,0.109375,-1.046875,0.28125
1696254907523,0.6335449,-0.09527588,0.8036499,-0.15625,-0.75,0.328125
1696254907564,0.6311035,-0.09844971,0.8097534,0.375,0.09375,0.109375
1696254907604,0.6279297,-0.10015869,0.8029175,0.984375,-0.75,0.28125
1696254907644,0.62646484,-0.10015869,0.80023193,-0.3125,-0.5625,0.1875
1696254907682,0.63720703,-0.09674072,0.8007202,-0.40625,-0.203125,0.15625
1696254907724,0.6254883,-0.0947876,0.8043823,-0.5,-0.015625,0.09375
1696254907764,0.62768555,-0.09844971,0.8053589,-0.265625,-0.40625,0.09375
1696254907802,0.6281738,-0.10089111,0.8029175,0.265625,-0.3125,0.0625
1696254907843,0.62768555,-0.08770752,0.8048706,0.453125,-0.359375,0.171875
1696254907887,0.626709,-0.09942627,0.8043823,0.5625,-0.21875,0.234375
1696254907923,0.6315918,-0.09893799,0.805603,-0.265625,-0.140625,0.125
1696254907970,0.63183594,-0.09161377,0.7992554,-0.40625,0.203125,0.046875
1696254908023,0.63793945,-0.10064697,0.7946167,-0.375,0.4375,0.296875
1696254908042,0.6376953,-0.10040283,0.80511475,0.015625,0.140625,0.140625
1696254908085,0.6381836,-0.10064697,0.8029175,0.125,0.265625,0.0625
1696254908125,0.6347656,-0.09698486,0.8016968,0.421875,0.171875,0.078125
1696254908167,0.6335449,-0.09649658,0.7999878,0.59375,0.3125,0.0625
1696254908205,0.6364746,-0.097473145,0.79803467,0.8125,0.953125,0.171875
1696254908245,0.63183594,-0.09918213,0.7975464,0.015625,0.5625,0.328125
1696254908284,0.6418457,-0.10284424,0.7982788,0.171875,-0.109375,0.203125
1696254908323,0.6437988,-0.094055176,0.7929077,0.046875,-0.234375,0.21875
1696254908366,0.63916016,-0.10211182,0.793396,0.3125,0.4375,0.140625
1696254908405,0.63720703,-0.10284424,0.7963257,0.578125,0.828125,0.421875
1696254908442,0.6455078,-0.10064697,0.79119873,0.734375,0.65625,0.109375
1696254908484,0.64697266,-0.097717285,0.78948975,-0.015625,0.203125,0.078125
1696254908523,0.6442871,-0.10064697,0.7872925,0.046875,0.125,0.171875
1696254908564,0.6447754,-0.10357666,0.78826904,-0.109375,0.015625,0.328125
1696254908604,0.64331055,-0.105285645,0.7863159,-0.015625,-0.40625,0.296875
1696254908665,0.6447754,-0.101867676,0.78948975,0.21875,-0.0625,0.203125
1696254908669,0.6491699,-0.097717285,0.7885132,0.34375,0.34375,0.15625
1696254908704,0.64819336,-0.101379395,0.78826904,0.53125,0.09375,0.21875
1696254908745,0.63964844,-0.10748291,0.79364014,0.328125,0.234375,0.203125
1696254908783,0.65234375,-0.10723877,0.78900146,-0.03125,-0.53125,0.21875
1696254908824,0.6489258,-0.10089111,0.78826904,0.03125,-0.390625,0.140625
1696254908863,0.6503906,-0.101379395,0.79974365,1.03125,0.265625,0.265625
