# Sensor type: Respeck
# Activity type: Normal walking
# Activity subtype: Normal
# Subject id: s2106809
# Notes: unprocessed
timestamp,accel_x,accel_y,accel_z,gyro_x,gyro_y,gyro_z
1696258030404,-0.0859375,-0.94122314,0.23431396,0.59375,17.5,2.375
1696258030444,-0.06616211,-0.9800415,0.27215576,-1.59375,20.359375,-0.546875
1696258030484,-0.025390625,-0.9993286,0.29437256,-3.03125,16.28125,-5.96875
1696258030523,-0.08569336,-0.9685669,0.25042725,-0.890625,14.21875,-8.984375
1696258030563,-0.119384766,-0.9365845,0.22528076,-2.0,21.796875,-8.1875
1696258030603,-0.07519531,-0.93048096,0.3241577,-2.734375,36.140625,-4.40625
1696258030645,-0.053955078,-0.972229,0.3217163,-6.75,33.0625,-7.53125
1696258030684,0.0029296875,-1.2637329,0.078552246,-12.0,15.328125,-7.78125
1696258030744,0.38354492,-1.4680786,-0.04840088,-2.390625,24.390625,5.96875
1696258030765,0.11791992,-1.1311646,0.15008545,-7.515625,46.484375,-11.890625
1696258030804,-0.1940918,-0.7786255,-0.030578613,-21.640625,14.828125,-13.84375
1696258030844,-0.0793457,-0.8682251,-0.008361816,-5.421875,9.015625,-0.546875
1696258030925,0.24926758,-1.2136841,-0.0015258789,23.453125,23.203125,7.34375
1696258030935,0.29589844,-1.098938,0.23577881,-5.4375,26.578125,-12.640625
1696258030945,-0.07519531,-0.7666626,0.062194824,-8.890625,4.625,-12.5
1696258030985,-0.20361328,-0.59698486,-0.019592285,3.375,0.328125,1.03125
1696258031027,-0.12548828,-0.6724243,0.093933105,6.90625,19.1875,3.65625
1696258031064,-0.012451172,-0.97247314,0.10736084,10.84375,21.3125,4.0
1696258031105,-7.324219E-4,-0.98565674,0.11102295,5.828125,12.90625,3.09375
1696258031145,-0.060058594,-0.9104614,0.19696045,2.0625,3.421875,5.796875
1696258031185,-0.12133789,-0.9873657,0.19085693,0.71875,0.984375,6.890625
1696258031225,-0.060791016,-1.1680298,0.24139404,-3.734375,2.140625,10.203125
1696258031268,-0.052978516,-1.1685181,0.25335693,2.75,-4.484375,7.234375
1696258031307,-0.096191406,-1.49469,0.042419434,-8.421875,-17.140625,6.25
1696258031343,0.15600586,-1.3955688,0.030456543,-1.765625,-7.640625,-0.78125
1696258031385,0.54003906,-0.95806885,0.1449585,10.828125,-6.84375,-11.5
1696258031423,0.42871094,-0.6897583,0.11102295,-6.8125,-13.65625,-9.359375
1696258031464,-0.1003418,-0.9463501,0.031677246,-10.921875,3.078125,-2.25
1696258031505,-0.12695312,-1.0925903,0.08441162,-5.640625,13.71875,3.828125
1696258031545,0.24682617,-0.87164307,0.12713623,-3.078125,9.390625,-7.328125
1696258031584,0.24853516,-0.68536377,0.2748413,-2.15625,-8.453125,-8.953125
1696258031624,0.0087890625,-0.6482544,0.21673584,0.078125,-7.1875,-0.734375
1696258031665,-0.11694336,-0.7901001,0.12347412,-0.28125,-3.46875,5.828125
1696258031707,-0.053955078,-0.8364868,0.19769287,10.15625,8.453125,6.25
1696258031746,0.001953125,-0.90509033,0.2909546,11.15625,-0.859375,1.140625
1696258031784,-0.033691406,-0.96539307,0.25628662,7.75,3.109375,0.875
1696258031824,-0.028076172,-1.1216431,0.26654053,5.3125,13.390625,0.0625
1696258031866,-0.036621094,-1.133606,0.37005615,4.34375,13.359375,-6.984375
1696258031905,-0.2932129,-1.2573853,0.1774292,-8.9375,12.46875,-9.546875
1696258031944,0.11279297,-1.5029907,-0.023498535,-9.640625,27.53125,-2.796875
1696258031985,0.35083008,-1.1113892,-0.061340332,-12.8125,31.5625,-5.671875
1696258032025,0.28051758,-0.8230591,-0.09283447,-14.5625,4.90625,-4.9375
1696258032065,-0.06933594,-0.96099854,-0.0960083,-2.328125,-1.296875,1.828125
1696258032104,-0.19604492,-1.2424927,0.06048584,4.484375,17.359375,4.296875
1696258032167,0.111572266,-1.0200806,0.17059326,4.640625,12.828125,-7.9375
1696258032185,0.1616211,-0.7481079,0.08856201,-1.328125,5.09375,-16.28125
1696258032225,0.018310547,-0.5796509,-0.026184082,1.46875,-4.375,-1.515625
1696258032245,-0.10205078,-0.5913696,0.07293701,3.84375,-0.84375,13.953125
1696258032284,-0.11816406,-0.76690674,0.14886475,0.484375,6.6875,14.328125
1696258032325,-0.110839844,-0.9002075,0.09515381,1.203125,9.421875,7.4375
1696258032365,-0.07397461,-1.0193481,0.12322998,7.34375,5.703125,7.578125
1696258032405,-0.00390625,-1.1567993,0.21453857,1.5625,2.4375,9.25
1696258032445,-0.029785156,-1.1636353,0.262146,1.3125,3.0,9.203125
1696258032484,-0.12792969,-1.2529907,0.20550537,-3.328125,-18.21875,5.734375
1696258032527,-0.2331543,-1.4934692,0.018981934,-16.515625,-16.640625,-2.34375
1696258032565,0.5239258,-1.2520142,-0.041809082,-1.484375,8.953125,-6.40625
1696258032606,0.8132324,-0.92633057,0.27801514,10.09375,-4.453125,-17.6875
1696258032646,0.2709961,-0.7984009,0.10491943,-8.3125,-18.25,-8.65625
1696258032685,-0.1105957,-1.0942993,0.026306152,-4.296875,-1.65625,9.703125
1696258032724,0.08959961,-0.98809814,0.07098389,3.125,8.203125,-2.078125
1696258032767,0.2824707,-0.6946411,0.2074585,4.046875,0.71875,-11.078125
1696258032805,0.18457031,-0.6069946,0.23724365,1.453125,-15.265625,-2.734375
1696258032844,-0.016113281,-0.64630127,0.15228271,1.625,-18.375,3.96875
1696258032883,-0.11645508,-0.8045044,0.17913818,4.625,-7.765625,5.5625
1696258032924,-0.05444336,-0.9258423,0.20941162,7.96875,4.578125,2.703125
1696258032967,0.072753906,-0.892395,0.27508545,7.4375,-6.265625,-2.09375
1696258033005,-0.028076172,-0.9639282,0.20672607,7.4375,-2.28125,-1.078125
1696258033046,-0.072021484,-1.1817017,0.30169678,4.75,4.234375,3.109375
1696258033085,-0.21411133,-1.3088989,0.3805542,7.03125,13.3125,-4.875
1696258033125,-0.19506836,-1.4668579,0.18377686,-5.609375,16.65625,-5.25
1696258033165,0.30639648,-1.322815,-0.011047363,0.328125,23.53125,-1.515625
1696258033204,0.38964844,-1.0081177,-0.042785645,-9.453125,15.875,-7.5
1696258033246,0.24902344,-0.7839966,-0.09674072,-8.234375,-8.734375,-0.734375
1696258033285,-0.20751953,-1.1216431,-0.073791504,-7.140625,-2.90625,7.609375
1696258033327,-0.037597656,-1.1008911,0.13323975,9.90625,12.28125,1.65625
1696258033364,0.21777344,-0.8892212,0.16937256,1.328125,3.921875,-12.5625
1696258033403,0.14697266,-0.6104126,0.035827637,-5.703125,-4.234375,-14.203125
1696258033444,-0.052734375,-0.50250244,-0.03717041,0.921875,-10.328125,2.5625
1696258033485,-0.14355469,-0.5835571,0.09124756,-1.65625,-6.78125,12.21875
1696258033544,-0.22875977,-0.8357544,0.16668701,8.53125,1.453125,8.71875
1696258033564,-0.1694336,-1.0044556,0.14788818,6.578125,9.96875,5.859375
1696258033583,0.0,-1.0752563,0.21258545,2.765625,-0.40625,5.390625
1696258033624,0.052978516,-1.2910767,0.27386475,-10.703125,-4.703125,7.625
1696258033664,-0.064697266,-1.3294067,0.37420654,-5.546875,-10.28125,13.265625
1696258033704,-0.23657227,-1.5357056,0.03363037,-20.484375,-39.703125,10.390625
1696258033743,0.15771484,-1.2625122,-0.06011963,3.328125,-12.203125,-7.421875
1696258033783,0.62768555,-0.913147,0.12884521,20.6875,-1.40625,-16.4375
1696258033826,0.4802246,-0.79156494,0.085876465,-1.03125,-6.109375,-10.015625
1696258033866,-0.038330078,-0.98150635,0.024597168,-9.671875,0.671875,2.171875
1696258033908,-0.08496094,-1.104065,-0.012756348,-4.375,12.359375,4.609375
1696258033945,0.19482422,-0.8049927,0.14202881,-4.3125,12.984375,-11.578125
1696258033984,0.28198242,-0.61016846,0.25701904,2.953125,-4.046875,-11.171875
1696258034027,0.008300781,-0.5261841,0.21258545,0.265625,-15.75,-1.953125
1696258034065,-0.15600586,-0.69244385,0.16546631,1.59375,-10.78125,9.8125
1696258034107,-0.12719727,-0.85943604,0.20892334,7.859375,7.671875,11.4375
1696258034147,-0.03955078,-0.94488525,0.3126831,7.59375,-8.578125,0.109375
1696258034185,-0.060058594,-1.0066528,0.262146,8.984375,-5.71875,-2.34375
1696258034226,-0.005859375,-1.1316528,0.20770264,3.53125,2.84375,7.03125
1696258034265,-0.11206055,-1.3560181,0.2267456,6.328125,8.46875,5.109375
1696258034305,0.10546875,-1.8010864,0.043640137,-0.359375,20.296875,11.5
1696258034344,0.34936523,-1.4011841,0.022399902,-11.171875,19.5625,-4.96875
1696258034384,0.17285156,-0.9204712,-0.09429932,-8.59375,-1.875,-18.21875
1696258034424,0.08129883,-0.67315674,-0.10284424,-11.78125,0.265625,-1.21875
1696258034465,-0.049804688,-0.9043579,-0.070373535,8.671875,5.765625,6.109375
1696258034512,0.1184082,-1.0547485,0.073913574,8.453125,15.4375,2.046875
1696258034546,0.18115234,-0.8899536,0.16326904,-8.1875,-0.875,-11.640625
1696258034587,0.09277344,-0.6638794,0.012878418,-3.734375,-11.828125,-11.078125
1696258034624,-0.07495117,-0.5510864,-0.034973145,-7.0625,-1.90625,1.109375
1696258034668,-0.1706543,-0.60772705,0.121276855,-6.65625,1.46875,5.46875
1696258034704,-0.19921875,-0.8389282,0.13372803,2.75,9.171875,6.65625
1696258034745,-0.05883789,-1.0339966,0.15472412,1.34375,12.28125,6.71875
1696258034783,0.041748047,-1.1140747,0.27874756,0.1875,-0.421875,-0.1875
1696258034845,0.08105469,-1.1575317,0.28582764,-4.84375,-4.4375,6.796875
1696258034864,-0.049316406,-1.2249146,0.17181396,7.3125,-14.5625,14.984375
1696258034885,-0.2199707,-1.6084595,0.12249756,-10.0,-19.140625,9.890625
1696258034924,0.36376953,-1.331604,-0.020324707,1.484375,-26.640625,-8.8125
1696258034968,0.4958496,-0.9849243,0.04510498,16.125,-13.1875,-25.375
1696258035005,0.32177734,-0.7671509,0.16033936,-8.421875,0.234375,-6.9375
1696258035045,0.034423828,-1.0244751,0.07366943,0.140625,-4.3125,8.40625
1696258035087,0.046875,-1.0701294,0.050476074,-4.140625,5.78125,4.53125
1696258035125,0.19165039,-0.8128052,0.1876831,-2.890625,2.578125,-12.203125
1696258035164,0.14868164,-0.5991821,0.21820068,6.0625,-6.3125,-8.46875
1696258035206,-0.03857422,-0.5745239,0.1642456,4.78125,-15.125,3.078125
1696258035245,-0.11791992,-0.71661377,0.18328857,2.765625,-0.59375,10.0
1696258035287,-0.11376953,-0.864563,0.19671631,12.78125,3.78125,8.40625
1696258035327,-0.05029297,-0.9380493,0.31219482,5.546875,-4.234375,-2.53125
1696258035364,-0.06738281,-0.9854126,0.2164917,4.25,-0.734375,-4.953125
1696258035405,-0.0078125,-1.1504517,0.24505615,-2.53125,3.625,-1.5
1696258035444,-0.15161133,-1.2927856,0.40203857,6.859375,12.875,-2.4375
1696258035486,-0.15917969,-1.6189575,0.11785889,-6.8125,19.21875,-1.21875
1696258035524,0.29882812,-1.3919067,-0.012512207,-2.0,24.453125,-5.859375
1696258035565,0.23632812,-0.8882446,-0.008605957,-18.59375,23.0625,-20.640625
1696258035606,0.16040039,-0.7112427,-0.097961426,-2.609375,-5.96875,-1.875
1696258035645,-0.15234375,-0.98028564,-0.039123535,-8.53125,4.046875,10.625
1696258035686,0.030761719,-1.1387329,0.11224365,4.09375,8.21875,7.421875
1696258035725,0.12109375,-1.0066528,0.17230225,7.859375,-2.828125,-11.765625
1696258035764,0.0068359375,-0.6265259,0.058776855,2.953125,-8.59375,-10.484375
1696258035805,-0.21142578,-0.48614502,0.058532715,2.546875,-2.703125,3.953125
1696258035848,-0.19921875,-0.58673096,0.09661865,-1.6875,8.6875,13.1875
1696258035886,-0.060302734,-0.76885986,0.09613037,3.453125,7.9375,12.328125
1696258035925,9.765625E-4,-0.98760986,0.20550537,5.203125,4.875,7.234375
1696258035964,-0.037353516,-1.173645,0.22650146,11.28125,-7.6875,3.96875
1696258036005,-0.1484375,-1.3140259,0.2753296,-7.796875,-6.84375,10.640625
1696258036044,-0.2253418,-1.3670044,0.3505249,-12.140625,-16.296875,10.328125
1696258036086,-0.16430664,-1.5776978,-0.008361816,-21.15625,-26.0,0.359375
1696258036126,0.42285156,-1.2913208,-0.15362549,1.40625,-12.40625,-7.5625
1696258036164,0.7182617,-0.8909302,0.3024292,21.421875,6.546875,-17.859375
1696258036184,0.30419922,-0.74542236,0.09051514,-9.765625,-16.8125,-2.015625
1696258036225,-0.118896484,-1.0442505,0.010925293,-6.328125,-4.890625,9.5625
1696258036267,-0.033935547,-1.0630493,0.06829834,-0.34375,11.921875,3.890625
1696258036305,0.25512695,-0.6946411,0.2189331,0.75,3.609375,-9.71875
1696258036344,0.19873047,-0.54766846,0.2662964,0.953125,-14.6875,-4.765625
1696258036383,-0.04638672,-0.5413208,0.20916748,-0.1875,-18.875,4.8125
1696258036426,-0.21679688,-0.7312622,0.18670654,7.078125,-5.640625,8.515625
1696258036466,-0.14208984,-0.8826294,0.19647217,8.921875,5.828125,6.3125
1696258036509,0.011474609,-0.9014282,0.3829956,10.765625,-2.4375,-3.296875
1696258036545,-0.028076172,-1.1419067,0.14886475,13.578125,0.34375,0.171875
1696258036587,-0.012451172,-1.2280884,0.34979248,4.6875,9.890625,0.5625
1696258036624,-0.26171875,-1.4505005,0.28753662,0.59375,13.78125,-2.78125
1696258036665,0.19555664,-1.6865845,0.0680542,-12.109375,18.734375,-2.046875
1696258036706,0.34594727,-1.2168579,-0.06915283,-23.546875,19.265625,-10.015625
1696258036744,0.30419922,-0.81744385,-0.1416626,-13.953125,-4.28125,-8.3125
1696258036785,0.07763672,-0.78497314,-0.040100098,-1.21875,-10.46875,6.859375
1696258036826,-0.16357422,-1.1187134,0.02142334,10.25,7.09375,6.75
1696258036868,0.05493164,-0.9517212,0.15472412,11.671875,7.96875,0.71875
1696258036925,0.16601562,-0.6963501,0.16546631,-0.46875,-6.359375,-10.28125
1696258036945,0.027832031,-0.5701294,0.0036010742,4.5625,-13.84375,-4.421875
1696258036986,-0.18676758,-0.583313,0.007507324,-5.53125,-7.75,7.734375
1696258037027,-0.25732422,-0.68634033,0.14007568,-9.734375,0.125,9.90625
1696258037064,-0.16894531,-0.90582275,0.14642334,2.5625,10.140625,5.625
1696258037105,0.044677734,-1.0689087,0.20135498,6.84375,12.5,5.9375
1696258037148,0.056884766,-1.2525024,0.31585693,2.515625,-1.90625,4.40625
1696258037186,-0.10205078,-1.2525024,0.3451538,-4.3125,-13.34375,9.53125
1696258037225,-0.26391602,-1.4229126,0.17596436,-15.34375,-28.5,10.671875
1696258037266,-0.091796875,-1.4998169,-0.14996338,-3.234375,-22.859375,-3.546875
1696258037306,0.84887695,-1.0584106,0.054870605,11.359375,8.703125,-14.1875
1696258037346,0.6262207,-0.8352661,0.25579834,10.703125,-5.328125,-11.9375
1696258037384,-0.05029297,-0.9710083,0.0079956055,-11.078125,-9.90625,2.078125
1696258037438,-0.16870117,-1.1294556,-0.023498535,-0.984375,13.21875,8.625
1696258037467,0.13745117,-0.77227783,0.137146,5.0,18.109375,-11.34375
1696258037485,0.31469727,-0.56134033,0.25579834,1.703125,1.84375,-10.796875
1696258037524,0.08520508,-0.4968872,0.1876831,-1.890625,-15.171875,1.3125
1696258037564,-0.114746094,-0.6494751,0.14544678,1.15625,-16.875,10.609375
1696258037606,-0.17773438,-0.880188,0.117370605,8.015625,3.625,11.421875
1696258037645,0.0024414062,-1.0213013,0.2946167,1.890625,6.0,5.203125
1696258037684,0.010498047,-1.0491333,0.29388428,13.796875,-2.6875,-3.140625
1696258037725,-0.084228516,-1.1499634,0.19110107,0.734375,2.4375,-3.203125
1696258037787,-0.22290039,-1.15094,0.3270874,1.796875,19.046875,-6.953125
1696258037806,-0.20263672,-1.6524048,0.13348389,4.3125,27.234375,-2.109375
1696258037845,0.53393555,-1.4749146,0.012878418,-8.03125,24.734375,-2.140625
1696258037888,0.32006836,-0.9805298,-0.0713501,-19.5625,7.953125,-20.203125
1696258037925,0.13769531,-0.79473877,-0.14654541,-13.296875,-10.40625,-2.859375
1696258037967,-0.27441406,-0.9973755,-0.06964111,-15.921875,1.046875,6.046875
1696258038005,0.009033203,-1.0786743,0.1149292,11.765625,15.625,2.140625
1696258038049,0.26611328,-0.8899536,0.19769287,1.78125,9.625,-12.546875
1696258038086,0.1303711,-0.631897,0.0758667,3.140625,-12.375,-11.921875
1696258038125,-0.09423828,-0.5010376,-0.00592041,2.484375,-14.328125,5.625
1696258038166,-0.2265625,-0.5967407,0.10028076,-2.890625,-2.09375,15.21875
1696258038204,-0.21923828,-0.8164673,0.11785889,5.828125,8.625,10.09375
1696258038261,-0.091308594,-0.9273071,0.12982178,8.25,12.984375,7.46875
1696258038283,0.016601562,-1.0684204,0.23138428,9.65625,2.796875,6.921875
1696258038323,0.076171875,-1.326477,0.28826904,-5.46875,-3.59375,12.296875
1696258038364,-0.1875,-1.3196411,0.31048584,-4.328125,-20.5625,12.28125
1696258038404,-0.28710938,-1.6038208,0.055603027,-16.453125,-23.125,6.1875
1696258038443,0.2849121,-1.291565,-0.10479736,0.234375,-5.0,-6.640625
1696258038483,0.7141113,-1.034729,0.20965576,17.828125,5.09375,-20.390625
1696258038523,0.46679688,-0.7463989,0.06829834,-4.375,-18.953125,-8.0
1696258038564,-0.111328125,-0.91363525,0.01751709,-3.828125,-8.984375,7.109375
1696258038603,-0.059570312,-1.06427,0.06072998,-0.390625,8.46875,9.28125
1696258038644,0.18066406,-0.8220825,0.16204834,-0.640625,5.140625,-11.1875
1696258038684,0.23706055,-0.63897705,0.23553467,-1.5,-7.609375,-10.578125
1696258038724,-0.001953125,-0.55914307,0.18719482,-0.5,-12.703125,-0.09375
1696258038764,-0.15698242,-0.7192993,0.14691162,5.03125,-4.359375,8.34375
1696258038783,-0.13427734,-0.9146118,0.19158936,6.578125,9.828125,9.40625
1696258038823,0.019042969,-0.93292236,0.32196045,0.109375,-6.40625,-0.140625
1696258038864,0.009277344,-0.9331665,0.24334717,9.828125,-6.1875,-5.328125
1696258038903,-0.079589844,-1.1785278,0.2140503,3.125,6.28125,-1.6875
1696258038944,-0.25024414,-1.3294067,0.31097412,1.703125,17.28125,-8.375
1696258038984,-0.05419922,-1.7688599,0.08880615,-18.171875,22.90625,-2.3125
1696258039024,0.45336914,-1.3743286,0.024597168,-19.71875,24.921875,-10.21875
1696258039063,0.2980957,-0.84332275,-0.06524658,-17.359375,1.078125,-19.578125
1696258039104,0.03173828,-0.76348877,-0.033996582,-10.09375,-12.578125,-1.578125
1696258039144,-0.13745117,-0.9800415,0.043395996,8.625,5.453125,9.359375
1696258039184,0.024658203,-1.0413208,0.14935303,5.984375,6.359375,4.765625
1696258039224,0.14355469,-0.8291626,0.1720581,1.609375,2.125,-12.1875
1696258039264,-0.049072266,-0.6387329,0.047302246,7.328125,-10.140625,-6.4375
1696258039305,-0.16918945,-0.49395752,0.11785889,-5.625,-3.6875,5.828125
1696258039344,-0.15258789,-0.6189575,0.16204834,-3.15625,-2.46875,9.671875
1696258039384,-0.115722656,-0.88482666,0.11663818,3.1875,4.9375,7.5625
1696258039423,-0.1262207,-1.0230103,0.21820068,1.21875,0.421875,6.546875
1696258039463,-0.032470703,-1.1555786,0.26019287,-0.0625,-1.1875,1.84375
1696258039504,-0.10913086,-1.1990356,0.3624878,-3.90625,-7.25,5.953125
1696258039543,-0.28344727,-1.3201294,0.2633667,-6.875,-25.234375,8.3125
1696258039586,-0.14428711,-1.4766235,0.16400146,1.875,-11.890625,-0.75
1696258039625,0.41333008,-1.288147,0.0914917,-0.921875,-13.03125,-7.9375
1696258039664,0.4951172,-0.92974854,0.16131592,22.234375,-10.296875,-12.71875
1696258039704,0.31030273,-0.7334595,0.16082764,-5.9375,-9.84375,1.453125
1696258039743,-0.12475586,-1.0020142,0.10223389,2.984375,0.9375,13.15625
1696258039784,-0.07836914,-1.0772095,0.06903076,1.21875,16.28125,9.265625
1696258039824,0.16625977,-0.75787354,0.21258545,-0.40625,10.34375,-11.828125
1696258039863,0.119140625,-0.5918579,0.26287842,5.5625,-4.546875,-7.265625
1696258039904,-0.046875,-0.5466919,0.19525146,4.25,-10.4375,6.5
1696258039944,-0.07495117,-0.7036743,0.18865967,7.140625,-4.3125,13.734375
1696258039983,-0.0126953125,-0.98272705,0.20770264,12.625,0.328125,11.859375
1696258040024,0.05102539,-0.9649048,0.3258667,2.34375,-4.71875,0.03125
1696258040064,-0.06982422,-1.0332642,0.15228271,7.75,-3.40625,-0.609375
1696258040104,-0.115722656,-1.2383423,0.18328857,6.421875,9.0625,0.328125
1696258040125,0.0703125,-1.6294556,0.10418701,0.953125,18.296875,15.546875
1696258040164,0.3466797,-1.5217896,0.4628296,-2.6875,21.953125,3.234375
1696258040205,-0.03515625,-1.3760376,-0.043273926,-11.328125,-3.640625,-24.484375
1696258040244,0.10083008,-0.80474854,-0.07623291,-11.015625,13.6875,-12.84375
1696258040284,0.19604492,-0.54034424,-0.18170166,-0.203125,2.640625,0.25
1696258040325,-0.041503906,-0.8694458,-0.006164551,5.1875,9.40625,-0.21875
1696258040365,-0.017822266,-1.0183716,0.13665771,0.25,7.203125,4.90625
1696258040404,0.10961914,-0.9661255,0.1251831,-0.21875,-5.75,-8.84375
1696258040444,0.020263672,-0.6626587,0.01776123,2.5,1.5,-13.203125
1696258040484,-0.16552734,-0.5042114,0.030456543,-2.0625,-5.875,2.171875
1696258040524,-0.19946289,-0.5701294,0.11907959,0.75,-3.140625,9.859375
1696258040565,-0.14135742,-0.84625244,0.10101318,-0.9375,14.15625,10.3125
1696258040605,-0.028076172,-1.0418091,0.20013428,6.84375,11.0625,12.28125
1696258040645,-0.034423828,-1.3352661,0.21014404,6.9375,-11.3125,2.625
1696258040683,-0.056884766,-1.2583618,0.15863037,-8.359375,-7.4375,6.859375
1696258040725,-0.21459961,-1.5300903,0.112976074,-16.4375,-21.625,14.359375
1696258040765,0.118896484,-1.475647,-0.0071411133,-9.171875,-7.734375,-2.25
1696258040805,0.5891113,-1.0610962,0.016784668,8.046875,-10.78125,-20.640625
1696258040844,0.51464844,-0.7559204,0.13031006,3.1875,-11.203125,-9.375
1696258040885,0.13500977,-0.9104614,0.07342529,-11.71875,-16.28125,8.1875
1696258040924,-0.02709961,-1.178772,0.07196045,-1.65625,2.65625,12.984375
1696258040964,0.08911133,-0.88775635,0.051940918,0.1875,6.96875,-11.5625
1696258041004,0.14819336,-0.5750122,0.2374878,2.203125,0.375,-15.609375
1696258041046,0.045898438,-0.46466064,0.2374878,-1.546875,-9.078125,-0.875
1696258041085,-0.083984375,-0.60162354,0.19281006,1.859375,-9.234375,8.90625
1696258041124,-0.045654297,-0.8442993,0.1552124,8.328125,0.671875,12.296875
1696258041164,0.07739258,-0.99346924,0.3336792,3.234375,-7.625,2.328125
1696258041205,-0.08105469,-0.8821411,0.26531982,19.1875,-10.09375,-4.609375
1696258041244,-0.16186523,-1.114563,0.11224365,10.84375,3.953125,5.375
1696258041285,-0.18847656,-1.2698364,0.36419678,4.390625,19.953125,-2.40625
1696258041324,-0.099853516,-1.645813,0.14813232,-9.6875,21.984375,-3.890625
1696258041366,0.47265625,-1.5620728,0.036071777,-14.859375,19.0625,-3.40625
1696258041405,0.20996094,-1.0230103,-0.097473145,-20.40625,17.890625,-14.40625
1696258041425,0.15405273,-0.7505493,-0.09063721,-17.703125,-6.359375,-2.84375
1696258041465,-0.078125,-0.88775635,-0.05303955,-0.796875,6.046875,6.03125
1696258041503,0.016357422,-1.0772095,0.024108887,17.046875,17.671875,6.421875
1696258041545,0.19262695,-0.94781494,0.20770264,6.03125,9.53125,-7.578125
1696258041585,0.079833984,-0.6860962,0.097595215,2.5625,-9.125,-12.796875
1696258041625,-0.15332031,-0.5462036,-0.05328369,-2.53125,-9.265625,0.59375
1696258041665,-0.21118164,-0.5708618,0.051208496,-10.28125,0.6875,10.53125
1696258041704,-0.12133789,-0.7859497,0.1317749,-1.15625,6.046875,11.421875
1696258041744,-0.03930664,-0.9656372,0.15911865,4.390625,10.15625,6.234375
1696258041786,-0.040771484,-1.0962524,0.28485107,5.703125,-0.453125,0.75
1696258041824,-0.0925293,-1.1985474,0.22991943,-3.0,-2.71875,7.09375
1696258041865,-0.06982422,-1.1885376,0.2748413,-0.390625,-5.15625,9.25
1696258041904,-0.28515625,-1.598938,0.2723999,-8.40625,-15.15625,5.1875
1696258041944,0.04663086,-1.3919067,-0.12579346,-5.046875,-15.640625,-7.703125
1696258041985,0.70288086,-1.0161743,0.06341553,16.6875,-7.078125,-15.5625
1696258042026,0.7663574,-0.7473755,0.277771,-1.109375,-14.40625,-6.5625
1696258042066,-0.051757812,-0.9360962,-0.014709473,-14.609375,-13.84375,5.65625
1696258042106,-0.21948242,-1.1775513,0.008239746,3.34375,-2.21875,14.046875
1696258042146,0.140625,-0.82354736,0.1293335,2.28125,17.09375,-11.4375
1696258042186,0.21582031,-0.6235962,0.2675171,4.046875,1.125,-9.515625
1696258042226,0.04736328,-0.53497314,0.17718506,0.4375,-13.578125,1.78125
1696258042265,-0.09301758,-0.6519165,0.13006592,5.484375,-8.96875,9.4375
1696258042305,-0.11450195,-0.84161377,0.16473389,10.171875,4.484375,9.65625
1696258042344,0.06201172,-0.99005127,0.3126831,-2.0,3.046875,5.0
1696258042384,0.033691406,-0.94732666,0.30755615,7.53125,-3.390625,-2.21875
1696258042424,-0.06713867,-1.1607056,0.21478271,-0.640625,-9.109375,1.140625
1696258042466,-0.26171875,-1.232727,0.45941162,3.046875,22.15625,-0.34375
1696258042504,-0.30908203,-1.3799438,0.2062378,-1.0625,19.703125,-12.03125
1696258042545,0.24658203,-1.4060669,0.016784668,-3.265625,26.9375,-10.21875
1696258042585,0.47070312,-1.2000122,-0.23736572,-12.0625,29.609375,-3.03125
1696258042623,0.31469727,-0.86920166,-0.085754395,-11.40625,-2.078125,-3.4375
1696258042685,-0.22998047,-1.0005493,-0.06768799,-9.90625,-21.140625,-1.28125
1696258042703,-0.14379883,-0.93463135,0.11004639,7.3125,4.796875,4.03125
1696258042724,0.2043457,-0.85528564,0.11224365,13.765625,8.671875,-4.28125
1696258042763,0.20117188,-0.69073486,0.09539795,1.828125,-5.671875,-13.203125
1696258042803,-0.024902344,-0.5667114,0.007019043,7.5,-27.765625,2.609375
1696258042843,-0.2055664,-0.6213989,0.06048584,-2.6875,-17.609375,16.328125
1696258042884,-0.265625,-0.8296509,0.16326904,1.546875,3.75,10.9375
1696258042923,-0.12890625,-0.95391846,0.112976074,7.734375,6.890625,4.453125
1696258042963,0.12573242,-0.95098877,0.19915771,3.34375,-10.375,6.84375
1696258043003,-0.0017089844,-1.3103638,0.2501831,1.828125,-8.375,13.390625
1696258043044,-0.17993164,-1.4180298,0.23602295,-12.5,-16.0,15.328125
1696258043084,-0.1418457,-1.545227,0.24847412,-20.0625,-32.4375,9.40625
1696258043126,0.114746094,-1.2449341,-0.14727783,-7.515625,-22.609375,-4.3125
1696258043164,0.74658203,-1.020813,0.137146,13.796875,-9.671875,-19.703125
1696258043205,0.43286133,-0.83599854,0.17889404,1.9375,-9.25,-4.75
1696258043247,-0.041015625,-1.0122681,0.027770996,-17.796875,-12.859375,8.65625
1696258043284,-0.04296875,-1.1570435,0.0067749023,-1.0625,9.859375,5.65625
1696258043326,0.16992188,-0.81451416,0.14276123,4.828125,9.71875,-16.453125
1696258043367,0.21264648,-0.53326416,0.2514038,2.765625,0.25,-9.5
1696258043404,-0.02734375,-0.43145752,0.19744873,1.546875,-8.75,1.8125
1696258043444,-0.16625977,-0.5725708,0.12957764,6.484375,-9.265625,7.59375
1696258043485,-0.08276367,-0.7996216,0.17767334,5.234375,3.90625,10.0625
1696258043524,0.11328125,-0.98809814,0.42694092,3.5,-5.546875,5.34375
1696258043564,0.01977539,-1.295227,0.21453857,9.8125,-21.90625,-1.25
1696258043604,-0.0793457,-1.2210083,0.29974365,0.859375,-3.625,-2.71875
1696258043644,-0.39624023,-1.3447876,0.2987671,7.265625,22.5625,-5.671875
1696258043684,0.12133789,-1.6226196,0.05633545,-6.96875,27.5625,-4.25
1696258043724,0.4970703,-1.310852,0.019226074,-15.53125,23.796875,-12.109375
1696258043765,0.36279297,-0.84210205,-0.13018799,-14.203125,-9.15625,-12.671875
1696258043804,0.09277344,-0.72735596,-0.062805176,-11.546875,-21.578125,7.265625
1696258043843,-0.1730957,-1.076477,0.0016479492,8.4375,-1.125,12.890625
1696258043884,0.04663086,-1.0908813,0.199646,11.0,6.875,1.9375
1696258043926,0.1105957,-0.7979126,0.15325928,-0.09375,2.53125,-17.109375
1696258043965,0.018066406,-0.52227783,0.014099121,-2.109375,-11.015625,-10.84375
1696258044024,-0.1015625,-0.47686768,0.018493652,-7.359375,-7.1875,4.9375
1696258044047,-0.1628418,-0.62579346,0.1642456,-9.75,-1.640625,14.75
1696258044065,-0.17602539,-0.8911743,0.18035889,4.484375,-2.46875,10.109375
1696258044104,-0.041503906,-1.0586548,0.2098999,8.28125,0.453125,4.90625
1696258044145,0.046142578,-1.234436,0.3065796,2.859375,-1.0625,1.921875
1696258044185,-0.01171875,-1.2249146,0.2982788,-7.09375,-11.96875,6.140625
1696258044224,-0.17016602,-1.4695435,0.3217163,-6.34375,-31.328125,12.3125
1696258044265,-0.03857422,-1.5100708,-0.074279785,3.84375,-22.09375,-0.203125
1696258044304,0.7109375,-1.1155396,-0.013244629,4.578125,-17.625,-14.265625
1696258044345,0.62597656,-0.8369751,0.29364014,13.390625,-10.734375,-11.234375
1696258044388,0.041015625,-0.9312134,0.024353027,-7.578125,-22.890625,6.9375
1696258044426,-0.09741211,-1.1057739,0.10443115,-1.390625,3.90625,15.265625
1696258044465,0.083740234,-0.8352661,0.062194824,4.765625,3.5,-7.75
1696258044504,0.23242188,-0.5889282,0.22698975,-0.1875,-4.375,-11.4375
1696258044546,0.059326172,-0.49298096,0.24578857,-0.90625,-13.484375,0.75
1696258044585,-0.06713867,-0.6067505,0.17376709,1.390625,-20.265625,7.953125
1696258044625,-0.08862305,-0.8718872,0.19525146,5.921875,-5.125,11.625
1696258044665,-0.022460938,-1.0098267,0.33172607,4.421875,-3.640625,6.0625
1696258044704,-0.06591797,-0.94659424,0.29901123,6.484375,-17.5,-6.359375
1696258044765,-0.048339844,-1.1028442,0.1876831,0.34375,-10.765625,-1.796875
1696258044784,-0.17773438,-1.2905884,0.37713623,1.328125,12.984375,-1.234375
1696258044824,-0.2529297,-1.7334595,0.28753662,-4.84375,19.359375,0.9375
1696258044864,0.48095703,-1.5335083,0.08685303,-6.734375,15.40625,-4.234375
1696258044905,0.38745117,-0.93218994,-0.06866455,-16.046875,13.8125,-22.546875
1696258044943,0.31152344,-0.64385986,-0.023254395,-7.140625,-13.953125,-3.765625
1696258045004,-0.092041016,-0.8027954,-0.023010254,-2.828125,-19.3125,8.453125
1696258045044,-0.19335938,-1.236145,0.058776855,6.734375,4.703125,8.6875
1696258045084,0.12768555,-1.0215454,0.18548584,0.796875,5.890625,-7.578125
1696258045105,0.1586914,-0.736145,0.117614746,1.8125,-14.03125,-15.796875
1696258045144,0.020507812,-0.5757446,0.074157715,0.359375,-14.5,1.640625
1696258045185,-0.20947266,-0.6013794,0.16009521,-5.84375,-11.703125,11.0625
1696258045244,-0.26171875,-0.7727661,0.11810303,6.421875,-3.671875,5.75
1696258045265,-0.13647461,-0.8340454,0.113708496,6.1875,4.703125,4.859375
1696258045306,0.007080078,-0.8850708,0.20721436,9.78125,2.921875,8.65625
1696258045346,0.0063476562,-1.1929321,0.2189331,3.28125,-3.90625,7.921875
1696258045365,-0.15625,-1.2925415,0.2982788,-9.015625,-14.5,9.640625
1696258045406,-0.22387695,-1.348938,0.2538452,-11.9375,-23.015625,9.03125
1696258045447,-0.107666016,-1.3284302,0.046325684,-1.46875,-6.453125,-2.453125
1696258045487,0.4794922,-1.2114868,-0.053527832,3.0,-2.53125,-9.71875
1696258045525,0.49609375,-0.9273071,0.18206787,13.484375,-14.125,-10.25
1696258045566,0.30566406,-0.7732544,0.20452881,-16.84375,-11.84375,3.5625
1696258045625,-0.16992188,-1.1524048,0.06072998,7.03125,0.84375,13.4375
1696258045644,-0.011474609,-1.0132446,0.08856201,3.078125,5.03125,-4.359375
1696258045709,0.15673828,-0.65045166,0.23968506,6.09375,7.90625,-18.765625
1696258045725,0.017822266,-0.4673462,0.22088623,6.546875,0.375,-9.3125
1696258045764,-0.11279297,-0.45587158,0.13323975,10.125,7.0,1.0625
1696258045827,-0.08862305,-0.65289307,0.12640381,15.234375,14.1875,7.25
1696258045850,-0.047607422,-0.83062744,0.31488037,0.375,7.265625,7.625
1696258045886,-0.09814453,-0.9458618,0.37957764,-5.484375,-0.34375,1.921875
1696258045926,-9.765625E-4,-1.0420532,0.27996826,-6.75,0.0625,-4.34375
1696258045966,-0.16772461,-1.1570435,0.2904663,4.796875,11.625,-4.015625
1696258046006,-0.2175293,-1.1675415,0.54852295,-6.546875,26.8125,-11.609375
1696258046045,-0.25610352,-1.5862427,0.024108887,-27.453125,7.640625,-4.578125
1696258046085,0.93530273,-1.9846802,0.044128418,-17.9375,28.046875,11.21875
1696258046126,0.2434082,-0.98443604,0.07611084,-2.28125,13.734375,-13.921875
1696258046165,-0.14746094,-1.2036743,-0.11236572,-3.875,-31.921875,-8.046875
1696258046206,-0.080566406,-0.9573364,0.14154053,1.375,9.359375,-4.515625
1696258046246,0.076660156,-0.81256104,-0.009094238,16.171875,-1.921875,2.1875
1696258046306,0.28710938,-0.690979,0.050720215,10.890625,-0.09375,0.171875
1696258046325,0.033691406,-0.56085205,0.09954834,-1.921875,-20.453125,5.765625
1696258046366,-0.16772461,-0.6069946,-0.045715332,3.234375,-37.828125,14.3125
1696258046406,-0.24560547,-0.7896118,0.05706787,5.21875,-4.84375,9.0625
1696258046446,-0.20336914,-0.8838501,0.11590576,6.40625,9.265625,0.109375
1696258046485,-0.0048828125,-0.91485596,0.2531128,7.59375,-2.28125,2.0625
1696258046526,0.057617188,-0.99786377,0.34100342,3.40625,-20.90625,5.328125
1696258046566,-0.016601562,-1.2791138,0.23626709,-3.234375,-23.796875,17.9375
1696258046606,-0.119384766,-1.3433228,0.31585693,-3.921875,-30.359375,15.40625
1696258046666,-0.36938477,-1.8120728,0.008239746,-19.265625,-37.5625,11.0625
1696258046675,0.3330078,-1.1751099,-0.14556885,6.34375,-9.328125,-10.625
1696258046706,0.77783203,-0.85723877,0.2267456,15.34375,-1.5,-15.421875
1696258046786,0.18334961,-0.99591064,0.024108887,3.21875,-6.921875,-5.03125
1696258046800,-0.13891602,-1.2012329,0.09564209,-3.515625,5.9375,17.109375
1696258046826,0.09423828,-0.97491455,0.105407715,0.953125,12.890625,-2.546875
1696258046866,0.28759766,-0.57769775,0.19720459,8.203125,-0.828125,-16.1875
1696258046907,0.032714844,-0.41461182,0.19012451,4.515625,-5.46875,0.40625
1696258046947,-0.1586914,-0.43804932,0.097351074,2.140625,-15.5625,9.703125
1696258046987,-0.17797852,-0.7029419,0.109802246,9.0625,0.484375,11.265625
1696258047025,0.0126953125,-0.99835205,0.27435303,3.5,18.625,11.859375
1696258047067,0.021484375,-1.2153931,0.3053589,10.609375,-2.515625,-0.71875
1696258047105,0.030273438,-1.3272095,0.20013428,4.609375,-0.109375,-5.265625
1696258047147,-0.18481445,-1.2468872,0.25115967,-3.328125,14.703125,-7.578125
1696258047185,0.028564453,-1.6936646,-0.08380127,4.5625,15.421875,13.625
1696258047225,0.58081055,-1.4448853,0.13616943,-3.9375,34.953125,-1.578125
1696258047265,0.26416016,-0.8809204,-0.1038208,-20.328125,-6.5625,-22.203125
1696258047306,0.06347656,-0.7871704,-0.25811768,-9.671875,-22.484375,4.171875
1696258047346,-0.09863281,-0.99224854,-0.15753174,9.453125,-2.78125,12.453125
1696258047385,0.14575195,-1.0298462,0.14471436,12.921875,14.15625,-1.59375
1696258047425,0.14648438,-0.86187744,0.10345459,2.203125,-10.3125,-16.03125
1696258047466,0.02758789,-0.52667236,-0.0178833,3.578125,-21.65625,-6.875
1696258047505,-0.1015625,-0.35113525,-0.010559082,-2.328125,-16.078125,5.28125
1696258047547,-0.20507812,-0.5498657,0.10003662,-1.953125,-2.390625,11.0
1696258047610,-0.1977539,-0.9390259,0.03338623,0.609375,-2.953125,8.625
1696258047627,0.032714844,-1.1216431,0.12322998,1.875,0.9375,3.09375
1696258047666,0.046875,-1.3272095,0.22991943,10.953125,1.4375,1.234375
1696258047706,-0.14404297,-1.4058228,0.17669678,-11.0625,-8.9375,9.640625
1696258047745,-0.21289062,-1.5874634,0.082214355,-20.296875,-13.484375,9.125
1696258047787,0.0034179688,-1.286438,-0.003479004,-6.265625,-8.453125,1.8125
1696258047826,0.55444336,-1.0706177,-0.094055176,0.203125,-10.296875,-16.171875
1696258047865,0.5551758,-0.77471924,0.16986084,7.484375,-2.578125,-13.421875
1696258047906,0.1706543,-0.77911377,0.044128418,-9.234375,-20.453125,5.71875
1696258047945,-0.015136719,-1.0752563,0.0119018555,-3.5625,-1.5,13.265625
1696258047964,0.079833984,-0.909729,0.08392334,5.296875,8.265625,-5.421875
1696258048005,0.21533203,-0.5979614,0.2074585,2.109375,-5.53125,-13.84375
1696258048046,0.06958008,-0.46270752,0.20184326,-0.09375,-17.890625,0.859375
1696258048085,-0.044189453,-0.56036377,0.19378662,-3.46875,-22.796875,9.921875
1696258048126,-0.111328125,-0.80841064,0.19622803,4.734375,-5.640625,13.859375
1696258048165,-0.1003418,-1.1021118,0.18548584,6.25,-2.625,4.328125
1696258048205,-0.10546875,-0.9871216,0.260437,14.515625,4.171875,-6.328125
1696258048245,-0.044433594,-1.2056274,0.18475342,17.625,18.328125,-2.859375
1696258048286,-0.19165039,-1.4663696,0.22723389,5.34375,25.0625,-10.34375
1696258048326,0.21533203,-1.7976685,-0.043029785,-15.4375,17.1875,2.40625
1696258048369,0.4453125,-1.3218384,-0.042053223,-19.09375,27.1875,-13.5625
1696258048407,0.42944336,-0.87750244,-0.22393799,-13.75,-12.65625,-14.28125
1696258048445,0.013671875,-0.8184204,-0.11553955,-7.78125,-15.484375,7.015625
1696258048486,-0.2512207,-1.0181274,0.007019043,6.78125,11.4375,6.484375
1696258048525,0.010498047,-0.8513794,0.13201904,12.4375,15.1875,-3.625
1696258048566,0.15234375,-0.6856079,0.112976074,-1.453125,-0.828125,-11.65625
1696258048605,0.056152344,-0.5549927,-0.04107666,-4.453125,-11.65625,-4.046875
1696258048646,-0.05078125,-0.48321533,-0.06060791,-19.515625,-3.40625,9.84375
1696258048684,-0.12207031,-0.61846924,0.15447998,-16.3125,5.09375,15.203125
1696258048724,-0.13232422,-0.81207275,0.17425537,6.296875,-3.96875,8.65625
1696258048764,-0.24536133,-1.2166138,0.18841553,17.890625,0.21875,9.234375
1696258048804,0.016601562,-1.3416138,0.3024292,-5.71875,-0.46875,14.609375
1696258048846,0.014160156,-1.3887329,0.34417725,2.640625,-18.3125,12.328125
1696258048886,-0.22192383,-1.6633911,0.06781006,3.390625,-25.921875,13.8125
1696258048926,0.30493164,-1.4473267,-0.13970947,1.515625,-5.46875,2.671875
1696258048966,0.6479492,-1.0269165,0.124938965,23.5,-4.3125,-16.9375
1696258049006,0.5073242,-0.72540283,0.05218506,-6.34375,-18.109375,-10.59375
1696258049044,-0.028808594,-0.92022705,0.02923584,-5.953125,0.640625,6.6875
1696258049085,-0.041992188,-0.9636841,0.026062012,-1.171875,4.59375,10.328125
1696258049124,0.18945312,-0.6658325,0.11419678,3.890625,6.796875,-15.140625
1696258049164,0.18603516,-0.5093384,0.1876831,-0.3125,-6.671875,-11.734375
1696258049207,0.017822266,-0.46588135,0.19476318,-2.578125,-10.375,-0.09375
1696258049243,-0.12597656,-0.64190674,0.17913818,2.890625,-7.078125,7.90625
1696258049283,-0.100097656,-0.9570923,0.07342529,6.484375,3.578125,7.09375
1696258049305,0.0078125,-1.1035767,0.25823975,1.96875,11.859375,2.125
1696258049363,-0.052978516,-1.2637329,0.16766357,10.609375,7.296875,2.09375
1696258049383,-0.016601562,-1.250061,0.36810303,-2.3125,10.953125,-4.4375
1696258049423,-0.38842773,-1.4849243,0.20794678,6.484375,29.671875,-8.65625
1696258049463,0.38061523,-1.5505981,-0.12017822,2.578125,32.828125,-9.5
1696258049503,0.5048828,-1.0894165,-0.17193604,-10.65625,22.4375,-11.0
1696258049544,0.52246094,-0.8508911,-0.14019775,-11.265625,-3.546875,-2.0
1696258049583,-0.14282227,-0.8526001,-0.1741333,-6.34375,-29.859375,3.84375
1696258049624,-0.2956543,-0.9492798,0.028259277,0.125,9.828125,4.46875
1696258049664,0.07470703,-0.81988525,0.030944824,7.703125,20.796875,-6.0
1696258049706,0.22338867,-0.6096802,0.042175293,-1.03125,10.21875,-13.765625
1696258049744,0.05078125,-0.5244751,0.043151855,-0.546875,-12.28125,-4.3125
1696258049805,-0.14331055,-0.6018677,0.04119873,-8.234375,-4.53125,11.34375
1696258049825,-0.20019531,-0.7510376,0.14715576,-2.71875,11.453125,14.484375
1696258049864,-0.114990234,-0.9783325,0.14788818,10.609375,9.78125,5.03125
1696258049906,0.083496094,-1.2791138,0.21185303,16.03125,0.40625,10.9375
1696258049945,0.021728516,-1.5335083,0.28753662,-15.46875,-13.8125,9.75
1696258049988,-0.16918945,-1.3967896,0.24334717,-24.125,-27.453125,1.671875
1696258050026,-0.053710938,-1.3840942,-0.11773682,-12.03125,-35.515625,0.140625
1696258050065,0.59521484,-1.1453247,-0.06817627,7.640625,-12.578125,1.125
1696258050107,0.89282227,-0.87384033,0.20135498,12.21875,-15.828125,-8.0
1696258050144,0.030517578,-1.0093384,0.089538574,-12.59375,-14.640625,-1.625
1696258050187,-0.29516602,-1.1863403,0.05609131,-10.171875,20.0625,3.34375
1696258050225,0.08911133,-0.78009033,0.066101074,11.28125,23.421875,-15.046875
1696258050264,0.33642578,-0.4319458,0.25701904,9.796875,-4.8125,-13.921875
1696258050305,0.16796875,-0.39483643,0.2243042,-0.078125,-16.65625,2.265625
1696258050346,-0.080566406,-0.5039673,0.17279053,-1.84375,-21.796875,10.609375
1696258050387,-0.2055664,-0.85772705,0.113464355,3.625,-6.1875,13.1875
1696258050425,-0.100097656,-1.079895,0.3007202,-2.53125,8.171875,5.46875
1696258050464,0.03173828,-1.0859985,0.28045654,17.453125,-2.796875,-3.53125
1696258050505,0.03466797,-1.2459106,0.35784912,5.5,3.796875,-6.640625
1696258050544,-0.30395508,-1.3667603,0.09466553,11.53125,18.46875,-9.625
1696258050604,0.32104492,-1.8867798,-0.16900635,2.0625,30.78125,7.1875
1696258050607,0.5251465,-1.298645,0.018493652,-21.40625,22.546875,-16.5
1696258050644,0.31835938,-0.79571533,-0.14361572,-21.328125,-14.421875,-14.859375
1696258050685,0.0043945312,-0.8640747,-0.18341064,-3.3125,-17.5,4.515625
1696258050725,-0.09008789,-0.95758057,0.028747559,13.3125,9.3125,6.984375
1696258050765,0.055908203,-0.8303833,0.14422607,11.0,13.875,-2.46875
1696258050806,0.068847656,-0.67193604,0.08441162,-5.875,-4.703125,-12.09375
1696258050844,-0.052001953,-0.536438,-0.042785645,-4.640625,-13.234375,-5.078125
1696258050886,-0.1328125,-0.56427,0.0016479492,-10.578125,-3.921875,7.015625
1696258050925,-0.12768555,-0.72052,0.13763428,-5.546875,7.6875,8.96875
1696258050966,-0.1315918,-0.9168091,0.1642456,-5.15625,7.078125,5.703125
1696258051005,-0.03100586,-1.081604,0.27044678,2.78125,-2.078125,8.40625
1696258051046,0.05102539,-1.2280884,0.3295288,0.140625,0.15625,10.71875
1696258051087,-0.0793457,-1.250061,0.276062,0.09375,-15.796875,15.34375
1696258051124,-0.38012695,-1.6953735,0.054382324,-3.296875,-36.09375,11.296875
1696258051165,0.45141602,-1.3804321,9.1552734E-4,-0.953125,-2.140625,-13.15625
1696258051205,0.7126465,-0.9133911,0.24383545,20.078125,-4.171875,-22.703125
1696258051246,0.32910156,-0.800354,0.11126709,-10.953125,-18.875,-7.25
1696258051285,-0.055419922,-1.1516724,0.070007324,-5.421875,-5.703125,15.828125
1696258051326,0.07348633,-1.0847778,0.12957764,-2.875,9.171875,2.1875
1696258051367,0.16113281,-0.7324829,0.19256592,4.34375,-4.609375,-18.3125
1696258051405,0.03881836,-0.5064087,0.1749878,1.921875,-1.6875,-9.609375
1696258051445,-0.08886719,-0.44537354,0.16668701,1.609375,0.03125,2.578125
1696258051485,-0.16503906,-0.5564575,0.16278076,9.875,8.34375,7.890625
1696258051525,0.00390625,-0.815979,0.19598389,8.71875,10.140625,8.5
1696258051567,0.01977539,-1.0657349,0.3583374,9.53125,-5.953125,-0.1875
1696258051607,-0.092041016,-1.2498169,0.16741943,10.859375,-6.234375,-2.453125
1696258051645,-0.17871094,-1.2415161,0.34368896,6.484375,13.5625,-6.921875
1696258051686,-0.43481445,-1.4780884,0.09100342,2.875,33.359375,-6.515625
1696258051726,0.52563477,-1.6990356,-0.26519775,8.765625,28.21875,3.84375
1696258051767,0.5517578,-1.0869751,-0.008361816,-20.328125,36.84375,-12.34375
1696258051805,0.43969727,-0.74176025,-0.10626221,-11.96875,-34.375,-6.921875
1696258051845,-0.14038086,-1.0044556,-0.11651611,2.375,-29.0,5.03125
1696258051906,-0.1875,-1.0552368,0.18255615,4.984375,15.875,1.859375
1696258051925,0.049804688,-0.78204346,0.03338623,3.421875,4.046875,-13.40625
1696258051946,0.083496094,-0.50250244,-0.034973145,-1.671875,-4.828125,-13.78125
1696258051986,-0.0068359375,-0.49005127,0.028259277,-1.328125,-13.5625,5.390625
1696258052026,-0.12231445,-0.677063,0.10858154,-9.859375,-11.3125,14.984375
1696258052069,-0.17260742,-0.9631958,0.121276855,7.25,1.390625,9.984375
1696258052105,-0.009033203,-1.0276489,0.19769287,-2.921875,-8.234375,4.75
1696258052187,-0.009277344,-0.9602661,0.25238037,10.046875,-17.5,6.484375
1696258052199,-0.1340332,-1.229065,0.2616577,0.21875,-4.6875,14.140625
1696258052226,-0.28588867,-1.3242798,0.24725342,-2.140625,-20.234375,12.625
1696258052265,-0.20581055,-1.6050415,0.09564209,-3.8125,-9.265625,5.203125
1696258052306,0.47680664,-1.2434692,-0.23736572,-1.34375,-12.65625,-2.703125
1696258052347,0.8898926,-1.083313,0.31097412,11.0625,-7.046875,-16.96875
1696258052384,0.23364258,-0.76568604,0.005065918,-5.265625,-35.203125,-5.421875
1696258052425,-0.27026367,-1.1607056,-0.05279541,-3.390625,-11.375,13.640625
1696258052464,-0.09765625,-1.0591431,0.04144287,2.0625,18.5625,-1.734375
1696258052508,0.31469727,-0.6616821,0.1762085,5.25,13.8125,-17.921875
1696258052545,0.25390625,-0.52593994,0.20306396,-2.4375,-6.6875,-2.609375
1696258052585,-0.02319336,-0.4710083,0.16326904,-3.890625,-15.203125,8.734375
1696258052625,-0.18896484,-0.6633911,0.15570068,6.234375,-10.0,10.34375
1696258052665,-0.14892578,-0.9192505,0.1671753,3.96875,7.5625,4.4375
1696258052709,-0.030273438,-0.95196533,0.37591553,1.25,4.703125,-2.609375
1696258052744,-0.048095703,-1.1511841,0.1449585,8.84375,-6.46875,-2.421875
1696258052785,0.07495117,-1.2163696,0.32684326,0.65625,3.703125,0.34375
1696258052826,-0.38330078,-1.4382935,0.2086792,-0.75,24.25,0.03125
1696258052866,0.022460938,-1.6074829,0.016540527,-5.15625,35.671875,-8.640625
1696258052905,0.29101562,-1.2334595,-0.11529541,-29.390625,44.6875,-12.125
1696258052946,0.40893555,-0.7564087,-0.1116333,-12.765625,9.390625,-9.796875
1696258052987,0.13500977,-0.85235596,-0.07574463,-7.53125,-14.265625,8.5
1696258053025,-0.22045898,-1.15094,0.020446777,0.375,8.828125,8.21875
1696258053066,-0.0014648438,-1.0147095,0.2062378,14.09375,7.515625,-2.25
1696258053105,0.16918945,-0.7280884,0.13909912,-4.328125,-1.421875,-14.59375
1696258053147,0.08935547,-0.48809814,-0.011291504,-4.796875,-2.375,-4.890625
1696258053185,-0.055419922,-0.519104,0.0072631836,-1.703125,-5.25,13.109375
1696258053226,-0.111572266,-0.6873169,0.17523193,3.171875,-1.484375,15.25
1696258053244,-0.09472656,-0.91851807,0.16400146,16.6875,-0.21875,2.796875
1696258053285,-0.07104492,-1.0596313,0.23236084,19.640625,-0.46875,2.078125
1696258053325,-0.096191406,-1.281311,0.30218506,-0.265625,-10.953125,10.671875
1696258053367,-0.02709961,-1.361145,0.3781128,-14.375,-12.078125,12.734375
1696258053405,-0.09423828,-1.5515747,0.09246826,-11.75,-36.390625,8.890625
1696258053444,0.23535156,-1.3735962,-0.270813,0.125,-34.015625,-3.171875
1696258053485,0.75,-0.96539307,0.20159912,16.515625,-3.40625,-16.3125
1696258053527,0.37939453,-0.80792236,0.09222412,-6.5,-26.0,-7.3125
1696258053566,-0.21313477,-1.1399536,0.08148193,-13.0625,-0.890625,3.921875
1696258053606,-0.10253906,-1.0401001,-0.024719238,4.03125,11.265625,3.125
1696258053645,0.24414062,-0.6296997,0.1762085,0.5625,14.921875,-15.453125
1696258053686,0.21972656,-0.45587158,0.23822021,0.203125,-6.421875,-7.203125
1696258053724,-0.03491211,-0.46148682,0.18060303,-1.59375,-14.3125,5.015625
1696258053768,-0.1887207,-0.6548462,0.16107178,5.421875,-9.078125,10.703125
1696258053806,-0.107666016,-0.96710205,0.20916748,2.75,3.328125,8.5
1696258053845,-0.013183594,-1.0144653,0.37493896,9.546875,-5.046875,-4.46875
1696258053886,-0.076416016,-1.1555786,0.1281128,15.890625,-6.1875,1.0
1696258053925,9.765625E-4,-1.15094,0.32684326,3.203125,8.890625,1.671875
1696258053967,-0.3046875,-1.5437622,0.22943115,-0.78125,21.4375,-0.34375
1696258054006,0.30639648,-1.6785278,0.06341553,-6.828125,24.046875,-2.21875
1696258054047,0.32543945,-1.1438599,-0.15142822,-18.265625,21.9375,-12.359375
1696258054085,0.2758789,-0.70758057,-0.14117432,-13.484375,-3.578125,-4.953125
1696258054125,-0.0703125,-0.8735962,-0.07720947,-8.03125,-18.34375,8.75
1696258054169,-0.18457031,-1.1294556,0.06585693,7.328125,16.078125,2.03125
1696258054227,0.1003418,-0.93634033,0.12738037,11.28125,14.78125,-3.890625
1696258054245,0.1796875,-0.66900635,0.10003662,2.734375,-2.796875,-15.421875
1696258054285,0.011962891,-0.5339966,-7.9345703E-4,5.390625,-13.046875,-1.90625
1696258054324,-0.16845703,-0.5654907,0.03656006,-2.84375,-8.421875,15.0625
1696258054364,-0.23461914,-0.77789307,0.09857178,4.15625,4.015625,11.109375
1696258054404,-0.18554688,-0.9661255,0.14813232,8.265625,18.40625,2.359375
1696258054446,-0.013427734,-1.0308228,0.23699951,12.234375,3.46875,4.4375
1696258054506,-0.006591797,-1.2590942,0.2423706,-6.75,-1.6875,8.515625
1696258054524,-0.05908203,-1.3379517,0.17816162,-4.671875,-12.453125,13.796875
1696258054546,-0.17333984,-1.5803833,0.13446045,-16.15625,-31.671875,11.359375
1696258054584,0.1796875,-1.3130493,-0.19952393,-0.53125,-8.265625,-5.640625
1696258054625,0.62646484,-1.0422974,0.0033569336,4.3125,-4.84375,-15.859375
1696258054667,0.54956055,-0.75787354,0.184021,2.203125,-12.6875,-9.53125
1696258054704,-0.053466797,-0.9614868,-0.024963379,-3.796875,-12.78125,5.90625
1696258054745,-0.08691406,-1.1912231,0.0033569336,0.546875,10.359375,10.890625
1696258054790,0.16113281,-0.7998657,0.1329956,0.609375,8.921875,-13.890625
1696258054826,0.2355957,-0.5237427,0.23382568,0.390625,-6.40625,-11.71875
1696258054868,0.011474609,-0.46881104,0.2111206,-3.03125,-9.71875,3.3125
1696258054906,-0.15942383,-0.6157837,0.20379639,0.78125,-10.421875,8.859375
1696258054947,-0.18359375,-0.8320923,0.15057373,10.1875,1.5625,6.59375
1696258054986,-0.04321289,-0.97320557,0.27557373,-3.234375,4.640625,2.21875
1696258055026,0.037109375,-1.053772,0.32122803,8.78125,-0.78125,-1.078125
1696258055065,0.038085938,-1.2622681,0.26312256,2.21875,-2.75,1.421875
1696258055105,-0.22949219,-1.5046997,0.1449585,-2.40625,13.796875,3.140625
1696258055145,0.09838867,-1.7207642,0.08099365,-12.984375,30.1875,2.875
1696258055185,0.2902832,-1.2842407,0.059509277,-23.328125,33.15625,-13.3125
1696258055225,0.22143555,-0.819397,-0.054260254,-3.90625,-1.734375,-17.390625
1696258055264,0.09033203,-0.7671509,-0.0713501,-6.9375,-0.75,2.328125
1696258055305,-0.13305664,-0.9829712,-3.0517578E-4,11.5,12.25,5.21875
1696258055345,0.0056152344,-0.9673462,0.14813232,13.140625,16.25,-0.6875
1696258055385,0.084472656,-0.75982666,0.14691162,-3.59375,1.484375,-8.921875
1696258055425,0.011474609,-0.5779419,-0.0029907227,0.265625,-2.265625,-6.53125
1696258055466,-0.09277344,-0.5479126,0.01361084,-4.96875,2.0625,4.359375
1696258055504,-0.15576172,-0.6878052,0.12908936,-4.453125,2.46875,10.40625
1696258055545,-0.13891602,-0.91192627,0.22503662,1.375,8.703125,7.078125
1696258055584,-0.010009766,-1.0755005,0.24749756,8.359375,7.859375,6.875
1696258055626,0.013671875,-1.2185669,0.3102417,-2.0625,-7.984375,4.734375
1696258055664,-0.026855469,-1.2974243,0.27923584,-12.90625,-17.21875,14.03125
1696258055707,-0.1315918,-1.6206665,0.15789795,-3.140625,-23.75,9.90625
1696258055745,0.23925781,-1.5149536,-0.0881958,7.984375,-27.40625,-2.953125
1696258055786,0.64038086,-0.93634033,0.16204834,22.265625,-11.671875,-18.953125
1696258055845,0.4387207,-0.7329712,0.13763428,0.265625,-11.34375,-11.203125
1696258055865,-0.095947266,-1.0518188,0.03363037,-3.328125,2.40625,5.828125
1696258055887,-0.038085938,-1.0300903,0.02947998,-1.671875,10.28125,6.546875
1696258055925,0.20678711,-0.6890259,0.14227295,-2.4375,7.53125,-12.640625
1696258055965,0.17260742,-0.50323486,0.22454834,-1.234375,-8.9375,-9.609375
1696258056047,-0.018310547,-0.4883423,0.22161865,-0.78125,-13.5,0.421875
1696258056055,-0.17089844,-0.7073364,0.16864014,2.9375,-8.140625,9.328125
1696258056086,-0.080566406,-0.89312744,0.18865967,2.640625,1.171875,8.46875
1696258056148,0.015625,-0.94732666,0.4081421,3.828125,-5.3125,-0.5
1696258056166,-0.08666992,-1.1069946,0.20550537,10.5,-6.375,-0.625
1696258056207,-0.11010742,-1.222229,0.29510498,0.828125,8.09375,-2.875
1696258056247,-0.45874023,-1.3115845,0.262146,1.046875,32.25,-12.078125
1696258056286,0.14282227,-1.6792603,-0.0076293945,-8.75,37.0,-7.453125
1696258056328,0.6123047,-1.335022,-0.04888916,-14.703125,25.828125,-4.109375
1696258056369,0.39916992,-0.81036377,-0.046447754,-21.921875,-1.78125,-5.640625
1696258056406,-0.005126953,-0.83135986,-0.06304932,-6.984375,-32.765625,3.796875
1696258056445,-0.31445312,-1.0437622,0.097595215,5.484375,4.3125,6.15625
1696258056486,0.041503906,-0.90582275,0.101745605,17.25,7.71875,-2.421875
1696258056531,0.1772461,-0.6333618,0.06829834,3.09375,8.875,-12.890625
1696258056567,0.048095703,-0.5383911,0.03387451,10.890625,-16.78125,-5.375
1696258056605,-0.0949707,-0.61676025,0.10467529,7.90625,-11.0625,10.921875
1696258056644,-0.22363281,-0.835022,0.14813232,2.015625,1.671875,11.3125
1696258056686,-0.22338867,-1.0010376,0.14544678,7.359375,1.78125,2.71875
1696258056728,-0.051513672,-0.92266846,0.19085693,7.0,-5.859375,1.265625
1696258056764,-0.05126953,-1.1170044,0.19696045,-3.140625,-0.015625,4.125
1696258056805,-0.21166992,-1.3787231,0.18621826,-10.15625,-8.234375,9.375
1696258056845,-0.2409668,-1.5813599,0.18231201,-16.96875,-15.84375,1.421875
1696258056885,0.31445312,-1.3325806,-0.24810791,-8.296875,-11.078125,-13.015625
1696258056925,0.78393555,-1.0896606,0.27947998,12.40625,0.34375,-22.359375
1696258056968,0.3388672,-0.850647,0.18060303,-2.09375,-17.203125,-1.703125
1696258057007,-0.14770508,-1.1218872,0.00970459,5.875,-6.546875,14.265625
1696258057047,-0.06567383,-1.1060181,0.08441162,2.375,12.421875,6.609375
1696258057087,0.17749023,-0.690979,0.15472412,9.34375,3.328125,-13.515625
1696258057146,0.15063477,-0.44781494,0.2008667,1.03125,-4.734375,-6.9375
1696258057166,-4.8828125E-4,-0.4619751,0.15594482,3.59375,-9.4375,7.75
1696258057208,-0.07543945,-0.69537354,0.15423584,5.546875,-3.5625,17.4375
1696258057226,-0.0053710938,-0.9883423,0.20648193,0.9375,-3.21875,15.140625
1696258057266,-0.020507812,-1.1126099,0.40667725,-0.546875,-12.8125,-1.765625
1696258057305,-0.15649414,-1.0449829,0.20159912,4.4375,-5.234375,-7.78125
1696258057345,-0.15234375,-1.0774536,0.24505615,-0.359375,15.375,-5.203125
1696258057389,-0.25878906,-1.3704224,0.1798706,-5.390625,31.734375,-1.84375
1696258057427,0.41967773,-1.7954712,-0.008850098,-21.078125,24.9375,7.4375
1696258057465,0.35058594,-1.211731,0.001159668,-21.828125,26.390625,-12.578125
1696258057508,0.20532227,-0.8477173,-0.17340088,-11.8125,-17.75,-5.84375
1696258057547,-0.007080078,-0.92022705,-0.05255127,-7.25,-2.609375,4.875
1696258057587,-0.122802734,-1.098938,0.04534912,20.0625,6.1875,5.65625
1696258057627,0.13208008,-0.9807739,0.20599365,15.953125,4.953125,-4.0
1696258057666,0.13598633,-0.7229614,0.15301514,-2.046875,-12.0,-12.6875
1696258057705,-0.061767578,-0.5105591,-0.026184082,-0.328125,-20.015625,-2.359375
1696258057746,-0.18920898,-0.47149658,0.027526855,-8.90625,-9.90625,10.1875
1696258057785,-0.16625977,-0.6851196,0.11175537,-5.109375,-0.375,12.953125
1696258057827,-0.11401367,-0.88067627,0.12762451,2.15625,2.109375,6.96875
1696258057866,-0.015380859,-1.0720825,0.27557373,-3.5625,-10.09375,5.546875
1696258057931,-0.009033203,-1.2288208,0.3451538,-6.703125,-18.390625,11.625
1696258057946,-0.060302734,-1.2493286,0.32147217,10.40625,-11.03125,15.1875
1696258057987,-0.3708496,-1.5562134,0.24676514,0.140625,-18.75,17.40625
1696258058025,-0.15063477,-1.5022583,-0.2144165,1.953125,-9.03125,1.296875
1696258058065,0.7421875,-1.0767212,0.02557373,10.375,4.359375,-16.328125
1696258058106,0.6352539,-0.8406372,0.24212646,10.671875,0.765625,-16.203125
1696258058145,0.059326172,-0.8977661,0.010681152,-9.359375,-11.0,-2.65625
1696258058185,-0.21313477,-1.1636353,0.03778076,-3.6875,17.03125,13.71875
1696258058225,0.07519531,-0.9053345,0.08074951,-4.5,21.53125,-8.15625
1696258058266,0.2746582,-0.65411377,0.2296753,0.203125,14.03125,-17.6875
1696258058304,0.060058594,-0.5027466,0.24969482,0.9375,0.46875,-3.953125
1696258058347,-0.09472656,-0.5149536,0.24945068,11.96875,-2.171875,4.796875
1696258058386,-0.16772461,-0.76519775,0.07147217,16.125,-4.859375,12.015625
1696258058426,-0.020507812,-1.0332642,0.14471436,5.703125,3.984375,-1.125
1696258058465,0.036865234,-0.93951416,0.2489624,12.015625,1.953125,-10.734375
1696258058485,0.009765625,-1.0855103,0.15765381,7.125,-0.890625,-1.84375
1696258058545,-0.12866211,-1.1956177,0.27703857,12.125,17.609375,3.578125
1696258058565,-0.33032227,-1.5186157,0.07733154,-9.4375,15.859375,5.125
1696258058605,0.30004883,-1.5515747,0.023376465,5.9375,22.671875,-6.109375
1696258058645,0.39672852,-1.265686,-0.34649658,-4.234375,24.453125,-7.796875
1696258058687,0.3762207,-0.8921509,-0.1638794,-7.671875,1.359375,-1.71875
1696258058727,-0.021484375,-0.8098755,-0.08111572,-3.5625,-32.0,8.375
1696258058766,-0.08642578,-0.93170166,-6.1035156E-5,15.84375,1.203125,11.921875
1696258058805,0.118896484,-0.9180298,0.051208496,13.625,4.734375,3.078125
1696258058846,0.075927734,-0.6868286,0.007507324,4.265625,-9.84375,-11.1875
1696258058889,-0.07763672,-0.5249634,-0.013977051,9.34375,-9.9375,-6.71875
1696258058926,-0.24951172,-0.5689087,0.014587402,-3.53125,-1.78125,9.59375
1696258058966,-0.15820312,-0.81134033,0.04437256,1.84375,14.515625,14.578125
1696258059004,0.026367188,-1.0249634,0.020202637,10.765625,12.71875,9.25
1696258059050,0.15576172,-1.222229,0.20111084,16.359375,0.9375,12.296875
1696258059087,0.1015625,-1.4104614,0.042175293,15.28125,-20.796875,20.765625
1696258059126,-0.14355469,-1.3972778,0.07757568,-32.734375,-33.171875,18.703125
1696258059168,-0.47680664,-1.5505981,-0.18658447,5.921875,-5.71875,28.84375
1696258059207,0.9484863,-1.333313,-0.36236572,12.4375,16.9375,5.234375
1696258059247,0.875,-1.0488892,0.33026123,21.5,-16.78125,-28.203125
1696258059287,0.37719727,-0.8296509,-0.074279785,-13.6875,-14.46875,-8.90625
1696258059326,0.048828125,-0.9561157,-0.09893799,-4.703125,2.0,6.28125
1696258059366,0.1977539,-0.7930298,-0.024963379,-3.96875,-13.203125,-0.78125
1696258059406,0.2734375,-0.66119385,0.10272217,-1.671875,-17.828125,-8.328125
1696258059447,0.16088867,-0.62384033,0.09173584,-11.703125,-20.828125,-12.421875
1696258059499,-0.08520508,-0.54644775,9.1552734E-4,-11.5625,0.703125,-11.171875
1696258059524,-0.11987305,-0.52056885,0.09539795,-1.609375,12.484375,-8.921875
1696258059564,0.13378906,-0.68756104,0.21575928,-6.59375,3.8125,1.578125
1696258059604,0.16723633,-1.0061646,0.30169678,4.59375,-11.875,0.0
1696258059645,-0.11816406,-1.1983032,0.22381592,-3.421875,-11.671875,-7.34375
1696258059685,-0.080078125,-1.1426392,0.21356201,1.171875,14.40625,-12.328125
1696258059725,0.017089844,-1.1856079,0.14715576,-1.84375,16.75,-13.140625
1696258059766,0.2854004,-1.6653442,-0.058166504,-7.875,11.328125,3.65625
1696258059785,0.35253906,-1.467102,0.00970459,-20.921875,22.015625,-4.921875
1696258059825,0.3557129,-0.92144775,-0.14263916,-31.109375,-11.09375,-15.453125
1696258059865,0.17041016,-0.85357666,-0.10211182,2.390625,-23.171875,2.375
1696258059906,-0.046875,-1.0054321,-0.028381348,22.640625,-9.546875,6.21875
1696258059947,-0.039794922,-0.9072876,0.18206787,14.578125,2.40625,-4.703125
1696258060009,0.010986328,-0.6292114,0.086120605,-3.328125,-6.921875,-10.453125
1696258060026,-0.006591797,-0.47857666,-0.024475098,-5.671875,-11.265625,-2.625
1696258060067,-0.014892578,-0.56378174,0.0018920898,-6.46875,-12.203125,11.125
1696258060107,-0.08154297,-0.8032837,0.16204834,-6.828125,-6.734375,11.59375
1696258060145,-0.23144531,-1.078186,0.19891357,-5.34375,-6.34375,4.375
1696258060186,-0.018554688,-1.1192017,0.29779053,-3.0625,-15.3125,5.453125
1696258060225,0.06347656,-1.196106,0.24041748,10.875,-5.125,2.484375
1696258060265,-0.07836914,-1.2918091,0.17889404,2.375,-20.90625,17.171875
1696258060312,-0.19189453,-1.675354,0.09832764,-12.609375,-23.796875,21.375
1696258060347,0.40771484,-1.3274536,-0.0413208,1.1875,-16.8125,-11.453125
1696258060387,0.57421875,-0.88531494,0.09173584,16.3125,-3.421875,-24.203125
1696258060424,0.34326172,-0.78375244,0.07757568,-4.375,-10.875,-2.703125
1696258060465,0.048095703,-1.0261841,0.10076904,-8.15625,-14.140625,14.484375
1696258060507,0.024414062,-0.9846802,0.06732178,-1.0625,4.28125,9.28125
1696258060564,0.16113281,-0.6633911,0.14105225,4.421875,0.5,-16.015625
1696258060585,0.09008789,-0.43536377,0.22869873,4.828125,-8.234375,-12.875
1696258060625,-0.020507812,-0.44244385,0.21673584,2.34375,-9.921875,0.453125
1696258060668,-0.11621094,-0.6621704,0.19940186,0.09375,-0.125,12.578125
1696258060707,-0.10522461,-0.9985962,0.3390503,6.984375,10.171875,13.375
1696258060746,-0.30200195,-1.2730103,0.081970215,15.375,3.078125,0.203125
1696258060787,0.1899414,-1.2393188,0.19378662,4.171875,19.046875,-6.765625
1696258060825,-0.087646484,-1.1541138,0.44158936,9.09375,27.890625,-8.640625
1696258060866,-0.0546875,-1.7664185,-0.08746338,-4.375,18.40625,0.65625
1696258060906,0.5019531,-1.3914185,-0.051086426,-5.78125,22.875,-9.90625
1696258060945,0.52856445,-0.92071533,-0.22686768,-20.0,9.015625,-10.875
1696258060986,0.18237305,-0.93170166,-0.19024658,-6.40625,-21.265625,-0.3125
1696258061026,-0.28076172,-1.0630493,-0.007873535,-3.125,-5.921875,5.609375
1696258061067,-0.024658203,-0.9209595,0.08929443,15.40625,7.0,-3.09375
1696258061084,0.16088867,-0.673645,0.050476074,6.734375,-0.875,-14.515625
1696258061125,0.103271484,-0.46099854,0.047058105,-1.296875,-15.9375,-7.25
1696258061164,-0.09838867,-0.44171143,0.049987793,-5.25,-16.859375,10.1875
1696258061205,-0.3737793,-0.6470337,0.10491943,-10.96875,-4.875,19.3125
1696258061245,-0.2927246,-1.0159302,0.14715576,-6.3125,12.953125,11.421875
1696258061286,0.016113281,-1.2068481,0.15423584,12.40625,10.921875,4.3125
1696258061325,0.12451172,-1.460022,0.2658081,-8.03125,-3.546875,0.234375
1696258061365,-0.061279297,-1.2857056,0.27972412,-23.796875,-18.25,12.28125
1696258061403,-0.24975586,-1.6292114,-0.0049438477,-21.703125,-34.84375,11.734375
1696258061445,0.5046387,-1.270813,-0.08135986,9.28125,-11.265625,-11.171875
1696258061486,0.8574219,-0.8982544,0.354187,24.859375,9.265625,-18.890625
1696258061526,0.080566406,-0.97003174,0.010681152,-13.546875,-4.25,-4.1875
1696258061565,-0.21948242,-1.130188,0.07342529,-12.75,10.78125,8.03125
1696258061607,0.040527344,-0.83428955,0.093688965,3.796875,21.703125,-4.28125
1696258061645,0.29736328,-0.47076416,0.16571045,6.4375,5.96875,-11.921875
1696258061684,0.13378906,-0.3953247,0.16644287,0.609375,-7.953125,-5.546875
1696258061746,-0.09643555,-0.44122314,0.21868896,0.3125,-12.578125,5.40625
1696258061766,-0.31884766,-0.75738525,0.22064209,6.03125,1.03125,15.109375
1696258061806,-0.32226562,-1.112854,0.1449585,-1.390625,13.578125,14.234375
1696258061847,0.1459961,-1.2717896,0.2177124,11.953125,17.890625,-9.09375
1696258061887,0.29736328,-1.2527466,0.46746826,9.953125,13.28125,-6.109375
1696258061926,-0.2849121,-1.4067993,0.26507568,-12.0,17.3125,0.40625
1696258061965,-0.05493164,-1.8294067,-0.112854004,-10.25,33.53125,-4.5625
1696258062006,0.41357422,-1.1309204,-0.1272583,-25.4375,36.640625,-13.171875
1696258062048,0.49194336,-0.7202759,-0.1519165,-8.203125,-2.75,-4.421875
1696258062085,-0.09277344,-0.8936157,-0.038635254,6.390625,-21.90625,4.796875
1696258062128,-0.3239746,-1.0740356,0.12445068,0.890625,28.0,5.0
1696258062167,0.046142578,-0.7600708,0.16546631,13.921875,17.0625,-5.828125
1696258062206,0.16577148,-0.5496216,0.0368042,6.546875,1.09375,-14.265625
1696258062246,0.06542969,-0.38897705,-0.020812988,-4.5,-8.765625,-1.484375
1696258062287,-0.07788086,-0.56915283,0.044128418,-11.296875,-5.421875,18.5
1696258062327,-0.13769531,-0.8723755,0.15716553,-3.984375,6.09375,23.078125
1696258062365,-0.08105469,-1.2527466,0.2477417,13.96875,1.078125,4.5
1696258062405,-0.060302734,-1.3486938,0.27264404,12.890625,0.15625,4.03125
1696258062426,-0.039794922,-1.3086548,0.3727417,-10.953125,-11.484375,15.421875
1696258062464,-0.10644531,-1.5896606,0.028747559,-7.171875,-52.453125,16.09375
1696258062507,0.3076172,-1.3015747,-0.36871338,4.546875,-24.859375,0.609375
1696258062545,0.82958984,-0.9365845,0.1906128,13.09375,12.6875,-21.296875
1696258062586,0.27612305,-0.87091064,0.057556152,4.828125,-11.890625,-14.96875
1696258062626,-0.09301758,-1.1941528,0.0038452148,-17.078125,3.96875,3.03125
1696258062665,-0.024658203,-1.0557251,0.066101074,-2.125,22.0625,-1.96875
1696258062706,0.30004883,-0.58258057,0.13885498,5.328125,1.921875,-19.0625
1696258062766,0.14550781,-0.39117432,0.18865967,0.15625,0.125,-8.09375
1696258062785,-0.12475586,-0.39434814,0.18963623,-6.921875,-9.9375,2.03125
1696258062827,-0.27441406,-0.59991455,0.15618896,1.890625,4.609375,2.96875
1696258062886,-0.15112305,-0.89849854,0.18890381,2.5,20.234375,2.90625
1696258062905,0.11376953,-1.0198364,0.35125732,5.4375,14.390625,2.53125
1696258062946,0.18359375,-1.4077759,0.24212646,7.0625,-1.125,0.234375
1696258062984,-0.100097656,-1.3469849,0.42425537,-0.890625,8.640625,-7.328125
1696258063024,-0.4104004,-1.7026978,0.13494873,-0.578125,21.515625,-5.296875
1696258063064,0.41333008,-1.4302368,-0.043762207,5.625,37.640625,-3.359375
1696258063104,0.3388672,-0.9981079,-0.105041504,-33.015625,21.53125,-11.609375
1696258063146,0.3474121,-0.7769165,-0.14434814,-16.171875,-20.84375,3.671875
1696258063185,0.044189453,-0.9241333,-0.046203613,6.84375,-18.765625,14.8125
1696258063226,-0.08251953,-1.1521606,0.25213623,16.375,-0.46875,7.484375
1696258063269,0.033447266,-0.7498169,0.113464355,9.40625,-2.234375,-12.046875
1696258063328,-0.032958984,-0.47125244,-0.005432129,5.203125,-13.625,-9.640625
1696258063346,-0.061767578,-0.44244385,0.045837402,4.859375,-9.296875,5.578125
1696258063385,-0.099609375,-0.62091064,0.113464355,-5.28125,-2.6875,18.03125
1696258063425,-0.16992188,-0.87506104,0.15130615,7.796875,-3.984375,12.046875
1696258063467,-0.12915039,-1.0606079,0.199646,4.671875,-2.546875,2.4375
1696258063505,-0.05053711,-1.3340454,0.25506592,13.0,0.875,5.625
1696258063544,0.010253906,-1.3279419,0.2741089,-14.359375,-5.984375,11.234375
1696258063590,-0.24047852,-1.593811,0.11444092,-12.796875,-34.59375,14.796875
1696258063624,0.15161133,-1.2896118,-0.30426025,-0.828125,-16.328125,-2.75
1696258063685,0.8234863,-0.9932251,0.18988037,17.875,13.984375,-22.90625
1696258063704,0.36401367,-0.8237915,0.13275146,6.375,-10.6875,-14.6875
1696258063724,-0.15039062,-1.1455688,-0.045715332,-11.609375,-3.34375,6.4375
1696258063766,-0.055419922,-1.1326294,0.08074951,-4.703125,19.421875,4.6875
1696258063806,0.33447266,-0.6902466,0.15179443,5.484375,10.6875,-18.4375
1696258063845,0.23046875,-0.4697876,0.22991943,-1.421875,-5.609375,-9.21875
1696258063885,-0.060546875,-0.41363525,0.19403076,-4.765625,-12.203125,4.234375
1696258063925,-0.23852539,-0.6033325,0.10809326,1.875,-8.265625,8.46875
1696258063966,-0.22436523,-0.89019775,0.18182373,1.578125,21.828125,8.0
1696258064005,-0.018310547,-0.9627075,0.34368896,5.1875,20.5,1.28125
1696258064046,0.032470703,-1.3452759,0.1696167,3.421875,2.34375,-4.9375
1696258064086,0.060058594,-1.2276001,0.43841553,1.859375,14.375,-9.984375
1696258064127,-0.45410156,-1.6524048,0.077819824,-14.828125,18.25,-0.28125
1696258064167,0.3618164,-1.6809692,-0.09161377,-18.484375,46.734375,0.09375
1696258064204,0.49536133,-0.9385376,-0.07110596,-38.265625,28.796875,-19.453125
1696258064244,0.25439453,-0.87628174,-0.12042236,3.609375,-29.765625,-5.546875
1696258064286,-0.22851562,-1.0403442,0.034606934,4.34375,1.71875,11.65625
1696258064325,-0.07348633,-1.0896606,0.22698975,8.75,10.703125,1.109375
1696258064364,0.09008789,-0.73394775,0.12054443,5.640625,6.8125,-18.0
1696258064404,0.060302734,-0.4541626,-0.02178955,5.484375,-3.109375,-8.65625
1696258064445,-0.025390625,-0.43023682,0.0119018555,-3.65625,-6.515625,9.484375
1696258064484,-0.1706543,-0.6826782,0.13909912,-5.171875,-4.09375,18.3125
1696258064524,-0.1965332,-0.91973877,0.16986084,3.484375,3.796875,8.078125
1696258064564,-0.099609375,-1.0613403,0.22210693,-1.046875,0.140625,1.03125
1696258064604,0.0769043,-1.0737915,0.33099365,-7.4375,-3.15625,5.421875
1696258064644,-0.02758789,-1.2600708,0.44085693,-0.875,-13.03125,17.796875
1696258064685,-0.23095703,-1.4077759,0.3131714,-6.46875,-25.9375,15.734375
1696258064723,-0.26464844,-1.467102,0.001159668,24.46875,-9.609375,-3.03125
1696258064766,0.35424805,-1.0852661,-0.062072754,15.546875,-23.734375,-22.1875
1696258064805,0.8078613,-0.9871216,0.25628662,9.515625,1.25,-8.4375
1696258064844,0.1706543,-1.0928345,0.019714355,-10.265625,8.34375,6.1875
1696258064905,-0.13623047,-1.2752075,0.1083374,-5.34375,0.109375,12.328125
1696258064925,0.033935547,-0.95025635,0.08538818,2.796875,9.046875,-14.6875
1696258064964,0.18676758,-0.5574341,0.21331787,6.546875,10.75,-17.46875
1696258065004,0.029052734,-0.38482666,0.19036865,1.25,0.453125,-1.5
1696258065025,-0.12451172,-0.45025635,0.18206787,0.984375,-11.625,7.5625
1696258065065,-0.20336914,-0.6682739,0.13275146,7.609375,4.015625,13.265625
1696258065107,-0.061279297,-0.9517212,0.3012085,-1.09375,5.203125,5.34375
1696258065145,-0.059326172,-1.1231079,0.30828857,10.40625,-5.5,-10.375
1696258065186,0.03930664,-1.2495728,0.20379639,7.046875,6.375,-2.453125
1696258065226,-0.24951172,-1.2241821,0.3883667,4.625,23.78125,-2.734375
1696258065266,-0.29541016,-1.7156372,0.121520996,-6.3125,22.265625,-1.71875
1696258065307,0.4892578,-1.602356,0.024841309,-4.765625,28.203125,-3.703125
1696258065346,0.35009766,-0.989563,-0.22784424,-23.234375,15.546875,-14.9375
1696258065387,0.24023438,-0.7034302,-0.14190674,-8.859375,-15.046875,-1.390625
1696258065426,-0.18188477,-0.9326782,0.022399902,-3.0,-7.6875,8.234375
1696258065464,-0.045654297,-1.0488892,0.1383667,9.8125,5.484375,9.65625
1696258065507,0.20288086,-0.8933716,0.13104248,-0.34375,-2.484375,-9.515625
1696258065545,0.1003418,-0.63360596,0.10101318,-0.28125,-18.734375,-12.75
1696258065586,-0.11669922,-0.4524536,0.024841309,-0.203125,-21.96875,5.640625
1696258065646,-0.25976562,-0.5413208,0.12762451,-9.4375,-12.75,17.625
1696258065665,-0.23242188,-0.75079346,0.06341553,9.171875,1.015625,13.640625
1696258065707,-0.03125,-0.9480591,0.1720581,10.546875,8.15625,9.546875
1696258065745,0.041992188,-1.3582153,0.34173584,16.640625,-2.71875,5.8125
1696258065787,-0.0949707,-1.4622192,0.28826904,-12.40625,-14.5,10.625
1696258065825,-0.23852539,-1.4424438,0.18450928,-9.484375,-25.75,12.640625
1696258065865,0.016845703,-1.3462524,-0.10772705,-1.71875,-21.359375,4.28125
1696258065906,0.6520996,-1.2080688,-0.117248535,10.515625,-7.96875,-18.234375
1696258065966,0.51342773,-0.850647,0.25579834,10.28125,-2.4375,-15.609375
1696258065986,0.056396484,-0.8796997,-0.012268066,-6.640625,-11.125,3.390625
1696258066028,-0.05078125,-1.1321411,-0.0012817383,-2.546875,9.953125,16.421875
1696258066064,0.13183594,-0.8399048,0.08782959,4.28125,10.265625,-7.359375
1696258066106,0.23168945,-0.52911377,0.21722412,2.890625,-1.625,-13.78125
1696258066146,0.019042969,-0.4265747,0.16375732,-0.015625,-11.515625,-1.0
1696258066186,-0.09863281,-0.55255127,0.21038818,-1.1875,-9.828125,8.59375
1696258066225,-0.12866211,-0.81988525,0.17059326,4.734375,4.890625,9.234375
1696258066267,-0.08227539,-1.020813,0.30340576,-3.84375,3.03125,1.59375
1696258066326,-0.07910156,-1.0264282,0.25531006,3.3125,-2.4375,-4.4375
1696258066345,-0.053955078,-1.2466431,0.24310303,7.46875,7.609375,0.578125
1696258066367,-0.19262695,-1.27594,0.37664795,4.125,29.53125,-6.375
1696258066407,-0.011962891,-1.7310181,0.01751709,2.578125,18.21875,0.109375
1696258066446,0.45947266,-1.4348755,0.036071777,-23.09375,27.6875,0.515625
1696258066485,0.2890625,-0.8921509,0.026550293,-20.84375,11.65625,-15.703125
1696258066566,0.07836914,-0.8406372,-0.13189697,-4.15625,-18.53125,-0.359375
1696258066577,-0.23608398,-0.96051025,-0.03741455,2.40625,9.71875,5.125
1696258066607,0.0017089844,-0.91778564,0.17230225,22.359375,17.6875,2.28125
1696258066647,0.21435547,-0.7444458,0.1774292,-2.125,8.390625,-7.921875
1696258066687,0.0859375,-0.5742798,0.031677246,-2.34375,-14.53125,-6.71875
1696258066748,-0.11669922,-0.5401001,-0.05303955,-3.96875,-12.59375,6.59375
1696258066766,-0.2644043,-0.61431885,0.18475342,-6.828125,2.40625,11.859375
1696258066808,-0.20263672,-0.9168091,0.24310303,1.015625,5.75,6.734375
1696258066846,-0.015625,-1.1528931,0.2399292,11.765625,8.515625,3.75
1696258066885,0.03125,-1.30719,0.30194092,-1.765625,-5.296875,3.5
1696258066926,-0.011962891,-1.3101196,0.31707764,-8.359375,-22.171875,10.6875
1696258066965,-0.15063477,-1.635315,-0.023742676,-3.75,-43.890625,5.578125
1696258067006,0.5456543,-1.296936,-0.1260376,14.09375,-12.640625,-10.03125
1696258067047,0.8183594,-0.91241455,0.34417725,18.265625,1.609375,-15.890625
1696258067086,0.010253906,-1.0471802,0.042419434,-14.59375,-13.71875,-0.875
1696258067126,-0.12060547,-1.2346802,0.04876709,-10.65625,10.21875,10.6875
1696258067165,0.17944336,-0.8557739,0.0993042,6.265625,9.484375,-9.21875
1696258067206,0.25585938,-0.48760986,0.16937256,2.71875,-9.71875,-13.96875
1696258067245,0.05908203,-0.37945557,0.18743896,-4.609375,-12.78125,-0.921875
1696258067284,-0.11645508,-0.47418213,0.19671631,0.640625,-14.296875,6.9375
1696258067327,-0.21289062,-0.72003174,0.11175537,6.90625,-0.78125,8.625
1696258067367,-0.060546875,-0.95513916,0.30633545,-0.15625,1.390625,5.59375
1696258067404,-0.044189453,-1.0879517,0.30047607,17.859375,-9.8125,-5.296875
1696258067445,0.0068359375,-1.2949829,0.25701904,3.375,-0.296875,-5.609375
1696258067511,-0.2902832,-1.2905884,0.2616577,-2.734375,21.171875,-5.6875
1696258067526,-0.11279297,-1.7339478,-0.015197754,-13.625,28.015625,0.21875
1696258067585,0.54003906,-1.4778442,0.047546387,-18.453125,34.296875,-3.40625
1696258067645,0.35791016,-0.8550415,-0.09576416,-19.03125,4.484375,-11.140625
1696258067664,0.11767578,-0.81744385,-0.16070557,1.28125,-26.9375,4.625
1696258067670,-0.21435547,-1.0437622,0.018005371,6.96875,6.6875,9.5625
1696258067704,0.005126953,-0.9277954,0.14349365,17.9375,6.40625,2.71875
1696258067744,0.16186523,-0.71832275,0.09222412,2.109375,-4.90625,-11.203125
1696258067784,0.048095703,-0.5664673,0.012390137,3.390625,-12.28125,-5.671875
1696258067824,-0.118652344,-0.5911255,0.04119873,-4.78125,-12.25,11.015625
1696258067865,-0.19018555,-0.6856079,0.152771,-8.21875,-2.5,12.171875
1696258067904,-0.23120117,-0.8748169,0.15496826,7.25,3.875,2.96875
1696258067944,-0.107910156,-0.98223877,0.18353271,5.90625,-0.046875,4.34375
1696258067984,-0.0056152344,-1.2937622,0.28851318,4.046875,0.921875,5.265625
1696258068024,0.00390625,-1.3164673,0.33880615,-12.859375,-15.4375,7.796875
1696258068065,-0.25634766,-1.3901978,0.17254639,-12.65625,-41.453125,2.796875
1696258068104,-0.09716797,-1.3067017,-0.28326416,-3.796875,-22.15625,0.328125
1696258068146,0.76220703,-1.1101685,0.035827637,14.296875,13.328125,-13.859375
1696258068187,0.54589844,-0.84576416,0.34197998,6.421875,-2.21875,-6.828125
1696258068226,-0.14672852,-1.1797485,-0.066223145,-7.390625,-9.875,4.75
1696258068266,-0.14208984,-1.2007446,0.06072998,-8.671875,21.265625,-0.296875
1696258068306,0.22167969,-0.72198486,0.1630249,7.65625,11.5,-17.0625
1696258068345,0.24536133,-0.4968872,0.24871826,1.34375,2.96875,-7.234375
1696258068386,-0.029052734,-0.43902588,0.20404053,-4.5625,-7.015625,4.9375
1696258068425,-0.21875,-0.5755005,0.11859131,2.25,-10.59375,6.859375
1696258068467,-0.23242188,-0.8010864,0.11248779,8.734375,14.984375,3.375
1696258068507,0.033691406,-0.9258423,0.4303589,-1.96875,18.78125,0.359375
1696258068547,-0.0036621094,-1.145813,0.199646,5.03125,-8.25,-6.921875
1696258068586,-0.01586914,-1.3171997,0.28070068,-1.328125,1.921875,-3.4375
1696258068669,-0.3388672,-1.1514282,0.51849365,-3.71875,29.59375,-9.578125
1696258068681,-0.34838867,-1.5401001,0.047302246,-5.0,19.421875,-10.828125
1696258068704,0.51171875,-1.522522,-0.05206299,-15.4375,40.390625,4.140625
1696258068770,0.35498047,-1.0432739,-0.19976807,-33.71875,15.015625,-0.640625
1696258068784,0.23950195,-0.76690674,-0.05718994,-5.828125,-29.703125,4.75
1696258068825,-0.32617188,-1.1431274,0.04876709,-2.671875,-9.28125,5.328125
1696258068865,-0.16796875,-1.0552368,0.2567749,24.671875,15.625,-1.875
1696258068906,0.14892578,-0.8062134,0.15081787,11.09375,-0.09375,-8.890625
1696258068968,0.09667969,-0.49908447,0.0993042,0.625,-9.296875,-4.640625
1696258068978,-0.09082031,-0.4492798,-0.016662598,1.078125,-23.28125,11.96875
1696258069006,-0.19238281,-0.6819458,0.09320068,-7.5625,-10.703125,22.296875
1696258069088,-0.22290039,-0.94732666,0.18670654,3.265625,3.765625,12.71875
1696258069092,-0.091552734,-1.0918579,0.21038818,13.25,2.984375,3.4375
1696258069126,-0.032958984,-1.2510376,0.29534912,4.0,-2.328125,4.65625
1696258069186,-0.080078125,-1.1934204,0.4093628,-7.4375,-7.859375,13.09375
1696258069208,-0.14501953,-1.3972778,0.22381592,-11.171875,-26.421875,11.96875
1696258069247,-0.19335938,-1.4985962,-0.16046143,2.5,-33.90625,1.828125
1696258069285,0.6672363,-1.1033325,0.020446777,5.15625,-8.015625,-12.1875
1696258069326,0.62939453,-0.85528564,0.29925537,12.78125,0.796875,-12.625
1696258069365,0.04272461,-1.0144653,0.024597168,-20.359375,-6.890625,-2.796875
1696258069405,-0.14404297,-1.1929321,0.038024902,-0.71875,9.78125,6.984375
1696258069446,0.13598633,-0.8599243,0.09320068,4.875,13.078125,-10.71875
1696258069486,0.2290039,-0.5984497,0.25091553,-0.4375,9.75,-10.640625
1696258069527,-0.045410156,-0.51519775,0.2189331,-2.046875,-3.671875,-1.609375
1696258069565,-0.17651367,-0.6069946,0.105407715,3.59375,-0.90625,3.4375
1696258069604,-0.07128906,-0.76812744,0.14251709,5.265625,7.671875,5.546875
1696258069645,0.072021484,-0.89971924,0.34246826,5.609375,-4.171875,1.296875
1696258069685,-0.012207031,-1.0132446,0.29486084,10.265625,-12.390625,-6.46875
1696258069726,-0.12573242,-1.0925903,0.13421631,2.9375,-2.984375,-0.28125
1696258069766,-0.27172852,-1.1382446,0.41497803,8.25,16.34375,-1.46875
1696258069807,-0.47583008,-1.489563,0.10345459,-5.453125,32.21875,-1.671875
1696258069845,0.26220703,-1.7007446,0.00970459,-4.09375,49.953125,-7.453125
1696258069906,0.43408203,-1.2561646,-0.018371582,-9.890625,39.9375,-11.203125
1696258069926,0.31713867,-0.6489868,-0.09283447,-14.78125,-5.4375,-9.484375
1696258069965,0.0041503906,-0.7034302,-0.07867432,1.15625,-22.828125,2.59375
1696258070005,-0.12988281,-1.0081177,0.078308105,16.203125,8.5,13.703125
1696258070045,0.0029296875,-0.9849243,0.1329956,15.140625,7.125,5.796875
1696258070106,0.021484375,-0.7185669,0.10784912,3.984375,-4.71875,-13.890625
1696258070145,-0.14575195,-0.62677,0.022888184,8.234375,-3.59375,-4.890625
1696258070165,-0.22167969,-0.6682739,0.098083496,-3.4375,4.859375,10.75
1696258070206,-0.17749023,-0.80352783,0.14788818,1.515625,8.015625,10.453125
1696258070265,-0.05126953,-1.00177,0.15545654,-1.265625,7.046875,9.453125
1696258070267,0.09033203,-1.0703735,0.26654053,5.890625,2.359375,10.59375
1696258070305,-0.06713867,-1.2756958,0.22479248,1.53125,-15.09375,12.03125
1696258070346,-0.17773438,-1.253479,0.21185303,-2.921875,-17.421875,11.453125
1696258070386,-0.14794922,-1.5134888,0.066833496,-10.90625,-29.25,13.140625
1696258070424,0.27905273,-1.4675903,-0.14581299,-6.15625,-6.0625,3.625
1696258070464,0.7402344,-1.0779419,0.15423584,8.0,-15.234375,-18.25
1696258070504,0.4645996,-0.706604,0.11077881,0.84375,-26.953125,-12.671875
1696258070545,-0.12939453,-0.9378052,0.039733887,-2.40625,-15.84375,6.8125
1696258070586,-0.05493164,-1.0762329,0.050231934,-1.578125,5.765625,9.234375
1696258070626,0.23364258,-0.75982666,0.12982178,2.953125,0.375,-11.796875
1696258070666,0.2644043,-0.5264282,0.23187256,0.859375,-15.796875,-9.09375
1696258070705,0.030273438,-0.48687744,0.18939209,-5.546875,-21.375,3.359375
1696258070746,-0.11279297,-0.6314087,0.20916748,-0.140625,-18.125,7.046875
1696258070807,-0.17041016,-0.86602783,0.19207764,9.3125,-0.59375,7.609375
1696258070825,-0.09375,-0.97491455,0.3751831,4.53125,-0.421875,1.71875
1696258070865,-0.09277344,-1.0735474,0.24066162,3.109375,-9.578125,-5.15625
1696258070906,0.075683594,-1.2092896,0.27923584,9.671875,9.15625,-4.53125
1696258070945,-0.22436523,-1.2827759,0.28704834,3.015625,21.359375,-4.21875
1696258070986,-0.15942383,-1.5803833,0.1317749,-9.84375,26.9375,-6.171875
1696258071026,0.28295898,-1.3828735,0.08709717,-24.671875,34.140625,-4.59375
1696258071065,0.45654297,-0.96832275,-0.09503174,-14.6875,11.40625,-12.09375
1696258071105,0.32592773,-0.8069458,-0.093322754,-6.515625,-14.171875,4.046875
1696258071169,-0.11816406,-0.9915161,-0.057678223,7.359375,-14.046875,6.75
1696258071208,-0.18383789,-0.99298096,0.19989014,15.171875,13.8125,1.640625
1696258071226,0.010498047,-0.7581177,0.17645264,4.171875,1.390625,-8.953125
1696258071267,0.0859375,-0.5977173,0.05267334,-4.46875,-4.234375,-10.34375
1696258071325,-0.05493164,-0.56500244,-0.009094238,1.921875,-3.546875,4.90625
1696258071388,-0.10424805,-0.6658325,0.14544678,1.4375,0.015625,13.234375
1696258071396,-0.23095703,-0.83258057,0.22235107,-5.5625,-3.296875,11.53125
1696258071427,-0.14575195,-1.0142212,0.24261475,1.484375,-0.046875,3.6875
1696258071467,0.06591797,-1.241272,0.31829834,5.40625,-6.65625,2.015625
1696258071505,0.012207031,-1.2434692,0.3624878,-11.546875,-18.46875,10.515625
1696258071545,-0.12207031,-1.5991821,0.05267334,-12.71875,-40.375,10.90625
