,timestamp,accel_x,accel_y,accel_z,gyro_x,gyro_y,gyro_z,ind
0,1696251982389,-0.6101074,-0.04449463,0.8786011,-0.125,-0.671875,0.109375,0
1,1696251982429,-0.63012695,-0.043029785,0.869812,3.28125,3.0,0.03125,136
2,1696251982469,-0.6191406,-0.0713501,0.85272217,2.65625,2.765625,0.21875,137
3,1696251982509,-0.61450195,-0.07867432,0.87249756,3.25,1.265625,0.125,138
4,1696251982549,-0.6188965,-0.06304932,0.8805542,2.46875,1.015625,0.203125,139
5,1696251982589,-0.6152344,-0.07159424,0.871521,0.171875,-0.046875,-0.109375,140
6,1696251982629,-0.6047363,-0.061584473,0.8661499,-0.09375,-0.515625,-0.671875,141
7,1696251982669,-0.60595703,-0.05230713,0.87713623,0.328125,-1.34375,-0.265625,142
8,1696251982709,-0.61083984,-0.069885254,0.8800659,0.4375,-1.53125,0.15625,143
9,1696251982749,-0.61376953,-0.066467285,0.86712646,-1.1875,-1.5625,-0.09375,144
10,1696251982789,-0.6113281,-0.066223145,0.86761475,-1.125,-2.21875,-0.359375,145
11,1696251982829,-0.62402344,-0.054504395,0.8673706,-1.921875,-3.0625,-0.65625,146
12,1696251982869,-0.6245117,-0.06524658,0.8707886,-3.65625,-3.453125,-0.96875,147
13,1696251982909,-0.6296387,-0.039123535,0.8493042,-4.875,-4.796875,-1.140625,148
14,1696251982949,-0.6254883,-0.026672363,0.855896,-1.828125,-3.40625,-0.859375,149
15,1696251982989,-0.62890625,-0.037902832,0.8590698,-0.6875,-2.203125,0.15625,150
16,1696251983029,-0.62353516,-0.04840088,0.8446655,-0.921875,-1.0625,0.40625,151
17,1696251983069,-0.6203613,-0.0335083,0.8505249,-1.96875,-1.90625,0.046875,152
18,1696251983109,-0.6411133,-0.03375244,0.83221436,-6.0625,-5.875,0.046875,153
19,1696251983149,-0.66137695,0.0079956055,0.7731323,-2.671875,-15.046875,-1.796875,154
20,1696251983189,-0.66186523,-0.00030517578,0.85687256,5.15625,-4.515625,-0.875,155
21,1696251983229,-0.6257324,-0.06427002,0.8876343,1.140625,1.34375,2.484375,156
22,1696251983269,-0.64404297,-0.08111572,0.84246826,-4.890625,-0.734375,2.765625,157
23,1696251983309,-0.68652344,-0.047424316,0.826355,-2.796875,-0.78125,-0.234375,158
24,1696251983349,-0.6669922,-0.02520752,0.86224365,1.75,-0.140625,-1.65625,159
25,1696251983389,-0.64697266,-0.024963379,0.8414917,-4.421875,-1.46875,-0.703125,160
26,1696251983429,-0.6582031,-0.0049438477,0.8283081,-5.09375,-3.15625,-0.75,161
27,1696251983469,-0.6706543,-0.012512207,0.83709717,0.0625,0.015625,-0.984375,162
28,1696251983509,-0.6660156,-0.027404785,0.8446655,0.25,0.609375,-0.328125,163
29,1696251983549,-0.6689453,-0.029846191,0.83270264,-0.65625,0.875,0.515625,164
30,1696251983589,-0.6645508,-0.02178955,0.8461304,-0.984375,1.359375,0.9375,165
31,1696251983629,-0.6640625,-0.019104004,0.85565186,0.96875,2.15625,1.046875,166
32,1696251983669,-0.65234375,-0.02178955,0.8583374,0.9375,2.109375,1.03125,167
33,1696251983709,-0.65600586,-0.020080566,0.8446655,-0.328125,0.875,0.78125,168
34,1696251983749,-0.6501465,-0.017150879,0.8407593,0.96875,1.484375,1.203125,169
35,1696251983789,-0.6525879,-0.021057129,0.8488159,0.53125,1.359375,1.15625,170
36,1696251983829,-0.6516113,-0.024719238,0.8624878,1.1875,1.5,0.8125,171
37,1696251983869,-0.654541,-0.03741455,0.86590576,2.234375,1.578125,1.0,172
38,1696251983909,-0.64819336,-0.034973145,0.86346436,3.4375,2.71875,1.3125,173
39,1696251983949,-0.6467285,-0.03717041,0.88861084,5.734375,5.578125,1.171875,174
40,1696251983989,-0.6352539,-0.057922363,0.8517456,2.796875,5.34375,1.296875,175
41,1696251984029,-0.62475586,-0.046691895,0.8434448,2.796875,2.53125,0.484375,176
42,1696251984069,-0.61206055,-0.03741455,0.869812,3.734375,2.296875,-0.375,177
43,1696251984109,-0.62402344,-0.054016113,0.87005615,3.359375,1.203125,0.296875,178
44,1696251984149,-0.6176758,-0.058166504,0.8578491,2.734375,1.328125,0.671875,179
45,1696251984189,-0.6176758,-0.05987549,0.8722534,3.234375,1.921875,0.25,180
46,1696251984229,-0.6147461,-0.070617676,0.88861084,4.421875,2.40625,0.28125,181
47,1696251984269,-0.6086426,-0.078430176,0.86395264,-0.015625,-0.921875,0.375,182
48,1696251984309,-0.6130371,-0.057678223,0.86102295,-0.640625,-1.96875,-0.546875,183
49,1696251984349,-0.6159668,-0.04815674,0.86273193,0.53125,-1.453125,-0.6875,184
50,1696251984389,-0.60839844,-0.06451416,0.86395264,-0.046875,-0.625,-0.140625,185
51,1696251984429,-0.6020508,-0.06768799,0.869812,-0.828125,-1.203125,-0.1875,186
52,1696251984469,-0.61157227,-0.07598877,0.8764038,-1.421875,-2.59375,-0.328125,187
53,1696251984509,-0.6230469,-0.066467285,0.86517334,-2.75,-3.765625,-0.234375,188
54,1696251984549,-0.63012695,-0.054504395,0.86224365,-4.046875,-3.953125,-0.65625,189
55,1696251984589,-0.623291,-0.0335083,0.8500366,-5.171875,-5.0,-1.390625,190
56,1696251984629,-0.62402344,-0.0256958,0.84539795,-3.046875,-4.84375,-0.90625,191
57,1696251984669,-0.64331055,-0.0020141602,0.7748413,-2.40625,-14.0625,-1.0625,192
58,1696251984709,-0.6394043,-0.018371582,0.84002686,4.78125,-9.375,-1.71875,193
59,1696251984749,-0.6274414,-0.0803833,0.87005615,2.75,1.34375,2.234375,194
60,1696251984789,-0.6352539,-0.09283447,0.8427124,-5.390625,-1.328125,3.625,195
61,1696251984829,-0.67871094,-0.058898926,0.83270264,-3.8125,-1.234375,0.578125,196
62,1696251984869,-0.6875,-0.028137207,0.85198975,0.859375,-0.96875,-1.0625,197
63,1696251984909,-0.6635742,-0.025939941,0.85565186,-1.515625,-0.765625,-0.921875,198
64,1696251984949,-0.6660156,-0.024475098,0.84246826,-5.03125,-0.5,-0.28125,199
65,1696251984989,-0.6533203,-0.03253174,0.8168335,-4.953125,0.296875,-0.203125,200
66,1696251985029,-0.65625,-0.037902832,0.8383179,-2.1875,-0.046875,-0.515625,201
67,1696251985069,-0.65405273,-0.038391113,0.8463745,-1.75,0.71875,-0.0625,202
68,1696251985109,-0.6533203,-0.027404785,0.8493042,-0.203125,2.515625,0.6875,203
69,1696251985149,-0.66137695,-0.02520752,0.8468628,0.515625,1.59375,1.3125,204
70,1696251985189,-0.657959,-0.024719238,0.85614014,0.15625,1.328125,0.9375,205
71,1696251985229,-0.6533203,-0.030822754,0.8468628,-1.03125,0.421875,0.171875,206
72,1696251985269,-0.6508789,-0.02545166,0.8480835,0.0625,0.796875,0.140625,207
73,1696251985309,-0.6516113,-0.020812988,0.85491943,3.046875,3.328125,0.71875,208
74,1696251985349,-0.64282227,-0.041809082,0.8776245,4.75,5.171875,2.1875,209
75,1696251985389,-0.64038086,-0.05206299,0.88397217,6.625,6.625,2.46875,210
76,1696251985429,-0.6279297,-0.06451416,0.8786011,6.390625,6.265625,2.015625,211
77,1696251985469,-0.6303711,-0.058166504,0.85369873,1.734375,1.96875,0.515625,212
78,1696251985509,-0.62353516,-0.051818848,0.8666382,0.953125,0.765625,-0.546875,213
79,1696251985549,-0.61206055,-0.04864502,0.8583374,1.59375,0.234375,-0.875,214
80,1696251985589,-0.609375,-0.05987549,0.87005615,2.1875,1.078125,0.46875,215
81,1696251985629,-0.6074219,-0.06744385,0.8851929,2.265625,2.375,0.5,216
82,1696251985669,-0.6135254,-0.070129395,0.88031006,1.546875,0.71875,0.125,217
83,1696251985709,-0.60791016,-0.074279785,0.8617554,-0.546875,-1.5,-0.0625,218
84,1696251985749,-0.61987305,-0.06304932,0.8847046,1.03125,-1.375,-0.296875,219
85,1696251985789,-0.61572266,-0.06915283,0.87176514,-0.21875,-1.65625,-0.203125,220
86,1696251985829,-0.62524414,-0.06109619,0.8685913,-0.9375,-1.671875,-0.328125,221
87,1696251985869,-0.61499023,-0.057678223,0.855896,-0.75,-2.109375,-0.53125,222
88,1696251985909,-0.6176758,-0.06085205,0.8727417,-0.640625,-1.484375,-0.5,223
89,1696251985949,-0.6191406,-0.06036377,0.87420654,-1.671875,-2.15625,-0.3125,224
90,1696251985989,-0.6308594,-0.053771973,0.869812,-1.53125,-2.28125,0.109375,225
91,1696251986029,-0.6352539,-0.062561035,0.8578491,-1.859375,-2.546875,0.296875,226
92,1696251986069,-0.61816406,-0.045959473,0.855896,-1.828125,-2.078125,-0.375,227
93,1696251986109,-0.5925293,-0.0178833,0.83636475,0.703125,-1.546875,-0.390625,228
94,1696251986149,-0.59716797,-0.016906738,0.85198975,9.75,1.5,0.828125,229
95,1696251986189,-0.60839844,-0.09161377,0.852478,9.21875,0.265625,4.8125,230
96,1696251986229,-0.62890625,-0.12335205,0.86395264,0.75,-3.46875,4.9375,231
97,1696251986269,-0.654541,-0.105285645,0.84783936,-5.640625,-8.859375,0.171875,232
98,1696251986309,-0.66503906,-0.0635376,0.84173584,-4.4375,-8.171875,-3.71875,233
99,1696251986349,-0.66503906,-0.04815674,0.85198975,-2.796875,-4.375,-2.859375,234
100,1696251986389,-0.6484375,-0.028381348,0.8434448,-4.609375,-2.5625,-0.71875,235
101,1696251986429,-0.64941406,-0.049621582,0.81463623,-3.953125,-1.15625,0.28125,236
102,1696251986469,-0.6352539,-0.055480957,0.85809326,0.984375,0.875,-0.78125,237
103,1696251986509,-0.63549805,-0.09283447,0.86834717,-0.421875,-0.125,-0.546875,238
104,1696251986549,-0.65405273,-0.07305908,0.857605,-3.421875,-2.078125,0.640625,239
105,1696251986589,-0.6760254,-0.038391113,0.8480835,-3.046875,0.265625,1.34375,240
106,1696251986629,-0.6582031,-0.020812988,0.83148193,-0.75,1.640625,0.75,241
107,1696251986669,-0.6467285,-0.034973145,0.8456421,-0.296875,1.390625,0.546875,242
108,1696251986709,-0.6538086,-0.0569458,0.83709717,0.21875,1.3125,0.84375,243
109,1696251986749,-0.64086914,-0.054260254,0.84295654,0.875,2.3125,1.078125,244
110,1696251986789,-0.64404297,-0.054016113,0.86053467,1.390625,1.9375,1.046875,245
111,1696251986829,-0.6542969,-0.05255127,0.8673706,0.28125,1.578125,0.453125,246
112,1696251986869,-0.6520996,-0.05279541,0.8739624,4.734375,4.140625,0.71875,247
113,1696251986909,-0.62646484,-0.057678223,0.90301514,10.6875,9.296875,1.71875,248
114,1696251986949,-0.59814453,-0.08892822,0.85931396,8.609375,7.8125,3.0,249
115,1696251986989,-0.6135254,-0.10723877,0.8786011,5.84375,4.34375,2.109375,250
116,1696251987029,-0.59716797,-0.08502197,0.84906006,-2.15625,1.890625,-0.734375,251
117,1696251987069,-0.6188965,-0.0491333,0.8666382,-1.78125,-1.46875,-1.25,252
118,1696251987109,-0.6123047,-0.06427002,0.8703003,1.90625,0.84375,-0.171875,253
119,1696251987149,-0.59643555,-0.09991455,0.88201904,1.203125,1.3125,0.40625,254
120,1696251987189,-0.59887695,-0.10211182,0.8776245,-1.171875,-0.3125,0.4375,255
121,1696251987229,-0.5842285,-0.09527588,0.869812,-0.34375,-0.609375,-0.390625,256
122,1696251987269,-0.59887695,-0.082092285,0.8847046,0.40625,-2.25,-0.765625,257
123,1696251987309,-0.6142578,-0.08306885,0.8776245,-2.359375,-3.03125,-0.3125,258
124,1696251987349,-0.61816406,-0.06866455,0.868103,-3.078125,-3.09375,-0.21875,259
125,1696251987389,-0.6135254,-0.066223145,0.8612671,-1.578125,-2.21875,-0.671875,260
126,1696251987429,-0.6113281,-0.074523926,0.86102295,-1.953125,-2.5,-0.859375,261
127,1696251987469,-0.6140137,-0.07086182,0.8629761,-2.65625,-2.8125,-0.859375,262
128,1696251987509,-0.61816406,-0.061340332,0.8781128,-1.53125,-2.40625,-0.640625,263
129,1696251987549,-0.6262207,-0.065979004,0.85736084,-3.15625,-3.4375,-0.296875,264
130,1696251987589,-0.6191406,-0.054504395,0.86053467,-2.453125,-2.859375,-0.5,265
131,1696251987629,-0.6113281,-0.030822754,0.8456421,0.0,-3.046875,-0.265625,266
132,1696251987669,-0.6269531,-0.045715332,0.78948975,3.6875,-10.203125,0.28125,267
133,1696251987709,-0.6411133,-0.051086426,0.8348999,3.640625,-10.328125,-0.25,268
134,1696251987749,-0.6447754,-0.09942627,0.90008545,1.125,-3.875,2.234375,269
135,1696251987789,-0.6386719,-0.09844971,0.83758545,-6.828125,-3.234375,1.765625,270
136,1696251987829,-0.6743164,-0.059143066,0.836853,-3.84375,-3.5,-1.609375,271
137,1696251987869,-0.6855469,-0.0335083,0.8485718,-1.703125,-1.5625,-2.828125,272
138,1696251987909,-0.6669922,-0.038879395,0.83636475,-2.765625,-0.78125,-0.671875,273
139,1696251987949,-0.6555176,-0.049865723,0.83929443,-3.375,0.890625,0.96875,274
140,1696251987989,-0.65185547,-0.057922363,0.83807373,-1.078125,1.546875,0.203125,275
141,1696251988029,-0.6530762,-0.055725098,0.85272217,-1.046875,0.734375,-0.265625,276
142,1696251988069,-0.6647949,-0.053527832,0.85369873,-2.75,0.375,0.546875,277
143,1696251988109,-0.6672363,-0.03277588,0.83929443,-1.796875,1.15625,0.90625,278
144,1696251988149,-0.66015625,-0.031066895,0.8468628,-0.046875,1.78125,0.671875,279
145,1696251988189,-0.65478516,-0.047180176,0.84490967,-1.4375,0.328125,0.71875,280
146,1696251988229,-0.6435547,-0.043029785,0.8348999,-1.875,-0.671875,0.25,281
147,1696251988269,-0.6503906,-0.03302002,0.84661865,0.390625,0.0625,-0.21875,282
148,1696251988309,-0.64501953,-0.036193848,0.8673706,0.9375,1.453125,0.21875,283
149,1696251988349,-0.6479492,-0.04473877,0.86712646,1.28125,1.734375,0.90625,284
150,1696251988389,-0.6503906,-0.04840088,0.8656616,0.203125,1.484375,1.28125,285
151,1696251988429,-0.6484375,-0.045959473,0.8756714,2.359375,3.578125,1.046875,286
152,1696251988469,-0.6369629,-0.051818848,0.87323,5.109375,5.484375,1.640625,287
153,1696251988509,-0.6357422,-0.06378174,0.85150146,2.578125,5.578125,1.546875,288
154,1696251988549,-0.63134766,-0.055236816,0.84490967,0.125,2.71875,0.28125,289
155,1696251988589,-0.62158203,-0.045715332,0.8607788,1.15625,1.421875,-1.15625,290
156,1696251988629,-0.6088867,-0.046936035,0.86834717,1.9375,1.109375,-0.765625,291
157,1696251988669,-0.61206055,-0.06329346,0.87786865,1.75,0.390625,0.125,292
158,1696251988709,-0.61328125,-0.07305908,0.85980225,-0.578125,-0.015625,0.21875,293
159,1696251988749,-0.6159668,-0.059143066,0.8695679,-0.21875,-0.765625,-0.203125,294
160,1696251988789,-0.6171875,-0.06744385,0.86712646,0.859375,-0.1875,-0.09375,295
161,1696251988829,-0.6208496,-0.058166504,0.86761475,-0.390625,-1.78125,-0.140625,296
162,1696251988869,-0.626709,-0.061340332,0.86517334,-0.515625,-2.046875,-0.296875,297
163,1696251988909,-0.625,-0.051086426,0.8607788,-0.328125,-1.0625,-0.71875,298
164,1696251988949,-0.623291,-0.054016113,0.86224365,-0.21875,-1.0625,-0.65625,299
165,1696251988989,-0.6245117,-0.057922363,0.8744507,0.484375,-1.015625,-0.265625,300
166,1696251989029,-0.6208496,-0.066711426,0.85809326,-2.1875,-2.90625,-0.109375,301
167,1696251989069,-0.6274414,-0.049865723,0.8590698,-2.453125,-2.765625,-0.484375,302
168,1696251989109,-0.6154785,-0.032043457,0.85931396,-1.40625,-2.5,-0.796875,303
169,1696251989149,-0.6188965,-0.042053223,0.84954834,-0.171875,-1.78125,0.15625,304
170,1696251989189,-0.62158203,-0.028381348,0.7782593,-4.9375,-8.140625,-0.09375,305
171,1696251989229,-0.63549805,-0.016662598,0.81292725,2.140625,-12.1875,-1.453125,306
172,1696251989269,-0.65283203,-0.07208252,0.9130249,4.125,-6.3125,1.21875,307
173,1696251989309,-0.63305664,-0.089416504,0.8444214,-6.375,-2.515625,2.703125,308
174,1696251989349,-0.6682129,-0.02911377,0.82244873,-6.875,-0.921875,0.09375,309
175,1696251989389,-0.70166016,-0.0020141602,0.8468628,-0.25,-2.171875,-2.296875,310
176,1696251989429,-0.67211914,-0.032287598,0.8427124,0.609375,0.375,-0.953125,311
177,1696251989469,-0.6401367,-0.042785645,0.85150146,-3.734375,1.125,0.21875,312
178,1696251989509,-0.6557617,-0.04522705,0.8397827,-2.734375,0.78125,0.640625,313
179,1696251989549,-0.6594238,-0.04058838,0.83880615,1.390625,1.375,0.40625,314
180,1696251989589,-0.67285156,-0.033996582,0.8578491,-1.109375,2.0,0.875,315
181,1696251989629,-0.65722656,-0.024230957,0.84710693,-1.390625,2.828125,2.078125,316
182,1696251989669,-0.6484375,-0.018859863,0.83880615,-0.59375,1.890625,2.09375,317
183,1696251989709,-0.65112305,-0.04058838,0.85272217,0.796875,1.5,1.03125,318
184,1696251989749,-0.654541,-0.046203613,0.85809326,0.390625,1.703125,0.59375,319
185,1696251989789,-0.64575195,-0.031311035,0.8510132,0.1875,1.40625,0.265625,320
186,1696251989829,-0.6411133,-0.028869629,0.8656616,1.640625,2.28125,0.46875,321
187,1696251989869,-0.6435547,-0.03326416,0.87957764,3.59375,3.0,1.109375,322
188,1696251989909,-0.63916016,-0.054260254,0.88079834,4.8125,4.359375,1.234375,323
189,1696251989949,-0.6467285,-0.06378174,0.8673706,3.0,2.171875,1.1875,324
190,1696251989989,-0.64160156,-0.06451416,0.8226929,-4.671875,-1.015625,-0.5,325
191,1696251990029,-0.62231445,-0.018127441,0.8624878,-1.78125,-1.203125,-2.234375,326
192,1696251990069,-0.6245117,-0.031555176,0.8722534,1.265625,0.453125,-0.890625,327
193,1696251990109,-0.61816406,-0.04815674,0.86883545,3.109375,1.84375,0.1875,328
194,1696251990149,-0.61938477,-0.061828613,0.87249756,3.140625,2.15625,0.9375,329
195,1696251990189,-0.6171875,-0.05596924,0.869812,0.609375,0.421875,0.15625,330
196,1696251990229,-0.6320801,-0.046203613,0.8673706,1.03125,-1.5625,-0.015625,331
197,1696251990269,-0.6335449,-0.044006348,0.86468506,0.59375,-1.359375,-0.09375,332
198,1696251990309,-0.6323242,-0.039855957,0.8654175,0.46875,-1.328125,-0.0625,333
199,1696251990349,-0.6281738,-0.050842285,0.8497925,-0.234375,-1.140625,0.015625,334
200,1696251990389,-0.6262207,-0.049865723,0.85028076,-1.046875,-0.828125,-0.046875,335
201,1696251990429,-0.6269531,-0.054748535,0.86517334,-0.484375,-0.6875,-0.421875,336
202,1696251990469,-0.63134766,-0.04840088,0.8744507,0.90625,-0.6875,0.0625,337
203,1696251990509,-0.62280273,-0.055480957,0.8612671,-1.0,-1.796875,0.046875,338
204,1696251990549,-0.62768555,-0.042297363,0.8607788,-1.875,-2.296875,-0.265625,339
205,1696251990589,-0.6220703,-0.03253174,0.8612671,-1.046875,-2.140625,-0.65625,340
206,1696251990629,-0.63256836,-0.038635254,0.8571167,-1.578125,-2.296875,0.125,341
207,1696251990669,-0.62768555,-0.03643799,0.8395386,-1.734375,-3.46875,0.140625,342
208,1696251990709,-0.642334,-0.026916504,0.7897339,0.609375,-9.859375,-0.234375,343
209,1696251990749,-0.6503906,-0.0064086914,0.84783936,2.40625,-9.390625,-0.890625,344
210,1696251990789,-0.6513672,-0.061828613,0.8451538,0.03125,-3.4375,1.875,345
211,1696251990829,-0.6660156,-0.07330322,0.8451538,-2.25,-0.546875,1.921875,346
212,1696251990869,-0.65600586,-0.04840088,0.85565186,-1.828125,-0.078125,-0.53125,347
213,1696251990909,-0.6477051,-0.02960205,0.84490967,-1.578125,-2.65625,-1.59375,348
214,1696251990949,-0.6608887,-0.031066895,0.8468628,-3.75,-1.1875,-1.0625,349
215,1696251990989,-0.6706543,-0.018127441,0.8422241,-3.53125,-1.28125,0.640625,350
216,1696251991029,-0.67163086,-0.03765869,0.83807373,-0.46875,1.40625,1.03125,351
217,1696251991069,-0.6621094,-0.033996582,0.84368896,-0.4375,1.109375,-0.203125,352
218,1696251991109,-0.65527344,-0.034729004,0.85028076,-1.40625,0.6875,0.125,353
219,1696251991149,-0.6616211,-0.018859863,0.83880615,-1.328125,1.1875,0.90625,354
220,1696251991189,-0.66674805,-0.014465332,0.84783936,-0.3125,2.015625,0.734375,355
221,1696251991229,-0.66625977,-0.030090332,0.8432007,0.71875,2.5625,0.78125,356
222,1696251991269,-0.6455078,-0.035461426,0.8512573,1.046875,2.953125,0.796875,357
223,1696251991309,-0.6359863,-0.034729004,0.8624878,0.75,2.6875,1.0625,358
224,1696251991349,-0.62890625,-0.035217285,0.8673706,-0.125,1.6875,0.984375,359
225,1696251991389,-0.64501953,-0.029846191,0.86932373,1.109375,1.140625,0.75,360
226,1696251991429,-0.6459961,-0.038391113,0.87957764,5.546875,3.578125,1.53125,361
227,1696251991469,-0.63183594,-0.06060791,0.87298584,6.4375,4.9375,1.375,362
228,1696251991509,-0.63842773,-0.058654785,0.8451538,2.75,3.46875,0.59375,363
229,1696251991549,-0.6286621,-0.04425049,0.8510132,1.09375,1.359375,-0.140625,364
230,1696251991589,-0.6213379,-0.0491333,0.8656616,2.078125,1.453125,-0.453125,365
231,1696251991629,-0.6164551,-0.07940674,0.8600464,2.171875,1.078125,0.453125,366
232,1696251991669,-0.61083984,-0.061340332,0.8707886,1.328125,0.390625,-0.109375,367
233,1696251991709,-0.6203613,-0.06109619,0.869812,1.578125,0.234375,0.0625,368
234,1696251991749,-0.6184082,-0.054260254,0.8637085,-0.046875,-0.703125,0.0,369
235,1696251991789,-0.6171875,-0.06378174,0.87420654,1.390625,-0.703125,-0.171875,370
236,1696251991829,-0.62646484,-0.06402588,0.85858154,-0.140625,-1.171875,0.140625,371
237,1696251991869,-0.61450195,-0.054992676,0.86639404,-0.296875,-0.234375,-0.484375,372
238,1696251991909,-0.60717773,-0.051818848,0.87420654,1.015625,0.484375,-0.484375,373
239,1696251991949,-0.62939453,-0.07354736,0.8727417,0.8125,-1.421875,1.125,374
240,1696251991989,-0.6176758,-0.05987549,0.8446655,-2.3125,-2.75,0.65625,375
241,1696251992029,-0.6105957,-0.036193848,0.86053467,-2.015625,-2.140625,-1.015625,376
242,1696251992069,-0.6191406,-0.05303955,0.869812,-0.640625,-2.28125,-1.171875,377
243,1696251992109,-0.62890625,-0.053527832,0.8617554,-0.328125,-3.0625,0.046875,378
244,1696251992149,-0.6218262,-0.03302002,0.8156128,1.234375,-3.75,-0.140625,379
245,1696251992189,-0.642334,-0.032287598,0.81365967,4.828125,-12.90625,0.125,380
246,1696251992229,-0.6435547,-0.061340332,0.8720093,0.921875,-6.109375,-0.125,381
247,1696251992269,-0.6418457,-0.0881958,0.8739624,-5.109375,-4.28125,3.15625,382
248,1696251992309,-0.642334,-0.07574463,0.8336792,-8.28125,-1.71875,0.421875,383
249,1696251992349,-0.67871094,-0.04937744,0.8468628,-3.953125,-2.03125,-1.828125,384
250,1696251992389,-0.6784668,-0.031311035,0.83587646,-2.40625,-2.578125,-2.28125,385
251,1696251992429,-0.670166,-0.028381348,0.84783936,-3.328125,0.4375,-1.03125,386
252,1696251992469,-0.65527344,-0.034729004,0.84954834,-1.96875,2.09375,0.515625,387
253,1696251992509,-0.64404297,-0.054016113,0.8361206,-0.734375,0.515625,0.4375,388
254,1696251992549,-0.6569824,-0.04498291,0.8595581,-0.84375,-0.6875,-0.15625,389
255,1696251992589,-0.6611328,-0.025939941,0.85076904,-1.265625,0.203125,0.28125,390
256,1696251992629,-0.65527344,-0.0095825195,0.8356323,-1.421875,1.1875,0.546875,391
257,1696251992669,-0.6533203,-0.02178955,0.8505249,-0.5,0.390625,0.3125,392
258,1696251992709,-0.6640625,-0.03643799,0.8510132,0.125,0.296875,0.453125,393
259,1696251992749,-0.6542969,-0.038879395,0.84295654,-0.28125,1.140625,-0.03125,394
260,1696251992789,-0.6530762,-0.026916504,0.8571167,1.390625,1.1875,0.09375,395
261,1696251992829,-0.6530762,-0.03277588,0.86053467,-0.0625,1.15625,0.75,396
262,1696251992869,-0.65356445,-0.039123535,0.8788452,2.484375,2.234375,1.1875,397
263,1696251992909,-0.64282227,-0.054016113,0.87664795,4.5,5.375,1.796875,398
264,1696251992949,-0.63720703,-0.050354004,0.86346436,3.828125,4.875,1.515625,399
265,1696251992989,-0.6359863,-0.043762207,0.8461304,2.171875,3.09375,0.875,400
266,1696251993029,-0.6281738,-0.038146973,0.85858154,2.625,3.328125,-0.03125,401
267,1696251993069,-0.6184082,-0.05230713,0.87493896,3.375,2.78125,0.078125,402
268,1696251993109,-0.61621094,-0.06842041,0.8617554,0.953125,0.5625,0.21875,403
269,1696251993149,-0.6230469,-0.05670166,0.89471436,2.265625,-0.203125,0.109375,404
270,1696251993189,-0.62597656,-0.062316895,0.87493896,1.453125,1.40625,0.609375,405
271,1696251993229,-0.61083984,-0.057922363,0.8602905,0.46875,0.53125,0.71875,406
272,1696251993269,-0.6140137,-0.057434082,0.8632202,0.4375,-1.453125,0.375,407
273,1696251993309,-0.6171875,-0.062072754,0.8619995,-0.46875,-1.140625,-0.75,408
274,1696251993349,-0.6218262,-0.06036377,0.8744507,-0.78125,-1.0,-0.890625,409
275,1696251993389,-0.6203613,-0.06011963,0.8793335,0.671875,-1.28125,-0.78125,410
276,1696251993429,-0.6269531,-0.06744385,0.8644409,-1.875,-2.65625,-0.40625,411
277,1696251993469,-0.6218262,-0.05718994,0.8656616,-2.921875,-2.484375,-0.578125,412
278,1696251993509,-0.6225586,-0.035217285,0.86761475,-1.890625,-2.640625,-0.84375,413
279,1696251993549,-0.6254883,-0.05645752,0.8751831,-1.4375,-2.140625,-0.53125,414
280,1696251993589,-0.63842773,-0.05255127,0.8270874,-6.171875,-6.640625,-0.765625,415
281,1696251993629,-0.6286621,-0.00592041,0.85198975,-0.8125,-5.28125,-2.296875,416
282,1696251993669,-0.63061523,-0.010803223,0.8270874,4.078125,-4.328125,0.0625,417
283,1696251993709,-0.6682129,-0.024230957,0.8317261,11.703125,-4.953125,1.234375,418
284,1696251993749,-0.61621094,-0.05718994,0.83148193,2.421875,-0.34375,1.78125,419
285,1696251993789,-0.6196289,-0.09088135,0.87249756,-1.296875,-0.9375,4.234375,420
286,1696251993829,-0.63183594,-0.101867676,0.85150146,-4.859375,-2.78125,2.265625,421
287,1696251993869,-0.6726074,-0.046936035,0.8571167,-4.578125,-2.578125,-0.96875,422
288,1696251993909,-0.6791992,-0.015930176,0.84954834,-5.015625,-2.03125,-1.796875,423
289,1696251993949,-0.66845703,-0.022277832,0.8444214,-4.59375,-0.71875,-0.5,424
290,1696251993989,-0.66430664,-0.03668213,0.8258667,-3.734375,0.234375,0.234375,425
291,1696251994029,-0.6413574,-0.0491333,0.8432007,-0.015625,2.59375,-0.4375,426
292,1696251994069,-0.6442871,-0.051086426,0.85809326,0.34375,1.25,-0.234375,427
293,1696251994109,-0.6489258,-0.035217285,0.8595581,0.53125,1.359375,1.296875,428
294,1696251994149,-0.66186523,-0.03326416,0.84832764,-0.15625,2.8125,2.171875,429
295,1696251994189,-0.6586914,-0.026184082,0.84832764,-0.671875,2.796875,1.421875,430
296,1696251994229,-0.6472168,-0.034973145,0.854187,0.328125,2.265625,0.515625,431
297,1696251994269,-0.63549805,-0.03643799,0.85687256,0.53125,0.84375,0.3125,432
298,1696251994309,-0.6333008,-0.04840088,0.8678589,1.734375,2.34375,0.859375,433
299,1696251994349,-0.640625,-0.051086426,0.88446045,2.640625,2.296875,1.21875,434
300,1696251994389,-0.6411133,-0.06085205,0.87664795,3.203125,2.71875,1.3125,435
301,1696251994429,-0.63134766,-0.04449463,0.86883545,2.640625,3.4375,0.234375,436
302,1696251994469,-0.6335449,-0.04547119,0.86273193,1.34375,2.484375,-0.5625,437
303,1696251994509,-0.61865234,-0.05718994,0.87176514,2.8125,1.828125,-0.5625,438
304,1696251994549,-0.6130371,-0.062561035,0.8666382,0.578125,0.5,-0.078125,439
305,1696251994589,-0.6176758,-0.06890869,0.8666382,1.125,-0.5,0.046875,440
306,1696251994629,-0.6176758,-0.061828613,0.87323,0.03125,-0.671875,-0.78125,441
307,1696251994669,-0.6323242,-0.049865723,0.8834839,1.09375,-1.03125,-0.53125,442
308,1696251994709,-0.6237793,-0.06304932,0.8554077,-0.4375,-1.28125,0.078125,443
309,1696251994749,-0.6188965,-0.05303955,0.85369873,-0.921875,-0.953125,-0.4375,444
310,1696251994789,-0.6171875,-0.058410645,0.87615967,0.515625,-1.0,-0.40625,445
311,1696251994829,-0.61816406,-0.0713501,0.8722534,0.09375,-1.125,-0.25,446
312,1696251994869,-0.6218262,-0.06817627,0.86761475,-3.796875,-2.96875,-0.140625,447
313,1696251994909,-0.6311035,-0.026916504,0.8554077,-5.390625,-5.0,-1.0,448
314,1696251994949,-0.6394043,-0.031066895,0.8764038,-0.390625,-1.765625,-0.96875,449
315,1696251994989,-0.6296387,-0.04522705,0.86273193,0.53125,-1.171875,0.140625,450
316,1696251995029,-0.62402344,-0.047912598,0.8446655,-0.6875,-0.859375,0.328125,451
317,1696251995069,-0.6230469,-0.035217285,0.854187,1.40625,-1.3125,0.328125,452
318,1696251995109,-0.62231445,-0.034484863,0.84539795,2.453125,-0.34375,0.984375,453
319,1696251995149,-0.6320801,-0.024719238,0.78411865,8.84375,-7.796875,0.484375,454
320,1696251995189,-0.6594238,-0.05206299,0.8378296,4.171875,-10.359375,0.0,455
321,1696251995229,-0.64404297,-0.09283447,0.90789795,-0.921875,-4.90625,2.0,456
322,1696251995269,-0.63378906,-0.09649658,0.8456421,-6.21875,-3.578125,1.21875,457
323,1696251995309,-0.6567383,-0.06109619,0.83758545,-7.96875,-2.5,-1.78125,458
324,1696251995349,-0.6845703,-0.028381348,0.8427124,-2.484375,-4.859375,-3.21875,459
325,1696251995389,-0.67626953,-0.018127441,0.8305054,-2.03125,-0.171875,-1.625,460
326,1696251995429,-0.6750488,-0.047668457,0.8378296,-3.890625,1.078125,0.921875,461
327,1696251995469,-0.6586914,-0.05718994,0.8434448,-0.578125,0.71875,-0.1875,462
328,1696251995509,-0.6538086,-0.06011963,0.8510132,-0.71875,-0.4375,-1.078125,463
329,1696251995549,-0.66552734,-0.024719238,0.8522339,-1.96875,-0.671875,0.140625,464
330,1696251995589,-0.66845703,-0.004699707,0.826355,-1.796875,1.421875,1.21875,465
331,1696251995629,-0.6623535,-0.0071411133,0.83758545,-0.21875,2.25,0.78125,466
332,1696251995669,-0.66430664,-0.0413208,0.85321045,0.453125,3.171875,1.4375,467
333,1696251995709,-0.6530762,-0.051330566,0.85443115,-0.859375,3.015625,1.9375,468
334,1696251995749,-0.65600586,-0.042297363,0.8493042,-0.578125,1.984375,1.1875,469
335,1696251995789,-0.6586914,-0.018371582,0.8566284,0.234375,2.046875,0.8125,470
336,1696251995829,-0.65112305,-0.018859863,0.87127686,2.984375,4.296875,0.8125,471
337,1696251995869,-0.6376953,-0.05670166,0.8685913,5.25,5.984375,2.484375,472
338,1696251995909,-0.6328125,-0.05621338,0.871521,4.75,5.46875,1.9375,473
339,1696251995949,-0.6357422,-0.054016113,0.8539429,2.484375,3.375,0.875,474
340,1696251995989,-0.6230469,-0.051330566,0.86102295,1.625,2.25,-0.484375,475
341,1696251996029,-0.6188965,-0.04449463,0.87420654,1.765625,0.09375,-0.578125,476
342,1696251996069,-0.6171875,-0.061584473,0.86273193,1.40625,-0.4375,-0.109375,477
343,1696251996109,-0.6166992,-0.065979004,0.8629761,-1.0,-0.34375,-0.15625,478
344,1696251996149,-0.6213379,-0.05328369,0.8703003,0.15625,-0.25,-0.421875,479
345,1696251996189,-0.6188965,-0.05206299,0.8632202,0.484375,-0.53125,-0.140625,480
346,1696251996229,-0.609375,-0.05206299,0.86712646,-0.21875,-1.40625,-0.0625,481
347,1696251996269,-0.6257324,-0.044006348,0.8800659,-1.34375,-2.0,-0.53125,482
348,1696251996309,-0.626709,-0.055236816,0.87054443,-0.390625,-1.828125,-0.25,483
349,1696251996349,-0.6208496,-0.06085205,0.8571167,-0.53125,-0.84375,-0.265625,484
350,1696251996389,-0.6176758,-0.059631348,0.8617554,-2.0625,-2.140625,-0.609375,485
351,1696251996429,-0.63378906,-0.036193848,0.8661499,-2.1875,-3.59375,-0.53125,486
352,1696251996469,-0.6364746,-0.04425049,0.86224365,-1.796875,-2.3125,-0.328125,487
353,1696251996509,-0.638916,-0.041809082,0.86053467,-2.34375,-1.84375,-0.25,488
354,1696251996549,-0.63500977,-0.03765869,0.8517456,-1.421875,-2.515625,0.0,489
355,1696251996589,-0.62524414,-0.02178955,0.857605,0.046875,-2.546875,0.046875,490
356,1696251996629,-0.64868164,-0.010070801,0.82928467,9.0625,-3.859375,0.59375,491
357,1696251996669,-0.642334,-0.038391113,0.82147217,7.03125,-12.859375,0.921875,492
358,1696251996709,-0.6225586,-0.09063721,0.8617554,-2.6875,-5.15625,1.328125,493
359,1696251996749,-0.62158203,-0.074523926,0.824646,-6.40625,-3.765625,1.640625,494
360,1696251996789,-0.68847656,-0.045715332,0.8278198,-2.53125,-2.109375,0.578125,495
361,1696251996829,-0.70166016,-0.03277588,0.86102295,-1.40625,-3.546875,-1.609375,496
362,1696251996869,-0.6726074,-0.030334473,0.84588623,-1.5625,-1.65625,-2.171875,497
363,1696251996909,-0.6582031,-0.037902832,0.83514404,-5.09375,0.875,-0.703125,498
364,1696251996949,-0.6567383,-0.029846191,0.83514404,-0.125,0.171875,0.046875,499
365,1696251996989,-0.67211914,-0.058898926,0.84051514,0.453125,1.765625,0.484375,500
366,1696251997029,-0.66552734,-0.05621338,0.8497925,-2.140625,1.484375,0.796875,501
367,1696251997069,-0.6525879,-0.023498535,0.84368896,-1.96875,0.34375,1.171875,502
368,1696251997109,-0.66845703,-0.014709473,0.8378296,-1.3125,1.0625,1.34375,503
369,1696251997149,-0.68237305,-0.022766113,0.8361206,0.234375,2.578125,0.625,504
370,1696251997189,-0.66796875,-0.043273926,0.8434448,1.3125,4.421875,1.03125,505
371,1696251997229,-0.64038086,-0.044006348,0.8468628,1.0,4.875,1.1875,506
372,1696251997269,-0.6435547,-0.045959473,0.8722534,2.421875,4.546875,1.328125,507
373,1696251997309,-0.6467285,-0.047668457,0.8759155,3.3125,5.875,1.625,508
374,1696251997349,-0.6533203,-0.05621338,0.855896,3.234375,4.78125,1.25,509
375,1696251997389,-0.63305664,-0.050842285,0.8475952,1.53125,2.765625,0.21875,510
376,1696251997429,-0.6196289,-0.042297363,0.86517334,1.609375,1.21875,-0.84375,511
377,1696251997469,-0.6118164,-0.05718994,0.8739624,1.75,0.234375,-1.0,512
378,1696251997509,-0.6101074,-0.06744385,0.86346436,0.25,-1.1875,-0.3125,513
379,1696251997549,-0.6220703,-0.058410645,0.8695679,-1.15625,-1.578125,-0.359375,514
380,1696251997589,-0.625,-0.043029785,0.8707886,-1.875,-1.390625,-0.84375,515
381,1696251997629,-0.63500977,-0.04937744,0.8632202,0.3125,-1.15625,-0.1875,516
382,1696251997669,-0.61694336,-0.058898926,0.85736084,-0.578125,-0.53125,-0.078125,517
383,1696251997709,-0.6154785,-0.042785645,0.85858154,-1.359375,-1.84375,-0.828125,518
384,1696251997749,-0.6345215,-0.04156494,0.8600464,-0.859375,-2.34375,-0.46875,519
385,1696251997789,-0.6328125,-0.03692627,0.85491943,-0.984375,-1.53125,-0.1875,520
386,1696251997829,-0.6281738,-0.039611816,0.8619995,-1.3125,-1.59375,-0.359375,521
387,1696251997869,-0.6296387,-0.043518066,0.85443115,-0.140625,-1.90625,-0.203125,522
388,1696251997909,-0.62768555,-0.03302002,0.86273193,-0.8125,-1.984375,-0.234375,523
389,1696251997949,-0.6357422,-0.046936035,0.8566284,-1.125,-2.53125,0.265625,524
390,1696251997989,-0.6323242,-0.030090332,0.84783936,-0.328125,-2.078125,0.1875,525
391,1696251998029,-0.623291,-0.018371582,0.8336792,1.953125,-0.484375,0.71875,526
392,1696251998069,-0.6315918,-0.0095825195,0.7904663,2.453125,-3.109375,1.375,527
393,1696251998109,-0.6467285,-0.045959473,0.8444214,5.609375,-8.359375,1.453125,528
394,1696251998149,-0.6665039,-0.086242676,0.8764038,-0.21875,-4.84375,0.890625,529
395,1696251998189,-0.64575195,-0.07208252,0.8505249,-4.28125,-3.828125,0.453125,530
396,1696251998229,-0.66674805,-0.024475098,0.8324585,-4.953125,-4.546875,-1.71875,531
397,1696251998269,-0.66381836,-0.020812988,0.8414917,-1.40625,-1.625,-2.90625,532
398,1696251998309,-0.66186523,-0.0413208,0.8383179,-0.765625,-1.015625,-0.375,533
399,1696251998349,-0.66137695,-0.03692627,0.83807373,-3.53125,-0.671875,0.828125,534
400,1696251998389,-0.67333984,-0.043029785,0.83929443,0.265625,-0.421875,0.25,535
401,1696251998429,-0.6538086,-0.05718994,0.82977295,-0.5625,1.1875,-0.40625,536
402,1696251998469,-0.6660156,-0.02154541,0.855896,-1.546875,0.65625,0.265625,537
403,1696251998509,-0.6687012,-0.024230957,0.84198,-1.078125,1.296875,1.15625,538
404,1696251998549,-0.6628418,-0.020812988,0.8427124,0.3125,2.015625,0.625,539
405,1696251998589,-0.6459961,-0.03326416,0.85028076,0.03125,1.359375,0.421875,540
406,1696251998629,-0.6520996,-0.038146973,0.84124756,-0.484375,1.078125,0.8125,541
407,1696251998669,-0.6621094,-0.03741455,0.8563843,0.28125,2.3125,1.34375,542
408,1696251998709,-0.66186523,-0.037902832,0.86151123,0.8125,3.234375,1.53125,543
409,1696251998749,-0.65844727,-0.034973145,0.8786011,3.234375,5.703125,1.484375,544
410,1696251998789,-0.63842773,-0.050109863,0.8722534,4.953125,7.34375,1.890625,545
411,1696251998829,-0.62890625,-0.057922363,0.8590698,4.65625,5.609375,1.828125,546
412,1696251998869,-0.63012695,-0.055725098,0.84246826,2.015625,3.015625,0.921875,547
413,1696251998909,-0.625,-0.05670166,0.86346436,1.984375,1.703125,-0.359375,548
414,1696251998949,-0.62231445,-0.06500244,0.8744507,1.625,1.6875,-0.6875,549
415,1696251998989,-0.611084,-0.06793213,0.87835693,1.328125,0.828125,-0.375,550
416,1696251999029,-0.61328125,-0.061584473,0.87127686,0.15625,-1.25,0.140625,551
417,1696251999069,-0.6213379,-0.054016113,0.86932373,-1.25,-1.109375,-0.34375,552
418,1696251999109,-0.6237793,-0.06427002,0.86395264,-0.84375,-0.625,-0.3125,553
419,1696251999149,-0.623291,-0.06011963,0.87249756,0.09375,-1.40625,-0.28125,554
420,1696251999189,-0.6135254,-0.054504395,0.8661499,-0.921875,-1.859375,-0.484375,555
421,1696251999229,-0.6254883,-0.057434082,0.8744507,-1.34375,-2.578125,-0.34375,556
422,1696251999269,-0.6242676,-0.046447754,0.8595581,-2.296875,-2.4375,-0.578125,557
423,1696251999309,-0.62939453,-0.046936035,0.8619995,-1.796875,-2.4375,-0.625,558
424,1696251999349,-0.6340332,-0.041809082,0.84906006,-3.328125,-2.921875,-0.78125,559
425,1696251999389,-0.63183594,-0.026428223,0.8641968,-1.1875,-1.859375,-0.984375,560
426,1696251999429,-0.6286621,-0.047668457,0.85931396,-1.140625,-2.25,-0.28125,561
427,1696251999469,-0.626709,-0.034729004,0.84417725,-0.90625,-2.09375,0.078125,562
428,1696251999509,-0.623291,-0.022521973,0.84832764,0.84375,-2.265625,0.125,563
429,1696251999549,-0.6437988,-0.027404785,0.80023193,5.734375,-6.78125,0.375,564
430,1696251999589,-0.63842773,-0.043518066,0.8187866,6.3125,-8.109375,0.78125,565
431,1696251999629,-0.640625,-0.081848145,0.8744507,0.234375,-2.484375,2.390625,566
432,1696251999669,-0.64697266,-0.06719971,0.84490967,-3.875,-3.09375,2.0,567
433,1696251999709,-0.6669922,-0.039367676,0.8395386,-4.421875,-2.125,-0.9375,568
434,1696251999749,-0.6699219,-0.028625488,0.84710693,-1.765625,-2.625,-2.25,569
435,1696251999789,-0.6669922,-0.03253174,0.8414917,-2.015625,-1.453125,-1.5,570
436,1696251999829,-0.65625,-0.03375244,0.8461304,-3.046875,0.265625,0.15625,571
437,1696251999869,-0.6503906,-0.04888916,0.8366089,-1.453125,0.96875,0.40625,572
438,1696251999909,-0.6530762,-0.05230713,0.84002686,0.921875,0.078125,0.84375,573
439,1696251999949,-0.66552734,-0.039367676,0.84417725,-0.90625,-0.078125,1.09375,574
440,1696251999989,-0.6713867,-0.01739502,0.8500366,-0.6875,1.53125,1.53125,575
441,1696252000029,-0.6711426,-0.018615723,0.83465576,0.328125,1.9375,0.859375,576
442,1696252000069,-0.6591797,-0.03277588,0.8444214,-0.359375,1.484375,-0.21875,577
443,1696252000109,-0.6594238,-0.047424316,0.84954834,-0.484375,1.234375,0.265625,578
444,1696252000149,-0.6442871,-0.031066895,0.84368896,-0.3125,1.125,0.75,579
445,1696252000189,-0.64624023,-0.027893066,0.85858154,0.40625,2.375,0.65625,580
446,1696252000229,-0.6501465,-0.034973145,0.871521,2.0625,3.34375,1.265625,581
447,1696252000269,-0.6516113,-0.053527832,0.8834839,5.265625,5.28125,1.9375,582
448,1696252000309,-0.6398926,-0.07476807,0.8786011,6.0625,7.25,2.671875,583
449,1696252000349,-0.6381836,-0.06011963,0.84832764,2.765625,5.828125,1.484375,584
450,1696252000389,-0.63183594,-0.039123535,0.85491943,1.6875,2.921875,0.109375,585
451,1696252000429,-0.6171875,-0.05303955,0.87054443,3.109375,2.65625,-0.78125,586
452,1696252000469,-0.5991211,-0.07965088,0.8595581,1.4375,0.90625,0.28125,587
453,1696252000509,-0.6081543,-0.07183838,0.89056396,1.671875,-0.03125,0.265625,588
454,1696252000549,-0.62060547,-0.07965088,0.8786011,-0.328125,-0.875,0.0625,589
455,1696252000589,-0.6245117,-0.061584473,0.87298584,-0.625,-1.0,-0.34375,590
456,1696252000629,-0.61572266,-0.053527832,0.85980225,-0.65625,-1.453125,-0.5,591
457,1696252000669,-0.6125488,-0.0491333,0.8644409,-0.78125,-1.546875,-0.484375,592
458,1696252000709,-0.6208496,-0.06402588,0.87176514,-0.375,-1.8125,0.078125,593
459,1696252000749,-0.61987305,-0.078186035,0.85980225,-2.03125,-2.28125,0.25,594
460,1696252000789,-0.61621094,-0.05718994,0.8600464,-1.75,-2.390625,-0.84375,595
461,1696252000829,-0.6308594,-0.051330566,0.8759155,-1.34375,-2.28125,-0.828125,596
462,1696252000869,-0.6245117,-0.059631348,0.86761475,-0.953125,-2.390625,-0.390625,597
463,1696252000909,-0.62231445,-0.055480957,0.8554077,-2.359375,-2.09375,-0.359375,598
464,1696252000949,-0.6245117,-0.0413208,0.8563843,-2.046875,-3.25,-0.265625,599
465,1696252000989,-0.6328125,-0.015686035,0.82196045,5.5,-3.28125,-0.078125,600
466,1696252001029,-0.6435547,-0.04840088,0.8024292,10.25,-9.953125,0.78125,601
467,1696252001069,-0.6455078,-0.066467285,0.8307495,4.640625,-8.359375,0.8125,602
468,1696252001109,-0.6369629,-0.07232666,0.88446045,-1.640625,-4.453125,3.109375,603
469,1696252001149,-0.62475586,-0.1104126,0.8432007,-2.828125,-1.53125,2.796875,604
470,1696252001189,-0.670166,-0.10235596,0.86590576,-1.125,-2.6875,-1.0625,605
471,1696252001229,-0.67456055,-0.066223145,0.83514404,-2.59375,-5.953125,-3.296875,606
472,1696252001269,-0.6628418,-0.03692627,0.81829834,-4.046875,-2.71875,-1.4375,607
473,1696252001309,-0.67333984,-0.038879395,0.8283081,-1.640625,0.5625,1.265625,608
474,1696252001349,-0.6616211,-0.073791504,0.83392334,-0.390625,0.421875,0.40625,609
475,1696252001389,-0.6647949,-0.089416504,0.8432007,-1.25,0.453125,-1.09375,610
476,1696252001429,-0.6489258,-0.061828613,0.8341675,-2.0625,0.671875,-0.25,611
477,1696252001469,-0.6647949,-0.022766113,0.82147217,-1.421875,0.53125,0.546875,612
478,1696252001509,-0.6789551,-0.030090332,0.85321045,-1.140625,3.015625,0.5625,613
479,1696252001549,-0.6635742,-0.06524658,0.8497925,-1.546875,5.078125,1.078125,614
480,1696252001589,-0.64501953,-0.070617676,0.8500366,0.609375,3.65625,2.015625,615
481,1696252001629,-0.6652832,-0.054504395,0.8595581,1.921875,2.96875,2.359375,616
482,1696252001669,-0.6455078,-0.06304932,0.86346436,1.5625,5.53125,1.484375,617
483,1696252001709,-0.6386719,-0.05303955,0.8847046,2.640625,9.1875,0.453125,618
484,1696252001749,-0.6328125,-0.05621338,0.8529663,0.921875,5.515625,0.828125,619
485,1696252001789,-0.626709,-0.062561035,0.8654175,2.703125,2.546875,0.53125,620
486,1696252001829,-0.6081543,-0.08013916,0.8695679,1.6875,1.375,-0.40625,621
487,1696252001869,-0.607666,-0.077941895,0.8781128,0.984375,-0.34375,-0.375,622
488,1696252001909,-0.6101074,-0.07720947,0.8588257,-0.28125,-0.21875,0.09375,623
489,1696252001949,-0.61816406,-0.06085205,0.8756714,0.15625,-0.09375,-0.21875,624
490,1696252001989,-0.6245117,-0.06304932,0.87786865,0.671875,-0.015625,-0.1875,625
491,1696252002029,-0.61694336,-0.070373535,0.8607788,-1.34375,-0.921875,-0.203125,626
492,1696252002069,-0.6166992,-0.06011963,0.8678589,-0.546875,-1.25,-0.671875,627
493,1696252002109,-0.62646484,-0.070129395,0.87176514,0.703125,-1.140625,-0.140625,628
494,1696252002149,-0.61035156,-0.074279785,0.86151123,-0.46875,-0.6875,-0.421875,629
495,1696252002189,-0.6118164,-0.06939697,0.86590576,-1.328125,-0.828125,-0.6875,630
496,1696252002229,-0.61816406,-0.05328369,0.87005615,-1.234375,-2.4375,-0.5,631
497,1696252002269,-0.6166992,-0.055236816,0.8637085,-2.40625,-3.046875,-0.421875,632
498,1696252002309,-0.6245117,-0.05718994,0.87005615,-2.53125,-3.25,-0.75,633
499,1696252002349,-0.6269531,-0.054992676,0.85076904,-1.625,-3.375,-0.109375,634
500,1696252002389,-0.62841797,-0.034484863,0.855896,0.609375,-2.515625,0.09375,635
501,1696252002429,-0.6320801,-0.0335083,0.79559326,7.296875,-7.640625,-0.1875,636
502,1696252002469,-0.6477051,-0.04156494,0.7987671,7.953125,-12.75,-0.140625,637
503,1696252002509,-0.6452637,-0.08355713,0.89764404,1.828125,-3.5,1.234375,638
504,1696252002549,-0.62597656,-0.09039307,0.8551636,-6.25,-2.0625,4.28125,639
505,1696252002589,-0.65966797,-0.10089111,0.8497925,-5.484375,-0.609375,0.765625,640
506,1696252002629,-0.6706543,-0.054260254,0.85369873,-2.234375,-3.1875,-2.953125,641
507,1696252002669,-0.66748047,-0.031799316,0.8341675,-2.640625,-2.875,-2.890625,642
508,1696252002709,-0.66674805,-0.042053223,0.83636475,-4.203125,-0.65625,0.28125,643
509,1696252002749,-0.66674805,-0.05230713,0.838562,-1.515625,0.875,0.40625,644
510,1696252002789,-0.6591797,-0.07354736,0.82977295,-1.515625,0.3125,0.0,645
511,1696252002829,-0.6652832,-0.0569458,0.8444214,-1.21875,0.140625,0.203125,646
512,1696252002869,-0.66186523,-0.024475098,0.83807373,-0.890625,1.171875,0.78125,647
513,1696252002909,-0.6694336,-0.026916504,0.8493042,-0.671875,1.9375,1.015625,648
514,1696252002949,-0.6660156,-0.044006348,0.8512573,-0.6875,2.375,0.671875,649
515,1696252002989,-0.64282227,-0.054504395,0.8463745,-1.1875,2.578125,0.78125,650
516,1696252003029,-0.6381836,-0.047912598,0.855896,0.671875,2.421875,0.5,651
517,1696252003069,-0.6496582,-0.050598145,0.87298584,2.125,3.609375,0.921875,652
518,1696252003109,-0.6489258,-0.055480957,0.8847046,4.390625,6.109375,1.71875,653
519,1696252003149,-0.64331055,-0.062561035,0.86395264,4.578125,6.875,2.25,654
520,1696252003189,-0.64331055,-0.06109619,0.854187,1.546875,3.234375,1.296875,655
521,1696252003229,-0.63427734,-0.05987549,0.8534546,1.515625,1.703125,-0.890625,656
522,1696252003269,-0.61621094,-0.06085205,0.8590698,0.546875,0.46875,-1.421875,657
523,1696252003309,-0.6113281,-0.058654785,0.86468506,1.1875,0.71875,-0.5,658
524,1696252003349,-0.6152344,-0.06304932,0.8727417,1.796875,0.921875,0.109375,659
525,1696252003389,-0.62597656,-0.07965088,0.87249756,-0.109375,0.71875,0.578125,660
526,1696252003429,-0.609375,-0.06719971,0.86932373,-0.890625,-0.40625,-0.234375,661
527,1696252003469,-0.61328125,-0.051330566,0.8720093,0.125,-1.625,-0.296875,662
528,1696252003509,-0.62402344,-0.058166504,0.8666382,-0.25,-1.59375,0.046875,663
529,1696252003549,-0.623291,-0.06304932,0.8695679,0.015625,-0.484375,-0.234375,664
530,1696252003589,-0.6159668,-0.06402588,0.8649292,0.484375,-0.890625,-0.078125,665
531,1696252003629,-0.6196289,-0.066223145,0.86834717,-1.078125,-2.15625,-0.375,666
532,1696252003669,-0.63305664,-0.06011963,0.86834717,-1.140625,-2.796875,-0.4375,667
533,1696252003709,-0.62475586,-0.05279541,0.86932373,-2.03125,-2.4375,-0.53125,668
534,1696252003749,-0.6311035,-0.05303955,0.85809326,-3.125,-3.390625,-0.71875,669
535,1696252003789,-0.62768555,-0.030090332,0.8463745,-1.796875,-2.765625,-0.53125,670
536,1696252003829,-0.6225586,-0.020080566,0.8341675,3.34375,-1.578125,0.265625,671
537,1696252003869,-0.640625,-0.04156494,0.78240967,8.546875,-13.203125,0.6875,672
538,1696252003909,-0.6203613,-0.043762207,0.8461304,2.625,-7.90625,-0.65625,673
539,1696252003949,-0.6501465,-0.07525635,0.8981323,-1.703125,-4.65625,3.40625,674
540,1696252003989,-0.6364746,-0.10601807,0.83929443,-5.453125,-0.890625,2.25,675
541,1696252004029,-0.67944336,-0.08331299,0.85687256,-3.71875,-2.078125,-1.75,676
542,1696252004069,-0.67529297,-0.032043457,0.8434448,-2.75,-3.078125,-3.203125,677
543,1696252004109,-0.6647949,-0.02154541,0.83343506,-4.0625,-0.515625,-0.4375,678
544,1696252004149,-0.6682129,-0.04498291,0.83148193,-2.734375,1.734375,1.4375,679
545,1696252004189,-0.65600586,-0.07598877,0.8410034,1.546875,4.296875,0.953125,680
546,1696252004229,-0.65283203,-0.070129395,0.8554077,-2.6875,2.625,1.28125,681
547,1696252004269,-0.64086914,-0.031311035,0.8488159,-1.84375,1.953125,1.984375,682
548,1696252004309,-0.64990234,-0.016174316,0.84539795,-0.6875,2.578125,1.34375,683
549,1696252004349,-0.65478516,-0.051818848,0.8595581,0.65625,3.40625,1.578125,684
550,1696252004389,-0.65527344,-0.054504395,0.8546753,1.171875,2.34375,0.96875,685
551,1696252004429,-0.6437988,-0.04522705,0.8446655,0.34375,1.265625,0.390625,686
552,1696252004469,-0.6335449,-0.05279541,0.86224365,1.4375,1.4375,0.328125,687
553,1696252004509,-0.6398926,-0.051818848,0.8685913,1.21875,1.796875,0.890625,688
554,1696252004549,-0.6347656,-0.054992676,0.87786865,2.53125,2.859375,0.859375,689
555,1696252004589,-0.6303711,-0.0647583,0.88494873,3.015625,4.5,0.671875,690
556,1696252004629,-0.6320801,-0.06817627,0.8703003,4.203125,5.375,0.453125,691
557,1696252004669,-0.6052246,-0.08111572,0.8451538,1.671875,2.171875,0.171875,692
558,1696252004709,-0.6184082,-0.05987549,0.86224365,0.625,-0.59375,-0.703125,693
559,1696252004749,-0.6201172,-0.058166504,0.8920288,3.0,0.8125,-0.25,694
560,1696252004789,-0.6201172,-0.093811035,0.86151123,-1.4375,-1.484375,-0.0625,695
561,1696252004829,-0.6032715,-0.046691895,0.8759155,-0.078125,-0.9375,-1.921875,696
562,1696252004869,-0.6022949,-0.055236816,0.87420654,-0.96875,-1.859375,-1.609375,697
563,1696252004909,-0.6191406,-0.07330322,0.8629761,-0.984375,-3.03125,0.28125,698
564,1696252004949,-0.62109375,-0.061828613,0.85443115,-1.890625,-1.921875,0.921875,699
565,1696252004989,-0.6359863,-0.055480957,0.86102295,-1.421875,-2.34375,0.046875,700
566,1696252005029,-0.62841797,-0.04864502,0.8583374,1.109375,-1.015625,-1.140625,701
567,1696252005069,-0.64086914,-0.053771973,0.86517334,1.140625,-1.21875,-0.625,702
568,1696252005109,-0.62890625,-0.066223145,0.8641968,-1.96875,-1.984375,-0.40625,703
569,1696252005149,-0.62597656,-0.038879395,0.86395264,-2.1875,-2.0,-0.40625,704
570,1696252005189,-0.63061523,-0.05718994,0.86346436,-0.6875,-1.265625,0.015625,705
571,1696252005229,-0.6208496,-0.04034424,0.8539429,-0.046875,-2.046875,0.21875,706
572,1696252005269,-0.60961914,-0.03326416,0.8180542,0.859375,-0.6875,0.4375,707
573,1696252005309,-0.64990234,-0.026428223,0.7789917,1.59375,-13.734375,0.5625,708
574,1696252005349,-0.6542969,-0.06329346,0.8944702,4.765625,-4.5,-1.09375,709
575,1696252005389,-0.65893555,-0.08428955,0.883728,-1.59375,-6.421875,2.515625,710
576,1696252005429,-0.64819336,-0.06768799,0.84490967,-6.5625,0.40625,1.625,711
577,1696252005469,-0.670166,-0.039123535,0.86102295,-2.78125,-2.71875,-0.765625,712
578,1696252005509,-0.6647949,-0.04498291,0.83636475,-0.9375,-2.734375,-1.359375,713
579,1696252005549,-0.6633301,-0.04522705,0.8612671,-3.09375,1.09375,0.109375,714
580,1696252005589,-0.6586914,-0.051574707,0.85443115,-3.8125,0.828125,0.921875,715
581,1696252005629,-0.6467285,-0.045715332,0.8361206,-0.328125,1.671875,-0.515625,716
582,1696252005669,-0.65649414,-0.03692627,0.8578491,-2.0,0.90625,0.03125,717
583,1696252005709,-0.66137695,-0.028625488,0.8488159,-2.390625,1.703125,1.140625,718
584,1696252005749,-0.6530762,-0.026672363,0.84710693,-0.546875,2.328125,0.96875,719
585,1696252005789,-0.63623047,-0.03692627,0.8500366,-0.8125,1.859375,0.453125,720
586,1696252005829,-0.6520996,-0.038391113,0.8666382,0.390625,1.328125,-0.078125,721
587,1696252005869,-0.65185547,-0.046203613,0.86712646,1.484375,2.515625,0.109375,722
588,1696252005909,-0.64086914,-0.04083252,0.8739624,4.046875,3.546875,0.703125,723
589,1696252005949,-0.640625,-0.04156494,0.8764038,6.28125,5.953125,1.046875,724
590,1696252005989,-0.6364746,-0.04888916,0.86834717,6.328125,5.75,1.375,725
591,1696252006029,-0.63500977,-0.06890869,0.8551636,5.75,3.859375,1.5625,726
592,1696252006069,-0.6159668,-0.07183838,0.86761475,4.921875,4.078125,0.5,727
593,1696252006109,-0.5979004,-0.08526611,0.8673706,3.234375,1.453125,0.546875,728
594,1696252006149,-0.60839844,-0.074035645,0.868103,1.953125,-0.078125,0.296875,729
595,1696252006189,-0.6105957,-0.06378174,0.88397217,2.4375,0.640625,-0.015625,730
596,1696252006229,-0.60180664,-0.07354736,0.86053467,-0.09375,-0.453125,-0.375,731
597,1696252006269,-0.6081543,-0.0725708,0.8703003,-0.1875,-0.609375,-0.078125,732
598,1696252006309,-0.6147461,-0.07867432,0.8768921,-0.28125,-0.9375,0.234375,733
599,1696252006349,-0.60791016,-0.07696533,0.8649292,-1.1875,-1.34375,-0.421875,734
600,1696252006389,-0.61328125,-0.069885254,0.88568115,0.671875,-0.59375,-0.328125,735
601,1696252006429,-0.6179199,-0.078430176,0.87713623,-0.03125,-1.78125,-0.28125,736
602,1696252006469,-0.6032715,-0.0725708,0.8590698,-1.265625,-1.390625,-0.25,737
603,1696252006509,-0.6081543,-0.06378174,0.8734741,-0.8125,-1.28125,-0.1875,738
604,1696252006549,-0.61206055,-0.06378174,0.8695679,-1.125,-2.0625,-0.421875,739
605,1696252006589,-0.6135254,-0.06549072,0.8673706,-2.4375,-2.375,-0.375,740
606,1696252006629,-0.6225586,-0.0635376,0.8666382,-2.359375,-3.21875,-0.53125,741
607,1696252006669,-0.6147461,-0.059143066,0.8632202,-1.453125,-2.890625,-0.640625,742
608,1696252006709,-0.61450195,-0.04058838,0.82562256,-2.078125,-3.40625,0.09375,743
609,1696252006749,-0.6484375,-0.024719238,0.7880249,7.71875,-6.765625,-0.546875,744
610,1696252006789,-0.6269531,-0.06011963,0.85272217,9.484375,-4.90625,1.15625,745
611,1696252006829,-0.60791016,-0.11602783,0.90179443,-0.703125,-4.34375,4.125,746
612,1696252006869,-0.62109375,-0.09429932,0.838562,-6.734375,-5.40625,2.390625,747
613,1696252006909,-0.6882324,-0.07305908,0.8612671,-4.0,-5.0,-1.8125,748
614,1696252006949,-0.6738281,-0.046936035,0.8629761,-2.40625,-4.390625,-4.0,749
615,1696252006989,-0.64624023,-0.04547119,0.8390503,-4.71875,-0.84375,-1.34375,750
616,1696252007029,-0.6669922,-0.047180176,0.84490967,-2.84375,0.0,1.109375,751
617,1696252007069,-0.6530762,-0.0791626,0.8222046,-1.203125,1.25,0.59375,752
618,1696252007109,-0.6411133,-0.07745361,0.85076904,-1.078125,0.984375,-0.328125,753
619,1696252007149,-0.6542969,-0.058410645,0.855896,-2.953125,0.5625,0.375,754
620,1696252007189,-0.6694336,-0.026916504,0.85321045,-2.390625,1.953125,1.125,755
621,1696252007229,-0.6633301,-0.031555176,0.85028076,-1.375,3.0,0.96875,756
622,1696252007269,-0.64575195,-0.04864502,0.8602905,-1.21875,3.171875,0.75,757
623,1696252007309,-0.6374512,-0.059387207,0.85369873,-0.75,2.46875,1.125,758
624,1696252007349,-0.6357422,-0.046936035,0.85443115,0.421875,2.484375,1.296875,759
625,1696252007389,-0.6418457,-0.051574707,0.8739624,3.0625,2.8125,1.140625,760
626,1696252007429,-0.6413574,-0.057434082,0.8776245,3.125,4.078125,0.984375,761
627,1696252007469,-0.6376953,-0.054504395,0.87005615,1.453125,3.390625,-0.296875,762
628,1696252007509,-0.62353516,-0.059387207,0.85565186,1.4375,3.046875,-0.875,763
629,1696252007549,-0.59887695,-0.058166504,0.8649292,2.671875,2.625,-1.1875,764
630,1696252007589,-0.60424805,-0.065979004,0.8822632,1.40625,1.1875,-0.34375,765
631,1696252007629,-0.60913086,-0.0713501,0.8746948,1.3125,-0.140625,0.328125,766
632,1696252007669,-0.61694336,-0.07525635,0.8656616,0.234375,0.078125,0.5,767
633,1696252007709,-0.62158203,-0.06744385,0.87908936,0.453125,-0.671875,0.109375,768
634,1696252007749,-0.62524414,-0.06085205,0.8805542,1.015625,-0.796875,-0.21875,769
635,1696252007789,-0.62280273,-0.053527832,0.85321045,-1.140625,-1.203125,-0.765625,770
636,1696252007829,-0.61450195,-0.05206299,0.85980225,1.640625,-0.125,-0.75,771
637,1696252007869,-0.6047363,-0.062316895,0.86468506,0.34375,-0.265625,-0.09375,772
638,1696252007909,-0.6154785,-0.078186035,0.88201904,-0.453125,-1.40625,-0.296875,773
639,1696252007949,-0.6213379,-0.066223145,0.87664795,-1.984375,-2.9375,-0.46875,774
640,1696252007989,-0.61499023,-0.054992676,0.8805542,-1.328125,-2.8125,-0.75,775
641,1696252008029,-0.6237793,-0.047180176,0.85931396,-2.046875,-2.609375,-0.625,776
642,1696252008069,-0.6220703,-0.04864502,0.86883545,-1.796875,-2.015625,-0.34375,777
643,1696252008109,-0.62475586,-0.06549072,0.8546753,-2.0625,-1.96875,0.203125,778
644,1696252008149,-0.6213379,-0.023498535,0.8510132,-1.046875,-2.484375,-0.34375,779
645,1696252008189,-0.63623047,-0.028869629,0.83343506,3.765625,-1.5,0.25,780
646,1696252008229,-0.6369629,-0.029846191,0.78240967,13.03125,-12.203125,0.0625,781
647,1696252008269,-0.6101074,-0.07550049,0.85443115,4.921875,-7.578125,0.90625,782
648,1696252008309,-0.6394043,-0.070373535,0.90423584,-3.1875,-5.53125,3.875,783
649,1696252008349,-0.65600586,-0.11212158,0.81414795,-4.953125,-5.28125,3.140625,784
650,1696252008389,-0.7038574,-0.09820557,0.85565186,-2.875,-2.4375,-2.4375,785
651,1696252008429,-0.6767578,-0.038879395,0.84906006,-3.875,-4.0,-3.859375,786
652,1696252008469,-0.65722656,-0.018615723,0.8278198,-5.546875,-1.15625,-1.578125,787
653,1696252008509,-0.68237305,-0.046203613,0.84002686,-1.328125,0.5,1.875,788
654,1696252008549,-0.670166,-0.07623291,0.84710693,-1.1875,3.0,0.515625,789
655,1696252008589,-0.6489258,-0.08258057,0.84246826,-3.125,1.34375,-0.875,790
656,1696252008629,-0.6513672,-0.038146973,0.83148193,-3.0,-0.5625,0.203125,791
657,1696252008669,-0.66748047,0.001159668,0.8432007,-0.890625,1.921875,0.890625,792
658,1696252008709,-0.6772461,-0.028869629,0.8644409,0.140625,4.828125,1.46875,793
659,1696252008749,-0.6520996,-0.058410645,0.85198975,0.671875,4.15625,1.703125,794
660,1696252008789,-0.63623047,-0.051330566,0.85028076,0.15625,2.453125,1.046875,795
661,1696252008829,-0.64038086,-0.04473877,0.8612671,3.46875,3.890625,1.015625,796
662,1696252008869,-0.64941406,-0.06915283,0.87249756,5.453125,5.734375,2.21875,797
663,1696252008909,-0.6479492,-0.07623291,0.8685913,4.03125,5.6875,1.9375,798
664,1696252008949,-0.6459961,-0.059387207,0.854187,2.15625,4.234375,0.390625,799
665,1696252008989,-0.62719727,-0.047424316,0.854187,1.984375,2.671875,-0.75,800
666,1696252009029,-0.59594727,-0.04815674,0.8727417,4.484375,2.796875,-0.9375,801
667,1696252009069,-0.5854492,-0.07623291,0.8656616,1.953125,1.0625,0.09375,802
668,1696252009109,-0.60424805,-0.08892822,0.88983154,1.359375,-0.15625,0.75,803
669,1696252009149,-0.6140137,-0.09967041,0.8668823,-1.109375,-1.390625,0.734375,804
670,1696252009189,-0.62524414,-0.066223145,0.8720093,-1.890625,-1.859375,-0.3125,805
671,1696252009229,-0.61816406,-0.053527832,0.8678589,-0.9375,-1.84375,-0.828125,806
672,1696252009269,-0.61743164,-0.058410645,0.8588257,-0.71875,-1.5,-0.625,807
673,1696252009309,-0.6179199,-0.06768799,0.87127686,0.21875,-1.078125,-0.03125,808
674,1696252009349,-0.61206055,-0.07501221,0.84832764,-1.859375,-1.90625,-0.53125,809
675,1696252009389,-0.62231445,-0.06695557,0.8773804,-1.09375,-1.90625,-0.71875,810
676,1696252009429,-0.6394043,-0.06915283,0.86883545,-0.90625,-2.375,-0.078125,811
677,1696252009469,-0.6166992,-0.06768799,0.8619995,-2.109375,-1.359375,-0.296875,812
678,1696252009509,-0.6230469,-0.050842285,0.8690796,-2.578125,-2.34375,-0.53125,813
679,1696252009549,-0.623291,-0.042053223,0.855896,-1.5,-2.96875,-0.359375,814
680,1696252009589,-0.6220703,-0.044006348,0.85028076,0.765625,-1.15625,-0.03125,815
681,1696252009629,-0.625,-0.05230713,0.8444214,5.359375,1.46875,1.09375,816
682,1696252009669,-0.61206055,-0.0335083,0.78900146,12.796875,-0.671875,1.890625,817
683,1696252009709,-0.6281738,-0.10772705,0.8427124,8.953125,-9.65625,2.796875,818
684,1696252009749,-0.6269531,-0.10308838,0.8859253,-3.6875,-9.984375,0.84375,819
685,1696252009789,-0.65405273,-0.10015869,0.86761475,-4.515625,-4.421875,0.875,820
686,1696252009829,-0.6665039,-0.0881958,0.8407593,-5.890625,-2.359375,-0.984375,821
687,1696252009869,-0.67333984,-0.054504395,0.857605,-3.515625,-3.828125,-2.578125,822
688,1696252009909,-0.6479492,-0.050354004,0.8239136,-4.6875,-1.046875,-1.09375,823
689,1696252009949,-0.64990234,-0.065979004,0.8444214,-2.640625,1.859375,1.0625,824
690,1696252009989,-0.6459961,-0.09283447,0.8588257,-0.734375,1.84375,0.984375,825
691,1696252010029,-0.638916,-0.09088135,0.8617554,-0.78125,1.921875,-0.5,826
692,1696252010069,-0.65527344,-0.06402588,0.8632202,-0.171875,1.765625,1.5,827
693,1696252010109,-0.66186523,-0.034484863,0.83758545,1.03125,2.875,3.234375,828
694,1696252010149,-0.6503906,-0.035461426,0.8497925,3.671875,5.421875,2.171875,829
695,1696252010189,-0.6452637,-0.08868408,0.8654175,2.015625,4.859375,1.578125,830
696,1696252010229,-0.61816406,-0.09918213,0.86883545,-0.140625,4.703125,0.90625,831
697,1696252010269,-0.6262207,-0.08746338,0.87005615,0.234375,4.5625,0.828125,832
698,1696252010309,-0.6328125,-0.08331299,0.88275146,2.65625,4.59375,0.703125,833
699,1696252010349,-0.6291504,-0.082336426,0.8739624,2.484375,3.9375,0.15625,834
700,1696252010389,-0.6125488,-0.077697754,0.87249756,1.203125,2.21875,-0.4375,835
701,1696252010429,-0.6015625,-0.07281494,0.87371826,0.609375,-0.03125,-0.75,836
702,1696252010469,-0.5925293,-0.07940674,0.86932373,0.390625,-0.265625,-0.484375,837
703,1696252010509,-0.5996094,-0.08331299,0.8786011,0.3125,-0.109375,-0.125,838
704,1696252010549,-0.6062012,-0.09112549,0.8722534,-0.796875,-0.703125,0.03125,839
705,1696252010589,-0.60668945,-0.07281494,0.88153076,-0.09375,-0.671875,-0.53125,840
706,1696252010629,-0.6191406,-0.09259033,0.87957764,-0.671875,-2.15625,-0.421875,841
707,1696252010669,-0.6088867,-0.085510254,0.8734741,-0.453125,-1.234375,-0.46875,842
708,1696252010709,-0.6062012,-0.07330322,0.8632202,-1.5625,-1.359375,-0.765625,843
709,1696252010749,-0.6142578,-0.059631348,0.86224365,-1.578125,-2.484375,-0.578125,844
710,1696252010789,-0.61572266,-0.06451416,0.87664795,-1.078125,-2.0,-0.328125,845
711,1696252010829,-0.61938477,-0.07354736,0.8722534,-1.53125,-1.875,-0.546875,846
712,1696252010869,-0.6176758,-0.07183838,0.86102295,-1.8125,-3.0,-0.34375,847
713,1696252010909,-0.61279297,-0.059631348,0.8690796,-1.484375,-2.78125,-0.578125,848
714,1696252010949,-0.6154785,-0.053527832,0.85736084,-0.59375,-2.25,0.25,849
715,1696252010989,-0.61865234,-0.047912598,0.795105,3.71875,-4.5,0.640625,850
716,1696252011029,-0.640625,-0.06744385,0.8197632,5.78125,-13.109375,0.5625,851
717,1696252011069,-0.6176758,-0.081604004,0.8793335,0.21875,-3.421875,0.0625,852
718,1696252011109,-0.6386719,-0.093322754,0.86468506,-3.53125,-2.921875,3.671875,853
719,1696252011149,-0.64868164,-0.08868408,0.8378296,-6.1875,-1.03125,1.09375,854
720,1696252011189,-0.6665039,-0.06817627,0.85321045,-1.25,-2.515625,-2.734375,855
721,1696252011229,-0.65722656,-0.047668457,0.84539795,-1.421875,-3.390625,-2.234375,856
722,1696252011269,-0.657959,-0.05328369,0.8566284,-3.375,0.375,-0.21875,857
723,1696252011309,-0.64282227,-0.06915283,0.83929443,-1.71875,1.015625,0.78125,858
724,1696252011349,-0.63549805,-0.06573486,0.8475952,-0.015625,1.109375,0.484375,859
725,1696252011389,-0.6591797,-0.06427002,0.8644409,0.421875,0.234375,0.953125,860
726,1696252011429,-0.657959,-0.049865723,0.85614014,0.546875,2.15625,1.578125,861
727,1696252011469,-0.6489258,-0.05206299,0.83807373,0.9375,3.09375,1.9375,862
728,1696252011509,-0.6467285,-0.0635376,0.85198975,0.28125,2.640625,0.8125,863
729,1696252011549,-0.6459961,-0.07281494,0.86346436,0.484375,3.25,0.9375,864
730,1696252011589,-0.63623047,-0.074035645,0.8739624,1.703125,4.8125,0.90625,865
731,1696252011629,-0.623291,-0.077697754,0.8895874,0.96875,5.75,0.6875,866
732,1696252011669,-0.6237793,-0.07183838,0.87615967,1.171875,4.078125,0.9375,867
733,1696252011709,-0.6176758,-0.06768799,0.8624878,0.4375,1.453125,0.3125,868
734,1696252011749,-0.6225586,-0.07354736,0.8756714,1.8125,1.875,-0.328125,869
735,1696252011789,-0.60913086,-0.08111572,0.86224365,-0.015625,-0.0625,-0.703125,870
736,1696252011829,-0.5986328,-0.06427002,0.87420654,0.125,-0.046875,-0.796875,871
737,1696252011869,-0.6188965,-0.07574463,0.8720093,1.15625,-0.375,0.109375,872
738,1696252011909,-0.60913086,-0.082092285,0.8720093,0.546875,0.8125,0.015625,873
739,1696252011949,-0.60498047,-0.070129395,0.871521,0.28125,0.265625,-0.140625,874
740,1696252011989,-0.6081543,-0.06378174,0.87298584,0.65625,-0.859375,-0.1875,875
741,1696252012029,-0.6098633,-0.06817627,0.87713623,0.828125,-0.28125,0.078125,876
742,1696252012069,-0.60791016,-0.07281494,0.88616943,3.015625,1.546875,0.140625,877
743,1696252012109,-0.59643555,-0.09307861,0.8600464,0.96875,-0.0625,0.796875,878
744,1696252012149,-0.6003418,-0.07305908,0.87713623,0.421875,-1.375,0.375,879
745,1696252012189,-0.6147461,-0.07598877,0.8773804,-0.578125,-1.734375,-0.109375,880
746,1696252012229,-0.6166992,-0.06524658,0.8632202,-1.1875,-2.546875,-0.265625,881
747,1696252012269,-0.6147461,-0.06939697,0.8624878,-0.25,-1.703125,-0.125,882
748,1696252012309,-0.6166992,-0.050598145,0.8529663,1.46875,-1.25,0.234375,883
749,1696252012349,-0.64990234,-0.062316895,0.7850952,13.953125,-12.46875,0.578125,884
750,1696252012389,-0.62402344,-0.12994385,0.8317261,3.59375,-14.265625,-0.640625,885
751,1696252012429,-0.5991211,-0.04034424,0.9203491,-3.5,-9.609375,-1.015625,886
752,1696252012469,-0.6159668,-0.09429932,0.8241577,-4.265625,-0.3125,5.25,887
753,1696252012509,-0.671875,-0.159729,0.87908936,-1.984375,1.140625,1.0625,888
754,1696252012549,-0.66308594,-0.10699463,0.85443115,-2.03125,-1.53125,-2.59375,889
755,1696252012589,-0.64624023,-0.070373535,0.82733154,-4.484375,0.265625,-1.28125,890
756,1696252012629,-0.66015625,-0.065979004,0.82977295,-3.328125,-0.078125,0.8125,891
757,1696252012669,-0.66064453,-0.06817627,0.8497925,-0.640625,1.59375,0.109375,892
758,1696252012709,-0.64941406,-0.09283447,0.8624878,-2.84375,2.046875,-0.890625,893
759,1696252012749,-0.6340332,-0.081604004,0.8493042,-2.921875,-0.109375,-0.59375,894
