# Sensor type: Respeck
# Activity type: Lying down right
# Activity subtype: Singing
# Subject id: s2106809
# Notes: unprocessed
timestamp,accel_x,accel_y,accel_z,gyro_x,gyro_y,gyro_z
1696253379894,0.71240234,-0.023742676,0.72161865,-0.953125,-1.25,0.5625
1696253379935,0.71240234,-0.037902832,0.7230835,2.671875,1.890625,1.0625
1696253379997,0.7163086,-0.05718994,0.69281006,2.28125,3.40625,1.609375
1696253380035,0.71533203,-0.04034424,0.69573975,2.5625,1.390625,0.953125
1696253380055,0.7224121,-0.05279541,0.72943115,1.3125,-1.921875,0.125
1696253380116,0.7368164,-0.062805176,0.7243042,-2.359375,-1.34375,0.640625
1696253380136,0.71655273,-0.054748535,0.71698,-3.390625,-0.625,1.234375
1696253380176,0.71533203,-0.03668213,0.7262573,-1.03125,-0.828125,-0.234375
1696253380236,0.7229004,-0.038635254,0.7279663,1.484375,0.484375,-0.109375
1696253380255,0.7116699,-0.03643799,0.7201538,0.671875,0.125,-0.03125
1696253380316,0.7163086,-0.047424316,0.71917725,0.203125,0.703125,0.625
1696253380336,0.7180176,-0.04083252,0.7189331,-1.8125,-1.203125,0.3125
1696253380376,0.72143555,-0.03717041,0.7313843,-1.28125,-0.28125,0.5625
1696253380416,0.72631836,-0.04840088,0.72210693,-0.4375,-0.453125,1.546875
1696253380479,0.7199707,-0.046936035,0.7057495,-0.4375,1.46875,1.34375
1696253380495,0.73657227,-0.042297363,0.71087646,0.84375,2.125,0.59375
1696253380560,0.73657227,-0.031311035,0.7106323,-0.296875,0.78125,-0.515625
1696253380577,0.72216797,-0.037902832,0.7172241,-0.21875,1.625,0.890625
1696253380596,0.7233887,-0.039611816,0.70965576,-1.09375,1.09375,1.21875
1696253380637,0.71533203,-0.046691895,0.7050171,-1.015625,-0.75,0.328125
1696253380678,0.7248535,-0.040100098,0.7189331,0.75,-1.203125,-0.25
1696253380717,0.7380371,-0.035217285,0.70428467,0.859375,-2.203125,-0.21875
1696253380756,0.7338867,-0.03277588,0.711853,-0.140625,-1.84375,0.015625
1696253380796,0.71972656,-0.039367676,0.7067261,0.15625,-0.34375,0.453125
1696253380837,0.7258301,-0.04449463,0.7164917,0.328125,-0.875,0.015625
1696253380879,0.73046875,-0.042785645,0.71551514,0.46875,-0.890625,-0.359375
1696253380916,0.73046875,-0.03375244,0.7218628,-0.03125,-1.015625,-0.09375
1696253380956,0.7285156,-0.04107666,0.711853,0.15625,-0.84375,0.34375
1696253380997,0.71850586,-0.051330566,0.6889038,-1.578125,-1.546875,0.265625
1696253381037,0.7207031,-0.0154418945,0.7157593,-2.203125,-1.328125,-1.09375
1696253381077,0.7233887,-0.046203613,0.73553467,1.875,-0.046875,-0.234375
1696253381117,0.7307129,-0.053527832,0.7235718,1.21875,-2.15625,0.046875
1696253381156,0.7290039,-0.031555176,0.7177124,-1.203125,-1.28125,-0.453125
1696253381196,0.71899414,-0.04156494,0.71673584,-0.921875,-0.328125,0.234375
1696253381238,0.72265625,-0.051086426,0.72406006,0.78125,0.8125,0.59375
1696253381276,0.72436523,-0.04840088,0.7177124,0.90625,0.328125,0.28125
1696253381317,0.72802734,-0.032043457,0.7250366,1.296875,1.203125,0.265625
1696253381357,0.7060547,-0.04547119,0.71209717,1.078125,2.09375,1.515625
1696253381397,0.74560547,-0.047912598,0.71258545,1.890625,2.09375,1.71875
1696253381437,0.7385254,-0.043273926,0.71746826,2.859375,2.171875,0.390625
1696253381476,0.7314453,-0.050598145,0.69866943,-1.875,0.96875,0.703125
1696253381516,0.73657227,-0.050598145,0.6989136,-0.546875,2.890625,1.265625
1696253381557,0.73950195,-0.046936035,0.6976929,0.40625,1.921875,0.3125
1696253381596,0.74560547,-0.035705566,0.697937,0.453125,0.859375,0.140625
1696253381636,0.7453613,-0.046691895,0.68304443,0.21875,0.65625,0.796875
1696253381677,0.74121094,-0.038391113,0.696228,1.125,1.25,0.859375
1696253381718,0.74316406,-0.04034424,0.68914795,0.953125,1.15625,0.875
1696253381756,0.75561523,-0.037902832,0.6898804,0.234375,1.015625,1.0
1696253381799,0.7390137,-0.038391113,0.6798706,-1.921875,0.390625,1.578125
1696253381836,0.75,-0.040100098,0.68914795,0.625,1.359375,0.4375
1696253381877,0.73828125,-0.051330566,0.6901245,-0.078125,0.296875,-0.15625
1696253381897,0.7438965,-0.047180176,0.6901245,0.375,-0.640625,0.03125
1696253381937,0.7429199,-0.042297363,0.67840576,-1.453125,-1.53125,0.15625
1696253381977,0.75097656,-0.027648926,0.6925659,-1.203125,-0.9375,-0.3125
1696253382016,0.7512207,-0.042297363,0.6869507,-1.046875,-1.3125,0.15625
1696253382056,0.7426758,-0.035705566,0.69403076,0.265625,-1.40625,0.09375
1696253382098,0.74560547,-0.042297363,0.69989014,2.109375,0.421875,-0.109375
1696253382136,0.78149414,-0.061828613,0.7201538,2.375,1.25,0.46875
1696253382197,0.7536621,-0.054748535,0.70355225,-0.40625,-2.53125,0.140625
1696253382236,0.7272949,-0.035217285,0.6732788,-1.265625,-5.5,-1.09375
1696253382277,0.7336426,-0.019348145,0.69866943,-1.671875,-3.796875,-1.515625
1696253382297,0.7272949,-0.023010254,0.70428467,-1.078125,-1.15625,0.234375
1696253382358,0.74194336,-0.045959473,0.7001343,0.203125,-1.703125,0.78125
1696253382396,0.73706055,-0.041809082,0.6659546,-2.375,-3.75,0.78125
1696253382415,0.732666,-0.019592285,0.68792725,-3.625,-2.296875,1.125
1696253382456,0.7128906,-0.024230957,0.684021,1.375,2.515625,3.90625
1696253382495,0.72631836,-0.035461426,0.68011475,-1.15625,1.1875,2.03125
1696253382537,0.7446289,-0.023742676,0.7074585,2.21875,-0.375,-0.640625
1696253382580,0.7668457,-0.05255127,0.69818115,1.25,-0.640625,0.578125
1696253382616,0.7578125,-0.022521973,0.71868896,0.546875,-1.5,0.375
1696253382659,0.72802734,-0.03253174,0.7123413,-1.34375,-3.921875,-0.03125
1696253382719,0.7314453,-0.035217285,0.7111206,-1.703125,-1.65625,0.078125
1696253382740,0.7307129,-0.034729004,0.7196655,0.875,-0.1875,-0.375
1696253382776,0.7265625,-0.03253174,0.7189331,1.9375,0.34375,-0.453125
1696253382817,0.7163086,-0.0256958,0.7106323,-0.484375,-1.625,0.015625
1696253382856,0.7182617,-0.01373291,0.70843506,-1.578125,-1.609375,0.28125
1696253382918,0.7219238,-0.026184082,0.7116089,-1.296875,-0.8125,0.828125
1696253382936,0.732666,-0.04473877,0.72283936,1.0625,-0.03125,0.625
1696253382977,0.7294922,-0.046447754,0.701355,-0.265625,-0.09375,0.53125
1696253383036,0.74438477,-0.022766113,0.7015991,0.515625,1.15625,0.375
1696253383076,0.7446289,-0.03326416,0.697937,0.46875,1.0,1.421875
1696253383095,0.7409668,-0.028381348,0.70355225,1.46875,0.796875,0.296875
1696253383137,0.7441406,-0.035705566,0.70062256,-0.84375,-0.953125,0.03125
1696253383198,0.7324219,-0.027160645,0.70648193,-0.21875,-0.25,0.03125
1696253383201,0.7355957,-0.034729004,0.7055054,-0.75,-0.78125,-0.046875
1696253383237,0.7277832,-0.0335083,0.7057495,-1.28125,-1.03125,-0.078125
1696253383277,0.73413086,-0.0335083,0.713562,-0.46875,-0.34375,-0.078125
1696253383319,0.7282715,-0.039855957,0.7177124,-0.859375,-0.4375,0.1875
1696253383359,0.7355957,-0.03302002,0.7128296,0.609375,0.875,0.296875
1696253383398,0.7429199,-0.034240723,0.69281006,-0.71875,0.09375,0.203125
1696253383437,0.7363281,-0.02178955,0.69525146,-0.71875,-0.1875,1.328125
1696253383476,0.7453613,-0.015686035,0.7086792,-2.140625,-1.390625,2.265625
1696253383517,0.7258301,-0.024719238,0.7025757,-1.828125,-1.546875,0.90625
1696253383557,0.7199707,-0.027648926,0.7086792,-0.46875,-2.078125,-0.375
1696253383598,0.73168945,-0.026428223,0.7111206,1.28125,-1.421875,-0.3125
1696253383637,0.73583984,-0.02545166,0.7067261,0.859375,-0.953125,0.109375
1696253383678,0.7314453,-0.02130127,0.70892334,-0.625,-1.078125,-0.140625
1696253383719,0.7331543,-0.016906738,0.71258545,1.3125,0.40625,-0.0625
1696253383758,0.7390137,-0.028381348,0.7133179,0.9375,2.875,0.890625
1696253383797,0.73950195,-0.030334473,0.6893921,0.15625,3.34375,1.171875
1696253383837,0.73168945,-0.020568848,0.70355225,-0.546875,1.203125,1.046875
1696253383876,0.7294922,-0.03326416,0.7057495,1.171875,0.53125,0.5625
1696253383918,0.732666,-0.027404785,0.69329834,0.765625,0.96875,0.375
1696253383957,0.73950195,-0.023742676,0.6852417,-1.046875,-0.203125,0.28125
1696253383997,0.74658203,-0.015930176,0.6881714,-0.515625,0.09375,-0.265625
1696253384038,0.7463379,-0.024719238,0.6911011,-0.5,0.8125,0.171875
1696253384077,0.7524414,-0.02520752,0.6930542,-0.703125,0.328125,0.328125
1696253384119,0.7438965,-0.024475098,0.701355,-0.46875,-0.46875,0.21875
1696253384157,0.7375488,-0.022521973,0.69744873,-0.078125,-1.703125,0.046875
1696253384198,0.7351074,-0.020080566,0.69647217,1.28125,-1.0625,0.09375
1696253384238,0.7495117,-0.026428223,0.70526123,0.65625,-0.625,0.265625
1696253384275,0.7441406,-0.03253174,0.69818115,0.96875,-0.25,0.328125
1696253384317,0.7458496,-0.02178955,0.6930542,0.203125,-0.953125,-0.28125
1696253384356,0.75024414,-0.022033691,0.69573975,0.546875,-0.5625,0.0625
1696253384399,0.7507324,-0.028869629,0.70111084,1.625,0.53125,0.4375
1696253384442,0.75097656,-0.024719238,0.7020874,1.21875,0.28125,0.984375
1696253384477,0.73583984,-0.02520752,0.68963623,0.96875,-0.75,0.359375
1696253384495,0.74438477,-0.02911377,0.68914795,0.421875,-1.625,0.0625
1696253384537,0.73999023,-0.024963379,0.6935425,0.140625,-1.25,0.0
1696253384576,0.7380371,-0.026184082,0.6991577,-0.078125,-1.359375,-0.109375
1696253384640,0.73461914,-0.027893066,0.69989014,-0.5625,-1.0,-0.375
1696253384656,0.74658203,-0.030334473,0.7074585,-0.890625,0.1875,-0.375
1696253384720,0.74902344,-0.030578613,0.70355225,-0.40625,1.671875,-0.578125
1696253384735,0.7519531,-0.03741455,0.70892334,-0.5,2.1875,-0.78125
1696253384776,0.75146484,-0.043029785,0.7050171,-1.9375,-1.671875,-1.203125
1696253384819,0.7338867,-0.039855957,0.701355,-3.078125,-4.609375,-1.25
1696253384858,0.73217773,-0.031066895,0.70233154,-3.53125,-5.515625,0.203125
1696253384898,0.7480469,-0.011291504,0.68084717,-2.359375,-0.125,1.875
1696253384938,0.7302246,-0.011291504,0.682312,1.828125,1.546875,1.9375
1696253384975,0.72753906,-0.023986816,0.6884155,2.515625,-0.4375,1.703125
1696253385017,0.7307129,-0.026184082,0.65374756,1.140625,0.03125,1.265625
1696253385058,0.7355957,-0.007385254,0.6696167,-0.703125,-2.953125,0.390625
1696253385117,0.7421875,-0.00982666,0.72283936,3.515625,-2.25,-0.53125
1696253385157,0.7578125,-0.05670166,0.71698,3.96875,-1.28125,0.171875
1696253385176,0.75512695,-0.040100098,0.7140503,-2.140625,-1.890625,-0.3125
1696253385217,0.7324219,-0.010070801,0.71087646,-3.90625,-2.046875,-0.8125
1696253385257,0.7126465,-0.017150879,0.7057495,-2.4375,-0.953125,0.21875
1696253385319,0.7155762,-0.03692627,0.713562,0.859375,-0.34375,0.609375
1696253385337,0.7155762,-0.042785645,0.7230835,2.34375,-0.703125,-0.40625
1696253385400,0.7302246,-0.03643799,0.70965576,0.140625,-0.875,-0.234375
1696253385438,0.73657227,-0.020080566,0.70843506,0.71875,0.28125,0.34375
1696253385456,0.7272949,-0.023010254,0.69818115,0.140625,-0.3125,1.0625
1696253385497,0.73535156,-0.028869629,0.7062378,0.203125,-0.109375,0.203125
1696253385537,0.74072266,-0.02178955,0.7111206,-1.1875,-1.140625,-0.109375
1696253385578,0.73291016,-0.019104004,0.70843506,-0.640625,-0.90625,0.125
1696253385617,0.7294922,-0.034484863,0.7050171,-0.453125,-1.140625,0.109375
1696253385658,0.7294922,-0.031555176,0.71014404,-0.453125,-1.34375,-0.234375
1696253385698,0.72802734,-0.020324707,0.7123413,-0.65625,-1.046875,0.015625
1696253385737,0.72509766,-0.02545166,0.7218628,-0.578125,-1.265625,0.03125
1696253385797,0.7272949,-0.026916504,0.711853,-0.515625,-0.4375,0.296875
1696253385837,0.72998047,-0.024719238,0.7140503,-1.046875,-1.03125,-0.0625
1696253385840,0.732666,-0.022521973,0.7304077,1.96875,1.9375,0.25
1696253385877,0.732666,-0.047424316,0.71258545,3.296875,4.328125,0.78125
1696253385916,0.720459,-0.018127441,0.68573,0.734375,1.40625,0.796875
1696253385960,0.73535156,-0.02130127,0.7028198,1.6875,-0.71875,-0.8125
1696253385997,0.7385254,-0.033996582,0.68743896,-0.890625,-1.609375,0.0625
1696253386036,0.7404785,-0.027648926,0.6859741,-2.53125,-0.484375,1.4375
1696253386077,0.734375,-0.012268066,0.7106323,-2.609375,-1.609375,-0.296875
1696253386117,0.736084,-0.031066895,0.71209717,-1.484375,-3.796875,-0.9375
1696253386157,0.7446289,-0.028625488,0.70965576,-1.296875,-1.578125,-0.34375
1696253386198,0.732666,-0.031066895,0.7111206,-0.3125,-0.09375,0.171875
1696253386238,0.7294922,-0.028137207,0.70965576,-0.890625,-0.453125,-0.34375
1696253386278,0.7380371,-0.020812988,0.7157593,-1.34375,-1.09375,-0.8125
1696253386317,0.7211914,-0.022766113,0.7103882,0.0625,-0.46875,-0.0625
1696253386359,0.7324219,-0.020812988,0.7067261,0.234375,-0.421875,0.5
1696253386396,0.7216797,-0.016174316,0.7091675,0.40625,0.15625,0.484375
1696253386436,0.73706055,-0.030090332,0.7106323,-0.234375,-0.078125,0.359375
1696253386479,0.73413086,-0.029846191,0.71551514,-0.1875,-0.28125,0.703125
1696253386517,0.7302246,-0.024719238,0.7128296,-0.59375,-0.078125,0.46875
1696253386556,0.73095703,-0.017150879,0.7037964,-0.453125,-0.234375,0.0625
1696253386598,0.72631836,-0.023010254,0.7081909,0.5625,0.015625,0.265625
1696253386638,0.72680664,-0.028625488,0.7123413,1.453125,0.5625,0.203125
1696253386677,0.7319336,-0.024719238,0.70770264,0.84375,0.28125,0.015625
1696253386717,0.73583984,-0.020324707,0.7033081,0.421875,0.296875,-0.015625
1696253386757,0.73583984,-0.027404785,0.70721436,0.34375,0.328125,0.359375
1696253386799,0.73095703,-0.026184082,0.70770264,0.234375,0.375,0.328125
1696253386839,0.73217773,-0.030334473,0.70477295,0.03125,0.6875,0.375
1696253386878,0.7409668,-0.018371582,0.70721436,-0.09375,1.90625,0.421875
1696253386918,0.73461914,-0.027404785,0.70843506,0.21875,2.203125,0.390625
1696253386960,0.74609375,-0.0256958,0.6898804,-0.609375,0.796875,0.3125
1696253387005,0.73828125,-0.023498535,0.6889038,-0.3125,1.3125,0.109375
1696253387037,0.7409668,-0.024963379,0.68084717,-0.609375,0.40625,0.625
1696253387075,0.7404785,-0.032287598,0.6967163,1.578125,-0.484375,-0.0625
1696253387119,0.7492676,-0.02178955,0.701355,1.53125,-0.90625,-0.25
1696253387136,0.748291,-0.0154418945,0.6942749,1.015625,-0.265625,0.03125
1696253387178,0.7392578,-0.024475098,0.6972046,1.578125,0.75,0.765625
1696253387217,0.7453613,-0.0335083,0.6959839,2.859375,0.5,0.71875
1696253387256,0.74780273,-0.03692627,0.6871948,1.546875,-0.359375,0.328125
1696253387299,0.74731445,-0.02911377,0.6942749,1.203125,0.03125,0.171875
1696253387339,0.7434082,-0.030822754,0.6937866,-0.46875,-0.265625,0.3125
1696253387377,0.74194336,-0.0335083,0.6967163,0.359375,0.640625,0.484375
1696253387418,0.74609375,-0.03375244,0.68914795,-0.28125,0.421875,0.4375
1696253387457,0.7475586,-0.03326416,0.68548584,-0.484375,0.34375,0.53125
1696253387497,0.75097656,-0.03277588,0.69696045,-0.921875,-0.984375,0.375
1696253387536,0.7446289,-0.03277588,0.6884155,-0.3125,-1.265625,0.015625
1696253387577,0.75439453,-0.035949707,0.6925659,1.296875,-0.828125,0.140625
1696253387616,0.75268555,-0.04058838,0.6835327,0.078125,-1.34375,0.40625
1696253387659,0.74780273,-0.024475098,0.68743896,0.78125,0.109375,-0.03125
1696253387697,0.74438477,-0.030334473,0.69207764,0.46875,-0.21875,-0.015625
1696253387739,0.7524414,-0.03668213,0.69647217,0.953125,0.1875,0.234375
1696253387777,0.7434082,-0.028625488,0.68182373,0.34375,-0.984375,0.296875
1696253387818,0.74609375,-0.041809082,0.68573,0.234375,-0.59375,0.125
1696253387857,0.7492676,-0.037902832,0.69329834,0.03125,0.375,0.390625
1696253387897,0.751709,-0.029846191,0.69036865,0.1875,0.890625,0.03125
1696253387937,0.74609375,-0.03326416,0.6820679,-0.59375,0.59375,0.421875
1696253387977,0.7570801,-0.030578613,0.69281006,-1.09375,0.5,0.359375
1696253388017,0.7504883,-0.034484863,0.68304443,-0.46875,0.75,0.28125
1696253388057,0.74658203,-0.030090332,0.67596436,-0.421875,-0.375,0.484375
1696253388097,0.74731445,-0.035949707,0.67840576,0.171875,-0.6875,0.328125
1696253388138,0.7519531,-0.031799316,0.68133545,-0.078125,-0.234375,-0.015625
1696253388179,0.7578125,-0.031311035,0.68304443,0.234375,0.078125,0.03125
1696253388218,0.74609375,-0.031066895,0.6852417,-0.203125,-0.125,0.203125
1696253388257,0.76049805,-0.030822754,0.68133545,0.765625,0.1875,0.328125
1696253388298,0.7536621,-0.03643799,0.68133545,0.75,0.0625,0.09375
1696253388339,0.75268555,-0.03326416,0.6815796,-0.359375,-0.84375,0.015625
1696253388378,0.75390625,-0.035217285,0.6744995,-0.59375,0.125,0.078125
1696253388438,0.7565918,-0.03643799,0.6791382,0.109375,0.0,0.5
1696253388441,0.75512695,-0.030334473,0.68304443,-0.21875,0.5625,0.15625
1696253388478,0.7573242,-0.030090332,0.68133545,-0.609375,0.359375,0.203125
1696253388560,0.7578125,-0.039123535,0.6708374,-0.75,0.5,0.421875
1696253388565,0.76538086,-0.03765869,0.682312,-1.03125,0.375,0.453125
1696253388597,0.7644043,-0.026916504,0.67596436,-2.078125,-0.640625,0.53125
1696253388637,0.75390625,-0.02130127,0.66986084,-0.9375,-0.078125,0.515625
1696253388677,0.7504883,-0.02911377,0.6845093,0.90625,0.453125,0.59375
1696253388716,0.75805664,-0.031066895,0.68426514,0.71875,-0.796875,0.390625
1696253388756,0.74975586,-0.024963379,0.67474365,0.109375,-0.359375,0.46875
1696253388797,0.7687988,-0.032287598,0.6774292,-1.390625,-0.046875,0.5
1696253388837,0.763916,-0.023742676,0.68499756,-0.546875,1.046875,0.421875
1696253388898,0.7644043,-0.028625488,0.69281006,-0.640625,1.171875,1.125
1696253388916,0.76708984,-0.02935791,0.66448975,-1.03125,1.46875,1.3125
1696253388957,0.7651367,-0.026916504,0.6691284,0.640625,2.1875,0.765625
1696253388998,0.76586914,-0.023010254,0.66693115,0.046875,0.078125,0.15625
1696253389037,0.765625,-0.0256958,0.66693115,-0.609375,-0.890625,0.203125
1696253389077,0.76171875,-0.013977051,0.66619873,-0.390625,-0.9375,0.265625
1696253389137,0.763916,-0.024719238,0.6696167,-0.671875,-0.03125,0.375
1696253389156,0.7644043,-0.022033691,0.66571045,-1.0,-0.828125,0.203125
1696253389196,0.76904297,-0.019104004,0.6696167,-0.328125,-0.203125,-0.15625
1696253389237,0.7661133,-0.0154418945,0.666687,-0.953125,-0.515625,0.296875
1696253389276,0.76831055,-0.024475098,0.6635132,-0.390625,-1.171875,0.15625
1696253389318,0.7675781,-0.031311035,0.66815186,-0.515625,-1.125,0.015625
1696253389360,0.767334,-0.027648926,0.6727905,0.375,-0.671875,0.296875
1696253389397,0.7636719,-0.02154541,0.66278076,0.515625,-0.765625,0.859375
1696253389437,0.75341797,-0.018371582,0.6820679,1.46875,0.78125,0.625
1696253389477,0.7524414,-0.023010254,0.67889404,-1.59375,0.109375,0.53125
1696253389515,0.7685547,-0.009338379,0.666687,-0.140625,-1.140625,0.171875
1696253389555,0.7717285,-0.015686035,0.66815186,0.0625,-0.078125,-0.015625
1696253389597,0.7607422,-0.022766113,0.65423584,-0.5,-0.34375,0.15625
1696253389637,0.7636719,-0.0256958,0.6576538,-0.921875,-1.515625,-0.015625
1696253389676,0.77734375,-0.0022583008,0.6930542,3.203125,0.75,-0.40625
1696253389718,0.8000488,-0.043518066,0.7196655,8.078125,6.109375,-0.0625
1696253389738,0.76220703,-0.061828613,0.6557007,3.859375,-0.375,0.171875
1696253389799,0.7211914,-0.031799316,0.62493896,1.359375,-4.390625,-2.140625
1696253389817,0.74853516,-0.022521973,0.6430054,4.453125,-7.203125,-3.34375
1696253389876,0.7844238,-0.0569458,0.670105,-0.46875,-6.046875,0.265625
1696253389915,0.7993164,-0.050842285,0.666687,-4.671875,0.765625,0.875
1696253389935,0.74609375,-0.033996582,0.70721436,-3.3125,-2.578125,-1.6875
1696253389974,0.72802734,-0.014465332,0.6725464,-0.21875,-4.15625,0.40625
1696253390015,0.75390625,-0.024475098,0.64715576,1.3125,1.25,2.421875
1696253390057,0.73046875,-0.02545166,0.6547241,-1.0,-2.375,2.390625
1696253390119,0.72998047,-0.0115356445,0.68377686,-0.390625,-7.484375,-0.046875
1696253390159,0.75927734,-0.06915283,0.7238159,3.421875,-2.53125,-0.078125
1696253390177,0.7895508,-0.06304932,0.7062378,0.90625,0.421875,0.515625
1696253390218,0.7578125,-0.022521973,0.6859741,-5.171875,-3.359375,-0.40625
1696253390257,0.72924805,-0.0076293945,0.68499756,-2.421875,-1.09375,-0.375
1696253390298,0.72753906,-0.04473877,0.68255615,2.734375,1.8125,0.46875
1696253390337,0.74121094,-0.06329346,0.69158936,3.921875,-1.390625,0.390625
1696253390378,0.74975586,-0.03326416,0.7003784,0.125,-2.34375,-0.625
1696253390417,0.74560547,-0.038391113,0.6935425,-0.5,-1.9375,0.1875
1696253390458,0.73217773,-0.030090332,0.6989136,0.453125,-1.4375,-0.1875
1696253390498,0.7385254,-0.04425049,0.7020874,-0.046875,-1.125,0.03125
1696253390535,0.7492676,-0.031311035,0.7062378,-1.265625,-0.78125,-0.015625
1696253390579,0.73657227,-0.03302002,0.69647217,-2.078125,-1.078125,0.15625
1696253390617,0.74243164,-0.043518066,0.6937866,-0.0625,0.125,0.390625
1696253390657,0.7468262,-0.04522705,0.6972046,0.71875,0.140625,0.9375
1696253390697,0.7319336,-0.043518066,0.6976929,0.609375,-0.25,0.59375
1696253390737,0.73168945,-0.03326416,0.70526123,0.125,0.078125,-0.046875
1696253390778,0.7348633,-0.032287598,0.6893921,-2.0,-0.0625,0.15625
1696253390817,0.73706055,-0.022033691,0.6954956,-1.671875,-0.953125,-0.1875
1696253390857,0.76000977,-0.027893066,0.701355,-1.703125,-0.4375,0.109375
1696253390897,0.74365234,-0.03717041,0.7074585,-0.0625,0.015625,0.140625
1696253390935,0.73779297,-0.03277588,0.697937,0.515625,-0.890625,-0.015625
1696253390997,0.7414551,-0.04425049,0.6937866,-0.0625,-0.359375,0.734375
1696253391079,0.7373047,-0.03741455,0.69744873,-0.109375,0.40625,0.96875
1696253391082,0.7363281,-0.028625488,0.7055054,0.40625,0.203125,0.328125
1696253391085,0.74243164,-0.027160645,0.70184326,0.203125,0.59375,0.046875
1696253391117,0.7380371,-0.0256958,0.68914795,-1.546875,0.296875,0.4375
1696253391157,0.7504883,-0.0335083,0.7033081,0.09375,1.203125,0.578125
1696253391196,0.7475586,-0.038146973,0.67889404,-2.921875,0.203125,0.84375
1696253391238,0.7624512,-0.032287598,0.6935425,-0.109375,2.546875,0.8125
1696253391278,0.751709,-0.03302002,0.6774292,-0.265625,1.765625,0.78125
1696253391319,0.7495117,-0.016174316,0.67645264,-0.90625,0.0625,0.109375
1696253391358,0.7519531,-0.022766113,0.69085693,-0.578125,0.484375,0.21875
1696253391398,0.74853516,-0.028625488,0.6947632,-0.609375,0.359375,0.34375
1696253391438,0.75390625,-0.027648926,0.6744995,-1.03125,-0.28125,-0.21875
1696253391478,0.75097656,-0.025939941,0.6769409,-0.0625,-1.0,-0.125
1696253391520,0.7504883,-0.024230957,0.69158936,0.734375,0.4375,0.109375
1696253391559,0.748291,-0.03375244,0.6881714,-0.015625,0.03125,0.515625
1696253391596,0.7495117,-0.027404785,0.680603,-0.9375,-1.359375,0.21875
1696253391638,0.7519531,-0.02178955,0.6845093,0.109375,-0.234375,0.421875
1696253391677,0.74609375,-0.02545166,0.6810913,0.359375,-0.125,0.4375
1696253391719,0.75561523,-0.02178955,0.68182373,0.171875,-0.390625,-0.140625
1696253391757,0.75561523,-0.020812988,0.68548584,-0.125,-0.28125,0.109375
1696253391798,0.7553711,-0.021057129,0.68084717,0.296875,0.125,0.421875
1696253391837,0.75097656,-0.031311035,0.68084717,-0.359375,-0.125,0.625
1696253391882,0.7524414,-0.028869629,0.69036865,0.0625,-0.328125,0.0
1696253391919,0.75634766,-0.024230957,0.6781616,-0.578125,-0.28125,0.1875
1696253391958,0.7531738,-0.023254395,0.6786499,-0.15625,-0.078125,0.34375
1696253391998,0.7470703,-0.026672363,0.68084717,0.21875,0.125,0.34375
1696253392037,0.7548828,-0.02520752,0.68084717,-0.109375,0.46875,0.328125
1696253392077,0.7602539,-0.027893066,0.6815796,-0.046875,-0.28125,0.25
1696253392118,0.7585449,-0.023254395,0.682312,0.4375,0.015625,0.09375
1696253392156,0.75268555,-0.018127441,0.67303467,-0.109375,-0.046875,-0.015625
1696253392197,0.7561035,-0.016906738,0.6757202,0.015625,-0.65625,0.3125
1696253392239,0.76416016,-0.031555176,0.684021,-1.0625,-0.375,0.171875
1696253392280,0.7609863,-0.023986816,0.6793823,-0.296875,-0.46875,-0.296875
1696253392317,0.7570801,-0.023010254,0.68133545,-0.078125,-1.3125,0.046875
1696253392359,0.75683594,-0.022521973,0.68426514,-0.421875,-0.46875,0.375
1696253392376,0.74731445,-0.030822754,0.69085693,-0.140625,0.078125,0.640625
1696253392417,0.75683594,-0.020080566,0.67889404,0.0625,-0.6875,-0.046875
1696253392478,0.7558594,-0.0068969727,0.6786499,0.109375,0.015625,0.078125
1696253392495,0.7546387,-0.02520752,0.67840576,-0.578125,-0.15625,0.546875
1696253392540,0.7590332,-0.028869629,0.6715698,-0.71875,-0.15625,0.21875
1696253392577,0.76049805,-0.023254395,0.6774292,-0.03125,-0.109375,0.421875
1696253392618,0.7680664,-0.023010254,0.6781616,0.71875,0.390625,0.078125
1696253392657,0.7663574,-0.02178955,0.6779175,-0.046875,0.1875,0.34375
1696253392720,0.7585449,-0.014709473,0.6793823,-0.03125,-0.765625,0.34375
1696253392736,0.7519531,-0.022033691,0.68182373,0.15625,-0.5625,0.5625
1696253392799,0.75439453,-0.02130127,0.67401123,0.34375,0.265625,0.609375
1696253392816,0.7541504,-0.02178955,0.67303467,-0.046875,0.015625,0.546875
1696253392879,0.7614746,-0.020324707,0.66522217,-0.25,0.5625,0.125
1696253392895,0.7585449,-0.014953613,0.67303467,-0.1875,0.765625,0.4375
1696253392936,0.7573242,-0.016906738,0.6737671,-0.765625,-0.1875,0.46875
1696253392976,0.76293945,-0.02130127,0.6791382,-0.015625,-0.234375,0.28125
1696253393039,0.7729492,-0.02178955,0.6786499,-0.140625,-0.109375,0.109375
1696253393056,0.7705078,-0.021057129,0.6679077,-0.53125,-0.0625,0.65625
1696253393121,0.76538086,-0.019836426,0.6744995,-0.21875,0.828125,0.578125
1696253393136,0.7729492,-0.025939941,0.66937256,-0.328125,0.953125,0.5
1696253393177,0.7609863,-0.017150879,0.67230225,0.0,0.3125,0.5625
1696253393218,0.7548828,-0.0056762695,0.6637573,0.609375,0.359375,0.390625
1696253393256,0.7692871,-0.018127441,0.6664429,0.59375,0.5625,0.46875
1696253393298,0.7697754,-0.010803223,0.66204834,0.21875,0.28125,0.328125
1696253393338,0.7714844,-0.018615723,0.66619873,0.15625,0.328125,0.078125
1696253393378,0.7687988,-0.018371582,0.6625366,-0.6875,-0.578125,0.515625
1696253393442,0.7680664,-0.011047363,0.668396,-0.546875,-0.6875,0.375
1696253393477,0.7661133,-0.016662598,0.6618042,-0.703125,-0.5625,0.046875
1696253393496,0.7619629,-0.014221191,0.6630249,-0.28125,-0.5,0.328125
1696253393560,0.77197266,-0.015930176,0.66864014,0.296875,-0.609375,0.3125
1696253393578,0.76538086,-0.022521973,0.6713257,-0.03125,-0.4375,0.375
1696253393617,0.76660156,-0.023498535,0.66571045,-0.1875,-0.625,-0.171875
1696253393679,0.77246094,-0.0068969727,0.6635132,0.203125,-0.3125,0.09375
1696253393696,0.76586914,-0.0115356445,0.65667725,0.0,-0.1875,0.375
1696253393717,0.77075195,-0.019104004,0.6708374,-0.34375,-0.078125,0.28125
1696253393758,0.7741699,-0.024963379,0.65252686,-1.109375,-1.09375,-0.0625
1696253393797,0.76171875,-0.015197754,0.66400146,-0.71875,-0.875,-0.25
1696253393838,0.75927734,-0.016662598,0.6708374,-1.46875,-0.9375,-0.03125
1696253393877,0.76953125,-0.01373291,0.6732788,-0.671875,-0.4375,0.078125
1696253393918,0.76464844,-0.012756348,0.6779175,0.453125,-0.09375,-0.078125
1696253393958,0.7636719,-0.014465332,0.6600952,-0.453125,-0.359375,-0.015625
1696253393997,0.7763672,-0.013000488,0.6659546,-0.15625,0.640625,0.625
1696253394037,0.7624512,-0.010314941,0.66326904,-0.203125,1.015625,0.546875
1696253394077,0.7709961,-0.018127441,0.6559448,-0.109375,0.328125,0.140625
1696253394117,0.77001953,-0.018127441,0.6576538,0.078125,-0.078125,-0.03125
1696253394157,0.7722168,-0.009094238,0.66082764,0.125,-0.296875,0.21875
1696253394199,0.76416016,-0.006164551,0.66278076,-0.09375,-0.75,0.0625
1696253394238,0.7739258,-0.0154418945,0.6618042,-1.046875,-0.34375,0.578125
1696253394279,0.76831055,-0.0134887695,0.6598511,-0.5625,-0.296875,0.28125
1696253394319,0.7687988,-0.010559082,0.6642456,0.3125,-0.328125,0.0625
1696253394359,0.7692871,-0.014221191,0.66448975,0.15625,-0.421875,0.03125
1696253394398,0.7661133,-0.003479004,0.65789795,0.171875,-0.34375,0.015625
1696253394436,0.76831055,-0.016418457,0.6593628,-0.34375,-0.234375,0.484375
1696253394476,0.76953125,-0.016418457,0.6625366,-0.453125,-0.390625,0.4375
1696253394518,0.7751465,-0.014953613,0.6637573,0.546875,-0.875,-0.0625
1696253394559,0.77075195,-0.006164551,0.6600952,-0.109375,-0.625,0.078125
1696253394597,0.76904297,-0.01373291,0.66400146,0.328125,-0.640625,0.3125
1696253394641,0.7531738,-0.0134887695,0.6664429,-0.109375,-1.078125,0.203125
1696253394677,0.7697754,-0.0115356445,0.6664429,-0.109375,-0.96875,-0.140625
1696253394719,0.763916,-0.004211426,0.66448975,1.421875,-0.640625,-0.046875
1696253394757,0.7854004,-0.019592285,0.6954956,4.703125,0.6875,0.5625
1696253394798,0.76831055,-0.046936035,0.6625366,2.21875,-6.90625,0.25
1696253394838,0.71533203,0.004333496,0.66986084,2.109375,-5.5,-2.5
1696253394877,0.7792969,-0.030822754,0.70184326,3.59375,-2.328125,-2.125
1696253394920,0.77734375,-0.022766113,0.68011475,1.03125,-1.296875,1.9375
1696253394997,0.7558594,-0.047424316,0.666687,1.796875,1.828125,0.859375
1696253395000,0.7741699,-0.02178955,0.65008545,0.640625,-0.5,0.234375
1696253395037,0.74243164,-0.03253174,0.66156006,2.28125,0.8125,2.796875
1696253395059,0.7404785,-0.0178833,0.635437,0.859375,-2.09375,1.6875
1696253395096,0.74780273,9.1552734E-4,0.6671753,1.40625,-2.625,-0.90625
1696253395157,0.76782227,-0.04449463,0.69573975,2.09375,-1.421875,-0.09375
1696253395179,0.7885742,-0.059631348,0.69451904,-0.390625,-0.15625,0.96875
1696253395217,0.7770996,-0.026428223,0.67401123,-4.984375,-2.859375,-0.40625
1696253395257,0.7421875,0.0016479492,0.67718506,-3.375,-3.1875,-0.578125
1696253395298,0.74365234,-0.022766113,0.67303467,-0.578125,-1.4375,0.65625
1696253395337,0.7404785,-0.038391113,0.6959839,1.03125,-1.984375,-0.0625
1696253395376,0.7487793,-0.03741455,0.70526123,0.734375,-0.578125,-0.1875
1696253395420,0.74902344,-0.031066895,0.6725464,0.671875,-0.109375,0.265625
1696253395477,0.76464844,-0.015197754,0.6803589,1.5625,0.765625,-0.234375
1696253395498,0.7392578,-0.027404785,0.6935425,1.25,1.75,0.65625
1696253395558,0.7536621,-0.031555176,0.6954956,-0.3125,-0.65625,0.109375
1696253395576,0.7663574,-0.025939941,0.67962646,0.046875,-0.84375,-0.0625
1696253395619,0.7529297,-0.025939941,0.6703491,-0.125,-0.78125,0.546875
1696253395659,0.7529297,-0.035705566,0.67718506,-0.421875,-0.203125,0.53125
1696253395699,0.7487793,-0.027648926,0.68865967,-0.546875,-0.9375,-0.0625
1696253395759,0.75097656,-0.040100098,0.682312,0.15625,-0.390625,-0.40625
1696253395778,0.7519531,-0.02545166,0.6898804,-0.515625,-0.703125,-0.46875
1696253395818,0.75219727,-0.022766113,0.68670654,-0.859375,-0.5625,0.0625
1696253395879,0.7446289,-0.022277832,0.69866943,-0.125,-0.140625,0.34375
1696253395896,0.7504883,-0.031066895,0.68792725,-0.421875,-0.09375,0.53125
1696253395939,0.7541504,-0.030334473,0.67645264,-0.984375,-0.4375,0.71875
1696253395978,0.7531738,-0.0256958,0.67718506,-1.09375,-0.90625,0.734375
1696253396023,0.7404785,-0.0256958,0.68670654,-0.1875,-0.40625,0.515625
1696253396058,0.7480469,-0.02520752,0.6906128,0.671875,0.203125,0.171875
1696253396096,0.7648926,-0.024230957,0.6757202,-0.03125,-0.921875,-0.1875
1696253396139,0.75634766,-0.019348145,0.6769409,0.0625,-0.59375,0.0
1696253396177,0.7595215,-0.02178955,0.67474365,-0.171875,-0.640625,0.0
1696253396217,0.7536621,-0.022766113,0.6935425,-0.25,-0.15625,0.015625
1696253396256,0.7438965,-0.026184082,0.68182373,-0.375,-0.6875,0.1875
1696253396320,0.7487793,-0.01763916,0.68743896,-1.46875,-1.078125,0.171875
1696253396323,0.7429199,-0.020568848,0.68133545,-1.21875,-0.46875,-0.125
1696253396357,0.7531738,-0.026428223,0.69207764,-1.15625,-0.09375,-0.125
1696253396396,0.75439453,-0.022766113,0.6925659,-1.421875,0.5625,0.109375
1696253396438,0.7626953,-0.02520752,0.6803589,-1.90625,0.453125,0.3125
1696253396477,0.75219727,-0.031066895,0.6774292,-1.1875,1.53125,0.421875
1696253396518,0.76416016,-0.022277832,0.6708374,-1.859375,1.421875,0.671875
1696253396559,0.75146484,-0.00982666,0.6720581,-1.734375,0.65625,0.53125
1696253396597,0.75512695,-0.022277832,0.6798706,0.390625,0.828125,0.265625
1696253396635,0.76660156,-0.028381348,0.6696167,1.59375,0.0625,0.171875
1696253396679,0.7631836,-0.01373291,0.6810913,2.296875,0.734375,-0.140625
1696253396719,0.7624512,-0.020568848,0.68255615,-0.625,-0.59375,0.5
1696253396758,0.76464844,-0.01373291,0.66156006,-2.359375,-0.109375,0.625
1696253396798,0.75024414,-0.014221191,0.6732788,-0.109375,0.234375,0.46875
1696253396837,0.7570801,-0.022521973,0.66937256,-0.265625,-0.078125,0.171875
1696253396877,0.7626953,-0.02154541,0.6664429,0.5,0.0,-0.234375
1696253396917,0.7685547,-0.0154418945,0.67108154,-0.140625,-0.8125,0.09375
1696253396958,0.76660156,-0.024719238,0.6766968,0.453125,-0.234375,0.203125
1696253396996,0.763916,-0.022521973,0.68011475,0.453125,0.265625,-0.15625
1696253397037,0.7705078,-0.018127441,0.6598511,-0.859375,-0.171875,0.078125
1696253397077,0.7651367,-0.014709473,0.6635132,0.1875,0.609375,0.21875
1696253397117,0.76123047,-0.013244629,0.6630249,-0.109375,-0.390625,0.625
1696253397158,0.76293945,-0.02545166,0.6671753,-0.25,-0.453125,0.328125
1696253397197,0.7661133,-0.015930176,0.66937256,-0.40625,-0.796875,-0.046875
1696253397238,0.7607422,-0.0068969727,0.66278076,0.078125,-0.625,-0.296875
1696253397278,0.7626953,-0.013244629,0.6635132,-0.5,-1.640625,-0.203125
1696253397317,0.77490234,-0.018859863,0.70111084,1.796875,1.625,-0.1875
1696253397358,0.77319336,-0.027893066,0.6976929,3.40625,2.75,-0.53125
1696253397397,0.7722168,-0.03692627,0.64959717,2.734375,-1.390625,-1.71875
1696253397439,0.7619629,-0.029846191,0.684021,5.0625,0.234375,-2.4375
1696253397476,0.7519531,-0.033996582,0.7067261,8.0625,2.265625,-0.265625
1696253397520,0.7800293,-0.05206299,0.65496826,2.546875,-2.84375,1.546875
1696253397560,0.76171875,-0.034973145,0.61053467,-1.65625,-1.0,1.953125
1696253397640,0.77001953,-0.026184082,0.63494873,2.65625,0.5625,2.078125
1696253397645,0.7597656,-0.03643799,0.61102295,1.890625,-2.0625,1.203125
1696253397678,0.7541504,-0.022277832,0.6466675,-2.078125,-5.0625,0.140625
1696253397739,0.7663574,-0.050354004,0.6923218,0.8125,-1.265625,0.671875
1696253397742,0.7956543,-0.051818848,0.69329834,0.046875,-0.21875,0.234375
1696253397777,0.77197266,-0.0335083,0.6559448,-5.59375,-4.375,-1.0625
1696253397818,0.74780273,0.0067749023,0.6810913,-4.4375,-4.296875,-1.125
1696253397860,0.7312012,-0.02130127,0.6781616,-0.78125,-0.984375,0.625
1696253397898,0.7463379,-0.054260254,0.7111206,1.1875,-1.53125,-0.0625
1696253397937,0.74487305,-0.06011963,0.69158936,-0.390625,-2.1875,-0.171875
1696253397977,0.7487793,-0.020080566,0.6725464,0.578125,-0.625,-1.03125
1696253398017,0.7512207,-0.02178955,0.682312,2.4375,0.71875,0.09375
1696253398056,0.75683594,-0.04547119,0.68011475,1.3125,0.515625,0.84375
1696253398098,0.7631836,-0.03326416,0.6884155,-0.25,-0.265625,0.296875
1696253398136,0.76293945,-0.03375244,0.6732788,-0.59375,-0.15625,0.34375
1696253398178,0.7607422,-0.035705566,0.6766968,-0.078125,-0.609375,0.375
1696253398217,0.75341797,-0.03717041,0.67474365,-0.34375,-1.03125,0.296875
1696253398257,0.7531738,-0.034484863,0.69036865,-0.25,-0.765625,0.015625
1696253398316,0.7565918,-0.02935791,0.7055054,-0.734375,-1.0,-0.390625
1696253398357,0.751709,-0.039611816,0.68182373,-1.875,-1.28125,-0.015625
1696253398377,0.74487305,-0.022033691,0.67303467,-2.109375,0.6875,0.5
1696253398438,0.75341797,-0.028869629,0.6959839,-0.359375,1.984375,0.78125
1696253398479,0.7541504,-0.039855957,0.6769409,-1.34375,0.59375,0.703125
1696253398496,0.76000977,-0.034240723,0.66278076,-0.234375,0.171875,0.296875
1696253398562,0.75024414,-0.024230957,0.65545654,-0.640625,-0.171875,0.40625
1696253398576,0.7597656,-0.016662598,0.6720581,-0.8125,1.015625,-0.046875
1696253398637,0.76464844,-0.02935791,0.6828003,-1.203125,-0.359375,0.03125
1696253398655,0.77246094,-0.036193848,0.697937,0.625,0.140625,-0.9375
1696253398699,0.75756836,-0.012756348,0.68255615,-1.296875,0.3125,-0.671875
1696253398738,0.7614746,-0.014953613,0.6703491,-1.234375,-0.96875,-0.640625
1696253398778,0.7607422,-0.030334473,0.6864624,-0.109375,-2.5625,-0.671875
1696253398818,0.7402344,-0.045715332,0.6781616,-1.171875,-1.078125,-0.296875
1696253398859,0.7519531,-0.04473877,0.6742554,-0.171875,0.359375,0.875
1696253398898,0.75390625,-0.027404785,0.6810913,-0.109375,0.75,0.640625
1696253398916,0.75439453,-0.020080566,0.66937256,0.15625,0.65625,0.65625
1696253398958,0.7602539,-0.028625488,0.67523193,0.65625,-0.484375,0.546875
1696253398998,0.7727051,-0.027404785,0.67352295,0.625,0.046875,0.0625
1696253399038,0.76831055,-0.030090332,0.6708374,-0.078125,-0.03125,-0.59375
1696253399076,0.77246094,-0.026672363,0.67230225,-0.125,0.984375,0.203125
1696253399115,0.7609863,-0.02935791,0.66937256,-1.265625,1.734375,1.25
1696253399157,0.7553711,-0.029846191,0.6967163,-2.140625,3.171875,1.421875
1696253399198,0.7836914,-0.030822754,0.664978,-0.9375,2.453125,0.828125
1696253399238,0.77368164,-0.018615723,0.64642334,-0.65625,0.515625,0.15625
1696253399277,0.7434082,-0.011291504,0.64764404,2.140625,0.5625,0.5
1696253399318,0.7624512,-0.025939941,0.6539917,-0.6875,-0.5,1.078125
1696253399359,0.76708984,-0.028381348,0.6522827,-1.0625,1.546875,0.453125
1696253399396,0.7902832,-0.027893066,0.66033936,0.171875,-1.03125,-0.171875
1696253399436,0.7727051,-0.013977051,0.6486206,-1.921875,-1.6875,0.0625
1696253399475,0.7692871,-0.0064086914,0.6654663,-0.046875,-0.609375,-0.109375
1696253399516,0.7714844,-0.026428223,0.6744995,-0.75,-1.578125,0.140625
1696253399556,0.7739258,-0.022766113,0.65252686,-0.84375,-0.78125,-0.03125
1696253399596,0.7685547,-0.023254395,0.6586304,-0.34375,-1.21875,-0.046875
1696253399637,0.7570801,-0.020080566,0.66815186,-0.015625,-1.5625,0.453125
1696253399677,0.76586914,-0.016174316,0.6647339,0.421875,-0.75,0.015625
1696253399717,0.7727051,-0.016418457,0.6732788,-0.03125,-1.0,-0.3125
1696253399756,0.7573242,-0.01763916,0.66522217,-0.265625,-0.703125,0.03125
1696253399796,0.7626953,-0.018859863,0.6600952,-1.15625,-0.8125,0.046875
1696253399836,0.7714844,-0.0154418945,0.6725464,-0.15625,-0.78125,-0.203125
1696253399875,0.79296875,-0.022521973,0.6688843,-2.203125,-2.546875,-1.265625
1696253399917,0.7573242,-0.0017700195,0.72039795,3.328125,0.71875,-1.703125
1696253399957,0.7392578,-0.05328369,0.6913452,7.875,2.078125,0.453125
1696253399996,0.7998047,-0.06573486,0.6322632,4.90625,1.796875,0.34375
1696253400035,0.76342773,-0.022521973,0.66693115,4.078125,-3.84375,1.21875
1696253400076,0.7319336,-0.01763916,0.67767334,3.296875,-5.5,0.0
1696253400115,0.77734375,-0.030822754,0.652771,1.640625,-0.015625,1.96875
1696253400156,0.7619629,-0.033996582,0.6293335,-0.921875,0.234375,2.28125
1696253400197,0.7463379,-0.031311035,0.5961304,1.328125,-2.078125,0.53125
1696253400236,0.7319336,0.0060424805,0.638855,0.4375,-5.703125,-1.125
1696253400255,0.76049805,-0.04058838,0.70721436,2.59375,-3.75,0.84375
1696253400295,0.7988281,-0.09844971,0.7250366,-1.03125,-0.859375,1.328125
1696253400335,0.7897949,-0.05206299,0.6898804,-6.90625,-4.234375,-1.0625
1696253400376,0.7397461,0.022644043,0.6715698,-4.25,-4.203125,-1.40625
1696253400417,0.72314453,-0.013244629,0.67523193,0.078125,-0.921875,0.671875
1696253400456,0.7211914,-0.05596924,0.69696045,2.078125,0.21875,1.3125
1696253400496,0.74731445,-0.054504395,0.71746826,0.03125,-1.109375,-0.21875
1696253400537,0.7397461,-0.034729004,0.6845093,-1.09375,-1.078125,-0.046875
1696253400576,0.75219727,-0.010070801,0.68182373,2.3125,0.3125,0.28125
1696253400618,0.7561035,-0.02520752,0.69989014,2.5,1.109375,0.796875
1696253400658,0.76293945,-0.028625488,0.6947632,-0.15625,0.3125,0.703125
1696253400697,0.7595215,-0.034729004,0.6793823,-1.1875,-0.75,-0.140625
1696253400758,0.75219727,-0.028381348,0.6613159,-0.703125,-0.09375,-0.046875
1696253400775,0.7487793,-0.03326416,0.6762085,-0.796875,0.21875,0.71875
1696253400836,0.7553711,-0.037902832,0.6906128,-0.59375,-0.375,0.265625
1696253400856,0.7512207,-0.042053223,0.69085693,-0.796875,-0.609375,-0.546875
1696253400895,0.74609375,-0.02154541,0.68377686,-0.8125,0.1875,-0.390625
1696253400956,0.7426758,-0.022033691,0.6835327,-0.515625,0.1875,0.15625
1696253400976,0.7480469,-0.030090332,0.6935425,-1.234375,-0.671875,0.328125
1696253401015,0.7512207,-0.0335083,0.6881714,0.171875,-0.40625,0.328125
1696253401055,0.75512695,-0.031799316,0.68182373,0.234375,-0.59375,0.25
1696253401096,0.7475586,-0.024475098,0.6845093,1.984375,0.578125,0.8125
1696253401136,0.74902344,-0.034729004,0.68182373,1.34375,-1.125,0.75
1696253401177,0.7585449,-0.03741455,0.68255615,0.84375,-0.34375,0.0625
1696253401236,0.7512207,-0.024475098,0.6815796,0.046875,-0.15625,0.09375
1696253401256,0.7609863,-0.03326416,0.6786499,-0.390625,-0.578125,0.21875
1696253401297,0.7602539,-0.016906738,0.7008667,0.46875,-1.046875,-0.328125
1696253401338,0.71875,-0.028137207,0.69696045,1.6875,1.65625,0.46875
1696253401378,0.7753906,-0.05670166,0.6654663,-0.359375,0.71875,0.390625
1696253401436,0.7685547,-0.03668213,0.66326904,0.140625,-1.375,-1.59375
1696253401456,0.7597656,-0.025939941,0.67230225,-1.6875,-2.375,-1.46875
1696253401496,0.74243164,-0.031311035,0.68573,-2.03125,-0.796875,0.859375
1696253401536,0.73779297,-0.02911377,0.68743896,-1.609375,0.015625,1.1875
1696253401555,0.75024414,-0.019836426,0.69281006,0.3125,-0.71875,-0.09375
1696253401596,0.76000977,-0.0256958,0.6911011,0.625,0.1875,-0.0625
1696253401636,0.76049805,-0.027893066,0.68255615,-1.09375,-0.234375,0.453125
1696253401676,0.7519531,-0.0256958,0.6871948,-1.171875,0.84375,0.734375
1696253401716,0.76342773,-0.035217285,0.67962646,-0.59375,1.984375,0.4375
1696253401756,0.76342773,-0.022521973,0.6654663,-0.65625,1.03125,0.0
1696253401796,0.7602539,-0.027893066,0.6732788,-0.21875,0.671875,0.65625
1696253401837,0.76171875,-0.024963379,0.6769409,-0.75,0.71875,0.78125
1696253401877,0.76220703,-0.022277832,0.6754761,-0.0625,0.328125,0.265625
1696253401917,0.7536621,-0.02154541,0.6845093,0.921875,-0.21875,-0.125
1696253401957,0.751709,-0.027893066,0.6810913,-0.21875,0.234375,-0.015625
1696253401996,0.77001953,-0.027404785,0.66986084,-1.046875,-0.390625,0.15625
1696253402036,0.7685547,-0.029846191,0.670105,0.03125,-0.21875,-0.3125
1696253402076,0.7541504,-0.027160645,0.67108154,-0.90625,0.0,0.65625
1696253402116,0.7636719,-0.015930176,0.66937256,-0.265625,0.125,0.9375
1696253402155,0.76000977,-0.024230957,0.66937256,-0.171875,0.078125,0.6875
1696253402196,0.763916,-0.012756348,0.6774292,-0.640625,-0.671875,0.1875
1696253402236,0.7546387,-0.027160645,0.66986084,-0.140625,0.1875,0.171875
1696253402276,0.7609863,-0.022521973,0.66400146,-1.0625,0.078125,-0.0625
1696253402316,0.7702637,-0.013000488,0.6688843,-0.265625,0.328125,-0.109375
1696253402356,0.77001953,-0.026428223,0.6598511,-0.3125,0.1875,0.203125
1696253402396,0.77075195,-0.020080566,0.6581421,-2.5625,-0.140625,0.109375
1696253402436,0.7685547,-0.0178833,0.6744995,0.5,0.3125,1.015625
1696253402476,0.7685547,-0.018127441,0.6696167,-0.34375,0.078125,1.03125
1696253402517,0.75683594,-0.020812988,0.6676636,-0.25,0.40625,0.453125
1696253402557,0.76123047,-0.018859863,0.6725464,-0.03125,0.53125,0.015625
1696253402597,0.7578125,-0.011047363,0.6664429,-0.5,-0.296875,0.15625
1696253402636,0.7644043,-0.012023926,0.6598511,-0.1875,-0.15625,0.015625
1696253402677,0.7668457,-0.024719238,0.6737671,-0.3125,0.546875,0.71875
1696253402717,0.7751465,-0.018615723,0.65789795,0.09375,0.421875,0.53125
1696253402757,0.7753906,-0.020812988,0.6535034,0.234375,0.0,0.734375
1696253402797,0.76342773,-0.008361816,0.6622925,-1.171875,-0.90625,1.28125
1696253402857,0.75097656,-0.004699707,0.6976929,3.59375,1.890625,0.03125
1696253402876,0.7507324,-0.046203613,0.65179443,-0.28125,1.390625,0.6875
1696253402896,0.7910156,-0.0056762695,0.6383667,-2.875,-0.453125,0.421875
1696253402936,0.78271484,-0.0017700195,0.6557007,-0.625,0.34375,0.78125
1696253402977,0.7932129,-0.024963379,0.66326904,0.796875,0.078125,-0.203125
1696253403016,0.78344727,-0.04034424,0.64398193,-1.5,-2.0625,-0.15625
1696253403056,0.78100586,-0.012512207,0.64593506,-0.34375,-1.5625,-0.3125
1696253403097,0.7644043,-0.0025024414,0.6613159,0.046875,-0.8125,0.078125
1696253403136,0.74560547,-0.014953613,0.6647339,-0.25,-0.84375,0.9375
1696253403177,0.74609375,-0.022277832,0.6774292,-0.140625,-0.484375,0.9375
1696253403236,0.7770996,-0.007385254,0.67718506,0.890625,0.15625,0.59375
1696253403256,0.78393555,-0.014465332,0.66937256,1.5,0.359375,-0.25
1696253403317,0.7832031,-0.022033691,0.6486206,0.40625,0.109375,0.109375
1696253403339,0.76660156,-0.0044555664,0.64178467,-1.203125,-0.421875,1.0
1696253403376,0.77563477,0.001159668,0.65618896,-0.359375,-0.328125,0.828125
1696253403416,0.7788086,-0.02154541,0.6600952,-0.984375,0.140625,0.6875
1696253403456,0.78100586,-0.0154418945,0.65545654,-0.109375,-1.109375,-0.421875
1696253403497,0.7792969,-0.008117676,0.6610718,-0.46875,-1.078125,-0.484375
1696253403536,0.7734375,-0.008117676,0.6559448,-1.25,-0.734375,0.1875
1696253403575,0.7709961,-0.01739502,0.6622925,-1.28125,-0.359375,0.125
1696253403616,0.7751465,-0.019836426,0.651062,-1.28125,-0.40625,0.0625
1696253403656,0.7648926,-0.01739502,0.66156006,0.296875,-0.1875,0.859375
1696253403697,0.76342773,-0.014709473,0.6630249,0.140625,0.015625,1.078125
1696253403737,0.76953125,-0.010314941,0.6557007,0.421875,0.625,0.71875
1696253403777,0.7817383,-0.0044555664,0.66082764,0.734375,0.078125,-0.171875
1696253403838,0.7844238,0.001159668,0.66448975,-0.09375,-0.484375,-0.015625
1696253403856,0.77685547,-0.007873535,0.6454468,-1.5625,-0.59375,0.609375
1696253403922,0.77075195,-0.005432129,0.6581421,-0.453125,-0.140625,0.546875
1696253403935,0.77075195,-0.02130127,0.65252686,-0.765625,-0.8125,0.1875
1696253403977,0.78344727,-0.0076293945,0.65252686,-0.03125,0.3125,0.109375
1696253404019,0.77197266,-0.006652832,0.66033936,-0.09375,-0.25,0.3125
1696253404058,0.7619629,-0.010559082,0.66156006,0.53125,0.046875,0.5
1696253404098,0.77246094,-0.012756348,0.6576538,0.5,-0.890625,-0.640625
1696253404157,0.78564453,0.0018920898,0.6539917,-0.15625,-0.171875,-0.1875
1696253404179,0.76904297,-0.007873535,0.6535034,-0.046875,-0.40625,0.75
1696253404197,0.77612305,-0.012023926,0.6559448,-0.25,-0.53125,0.28125
1696253404238,0.7861328,-0.01763916,0.6473999,-0.125,-0.703125,-0.046875
1696253404277,0.7751465,-0.012512207,0.6532593,0.453125,0.1875,-0.21875
1696253404320,0.78564453,-0.0051879883,0.6618042,-0.046875,-0.03125,0.453125
1696253404363,0.7626953,-0.010070801,0.6535034,-0.21875,-0.421875,0.40625
1696253404397,0.7739258,-0.019836426,0.6557007,0.0,-0.5,-0.578125
1696253404440,0.78125,-0.00592041,0.6461792,1.015625,0.4375,-0.03125
1696253404478,0.77563477,-0.0071411133,0.6508179,0.3125,-0.21875,0.296875
1696253404516,0.78125,-0.008850098,0.6618042,2.359375,2.96875,0.890625
1696253404556,0.7861328,-0.03302002,0.65911865,1.578125,1.203125,1.03125
1696253404598,0.77905273,-0.013244629,0.6444702,0.234375,-0.421875,0.078125
1696253404640,0.7722168,-0.010559082,0.64349365,1.28125,-0.125,0.71875
1696253404679,0.7692871,-0.0115356445,0.6473999,-0.3125,-0.328125,0.140625
1696253404717,0.7783203,-0.015686035,0.64056396,-1.0625,-0.703125,0.15625
1696253404756,0.7858887,-0.012023926,0.6569214,-0.3125,-1.09375,-0.109375
1696253404797,0.7919922,-0.00982666,0.6412964,0.21875,-0.078125,0.125
1696253404836,0.7807617,-0.006164551,0.649353,0.0625,-0.09375,0.609375
1696253404879,0.78808594,-0.020812988,0.64398193,0.46875,0.59375,0.484375
1696253404916,0.78564453,-0.011779785,0.6408081,0.265625,0.171875,0.34375
1696253404958,0.7729492,-0.010803223,0.64178467,-0.046875,-0.984375,0.515625
1696253404997,0.7861328,-0.018371582,0.63568115,-0.890625,-0.046875,0.28125
1696253405036,0.7866211,-0.0076293945,0.6552124,-1.90625,-0.265625,0.203125
1696253405078,0.8173828,0.0053100586,0.7201538,5.125,5.125,0.40625
1696253405116,0.7607422,-0.028625488,0.60321045,3.53125,-3.28125,3.03125
1696253405156,0.73217773,-0.0010375977,0.64520264,8.390625,-0.34375,2.015625
1696253405196,0.81591797,0.0018920898,0.67059326,5.71875,1.34375,-1.84375
1696253405236,0.80249023,-0.030090332,0.63153076,1.78125,-0.734375,0.15625
1696253405281,0.7902832,-0.03692627,0.6522827,-1.8125,-2.109375,-0.4375
1696253405317,0.7636719,-0.014465332,0.6676636,0.46875,-2.90625,-1.71875
1696253405355,0.79174805,-0.05230713,0.61712646,4.03125,-1.40625,-1.734375
1696253405396,0.7753906,-0.038391113,0.6276245,1.0625,-2.03125,0.28125
1696253405437,0.79296875,-0.020080566,0.6342163,2.0625,0.671875,1.6875
1696253405478,0.77563477,-0.023742676,0.62371826,2.21875,0.703125,1.921875
1696253405498,0.77075195,-0.03668213,0.63153076,2.125,-1.890625,0.671875
1696253405538,0.7619629,-0.024230957,0.6088257,0.265625,-6.5625,0.15625
1696253405578,0.76220703,-0.019348145,0.65130615,-1.84375,-7.21875,0.203125
1696253405616,0.8010254,-0.05987549,0.69818115,0.6875,-2.359375,0.140625
1696253405659,0.8029785,-0.070129395,0.6679077,-2.9375,-1.4375,-0.109375
1696253405696,0.7685547,-0.011779785,0.6508179,-5.6875,-4.234375,-0.6875
1696253405739,0.74487305,-6.1035156E-5,0.6473999,-2.84375,-2.5,-0.078125
1696253405777,0.75390625,-0.03765869,0.6847534,1.40625,-0.578125,0.0625
1696253405820,0.75927734,-0.066711426,0.6876831,-0.65625,-2.296875,0.25
1696253405858,0.7661133,-0.026916504,0.680603,-1.140625,-1.625,-0.65625
1696253405897,0.7536621,-0.015197754,0.6618042,0.15625,-0.890625,0.28125
1696253405938,0.7619629,-0.027648926,0.6671753,0.890625,-0.078125,0.390625
1696253405978,0.76538086,-0.02545166,0.6786499,0.140625,-0.140625,0.109375
1696253406020,0.77075195,-0.035217285,0.66571045,-1.546875,-1.046875,0.421875
1696253406058,0.76953125,-0.022033691,0.66571045,-0.125,-0.8125,0.328125
1696253406099,0.76000977,-0.02130127,0.66864014,-0.421875,-0.96875,0.3125
1696253406137,0.7614746,-0.02960205,0.6679077,-0.890625,-0.8125,0.234375
1696253406178,0.7487793,-0.03326416,0.6708374,-0.84375,-1.484375,-0.109375
1696253406217,0.7487793,-0.03253174,0.68182373,-0.578125,-1.171875,-0.390625
1696253406259,0.76293945,-0.024475098,0.67645264,-1.046875,-1.015625,-0.15625
1696253406299,0.7553711,-0.016906738,0.68670654,-0.125,-1.15625,-0.140625
1696253406338,0.7512207,-0.02911377,0.67767334,-0.703125,-0.90625,0.46875
1696253406377,0.7531738,-0.018859863,0.67840576,-0.6875,-0.125,0.5625
1696253406417,0.75341797,-0.022766113,0.6769409,0.484375,0.015625,0.6875
1696253406457,0.7661133,-0.027893066,0.6725464,0.546875,-0.5625,0.046875
1696253406500,0.7619629,-0.020812988,0.67181396,-0.15625,-0.28125,-0.375
1696253406537,0.7573242,-0.024475098,0.68084717,0.0,-0.015625,0.15625
1696253406578,0.7602539,-0.028381348,0.6744995,-0.234375,-0.34375,-0.046875
1696253406617,0.7597656,-0.022521973,0.67401123,-0.359375,0.265625,0.09375
1696253406660,0.7585449,-0.02545166,0.68182373,-1.28125,-1.046875,0.203125
1696253406698,0.75634766,-0.020812988,0.67718506,-0.546875,-1.46875,0.09375
1696253406738,0.7565918,-0.027648926,0.69281006,0.0,-0.09375,0.015625
1696253406776,0.7597656,-0.028137207,0.67962646,-0.21875,0.578125,-0.046875
1696253406796,0.75756836,-0.020568848,0.6642456,-0.640625,-0.421875,-0.09375
1696253406837,0.75,-0.02154541,0.682312,-0.59375,-0.078125,0.03125
1696253406877,0.7636719,-0.021057129,0.68377686,-0.671875,0.21875,0.5625
1696253406919,0.76708984,-0.014465332,0.6737671,-1.15625,-0.5625,0.015625
1696253406956,0.7614746,-0.022277832,0.68792725,-1.28125,-1.15625,-0.15625
1696253406997,0.7636719,-0.026428223,0.6769409,-1.5,-0.734375,-0.203125
1696253407039,0.76708984,-0.016906738,0.67718506,-1.953125,0.203125,0.015625
1696253407076,0.75341797,-0.0154418945,0.67401123,-0.453125,0.75,0.265625
1696253407117,0.75219727,-0.020812988,0.68133545,-0.109375,0.484375,0.03125
1696253407157,0.77319336,-0.015197754,0.66156006,-0.21875,0.453125,0.0625
1696253407197,0.75439453,-0.019348145,0.67059326,-0.375,0.4375,0.453125
1696253407238,0.7614746,-0.0134887695,0.6810913,-0.546875,0.234375,0.453125
1696253407281,0.7661133,-0.02154541,0.6737671,-0.3125,-0.015625,0.234375
1696253407318,0.7734375,-0.01373291,0.66986084,-0.0625,0.390625,0.34375
1696253407360,0.7597656,-0.023254395,0.68011475,0.3125,0.96875,1.046875
1696253407399,0.76904297,-0.019104004,0.6520386,-0.484375,0.84375,1.484375
1696253407438,0.75512695,-0.0064086914,0.6635132,1.15625,0.71875,0.96875
1696253407477,0.7661133,-0.014953613,0.65838623,0.71875,-0.1875,0.828125
1696253407520,0.7663574,-0.014953613,0.6622925,-0.8125,-0.859375,0.484375
1696253407555,0.7614746,-0.008361816,0.66400146,-0.421875,1.0625,-0.203125
1696253407597,0.7692871,-0.01373291,0.66204834,-0.90625,0.578125,-0.078125
1696253407637,0.7739258,-0.012756348,0.6605835,-0.421875,-0.203125,-0.078125
1696253407678,0.7709961,-0.0095825195,0.6576538,-1.59375,-0.1875,0.375
1696253407718,0.7680664,-0.015930176,0.6598511,-0.625,-0.03125,0.265625
1696253407756,0.7709961,-0.020324707,0.6571655,-0.640625,0.53125,0.59375
1696253407799,0.782959,-0.013977051,0.6586304,0.046875,0.5,0.34375
1696253407838,0.77612305,-0.016906738,0.6708374,1.265625,0.75,0.046875
1696253407879,0.76538086,-0.012023926,0.6557007,1.125,0.84375,0.28125
1696253407917,0.77368164,-0.0037231445,0.65374756,0.03125,-0.375,0.21875
1696253407961,0.7687988,4.272461E-4,0.6564331,1.0,0.0625,-0.1875
1696253407998,0.7792969,-0.01373291,0.6508179,-0.75,-0.25,-0.25
1696253408040,0.77783203,-0.0095825195,0.6588745,-1.0,-0.4375,-0.09375
1696253408117,0.78271484,-0.019592285,0.65618896,-0.9375,-1.171875,0.328125
1696253408120,0.7663574,-0.020568848,0.6605835,-0.46875,-0.640625,0.390625
1696253408137,0.7668457,-0.013977051,0.6598511,-0.5,-1.375,0.265625
1696253408197,0.78100586,-0.0134887695,0.6605835,0.453125,0.34375,0.015625
1696253408217,0.76708984,-0.006652832,0.66741943,1.46875,0.84375,0.546875
1696253408257,0.74853516,-0.024963379,0.6400757,0.46875,-0.640625,1.546875
1696253408316,0.7751465,-0.0029907227,0.65545654,1.28125,1.171875,0.53125
1696253408356,0.78515625,-0.0010375977,0.6586304,1.5625,1.015625,0.109375
1696253408375,0.7932129,-0.019592285,0.6449585,0.09375,-1.75,-0.390625
1696253408415,0.77783203,-0.012512207,0.65008545,-1.578125,-1.84375,0.140625
1696253408457,0.77075195,-0.0095825195,0.6400757,-2.171875,-0.109375,0.546875
1696253408496,0.78686523,-0.010314941,0.6630249,-0.734375,0.125,-0.234375
1696253408538,0.7739258,-0.022033691,0.66571045,-0.5,-1.296875,-0.3125
1696253408577,0.78027344,-0.015930176,0.66033936,-0.71875,-1.109375,-0.046875
1696253408618,0.7734375,-0.008605957,0.6532593,0.140625,0.046875,0.296875
1696253408658,0.7717285,-0.0134887695,0.651062,-0.75,0.0,0.296875
1696253408697,0.7709961,-0.009094238,0.66156006,-0.03125,-0.15625,0.15625
1696253408739,0.77490234,-0.0134887695,0.65252686,0.296875,-1.015625,0.6875
1696253408779,0.77734375,-0.004699707,0.6478882,0.03125,-0.453125,0.203125
1696253408819,0.77246094,-0.014709473,0.6618042,0.015625,0.125,0.359375
1696253408882,0.7861328,-0.0154418945,0.6557007,-0.328125,-0.375,0.046875
1696253408897,0.7775879,-0.0064086914,0.65740967,0.34375,-0.03125,0.234375
1696253408939,0.7741699,-0.0154418945,0.65740967,-0.140625,-0.53125,0.09375
1696253408979,0.7722168,-0.014221191,0.652771,-0.734375,-0.46875,0.59375
1696253409018,0.77856445,-0.010314941,0.65667725,0.46875,0.140625,0.578125
1696253409079,0.7741699,-0.02154541,0.651062,0.078125,-0.125,0.484375
1696253409098,0.7807617,-0.012268066,0.65667725,-0.578125,-0.03125,0.015625
1696253409158,0.7805176,-0.014953613,0.6503296,-0.203125,0.1875,0.34375
1696253409176,0.77905273,-0.015197754,0.63983154,-0.453125,0.109375,0.46875
1696253409217,0.7770996,0.0028686523,0.64886475,-0.125,-0.0625,-0.0625
1696253409279,0.7727051,-0.009094238,0.65618896,-0.59375,-0.9375,0.34375
1696253409296,0.77685547,-0.015686035,0.651062,0.03125,-0.03125,0.28125
1696253409337,0.7792969,-0.008850098,0.6552124,0.390625,0.0625,-0.140625
1696253409380,0.78027344,-0.0032348633,0.64642334,-0.296875,-0.28125,-0.046875
1696253409418,0.7866211,-0.0076293945,0.66033936,0.5,0.9375,0.390625
1696253409436,0.78125,-0.018859863,0.6491089,-1.125,0.390625,0.296875
1696253409479,0.7766113,-0.006652832,0.64764404,-0.546875,-0.296875,-0.046875
1696253409518,0.7792969,-0.003967285,0.6376343,0.234375,0.5,0.296875
1696253409557,0.78759766,-0.016418457,0.6437378,0.640625,0.015625,0.90625
1696253409599,0.78125,-0.0037231445,0.6520386,0.0,-0.421875,0.640625
1696253409638,0.77685547,-0.008361816,0.64593506,-0.8125,-1.140625,-0.109375
1696253409680,0.77612305,-0.0064086914,0.6403198,-0.71875,-0.328125,-0.046875
1696253409718,0.78564453,-0.0022583008,0.6461792,-0.234375,0.0,0.078125
1696253409758,0.7832031,-0.0095825195,0.6466675,-0.234375,-0.75,0.421875
1696253409798,0.7841797,-0.014465332,0.6491089,-0.421875,-0.296875,0.375
1696253409838,0.78393555,-0.0068969727,0.6508179,-0.140625,0.171875,0.328125
1696253409878,0.7770996,-0.0044555664,0.64056396,-0.53125,-0.9375,0.296875
1696253409916,0.78393555,-0.0010375977,0.64349365,-0.234375,-0.078125,0.265625
1696253409959,0.78125,0.0040893555,0.6412964,-0.34375,-0.828125,0.4375
1696253409998,0.7741699,-0.006652832,0.6532593,0.4375,-0.8125,-0.140625
1696253410041,0.78125,-0.012512207,0.64349365,-0.3125,-0.5625,-0.4375
1696253410078,0.7890625,-0.0025024414,0.63812256,-0.046875,-0.546875,0.078125
1696253410119,0.7873535,-0.002746582,0.6442261,-0.890625,-1.265625,-0.078125
1696253410158,0.78466797,-0.012756348,0.65496826,-0.40625,-0.609375,0.125
1696253410200,0.7963867,-3.0517578E-4,0.68670654,4.09375,1.609375,-0.625
1696253410239,0.8078613,-0.03326416,0.6713257,9.71875,0.46875,-1.046875
1696253410276,0.7529297,-0.04815674,0.60272217,4.609375,-5.5625,-2.9375
1696253410316,0.7241211,-0.008850098,0.6781616,2.921875,-2.5625,-5.703125
1696253410358,0.78125,-0.02545166,0.68499756,1.546875,-6.609375,-2.703125
1696253410396,0.8149414,-0.025939941,0.6310425,-3.84375,-1.921875,2.5
1696253410437,0.78125,-0.037902832,0.68011475,3.65625,3.484375,0.34375
1696253410477,0.8010254,-0.06890869,0.6535034,1.796875,3.4375,-3.203125
1696253410517,0.782959,-0.045715332,0.63323975,3.75,1.03125,0.875
1696253410558,0.77001953,-0.025939941,0.63812256,1.78125,-3.03125,2.90625
1696253410597,0.75927734,-0.03375244,0.6022339,2.71875,-0.421875,2.71875
1696253410636,0.71313477,-0.026428223,0.6244507,2.078125,-6.171875,1.796875
1696253410677,0.7519531,-0.027893066,0.66815186,-0.90625,-10.578125,2.546875
1696253410739,0.8105469,-0.074035645,0.696228,0.53125,-1.703125,2.25
1696253410757,0.81762695,-0.043029785,0.6845093,-4.15625,-0.03125,-0.390625
1696253410777,0.7573242,-0.026184082,0.65667725,-4.15625,-3.484375,-1.984375
1696253410842,0.72875977,-0.0037231445,0.64471436,-3.03125,-2.390625,-0.75
1696253410856,0.75439453,-0.026428223,0.6876831,1.734375,1.671875,1.0
1696253410901,0.7727051,-0.09527588,0.6911011,2.0,-0.40625,2.03125
1696253410938,0.7746582,-0.06549072,0.6766968,-1.734375,-2.234375,-0.390625
1696253410977,0.73828125,-0.012023926,0.67230225,1.0,-0.984375,-0.046875
1696253411017,0.7434082,0.0036010742,0.68499756,2.640625,0.125,0.328125
1696253411058,0.7546387,-0.023254395,0.682312,1.0625,1.546875,1.3125
1696253411098,0.767334,-0.035217285,0.6696167,-0.03125,-0.03125,0.75
1696253411138,0.76831055,-0.034240723,0.666687,-1.375,-0.46875,0.203125
1696253411178,0.7636719,-0.030822754,0.6598511,-0.875,-1.15625,0.65625
1696253411219,0.7561035,-0.031311035,0.66156006,-0.78125,-0.90625,0.375
1696253411257,0.76171875,-0.049865723,0.6779175,0.59375,0.3125,-0.109375
1696253411299,0.7819824,-0.05230713,0.67303467,-0.421875,-1.125,-0.34375
1696253411338,0.7492676,-0.020568848,0.6679077,-0.28125,-0.984375,-0.859375
1696253411377,0.7434082,-0.019348145,0.67962646,0.484375,-0.90625,0.203125
1696253411418,0.74975586,-0.024719238,0.6744995,0.296875,-0.015625,0.640625
1696253411460,0.75097656,-0.0335083,0.6749878,-0.28125,-0.09375,0.375
1696253411496,0.75878906,-0.035217285,0.66619873,-1.90625,-0.421875,0.390625
1696253411539,0.7614746,-0.018859863,0.6703491,-1.015625,0.171875,0.953125
1696253411580,0.76586914,-0.030822754,0.6815796,-1.53125,-0.296875,-0.015625
1696253411627,0.767334,-0.037902832,0.67767334,-1.765625,0.46875,0.03125
1696253411659,0.7746582,-0.031799316,0.6676636,-1.203125,-0.25,0.15625
1696253411696,0.7631836,-0.019348145,0.6703491,-1.703125,0.125,0.640625
1696253411738,0.75805664,-0.023742676,0.67401123,-0.375,-0.125,0.421875
1696253411777,0.7583008,-0.024719238,0.67889404,-0.1875,-0.53125,0.375
1696253411817,0.75927734,-0.031555176,0.6679077,-0.1875,0.078125,0.65625
1696253411857,0.76123047,-0.019348145,0.6708374,-0.34375,0.34375,0.265625
1696253411899,0.77001953,-0.022033691,0.6720581,-1.078125,-0.859375,-0.21875
1696253411938,0.77197266,-0.019592285,0.6803589,-0.265625,0.46875,0.703125
1696253411977,0.7675781,-0.025939941,0.66326904,-1.203125,-0.34375,0.859375
1696253412038,0.7512207,-0.016174316,0.668396,-0.625,-0.125,0.359375
1696253412056,0.7548828,-0.015686035,0.6679077,-0.515625,-0.4375,0.03125
1696253412097,0.7626953,-0.0154418945,0.67718506,-0.25,0.015625,0.171875
1696253412117,0.75927734,-0.018859863,0.66278076,-1.109375,-0.6875,-0.1875
1696253412158,0.7663574,-0.0071411133,0.67059326,-1.96875,-0.703125,-0.421875
1696253412198,0.75683594,-0.013244629,0.67840576,-0.28125,-0.015625,-0.046875
1696253412236,0.76464844,-0.016174316,0.67767334,-0.15625,-0.421875,0.171875
1696253412279,0.76538086,-0.020812988,0.6552124,-1.09375,-0.59375,0.453125
1696253412321,0.7702637,-0.009338379,0.66400146,-0.125,-0.328125,0.296875
1696253412381,0.7775879,-0.018127441,0.67718506,-0.15625,-0.171875,0.40625
1696253412396,0.7607422,-0.027160645,0.666687,-0.296875,0.125,0.546875
1696253412437,0.7553711,-0.014709473,0.65252686,-2.28125,-1.0625,-0.328125
1696253412478,0.7565918,-0.0064086914,0.6688843,0.28125,0.625,-0.34375
1696253412538,0.7705078,-0.02178955,0.68133545,-0.359375,-0.203125,0.578125
1696253412558,0.77368164,-0.014953613,0.66448975,-0.03125,-1.125,-0.25
1696253412599,0.7636719,-0.010559082,0.66693115,-0.109375,-1.1875,0.375
1696253412637,0.7636719,-0.016662598,0.6664429,-0.1875,1.25,0.828125
1696253412680,0.763916,-0.01739502,0.67181396,-0.34375,-1.375,-0.09375
1696253412719,0.765625,-0.0115356445,0.66082764,-0.359375,-0.484375,-0.0625
1696253412758,0.7668457,-0.0025024414,0.66326904,-0.0625,-0.5625,0.03125
1696253412798,0.7663574,-0.015197754,0.68011475,-0.296875,-0.390625,-0.15625
1696253412837,0.7697754,-0.02130127,0.6744995,-0.609375,-0.828125,-0.4375
1696253412879,0.7619629,-0.00982666,0.66693115,-0.84375,-1.234375,-0.03125
1696253412917,0.7648926,-0.006164551,0.66815186,0.609375,-0.71875,0.71875
1696253412958,0.763916,-0.016662598,0.684021,0.734375,0.265625,1.515625
1696253412997,0.76000977,-0.030334473,0.6725464,0.359375,0.359375,1.078125
1696253413037,0.7561035,-0.016174316,0.65740967,0.4375,-0.21875,-0.234375
1696253413078,0.7734375,-0.0017700195,0.66278076,0.734375,-0.53125,0.1875
1696253413141,0.7692871,-0.010070801,0.66522217,0.34375,-0.578125,0.21875
1696253413158,0.7751465,-0.02154541,0.6642456,-0.578125,-0.984375,-0.109375
1696253413200,0.7687988,-0.0029907227,0.65911865,-0.234375,-0.953125,-0.40625
1696253413239,0.76782227,-0.005432129,0.666687,-0.578125,-1.0,-0.046875
1696253413301,0.7578125,-0.010070801,0.67230225,-0.71875,-0.78125,0.359375
1696253413359,0.7578125,-0.026916504,0.6781616,-0.84375,-0.703125,0.671875
1696253413362,0.75878906,-0.014953613,0.68182373,0.265625,-0.1875,0.078125
1696253413377,0.7626953,-0.017150879,0.6774292,0.21875,0.078125,-0.3125
1696253413418,0.7619629,-0.0049438477,0.67230225,0.59375,0.203125,-0.078125
1696253413456,0.7636719,-0.01739502,0.6581421,-0.484375,0.65625,0.46875
1696253413497,0.7717285,-0.011047363,0.6713257,-0.453125,0.15625,0.28125
1696253413538,0.77368164,-0.014465332,0.6600952,-0.015625,-0.40625,0.15625
1696253413576,0.7661133,-0.009338379,0.66204834,-0.234375,0.078125,-0.125
1696253413619,0.76708984,-0.008361816,0.65911865,-0.578125,-0.6875,0.3125
1696253413658,0.7675781,-0.0095825195,0.6630249,-0.828125,-0.46875,0.328125
1696253413698,0.76342773,-0.00592041,0.670105,-0.328125,-0.296875,-0.078125
1696253413738,0.7668457,-0.0134887695,0.67401123,0.015625,-1.09375,-0.359375
1696253413778,0.7624512,-0.007873535,0.6688843,-0.375,-0.34375,0.359375
1696253413818,0.76464844,-0.014709473,0.6727905,0.359375,0.015625,0.671875
1696253413858,0.7702637,-0.011047363,0.66864014,0.140625,-0.4375,0.0625
1696253413898,0.7687988,-0.011779785,0.66571045,-0.140625,-0.546875,0.453125
1696253413938,0.7663574,-0.013977051,0.6664429,-0.09375,-0.5625,0.546875
1696253413978,0.7727051,-0.00982666,0.6610718,-0.359375,0.140625,0.03125
1696253414018,0.7729492,-0.013244629,0.6637573,-0.625,-0.6875,0.09375
1696253414059,0.7663574,-0.0068969727,0.66864014,-0.640625,-0.875,0.265625
1696253414098,0.7714844,-0.0029907227,0.6737671,-0.28125,-0.234375,0.515625
1696253414137,0.7705078,-0.009338379,0.67767334,-0.125,0.0625,0.640625
1696253414177,0.76049805,-0.0115356445,0.6774292,-0.390625,-0.078125,0.171875
1696253414218,0.76953125,-0.003967285,0.66400146,-1.171875,1.390625,0.625
1696253414261,0.7626953,0.0033569336,0.6588745,-0.828125,1.453125,0.890625
1696253414297,0.76464844,-0.015930176,0.65789795,0.9375,0.84375,0.015625
1696253414339,0.76904297,-0.00982666,0.6625366,1.640625,0.59375,-0.078125
1696253414377,0.77783203,-0.005432129,0.64715576,1.3125,-0.265625,0.28125
1696253414418,0.7783203,-5.493164E-4,0.6581421,-0.015625,-0.171875,0.578125
1696253414459,0.7741699,-0.012268066,0.65960693,-0.75,0.203125,0.53125
1696253414498,0.7832031,-0.009338379,0.65252686,-0.28125,-0.234375,0.234375
1696253414538,0.7692871,-0.00592041,0.6696167,-0.3125,-0.859375,0.15625
1696253414579,0.77319336,-0.012756348,0.6588745,-0.75,-0.59375,0.4375
1696253414618,0.765625,-0.0068969727,0.6605835,0.078125,-0.734375,0.703125
1696253414679,0.76904297,-0.006652832,0.6571655,0.078125,-0.21875,0.234375
1696253414699,0.7800293,0.0040893555,0.6605835,0.40625,0.375,0.015625
1696253414719,0.77856445,-0.0095825195,0.66204834,0.34375,-0.421875,0.234375
1696253414779,0.78393555,-0.014221191,0.65130615,-0.203125,-0.15625,-0.015625
1696253414798,0.78149414,-0.008850098,0.6456909,-0.078125,-1.09375,-0.15625
1696253414839,0.7722168,-0.0044555664,0.6552124,-0.40625,-0.75,0.484375
1696253414878,0.76708984,-0.011047363,0.65374756,-0.703125,-0.359375,0.40625
1696253414917,0.7714844,-0.0037231445,0.6515503,-0.546875,-0.296875,0.078125
1696253414959,0.7807617,-0.0051879883,0.65911865,-0.09375,-0.859375,-0.03125
1696253415000,0.76831055,-0.006652832,0.66156006,0.453125,-0.53125,0.359375
1696253415040,0.76708984,-0.015686035,0.664978,0.28125,0.203125,0.0625
1696253415077,0.77319336,-0.004699707,0.65130615,-0.5,-0.390625,0.265625
1696253415121,0.7727051,-5.493164E-4,0.6564331,0.6875,-0.28125,0.15625
1696253415161,0.7734375,-0.013000488,0.6581421,0.0,-0.546875,0.421875
1696253415197,0.7817383,-0.006164551,0.64959717,-0.625,-1.3125,-0.140625
1696253415237,0.7727051,6.713867E-4,0.6508179,0.515625,-1.28125,-0.59375
1696253415279,0.7770996,-0.013000488,0.6708374,2.71875,0.578125,-0.6875
1696253415338,0.77978516,-0.024719238,0.6749878,1.296875,1.203125,-1.25
1696253415356,0.751709,-0.0056762695,0.6749878,5.25,3.75,-4.234375
1696253415398,0.7976074,-0.03302002,0.6613159,3.015625,-2.9375,-4.3125
1696253415436,0.7980957,-0.011291504,0.6654663,-3.421875,-5.953125,-0.59375
1696253415477,0.7519531,-0.008605957,0.66937256,3.953125,-2.40625,1.875
1696253415516,0.7858887,-0.062561035,0.66156006,3.671875,-1.8125,1.921875
1696253415559,0.7573242,-0.061340332,0.6481323,2.0,-0.953125,1.171875
1696253415597,0.7590332,-0.026672363,0.6688843,0.171875,-0.5625,0.671875
1696253415639,0.7819824,9.1552734E-4,0.6234741,0.34375,1.765625,0.40625
1696253415678,0.7536621,-0.02178955,0.6256714,-1.609375,-1.828125,1.421875
1696253415718,0.7512207,-0.01373291,0.6454468,-1.8125,-5.9375,0.53125
1696253415756,0.75219727,-0.02545166,0.67108154,2.046875,-0.890625,1.453125
1696253415799,0.8010254,-0.061828613,0.68182373,1.453125,-0.296875,1.75
1696253415841,0.79833984,-0.035949707,0.68084717,-4.15625,-3.4375,0.21875
1696253415876,0.7504883,0.0018920898,0.66986084,-5.0,-4.765625,-0.921875
1696253415918,0.7258301,-3.0517578E-4,0.66815186,-1.015625,-1.609375,0.453125
1696253415977,0.7390137,-0.030334473,0.711853,8.28125,3.8125,1.765625
1696253415996,0.763916,-0.06060791,0.6820679,5.09375,5.0625,1.765625
1696253416017,0.7717285,-0.031066895,0.6647339,3.125,2.0,1.3125
1696253416059,0.7590332,-0.0010375977,0.6564331,2.765625,-1.171875,1.1875
1696253416097,0.76708984,-0.010070801,0.6586304,1.625,0.578125,0.578125
1696253416137,0.7729492,-0.045715332,0.666687,-1.28125,-0.53125,0.8125
1696253416178,0.78222656,-0.039367676,0.6654663,-0.765625,-1.640625,-0.15625
1696253416217,0.7746582,-0.026184082,0.6515503,0.3125,-0.375,-0.5625
1696253416259,0.77368164,-0.02960205,0.6600952,-0.59375,-1.484375,0.140625
1696253416297,0.7602539,-0.034973145,0.66741943,-1.40625,-0.984375,0.4375
1696253416359,0.7619629,-0.031555176,0.666687,-0.890625,-1.25,0.125
1696253416376,0.7607422,-0.027648926,0.6791382,0.609375,-0.671875,-0.6875
1696253416420,0.76171875,-0.028869629,0.680603,0.46875,-1.6875,-0.34375
1696253416480,0.77612305,-0.029846191,0.67401123,-0.765625,-0.359375,0.3125
1696253416498,0.76342773,-0.02960205,0.66741943,0.453125,1.90625,0.671875
1696253416542,0.76660156,-0.034484863,0.66522217,1.125,1.078125,0.828125
1696253416600,0.77001953,-0.02935791,0.6588745,2.046875,2.515625,1.125
1696253416619,0.7915039,-0.02154541,0.66326904,5.03125,6.125,2.578125
1696253416680,0.78930664,-0.046936035,0.6449585,7.671875,7.546875,4.640625
1696253416698,0.7404785,-0.02520752,0.6593628,1.84375,-0.765625,2.484375
1696253416739,0.7722168,-0.018127441,0.6449585,-0.90625,1.953125,-1.390625
1696253416777,0.814209,-0.050842285,0.6300659,1.0,1.71875,0.078125
1696253416841,0.78393555,-0.050598145,0.651062,-1.9375,-0.03125,-0.015625
1696253416856,0.76782227,-0.03692627,0.6376343,-3.0,-3.25,-1.53125
1696253416900,0.7775879,-0.035461426,0.6366577,-2.84375,-0.40625,-0.390625
1696253416940,0.78564453,-0.044006348,0.6588745,-0.890625,-1.71875,-0.546875
1696253416979,0.78686523,-0.03326416,0.6486206,-0.578125,-2.140625,-0.96875
1696253417017,0.7558594,-0.013244629,0.6408081,-2.28125,-3.546875,-1.46875
1696253417058,0.77197266,-0.040100098,0.6359253,-0.25,-1.578125,0.265625
1696253417098,0.81103516,-0.06719971,0.64715576,-1.296875,-1.15625,0.515625
1696253417139,0.7824707,-0.033996582,0.6647339,-2.515625,-1.390625,-0.421875
1696253417177,0.7692871,-0.007873535,0.6469116,-2.28125,-0.6875,-0.71875
1696253417218,0.7780762,-0.01373291,0.652771,-0.953125,2.734375,0.078125
1696253417284,0.7980957,-0.038391113,0.63568115,-1.0,1.484375,0.609375
1696253417296,0.77441406,-0.04937744,0.64105225,-0.734375,-0.671875,0.890625
1696253417320,0.77246094,-0.03277588,0.637146,-0.65625,-1.171875,-0.046875
1696253417359,0.7775879,-0.025939941,0.64837646,0.109375,-0.28125,0.03125
1696253417399,0.7861328,-0.02178955,0.6557007,0.40625,-0.640625,0.0
1696253417441,0.7775879,-0.016174316,0.6444702,-1.015625,-1.015625,-0.015625
1696253417479,0.77783203,-0.024719238,0.6547241,-0.25,-0.421875,0.234375
1696253417518,0.782959,-0.028625488,0.6598511,-0.109375,0.390625,-0.359375
1696253417558,0.7871094,-0.034484863,0.64764404,-0.8125,-0.765625,-0.234375
1696253417598,0.78515625,-0.023010254,0.6437378,-1.34375,-0.890625,0.171875
1696253417638,0.77197266,-0.031066895,0.64056396,-0.0625,0.609375,0.78125
1696253417679,0.782959,-0.023498535,0.65130615,0.609375,1.125,0.96875
1696253417718,0.79052734,-0.019348145,0.6703491,2.203125,3.4375,1.15625
1696253417760,0.78344727,-0.042297363,0.63275146,-0.453125,2.515625,1.859375
1696253417799,0.78466797,-0.018127441,0.6210327,0.171875,1.15625,1.546875
1696253417840,0.78637695,-0.01373291,0.6273804,0.796875,1.140625,0.703125
1696253417878,0.78149414,-0.023010254,0.62615967,0.671875,-0.03125,0.296875
1696253417917,0.7883301,-0.026672363,0.6286011,-0.09375,-1.140625,0.125
1696253417958,0.78881836,-0.015930176,0.63397217,-1.375,-2.125,0.0
1696253417997,0.7895508,-0.017150879,0.6390991,-1.828125,-2.109375,-0.1875
1696253418040,0.7792969,-0.02545166,0.65008545,-1.546875,-2.0625,-0.21875
1696253418080,0.7939453,-0.022277832,0.64715576,-1.90625,-2.421875,-0.5
1696253418119,0.7841797,-0.010559082,0.6430054,-1.765625,-1.796875,-0.015625
1696253418162,0.78466797,-0.023742676,0.64642334,-1.859375,-1.515625,-0.265625
1696253418197,0.7824707,-0.017150879,0.6420288,-1.5625,-1.53125,0.109375
1696253418239,0.7849121,-0.026184082,0.6400757,-0.78125,-1.34375,-0.03125
1696253418278,0.8041992,-0.007385254,0.66156006,-2.28125,-1.34375,1.09375
1696253418317,0.7631836,-0.026916504,0.6461792,-2.921875,-0.546875,0.21875
1696253418358,0.77734375,-0.009094238,0.649353,-0.296875,-1.078125,-0.875
1696253418398,0.77783203,-0.0022583008,0.64520264,-0.484375,-1.609375,-0.140625
1696253418437,0.77197266,-0.0022583008,0.6581421,-0.46875,-0.734375,0.078125
1696253418478,0.7714844,-0.010070801,0.66619873,-0.703125,-0.78125,1.078125
1696253418518,0.76538086,-0.008117676,0.6508179,0.03125,-0.09375,0.4375
1696253418559,0.77197266,-0.01373291,0.65618896,-0.609375,-0.703125,-0.0625
1696253418619,0.7727051,-0.008605957,0.65838623,-0.5625,0.203125,0.078125
1696253418637,0.78808594,-0.012023926,0.63934326,-1.078125,-0.875,-0.203125
1696253418657,0.79248047,-0.01373291,0.64471436,-0.25,-1.046875,-0.09375
1696253418701,0.7956543,-0.010314941,0.6466675,0.390625,-0.125,0.640625
1696253418738,0.78930664,-0.015686035,0.66204834,0.46875,-0.625,-0.140625
1696253418797,0.7910156,-0.012512207,0.64642334,0.0,-1.03125,0.0
1696253418817,0.7687988,-0.0044555664,0.64520264,-0.421875,-0.78125,0.078125
1696253418857,0.7548828,-0.012023926,0.6557007,-0.265625,0.4375,0.15625
1696253418898,0.7751465,-0.012023926,0.65740967,0.0,-0.703125,0.015625
1696253418959,0.7792969,-0.003479004,0.6557007,-0.171875,0.25,-0.0625
1696253418977,0.7836914,-0.0095825195,0.6610718,-0.015625,0.21875,1.03125
1696253419040,0.7717285,-0.008605957,0.6442261,-1.078125,-0.09375,1.8125
1696253419057,0.78466797,-0.009338379,0.64593506,-1.046875,0.015625,1.875
1696253419121,0.7705078,-0.013000488,0.64837646,-0.25,0.28125,1.21875
1696253419136,0.77905273,-0.010559082,0.65057373,0.671875,0.296875,-0.21875
1696253419198,0.7922363,-0.00982666,0.64056396,0.953125,0.234375,-0.421875
1696253419217,0.78271484,0.0045776367,0.64520264,0.015625,-0.671875,-0.125
1696253419257,0.7832031,0.0067749023,0.65911865,-0.046875,0.25,0.296875
1696253419321,0.7883301,-0.007385254,0.64593506,-0.21875,0.1875,0.328125
1696253419337,0.7807617,-0.0076293945,0.64227295,0.078125,-0.921875,0.265625
1696253419402,0.7766113,-0.0076293945,0.6491089,-0.359375,-0.34375,0.8125
1696253419417,0.78125,-0.010314941,0.64764404,0.578125,0.109375,0.6875
1696253419458,0.7841797,-0.014953613,0.65179443,2.125,-0.09375,0.5
1696253419502,0.7783203,-0.013977051,0.65130615,0.53125,-0.6875,0.828125
1696253419540,0.7973633,0.0040893555,0.6400757,-0.171875,0.0625,0.265625
1696253419578,0.7897949,0.0028686523,0.6400757,0.40625,-0.109375,0.09375
1696253419620,0.7770996,-0.0037231445,0.6454468,0.21875,-1.046875,0.125
1696253419681,0.7729492,-0.003479004,0.64105225,-0.265625,0.0625,0.703125
1696253419719,0.77563477,-0.010070801,0.6442261,0.015625,-0.078125,0.53125
1696253419738,0.78100586,-0.0056762695,0.6444702,-0.140625,-0.3125,0.078125
1696253419777,0.78515625,0.0038452148,0.65448,-0.25,-0.53125,0.0
1696253419817,0.7832031,-0.003479004,0.6432495,-0.109375,-0.140625,0.03125
1696253419858,0.7956543,-0.0015258789,0.64642334,-0.265625,0.09375,0.265625
1696253419920,0.78881836,-0.0056762695,0.6312866,-0.046875,0.65625,0.203125
1696253419960,0.7739258,-0.0017700195,0.64178467,-0.203125,-0.90625,0.40625
1696253419964,0.7800293,-0.010314941,0.6481323,-0.4375,-1.109375,0.3125
1696253419997,0.7871094,4.272461E-4,0.637146,0.140625,-0.296875,-0.296875
1696253420037,0.78515625,-0.0032348633,0.6522827,-0.0625,-0.71875,-0.15625
1696253420078,0.7824707,-0.0015258789,0.63934326,-0.484375,-0.703125,0.109375
1696253420117,0.7741699,-0.0068969727,0.65179443,-0.234375,-0.5,0.15625
1696253420162,0.7832031,-0.0064086914,0.6383667,-0.71875,-0.8125,0.0625
1696253420198,0.78759766,-0.0020141602,0.64227295,-0.140625,-0.828125,0.078125
1696253420237,0.7854004,-0.004211426,0.64764404,-0.890625,-1.296875,0.203125
1696253420278,0.7739258,-0.002746582,0.6466675,-1.15625,-1.375,0.421875
1696253420321,0.782959,-0.0025024414,0.6466675,0.515625,-2.125,0.59375
1696253420358,0.79125977,1.8310547E-4,0.67523193,3.265625,-3.75,0.75
1696253420400,0.7714844,-0.012512207,0.6622925,2.640625,-5.265625,-0.671875
1696253420436,0.7492676,0.0045776367,0.69207764,3.359375,-1.765625,-2.5625
1696253420477,0.77124023,-0.0134887695,0.68377686,4.890625,-0.15625,-0.671875
1696253420517,0.81030273,-0.030334473,0.64715576,4.046875,3.3125,-1.15625
1696253420558,0.7687988,-0.033996582,0.65496826,2.84375,-2.265625,0.125
1696253420600,0.7727051,-0.019104004,0.6395874,3.84375,-2.953125,0.265625
1696253420636,0.7751465,-0.019836426,0.6166382,3.46875,1.4375,1.484375
1696253420677,0.7480469,-0.04083252,0.65252686,3.875,-0.671875,2.09375
1696253420717,0.75756836,-0.021057129,0.6190796,-0.921875,-3.234375,-0.03125
1696253420759,0.7783203,-0.009338379,0.6535034,0.234375,-0.3125,0.796875
1696253420798,0.7844238,-0.06060791,0.6766968,-0.875,1.703125,2.484375
1696253420838,0.7854004,-0.045959473,0.6647339,-3.921875,-1.75,0.515625
1696253420882,0.767334,-0.008850098,0.64715576,-6.625,-4.34375,-1.46875
1696253420920,0.7446289,0.016052246,0.67181396,-1.40625,-1.265625,-0.171875
1696253420958,0.7475586,-0.018615723,0.6713257,1.015625,-1.125,1.09375
1696253420998,0.7709961,-0.033996582,0.6881714,1.28125,-0.78125,-0.515625
1696253421037,0.7585449,-0.03302002,0.67352295,1.703125,0.171875,0.03125
1696253421078,0.7805176,-0.028137207,0.6581421,0.640625,-0.84375,0.328125
1696253421118,0.77978516,-0.016906738,0.66937256,0.484375,1.078125,0.640625
1696253421160,0.76782227,-0.026672363,0.6691284,-0.859375,0.515625,0.640625
1696253421201,0.7597656,-0.026672363,0.65911865,-0.125,-0.28125,0.203125
1696253421238,0.7651367,-0.017150879,0.6466675,0.125,-0.25,0.234375
1696253421257,0.77734375,-0.010559082,0.6600952,-0.453125,0.46875,0.40625
1696253421298,0.77197266,-0.0134887695,0.6852417,1.171875,-0.09375,0.109375
1696253421338,0.763916,-0.0256958,0.666687,2.59375,-1.046875,0.390625
1696253421378,0.75439453,-0.023254395,0.6461792,1.375,-0.09375,0.703125
1696253421439,0.7861328,-0.03692627,0.6618042,-0.109375,1.5625,1.53125
1696253421456,0.78027344,-0.035949707,0.6642456,-1.703125,1.3125,1.125
1696253421498,0.7727051,-0.024719238,0.6520386,-1.078125,-0.328125,-0.625
1696253421538,0.76831055,-0.017150879,0.65130615,-0.4375,-0.5,0.46875
1696253421578,0.7741699,-0.018615723,0.649353,-1.140625,0.78125,0.921875
1696253421639,0.78564453,-0.019104004,0.66278076,0.078125,-0.3125,0.25
1696253421658,0.76171875,-0.017150879,0.6613159,0.859375,-1.0,-0.03125
1696253421723,0.74438477,-0.018127441,0.63031006,-1.0625,-1.921875,1.0625
1696253421739,0.77075195,-0.020812988,0.652771,-3.3125,0.96875,0.4375
1696253421799,0.8000488,-0.016418457,0.66400146,-3.15625,2.234375,-1.078125
1696253421816,0.78393555,-0.028869629,0.6547241,-3.046875,-1.3125,-1.03125
1696253421856,0.779541,-0.023010254,0.6329956,-3.21875,-1.5,-1.0625
1696253421902,0.7631836,-0.005432129,0.65301514,-0.796875,0.390625,0.015625
1696253421940,0.7739258,-0.0044555664,0.64837646,-0.46875,-0.0625,1.0625
1696253422000,0.77856445,-0.015686035,0.6737671,0.28125,-0.890625,0.703125
1696253422017,0.77978516,-0.019104004,0.664978,0.5,-0.328125,0.203125
1696253422080,0.76171875,-0.007873535,0.65789795,-0.46875,-1.109375,-0.234375
1696253422097,0.7675781,0.0014038086,0.6522827,-0.375,-0.5625,0.1875
1696253422140,0.7661133,-0.009094238,0.6535034,-0.234375,-0.265625,-0.046875
1696253422178,0.7734375,-0.010559082,0.6432495,-1.34375,-1.0,-0.46875
1696253422217,0.77563477,0.0033569336,0.6547241,-0.453125,-0.5625,-0.1875
1696253422260,0.7739258,-0.012023926,0.6635132,0.109375,-0.90625,0.1875
1696253422299,0.77075195,-0.011047363,0.6618042,-0.203125,-1.6875,0.40625
1696253422339,0.76953125,-0.0095825195,0.67767334,0.59375,-0.8125,0.1875
1696253422398,0.77075195,-0.014953613,0.6520386,0.0,-1.203125,0.09375
1696253422417,0.7758789,-0.008605957,0.6598511,0.328125,-0.078125,-0.21875
1696253422478,0.76831055,-0.0134887695,0.6571655,-0.71875,-0.234375,0.15625
1696253422498,0.77246094,-0.018127441,0.6486206,-0.53125,0.328125,0.328125
1696253422538,0.77783203,-0.007873535,0.65448,-0.75,0.140625,-0.046875
1696253422557,0.7824707,-0.0095825195,0.65374756,-0.34375,-0.4375,0.34375
1696253422598,0.7783203,-0.012512207,0.66204834,-0.671875,-0.390625,0.40625
1696253422638,0.76904297,-0.01373291,0.652771,-0.78125,-0.671875,0.21875
1696253422678,0.77075195,-0.0076293945,0.652771,-0.96875,-1.0,-0.0625
1696253422717,0.7788086,-0.010559082,0.6571655,-0.390625,-0.109375,0.21875
1696253422758,0.78222656,-0.013000488,0.6600952,-0.296875,-0.59375,0.515625
1696253422798,0.7763672,-0.0115356445,0.6598511,-0.625,-1.09375,0.171875
1696253422836,0.76660156,-0.004699707,0.65789795,0.203125,-0.34375,0.375
1696253422877,0.7597656,-0.0010375977,0.6715698,2.390625,0.453125,1.171875
1696253422917,0.7561035,-0.006652832,0.6432495,-0.203125,-1.84375,0.421875
1696253422960,0.7595215,0.0021362305,0.6679077,1.15625,1.15625,-1.5
1696253422999,0.77124023,-0.024230957,0.6547241,-0.5625,1.0,0.609375
1696253423038,0.7910156,-0.013244629,0.6376343,-1.5625,-1.03125,0.578125
1696253423078,0.7907715,-0.009338379,0.6581421,-0.828125,-0.125,0.515625
1696253423119,0.7766113,-0.008117676,0.65789795,0.640625,-0.25,0.40625
1696253423159,0.7702637,-0.015686035,0.6503296,-0.140625,-0.296875,0.3125
1696253423196,0.79956055,-0.011047363,0.6520386,-0.296875,0.59375,0.5625
1696253423237,0.7927246,-0.004699707,0.6557007,0.40625,0.734375,0.5
1696253423278,0.7775879,-0.0134887695,0.6654663,0.328125,0.515625,0.375
1696253423319,0.76953125,-0.00592041,0.63397217,-1.0625,1.3125,1.625
1696253423357,0.78149414,0.00579834,0.65838623,2.09375,3.171875,1.421875
1696253423398,0.79052734,0.012145996,0.66082764,4.21875,4.5625,3.875
1696253423438,0.829834,-5.493164E-4,0.6154175,5.234375,4.5625,6.515625
1696253423480,0.77075195,-0.014465332,0.6124878,5.171875,6.125,5.34375
1696253423519,0.7878418,-0.043273926,0.6017456,3.71875,7.0,0.96875
1696253423558,0.7741699,0.003112793,0.62371826,1.625,-0.359375,-0.171875
1696253423598,0.7961426,0.026550293,0.602478,-1.09375,-0.0625,0.328125
1696253423636,0.78930664,0.020690918,0.6220093,0.125,-2.015625,-0.328125
1696253423679,0.8112793,-0.008361816,0.63397217,0.671875,0.0,-1.4375
1696253423721,0.8066406,-0.013244629,0.61932373,0.734375,-2.515625,-0.546875
1696253423760,0.79663086,-0.002746582,0.60687256,-1.4375,-0.1875,0.34375
1696253423798,0.79418945,-0.004211426,0.61932373,-1.5625,0.90625,1.75
1696253423838,0.7885742,-0.010559082,0.63201904,0.328125,0.171875,0.046875
1696253423856,0.8005371,-0.023986816,0.6107788,0.53125,-0.5,-0.0625
1696253423897,0.8173828,-5.493164E-4,0.6102905,-0.671875,0.453125,-0.0625
1696253423939,0.7993164,-6.1035156E-5,0.6132202,-1.71875,-0.171875,0.328125
1696253423978,0.8132324,-0.0056762695,0.621521,-0.75,-1.03125,-0.5
1696253424019,0.8071289,0.005065918,0.61834717,-0.546875,-0.796875,-0.34375
1696253424069,0.8078613,0.006286621,0.6156616,-0.796875,-0.515625,0.59375
1696253424098,0.80493164,-0.005432129,0.60736084,-0.828125,0.421875,0.8125
1696253424138,0.8105469,-0.006164551,0.62908936,-0.5,1.109375,0.21875
1696253424177,0.7858887,0.0016479492,0.6190796,-1.578125,0.46875,0.21875
1696253424238,0.8015137,0.0053100586,0.6100464,-0.96875,0.3125,0.625
1696253424257,0.81591797,0.005065918,0.62127686,-0.0625,1.265625,0.609375
1696253424299,0.7939453,0.006286621,0.60858154,-0.8125,-0.390625,0.84375
1696253424338,0.810791,0.008483887,0.6066284,-0.65625,0.71875,0.359375
1696253424380,0.8059082,0.0028686523,0.60687256,-0.03125,0.984375,0.65625
1696253424417,0.8066406,0.0067749023,0.6054077,-0.515625,0.421875,0.6875
1696253424480,0.79248047,0.008239746,0.6071167,-1.0625,-0.625,0.4375
1696253424521,0.814209,0.008728027,0.6022339,-0.390625,1.015625,-0.1875
1696253424539,0.8095703,0.007507324,0.5975952,-0.21875,-0.53125,-0.296875
1696253424578,0.8149414,0.0067749023,0.6102905,-0.96875,-0.1875,-0.125
1696253424639,0.8129883,0.0065307617,0.6078491,-0.28125,-0.5,0.78125
1696253424657,0.80981445,0.0053100586,0.61151123,-0.84375,-0.5625,0.90625
1696253424720,0.8125,0.009216309,0.607605,-0.140625,-0.375,0.109375
1696253424738,0.80078125,1.8310547E-4,0.6088257,-0.125,0.078125,0.40625
1696253424780,0.8046875,-6.1035156E-5,0.60491943,-0.46875,-0.875,0.390625
1696253424820,0.80810547,0.009460449,0.6119995,-0.25,-2.453125,-0.4375
1696253424882,0.8051758,0.014831543,0.6022339,-0.078125,-0.46875,-0.828125
1696253424897,0.8352051,0.015075684,0.60736084,-0.0625,-0.15625,-0.046875
1696253424940,0.8171387,0.005065918,0.6054077,-0.421875,0.125,0.796875
1696253424980,0.7961426,0.0026245117,0.6078491,-1.84375,-0.84375,0.703125
1696253425020,0.8029785,0.012145996,0.6112671,-0.9375,0.828125,0.28125
1696253425060,0.8100586,0.0033569336,0.5985718,-0.078125,0.359375,-0.21875
1696253425098,0.8125,0.014831543,0.6090698,-0.390625,-0.015625,0.078125
1696253425161,0.8066406,0.015319824,0.6117554,0.0,0.453125,1.203125
1696253425179,0.81884766,6.713867E-4,0.59832764,0.609375,1.5,0.734375
1696253425199,0.83569336,0.011657715,0.604187,0.796875,0.59375,0.453125
1696253425237,0.82421875,0.02557373,0.59490967,0.484375,-0.359375,1.859375
1696253425278,0.8017578,0.01776123,0.5985718,0.109375,-0.546875,1.984375
1696253425320,0.80981445,0.0065307617,0.5946655,0.6875,0.625,0.5625
1696253425360,0.80249023,0.009460449,0.59954834,2.015625,-0.015625,-0.03125
1696253425396,0.8083496,0.016052246,0.59295654,0.171875,-0.140625,0.5625
1696253425438,0.8059082,0.018737793,0.5956421,-0.8125,-0.125,0.234375
1696253425476,0.8129883,0.012634277,0.5988159,-0.09375,0.546875,-0.171875
1696253425518,0.81396484,0.018737793,0.59710693,-0.296875,-0.296875,-0.421875
1696253425559,0.8137207,0.0119018555,0.59954834,-0.15625,-0.25,-0.1875
1696253425596,0.81933594,0.0014038086,0.5819702,-2.09375,-1.375,-0.546875
1696253425636,0.8198242,6.713867E-4,0.60321045,-5.0,-3.34375,-2.40625
1696253425679,0.76586914,0.015808105,0.6154175,-4.140625,-4.8125,-5.3125
1696253425719,0.71118164,9.1552734E-4,0.6119995,2.453125,-6.234375,-6.734375
1696253425758,0.86816406,0.008239746,0.63690186,8.203125,-6.921875,-7.625
1696253425796,0.85791016,0.0060424805,0.62005615,6.390625,-13.921875,-2.9375
1696253425838,0.7824707,-0.03741455,0.65789795,2.53125,-4.578125,-2.328125
1696253425878,0.83691406,-0.020568848,0.6593628,-3.09375,-3.484375,0.140625
1696253425917,0.8005371,-0.041809082,0.60369873,1.421875,1.15625,4.015625
1696253425960,0.75927734,-0.033996582,0.6090698,6.046875,-1.265625,-1.25
1696253425999,0.7692871,-0.02960205,0.5897827,3.609375,-2.03125,0.21875
1696253426039,0.7722168,-0.0044555664,0.60198975,1.25,-0.078125,3.734375
1696253426080,0.7800293,-0.011291504,0.6637573,-0.046875,-2.40625,3.75
1696253426118,0.8232422,-0.062561035,0.6654663,-0.8125,0.4375,1.609375
1696253426158,0.78100586,-0.018859863,0.64886475,-4.859375,0.03125,0.9375
1696253426199,0.7956543,-0.0071411133,0.6503296,-4.640625,-4.296875,-2.09375
1696253426237,0.7675781,0.010925293,0.6366577,-0.90625,0.59375,-0.515625
1696253426278,0.7739258,-0.031799316,0.65301514,0.15625,-0.703125,1.65625
1696253426319,0.77197266,-0.03302002,0.6679077,-0.96875,-0.875,1.65625
1696253426358,0.7861328,-0.025939941,0.64398193,-0.546875,-0.046875,0.1875
1696253426401,0.7878418,-0.0044555664,0.64227295,-0.0625,-1.546875,0.21875
1696253426439,0.7819824,-0.0051879883,0.6569214,0.71875,-1.453125,0.9375
1696253426479,0.8041992,-0.0095825195,0.65179443,-1.421875,-2.859375,0.5625
1696253426517,0.7817383,-0.009338379,0.63397217,-1.421875,-2.90625,0.625
1696253426539,0.76220703,0.0014038086,0.6503296,0.140625,-1.828125,0.09375
1696253426600,0.7548828,1.8310547E-4,0.6564331,-1.046875,-1.375,-0.328125
1696253426618,0.7753906,-0.010070801,0.6535034,-2.203125,-1.53125,-0.578125
1696253426659,0.76586914,0.0021362305,0.664978,-0.53125,-1.5,-0.890625
1696253426719,0.7685547,-0.019104004,0.66741943,1.4375,0.171875,0.5625
1696253426738,0.7727051,-0.016662598,0.6696167,-0.28125,-0.40625,0.40625
1696253426778,0.78564453,-0.00982666,0.65545654,-0.9375,-1.484375,-0.671875
1696253426817,0.7788086,-0.012512207,0.66033936,-0.46875,-1.390625,-0.484375
1696253426857,0.7692871,-0.010314941,0.6559448,-0.25,-0.0625,1.03125
1696253426898,0.76660156,-0.0095825195,0.66326904,-1.28125,-1.03125,0.28125
1696253426939,0.7626953,-0.013244629,0.6559448,-1.4375,-1.359375,-0.4375
1696253426978,0.7895508,-0.009094238,0.6593628,-0.78125,-1.875,-0.671875
1696253427019,0.78271484,0.0014038086,0.66619873,-0.515625,-2.9375,0.203125
1696253427059,0.7487793,-6.1035156E-5,0.67059326,-0.671875,-2.53125,0.765625
1696253427117,0.7446289,-0.016662598,0.67645264,-1.046875,-1.09375,0.078125
1696253427138,0.7578125,-0.0044555664,0.6664429,-0.53125,-0.359375,-0.1875
1696253427200,0.76171875,0.0065307617,0.6737671,-0.203125,-0.578125,-0.109375
1696253427216,0.76171875,-0.0012817383,0.68304443,0.140625,-0.125,0.4375
1696253427258,0.76782227,-0.010070801,0.66741943,0.125,0.828125,0.5625
1696253427299,0.7636719,-0.011047363,0.6654663,0.609375,-0.125,0.71875
1696253427359,0.7668457,-0.009094238,0.6688843,0.234375,0.375,0.671875
1696253427378,0.7570801,-0.008605957,0.6630249,0.25,0.359375,0.484375
1696253427440,0.7739258,-0.0049438477,0.6559448,0.453125,0.171875,0.125
1696253427483,0.7800293,-0.0022583008,0.6586304,0.59375,-0.328125,0.109375
1696253427497,0.7668457,-0.0056762695,0.6586304,-0.59375,-0.265625,0.109375
1696253427538,0.77001953,-0.0044555664,0.666687,-1.28125,-0.90625,-0.1875
1696253427578,0.77075195,-0.0095825195,0.66693115,-0.109375,-0.28125,-0.28125
1696253427640,0.7680664,-0.003479004,0.66571045,-0.5,-0.859375,0.015625
1696253427678,0.7644043,-0.0071411133,0.6539917,-0.65625,-0.6875,0.359375
1696253427699,0.7619629,-0.003967285,0.6671753,-0.578125,-0.296875,0.296875
1696253427762,0.767334,-0.008850098,0.67230225,0.203125,-0.125,0.390625
1696253427778,0.76782227,-0.008117676,0.6654663,-0.140625,-0.65625,-0.171875
1696253427799,0.7753906,-7.9345703E-4,0.6635132,-0.03125,-0.609375,-0.046875
