,timestamp,accel_x,accel_y,accel_z,gyro_x,gyro_y,gyro_z,ind
0,1696253895091,-0.41552734,-0.15997314,-0.86920166,-0.125,-0.390625,0.1875,0
1,1696253895131,-0.41992188,-0.16265869,-0.8726196,-0.09375,-0.390625,0.15625,1
2,1696253895171,-0.41625977,-0.15875244,-0.86676025,0.109375,-0.34375,0.265625,2
3,1696253895211,-0.41308594,-0.1572876,-0.8711548,-0.125,-0.328125,0.265625,3
4,1696253895251,-0.4128418,-0.16265869,-0.862854,-0.140625,-0.390625,0.015625,4
5,1696253895291,-0.42016602,-0.15826416,-0.8689575,-0.34375,-0.546875,0.234375,5
6,1696253895331,-0.4169922,-0.16168213,-0.86798096,-0.28125,-0.484375,0.265625,6
7,1696253895371,-0.41845703,-0.16070557,-0.85772705,-0.265625,-0.484375,0.140625,7
8,1696253895411,-0.42016602,-0.1651001,-0.8706665,-0.53125,-0.609375,0.15625,8
9,1696253895451,-0.40551758,-0.15924072,-0.8635864,-0.234375,-0.4375,0.265625,9
10,1696253895491,-0.41381836,-0.15435791,-0.8674927,-0.1875,-0.75,0.265625,10
11,1696253895531,-0.4128418,-0.15997314,-0.8772583,-0.421875,-0.546875,0.265625,11
12,1696253895571,-0.4086914,-0.16290283,-0.86602783,-0.375,-0.484375,0.28125,12
13,1696253895611,-0.41577148,-0.16461182,-0.8674927,-0.21875,-0.578125,-0.0625,13
14,1696253895651,-0.42016602,-0.16070557,-0.8706665,-0.421875,-0.421875,0.21875,14
15,1696253895691,-0.40966797,-0.16436768,-0.8713989,-0.328125,-0.765625,0.328125,15
16,1696253895731,-0.40966797,-0.15826416,-0.86920166,-0.25,-0.46875,0.3125,16
17,1696253895771,-0.40698242,-0.16802979,-0.86260986,-0.203125,-0.546875,0.171875,17
18,1696253895811,-0.4152832,-0.16802979,-0.87335205,-0.46875,-0.75,0.203125,18
19,1696253895851,-0.41601562,-0.16583252,-0.86968994,-0.296875,-0.5625,0.21875,19
20,1696253895891,-0.41088867,-0.16656494,-0.86920166,-0.328125,-0.625,0.25,20
21,1696253895931,-0.4104004,-0.1741333,-0.8648071,-0.140625,-0.46875,0.1875,21
22,1696253895971,-0.41381836,-0.1638794,-0.87457275,-0.171875,-0.5625,0.1875,22
23,1696253896011,-0.40722656,-0.1638794,-0.8682251,-0.0625,-0.546875,0.203125,23
24,1696253896051,-0.4038086,-0.16119385,-0.86260986,0.515625,-0.125,0.1875,24
25,1696253896091,-0.4099121,-0.16705322,-0.86553955,0.859375,-0.5,0.0,25
26,1696253896131,-0.41137695,-0.1651001,-0.87042236,0.9375,-0.609375,0.0625,26
27,1696253896171,-0.41430664,-0.16192627,-0.86968994,0.578125,-0.3125,0.09375,27
28,1696253896211,-0.4152832,-0.16168213,-0.8740845,-0.09375,-0.59375,0.109375,28
29,1696253896251,-0.40966797,-0.16314697,-0.8689575,0.03125,-0.140625,0.0625,29
30,1696253896291,-0.41210938,-0.15362549,-0.8689575,-0.234375,-0.375,0.21875,30
31,1696253896331,-0.40356445,-0.16046143,-0.8677368,-0.21875,-0.21875,0.15625,31
32,1696253896371,-0.4091797,-0.1651001,-0.87213135,-0.21875,-0.5625,0.265625,32
33,1696253896411,-0.41333008,-0.16436768,-0.8699341,0.015625,-0.1875,0.171875,33
34,1696253896451,-0.41357422,-0.15948486,-0.87042236,0.171875,-0.1875,0.21875,34
35,1696253896491,-0.41064453,-0.1638794,-0.86676025,-0.078125,-0.53125,0.15625,35
36,1696253896531,-0.41430664,-0.1687622,-0.8674927,0.078125,-0.78125,0.28125,36
37,1696253896571,-0.41088867,-0.16119385,-0.87286377,0.203125,-0.15625,-0.015625,37
38,1696253896611,-0.4111328,-0.1572876,-0.8699341,-0.109375,-0.296875,0.125,38
39,1696253896651,-0.4104004,-0.15655518,-0.8723755,-0.109375,-0.515625,0.375,39
40,1696253896691,-0.41430664,-0.16461182,-0.87091064,-0.140625,-0.296875,0.140625,40
41,1696253896731,-0.40527344,-0.16412354,-0.862854,0.09375,-0.0625,0.078125,41
42,1696253896771,-0.41333008,-0.15533447,-0.87091064,-0.140625,-0.171875,0.25,42
43,1696253896811,-0.40844727,-0.16192627,-0.8743286,0.03125,-0.28125,0.15625,43
44,1696253896851,-0.41210938,-0.1609497,-0.8723755,-0.171875,-0.421875,0.1875,44
45,1696253896891,-0.4116211,-0.1585083,-0.8687134,-0.21875,-0.375,0.09375,45
46,1696253896931,-0.4140625,-0.1572876,-0.8674927,0.28125,-0.234375,0.265625,46
47,1696253896971,-0.4111328,-0.15875244,-0.87286377,0.046875,-0.375,0.15625,47
48,1696253897011,-0.41674805,-0.16265869,-0.8689575,0.140625,-0.265625,0.09375,48
49,1696253897051,-0.41455078,-0.16168213,-0.86798096,-0.15625,-0.578125,0.15625,49
50,1696253897091,-0.41015625,-0.16778564,-0.8694458,0.015625,-0.375,0.1875,50
51,1696253897131,-0.40478516,-0.15679932,-0.86260986,-0.046875,-0.21875,0.109375,51
52,1696253897171,-0.41064453,-0.15582275,-0.8743286,-0.234375,-0.53125,0.078125,52
53,1696253897211,-0.42114258,-0.16363525,-0.8687134,0.03125,-0.484375,0.0625,53
54,1696253897251,-0.41235352,-0.16119385,-0.86846924,-0.265625,-0.234375,0.234375,54
55,1696253897291,-0.40795898,-0.1638794,-0.87286377,-0.640625,0.265625,0.21875,55
56,1696253897331,-0.41992188,-0.16680908,-0.87042236,-0.28125,0.078125,0.34375,56
57,1696253897371,-0.4111328,-0.15997314,-0.864563,-0.265625,-0.0625,0.265625,57
58,1696253897411,-0.41186523,-0.16290283,-0.86846924,-0.03125,-0.421875,0.203125,58
59,1696253897451,-0.41503906,-0.16461182,-0.8689575,-0.125,-0.5,-0.03125,59
60,1696253897491,-0.41381836,-0.15948486,-0.87384033,-0.125,-0.703125,0.234375,60
61,1696253897531,-0.41333008,-0.159729,-0.8687134,0.015625,-0.46875,0.109375,61
62,1696253897571,-0.41503906,-0.16119385,-0.8682251,0.171875,-0.1875,0.171875,62
63,1696253897611,-0.40844727,-0.16558838,-0.8731079,0.265625,-0.21875,0.03125,63
64,1696253897651,-0.41674805,-0.15655518,-0.8682251,0.21875,-0.15625,0.21875,64
65,1696253897691,-0.4182129,-0.15924072,-0.87457275,0.015625,0.125,0.25,65
66,1696253897731,-0.4165039,-0.15924072,-0.86724854,0.15625,0.078125,0.0625,66
67,1696253897771,-0.41601562,-0.16265869,-0.87457275,-0.015625,-0.1875,0.03125,67
68,1696253897811,-0.4177246,-0.1572876,-0.8623657,-0.03125,-0.046875,0.28125,68
69,1696253897851,-0.42163086,-0.15924072,-0.8677368,0.140625,-0.390625,0.0,69
70,1696253897891,-0.41333008,-0.16290283,-0.8689575,0.015625,-0.21875,0.0625,70
71,1696253897931,-0.42456055,-0.15704346,-0.87457275,-0.0625,-0.34375,0.109375,71
72,1696253897971,-0.4165039,-0.16558838,-0.87164307,-0.21875,-0.453125,0.15625,72
73,1696253898011,-0.41577148,-0.16412354,-0.86309814,0.125,-0.34375,0.125,73
74,1696253898051,-0.41625977,-0.15777588,-0.87213135,0.796875,-0.046875,0.125,74
75,1696253898091,-0.4152832,-0.15533447,-0.8699341,0.46875,0.078125,0.015625,75
76,1696253898131,-0.42285156,-0.16021729,-0.8713989,0.53125,-0.140625,0.125,76
77,1696253898171,-0.41259766,-0.15826416,-0.86016846,0.265625,-0.296875,0.25,77
78,1696253898211,-0.42016602,-0.15362549,-0.8674927,0.28125,-0.421875,0.078125,78
79,1696253898251,-0.42504883,-0.15582275,-0.86846924,0.046875,-0.40625,0.03125,79
80,1696253898291,-0.41845703,-0.15948486,-0.86968994,-0.140625,-0.359375,0.125,80
81,1696253898331,-0.41577148,-0.15924072,-0.86602783,-0.140625,-0.328125,0.203125,81
82,1696253898371,-0.4128418,-0.15899658,-0.8687134,-0.09375,-0.375,0.203125,82
83,1696253898411,-0.4189453,-0.15997314,-0.8599243,0.328125,-0.3125,0.21875,83
84,1696253898451,-0.41870117,-0.15631104,-0.8701782,0.109375,-0.34375,0.109375,84
85,1696253898491,-0.4194336,-0.15216064,-0.86968994,0.0625,-0.484375,0.046875,85
86,1696253898531,-0.41992188,-0.15557861,-0.87457275,-0.203125,-0.46875,0.109375,86
87,1696253898571,-0.41796875,-0.16143799,-0.8665161,-0.078125,-0.203125,0.078125,87
88,1696253898611,-0.4169922,-0.15582275,-0.86920166,0.1875,-0.359375,0.1875,88
89,1696253898651,-0.41235352,-0.15509033,-0.8665161,0.578125,-0.28125,0.21875,89
90,1696253898691,-0.41748047,-0.1482544,-0.8706665,0.5625,-0.34375,0.125,90
91,1696253898731,-0.41357422,-0.1453247,-0.8648071,0.203125,-0.28125,0.046875,91
92,1696253898771,-0.41748047,-0.1560669,-0.86846924,0.046875,-0.109375,0.171875,92
93,1696253898811,-0.41552734,-0.15020752,-0.8657837,-0.0625,-0.140625,0.125,93
94,1696253898851,-0.4267578,-0.1572876,-0.86676025,-0.09375,-0.328125,0.3125,94
95,1696253898891,-0.41796875,-0.15802002,-0.86431885,-0.09375,-0.484375,0.234375,95
96,1696253898931,-0.42797852,-0.16021729,-0.86065674,-0.078125,-0.546875,0.203125,96
97,1696253898971,-0.42333984,-0.15802002,-0.8701782,-0.25,-0.421875,0.140625,97
98,1696253899011,-0.42089844,-0.15509033,-0.86260986,-0.078125,-0.34375,0.375,98
99,1696253899051,-0.4165039,-0.14996338,-0.86602783,-0.3125,-0.390625,0.3125,99
100,1696253899091,-0.41552734,-0.15411377,-0.87042236,-0.125,-0.421875,0.03125,100
101,1696253899131,-0.42407227,-0.15264893,-0.8648071,-0.21875,-0.46875,0.109375,101
102,1696253899171,-0.40942383,-0.15411377,-0.8665161,0.078125,-0.328125,0.203125,102
103,1696253899211,-0.42016602,-0.15460205,-0.8740845,-0.046875,-0.328125,0.21875,103
104,1696253899251,-0.4206543,-0.1519165,-0.86553955,0.28125,-0.265625,0.15625,104
105,1696253899291,-0.42407227,-0.16314697,-0.8687134,0.265625,-0.1875,0.125,105
106,1696253899331,-0.42382812,-0.15435791,-0.86920166,0.265625,-0.421875,0.171875,106
107,1696253899371,-0.41796875,-0.15338135,-0.8652954,0.078125,-0.40625,-0.03125,107
108,1696253899411,-0.41674805,-0.14849854,-0.8609009,0.015625,-0.34375,0.234375,108
109,1696253899451,-0.41992188,-0.15484619,-0.8621216,0.359375,-0.328125,0.1875,109
110,1696253899491,-0.41601562,-0.15582275,-0.86553955,0.5625,-0.40625,0.109375,110
111,1696253899531,-0.4260254,-0.15460205,-0.87213135,0.0,-0.515625,0.28125,111
112,1696253899571,-0.4230957,-0.14556885,-0.8718872,-0.21875,-0.34375,0.125,112
113,1696253899611,-0.42163086,-0.1506958,-0.8665161,-0.203125,-0.40625,0.125,113
114,1696253899651,-0.4206543,-0.15557861,-0.86383057,-0.203125,-0.484375,0.125,114
115,1696253899691,-0.4194336,-0.1531372,-0.87384033,-0.578125,-0.5,0.078125,115
116,1696253899731,-0.41992188,-0.15435791,-0.86920166,-0.46875,-0.578125,0.21875,116
117,1696253899771,-0.41235352,-0.1585083,-0.8665161,-0.25,-0.28125,0.1875,117
118,1696253899811,-0.41748047,-0.15386963,-0.86968994,-0.140625,-0.4375,0.125,118
119,1696253899851,-0.41601562,-0.15338135,-0.86431885,-0.109375,-0.34375,0.125,119
120,1696253899891,-0.4165039,-0.15411377,-0.86431885,-0.34375,-0.453125,0.1875,120
121,1696253899931,-0.4182129,-0.15240479,-0.86505127,-0.359375,-0.453125,0.046875,121
122,1696253899971,-0.41918945,-0.15216064,-0.878479,-0.703125,-0.765625,0.140625,122
123,1696253900011,-0.41479492,-0.15655518,-0.86431885,-0.328125,-0.6875,0.171875,123
124,1696253900051,-0.41870117,-0.15924072,-0.86846924,0.0625,-0.65625,0.0625,124
125,1696253900091,-0.41992188,-0.15875244,-0.8670044,0.375,-0.609375,0.078125,125
126,1696253900131,-0.4152832,-0.15093994,-0.861145,0.203125,-0.375,0.171875,126
127,1696253900171,-0.41333008,-0.15777588,-0.8694458,-0.203125,-0.625,0.109375,127
128,1696253900211,-0.42236328,-0.15484619,-0.8670044,-0.078125,-0.296875,0.078125,128
129,1696253900251,-0.41967773,-0.15631104,-0.87335205,-0.1875,-0.390625,0.171875,129
130,1696253900291,-0.42114258,-0.15167236,-0.85894775,-0.234375,-0.34375,0.171875,130
131,1696253900331,-0.4194336,-0.15533447,-0.85943604,-0.125,-0.453125,0.25,131
132,1696253900371,-0.4189453,-0.15533447,-0.8616333,0.03125,-0.484375,0.265625,132
133,1696253900411,-0.41992188,-0.15826416,-0.878479,-0.25,-0.546875,0.328125,133
134,1696253900451,-0.42016602,-0.15020752,-0.86431885,-0.140625,-0.25,0.171875,134
135,1696253900491,-0.4206543,-0.15826416,-0.8706665,-0.265625,-0.71875,0.21875,135
136,1696253900531,-0.42211914,-0.15826416,-0.86676025,0.09375,-0.359375,0.0625,136
137,1696253900571,-0.4194336,-0.15631104,-0.86920166,-0.203125,-0.609375,0.09375,137
138,1696253900611,-0.41430664,-0.15240479,-0.86602783,-0.546875,-0.375,0.203125,138
139,1696253900651,-0.41870117,-0.1560669,-0.8699341,-0.375,-0.28125,0.28125,139
140,1696253900691,-0.41992188,-0.15753174,-0.85772705,-0.1875,-0.171875,0.0,140
141,1696253900731,-0.42236328,-0.15509033,-0.8648071,-0.453125,-0.578125,0.09375,141
142,1696253900771,-0.41259766,-0.16119385,-0.8640747,-0.03125,-0.453125,0.3125,142
143,1696253900811,-0.41870117,-0.15899658,-0.86383057,-0.3125,-0.453125,0.1875,143
144,1696253900851,-0.4111328,-0.16046143,-0.86505127,0.0,-0.390625,0.09375,144
145,1696253900891,-0.41577148,-0.15655518,-0.8772583,-0.046875,-0.5625,0.078125,145
146,1696253900931,-0.4177246,-0.16046143,-0.8682251,-0.453125,-0.46875,0.234375,146
147,1696253900971,-0.4152832,-0.15826416,-0.8657837,-0.125,-0.375,0.109375,147
148,1696253901011,-0.42089844,-0.15875244,-0.8665161,-0.75,-0.84375,0.21875,148
149,1696253901051,-0.41796875,-0.16168213,-0.87384033,-0.703125,-0.46875,0.265625,149
150,1696253901091,-0.41748047,-0.15924072,-0.866272,-0.40625,-0.234375,0.046875,150
151,1696253901131,-0.41479492,-0.16217041,-0.86260986,0.03125,-0.4375,0.078125,151
152,1696253901171,-0.41552734,-0.15997314,-0.8682251,0.0,-0.6875,0.15625,152
153,1696253901211,-0.40649414,-0.16192627,-0.8731079,-0.203125,-0.390625,0.15625,153
154,1696253901251,-0.41796875,-0.16656494,-0.8677368,0.046875,-0.203125,0.1875,154
155,1696253901291,-0.42041016,-0.16217041,-0.86968994,0.21875,-0.140625,0.015625,155
156,1696253901331,-0.42089844,-0.1609497,-0.8682251,0.671875,-0.4375,0.03125,156
157,1696253901371,-0.4182129,-0.15655518,-0.86676025,0.5625,-0.5,0.09375,157
158,1696253901411,-0.42333984,-0.15655518,-0.86968994,0.125,-0.390625,0.171875,158
159,1696253901451,-0.42407227,-0.15802002,-0.86968994,-0.046875,-0.3125,0.109375,159
160,1696253901491,-0.42333984,-0.16143799,-0.866272,0.015625,-0.28125,0.1875,160
161,1696253901531,-0.41748047,-0.15997314,-0.86798096,-0.234375,-0.421875,0.140625,161
162,1696253901571,-0.41845703,-0.15777588,-0.8689575,-0.03125,-0.484375,-0.03125,162
163,1696253901611,-0.4182129,-0.1572876,-0.8689575,-0.015625,-0.46875,0.171875,163
164,1696253901651,-0.41625977,-0.15631104,-0.86187744,0.046875,-0.21875,0.109375,164
165,1696253901691,-0.41210938,-0.16558838,-0.8743286,-0.34375,-0.53125,0.21875,165
166,1696253901731,-0.4099121,-0.1585083,-0.86553955,-0.046875,-0.390625,-0.015625,166
167,1696253901771,-0.4189453,-0.15631104,-0.8682251,0.078125,-0.53125,0.03125,167
168,1696253901811,-0.42089844,-0.15362549,-0.8699341,0.0625,-0.140625,0.09375,168
169,1696253901851,-0.4206543,-0.159729,-0.8596802,0.15625,-0.125,0.125,169
170,1696253901891,-0.41796875,-0.16339111,-0.8701782,-0.15625,0.140625,0.296875,170
171,1696253901931,-0.4194336,-0.15875244,-0.8723755,-0.765625,-0.03125,0.34375,171
172,1696253901971,-0.42163086,-0.16168213,-0.8694458,-0.21875,-0.0625,0.265625,172
173,1696253902011,-0.41455078,-0.15753174,-0.8648071,-0.125,-0.078125,0.234375,173
174,1696253902051,-0.41430664,-0.16168213,-0.8616333,-0.328125,-0.46875,0.171875,174
175,1696253902091,-0.4165039,-0.15997314,-0.8687134,-0.203125,-0.40625,0.234375,175
176,1696253902131,-0.42089844,-0.16192627,-0.86920166,-0.1875,-0.796875,0.21875,176
177,1696253902171,-0.42407227,-0.1572876,-0.87213135,-0.25,-0.640625,0.078125,177
178,1696253902211,-0.42358398,-0.16265869,-0.86846924,0.0625,-0.5,0.140625,178
179,1696253902251,-0.41625977,-0.16339111,-0.8616333,0.0,-0.21875,0.21875,179
180,1696253902291,-0.4116211,-0.16290283,-0.8633423,-0.109375,-0.453125,0.140625,180
181,1696253902331,-0.41967773,-0.16241455,-0.864563,-0.125,-0.15625,0.171875,181
182,1696253902371,-0.41601562,-0.16680908,-0.86846924,-0.640625,-0.78125,0.125,182
183,1696253902411,-0.41870117,-0.16339111,-0.8760376,-0.4375,-0.78125,0.28125,183
184,1696253902451,-0.41577148,-0.16729736,-0.8687134,-0.59375,-0.640625,0.203125,184
185,1696253902491,-0.4152832,-0.16363525,-0.864563,-0.171875,-0.609375,0.328125,185
186,1696253902531,-0.41455078,-0.16656494,-0.86016846,-0.109375,-0.3125,0.28125,186
187,1696253902571,-0.4248047,-0.1638794,-0.86920166,-0.09375,-0.578125,0.375,187
188,1696253902611,-0.41796875,-0.1638794,-0.86309814,0.1875,-0.46875,0.171875,188
189,1696253902651,-0.41870117,-0.16461182,-0.8760376,-0.09375,-0.3125,0.125,189
190,1696253902691,-0.41552734,-0.16168213,-0.8689575,0.0,-0.375,0.28125,190
191,1696253902731,-0.41210938,-0.16680908,-0.861145,0.203125,-0.625,0.046875,191
192,1696253902771,-0.41748047,-0.16485596,-0.8640747,0.328125,-0.1875,0.109375,192
193,1696253902811,-0.42041016,-0.1585083,-0.8699341,0.109375,-0.1875,0.0,193
194,1696253902851,-0.41845703,-0.17266846,-0.87164307,0.03125,-0.484375,0.078125,194
195,1696253902891,-0.4169922,-0.16021729,-0.86505127,0.28125,-0.296875,0.125,195
196,1696253902931,-0.42016602,-0.16534424,-0.866272,0.84375,-0.125,-0.109375,196
197,1696253902971,-0.4194336,-0.15899658,-0.86260986,1.4375,-0.484375,-0.078125,197
198,1696253903011,-0.41674805,-0.16217041,-0.861145,1.09375,-0.78125,-0.171875,198
199,1696253903051,-0.41357422,-0.15484619,-0.86383057,0.03125,-0.734375,0.0625,199
200,1696253903091,-0.41992188,-0.159729,-0.8743286,-0.359375,-1.09375,0.0625,200
201,1696253903131,-0.42407227,-0.15289307,-0.8735962,-0.21875,-0.046875,0.234375,201
202,1696253903171,-0.41479492,-0.15240479,-0.86309814,-0.15625,-0.203125,0.15625,202
203,1696253903211,-0.41210938,-0.16070557,-0.8779907,-0.0625,-0.515625,0.140625,203
204,1696253903251,-0.41967773,-0.15264893,-0.8596802,-0.328125,-0.15625,0.21875,204
205,1696253903291,-0.41601562,-0.15655518,-0.8579712,-0.78125,-0.484375,0.28125,205
206,1696253903331,-0.41992188,-0.15777588,-0.8670044,-0.796875,-0.765625,0.40625,206
207,1696253903371,-0.41796875,-0.1572876,-0.8640747,-0.4375,-0.625,0.28125,207
208,1696253903411,-0.41210938,-0.16070557,-0.86920166,-0.40625,-1.03125,0.265625,208
209,1696253903451,-0.41455078,-0.16363525,-0.8796997,-0.09375,-0.84375,0.125,209
210,1696253903491,-0.4091797,-0.16241455,-0.87579346,0.046875,-0.515625,0.375,210
211,1696253903531,-0.41333008,-0.16119385,-0.8677368,-0.3125,-0.703125,0.359375,211
212,1696253903571,-0.4182129,-0.16143799,-0.86676025,-0.3125,-0.265625,0.109375,212
213,1696253903611,-0.41870117,-0.16046143,-0.8670044,0.0,-0.203125,0.171875,213
214,1696253903651,-0.40942383,-0.15997314,-0.864563,0.0,-0.46875,0.1875,214
215,1696253903691,-0.40966797,-0.16192627,-0.8670044,0.046875,-0.78125,0.15625,215
216,1696253903731,-0.41967773,-0.15460205,-0.8772583,0.46875,-0.5,-0.03125,216
217,1696253903771,-0.4152832,-0.1663208,-0.8677368,0.609375,-0.46875,0.125,217
218,1696253903811,-0.4177246,-0.15777588,-0.87164307,0.46875,-0.359375,0.15625,218
219,1696253903851,-0.41015625,-0.15435791,-0.86505127,0.390625,-0.3125,0.078125,219
220,1696253903891,-0.41992188,-0.15582275,-0.8670044,-0.140625,-0.265625,0.203125,220
221,1696253903931,-0.41308594,-0.15386963,-0.8652954,-0.265625,-0.109375,0.046875,221
222,1696253903971,-0.42456055,-0.15753174,-0.8711548,-0.203125,-0.203125,0.140625,222
223,1696253904011,-0.42211914,-0.15509033,-0.87506104,-0.25,-0.40625,0.28125,223
224,1696253904051,-0.42016602,-0.15777588,-0.8731079,-0.140625,-0.3125,0.234375,224
225,1696253904091,-0.41967773,-0.16168213,-0.8694458,-0.03125,-0.390625,-0.015625,225
226,1696253904131,-0.4177246,-0.15704346,-0.86968994,-0.0625,-0.515625,0.28125,226
227,1696253904171,-0.41992188,-0.15509033,-0.8584595,0.0625,-0.390625,0.203125,227
228,1696253904211,-0.41503906,-0.15557861,-0.8748169,-0.171875,-0.265625,0.25,228
229,1696253904251,-0.40649414,-0.15679932,-0.87213135,-0.0625,-0.25,0.1875,229
230,1696253904291,-0.41845703,-0.14874268,-0.8713989,0.09375,-0.421875,-0.09375,230
231,1696253904331,-0.41308594,-0.16143799,-0.8735962,0.046875,-0.390625,-0.03125,231
232,1696253904371,-0.40966797,-0.15631104,-0.86187744,0.21875,-0.015625,0.171875,232
233,1696253904411,-0.40527344,-0.15948486,-0.85943604,0.03125,-0.234375,0.1875,233
234,1696253904451,-0.4194336,-0.1585083,-0.8713989,-0.21875,-0.703125,0.21875,234
235,1696253904491,-0.4128418,-0.15557861,-0.86260986,0.03125,-0.546875,0.1875,235
236,1696253904531,-0.42114258,-0.15216064,-0.8682251,-0.484375,-0.578125,0.203125,236
237,1696253904571,-0.41796875,-0.1585083,-0.8726196,-0.4375,-0.25,0.1875,237
238,1696253904611,-0.4189453,-0.159729,-0.8640747,-0.296875,-0.234375,0.015625,238
239,1696253904651,-0.42285156,-0.15704346,-0.8674927,-0.484375,-0.21875,0.265625,239
240,1696253904691,-0.41625977,-0.15435791,-0.8689575,-0.234375,-0.1875,0.125,240
241,1696253904731,-0.41430664,-0.15704346,-0.866272,-0.125,-0.46875,0.25,241
242,1696253904771,-0.41967773,-0.1638794,-0.8699341,-0.078125,-0.421875,0.109375,242
243,1696253904811,-0.40966797,-0.16827393,-0.86968994,-0.234375,-0.4375,0.171875,243
244,1696253904851,-0.4194336,-0.16070557,-0.86383057,-0.28125,-0.34375,0.171875,244
245,1696253904891,-0.4177246,-0.15997314,-0.8640747,0.09375,-0.40625,0.15625,245
246,1696253904931,-0.41552734,-0.15948486,-0.87506104,-0.0625,-0.328125,0.21875,246
247,1696253904971,-0.41601562,-0.16461182,-0.87872314,-0.078125,0.921875,0.265625,247
248,1696253905011,-0.42382812,-0.1609497,-0.8701782,-0.328125,0.484375,0.25,248
249,1696253905051,-0.42211914,-0.16729736,-0.8596802,-0.078125,-0.125,0.21875,249
250,1696253905091,-0.42114258,-0.15435791,-0.8591919,0.15625,-0.390625,0.203125,250
251,1696253905131,-0.4177246,-0.15679932,-0.86260986,0.46875,-0.40625,0.09375,251
252,1696253905171,-0.4165039,-0.15704346,-0.8657837,0.390625,-0.65625,0.234375,252
253,1696253905211,-0.42626953,-0.1560669,-0.87628174,0.265625,-0.765625,0.1875,253
254,1696253905251,-0.4243164,-0.16143799,-0.87384033,0.09375,-0.921875,0.171875,254
255,1696253905291,-0.42382812,-0.15435791,-0.8748169,0.0,-0.578125,0.15625,255
256,1696253905331,-0.4189453,-0.1531372,-0.86602783,0.234375,-0.671875,0.0625,256
257,1696253905371,-0.41845703,-0.15924072,-0.8635864,0.4375,-0.34375,0.03125,257
258,1696253905411,-0.41552734,-0.15484619,-0.866272,0.21875,-0.484375,0.015625,258
259,1696253905451,-0.42285156,-0.15167236,-0.8735962,-0.40625,-0.609375,0.265625,259
260,1696253905491,-0.42089844,-0.14874268,-0.8701782,-0.78125,-0.84375,0.234375,260
261,1696253905531,-0.42089844,-0.16021729,-0.8670044,-0.578125,-0.3125,0.28125,261
262,1696253905571,-0.41748047,-0.15167236,-0.8723755,-0.640625,-0.671875,0.40625,262
263,1696253905611,-0.42407227,-0.1638794,-0.8652954,-0.421875,-0.484375,0.234375,263
264,1696253905651,-0.4128418,-0.15655518,-0.86602783,-0.375,-0.453125,0.234375,264
265,1696253905691,-0.4104004,-0.1609497,-0.8635864,-0.328125,-0.46875,0.171875,265
266,1696253905731,-0.41918945,-0.15704346,-0.864563,-0.171875,-0.59375,0.0625,266
267,1696253905771,-0.42236328,-0.15557861,-0.86309814,-0.21875,-0.359375,0.1875,267
268,1696253905811,-0.42089844,-0.16851807,-0.87628174,-0.734375,-0.578125,0.296875,268
269,1696253905851,-0.41748047,-0.16314697,-0.86798096,-0.578125,-0.640625,0.28125,269
270,1696253905891,-0.41918945,-0.16436768,-0.8609009,-0.265625,-0.1875,0.125,270
271,1696253905931,-0.41308594,-0.15997314,-0.86065674,0.15625,-0.09375,0.109375,271
272,1696253905971,-0.42016602,-0.15802002,-0.8657837,0.140625,-0.359375,0.125,272
273,1696253906011,-0.41870117,-0.16363525,-0.8706665,-0.03125,-0.828125,0.1875,273
274,1696253906051,-0.41259766,-0.1638794,-0.862854,0.171875,-0.484375,0.015625,274
275,1696253906091,-0.42041016,-0.16998291,-0.8706665,0.125,-0.359375,0.15625,275
276,1696253906131,-0.4230957,-0.16119385,-0.87164307,0.15625,-0.125,0.015625,276
277,1696253906171,-0.41674805,-0.16339111,-0.8682251,-0.28125,-0.40625,0.25,277
278,1696253906211,-0.41723633,-0.16119385,-0.861145,-0.109375,-0.546875,0.015625,278
279,1696253906251,-0.42138672,-0.15924072,-0.8699341,-0.015625,-0.25,0.078125,279
280,1696253906291,-0.41601562,-0.16046143,-0.8635864,-0.078125,-0.46875,0.21875,280
281,1696253906331,-0.42236328,-0.16314697,-0.87384033,-0.234375,-0.390625,0.296875,281
282,1696253906371,-0.4189453,-0.16607666,-0.8706665,0.03125,-0.328125,0.25,282
283,1696253906411,-0.41674805,-0.1663208,-0.86138916,-0.34375,-0.421875,0.203125,283
284,1696253906451,-0.41748047,-0.16998291,-0.85772705,0.234375,-0.328125,0.03125,284
285,1696253906491,-0.41845703,-0.1663208,-0.86968994,0.171875,-0.53125,0.1875,285
286,1696253906531,-0.4152832,-0.1609497,-0.862854,0.3125,-0.125,0.125,286
287,1696253906571,-0.4230957,-0.15924072,-0.87335205,-0.21875,-0.25,0.140625,287
288,1696253906611,-0.4189453,-0.1572876,-0.8635864,-0.265625,-0.0625,0.109375,288
289,1696253906651,-0.41967773,-0.159729,-0.8616333,-0.234375,-0.296875,0.109375,289
290,1696253906691,-0.42236328,-0.16070557,-0.8743286,-0.375,-0.546875,0.3125,290
291,1696253906731,-0.41796875,-0.16168213,-0.8699341,-0.078125,-0.421875,0.125,291
292,1696253906771,-0.41479492,-0.16558838,-0.86798096,-0.0625,-0.546875,0.171875,292
293,1696253906811,-0.42016602,-0.15362549,-0.8670044,-0.015625,-0.109375,0.0625,293
294,1696253906851,-0.42211914,-0.1585083,-0.8723755,-0.1875,-0.40625,0.15625,294
295,1696253906891,-0.4165039,-0.1609497,-0.87506104,-0.15625,-0.515625,0.109375,295
296,1696253906931,-0.41625977,-0.15802002,-0.86383057,0.0,-0.484375,0.171875,296
297,1696253906971,-0.41723633,-0.16607666,-0.87335205,-0.3125,-0.34375,0.21875,297
298,1696253907011,-0.42089844,-0.16290283,-0.8665161,-0.3125,-0.421875,0.125,298
299,1696253907051,-0.41796875,-0.16436768,-0.86602783,-0.171875,-0.515625,0.171875,299
300,1696253907091,-0.41674805,-0.16802979,-0.86602783,0.15625,-0.375,0.234375,300
301,1696253907131,-0.42260742,-0.16143799,-0.8633423,0.03125,-0.28125,0.046875,301
302,1696253907171,-0.41625977,-0.16046143,-0.8706665,-0.109375,-0.53125,0.0625,302
303,1696253907211,-0.42089844,-0.16485596,-0.86676025,-0.1875,-0.625,0.203125,303
304,1696253907251,-0.4182129,-0.16436768,-0.86309814,-0.125,-0.21875,0.125,304
305,1696253907291,-0.4189453,-0.16363525,-0.8569946,-0.140625,-0.25,0.203125,305
306,1696253907331,-0.42016602,-0.16143799,-0.866272,-0.265625,-0.375,0.359375,306
307,1696253907371,-0.42285156,-0.16436768,-0.86602783,-0.703125,-0.53125,0.3125,307
308,1696253907411,-0.4177246,-0.1663208,-0.8665161,-0.390625,-0.53125,0.046875,308
309,1696253907451,-0.4206543,-0.16363525,-0.8735962,-0.234375,-0.375,0.265625,309
310,1696253907491,-0.42749023,-0.16583252,-0.86920166,-0.328125,-0.53125,0.25,310
311,1696253907531,-0.41186523,-0.16436768,-0.8633423,0.109375,-0.359375,0.171875,311
312,1696253907571,-0.41967773,-0.16021729,-0.86798096,0.328125,-0.1875,0.140625,312
313,1696253907611,-0.41845703,-0.16705322,-0.86798096,0.328125,-0.125,0.125,313
314,1696253907651,-0.42163086,-0.16485596,-0.866272,0.109375,-0.4375,0.03125,314
315,1696253907691,-0.4177246,-0.16461182,-0.86383057,-0.234375,-0.59375,0.171875,315
316,1696253907731,-0.4182129,-0.16949463,-0.8699341,-0.1875,-0.28125,0.0625,316
317,1696253907771,-0.421875,-0.1638794,-0.8753052,-0.453125,-0.34375,0.1875,317
318,1696253907811,-0.4206543,-0.16656494,-0.86016846,-0.09375,-0.234375,0.265625,318
319,1696253907851,-0.4177246,-0.16265869,-0.8652954,-0.421875,-0.453125,0.21875,319
320,1696253907891,-0.41333008,-0.16461182,-0.86724854,-0.46875,-0.234375,0.21875,320
321,1696253907931,-0.42211914,-0.16778564,-0.86309814,-0.390625,-0.234375,0.140625,321
322,1696253907971,-0.4189453,-0.16705322,-0.87579346,-0.484375,-0.453125,0.296875,322
323,1696253908011,-0.41577148,-0.16973877,-0.8657837,-0.21875,-0.203125,0.0625,323
324,1696253908051,-0.42114258,-0.17437744,-0.8550415,0.078125,-0.421875,0.15625,324
325,1696253908091,-0.42089844,-0.16925049,-0.8652954,-0.03125,-0.09375,0.109375,325
326,1696253908131,-0.42211914,-0.16485596,-0.87506104,0.015625,-0.25,0.25,326
327,1696253908171,-0.41503906,-0.16973877,-0.85943604,-0.046875,-0.328125,0.15625,327
328,1696253908211,-0.41992188,-0.16680908,-0.8677368,0.15625,-0.421875,0.125,328
329,1696253908251,-0.42236328,-0.16998291,-0.8648071,-0.078125,-0.625,-0.03125,329
330,1696253908291,-0.4140625,-0.16461182,-0.8616333,0.0,-0.375,0.375,330
331,1696253908331,-0.42163086,-0.16607666,-0.86798096,-0.078125,-0.421875,0.15625,331
332,1696253908371,-0.41796875,-0.15997314,-0.85943604,-0.03125,-0.484375,0.1875,332
333,1696253908411,-0.41918945,-0.16143799,-0.8706665,-0.296875,-0.625,0.125,333
334,1696253908451,-0.42749023,-0.1638794,-0.8701782,-0.25,-0.640625,0.234375,334
335,1696253908491,-0.42578125,-0.16558838,-0.8665161,-0.171875,-0.78125,0.28125,335
336,1696253908531,-0.4165039,-0.1663208,-0.8665161,-0.4375,-0.625,0.21875,336
337,1696253908571,-0.42260742,-0.17047119,-0.85821533,-0.53125,-0.375,0.203125,337
338,1696253908611,-0.41625977,-0.16607666,-0.8701782,-0.421875,-0.265625,0.15625,338
339,1696253908651,-0.42236328,-0.16680908,-0.86553955,0.03125,-0.234375,-0.015625,339
340,1696253908691,-0.421875,-0.16656494,-0.8657837,0.03125,-0.4375,0.046875,340
341,1696253908731,-0.4169922,-0.16339111,-0.8555298,1.765625,-0.109375,0.0,341
342,1696253908771,-0.4189453,-0.15899658,-0.84820557,2.21875,-0.296875,-0.25,342
343,1696253908811,-0.41723633,-0.16021729,-0.8616333,1.75,-0.296875,-0.15625,343
344,1696253908851,-0.42236328,-0.159729,-0.8609009,1.515625,0.109375,-0.046875,344
345,1696253908891,-0.4284668,-0.15509033,-0.8796997,0.75,-0.78125,0.21875,345
346,1696253908931,-0.42138672,-0.15899658,-0.8726196,0.421875,-0.296875,0.171875,346
347,1696253908971,-0.42089844,-0.16046143,-0.8726196,-0.109375,-0.671875,0.203125,347
348,1696253909011,-0.41430664,-0.15484619,-0.8599243,0.0625,-0.15625,0.078125,348
349,1696253909051,-0.421875,-0.1531372,-0.8694458,-0.328125,-0.578125,0.203125,349
350,1696253909091,-0.4296875,-0.15411377,-0.8711548,-0.34375,-0.28125,0.125,350
351,1696253909131,-0.42041016,-0.15411377,-0.8735962,-0.203125,-0.390625,0.34375,351
352,1696253909171,-0.41674805,-0.1572876,-0.86846924,-0.25,-0.578125,0.203125,352
353,1696253909211,-0.42016602,-0.15631104,-0.861145,0.015625,-0.34375,0.375,353
354,1696253909251,-0.41552734,-0.16314697,-0.8555298,0.0,-0.5,0.09375,354
355,1696253909291,-0.41552734,-0.15386963,-0.8623657,0.15625,-0.484375,0.15625,355
356,1696253909331,-0.4165039,-0.15826416,-0.861145,0.109375,-0.53125,0.21875,356
357,1696253909371,-0.41577148,-0.1609497,-0.8826294,-0.265625,-0.390625,0.296875,357
358,1696253909411,-0.41967773,-0.16070557,-0.87457275,0.109375,-0.484375,0.203125,358
359,1696253909451,-0.41625977,-0.15704346,-0.8735962,-0.03125,-0.359375,0.1875,359
360,1696253909491,-0.4182129,-0.15753174,-0.861145,0.375,0.078125,-0.0625,360
361,1696253909531,-0.4177246,-0.15899658,-0.86187744,-0.21875,-0.328125,0.109375,361
362,1696253909571,-0.421875,-0.15802002,-0.8633423,-0.1875,-0.4375,0.296875,362
363,1696253909611,-0.41577148,-0.1531372,-0.87872314,-0.40625,-0.375,0.328125,363
364,1696253909651,-0.41967773,-0.159729,-0.8731079,-0.34375,-0.40625,0.15625,364
365,1696253909691,-0.42114258,-0.16314697,-0.8814087,-0.484375,-0.484375,0.03125,365
366,1696253909731,-0.4116211,-0.1609497,-0.8557739,-0.0625,-0.203125,0.09375,366
367,1696253909771,-0.4182129,-0.15435791,-0.8652954,-0.796875,-0.65625,0.265625,367
368,1696253909811,-0.4152832,-0.1494751,-0.8718872,-0.53125,-0.5625,0.25,368
369,1696253909851,-0.4260254,-0.15875244,-0.8706665,-0.140625,-0.25,0.0625,369
370,1696253909891,-0.4206543,-0.15899658,-0.8665161,0.09375,-0.484375,0.046875,370
371,1696253909931,-0.4169922,-0.1572876,-0.86553955,0.03125,-0.65625,0.296875,371
372,1696253909971,-0.42211914,-0.1638794,-0.86798096,0.078125,-0.015625,0.078125,372
373,1696253910011,-0.42016602,-0.15264893,-0.85528564,-0.15625,-0.390625,0.1875,373
374,1696253910051,-0.42089844,-0.16241455,-0.87091064,-0.375,-0.59375,0.203125,374
375,1696253910091,-0.42260742,-0.15655518,-0.86968994,-0.046875,-0.40625,0.09375,375
376,1696253910131,-0.41845703,-0.16265869,-0.87677,-0.140625,-0.609375,0.296875,376
377,1696253910171,-0.4230957,-0.15924072,-0.86553955,0.0625,-0.25,0.1875,377
378,1696253910211,-0.421875,-0.1609497,-0.8621216,-0.046875,-0.453125,0.265625,378
379,1696253910251,-0.41601562,-0.15924072,-0.86505127,-0.109375,-0.484375,0.25,379
380,1696253910291,-0.41674805,-0.16192627,-0.86920166,-0.328125,-0.25,0.15625,380
381,1696253910331,-0.42016602,-0.15777588,-0.8640747,-0.265625,-0.390625,0.234375,381
382,1696253910371,-0.42407227,-0.16070557,-0.86602783,0.0,-0.234375,0.109375,382
383,1696253910411,-0.41479492,-0.1609497,-0.8657837,-0.453125,-0.609375,0.265625,383
384,1696253910451,-0.4140625,-0.15557861,-0.8633423,-0.078125,-0.328125,0.21875,384
385,1696253910491,-0.41601562,-0.1585083,-0.8652954,-0.25,-0.40625,0.078125,385
386,1696253910531,-0.41992188,-0.16168213,-0.8648071,0.25,-0.453125,0.15625,386
387,1696253910571,-0.41748047,-0.1572876,-0.8743286,-0.203125,-0.40625,0.125,387
388,1696253910611,-0.4169922,-0.15655518,-0.8687134,-0.328125,-0.375,0.03125,388
389,1696253910651,-0.42163086,-0.159729,-0.86309814,-0.21875,-0.515625,0.21875,389
390,1696253910691,-0.4169922,-0.16583252,-0.8694458,-0.359375,-0.265625,0.1875,390
391,1696253910731,-0.41430664,-0.1572876,-0.87042236,-0.515625,-0.5,0.375,391
392,1696253910771,-0.42333984,-0.15899658,-0.8694458,-0.375,-0.25,0.125,392
393,1696253910811,-0.4165039,-0.16705322,-0.8694458,-0.390625,-0.5,0.09375,393
394,1696253910851,-0.41674805,-0.16070557,-0.8609009,0.015625,-0.171875,0.21875,394
395,1696253910891,-0.41723633,-0.16485596,-0.8545532,0.5625,0.3125,0.015625,395
396,1696253910931,-0.41748047,-0.15875244,-0.8740845,0.1875,-0.171875,0.046875,396
397,1696253910971,-0.42382812,-0.15826416,-0.8648071,0.328125,-0.15625,0.125,397
398,1696253911011,-0.42285156,-0.16021729,-0.8713989,-0.25,-0.125,0.3125,398
399,1696253911051,-0.42114258,-0.1609497,-0.86383057,0.0,-0.59375,0.125,399
400,1696253911091,-0.42163086,-0.15679932,-0.86138916,-0.078125,-0.46875,0.265625,400
401,1696253911131,-0.42211914,-0.16119385,-0.86016846,-0.171875,-0.421875,0.328125,401
402,1696253911171,-0.41967773,-0.15899658,-0.87213135,-0.140625,-0.546875,0.21875,402
403,1696253911211,-0.4206543,-0.16119385,-0.864563,-0.203125,-0.453125,0.0625,403
404,1696253911251,-0.41748047,-0.16119385,-0.8740845,-0.046875,-0.234375,0.234375,404
405,1696253911291,-0.41577148,-0.16119385,-0.86505127,0.03125,-0.234375,0.09375,405
406,1696253911331,-0.42578125,-0.15753174,-0.86138916,0.109375,-0.390625,0.140625,406
407,1696253911371,-0.4206543,-0.16290283,-0.8694458,0.34375,-0.265625,0.078125,407
408,1696253911411,-0.4182129,-0.159729,-0.86383057,0.203125,-0.4375,0.0625,408
409,1696253911451,-0.42089844,-0.15655518,-0.8701782,0.015625,-0.5,0.15625,409
410,1696253911491,-0.42089844,-0.15386963,-0.86724854,-0.1875,-0.359375,0.203125,410
411,1696253911531,-0.4194336,-0.15484619,-0.8640747,-0.046875,-0.40625,0.234375,411
412,1696253911571,-0.41870117,-0.16046143,-0.87091064,-0.578125,-0.421875,0.3125,412
413,1696253911611,-0.41992188,-0.16265869,-0.85943604,-0.5,-0.234375,0.15625,413
414,1696253911651,-0.4165039,-0.15753174,-0.8713989,-0.875,-0.53125,0.328125,414
415,1696253911691,-0.41796875,-0.16607666,-0.8640747,-0.234375,-0.171875,0.328125,415
416,1696253911731,-0.4243164,-0.16217041,-0.8648071,-0.390625,-0.3125,0.328125,416
417,1696253911771,-0.42260742,-0.15948486,-0.86676025,0.1875,-0.375,-0.015625,417
418,1696253911811,-0.42211914,-0.15802002,-0.8579712,0.296875,-0.484375,0.109375,418
419,1696253911851,-0.42626953,-0.16217041,-0.86138916,0.109375,-0.734375,0.109375,419
420,1696253911891,-0.41625977,-0.16583252,-0.8652954,0.09375,-0.453125,0.265625,420
421,1696253911931,-0.42407227,-0.15924072,-0.8674927,0.03125,-0.265625,0.046875,421
422,1696253911971,-0.42041016,-0.1585083,-0.8694458,-0.15625,-0.4375,0.0625,422
423,1696253912011,-0.41748047,-0.15655518,-0.8635864,-0.265625,-0.28125,0.140625,423
424,1696253912051,-0.4206543,-0.15411377,-0.8687134,-0.15625,-0.390625,0.28125,424
425,1696253912091,-0.42041016,-0.16217041,-0.8657837,-0.296875,-0.53125,0.296875,425
426,1696253912131,-0.4267578,-0.16436768,-0.86968994,-0.34375,-0.546875,0.25,426
427,1696253912171,-0.42382812,-0.1651001,-0.866272,-0.25,-0.203125,0.21875,427
428,1696253912211,-0.42456055,-0.16461182,-0.87286377,-0.5625,-0.421875,0.15625,428
429,1696253912251,-0.42285156,-0.16436768,-0.86798096,0.078125,-0.453125,0.078125,429
430,1696253912291,-0.42114258,-0.159729,-0.86505127,-0.1875,-0.59375,0.171875,430
431,1696253912331,-0.41870117,-0.16534424,-0.8623657,0.125,-0.359375,0.1875,431
432,1696253912371,-0.41967773,-0.16143799,-0.86138916,-0.078125,-0.40625,0.203125,432
433,1696253912411,-0.42529297,-0.16925049,-0.8657837,-0.28125,-0.578125,0.234375,433
434,1696253912451,-0.42285156,-0.16314697,-0.8731079,-0.125,-0.453125,0.171875,434
435,1696253912491,-0.42382812,-0.16241455,-0.8731079,-0.015625,-0.484375,0.09375,435
436,1696253912531,-0.42236328,-0.17071533,-0.86553955,0.25,-0.125,0.125,436
437,1696253912571,-0.41625977,-0.15411377,-0.8640747,0.25,-0.140625,-0.015625,437
438,1696253912611,-0.42504883,-0.1560669,-0.862854,0.0625,-0.3125,0.171875,438
439,1696253912651,-0.4177246,-0.16534424,-0.87042236,0.375,-0.28125,-0.125,439
440,1696253912691,-0.42529297,-0.15924072,-0.8701782,1.0625,-0.21875,-0.015625,440
441,1696253912731,-0.42504883,-0.15924072,-0.86505127,1.875,-0.28125,-0.234375,441
442,1696253912771,-0.4169922,-0.15264893,-0.8538208,1.84375,-0.15625,-0.171875,442
443,1696253912811,-0.4255371,-0.15484619,-0.8687134,0.96875,-0.640625,-0.015625,443
444,1696253912851,-0.42089844,-0.1453247,-0.8699341,0.578125,-0.84375,0.125,444
445,1696253912891,-0.4267578,-0.15167236,-0.8743286,0.203125,-0.953125,0.15625,445
446,1696253912931,-0.4152832,-0.1482544,-0.8616333,-0.28125,-0.9375,0.3125,446
447,1696253912971,-0.42138672,-0.1519165,-0.85601807,-0.40625,-1.4375,0.15625,447
448,1696253913011,-0.40698242,-0.1572876,-0.8772583,-0.34375,-1.578125,0.28125,448
449,1696253913051,-0.4111328,-0.1560669,-0.85357666,-0.3125,-0.625,0.203125,449
450,1696253913091,-0.41455078,-0.15557861,-0.8689575,-0.296875,-0.90625,0.3125,450
451,1696253913131,-0.4177246,-0.15655518,-0.87335205,0.0625,-0.828125,0.21875,451
452,1696253913171,-0.41845703,-0.15045166,-0.8850708,-0.53125,-0.640625,0.328125,452
453,1696253913211,-0.41186523,-0.15826416,-0.8826294,-0.375,-0.25,0.375,453
454,1696253913251,-0.41577148,-0.15093994,-0.8687134,-0.5625,-0.21875,0.21875,454
455,1696253913291,-0.41577148,-0.15826416,-0.8621216,-0.59375,-0.1875,0.25,455
456,1696253913331,-0.4194336,-0.15753174,-0.85601807,-0.046875,0.03125,0.15625,456
457,1696253913371,-0.41992188,-0.15777588,-0.86187744,0.234375,-0.25,-0.015625,457
458,1696253913411,-0.41845703,-0.15875244,-0.8711548,0.015625,-0.640625,-0.078125,458
459,1696253913451,-0.4165039,-0.16046143,-0.87945557,0.234375,-0.734375,0.203125,459
460,1696253913491,-0.4128418,-0.15093994,-0.8731079,0.3125,-0.40625,0.15625,460
461,1696253913531,-0.4248047,-0.1506958,-0.87091064,0.15625,-0.46875,0.125,461
462,1696253913571,-0.41381836,-0.15264893,-0.864563,0.40625,-0.296875,0.125,462
463,1696253913611,-0.41503906,-0.15093994,-0.86505127,0.28125,-0.25,0.203125,463
464,1696253913651,-0.41625977,-0.1519165,-0.86383057,0.34375,-0.484375,0.140625,464
465,1696253913691,-0.42138672,-0.1519165,-0.86846924,0.21875,-0.125,0.265625,465
466,1696253913731,-0.41479492,-0.15704346,-0.8755493,-0.15625,-0.21875,0.21875,466
467,1696253913771,-0.41601562,-0.15264893,-0.8665161,0.203125,-0.1875,0.078125,467
468,1696253913811,-0.41577148,-0.15435791,-0.8718872,-0.28125,-0.375,0.28125,468
469,1696253913851,-0.41674805,-0.15484619,-0.8652954,-0.515625,-0.328125,0.265625,469
470,1696253913891,-0.42407227,-0.1519165,-0.87701416,-0.96875,-0.453125,0.21875,470
471,1696253913931,-0.42114258,-0.15753174,-0.8772583,-0.1875,-0.28125,0.34375,471
472,1696253913971,-0.4116211,-0.15631104,-0.8584595,0.296875,-0.28125,0.015625,472
473,1696253914011,-0.4099121,-0.15142822,-0.86602783,-0.1875,-0.46875,0.203125,473
474,1696253914051,-0.41723633,-0.15435791,-0.87335205,-0.375,-0.25,0.0625,474
475,1696253914091,-0.41625977,-0.15386963,-0.8652954,0.25,-0.1875,0.078125,475
476,1696253914131,-0.4169922,-0.15020752,-0.86968994,-0.46875,-0.4375,0.28125,476
477,1696253914171,-0.42016602,-0.16021729,-0.8740845,-0.484375,-0.453125,0.203125,477
478,1696253914211,-0.41357422,-0.15826416,-0.86846924,-0.34375,-0.328125,0.171875,478
479,1696253914251,-0.421875,-0.15655518,-0.8718872,-0.25,-0.5625,0.296875,479
480,1696253914291,-0.4169922,-0.15386963,-0.86798096,0.140625,-0.3125,0.125,480
481,1696253914331,-0.40844727,-0.15582275,-0.8545532,-0.140625,-0.21875,0.15625,481
482,1696253914371,-0.42285156,-0.15777588,-0.87164307,0.03125,-0.28125,0.21875,482
483,1696253914411,-0.41674805,-0.1519165,-0.8726196,-0.25,-0.578125,0.078125,483
484,1696253914451,-0.41308594,-0.16314697,-0.8699341,-0.296875,-0.21875,0.078125,484
485,1696253914491,-0.4169922,-0.15899658,-0.86602783,-0.234375,-0.375,0.265625,485
486,1696253914531,-0.41674805,-0.1560669,-0.8599243,-0.046875,-0.265625,0.078125,486
487,1696253914571,-0.4128418,-0.15264893,-0.86553955,-0.421875,-0.515625,0.234375,487
488,1696253914611,-0.4206543,-0.15460205,-0.8701782,-0.234375,-0.359375,0.125,488
489,1696253914651,-0.41723633,-0.15753174,-0.8772583,-0.03125,-0.4375,0.15625,489
490,1696253914691,-0.4116211,-0.15533447,-0.8706665,-0.140625,-0.390625,0.15625,490
491,1696253914731,-0.41381836,-0.159729,-0.87091064,0.046875,-0.421875,0.078125,491
492,1696253914771,-0.41503906,-0.15753174,-0.8748169,-0.171875,-0.28125,0.265625,492
493,1696253914811,-0.41992188,-0.16265869,-0.8670044,-0.09375,-0.28125,0.15625,493
494,1696253914851,-0.41748047,-0.15777588,-0.864563,-0.21875,-0.71875,0.125,494
495,1696253914891,-0.42260742,-0.15509033,-0.880188,-0.46875,-0.609375,0.03125,495
496,1696253914931,-0.41723633,-0.15631104,-0.86505127,0.1875,-0.296875,0.09375,496
497,1696253914971,-0.41430664,-0.15484619,-0.8723755,-0.1875,-0.5,0.1875,497
498,1696253915011,-0.41552734,-0.15118408,-0.862854,0.03125,-0.28125,0.125,498
499,1696253915051,-0.41918945,-0.15655518,-0.86553955,-0.203125,-0.328125,0.09375,499
500,1696253915091,-0.41357422,-0.15753174,-0.87164307,-0.4375,-0.359375,0.28125,500
501,1696253915131,-0.42089844,-0.15484619,-0.8694458,-0.15625,-0.421875,0.265625,501
502,1696253915171,-0.41455078,-0.15997314,-0.866272,0.0,-0.46875,0.140625,502
503,1696253915211,-0.41259766,-0.15753174,-0.86383057,-0.359375,-0.71875,0.15625,503
504,1696253915251,-0.41333008,-0.1482544,-0.8657837,-0.09375,-0.40625,0.25,504
505,1696253915291,-0.4194336,-0.15216064,-0.87164307,-0.546875,-0.609375,0.28125,505
506,1696253915331,-0.42236328,-0.15216064,-0.8748169,-0.421875,-0.21875,0.0625,506
507,1696253915371,-0.41430664,-0.1572876,-0.8635864,-0.140625,-0.453125,0.140625,507
508,1696253915411,-0.42016602,-0.16046143,-0.8640747,0.234375,-0.53125,0.0,508
509,1696253915451,-0.41479492,-0.15679932,-0.86968994,-0.234375,-0.421875,0.09375,509
510,1696253915491,-0.41870117,-0.15997314,-0.8621216,0.125,-0.3125,0.09375,510
511,1696253915531,-0.4189453,-0.15777588,-0.86505127,0.078125,-0.421875,0.1875,511
512,1696253915571,-0.41479492,-0.1560669,-0.87164307,-0.125,-0.59375,0.234375,512
513,1696253915611,-0.41064453,-0.1531372,-0.8753052,-0.0625,-0.546875,0.171875,513
514,1696253915651,-0.4169922,-0.16192627,-0.86724854,0.203125,-0.390625,0.046875,514
515,1696253915691,-0.41992188,-0.15289307,-0.8753052,0.0,-0.671875,0.234375,515
516,1696253915731,-0.4086914,-0.16046143,-0.8530884,0.375,-0.328125,0.125,516
517,1696253915771,-0.42260742,-0.1506958,-0.86602783,0.4375,-0.34375,0.203125,517
518,1696253915811,-0.41552734,-0.15679932,-0.86676025,0.65625,-0.28125,0.1875,518
519,1696253915851,-0.42138672,-0.15411377,-0.8855591,0.375,-0.609375,0.109375,519
520,1696253915891,-0.4116211,-0.15045166,-0.8574829,0.78125,0.078125,-0.015625,520
521,1696253915931,-0.41992188,-0.1453247,-0.8665161,0.09375,-0.90625,0.140625,521
522,1696253915971,-0.4182129,-0.1531372,-0.8713989,0.1875,-0.5625,0.28125,522
523,1696253916011,-0.41748047,-0.15142822,-0.8652954,0.390625,-0.359375,0.28125,523
524,1696253916051,-0.4194336,-0.15289307,-0.87457275,-0.40625,-0.75,0.203125,524
525,1696253916091,-0.4206543,-0.15435791,-0.86505127,-0.734375,-0.71875,0.328125,525
526,1696253916131,-0.4152832,-0.15533447,-0.88287354,-0.921875,-0.796875,0.234375,526
527,1696253916171,-0.41015625,-0.15997314,-0.8694458,-0.234375,-0.40625,0.3125,527
528,1696253916211,-0.4165039,-0.15631104,-0.8723755,-0.34375,-0.15625,0.109375,528
529,1696253916251,-0.42236328,-0.15411377,-0.8623657,-0.21875,-0.359375,0.0625,529
530,1696253916291,-0.41577148,-0.15509033,-0.8623657,0.0625,-0.40625,0.203125,530
531,1696253916331,-0.4206543,-0.15826416,-0.87091064,0.140625,-0.328125,0.03125,531
532,1696253916371,-0.41748047,-0.15557861,-0.87457275,0.109375,-0.390625,0.0625,532
533,1696253916411,-0.4165039,-0.15582275,-0.880188,0.09375,-0.4375,0.140625,533
534,1696253916451,-0.41259766,-0.14923096,-0.86798096,0.15625,-0.296875,0.265625,534
535,1696253916491,-0.40844727,-0.15753174,-0.8648071,0.0625,-0.4375,0.203125,535
536,1696253916531,-0.4206543,-0.1482544,-0.86431885,-0.125,-0.203125,0.09375,536
537,1696253916571,-0.40429688,-0.15435791,-0.8657837,-0.171875,-0.3125,0.046875,537
538,1696253916611,-0.4182129,-0.15289307,-0.8726196,-0.234375,-0.5,0.15625,538
539,1696253916651,-0.4111328,-0.1519165,-0.87506104,-0.03125,-0.34375,0.15625,539
540,1696253916691,-0.41259766,-0.15753174,-0.8670044,0.0625,-0.546875,0.0625,540
541,1696253916731,-0.40942383,-0.15093994,-0.8616333,-0.15625,-0.515625,0.234375,541
542,1696253916771,-0.40942383,-0.15484619,-0.86553955,-0.234375,-0.46875,0.09375,542
543,1696253916811,-0.41479492,-0.15338135,-0.8674927,0.109375,-0.203125,0.09375,543
544,1696253916851,-0.41870117,-0.15045166,-0.8726196,-0.140625,-0.34375,0.203125,544
545,1696253916891,-0.4177246,-0.15484619,-0.8735962,-0.015625,-0.203125,0.109375,545
546,1696253916931,-0.41333008,-0.15411377,-0.8706665,-0.140625,-0.296875,0.1875,546
547,1696253916971,-0.41796875,-0.15777588,-0.8648071,0.140625,-0.359375,0.1875,547
548,1696253917011,-0.42138672,-0.1506958,-0.8731079,-0.09375,-0.296875,0.234375,548
549,1696253917051,-0.41308594,-0.15216064,-0.86505127,0.046875,-0.28125,0.0,549
550,1696253917091,-0.421875,-0.15240479,-0.8689575,-0.265625,-0.59375,0.21875,550
551,1696253917131,-0.41235352,-0.15655518,-0.8701782,-0.21875,-0.359375,0.3125,551
552,1696253917171,-0.4182129,-0.15484619,-0.866272,-0.28125,-0.390625,0.265625,552
553,1696253917211,-0.41748047,-0.1506958,-0.87042236,-0.140625,-0.359375,0.25,553
554,1696253917251,-0.41088867,-0.15142822,-0.8701782,-0.359375,-0.359375,0.1875,554
555,1696253917291,-0.41967773,-0.15460205,-0.8657837,-0.171875,-0.234375,0.171875,555
556,1696253917331,-0.42163086,-0.15509033,-0.86553955,-0.234375,-0.234375,0.171875,556
557,1696253917371,-0.41967773,-0.15216064,-0.87506104,-0.421875,-0.515625,0.3125,557
558,1696253917411,-0.42114258,-0.15777588,-0.8711548,-0.328125,-0.265625,0.046875,558
559,1696253917451,-0.41137695,-0.1560669,-0.8567505,0.203125,-0.21875,0.1875,559
560,1696253917491,-0.4169922,-0.15802002,-0.87042236,-0.234375,-0.390625,0.0,560
561,1696253917531,-0.41723633,-0.15142822,-0.8740845,-0.53125,-0.28125,0.359375,561
562,1696253917571,-0.41796875,-0.16070557,-0.8699341,-0.421875,-0.21875,0.296875,562
563,1696253917611,-0.41845703,-0.15142822,-0.8682251,0.0625,-0.34375,0.1875,563
564,1696253917651,-0.42041016,-0.15216064,-0.8701782,0.015625,-0.609375,0.28125,564
565,1696253917691,-0.41601562,-0.15411377,-0.86968994,0.171875,-0.265625,0.203125,565
566,1696253917731,-0.42016602,-0.15435791,-0.86798096,-0.046875,-0.25,0.234375,566
567,1696253917771,-0.41870117,-0.15435791,-0.866272,0.046875,-0.265625,0.1875,567
568,1696253917811,-0.41503906,-0.16241455,-0.8648071,-0.078125,-0.296875,0.15625,568
569,1696253917851,-0.41918945,-0.15484619,-0.8621216,-0.390625,-0.453125,0.125,569
570,1696253917891,-0.41992188,-0.1609497,-0.8748169,-0.34375,-0.5,0.234375,570
571,1696253917931,-0.4152832,-0.15484619,-0.86968994,-0.09375,-0.296875,0.1875,571
572,1696253917971,-0.42114258,-0.15167236,-0.8665161,-0.265625,-0.40625,0.1875,572
573,1696253918011,-0.4152832,-0.159729,-0.86505127,-0.171875,-0.421875,0.140625,573
574,1696253918051,-0.4165039,-0.15753174,-0.8718872,-0.328125,-0.46875,0.078125,574
575,1696253918091,-0.42211914,-0.16339111,-0.8633423,0.015625,-0.375,0.140625,575
576,1696253918131,-0.4169922,-0.15411377,-0.8648071,-0.171875,-0.328125,0.0,576
577,1696253918171,-0.41381836,-0.159729,-0.86968994,-0.125,-0.234375,0.1875,577
578,1696253918211,-0.42333984,-0.15460205,-0.86431885,-0.1875,-0.203125,0.265625,578
579,1696253918251,-0.41552734,-0.16168213,-0.8726196,-0.25,-0.515625,0.359375,579
580,1696253918291,-0.41870117,-0.15557861,-0.8711548,-0.15625,-0.390625,0.1875,580
581,1696253918331,-0.4182129,-0.15679932,-0.8665161,-0.09375,-0.671875,0.140625,581
582,1696253918371,-0.41601562,-0.1572876,-0.8616333,0.078125,-0.4375,0.0625,582
583,1696253918411,-0.41992188,-0.16168213,-0.8616333,0.125,-0.359375,0.140625,583
584,1696253918451,-0.41796875,-0.15118408,-0.8640747,0.09375,-0.140625,0.140625,584
585,1696253918491,-0.41967773,-0.15386963,-0.8687134,0.140625,-0.4375,0.328125,585
586,1696253918531,-0.42114258,-0.15557861,-0.86846924,-0.09375,-0.515625,0.046875,586
587,1696253918571,-0.4194336,-0.15167236,-0.86553955,0.03125,-0.203125,0.171875,587
588,1696253918611,-0.4140625,-0.15435791,-0.86602783,-0.03125,-0.53125,0.109375,588
589,1696253918651,-0.41259766,-0.15753174,-0.8665161,-0.296875,-0.375,0.265625,589
590,1696253918691,-0.41992188,-0.15557861,-0.8701782,-0.25,-0.3125,0.390625,590
591,1696253918731,-0.41967773,-0.15509033,-0.8723755,-0.109375,-0.296875,0.0625,591
592,1696253918771,-0.42016602,-0.16070557,-0.8689575,0.109375,-0.515625,0.171875,592
593,1696253918811,-0.41601562,-0.15753174,-0.86016846,0.140625,-0.3125,0.265625,593
594,1696253918851,-0.42016602,-0.15142822,-0.866272,-0.078125,-0.34375,0.265625,594
595,1696253918891,-0.4206543,-0.15435791,-0.86968994,-0.34375,-0.28125,0.203125,595
596,1696253918931,-0.4182129,-0.15264893,-0.86846924,-0.1875,-0.546875,0.234375,596
597,1696253918971,-0.4152832,-0.15557861,-0.8694458,-0.265625,-0.265625,0.09375,597
598,1696253919011,-0.42285156,-0.14703369,-0.8633423,-0.078125,-0.390625,0.171875,598
599,1696253919051,-0.42016602,-0.15582275,-0.8718872,-0.28125,-0.4375,0.234375,599
600,1696253919091,-0.42333984,-0.15875244,-0.8674927,-0.078125,-0.234375,0.203125,600
601,1696253919131,-0.41918945,-0.15777588,-0.8640747,-0.296875,-0.328125,0.203125,601
602,1696253919171,-0.4165039,-0.16314697,-0.8718872,-0.25,-0.359375,0.234375,602
603,1696253919211,-0.4169922,-0.159729,-0.86065674,-0.203125,-0.328125,0.21875,603
604,1696253919251,-0.42749023,-0.15826416,-0.8687134,-0.1875,-0.625,0.171875,604
605,1696253919291,-0.4189453,-0.15386963,-0.864563,-0.25,-0.515625,0.21875,605
606,1696253919331,-0.4152832,-0.1560669,-0.8682251,-0.09375,-0.5,0.234375,606
607,1696253919371,-0.41918945,-0.15582275,-0.8701782,-0.171875,-0.578125,0.109375,607
608,1696253919411,-0.4140625,-0.15826416,-0.8652954,-0.0625,-0.375,0.109375,608
609,1696253919451,-0.4182129,-0.15338135,-0.86431885,0.015625,-0.234375,0.046875,609
610,1696253919491,-0.41625977,-0.16217041,-0.8596802,0.046875,-0.453125,0.203125,610
611,1696253919531,-0.4194336,-0.15020752,-0.87042236,-0.203125,-0.59375,0.15625,611
612,1696253919571,-0.41479492,-0.16070557,-0.8735962,-0.03125,-0.140625,0.1875,612
613,1696253919611,-0.41601562,-0.15753174,-0.86187744,-0.171875,-0.5,0.21875,613
614,1696253919651,-0.42407227,-0.16143799,-0.86724854,0.078125,-0.53125,0.15625,614
615,1696253919691,-0.41796875,-0.15777588,-0.8735962,-0.15625,-0.4375,0.125,615
616,1696253919731,-0.41674805,-0.16241455,-0.86846924,-0.171875,-0.390625,0.0625,616
617,1696253919771,-0.41479492,-0.15997314,-0.864563,0.078125,-0.359375,0.171875,617
618,1696253919811,-0.41479492,-0.1572876,-0.8665161,0.109375,-0.25,0.125,618
619,1696253919851,-0.41235352,-0.16241455,-0.86431885,0.671875,-0.03125,0.09375,619
620,1696253919891,-0.4243164,-0.14898682,-0.8694458,0.875,-0.40625,0.0625,620
621,1696253919931,-0.41674805,-0.15386963,-0.86383057,0.421875,-0.109375,0.203125,621
622,1696253919971,-0.42456055,-0.15533447,-0.87213135,0.875,-0.4375,-0.03125,622
623,1696253920011,-0.41992188,-0.15362549,-0.87823486,0.015625,-1.15625,0.171875,623
624,1696253920051,-0.42041016,-0.15118408,-0.86920166,0.0625,-0.59375,0.265625,624
625,1696253920091,-0.41723633,-0.14605713,-0.8508911,-0.03125,-1.078125,0.09375,625
626,1696253920131,-0.4169922,-0.15264893,-0.86676025,0.0,-0.578125,0.265625,626
627,1696253920171,-0.41381836,-0.1572876,-0.87164307,-0.296875,-0.71875,0.203125,627
628,1696253920211,-0.42138672,-0.15582275,-0.8740845,-0.578125,-0.375,0.25,628
629,1696253920251,-0.41503906,-0.15118408,-0.86968994,0.03125,-0.296875,0.0625,629
630,1696253920291,-0.41430664,-0.15509033,-0.86724854,-0.09375,-0.34375,0.234375,630
631,1696253920331,-0.41723633,-0.15020752,-0.8677368,-0.046875,-0.265625,0.15625,631
632,1696253920371,-0.41845703,-0.1560669,-0.85894775,0.234375,-0.078125,0.09375,632
633,1696253920411,-0.4169922,-0.15533447,-0.8604126,0.0625,-0.546875,0.03125,633
634,1696253920451,-0.41870117,-0.15289307,-0.8706665,-0.0625,-0.59375,0.0625,634
635,1696253920491,-0.4194336,-0.15753174,-0.8765259,-0.015625,-0.53125,0.21875,635
636,1696253920531,-0.42138672,-0.15362549,-0.8753052,-0.015625,-0.375,0.234375,636
637,1696253920571,-0.41333008,-0.1560669,-0.87457275,-0.0625,-0.328125,0.21875,637
638,1696253920611,-0.41333008,-0.1519165,-0.861145,0.140625,-0.21875,0.203125,638
639,1696253920651,-0.41845703,-0.1531372,-0.8652954,-0.203125,-0.171875,0.09375,639
640,1696253920691,-0.4165039,-0.15704346,-0.8701782,-0.265625,-0.234375,0.046875,640
641,1696253920731,-0.4189453,-0.15240479,-0.87213135,-0.0625,-0.25,0.125,641
642,1696253920771,-0.4189453,-0.14508057,-0.86724854,-0.125,-0.3125,0.203125,642
643,1696253920811,-0.41455078,-0.1585083,-0.8792114,-0.25,-0.46875,0.21875,643
644,1696253920851,-0.4111328,-0.14971924,-0.862854,-0.015625,-0.265625,0.125,644
645,1696253920891,-0.4140625,-0.15264893,-0.8718872,-0.09375,-0.484375,0.140625,645
646,1696253920931,-0.41259766,-0.15802002,-0.8694458,0.203125,-0.078125,0.125,646
647,1696253920971,-0.4182129,-0.1585083,-0.8682251,-0.109375,-0.484375,0.09375,647
648,1696253921011,-0.41967773,-0.15704346,-0.87457275,0.015625,-0.265625,0.15625,648
649,1696253921051,-0.4189453,-0.15679932,-0.8726196,0.015625,-0.59375,0.171875,649
650,1696253921091,-0.4128418,-0.15240479,-0.8635864,-0.265625,-0.25,0.171875,650
651,1696253921131,-0.42089844,-0.15411377,-0.8689575,-0.34375,-0.359375,0.140625,651
652,1696253921171,-0.41625977,-0.15655518,-0.8726196,-0.015625,-0.40625,0.125,652
653,1696253921211,-0.41552734,-0.14849854,-0.87286377,-0.078125,-0.328125,0.09375,653
654,1696253921251,-0.42358398,-0.1585083,-0.86920166,-0.015625,-0.5625,0.078125,654
655,1696253921291,-0.4194336,-0.15826416,-0.87042236,-0.25,-0.34375,0.203125,655
656,1696253921331,-0.4165039,-0.15679932,-0.86798096,0.109375,-0.1875,0.171875,656
657,1696253921371,-0.42382812,-0.15509033,-0.8604126,0.203125,-0.3125,0.125,657
658,1696253921411,-0.41503906,-0.15509033,-0.8670044,0.0625,-0.328125,0.125,658
659,1696253921451,-0.4194336,-0.15509033,-0.8699341,0.078125,-0.296875,0.21875,659
660,1696253921491,-0.42358398,-0.15167236,-0.8723755,-0.15625,-0.5,0.34375,660
661,1696253921531,-0.41674805,-0.15411377,-0.86553955,-0.0625,-0.4375,0.09375,661
662,1696253921571,-0.4165039,-0.15460205,-0.8674927,-0.140625,-0.4375,0.1875,662
663,1696253921611,-0.41479492,-0.1506958,-0.862854,-0.140625,-0.296875,0.09375,663
664,1696253921651,-0.41796875,-0.15631104,-0.86846924,-0.171875,-0.4375,0.09375,664
665,1696253921691,-0.42260742,-0.15679932,-0.86846924,-0.15625,-0.5,0.1875,665
666,1696253921731,-0.4182129,-0.1506958,-0.8616333,-0.078125,-0.21875,0.203125,666
667,1696253921771,-0.41357422,-0.15338135,-0.87628174,-0.0625,-0.34375,0.265625,667
668,1696253921811,-0.42163086,-0.15533447,-0.86553955,-0.234375,-0.390625,0.21875,668
669,1696253921851,-0.4177246,-0.15777588,-0.8723755,0.015625,-0.484375,0.0625,669
670,1696253921891,-0.4169922,-0.15338135,-0.87286377,0.015625,-0.46875,0.28125,670
671,1696253921931,-0.41723633,-0.15045166,-0.86309814,0.125,-0.46875,0.078125,671
672,1696253921971,-0.41381836,-0.15020752,-0.8718872,-0.125,-0.375,0.140625,672
673,1696253922011,-0.41723633,-0.15582275,-0.86676025,-0.09375,-0.265625,0.203125,673
674,1696253922051,-0.41625977,-0.15264893,-0.8648071,0.078125,-0.234375,0.078125,674
675,1696253922091,-0.42089844,-0.14752197,-0.8723755,-0.203125,-0.375,0.171875,675
676,1696253922131,-0.41870117,-0.14849854,-0.8657837,-0.28125,-0.375,0.234375,676
677,1696253922171,-0.41918945,-0.15679932,-0.8694458,-0.109375,-0.3125,0.125,677
678,1696253922211,-0.41674805,-0.15411377,-0.8765259,-0.21875,-0.421875,0.234375,678
679,1696253922251,-0.4152832,-0.15679932,-0.86505127,-0.171875,-0.359375,0.234375,679
680,1696253922291,-0.4169922,-0.15679932,-0.8687134,-0.140625,-0.515625,0.171875,680
681,1696253922331,-0.42358398,-0.15509033,-0.8726196,0.03125,-0.4375,0.296875,681
682,1696253922371,-0.4169922,-0.15704346,-0.86309814,-0.015625,-0.25,0.265625,682
683,1696253922411,-0.4182129,-0.15435791,-0.87042236,-0.140625,-0.546875,0.109375,683
684,1696253922451,-0.41479492,-0.16143799,-0.8687134,-0.140625,-0.5,0.15625,684
685,1696253922491,-0.4169922,-0.15435791,-0.8689575,0.015625,-0.359375,0.15625,685
686,1696253922531,-0.41870117,-0.15093994,-0.8652954,-0.078125,-0.375,0.125,686
687,1696253922571,-0.41723633,-0.15411377,-0.8701782,-0.203125,-0.640625,0.296875,687
688,1696253922611,-0.42285156,-0.15142822,-0.87335205,-0.203125,-0.5,-0.015625,688
689,1696253922651,-0.41748047,-0.1560669,-0.86602783,-0.015625,-0.34375,0.171875,689
690,1696253922691,-0.41357422,-0.15435791,-0.8689575,-0.15625,-0.453125,0.125,690
691,1696253922731,-0.42016602,-0.159729,-0.86920166,-0.21875,-0.328125,0.203125,691
692,1696253922771,-0.41503906,-0.1572876,-0.8657837,0.25,-0.203125,0.109375,692
693,1696253922811,-0.41870117,-0.15435791,-0.8689575,0.03125,-0.453125,0.203125,693
694,1696253922851,-0.42041016,-0.15655518,-0.8723755,0.046875,-0.4375,0.15625,694
695,1696253922891,-0.4177246,-0.15655518,-0.87164307,0.15625,-0.4375,0.1875,695
696,1696253922931,-0.41748047,-0.15093994,-0.8701782,0.34375,-0.375,0.015625,696
697,1696253922971,-0.4189453,-0.15216064,-0.86553955,0.578125,-0.328125,0.078125,697
698,1696253923011,-0.42163086,-0.15167236,-0.864563,0.546875,-0.125,-0.046875,698
699,1696253923051,-0.41723633,-0.14727783,-0.87042236,0.234375,-0.296875,0.046875,699
700,1696253923091,-0.41870117,-0.15020752,-0.86553955,0.34375,-0.171875,0.0625,700
701,1696253923131,-0.41479492,-0.15289307,-0.8687134,0.171875,-0.203125,0.1875,701
702,1696253923171,-0.41381836,-0.14654541,-0.8718872,0.078125,-0.390625,-0.015625,702
703,1696253923211,-0.42016602,-0.14678955,-0.8777466,-0.25,-0.53125,0.125,703
704,1696253923251,-0.41748047,-0.14678955,-0.86505127,-0.28125,-0.296875,0.1875,704
705,1696253923291,-0.41992188,-0.15240479,-0.8694458,-0.3125,-0.046875,0.265625,705
706,1696253923331,-0.41992188,-0.14898682,-0.86602783,-0.296875,-0.421875,0.3125,706
707,1696253923371,-0.4243164,-0.1506958,-0.87164307,-0.875,-0.578125,0.3125,707
708,1696253923411,-0.42114258,-0.14923096,-0.8674927,-0.40625,-0.109375,0.1875,708
709,1696253923451,-0.42211914,-0.15484619,-0.8743286,-0.59375,-0.640625,0.3125,709
710,1696253923491,-0.42016602,-0.15240479,-0.86431885,-0.109375,-0.65625,0.328125,710
711,1696253923531,-0.41796875,-0.15289307,-0.8518677,-0.1875,-0.4375,0.234375,711
712,1696253923571,-0.42529297,-0.1494751,-0.87457275,-0.65625,-0.8125,0.296875,712
713,1696253923611,-0.42211914,-0.16241455,-0.87823486,-0.0625,-0.796875,0.125,713
714,1696253923651,-0.41992188,-0.15264893,-0.8633423,-0.265625,-0.421875,0.28125,714
715,1696253923691,-0.41845703,-0.15411377,-0.87506104,0.0,-0.203125,0.0625,715
716,1696253923731,-0.4194336,-0.15362549,-0.8609009,0.15625,-0.359375,0.125,716
717,1696253923771,-0.4099121,-0.15411377,-0.8599243,0.21875,-0.59375,0.109375,717
718,1696253923811,-0.42333984,-0.15533447,-0.862854,0.109375,-0.34375,0.1875,718
719,1696253923851,-0.41845703,-0.15509033,-0.87213135,-0.140625,-0.5625,0.1875,719
720,1696253923891,-0.4194336,-0.15875244,-0.88238525,-0.046875,-0.296875,0.140625,720
721,1696253923931,-0.42016602,-0.15753174,-0.87042236,0.046875,-0.484375,0.015625,721
722,1696253923971,-0.41259766,-0.15679932,-0.86383057,-0.015625,-0.453125,0.171875,722
723,1696253924011,-0.41870117,-0.1494751,-0.86065674,-0.0625,-0.4375,0.21875,723
724,1696253924051,-0.41333008,-0.15557861,-0.8635864,0.03125,-0.34375,0.15625,724
725,1696253924091,-0.42114258,-0.15826416,-0.86553955,0.203125,-0.328125,0.125,725
726,1696253924131,-0.42260742,-0.15826416,-0.86920166,-0.140625,-0.5,0.171875,726
727,1696253924171,-0.42382812,-0.15753174,-0.8743286,-0.0625,-0.453125,0.15625,727
728,1696253924211,-0.42041016,-0.15435791,-0.87457275,-0.0625,-0.640625,0.0625,728
729,1696253924251,-0.41845703,-0.15020752,-0.8657837,0.203125,-0.265625,0.03125,729
730,1696253924291,-0.41796875,-0.15338135,-0.8713989,-0.1875,-0.453125,0.34375,730
731,1696253924331,-0.4169922,-0.15167236,-0.87286377,0.15625,-0.3125,0.09375,731
732,1696253924371,-0.4169922,-0.1531372,-0.86505127,0.359375,-0.28125,0.03125,732
733,1696253924411,-0.4206543,-0.1482544,-0.87628174,0.015625,-0.484375,0.21875,733
734,1696253924451,-0.4194336,-0.1531372,-0.8809204,0.03125,-0.3125,0.125,734
735,1696253924491,-0.41577148,-0.15338135,-0.86138916,-0.046875,-0.3125,0.234375,735
736,1696253924531,-0.4091797,-0.15240479,-0.85821533,-0.15625,-0.328125,0.21875,736
737,1696253924571,-0.41479492,-0.1519165,-0.866272,-0.21875,-0.625,0.171875,737
738,1696253924611,-0.4182129,-0.15216064,-0.86676025,0.046875,-0.4375,0.125,738
739,1696253924651,-0.42333984,-0.15093994,-0.8657837,-0.1875,-0.140625,-0.015625,739
740,1696253924691,-0.42041016,-0.15240479,-0.87677,-0.015625,-0.484375,0.109375,740
741,1696253924731,-0.42016602,-0.14630127,-0.8652954,0.03125,-0.390625,0.109375,741
742,1696253924771,-0.4194336,-0.15460205,-0.8699341,-0.1875,-0.5,0.1875,742
743,1696253924811,-0.4165039,-0.15240479,-0.86676025,-0.03125,-0.578125,0.0,743
744,1696253924851,-0.421875,-0.15411377,-0.86383057,0.109375,-0.25,-0.015625,744
745,1696253924891,-0.42504883,-0.15093994,-0.8674927,-0.109375,-0.4375,0.109375,745
746,1696253924931,-0.41992188,-0.15777588,-0.8694458,-0.21875,-0.484375,0.3125,746
747,1696253924971,-0.41674805,-0.15289307,-0.86798096,-0.375,-0.1875,0.28125,747
748,1696253925011,-0.41381836,-0.1531372,-0.86553955,-0.03125,-0.109375,0.015625,748
749,1696253925051,-0.42163086,-0.14849854,-0.8706665,-0.296875,-0.40625,0.28125,749
750,1696253925091,-0.4189453,-0.15362549,-0.87286377,-0.28125,-0.4375,0.265625,750
751,1696253925131,-0.41870117,-0.14923096,-0.8640747,0.09375,-0.34375,0.328125,751
752,1696253925171,-0.42114258,-0.15533447,-0.8699341,-0.078125,-0.5,0.1875,752
753,1696253925211,-0.421875,-0.15533447,-0.8735962,0.203125,-0.421875,0.109375,753
754,1696253925251,-0.4169922,-0.1482544,-0.8735962,0.0,-0.40625,0.265625,754
755,1696253925291,-0.41748047,-0.15582275,-0.86602783,-0.078125,-0.359375,0.15625,755
756,1696253925331,-0.41186523,-0.1560669,-0.8677368,-0.203125,-0.640625,0.234375,756
757,1696253925371,-0.4165039,-0.15826416,-0.8621216,-0.25,-0.375,0.046875,757
758,1696253925411,-0.41870117,-0.15216064,-0.87091064,-0.21875,-0.421875,0.171875,758
759,1696253925451,-0.41748047,-0.15118408,-0.862854,-0.0625,-0.390625,0.203125,759
