,timestamp,accel_x,accel_y,accel_z,gyro_x,gyro_y,gyro_z
0,1696254813061,-0.43896484,-0.10479736,-0.87457275,-0.015625,-0.34375,0.296875
1,1696254813101,-0.4428711,-0.09869385,-0.87164307,-0.109375,-0.09375,0.140625
2,1696254813141,-0.44018555,-0.101623535,-0.8711548,-0.046875,-0.25,0.203125
3,1696254813181,-0.43286133,-0.09503174,-0.8687134,0.1875,-0.40625,0.140625
4,1696254813221,-0.43481445,-0.09844971,-0.866272,-0.03125,-0.46875,0.140625
5,1696254813261,-0.44067383,-0.09649658,-0.86602783,-0.09375,-0.4375,-0.015625
6,1696254813301,-0.44384766,-0.10089111,-0.8735962,-0.03125,-0.375,0.203125
7,1696254813341,-0.43920898,-0.09967041,-0.86846924,-0.046875,-0.46875,0.140625
8,1696254813381,-0.43774414,-0.10064697,-0.8699341,-0.21875,-0.3125,0.28125
9,1696254813421,-0.43920898,-0.09893799,-0.8665161,0.234375,-0.359375,0.234375
10,1696254813461,-0.43920898,-0.09454346,-0.8670044,0.015625,-0.671875,0.15625
11,1696254813501,-0.4416504,-0.10211182,-0.87091064,0.0,-0.46875,0.15625
12,1696254813541,-0.4404297,-0.09576416,-0.8682251,-0.171875,-0.375,0.1875
13,1696254813581,-0.43847656,-0.09893799,-0.8670044,-0.078125,-0.390625,0.28125
14,1696254813621,-0.43603516,-0.101379395,-0.86602783,-0.078125,-0.265625,0.296875
15,1696254813661,-0.44384766,-0.10211182,-0.87164307,-0.140625,-0.359375,0.125
16,1696254813701,-0.43896484,-0.10284424,-0.86724854,-0.21875,-0.109375,0.140625
17,1696254813741,-0.44018555,-0.08917236,-0.8713989,-0.046875,-0.453125,0.171875
18,1696254813781,-0.4326172,-0.093566895,-0.87091064,-0.265625,-0.484375,0.09375
19,1696254813821,-0.43920898,-0.09503174,-0.86968994,-0.125,-0.609375,0.234375
20,1696254813861,-0.4440918,-0.09942627,-0.8731079,0.0,-0.546875,0.1875
21,1696254813901,-0.43774414,-0.10357666,-0.86968994,-0.125,-0.609375,0.265625
22,1696254813941,-0.43823242,-0.101135254,-0.86798096,-0.046875,-0.5625,0.265625
23,1696254813981,-0.4375,-0.10015869,-0.8718872,-0.21875,-0.5,0.171875
24,1696254814021,-0.43408203,-0.10040283,-0.87384033,-0.1875,-0.328125,0.3125
25,1696254814061,-0.4375,-0.0960083,-0.86260986,-0.09375,-0.359375,0.1875
26,1696254814101,-0.4404297,-0.0960083,-0.86724854,-0.1875,-0.328125,0.203125
27,1696254814141,-0.43945312,-0.10479736,-0.8687134,-0.1875,-0.5625,0.1875
28,1696254814181,-0.4440918,-0.10040283,-0.8648071,-0.34375,-0.390625,0.125
29,1696254814221,-0.44140625,-0.10015869,-0.866272,-0.234375,-0.359375,0.25
30,1696254814261,-0.43945312,-0.10089111,-0.86383057,-0.203125,-0.40625,0.015625
31,1696254814301,-0.4411621,-0.10601807,-0.86920166,-0.234375,-0.375,0.1875
32,1696254814341,-0.4411621,-0.101379395,-0.86798096,-0.28125,-0.5625,0.234375
33,1696254814381,-0.43969727,-0.10040283,-0.8682251,-0.140625,-0.671875,0.125
34,1696254814421,-0.43945312,-0.10308838,-0.8670044,-0.25,-0.59375,0.109375
35,1696254814461,-0.44384766,-0.10040283,-0.8740845,-0.40625,-0.453125,0.125
36,1696254814501,-0.44067383,-0.10284424,-0.87042236,-0.25,-0.515625,0.234375
37,1696254814541,-0.4362793,-0.10211182,-0.8670044,-0.0625,-0.40625,0.234375
38,1696254814581,-0.4375,-0.097717285,-0.8670044,-0.1875,-0.375,0.21875
39,1696254814621,-0.43774414,-0.10235596,-0.87091064,-0.171875,-0.71875,0.171875
40,1696254814661,-0.43554688,-0.1038208,-0.8701782,-0.328125,-0.515625,0.171875
41,1696254814701,-0.43920898,-0.10308838,-0.87042236,-0.328125,-0.375,0.125
42,1696254814741,-0.43408203,-0.10772705,-0.8706665,-0.453125,-0.734375,0.25
43,1696254814781,-0.4387207,-0.10479736,-0.866272,-0.125,-0.328125,0.25
44,1696254814821,-0.43603516,-0.105285645,-0.8699341,0.015625,-0.703125,0.15625
45,1696254814861,-0.43774414,-0.10235596,-0.86920166,-0.015625,-0.65625,0.09375
46,1696254814901,-0.43774414,-0.105285645,-0.8677368,-0.109375,-0.59375,0.1875
47,1696254814941,-0.4428711,-0.105773926,-0.8635864,-0.09375,-0.53125,0.109375
48,1696254814981,-0.44433594,-0.10406494,-0.87042236,-0.328125,-0.4375,0.3125
49,1696254815021,-0.4387207,-0.10284424,-0.8677368,-0.15625,-0.359375,0.078125
50,1696254815061,-0.44067383,-0.10748291,-0.8711548,-0.296875,-0.390625,0.3125
51,1696254815101,-0.4350586,-0.10650635,-0.8682251,-0.28125,-0.484375,0.140625
52,1696254815141,-0.43603516,-0.10845947,-0.86676025,-0.1875,-0.546875,0.03125
53,1696254815181,-0.43188477,-0.10040283,-0.8701782,-0.296875,-0.375,0.203125
54,1696254815221,-0.43652344,-0.10601807,-0.8670044,-0.15625,-0.625,0.265625
55,1696254815261,-0.43847656,-0.10699463,-0.8701782,-0.125,-0.515625,0.28125
56,1696254815301,-0.4326172,-0.10015869,-0.86724854,-0.203125,-0.4375,0.28125
57,1696254815341,-0.4350586,-0.093322754,-0.8701782,-0.03125,-0.71875,0.25
58,1696254815381,-0.4440918,-0.10748291,-0.8694458,-0.140625,-0.53125,0.359375
59,1696254815421,-0.43969727,-0.09820557,-0.8648071,0.015625,-0.34375,0.03125
60,1696254815461,-0.44067383,-0.10870361,-0.8677368,-0.234375,-0.453125,0.046875
61,1696254815501,-0.4326172,-0.10333252,-0.8665161,-0.046875,-0.375,0.28125
62,1696254815541,-0.43774414,-0.10211182,-0.864563,-0.0625,-0.5,0.25
63,1696254815581,-0.43603516,-0.105773926,-0.8677368,0.0,-0.484375,0.1875
64,1696254815621,-0.43652344,-0.10015869,-0.8694458,0.03125,-0.59375,0.171875
65,1696254815661,-0.43554688,-0.10284424,-0.8674927,-0.0625,-0.5,0.25
66,1696254815701,-0.4362793,-0.10455322,-0.8718872,-0.140625,-0.421875,0.0
67,1696254815741,-0.43286133,-0.10211182,-0.8706665,-0.0625,-0.421875,0.09375
68,1696254815781,-0.4350586,-0.10675049,-0.86724854,0.015625,-0.21875,0.21875
69,1696254815821,-0.43286133,-0.10601807,-0.8694458,0.015625,-0.453125,0.25
70,1696254815861,-0.43823242,-0.10333252,-0.8682251,0.125,-0.515625,0.3125
71,1696254815901,-0.43701172,-0.105773926,-0.86968994,-0.09375,-0.328125,0.109375
72,1696254815941,-0.43115234,-0.10723877,-0.8689575,0.046875,-0.6875,0.15625
73,1696254815981,-0.4387207,-0.1038208,-0.8665161,0.171875,-0.484375,0.109375
74,1696254816021,-0.43237305,-0.1026001,-0.8699341,0.109375,-0.59375,0.15625
75,1696254816061,-0.43701172,-0.10040283,-0.86505127,-0.03125,-0.390625,0.125
76,1696254816101,-0.43286133,-0.097473145,-0.8701782,0.0,-0.421875,0.25
77,1696254816141,-0.43945312,-0.10064697,-0.8701782,0.109375,-0.25,0.171875
78,1696254816181,-0.43603516,-0.09991455,-0.87335205,-0.1875,-0.34375,0.203125
79,1696254816221,-0.43896484,-0.10406494,-0.8694458,0.0625,-0.140625,0.1875
80,1696254816261,-0.4326172,-0.1038208,-0.8687134,0.15625,-0.359375,0.28125
81,1696254816301,-0.4362793,-0.101135254,-0.8665161,0.109375,-0.5,0.171875
82,1696254816341,-0.43432617,-0.10455322,-0.87335205,0.109375,-0.53125,0.15625
83,1696254816381,-0.4387207,-0.10430908,-0.86602783,0.15625,-0.484375,0.109375
84,1696254816421,-0.4399414,-0.101379395,-0.8674927,0.078125,-0.515625,0.109375
85,1696254816461,-0.43920898,-0.09991455,-0.8699341,0.09375,-0.390625,0.234375
86,1696254816501,-0.43408203,-0.097717285,-0.86968994,0.046875,-0.484375,0.15625
87,1696254816541,-0.43774414,-0.09674072,-0.8687134,-0.046875,-0.40625,0.1875
88,1696254816581,-0.4362793,-0.10675049,-0.8657837,0.0,-0.3125,0.40625
89,1696254816621,-0.43359375,-0.093566895,-0.8682251,0.140625,-0.4375,0.09375
90,1696254816661,-0.43432617,-0.09698486,-0.86920166,-0.078125,-0.296875,0.203125
91,1696254816701,-0.4399414,-0.097961426,-0.8711548,-0.015625,-0.234375,0.21875
92,1696254816741,-0.43603516,-0.09918213,-0.86260986,0.234375,-0.546875,0.15625
93,1696254816781,-0.43603516,-0.09991455,-0.8623657,0.0625,-0.40625,0.265625
94,1696254816821,-0.43823242,-0.10040283,-0.86505127,0.0625,-0.390625,0.078125
95,1696254816861,-0.44067383,-0.101379395,-0.8711548,-0.078125,-0.375,0.203125
96,1696254816901,-0.4326172,-0.09234619,-0.86920166,0.0,-0.46875,0.203125
97,1696254816941,-0.43676758,-0.10015869,-0.86920166,-0.046875,-0.34375,0.203125
98,1696254816981,-0.4399414,-0.10064697,-0.8718872,0.046875,-0.375,0.1875
99,1696254817021,-0.4428711,-0.097229004,-0.8694458,-0.0625,-0.53125,0.328125
100,1696254817061,-0.4350586,-0.09942627,-0.86309814,0.03125,-0.34375,0.125
101,1696254817101,-0.4338379,-0.09893799,-0.87164307,0.046875,-0.328125,0.21875
102,1696254817141,-0.43920898,-0.093322754,-0.8665161,0.015625,-0.265625,0.140625
103,1696254817181,-0.43188477,-0.097717285,-0.86798096,-0.109375,-0.25,0.109375
104,1696254817221,-0.4404297,-0.10357666,-0.8699341,0.03125,-0.40625,0.078125
105,1696254817261,-0.4375,-0.09942627,-0.86553955,-0.0625,-0.46875,0.203125
106,1696254817301,-0.4440918,-0.10015869,-0.87384033,0.03125,-0.359375,0.203125
107,1696254817341,-0.4399414,-0.09967041,-0.8623657,0.03125,-0.34375,0.25
108,1696254817381,-0.4416504,-0.09698486,-0.87164307,-0.234375,-0.328125,0.109375
109,1696254817421,-0.44262695,-0.10064697,-0.8657837,-0.09375,-0.5,0.21875
110,1696254817461,-0.43701172,-0.09942627,-0.8706665,0.109375,-0.265625,0.125
111,1696254817501,-0.43896484,-0.09942627,-0.864563,0.0625,-0.40625,0.203125
112,1696254817541,-0.44018555,-0.09942627,-0.86431885,-0.140625,-0.5,0.171875
113,1696254817581,-0.4404297,-0.09649658,-0.8699341,-0.078125,-0.34375,0.15625
114,1696254817621,-0.43945312,-0.09893799,-0.8633423,-0.0625,-0.390625,0.234375
115,1696254817661,-0.44262695,-0.09991455,-0.8694458,-0.234375,-0.578125,0.265625
116,1696254817701,-0.4404297,-0.105041504,-0.86187744,0.0625,-0.375,0.25
117,1696254817741,-0.4423828,-0.09991455,-0.87384033,0.0,-0.4375,0.21875
118,1696254817781,-0.4375,-0.093566895,-0.8706665,0.0,-0.4375,0.265625
119,1696254817821,-0.4416504,-0.10015869,-0.8713989,-0.015625,-0.34375,0.234375
120,1696254817861,-0.43798828,-0.09503174,-0.866272,-0.09375,-0.328125,0.09375
121,1696254817901,-0.43920898,-0.09967041,-0.8633423,-0.125,-0.375,0.203125
122,1696254817941,-0.44482422,-0.09185791,-0.86602783,-0.0625,-0.328125,0.25
123,1696254817981,-0.4375,-0.09283447,-0.8674927,-0.125,-0.453125,0.234375
124,1696254818021,-0.43945312,-0.09820557,-0.87042236,-0.171875,-0.578125,0.25
125,1696254818061,-0.44384766,-0.10333252,-0.8731079,-0.015625,-0.34375,0.109375
126,1696254818101,-0.4362793,-0.09259033,-0.86920166,-0.078125,-0.34375,0.203125
127,1696254818141,-0.4411621,-0.09259033,-0.86798096,0.015625,-0.375,0.15625
128,1696254818181,-0.4428711,-0.09967041,-0.8701782,-0.1875,-0.46875,0.1875
129,1696254818221,-0.44189453,-0.101623535,-0.86676025,0.109375,-0.46875,0.09375
130,1696254818261,-0.44433594,-0.101867676,-0.8687134,-0.015625,-0.609375,0.03125
131,1696254818301,-0.4362793,-0.093322754,-0.86553955,-0.015625,-0.546875,0.140625
132,1696254818341,-0.4375,-0.101379395,-0.8711548,-0.015625,-0.484375,0.21875
133,1696254818381,-0.4399414,-0.09820557,-0.8706665,0.046875,-0.296875,0.0625
134,1696254818421,-0.44189453,-0.101867676,-0.86431885,0.015625,-0.296875,0.34375
135,1696254818461,-0.43823242,-0.105285645,-0.87042236,-0.140625,-0.359375,0.125
136,1696254818501,-0.4411621,-0.09820557,-0.86431885,-0.109375,-0.390625,0.21875
137,1696254818541,-0.44384766,-0.09918213,-0.86676025,0.03125,-0.625,0.21875
138,1696254818581,-0.4326172,-0.101623535,-0.87506104,-0.09375,-0.453125,0.125
139,1696254818621,-0.4428711,-0.09942627,-0.8687134,-0.15625,-0.5625,0.109375
140,1696254818661,-0.43823242,-0.101623535,-0.8640747,-0.15625,-0.484375,0.078125
141,1696254818701,-0.44628906,-0.09844971,-0.8682251,0.046875,-0.3125,0.140625
142,1696254818741,-0.4428711,-0.10040283,-0.866272,-0.171875,-0.484375,0.140625
143,1696254818781,-0.44018555,-0.09893799,-0.86920166,-0.1875,-0.484375,0.234375
144,1696254818821,-0.4411621,-0.09088135,-0.8670044,-0.078125,-0.328125,0.140625
145,1696254818861,-0.43725586,-0.10211182,-0.8694458,-0.15625,-0.328125,0.1875
146,1696254818901,-0.44213867,-0.10064697,-0.861145,0.03125,-0.46875,0.15625
147,1696254818941,-0.44384766,-0.09967041,-0.8753052,-0.265625,-0.40625,0.234375
148,1696254818981,-0.44067383,-0.09942627,-0.8616333,-0.078125,-0.359375,0.1875
149,1696254819021,-0.43701172,-0.09820557,-0.87213135,0.09375,-0.484375,0.15625
150,1696254819061,-0.43945312,-0.09869385,-0.8670044,0.0,-0.390625,0.25
151,1696254819101,-0.4428711,-0.09454346,-0.87579346,-0.078125,-0.46875,0.140625
152,1696254819141,-0.44213867,-0.09527588,-0.866272,-0.09375,-0.296875,0.0625
153,1696254819181,-0.4399414,-0.09844971,-0.86431885,-0.0625,-0.421875,0.15625
154,1696254819221,-0.4416504,-0.09454346,-0.87091064,-0.359375,-0.625,0.296875
155,1696254819261,-0.43530273,-0.09674072,-0.8652954,-0.1875,-0.296875,0.234375
156,1696254819301,-0.43920898,-0.101379395,-0.86724854,-0.078125,-0.375,0.21875
157,1696254819341,-0.4453125,-0.093811035,-0.8711548,-0.203125,-0.53125,0.1875
158,1696254819381,-0.4465332,-0.09234619,-0.87213135,-0.21875,-0.4375,0.203125
159,1696254819421,-0.43823242,-0.105285645,-0.864563,-0.3125,-0.375,0.171875
160,1696254819461,-0.4404297,-0.09820557,-0.86676025,-0.21875,-0.375,0.265625
161,1696254819501,-0.44311523,-0.097229004,-0.8623657,-0.265625,-0.40625,0.0625
162,1696254819541,-0.44311523,-0.097717285,-0.8665161,-0.25,-0.453125,0.296875
163,1696254819581,-0.4428711,-0.10015869,-0.86431885,-0.203125,-0.4375,0.234375
164,1696254819621,-0.44335938,-0.09698486,-0.86798096,-0.265625,-0.328125,0.234375
165,1696254819661,-0.4416504,-0.09991455,-0.86260986,-0.328125,-0.328125,0.140625
166,1696254819701,-0.43725586,-0.09625244,-0.86065674,-0.25,-0.453125,0.078125
167,1696254819741,-0.44677734,-0.10040283,-0.8621216,-0.328125,-0.34375,0.140625
168,1696254819781,-0.44213867,-0.10699463,-0.8623657,-0.140625,-0.625,0.171875
169,1696254819821,-0.44262695,-0.10064697,-0.864563,-0.09375,-0.453125,0.046875
170,1696254819861,-0.4411621,-0.09942627,-0.86724854,-0.234375,-0.5,0.140625
171,1696254819901,-0.44018555,-0.1026001,-0.8701782,-0.125,-0.59375,0.109375
172,1696254819941,-0.43847656,-0.10406494,-0.8706665,-0.375,-0.53125,0.09375
173,1696254819981,-0.44628906,-0.09307861,-0.8701782,-0.046875,-0.375,0.140625
174,1696254820021,-0.44189453,-0.10089111,-0.8694458,-0.171875,-0.375,0.140625
175,1696254820061,-0.43945312,-0.10675049,-0.8674927,-0.140625,-0.375,0.25
176,1696254820101,-0.43920898,-0.101379395,-0.86383057,-0.03125,-0.484375,0.09375
177,1696254820141,-0.44628906,-0.09918213,-0.8665161,-0.078125,-0.4375,0.140625
178,1696254820181,-0.43945312,-0.101623535,-0.86602783,-0.3125,-0.453125,0.171875
179,1696254820221,-0.44628906,-0.097961426,-0.86431885,-0.375,-0.46875,0.15625
180,1696254820261,-0.44311523,-0.09918213,-0.8657837,0.015625,-0.5625,0.15625
181,1696254820301,-0.44018555,-0.10064697,-0.86505127,-0.109375,-0.46875,0.09375
182,1696254820341,-0.43530273,-0.109191895,-0.8706665,0.03125,-0.640625,0.328125
183,1696254820381,-0.4404297,-0.10455322,-0.86431885,-0.21875,-0.375,0.25
184,1696254820421,-0.43823242,-0.09844971,-0.86260986,-0.234375,-0.40625,0.28125
185,1696254820461,-0.4345703,-0.10357666,-0.8652954,-0.03125,-0.421875,0.15625
186,1696254820501,-0.4428711,-0.09918213,-0.86260986,-0.1875,-0.375,0.09375
187,1696254820541,-0.43676758,-0.10626221,-0.8652954,0.015625,-0.578125,0.1875
188,1696254820581,-0.43823242,-0.105529785,-0.8711548,-0.015625,-0.5,0.1875
189,1696254820621,-0.4387207,-0.09820557,-0.86602783,-0.078125,-0.3125,0.078125
190,1696254820661,-0.44067383,-0.09942627,-0.86383057,-0.03125,-0.59375,0.109375
191,1696254820701,-0.44213867,-0.09820557,-0.8694458,0.015625,-0.34375,0.15625
192,1696254820741,-0.43701172,-0.10235596,-0.86260986,-0.046875,-0.53125,0.109375
193,1696254820781,-0.4416504,-0.09674072,-0.8670044,-0.28125,-0.328125,0.078125
194,1696254820821,-0.43847656,-0.101623535,-0.86383057,0.015625,-0.296875,0.21875
195,1696254820861,-0.43896484,-0.097961426,-0.8713989,0.046875,-0.65625,0.296875
196,1696254820901,-0.43823242,-0.10357666,-0.8701782,0.015625,-0.390625,0.203125
197,1696254820941,-0.4440918,-0.097473145,-0.86505127,-0.0625,-0.390625,0.203125
198,1696254820981,-0.43774414,-0.0960083,-0.8652954,0.0,-0.53125,0.125
199,1696254821021,-0.4399414,-0.10284424,-0.86431885,-0.21875,-0.3125,0.078125
200,1696254821061,-0.43969727,-0.10455322,-0.87164307,-0.03125,-0.4375,0.1875
201,1696254821101,-0.4362793,-0.10455322,-0.8633423,-0.078125,-0.5625,0.203125
202,1696254821141,-0.43896484,-0.10211182,-0.8677368,0.0,-0.640625,0.15625
203,1696254821181,-0.43603516,-0.10723877,-0.87042236,0.109375,-0.546875,0.234375
204,1696254821221,-0.4362793,-0.10284424,-0.8665161,-0.015625,-0.5625,0.109375
205,1696254821261,-0.43554688,-0.10089111,-0.86724854,-0.078125,-0.453125,0.140625
206,1696254821301,-0.43847656,-0.09698486,-0.86260986,-0.03125,-0.421875,0.265625
207,1696254821341,-0.44555664,-0.10089111,-0.86138916,0.15625,-0.375,0.09375
208,1696254821381,-0.4399414,-0.10089111,-0.87286377,0.015625,-0.359375,0.234375
209,1696254821421,-0.4404297,-0.10845947,-0.8670044,0.0,-0.53125,0.21875
210,1696254821461,-0.44140625,-0.101867676,-0.8648071,0.109375,-0.4375,0.15625
211,1696254821501,-0.4404297,-0.09967041,-0.87091064,-0.03125,-0.453125,0.09375
212,1696254821541,-0.4411621,-0.10479736,-0.8694458,-0.0625,-0.5,0.265625
213,1696254821581,-0.44091797,-0.10089111,-0.86553955,0.140625,-0.484375,0.265625
214,1696254821621,-0.44018555,-0.10284424,-0.86724854,0.109375,-0.5,0.21875
215,1696254821661,-0.44213867,-0.10284424,-0.8682251,-0.015625,-0.546875,0.234375
216,1696254821701,-0.4423828,-0.09698486,-0.8633423,0.015625,-0.4375,0.234375
217,1696254821741,-0.43701172,-0.10211182,-0.8687134,0.0,-0.375,0.25
218,1696254821781,-0.43798828,-0.09991455,-0.86724854,0.015625,-0.453125,0.1875
219,1696254821821,-0.44189453,-0.09576416,-0.86383057,-0.125,-0.421875,0.203125
220,1696254821861,-0.44067383,-0.10089111,-0.8713989,0.0,-0.46875,0.15625
221,1696254821901,-0.44213867,-0.097473145,-0.8755493,0.109375,-0.53125,0.203125
222,1696254821941,-0.44433594,-0.09259033,-0.8699341,0.15625,-0.46875,0.21875
223,1696254821981,-0.4428711,-0.097717285,-0.8706665,0.078125,-0.25,0.203125
224,1696254822021,-0.43432617,-0.09454346,-0.8711548,-0.171875,-0.421875,0.046875
225,1696254822061,-0.43823242,-0.09942627,-0.8689575,-0.015625,-0.28125,0.28125
226,1696254822101,-0.4428711,-0.10308838,-0.8711548,0.140625,-0.4375,0.09375
227,1696254822141,-0.44384766,-0.09820557,-0.8706665,0.078125,-0.328125,0.125
228,1696254822181,-0.43969727,-0.09674072,-0.8699341,-0.078125,-0.46875,0.1875
229,1696254822221,-0.4416504,-0.09820557,-0.86260986,0.015625,-0.5625,0.140625
230,1696254822261,-0.43847656,-0.101379395,-0.8665161,-0.046875,-0.3125,0.265625
231,1696254822301,-0.4465332,-0.09503174,-0.87823486,-0.109375,-0.359375,0.1875
232,1696254822341,-0.4423828,-0.10284424,-0.86798096,0.0,-0.375,0.09375
233,1696254822381,-0.44018555,-0.09918213,-0.86602783,-0.09375,-0.546875,0.1875
234,1696254822421,-0.4428711,-0.09185791,-0.8682251,-0.0625,-0.578125,0.15625
235,1696254822461,-0.43920898,-0.09649658,-0.86724854,0.0625,-0.3125,0.203125
236,1696254822501,-0.4345703,-0.09576416,-0.8753052,-0.25,-0.359375,0.296875
237,1696254822541,-0.4375,-0.10211182,-0.862854,-0.09375,-0.40625,0.203125
238,1696254822581,-0.4350586,-0.09893799,-0.86724854,-0.015625,-0.390625,0.203125
239,1696254822621,-0.4440918,-0.09503174,-0.8706665,-0.125,-0.5,0.1875
240,1696254822661,-0.44604492,-0.097473145,-0.86431885,-0.09375,-0.375,0.203125
241,1696254822701,-0.43896484,-0.09942627,-0.8689575,-0.015625,-0.40625,0.203125
242,1696254822741,-0.4411621,-0.09820557,-0.86602783,-0.109375,-0.203125,0.125
243,1696254822781,-0.43652344,-0.09918213,-0.8621216,-0.078125,-0.28125,0.296875
244,1696254822821,-0.43579102,-0.09649658,-0.86431885,-0.015625,-0.484375,0.234375
245,1696254822861,-0.4411621,-0.097473145,-0.8726196,-0.109375,-0.5625,0.15625
246,1696254822901,-0.43725586,-0.101623535,-0.86553955,-0.046875,-0.171875,0.265625
247,1696254822941,-0.44213867,-0.097229004,-0.86383057,0.1875,-0.40625,0.125
248,1696254822981,-0.44067383,-0.10211182,-0.8609009,-0.171875,-0.28125,0.125
249,1696254823021,-0.43847656,-0.10235596,-0.8648071,-0.078125,-0.421875,0.203125
250,1696254823061,-0.43823242,-0.09210205,-0.866272,-0.125,-0.375,0.21875
251,1696254823101,-0.4411621,-0.097961426,-0.8694458,-0.234375,-0.390625,0.1875
252,1696254823141,-0.44189453,-0.0960083,-0.8699341,-0.40625,-0.578125,0.171875
253,1696254823181,-0.43969727,-0.09283447,-0.86724854,-0.0625,-0.265625,0.171875
254,1696254823221,-0.44555664,-0.09918213,-0.86505127,0.140625,-0.546875,0.125
255,1696254823261,-0.44360352,-0.09844971,-0.8743286,-0.015625,-0.40625,0.125
256,1696254823301,-0.4423828,-0.09454346,-0.8706665,-0.1875,-0.234375,0.1875
257,1696254823341,-0.43847656,-0.09649658,-0.87286377,-0.21875,-0.46875,0.234375
258,1696254823381,-0.4453125,-0.0960083,-0.86724854,-0.125,-0.296875,0.203125
259,1696254823421,-0.43920898,-0.09503174,-0.86553955,0.015625,-0.40625,0.203125
260,1696254823461,-0.44384766,-0.09454346,-0.86968994,0.0,-0.390625,0.328125
261,1696254823501,-0.43920898,-0.09844971,-0.86602783,-0.140625,-0.5,0.296875
262,1696254823541,-0.44213867,-0.09527588,-0.8640747,0.03125,-0.5,0.109375
263,1696254823581,-0.44458008,-0.094055176,-0.86920166,-0.09375,-0.390625,0.109375
264,1696254823621,-0.4423828,-0.10040283,-0.862854,-0.09375,-0.5,0.171875
265,1696254823661,-0.4465332,-0.101867676,-0.86431885,-0.0625,-0.5,0.140625
266,1696254823701,-0.44091797,-0.093566895,-0.866272,-0.15625,-0.46875,0.234375
267,1696254823741,-0.4416504,-0.09918213,-0.86920166,-0.15625,-0.5,0.234375
268,1696254823781,-0.4423828,-0.09991455,-0.8726196,0.015625,-0.484375,0.078125
269,1696254823821,-0.4404297,-0.097229004,-0.8670044,-0.171875,-0.4375,0.234375
270,1696254823861,-0.44262695,-0.093322754,-0.8689575,-0.078125,-0.421875,0.1875
271,1696254823901,-0.43945312,-0.10064697,-0.8652954,0.0,-0.4375,0.09375
272,1696254823941,-0.4404297,-0.09844971,-0.8706665,-0.046875,-0.390625,0.234375
273,1696254823981,-0.44213867,-0.10284424,-0.8735962,-0.296875,-0.5,0.1875
274,1696254824021,-0.43823242,-0.09893799,-0.8633423,-0.046875,-0.328125,0.171875
275,1696254824061,-0.44189453,-0.09429932,-0.8687134,0.03125,-0.546875,0.21875
276,1696254824101,-0.44189453,-0.097473145,-0.8731079,-0.1875,-0.390625,0.15625
277,1696254824141,-0.44213867,-0.09259033,-0.8689575,-0.0625,-0.5625,0.203125
278,1696254824181,-0.4411621,-0.09649658,-0.86187744,-0.125,-0.46875,0.28125
279,1696254824221,-0.44213867,-0.09869385,-0.86676025,-0.09375,-0.09375,0.125
280,1696254824261,-0.44213867,-0.09625244,-0.8623657,-0.234375,-0.203125,0.203125
281,1696254824301,-0.44311523,-0.09820557,-0.8652954,0.03125,-0.484375,0.265625
282,1696254824341,-0.44702148,-0.10211182,-0.87286377,-0.109375,-0.46875,0.171875
283,1696254824381,-0.4482422,-0.09893799,-0.8652954,-0.203125,-0.453125,0.1875
284,1696254824421,-0.44702148,-0.097961426,-0.86553955,-0.09375,-0.421875,0.1875
285,1696254824461,-0.44458008,-0.097229004,-0.8687134,-0.125,-0.5625,0.140625
286,1696254824501,-0.44189453,-0.09893799,-0.864563,-0.265625,-0.59375,0.171875
287,1696254824541,-0.44311523,-0.097229004,-0.8687134,-0.078125,-0.4375,0.125
288,1696254824581,-0.4411621,-0.09820557,-0.8670044,-0.3125,-0.3125,0.109375
289,1696254824621,-0.43847656,-0.09649658,-0.86798096,-0.234375,-0.40625,-0.046875
290,1696254824661,-0.44018555,-0.09674072,-0.8701782,0.046875,-0.515625,0.234375
291,1696254824701,-0.4428711,-0.09893799,-0.86920166,-0.359375,-0.390625,0.03125
292,1696254824741,-0.4411621,-0.105773926,-0.86431885,-0.203125,-0.5,0.234375
293,1696254824781,-0.44433594,-0.09893799,-0.86553955,-0.1875,-0.453125,0.359375
294,1696254824821,-0.4423828,-0.101867676,-0.866272,-0.046875,-0.5,0.1875
295,1696254824861,-0.44604492,-0.09649658,-0.8640747,-0.265625,-0.296875,0.21875
296,1696254824901,-0.44262695,-0.09967041,-0.8677368,-0.125,-0.296875,0.140625
297,1696254824941,-0.44335938,-0.105041504,-0.864563,-0.15625,-0.578125,0.25
298,1696254824981,-0.44726562,-0.09454346,-0.8665161,-0.25,-0.46875,0.15625
299,1696254825021,-0.4404297,-0.0947876,-0.8640747,-0.1875,-0.421875,0.078125
300,1696254825061,-0.44091797,-0.09503174,-0.8621216,-0.234375,-0.53125,0.171875
301,1696254825101,-0.4399414,-0.09674072,-0.8635864,-0.296875,-0.40625,0.203125
302,1696254825141,-0.43798828,-0.09893799,-0.8635864,-0.234375,-0.453125,0.171875
303,1696254825181,-0.43359375,-0.10284424,-0.8640747,-0.15625,-0.421875,0.109375
304,1696254825221,-0.44067383,-0.09991455,-0.8670044,-0.21875,-0.5,0.21875
305,1696254825261,-0.4440918,-0.10748291,-0.8657837,-0.203125,-0.46875,0.125
306,1696254825301,-0.44433594,-0.09844971,-0.8682251,-0.1875,-0.453125,0.109375
307,1696254825341,-0.44335938,-0.101867676,-0.8648071,-0.21875,-0.484375,0.171875
308,1696254825381,-0.44604492,-0.10406494,-0.8726196,-0.28125,-0.546875,0.1875
309,1696254825421,-0.44067383,-0.101623535,-0.86505127,-0.1875,-0.34375,0.09375
310,1696254825461,-0.44262695,-0.101867676,-0.8694458,-0.296875,-0.453125,0.25
311,1696254825501,-0.44018555,-0.09918213,-0.864563,-0.078125,-0.453125,0.203125
312,1696254825541,-0.44067383,-0.093322754,-0.8740845,-0.109375,-0.59375,0.078125
313,1696254825581,-0.44506836,-0.09991455,-0.8640747,-0.109375,-0.28125,0.234375
314,1696254825621,-0.4440918,-0.10211182,-0.86065674,-0.296875,-0.5625,0.140625
315,1696254825661,-0.44482422,-0.09869385,-0.86553955,-0.328125,-0.453125,0.15625
316,1696254825701,-0.44140625,-0.097473145,-0.86260986,-0.09375,-0.4375,0.125
317,1696254825741,-0.44189453,-0.101867676,-0.8674927,-0.328125,-0.640625,0.234375
318,1696254825781,-0.43847656,-0.09674072,-0.8640747,-0.171875,-0.59375,0.25
319,1696254825821,-0.43774414,-0.09918213,-0.87384033,0.03125,-0.671875,0.15625
320,1696254825861,-0.44091797,-0.10479736,-0.866272,-0.125,-0.609375,0.234375
321,1696254825901,-0.44189453,-0.10284424,-0.8652954,-0.25,-0.546875,0.21875
322,1696254825941,-0.4411621,-0.101623535,-0.8731079,-0.578125,-0.421875,0.390625
323,1696254825981,-0.4428711,-0.10211182,-0.87457275,-0.453125,-0.34375,0.15625
324,1696254826021,-0.4428711,-0.105773926,-0.86798096,-0.359375,-0.296875,0.140625
325,1696254826061,-0.4404297,-0.1038208,-0.8670044,-0.203125,-0.78125,0.125
326,1696254826101,-0.4440918,-0.109680176,-0.8670044,-0.09375,-0.578125,0.15625
327,1696254826141,-0.44335938,-0.105285645,-0.86676025,-0.203125,-0.40625,0.140625
328,1696254826181,-0.43945312,-0.105285645,-0.86309814,-0.171875,-0.59375,0.046875
329,1696254826221,-0.44311523,-0.10284424,-0.8670044,-0.109375,-0.546875,0.328125
330,1696254826261,-0.4399414,-0.105529785,-0.86676025,-0.046875,-0.375,0.265625
331,1696254826301,-0.4411621,-0.11138916,-0.86431885,0.015625,-0.484375,0.21875
332,1696254826341,-0.43530273,-0.10748291,-0.8623657,-0.1875,-0.5,-0.109375
333,1696254826381,-0.44384766,-0.101623535,-0.8723755,0.09375,-0.640625,0.140625
334,1696254826421,-0.43701172,-0.10406494,-0.864563,0.015625,-0.53125,0.328125
335,1696254826461,-0.43920898,-0.09893799,-0.8699341,0.078125,-0.421875,0.375
336,1696254826501,-0.4399414,-0.10089111,-0.8674927,-0.03125,-0.453125,0.203125
337,1696254826541,-0.44433594,-0.10015869,-0.86309814,0.171875,-0.390625,0.140625
338,1696254826581,-0.44555664,-0.09991455,-0.866272,0.109375,-0.328125,0.125
339,1696254826621,-0.43701172,-0.10455322,-0.86602783,-0.015625,-0.421875,0.375
340,1696254826661,-0.44140625,-0.10455322,-0.86798096,0.21875,-0.53125,0.15625
341,1696254826701,-0.4362793,-0.09942627,-0.8670044,0.0625,-0.296875,0.125
342,1696254826741,-0.4387207,-0.097473145,-0.86138916,-0.046875,-0.390625,0.125
343,1696254826781,-0.4399414,-0.105529785,-0.86505127,-0.125,-0.484375,0.171875
344,1696254826821,-0.43481445,-0.101867676,-0.8682251,-0.046875,-0.328125,0.15625
345,1696254826861,-0.4333496,-0.101867676,-0.8687134,-0.015625,-0.390625,0.203125
346,1696254826901,-0.4375,-0.105041504,-0.86431885,0.125,-0.546875,0.0625
347,1696254826941,-0.43603516,-0.10455322,-0.86920166,-0.015625,-0.40625,0.078125
348,1696254826981,-0.43774414,-0.09844971,-0.8682251,-0.078125,-0.515625,0.234375
349,1696254827021,-0.4411621,-0.09552002,-0.87091064,0.25,-0.5,0.203125
350,1696254827061,-0.44067383,-0.10089111,-0.866272,-0.03125,-0.5,0.171875
351,1696254827101,-0.43969727,-0.10601807,-0.8623657,0.0625,-0.375,0.203125
352,1696254827141,-0.44213867,-0.09967041,-0.86431885,0.140625,-0.53125,0.109375
353,1696254827181,-0.44360352,-0.10357666,-0.8635864,0.078125,-0.4375,0.34375
354,1696254827221,-0.43798828,-0.09844971,-0.86431885,0.015625,-0.421875,0.078125
355,1696254827261,-0.44360352,-0.10089111,-0.866272,0.09375,-0.4375,0.078125
356,1696254827301,-0.44360352,-0.09991455,-0.86676025,0.046875,-0.34375,0.3125
357,1696254827341,-0.43676758,-0.09918213,-0.87091064,-0.109375,-0.375,0.125
358,1696254827381,-0.44189453,-0.10406494,-0.864563,0.0,-0.3125,0.21875
359,1696254827421,-0.4428711,-0.101623535,-0.8652954,-0.046875,-0.453125,0.078125
360,1696254827461,-0.43969727,-0.10308838,-0.8640747,0.046875,-0.453125,0.203125
361,1696254827501,-0.4411621,-0.09844971,-0.86724854,0.03125,-0.390625,0.15625
362,1696254827541,-0.44262695,-0.10284424,-0.86309814,-0.03125,-0.328125,0.171875
363,1696254827581,-0.4423828,-0.10064697,-0.86676025,0.0625,-0.3125,0.203125
364,1696254827621,-0.44140625,-0.097473145,-0.8674927,0.15625,-0.34375,0.125
365,1696254827661,-0.44433594,-0.09893799,-0.86309814,0.109375,-0.375,0.203125
366,1696254827701,-0.44018555,-0.10015869,-0.8670044,0.03125,-0.296875,0.234375
367,1696254827741,-0.44140625,-0.09503174,-0.86798096,-0.046875,-0.34375,0.265625
368,1696254827781,-0.43652344,-0.10772705,-0.8591919,0.03125,-0.390625,0.203125
369,1696254827821,-0.44604492,-0.09088135,-0.8694458,0.046875,-0.328125,0.015625
370,1696254827861,-0.43896484,-0.09820557,-0.86798096,-0.171875,-0.21875,0.046875
371,1696254827901,-0.43896484,-0.10064697,-0.8640747,0.0,-0.34375,0.265625
372,1696254827941,-0.4404297,-0.09674072,-0.8633423,0.0,-0.234375,0.15625
373,1696254827981,-0.4375,-0.09942627,-0.87042236,0.171875,-0.359375,0.15625
374,1696254828021,-0.4453125,-0.105041504,-0.86846924,-0.125,-0.421875,0.171875
375,1696254828061,-0.44555664,-0.09674072,-0.8657837,-0.140625,-0.234375,0.1875
376,1696254828101,-0.44018555,-0.09625244,-0.8743286,-0.0625,-0.421875,0.296875
377,1696254828141,-0.44482422,-0.097229004,-0.86309814,0.0625,-0.234375,0.28125
378,1696254828181,-0.44140625,-0.10211182,-0.86505127,-0.078125,-0.28125,0.125
379,1696254828221,-0.44726562,-0.10406494,-0.86798096,0.0,-0.453125,0.109375
380,1696254828261,-0.44433594,-0.097473145,-0.86846924,0.0,-0.59375,0.171875
381,1696254828301,-0.4428711,-0.09918213,-0.86602783,-0.046875,-0.484375,0.21875
382,1696254828341,-0.44262695,-0.09698486,-0.86065674,-0.0625,-0.375,0.140625
383,1696254828381,-0.4465332,-0.09698486,-0.86846924,-0.1875,-0.28125,0.171875
384,1696254828421,-0.4428711,-0.089904785,-0.86798096,-0.078125,-0.4375,0.140625
385,1696254828461,-0.44335938,-0.09942627,-0.87042236,-0.03125,-0.421875,0.046875
386,1696254828501,-0.4416504,-0.097473145,-0.8677368,-0.234375,-0.46875,0.171875
387,1696254828541,-0.43603516,-0.097229004,-0.86920166,-0.1875,-0.375,0.234375
388,1696254828581,-0.44213867,-0.09674072,-0.8640747,-0.09375,-0.375,0.265625
389,1696254828621,-0.43725586,-0.09259033,-0.8633423,-0.234375,-0.1875,0.21875
390,1696254828661,-0.43920898,-0.09552002,-0.8723755,-0.140625,-0.5,0.0625
391,1696254828701,-0.44506836,-0.10699463,-0.86798096,-0.203125,-0.515625,0.078125
392,1696254828741,-0.43701172,-0.10040283,-0.8640747,-0.078125,-0.640625,0.109375
393,1696254828781,-0.44360352,-0.0947876,-0.86602783,0.078125,-0.59375,0.140625
394,1696254828821,-0.44311523,-0.097961426,-0.86602783,-0.34375,-0.5,0.1875
395,1696254828861,-0.4428711,-0.09918213,-0.8687134,-0.21875,-0.578125,0.203125
396,1696254828901,-0.4453125,-0.09674072,-0.86383057,-0.203125,-0.3125,0.0625
397,1696254828941,-0.44580078,-0.09869385,-0.86724854,-0.234375,-0.375,0.078125
398,1696254828981,-0.44628906,-0.0960083,-0.8670044,-0.5625,-0.609375,0.046875
399,1696254829021,-0.44311523,-0.10357666,-0.86676025,-0.21875,-0.390625,0.203125
400,1696254829061,-0.43847656,-0.09625244,-0.8713989,-0.09375,-0.671875,0.203125
401,1696254829101,-0.44311523,-0.097473145,-0.8670044,-0.234375,-0.421875,0.1875
402,1696254829141,-0.44384766,-0.09844971,-0.862854,-0.328125,-0.34375,0.015625
403,1696254829181,-0.44262695,-0.10089111,-0.8604126,-0.140625,-0.28125,0.0625
404,1696254829221,-0.44213867,-0.101623535,-0.8723755,-0.28125,-0.390625,0.140625
405,1696254829261,-0.44458008,-0.101623535,-0.86676025,-0.296875,-0.375,0.203125
406,1696254829301,-0.44311523,-0.10357666,-0.8665161,-0.125,-0.640625,0.265625
407,1696254829341,-0.44458008,-0.10430908,-0.86260986,-0.234375,-0.625,0.0625
408,1696254829381,-0.43969727,-0.10723877,-0.86676025,-0.1875,-0.546875,0.125
409,1696254829421,-0.43798828,-0.10089111,-0.8652954,-0.3125,-0.578125,0.265625
410,1696254829461,-0.4428711,-0.09698486,-0.86798096,-0.203125,-0.484375,0.1875
411,1696254829501,-0.4411621,-0.101379395,-0.87164307,-0.25,-0.453125,0.296875
412,1696254829541,-0.4411621,-0.101867676,-0.86138916,-0.21875,-0.3125,0.25
413,1696254829581,-0.44140625,-0.10040283,-0.8657837,-0.21875,-0.578125,0.28125
414,1696254829621,-0.44311523,-0.09869385,-0.8699341,-0.265625,-0.59375,0.15625
415,1696254829661,-0.43969727,-0.10211182,-0.86431885,-0.296875,-0.453125,0.171875
416,1696254829701,-0.44580078,-0.09869385,-0.8682251,-0.078125,-0.515625,0.21875
417,1696254829741,-0.4387207,-0.09967041,-0.8689575,-0.203125,-0.390625,0.15625
418,1696254829781,-0.4428711,-0.101867676,-0.86553955,-0.03125,-0.546875,0.125
419,1696254829821,-0.43920898,-0.10211182,-0.8587036,-0.03125,-0.3125,0.203125
420,1696254829861,-0.43920898,-0.10308838,-0.86553955,0.0,-0.53125,0.109375
421,1696254829901,-0.44262695,-0.101379395,-0.8677368,-0.078125,-0.46875,0.171875
422,1696254829941,-0.43945312,-0.10235596,-0.86798096,-0.109375,-0.515625,0.0625
423,1696254829981,-0.4423828,-0.10406494,-0.862854,-0.140625,-0.40625,0.21875
424,1696254830021,-0.43408203,-0.09942627,-0.86798096,0.0,-0.421875,0.21875
425,1696254830061,-0.44482422,-0.09942627,-0.8706665,-0.125,-0.5,0.28125
426,1696254830101,-0.43774414,-0.101379395,-0.8687134,0.015625,-0.640625,0.25
427,1696254830141,-0.43652344,-0.09820557,-0.86383057,-0.046875,-0.5625,0.140625
428,1696254830181,-0.43676758,-0.09820557,-0.8735962,0.140625,-0.578125,0.1875
429,1696254830221,-0.44555664,-0.10479736,-0.86260986,0.109375,-0.359375,0.1875
430,1696254830261,-0.4411621,-0.10211182,-0.8701782,0.046875,-0.328125,0.171875
431,1696254830301,-0.4423828,-0.09625244,-0.87213135,0.21875,-0.46875,0.265625
432,1696254830341,-0.4411621,-0.09844971,-0.86846924,-0.09375,-0.53125,0.109375
433,1696254830381,-0.44067383,-0.10406494,-0.864563,-0.078125,-0.53125,0.0625
434,1696254830421,-0.44458008,-0.10430908,-0.8723755,0.1875,-0.640625,0.28125
435,1696254830461,-0.43481445,-0.09674072,-0.864563,-0.03125,-0.421875,0.15625
436,1696254830501,-0.4404297,-0.10430908,-0.86260986,0.125,-0.359375,0.15625
437,1696254830541,-0.43701172,-0.097961426,-0.86187744,0.015625,-0.328125,0.21875
438,1696254830581,-0.44091797,-0.105773926,-0.8652954,-0.0625,-0.3125,0.09375
439,1696254830621,-0.43603516,-0.10089111,-0.8748169,-0.265625,-0.453125,0.171875
440,1696254830661,-0.44335938,-0.10357666,-0.8694458,0.015625,-0.4375,0.203125
441,1696254830701,-0.44506836,-0.10650635,-0.87091064,0.109375,-0.5625,0.0625
442,1696254830741,-0.44433594,-0.0947876,-0.8706665,-0.046875,-0.453125,0.203125
443,1696254830781,-0.44702148,-0.10357666,-0.87164307,-0.015625,-0.484375,0.203125
444,1696254830821,-0.44091797,-0.10211182,-0.86383057,-0.046875,-0.34375,0.25
445,1696254830861,-0.4375,-0.1038208,-0.8682251,-0.109375,-0.421875,0.234375
446,1696254830901,-0.4423828,-0.097473145,-0.866272,0.03125,-0.359375,0.25
447,1696254830941,-0.44482422,-0.10284424,-0.87457275,-0.109375,-0.578125,0.0625
448,1696254830981,-0.44384766,-0.09893799,-0.8665161,0.15625,-0.40625,0.34375
449,1696254831021,-0.44580078,-0.09649658,-0.86920166,0.0,-0.171875,0.1875
450,1696254831061,-0.4453125,-0.101135254,-0.862854,0.046875,-0.265625,0.203125
451,1696254831101,-0.43701172,-0.09893799,-0.8657837,0.078125,-0.328125,0.171875
452,1696254831141,-0.44311523,-0.09869385,-0.8711548,-0.140625,-0.390625,0.1875
453,1696254831181,-0.4399414,-0.10284424,-0.8677368,0.09375,-0.40625,0.1875
454,1696254831221,-0.44458008,-0.10040283,-0.86724854,0.15625,-0.5,0.203125
455,1696254831261,-0.43896484,-0.09991455,-0.86505127,-0.171875,-0.328125,0.203125
456,1696254831301,-0.44213867,-0.09527588,-0.8677368,0.078125,-0.390625,0.09375
457,1696254831341,-0.43945312,-0.09967041,-0.8652954,-0.078125,-0.34375,0.15625
458,1696254831381,-0.44189453,-0.10089111,-0.86309814,0.03125,-0.265625,0.21875
459,1696254831421,-0.43798828,-0.101867676,-0.8689575,-0.15625,-0.53125,0.28125
460,1696254831461,-0.44506836,-0.10211182,-0.8635864,0.015625,-0.40625,0.296875
461,1696254831501,-0.44311523,-0.10748291,-0.8689575,0.109375,-0.53125,0.109375
462,1696254831541,-0.4399414,-0.10040283,-0.8640747,-0.140625,-0.546875,0.203125
463,1696254831581,-0.43652344,-0.101135254,-0.8674927,-0.125,-0.4375,0.140625
464,1696254831621,-0.44067383,-0.10015869,-0.86383057,0.046875,-0.296875,0.265625
465,1696254831661,-0.4399414,-0.09967041,-0.86187744,-0.21875,-0.375,0.21875
466,1696254831701,-0.44482422,-0.10211182,-0.8633423,-0.140625,-0.46875,0.109375
467,1696254831741,-0.4375,-0.10235596,-0.86602783,-0.09375,-0.46875,0.109375
468,1696254831781,-0.44433594,-0.10406494,-0.8677368,-0.109375,-0.484375,0.125
469,1696254831821,-0.4428711,-0.09283447,-0.86383057,-0.125,-0.46875,0.296875
470,1696254831861,-0.44580078,-0.0947876,-0.86602783,-0.078125,-0.265625,0.09375
471,1696254831901,-0.44018555,-0.09674072,-0.8682251,0.046875,-0.390625,0.140625
472,1696254831941,-0.4440918,-0.09625244,-0.8635864,-0.078125,-0.453125,0.1875
473,1696254831981,-0.43823242,-0.10284424,-0.86505127,0.109375,-0.203125,0.0625
474,1696254832021,-0.44335938,-0.0947876,-0.8604126,0.09375,-0.328125,0.125
475,1696254832061,-0.44458008,-0.09576416,-0.8706665,-0.203125,-0.609375,0.3125
476,1696254832101,-0.4416504,-0.09674072,-0.87091064,-0.171875,-0.53125,0.15625
477,1696254832141,-0.44189453,-0.09893799,-0.8677368,-0.15625,-0.453125,0.265625
478,1696254832181,-0.44482422,-0.09649658,-0.8670044,-0.1875,-0.390625,0.25
479,1696254832221,-0.44335938,-0.09869385,-0.87945557,-0.34375,-0.5,0.25
480,1696254832261,-0.44360352,-0.09527588,-0.86383057,-0.1875,-0.5,0.296875
481,1696254832301,-0.43676758,-0.10211182,-0.86724854,-0.09375,-0.484375,0.15625
482,1696254832341,-0.4387207,-0.09820557,-0.8694458,-0.15625,-0.453125,0.0
483,1696254832381,-0.44189453,-0.10211182,-0.86846924,-0.171875,-0.5,0.15625
484,1696254832421,-0.4416504,-0.10333252,-0.8670044,-0.171875,-0.6875,0.1875
485,1696254832461,-0.43774414,-0.0947876,-0.86505127,-0.296875,-0.265625,0.15625
486,1696254832501,-0.44604492,-0.10015869,-0.8657837,-0.28125,-0.46875,0.25
487,1696254832541,-0.44702148,-0.105529785,-0.8674927,-0.15625,-0.46875,0.265625
488,1696254832581,-0.44750977,-0.09918213,-0.8706665,-0.265625,-0.328125,0.125
489,1696254832621,-0.44140625,-0.09967041,-0.86602783,-0.21875,-0.453125,0.125
490,1696254832661,-0.4375,-0.101135254,-0.86065674,-0.234375,-0.5,0.0
491,1696254832701,-0.44677734,-0.09869385,-0.8633423,-0.078125,-0.53125,0.296875
492,1696254832741,-0.43847656,-0.105285645,-0.8633423,-0.046875,-0.46875,0.0625
493,1696254832781,-0.44702148,-0.101623535,-0.8687134,-0.015625,-0.359375,0.21875
494,1696254832821,-0.4399414,-0.1026001,-0.866272,-0.296875,-0.46875,0.21875
495,1696254832861,-0.43701172,-0.097473145,-0.8706665,-0.1875,-0.5,0.203125
496,1696254832901,-0.44189453,-0.0947876,-0.86431885,-0.203125,-0.328125,0.234375
497,1696254832941,-0.44213867,-0.101867676,-0.86846924,-0.265625,-0.265625,0.125
498,1696254832981,-0.44140625,-0.105773926,-0.86846924,-0.234375,-0.546875,0.21875
499,1696254833021,-0.44482422,-0.10601807,-0.8633423,-0.203125,-0.484375,0.1875
500,1696254833061,-0.44360352,-0.105041504,-0.86920166,-0.0625,-0.484375,0.265625
501,1696254833101,-0.44091797,-0.09820557,-0.8633423,-0.15625,-0.453125,0.140625
502,1696254833141,-0.44018555,-0.10284424,-0.8711548,-0.171875,-0.421875,0.203125
503,1696254833181,-0.4375,-0.101623535,-0.87091064,-0.15625,-0.5625,0.15625
504,1696254833221,-0.4404297,-0.101867676,-0.8677368,-0.234375,-0.484375,0.09375
505,1696254833261,-0.43823242,-0.10211182,-0.8677368,-0.21875,-0.453125,0.25
506,1696254833301,-0.43676758,-0.105773926,-0.86602783,-0.046875,-0.578125,0.28125
507,1696254833341,-0.43920898,-0.10211182,-0.8706665,0.0625,-0.640625,0.234375
508,1696254833381,-0.43798828,-0.097717285,-0.87042236,0.015625,-0.390625,0.296875
509,1696254833421,-0.4362793,-0.10211182,-0.8699341,-0.03125,-0.4375,0.234375
510,1696254833461,-0.43920898,-0.10455322,-0.8694458,0.09375,-0.375,0.1875
511,1696254833501,-0.43969727,-0.10406494,-0.87042236,0.09375,-0.40625,0.21875
512,1696254833541,-0.43969727,-0.101867676,-0.86920166,0.015625,-0.578125,0.171875
513,1696254833581,-0.4416504,-0.105041504,-0.8665161,0.15625,-0.4375,0.125
514,1696254833621,-0.44433594,-0.09967041,-0.86431885,-0.078125,-0.3125,0.1875
515,1696254833661,-0.43798828,-0.0960083,-0.87164307,-0.015625,-0.421875,0.125
516,1696254833701,-0.43774414,-0.09967041,-0.8689575,0.015625,-0.25,0.171875
517,1696254833741,-0.43652344,-0.09674072,-0.8616333,0.0,-0.265625,0.25
518,1696254833781,-0.43676758,-0.097229004,-0.86676025,-0.125,-0.5,0.125
519,1696254833821,-0.43896484,-0.10089111,-0.8689575,0.125,-0.328125,0.203125
520,1696254833861,-0.4411621,-0.09942627,-0.86968994,0.28125,-0.34375,0.296875
521,1696254833901,-0.44384766,-0.09967041,-0.8657837,0.015625,-0.4375,0.234375
522,1696254833941,-0.4399414,-0.09674072,-0.8735962,-0.0625,-0.40625,0.234375
523,1696254833981,-0.43530273,-0.097473145,-0.8621216,-0.109375,-0.21875,0.09375
524,1696254834021,-0.4411621,-0.09844971,-0.86724854,-0.078125,-0.15625,0.15625
525,1696254834061,-0.43896484,-0.09893799,-0.86920166,0.09375,-0.140625,0.203125
526,1696254834101,-0.4399414,-0.101867676,-0.8677368,-0.078125,-0.296875,0.171875
527,1696254834141,-0.44677734,-0.094055176,-0.8677368,0.078125,-0.375,0.125
528,1696254834181,-0.4375,-0.101379395,-0.8665161,-0.03125,-0.296875,0.21875
529,1696254834221,-0.43579102,-0.097229004,-0.86602783,0.109375,-0.34375,0.15625
530,1696254834261,-0.44140625,-0.09991455,-0.87506104,0.03125,-0.359375,0.171875
531,1696254834301,-0.44262695,-0.097717285,-0.8674927,-0.015625,-0.4375,0.21875
532,1696254834341,-0.44091797,-0.097961426,-0.8657837,-0.1875,-0.34375,0.1875
533,1696254834381,-0.43554688,-0.10064697,-0.8689575,-0.015625,-0.359375,0.140625
534,1696254834421,-0.4482422,-0.097961426,-0.8689575,0.125,-0.359375,0.234375
535,1696254834461,-0.44433594,-0.09527588,-0.8670044,0.015625,-0.4375,0.1875
536,1696254834501,-0.4423828,-0.101135254,-0.8689575,-0.046875,-0.40625,0.078125
537,1696254834541,-0.44482422,-0.09649658,-0.8674927,-0.046875,-0.234375,0.171875
538,1696254834581,-0.4375,-0.10040283,-0.862854,-0.171875,-0.203125,0.171875
539,1696254834621,-0.44628906,-0.09918213,-0.8674927,-0.125,-0.390625,0.28125
540,1696254834661,-0.43945312,-0.1026001,-0.8652954,-0.171875,-0.390625,0.234375
541,1696254834701,-0.4387207,-0.10406494,-0.8670044,0.125,-0.484375,0.171875
542,1696254834741,-0.4387207,-0.09893799,-0.86553955,-0.046875,-0.5,0.265625
543,1696254834781,-0.44067383,-0.10626221,-0.8694458,-0.125,-0.5,0.15625
544,1696254834821,-0.4411621,-0.101623535,-0.86968994,-0.1875,-0.390625,0.21875
545,1696254834861,-0.43701172,-0.10015869,-0.86846924,-0.015625,-0.265625,0.15625
546,1696254834901,-0.43823242,-0.10357666,-0.8731079,-0.125,-0.40625,0.234375
547,1696254834941,-0.44726562,-0.101623535,-0.8657837,-0.03125,-0.5,0.140625
548,1696254834981,-0.4453125,-0.101623535,-0.8665161,-0.1875,-0.390625,0.15625
549,1696254835021,-0.4345703,-0.09625244,-0.8699341,-0.0625,-0.375,0.09375
550,1696254835061,-0.44384766,-0.097717285,-0.86968994,-0.03125,-0.34375,0.234375
551,1696254835101,-0.43432617,-0.10015869,-0.8648071,-0.140625,-0.140625,0.21875
552,1696254835141,-0.44384766,-0.09674072,-0.8633423,-0.09375,-0.484375,0.21875
553,1696254835181,-0.45214844,-0.10357666,-0.8743286,-0.125,-0.296875,0.296875
554,1696254835221,-0.44018555,-0.09967041,-0.8640747,-0.0625,-0.390625,0.078125
555,1696254835261,-0.44335938,-0.09967041,-0.86968994,0.09375,-0.484375,0.203125
556,1696254835301,-0.44580078,-0.097961426,-0.87164307,-0.140625,-0.4375,0.109375
557,1696254835341,-0.4411621,-0.0960083,-0.8665161,-0.234375,-0.546875,0.15625
558,1696254835381,-0.44506836,-0.10089111,-0.866272,-0.203125,-0.3125,0.203125
559,1696254835421,-0.44262695,-0.09454346,-0.8699341,-0.1875,-0.484375,0.21875
560,1696254835461,-0.44189453,-0.09991455,-0.86968994,-0.28125,-0.421875,0.265625
561,1696254835501,-0.4416504,-0.10626221,-0.8616333,-0.09375,-0.34375,0.140625
562,1696254835541,-0.44360352,-0.09649658,-0.8718872,-0.078125,-0.265625,0.078125
563,1696254835581,-0.4428711,-0.09454346,-0.8670044,-0.1875,-0.421875,0.203125
564,1696254835621,-0.44140625,-0.101135254,-0.8665161,-0.171875,-0.375,0.078125
565,1696254835661,-0.44580078,-0.105529785,-0.864563,-0.265625,-0.53125,0.109375
566,1696254835701,-0.43969727,-0.10040283,-0.8677368,-0.109375,-0.578125,0.21875
567,1696254835741,-0.44189453,-0.09942627,-0.8718872,-0.265625,-0.28125,0.15625
568,1696254835781,-0.44189453,-0.101379395,-0.8670044,-0.046875,-0.421875,0.0625
569,1696254835821,-0.43725586,-0.09967041,-0.8713989,-0.28125,-0.5,0.09375
570,1696254835861,-0.44482422,-0.1038208,-0.86505127,-0.09375,-0.484375,0.203125
571,1696254835901,-0.43823242,-0.10650635,-0.86676025,-0.390625,-0.53125,-0.03125
572,1696254835941,-0.4465332,-0.1026001,-0.8687134,-0.15625,-0.59375,0.15625
573,1696254835981,-0.44360352,-0.10308838,-0.8674927,-0.234375,-0.421875,0.171875
574,1696254836021,-0.43896484,-0.09967041,-0.8657837,-0.28125,-0.53125,0.21875
575,1696254836061,-0.44018555,-0.1026001,-0.8699341,-0.34375,-0.375,0.171875
576,1696254836101,-0.44384766,-0.09649658,-0.862854,-0.234375,-0.390625,0.0625
577,1696254836141,-0.44189453,-0.10015869,-0.8677368,-0.3125,-0.65625,0.140625
578,1696254836181,-0.44189453,-0.105285645,-0.8665161,-0.125,-0.484375,0.15625
579,1696254836221,-0.4404297,-0.09674072,-0.87042236,-0.171875,-0.578125,0.234375
580,1696254836261,-0.43920898,-0.09991455,-0.87091064,-0.265625,-0.390625,-0.03125
581,1696254836301,-0.44067383,-0.10455322,-0.8687134,-0.140625,-0.484375,0.1875
582,1696254836341,-0.43798828,-0.09820557,-0.86920166,-0.21875,-0.5625,0.21875
583,1696254836381,-0.43969727,-0.09869385,-0.862854,-0.203125,-0.296875,0.1875
584,1696254836421,-0.44067383,-0.10015869,-0.86187744,-0.234375,-0.5625,0.1875
585,1696254836461,-0.4428711,-0.101379395,-0.86846924,-0.046875,-0.46875,0.140625
586,1696254836501,-0.4428711,-0.109191895,-0.8718872,-0.140625,-0.484375,0.109375
587,1696254836541,-0.43774414,-0.10723877,-0.8701782,-0.234375,-0.5,0.265625
588,1696254836581,-0.44580078,-0.1038208,-0.86920166,0.015625,-0.5,0.203125
589,1696254836621,-0.4411621,-0.105773926,-0.86553955,-0.09375,-0.5,0.171875
590,1696254836661,-0.4399414,-0.09893799,-0.8694458,0.09375,-0.53125,0.265625
591,1696254836701,-0.43823242,-0.101867676,-0.87091064,-0.015625,-0.5,0.171875
592,1696254836741,-0.4428711,-0.10821533,-0.8591919,0.15625,-0.34375,0.265625
593,1696254836781,-0.4350586,-0.097717285,-0.86920166,0.125,-0.34375,0.171875
594,1696254836821,-0.43969727,-0.09893799,-0.8657837,0.0625,-0.53125,0.234375
595,1696254836861,-0.43920898,-0.09967041,-0.8674927,0.09375,-0.515625,0.203125
596,1696254836901,-0.43554688,-0.10064697,-0.86309814,0.03125,-0.4375,0.1875
597,1696254836941,-0.4428711,-0.09820557,-0.86383057,-0.09375,-0.390625,0.265625
598,1696254836981,-0.4477539,-0.09967041,-0.8713989,0.015625,-0.234375,0.296875
599,1696254837021,-0.44555664,-0.10064697,-0.8682251,0.09375,-0.40625,0.234375
600,1696254837061,-0.44091797,-0.09869385,-0.8706665,0.015625,-0.484375,0.1875
601,1696254837101,-0.4411621,-0.1026001,-0.8753052,0.140625,-0.46875,0.1875
602,1696254837141,-0.43920898,-0.10479736,-0.8731079,-0.0625,-0.390625,0.25
603,1696254837181,-0.43969727,-0.09552002,-0.8677368,0.125,-0.421875,0.140625
604,1696254837221,-0.4440918,-0.10626221,-0.86383057,-0.03125,-0.265625,0.21875
605,1696254837261,-0.44091797,-0.101135254,-0.866272,0.015625,-0.375,0.140625
606,1696254837301,-0.4375,-0.1038208,-0.8670044,0.078125,-0.4375,0.265625
607,1696254837341,-0.44189453,-0.09942627,-0.8670044,0.0,-0.40625,0.203125
608,1696254837381,-0.4440918,-0.101379395,-0.86676025,-0.09375,-0.46875,0.0625
609,1696254837421,-0.44018555,-0.101135254,-0.8711548,0.03125,-0.296875,0.15625
610,1696254837461,-0.43823242,-0.09576416,-0.86553955,-0.03125,-0.296875,0.21875
611,1696254837501,-0.4477539,-0.10479736,-0.8694458,0.03125,-0.5,0.078125
612,1696254837541,-0.44213867,-0.09967041,-0.86602783,0.0,-0.640625,0.265625
613,1696254837581,-0.4404297,-0.101623535,-0.8648071,-0.046875,-0.28125,0.328125
614,1696254837621,-0.44262695,-0.09991455,-0.8687134,-0.078125,-0.609375,0.21875
615,1696254837661,-0.44140625,-0.0947876,-0.86724854,-0.171875,-0.40625,0.03125
616,1696254837701,-0.4375,-0.10015869,-0.86968994,-0.078125,-0.3125,0.203125
617,1696254837741,-0.43676758,-0.10040283,-0.8665161,0.09375,-0.4375,0.171875
618,1696254837781,-0.44262695,-0.1026001,-0.86676025,-0.046875,-0.421875,0.296875
619,1696254837821,-0.4411621,-0.089660645,-0.8670044,-0.140625,-0.234375,0.34375
620,1696254837861,-0.44482422,-0.09625244,-0.86431885,-0.015625,-0.34375,0.203125
621,1696254837901,-0.44189453,-0.101623535,-0.86846924,-0.046875,-0.46875,0.21875
622,1696254837941,-0.4428711,-0.09991455,-0.8670044,0.0,-0.515625,0.28125
623,1696254837981,-0.44458008,-0.09527588,-0.87164307,-0.09375,-0.453125,0.25
624,1696254838021,-0.44482422,-0.10089111,-0.8621216,0.0625,-0.40625,0.125
625,1696254838061,-0.44140625,-0.09429932,-0.87042236,-0.046875,-0.46875,0.21875
626,1696254838101,-0.44213867,-0.09649658,-0.86309814,-0.0625,-0.203125,0.21875
627,1696254838141,-0.4453125,-0.09893799,-0.8689575,-0.140625,-0.546875,0.25
628,1696254838181,-0.4338379,-0.10211182,-0.8633423,-0.046875,-0.4375,0.3125
629,1696254838221,-0.44091797,-0.097229004,-0.8665161,0.0,-0.53125,0.234375
630,1696254838261,-0.44433594,-0.09527588,-0.86798096,-0.109375,-0.390625,0.171875
631,1696254838301,-0.44067383,-0.09698486,-0.87164307,-0.234375,-0.375,0.15625
632,1696254838341,-0.44726562,-0.09698486,-0.8665161,-0.078125,-0.40625,0.265625
633,1696254838381,-0.4411621,-0.10040283,-0.87091064,-0.09375,-0.4375,0.140625
634,1696254838421,-0.4423828,-0.097717285,-0.8670044,0.015625,-0.515625,0.21875
635,1696254838461,-0.44335938,-0.105529785,-0.86602783,-0.078125,-0.546875,0.109375
636,1696254838501,-0.44384766,-0.09576416,-0.86505127,-0.046875,-0.5,0.015625
637,1696254838541,-0.44213867,-0.101623535,-0.86846924,-0.109375,-0.4375,0.15625
638,1696254838581,-0.44189453,-0.09991455,-0.87164307,-0.171875,-0.25,0.1875
639,1696254838621,-0.44213867,-0.10211182,-0.8670044,-0.0625,-0.296875,0.171875
640,1696254838661,-0.4416504,-0.101135254,-0.8677368,-0.140625,-0.359375,0.265625
641,1696254838701,-0.44458008,-0.10308838,-0.8652954,-0.171875,-0.421875,0.15625
642,1696254838741,-0.43969727,-0.09991455,-0.8723755,0.0,-0.546875,0.078125
643,1696254838781,-0.4338379,-0.097473145,-0.8713989,0.046875,-0.59375,0.140625
644,1696254838821,-0.44262695,-0.09283447,-0.8674927,-0.21875,-0.453125,0.15625
645,1696254838861,-0.44189453,-0.09991455,-0.8640747,-0.28125,-0.53125,-0.015625
646,1696254838901,-0.44604492,-0.09820557,-0.8689575,-0.234375,-0.453125,0.25
647,1696254838941,-0.4411621,-0.10455322,-0.8694458,-0.09375,-0.46875,0.125
648,1696254838981,-0.4375,-0.101379395,-0.8694458,-0.25,-0.484375,0.078125
649,1696254839021,-0.43432617,-0.10015869,-0.86383057,-0.1875,-0.578125,0.15625
650,1696254839061,-0.4399414,-0.09454346,-0.8657837,-0.109375,-0.46875,0.125
651,1696254839101,-0.44384766,-0.097961426,-0.8711548,-0.359375,-0.515625,0.15625
652,1696254839141,-0.4416504,-0.09527588,-0.86968994,-0.28125,-0.40625,0.046875
653,1696254839181,-0.44335938,-0.09210205,-0.8731079,-0.21875,-0.421875,0.234375
654,1696254839221,-0.4375,-0.10284424,-0.86724854,-0.28125,-0.34375,0.1875
655,1696254839261,-0.44091797,-0.09991455,-0.8701782,-0.265625,-0.625,0.1875
656,1696254839301,-0.4453125,-0.1038208,-0.8682251,-0.15625,-0.546875,0.265625
657,1696254839341,-0.4416504,-0.10089111,-0.86968994,-0.09375,-0.5625,0.21875
658,1696254839381,-0.4440918,-0.097473145,-0.8706665,-0.25,-0.609375,0.171875
659,1696254839421,-0.44140625,-0.10284424,-0.8701782,-0.234375,-0.5,0.25
660,1696254839461,-0.44384766,-0.09967041,-0.87213135,-0.140625,-0.5,0.171875
661,1696254839501,-0.4375,-0.09942627,-0.86431885,-0.109375,-0.3125,0.140625
662,1696254839541,-0.44335938,-0.101379395,-0.86920166,-0.234375,-0.53125,0.171875
663,1696254839581,-0.44458008,-0.09674072,-0.86187744,-0.109375,-0.53125,0.15625
664,1696254839621,-0.44189453,-0.101623535,-0.8701782,-0.125,-0.578125,0.109375
665,1696254839661,-0.4411621,-0.10040283,-0.8657837,-0.234375,-0.5,0.1875
666,1696254839701,-0.44067383,-0.10211182,-0.8682251,-0.125,-0.59375,0.21875
667,1696254839741,-0.43847656,-0.10308838,-0.8657837,-0.234375,-0.484375,0.1875
668,1696254839781,-0.43823242,-0.10479736,-0.85894775,-0.015625,-0.546875,0.203125
669,1696254839821,-0.4411621,-0.10235596,-0.86724854,-0.234375,-0.3125,-0.046875
670,1696254839861,-0.4423828,-0.10333252,-0.8670044,-0.046875,-0.421875,0.296875
671,1696254839901,-0.43847656,-0.105041504,-0.8694458,0.125,-0.6875,0.328125
672,1696254839941,-0.43823242,-0.09991455,-0.86309814,-0.03125,-0.484375,0.15625
673,1696254839981,-0.43554688,-0.10626221,-0.8665161,-0.078125,-0.484375,0.125
674,1696254840021,-0.43847656,-0.1038208,-0.8711548,-0.125,-0.53125,0.078125
675,1696254840061,-0.44458008,-0.1026001,-0.8701782,-0.015625,-0.40625,0.375
676,1696254840101,-0.4333496,-0.109680176,-0.87286377,0.046875,-0.515625,0.21875
677,1696254840141,-0.43920898,-0.1038208,-0.8713989,0.078125,-0.515625,0.21875
678,1696254840181,-0.4350586,-0.10723877,-0.8731079,0.21875,-0.375,0.3125
679,1696254840221,-0.44213867,-0.10430908,-0.87164307,0.203125,-0.46875,0.109375
680,1696254840261,-0.4399414,-0.10040283,-0.8665161,0.34375,-0.390625,0.15625
681,1696254840301,-0.43969727,-0.09991455,-0.8640747,0.171875,-0.296875,0.15625
682,1696254840341,-0.43896484,-0.097229004,-0.86968994,0.0,-0.28125,0.140625
683,1696254840381,-0.43432617,-0.10284424,-0.86968994,0.015625,-0.375,0.125
684,1696254840421,-0.44067383,-0.097717285,-0.8682251,0.1875,-0.453125,0.171875
685,1696254840461,-0.43920898,-0.093811035,-0.8648071,0.015625,-0.40625,0.171875
686,1696254840501,-0.44018555,-0.10040283,-0.86798096,0.046875,-0.390625,0.15625
687,1696254840541,-0.4350586,-0.101623535,-0.8713989,0.046875,-0.390625,0.21875
688,1696254840581,-0.4404297,-0.101379395,-0.86383057,0.046875,-0.1875,0.125
689,1696254840621,-0.4350586,-0.09625244,-0.86431885,-0.203125,-0.359375,0.125
690,1696254840661,-0.43945312,-0.09918213,-0.866272,-0.0625,-0.28125,0.09375
691,1696254840701,-0.44067383,-0.1026001,-0.87164307,0.1875,-0.453125,0.140625
692,1696254840741,-0.43920898,-0.09674072,-0.86798096,-0.046875,-0.484375,0.078125
693,1696254840781,-0.4399414,-0.10015869,-0.8689575,-0.046875,-0.359375,0.140625
694,1696254840821,-0.4350586,-0.101623535,-0.86724854,0.09375,-0.296875,0.296875
695,1696254840861,-0.43920898,-0.09625244,-0.86676025,-0.015625,-0.546875,0.0625
696,1696254840901,-0.4411621,-0.09918213,-0.8689575,0.03125,-0.28125,0.109375
697,1696254840941,-0.44262695,-0.09698486,-0.86676025,-0.015625,-0.375,0.21875
698,1696254840981,-0.44018555,-0.097961426,-0.86505127,0.015625,-0.3125,0.125
699,1696254841021,-0.44433594,-0.097229004,-0.8687134,0.0,-0.328125,0.125
700,1696254841061,-0.44140625,-0.097229004,-0.87164307,-0.125,-0.296875,0.125
701,1696254841101,-0.44018555,-0.101135254,-0.8701782,-0.03125,-0.46875,0.21875
702,1696254841141,-0.4423828,-0.09893799,-0.8731079,-0.078125,-0.359375,0.28125
703,1696254841181,-0.4477539,-0.10064697,-0.86724854,0.0,-0.390625,0.25
704,1696254841221,-0.43847656,-0.09698486,-0.8682251,0.078125,-0.21875,0.171875
705,1696254841261,-0.43408203,-0.09991455,-0.86920166,-0.0625,-0.484375,0.1875
706,1696254841301,-0.4440918,-0.09869385,-0.87164307,-0.0625,-0.484375,0.171875
707,1696254841341,-0.44555664,-0.10235596,-0.86553955,-0.078125,-0.5,0.234375
708,1696254841381,-0.44360352,-0.09820557,-0.8657837,-0.15625,-0.453125,0.234375
709,1696254841421,-0.44213867,-0.09942627,-0.8711548,-0.109375,-0.140625,0.046875
710,1696254841461,-0.4428711,-0.10455322,-0.8621216,-0.046875,-0.203125,0.203125
711,1696254841501,-0.4387207,-0.09527588,-0.8657837,0.015625,-0.421875,0.09375
712,1696254841541,-0.44262695,-0.097717285,-0.86920166,-0.046875,-0.421875,0.203125
713,1696254841581,-0.44091797,-0.09674072,-0.8701782,-0.09375,-0.40625,0.09375
714,1696254841621,-0.43798828,-0.09967041,-0.8682251,-0.078125,-0.640625,0.359375
715,1696254841661,-0.43896484,-0.09942627,-0.8711548,0.0,-0.640625,0.171875
716,1696254841701,-0.4404297,-0.101867676,-0.866272,-0.015625,-0.34375,0.171875
717,1696254841741,-0.44482422,-0.101379395,-0.8706665,-0.09375,-0.375,0.09375
718,1696254841781,-0.44213867,-0.09649658,-0.86553955,-0.140625,-0.40625,0.046875
719,1696254841821,-0.4428711,-0.10040283,-0.8648071,-0.03125,-0.390625,0.234375
720,1696254841861,-0.44360352,-0.10211182,-0.87042236,0.0,-0.390625,0.171875
721,1696254841901,-0.43823242,-0.10064697,-0.8718872,-0.046875,-0.453125,0.25
722,1696254841941,-0.44018555,-0.09136963,-0.8635864,-0.125,-0.46875,0.265625
723,1696254841981,-0.44189453,-0.09527588,-0.8726196,-0.21875,-0.328125,0.265625
724,1696254842021,-0.44433594,-0.10015869,-0.864563,-0.03125,-0.421875,0.15625
725,1696254842061,-0.44750977,-0.1026001,-0.86920166,-0.078125,-0.21875,0.046875
726,1696254842101,-0.43920898,-0.0947876,-0.86846924,-0.046875,-0.453125,0.234375
727,1696254842141,-0.44091797,-0.09918213,-0.87042236,-0.234375,-0.40625,0.28125
728,1696254842181,-0.4375,-0.10064697,-0.8699341,-0.109375,-0.1875,0.1875
729,1696254842221,-0.4411621,-0.0960083,-0.8687134,-0.109375,-0.3125,0.046875
730,1696254842261,-0.44189453,-0.10089111,-0.8635864,-0.046875,-0.359375,0.15625
731,1696254842301,-0.4411621,-0.093811035,-0.8677368,-0.28125,-0.34375,0.171875
732,1696254842341,-0.4482422,-0.09820557,-0.862854,-0.28125,-0.28125,0.1875
733,1696254842381,-0.4440918,-0.09967041,-0.8718872,-0.0625,-0.453125,0.09375
734,1696254842421,-0.4416504,-0.09942627,-0.8677368,-0.28125,-0.453125,0.21875
735,1696254842461,-0.44628906,-0.101867676,-0.8723755,-0.296875,-0.484375,0.21875
736,1696254842501,-0.43945312,-0.10357666,-0.8701782,-0.0625,-0.46875,0.15625
737,1696254842541,-0.43920898,-0.101379395,-0.86676025,-0.15625,-0.453125,0.140625
738,1696254842581,-0.43896484,-0.101379395,-0.86968994,-0.03125,-0.375,0.171875
739,1696254842621,-0.44091797,-0.101135254,-0.8635864,-0.296875,-0.421875,0.296875
740,1696254842661,-0.44189453,-0.0960083,-0.8694458,-0.203125,-0.34375,0.15625
741,1696254842701,-0.44262695,-0.09893799,-0.8677368,-0.0625,-0.421875,-0.015625
742,1696254842741,-0.4453125,-0.1026001,-0.86505127,-0.125,-0.421875,0.125
743,1696254842781,-0.44067383,-0.09869385,-0.8677368,-0.21875,-0.421875,0.015625
744,1696254842821,-0.4326172,-0.10235596,-0.86724854,-0.09375,-0.28125,0.203125
745,1696254842861,-0.44482422,-0.10357666,-0.8682251,-0.15625,-0.453125,0.234375
746,1696254842901,-0.4411621,-0.101623535,-0.86602783,-0.25,-0.53125,0.171875
747,1696254842941,-0.4404297,-0.10089111,-0.8674927,-0.03125,-0.578125,0.25
748,1696254842981,-0.44360352,-0.097229004,-0.86260986,-0.140625,-0.46875,0.265625
749,1696254843021,-0.44360352,-0.10211182,-0.86505127,-0.015625,-0.671875,0.203125
750,1696254843061,-0.44335938,-0.10284424,-0.8689575,-0.3125,-0.640625,0.21875
751,1696254843101,-0.4416504,-0.097473145,-0.8648071,-0.0625,-0.359375,0.15625
752,1696254843141,-0.4404297,-0.10430908,-0.87213135,-0.328125,-0.453125,0.15625
753,1696254843181,-0.44262695,-0.105041504,-0.8652954,-0.140625,-0.421875,0.328125
754,1696254843221,-0.44506836,-0.1038208,-0.8701782,-0.03125,-0.390625,0.09375
755,1696254843261,-0.43823242,-0.10357666,-0.86553955,-0.234375,-0.375,0.25
756,1696254843301,-0.44262695,-0.10406494,-0.86602783,-0.03125,-0.359375,0.25
757,1696254843341,-0.43676758,-0.101379395,-0.8670044,-0.09375,-0.34375,0.234375
758,1696254843381,-0.44189453,-0.09967041,-0.866272,-0.1875,-0.375,0.234375
759,1696254843421,-0.4411621,-0.09942627,-0.8689575,-0.015625,-0.65625,0.296875
