# Sensor type: Respeck
# Activity type: Lying down right
# Activity subtype: Coughing
# Subject id: s2106809
# Notes: unprocessed
timestamp,accel_x,accel_y,accel_z,gyro_x,gyro_y,gyro_z
1696253041444,0.7536621,-0.08868408,0.68426514,-1.0625,-0.046875,0.1875
1696253041484,0.75561523,-0.08526611,0.6954956,-0.375,0.125,-0.125
1696253041544,0.75390625,-0.09649658,0.6815796,-0.984375,-0.1875,0.140625
1696253041564,0.7541504,-0.089904785,0.6976929,-0.390625,-0.5625,0.3125
1696253041624,0.7524414,-0.093566895,0.6864624,-2.546875,-1.453125,0.046875
1696253041646,0.7463379,-0.08258057,0.6923218,-1.875,-1.75,-0.15625
1696253041706,0.7429199,-0.0725708,0.69158936,-3.328125,-4.78125,0.109375
1696253041746,0.7331543,-0.062072754,0.67962646,-3.59375,-3.3125,0.734375
1696253041764,0.72753906,-0.06329346,0.68963623,-2.921875,-3.109375,1.0625
1696253041824,0.7233887,-0.07110596,0.68621826,-2.59375,-3.625,0.671875
1696253041865,0.72021484,-0.066467285,0.6815796,-1.75,-1.796875,0.515625
1696253041905,0.73657227,-0.0413208,0.6679077,7.0625,4.8125,-0.296875
1696253041923,0.7470703,-0.023254395,0.6845093,24.640625,11.734375,0.875
1696253041966,0.7458496,-0.15167236,0.70062256,36.46875,11.578125,7.0625
1696253042006,0.82788086,-0.2637329,0.5726929,11.484375,16.4375,15.171875
1696253042045,0.8869629,-0.050109863,0.5206909,-3.90625,9.03125,18.84375
1696253042064,0.8093262,-0.0115356445,0.7662964,-2.5625,-12.203125,11.71875
1696253042105,0.6323242,-0.10406494,0.43377686,6.625,1.9375,10.328125
1696253042148,0.8144531,-0.04937744,0.7509155,0.171875,2.140625,3.640625
1696253042187,0.6867676,-0.07159424,0.77752686,-4.546875,-5.734375,1.6875
1696253042226,0.6826172,-0.03692627,0.618103,-14.171875,-2.484375,-5.671875
1696253042269,0.75,9.1552734E-4,0.74749756,1.265625,-0.75,-8.078125
1696253042306,0.82421875,-0.033996582,0.65838623,1.234375,2.59375,-2.65625
1696253042346,0.83203125,-0.101623535,0.6071167,-3.203125,-2.0,-0.234375
1696253042385,0.8137207,-0.11993408,0.51727295,5.453125,16.71875,0.5
1696253042428,0.9667969,-0.10040283,0.44354248,16.296875,10.71875,12.015625
1696253042467,0.9428711,0.08831787,0.96014404,3.0,-11.59375,15.921875
1696253042503,0.63964844,0.015075684,0.6298218,-8.859375,-6.921875,13.3125
1696253042545,0.66552734,-0.00982666,0.74676514,-1.859375,4.921875,-8.140625
1696253042585,0.7084961,-0.037902832,0.6515503,-0.734375,-5.78125,-9.65625
1696253042628,0.6838379,-0.020812988,0.59002686,-25.5,-16.9375,-8.0625
1696253042665,0.90063477,0.01361084,0.6066284,3.125,16.625,-1.9375
1696253042705,0.94677734,-0.22149658,0.65496826,-4.140625,-6.75,-1.171875
1696253042746,0.7319336,-0.009338379,0.5492554,0.1875,2.546875,-0.421875
1696253042786,0.87402344,0.010437012,0.5368042,4.328125,17.046875,2.796875
1696253042825,1.3046875,0.07879639,0.81585693,2.703125,-0.9375,21.53125
1696253042864,0.5517578,-0.09991455,0.6769409,-13.78125,-15.296875,15.6875
1696253042905,0.5019531,-0.020812988,0.6708374,-27.375,-20.875,-5.96875
1696253042944,0.49072266,0.070495605,0.6329956,-0.5625,-1.65625,-18.0625
1696253042984,0.6555176,0.04534912,0.7680054,9.28125,11.171875,-12.84375
1696253043025,0.9116211,-0.06060791,0.63275146,-2.484375,2.390625,-0.984375
1696253043065,0.9116211,-0.061584473,0.5570679,-14.21875,-10.3125,-2.609375
1696253043106,0.8598633,0.057556152,0.64715576,7.15625,1.96875,-1.078125
1696253043145,0.92285156,0.02142334,0.62127686,15.5,19.453125,2.765625
1696253043189,0.9628906,-0.0064086914,0.63397217,4.484375,21.421875,13.328125
1696253043225,0.97265625,-0.016174316,0.59173584,-5.890625,3.171875,14.25
1696253043266,0.5986328,-0.08770752,0.6000366,-4.140625,-11.375,0.625
1696253043305,0.62475586,-0.0037231445,0.59198,-8.984375,-7.703125,-7.078125
1696253043345,0.60009766,-0.0015258789,0.6547241,2.3125,4.515625,-5.96875
1696253043385,0.82250977,-0.014465332,0.6063843,-10.40625,-6.09375,-5.0
1696253043405,0.8342285,0.0680542,0.55633545,-13.953125,-9.6875,-7.578125
1696253043445,0.7961426,0.053649902,0.6154175,-2.609375,-11.90625,-8.53125
1696253043485,0.84472656,-0.004211426,0.72406006,18.25,-6.171875,-12.09375
1696253043546,0.8618164,-0.08868408,0.72332764,17.1875,-0.65625,-11.453125
1696253043566,0.8564453,-0.10333252,0.7394409,6.421875,-1.75,-9.125
1696253043604,0.78759766,-0.085754395,0.670105,-1.296875,-3.734375,-2.0
1696253043645,0.72924805,-0.061584473,0.59198,3.40625,-5.421875,1.03125
1696253043705,0.7246094,-0.06817627,0.6141968,6.78125,-1.421875,-1.078125
1696253043724,0.76342773,-0.12237549,0.64227295,5.359375,-3.65625,-2.3125
1696253043765,0.80249023,-0.12017822,0.6469116,-5.25,-6.328125,-2.140625
1696253043825,0.7705078,-0.0791626,0.68499756,-8.953125,-5.0625,-1.515625
1696253043864,0.75634766,-0.06744385,0.6671753,-5.515625,-3.390625,0.375
1696253043885,0.74365234,-0.05987549,0.6725464,0.78125,-2.640625,0.453125
1696253043926,0.71533203,-0.023986816,0.63323975,12.046875,1.90625,0.859375
1696253043964,0.7492676,0.008483887,0.6820679,29.46875,11.140625,0.46875
1696253044034,0.7248535,-0.11578369,0.68255615,40.71875,12.25,12.65625
1696253044050,0.8808594,-0.3164673,0.4303589,4.640625,27.875,29.046875
1696253044085,0.92700195,-0.18682861,0.31732178,-13.5,7.171875,26.71875
1696253044125,0.8417969,0.117126465,1.0480347,9.53125,-17.765625,2.28125
1696253044165,0.68969727,-0.113586426,0.59198,-22.203125,-3.046875,1.359375
1696253044205,0.5390625,0.06121826,0.635437,-8.15625,-7.859375,-8.5625
1696253044246,0.73291016,-0.017150879,0.77215576,2.125,6.1875,-8.359375
1696253044286,0.7993164,-0.055725098,0.6132202,-5.3125,-2.421875,-2.609375
1696253044326,0.8874512,-0.10845947,0.60565186,2.625,-3.78125,-2.703125
1696253044365,0.9057617,-0.15411377,0.6630249,2.28125,1.984375,-0.234375
1696253044408,0.8039551,-0.10357666,0.49432373,12.390625,7.125,4.28125
1696253044466,1.015625,-0.061828613,0.3517456,10.53125,25.53125,11.0
1696253044486,1.0234375,0.06072998,0.9401245,-6.40625,-15.890625,19.296875
1696253044525,0.5703125,-0.09698486,0.78118896,-17.96875,-5.5,8.59375
1696253044565,0.513916,-0.06427002,0.5180054,-14.328125,-12.734375,-3.734375
1696253044604,0.6411133,0.045837402,0.69207764,6.84375,10.15625,-11.0625
1696253044664,0.7324219,0.0060424805,0.6022339,3.25,2.15625,-9.9375
1696253044685,0.9387207,-0.10479736,0.5939331,-2.3125,-8.625,-6.703125
1696253044705,0.9604492,-0.09918213,0.5621948,-14.796875,-3.875,-1.40625
1696253044746,0.93725586,-0.015686035,0.59710693,-2.65625,11.90625,4.40625
1696253044786,0.92407227,0.007507324,0.633728,8.0625,9.5625,6.359375
1696253044826,0.9406738,-0.08843994,0.32562256,-1.484375,6.765625,13.15625
1696253044864,1.0505371,0.06781006,0.80145264,9.0625,-7.90625,9.90625
1696253044906,0.513916,-0.13555908,0.6715698,-6.859375,-22.265625,1.484375
1696253044948,0.4140625,-0.046691895,0.54974365,-19.703125,-21.65625,-3.546875
1696253044986,0.5004883,0.10858154,0.65301514,-4.5,1.734375,-8.96875
1696253045025,0.7404785,0.062927246,0.6972046,9.609375,5.625,-9.890625
1696253045073,0.9309082,-0.14215088,0.6119995,0.765625,-9.0625,-13.125
1696253045104,0.9729004,-0.07745361,0.696228,-10.5,-12.5,-11.171875
1696253045145,0.9741211,0.06072998,0.68255615,-9.578125,1.34375,0.046875
1696253045186,0.86499023,0.08026123,0.68865967,-2.203125,22.90625,10.0625
1696253045227,0.8293457,-0.02911377,0.6312866,11.171875,23.875,14.40625
1696253045267,1.2756348,-0.20050049,0.7111206,-11.921875,22.953125,8.890625
1696253045305,0.38476562,0.053649902,0.7885132,-5.21875,-31.390625,2.46875
1696253045345,0.44335938,-0.037902832,0.46502686,-17.015625,-17.453125,-1.203125
1696253045385,0.6376953,0.10858154,0.6210327,-5.875,2.703125,-9.0
1696253045425,0.7915039,0.07098389,0.69451904,11.9375,4.875,-7.3125
1696253045467,0.89941406,-0.062072754,0.5651245,-2.15625,-15.046875,-7.46875
1696253045507,0.8383789,-5.493164E-4,0.68621826,-1.453125,-10.390625,-7.359375
1696253045547,0.84765625,-0.010559082,0.7597046,21.953125,2.3125,-12.65625
1696253045585,0.77856445,-0.09918213,0.66448975,20.28125,9.359375,-11.46875
1696253045625,0.8510742,-0.12945557,0.70184326,3.828125,4.625,-7.75
1696253045665,0.83984375,-0.050598145,0.69281006,-7.671875,-5.234375,-0.359375
1696253045706,0.7763672,-0.04547119,0.58880615,4.609375,-2.515625,5.03125
1696253045746,0.71777344,-0.12310791,0.5778198,8.671875,-0.765625,1.84375
1696253045786,0.74072266,-0.13043213,0.62957764,1.046875,-3.9375,-3.09375
1696253045829,0.7805176,-0.097961426,0.6168823,-2.90625,-3.75,-4.28125
1696253045866,0.82543945,-0.06549072,0.63861084,-7.203125,-5.890625,-2.046875
1696253045905,0.8132324,-0.070617676,0.66864014,-9.578125,-8.015625,0.828125
1696253045946,0.76660156,-0.05328369,0.67767334,-7.671875,-7.109375,1.828125
1696253045984,0.7026367,-0.030822754,0.63983154,-0.0625,-4.390625,1.03125
1696253046004,0.72436523,1.8310547E-4,0.64471436,13.984375,5.0,-0.40625
1696253046046,0.7492676,-0.015930176,0.67962646,37.078125,10.953125,5.03125
1696253046107,0.8654785,-0.32159424,0.4315796,9.6875,26.453125,27.203125
1696253046144,1.0056152,-0.16192627,0.3554077,-7.390625,18.34375,25.1875
1696253046164,0.8166504,0.06732178,0.7489624,21.0625,-22.625,7.734375
1696253046206,0.68969727,-0.055236816,0.6000366,-11.875,-2.140625,1.90625
1696253046245,0.5620117,0.0289917,0.590271,-23.3125,-14.359375,-2.640625
1696253046286,0.6176758,0.046325684,0.70062256,-10.46875,1.421875,-6.25
1696253046324,0.70654297,-0.06329346,0.7243042,-11.984375,-4.46875,-5.46875
1696253046385,0.782959,-0.026916504,0.69696045,-4.828125,-14.0,-5.9375
1696253046426,0.8215332,-0.105773926,0.6679077,-9.015625,-6.265625,-1.71875
1696253046445,0.87524414,-0.05230713,0.7003784,16.5,10.546875,-5.28125
1696253046485,0.90063477,-0.0010375977,0.54608154,22.421875,23.671875,4.84375
1696253046525,0.93725586,-0.0020141602,0.574646,11.09375,16.75,15.03125
1696253046565,0.79663086,-0.06719971,0.65301514,16.359375,2.3125,15.125
1696253046626,0.8215332,-0.14996338,0.4393921,-11.828125,-0.8125,7.96875
1696253046665,0.72924805,0.02532959,0.61932373,-3.25,-5.5625,-2.53125
1696253046706,0.5698242,-0.026428223,0.57733154,-9.734375,-14.03125,-6.015625
1696253046723,0.66137695,0.042175293,0.65545654,-8.265625,-9.0625,-8.265625
1696253046768,0.6538086,0.055358887,0.6876831,4.703125,-0.25,-7.734375
1696253046826,0.8232422,-0.14239502,0.6469116,-0.796875,-6.171875,-7.96875
1696253046844,0.8937988,-0.16485596,0.6347046,-23.1875,-14.984375,-12.40625
1696253046887,0.9440918,0.035827637,0.71380615,-5.984375,-1.078125,-4.0
1696253046925,0.9345703,0.044128418,0.6281128,14.296875,25.671875,5.28125
1696253046966,0.9526367,0.010437012,0.48284912,20.328125,41.4375,20.84375
1696253047004,0.9421387,-0.0635376,0.58758545,5.03125,-9.9375,22.8125
1696253047045,0.5349121,-0.05645752,0.7457886,-3.4375,5.140625,2.890625
1696253047085,0.6801758,-0.046691895,0.63690186,-7.234375,-8.546875,-2.46875
1696253047125,0.5944824,0.10272217,0.6713257,-6.125,0.03125,-7.953125
1696253047165,0.78466797,0.011413574,0.6383667,-23.859375,-8.0625,-8.796875
1696253047227,0.798584,0.013366699,0.6430054,-8.34375,-8.453125,-10.703125
1696253047244,0.92749023,-0.089904785,0.633728,-6.453125,-9.71875,-4.734375
1696253047304,0.8679199,-0.0044555664,0.63201904,-10.640625,-18.140625,-5.921875
1696253047323,0.8256836,0.034606934,0.6129761,10.875,9.875,-3.546875
1696253047343,0.892334,0.016784668,0.6383667,15.75,29.515625,6.359375
1696253047384,0.9746094,-0.08502197,0.46722412,2.140625,25.15625,23.171875
1696253047425,0.8769531,0.032165527,0.5709839,1.703125,-11.109375,19.25
1696253047466,0.5974121,0.029724121,0.80755615,1.375,0.4375,-2.6875
1696253047505,0.5773926,-0.04522705,0.5241089,-9.328125,-15.6875,-8.328125
1696253047546,0.7128906,0.06561279,0.6469116,-4.15625,0.21875,-4.5
1696253047585,0.8256836,0.038024902,0.6310425,-6.03125,-12.78125,-3.390625
1696253047625,0.8395996,0.0036010742,0.5951538,2.59375,-7.71875,-6.65625
1696253047666,0.90649414,-0.074035645,0.59002686,-13.703125,-13.84375,-9.328125
1696253047705,0.80688477,0.03656006,0.63031006,-9.1875,-11.03125,-8.703125
1696253047746,0.77368164,0.038513184,0.699646,17.765625,5.046875,-11.046875
1696253047787,0.74609375,-0.061340332,0.7037964,27.59375,6.453125,-8.203125
1696253047826,0.83447266,-0.0947876,0.69403076,11.09375,1.1875,-2.140625
1696253047866,0.81103516,-0.058166504,0.66522217,3.5,-1.4375,0.921875
1696253047907,0.7717285,-0.07281494,0.6234741,7.703125,-1.296875,-1.34375
1696253047946,0.7836914,-0.10479736,0.62127686,4.078125,-2.234375,-3.125
1696253047986,0.79711914,-0.097473145,0.62542725,-0.9375,-4.5625,-2.84375
1696253048027,0.8120117,-0.105285645,0.61932373,-5.546875,-5.59375,-0.859375
1696253048068,0.80566406,-0.10455322,0.62713623,-11.59375,-6.8125,0.921875
1696253048104,0.7595215,-0.058166504,0.638855,-13.8125,-6.765625,1.796875
1696253048143,0.70288086,-0.006164551,0.638855,-7.421875,-5.046875,0.640625
1696253048183,0.7006836,0.016540527,0.6469116,4.046875,-0.9375,-0.578125
1696253048224,0.7663574,-7.9345703E-4,0.67840576,16.484375,2.90625,-0.875
1696253048264,0.77905273,-0.070617676,0.69818115,31.703125,4.984375,4.34375
1696253048304,0.85424805,-0.18951416,0.63861084,23.9375,17.578125,16.25
1696253048345,0.9628906,-0.0647583,0.5319214,2.359375,28.53125,23.34375
1696253048386,0.82250977,-0.101867676,0.69989014,14.75,-7.109375,16.484375
1696253048425,0.5983887,0.011657715,0.5648804,9.484375,-8.59375,3.359375
1696253048465,0.77319336,-0.112854004,0.5790405,-6.328125,9.984375,4.71875
1696253048505,0.7783203,-0.040100098,0.56585693,5.734375,-5.25,1.34375
1696253048546,1.0715332,-0.11920166,0.8390503,-11.28125,-3.515625,2.359375
1696253048585,0.72094727,-0.015197754,0.7201538,-16.546875,-12.390625,6.28125
1696253048626,0.560791,-0.074035645,0.56951904,-21.21875,-12.6875,-2.75
1696253048667,0.64990234,0.008728027,0.7836304,-3.296875,-0.484375,-12.09375
1696253048686,0.7675781,-0.04522705,0.66400146,7.890625,7.5,-6.015625
1696253048725,0.94677734,-0.15826416,0.5116577,-5.21875,-9.078125,-1.59375
1696253048785,0.8339844,-0.015686035,0.65423584,-4.625,-8.0,-1.453125
1696253048825,0.76831055,0.02166748,0.63275146,3.828125,-0.90625,-1.34375
1696253048844,0.8757324,-0.038635254,0.55023193,4.203125,17.5,6.4375
1696253048887,1.0007324,-0.1182251,0.48529053,3.84375,5.84375,16.078125
1696253048925,0.69799805,0.0060424805,0.682312,6.4375,0.78125,5.75
1696253048965,0.74560547,-0.030334473,0.62908936,-19.03125,-5.5625,6.3125
1696253049007,0.63183594,-0.02178955,0.66986084,-5.453125,-2.734375,-8.40625
1696253049046,0.7241211,-0.03302002,0.64764404,-8.3125,-12.015625,-15.828125
1696253049089,0.74243164,0.058532715,0.6300659,-10.609375,-11.421875,-8.6875
1696253049126,0.83325195,-0.050354004,0.58807373,-6.078125,-7.5,0.703125
1696253049165,0.76782227,-0.026916504,0.6725464,8.40625,-5.203125,-3.625
1696253049206,0.8757324,-0.031066895,0.60491943,5.703125,9.703125,-3.96875
1696253049252,0.86987305,-0.023254395,0.69525146,-3.046875,19.296875,6.65625
1696253049283,1.0061035,-0.04840088,0.28875732,18.703125,28.65625,21.46875
1696253049323,0.9692383,0.024841309,0.961853,8.46875,-15.890625,8.125
1696253049363,0.5678711,-0.07672119,0.59710693,-20.859375,-9.625,4.078125
1696253049404,0.58447266,0.05609131,0.6503296,-8.578125,-10.46875,-13.171875
1696253049450,0.6347656,0.0038452148,0.604187,0.0625,2.0,-15.625
1696253049487,0.75683594,0.0099487305,0.6017456,-14.28125,-6.78125,-7.015625
1696253049546,0.8095703,-0.06011963,0.6557007,-3.03125,-8.53125,-4.59375
1696253049564,0.8833008,-0.04547119,0.71429443,16.109375,1.0625,-16.640625
1696253049604,0.89208984,-0.058654785,0.65423584,8.5625,0.703125,-18.125
1696253049646,0.8835449,-0.08013916,0.7238159,4.890625,4.25,-7.15625
1696253049685,0.892334,-0.11602783,0.65740967,-2.984375,5.25,5.671875
1696253049726,0.78466797,-0.08746338,0.64715576,0.984375,2.796875,7.171875
1696253049764,0.6801758,-0.11114502,0.5980835,8.328125,-3.59375,0.625
1696253049805,0.7126465,-0.09820557,0.61102295,9.296875,-0.625,-5.078125
1696253049847,0.7741699,-0.0869751,0.63275146,7.0625,4.78125,-2.734375
1696253049885,0.8444824,-0.08282471,0.56536865,-5.28125,3.765625,4.484375
1696253049947,0.857666,-0.050109863,0.6029663,-4.359375,-1.78125,2.53125
1696253049964,0.7927246,-0.0791626,0.65838623,-1.234375,-7.609375,-2.890625
1696253049984,0.7404785,-0.061340332,0.6095581,1.390625,-8.75,-1.703125
1696253050026,0.7614746,-0.026672363,0.61468506,16.265625,0.125,1.125
1696253050066,0.76586914,-0.08770752,0.64276123,26.234375,3.6875,5.90625
1696253050106,0.81274414,-0.269104,0.4694214,2.96875,10.40625,21.0625
1696253050148,0.98535156,-0.12628174,0.3048706,-0.25,17.65625,20.96875
1696253050186,0.96191406,0.11029053,0.97772217,6.96875,-26.359375,9.140625
1696253050224,0.5991211,-0.08282471,0.70184326,-14.890625,0.78125,3.890625
1696253050267,0.5415039,0.09588623,0.60980225,-22.3125,-17.234375,-14.28125
1696253050305,0.6513672,-0.09674072,0.6703491,-4.609375,4.640625,-4.96875
1696253050346,0.7602539,-0.13800049,0.6637573,-9.75,-2.484375,5.140625
1696253050385,0.8249512,-0.09649658,0.66082764,-1.578125,-7.203125,-1.953125
1696253050425,0.8754883,-0.14337158,0.6442261,-5.3125,-7.984375,-4.765625
1696253050466,0.8066406,0.058288574,0.6598511,5.4375,3.484375,-4.5625
1696253050507,0.8483887,0.026550293,0.5861206,20.109375,17.53125,4.296875
1696253050545,0.9326172,-0.06011963,0.30096436,12.890625,27.953125,19.5625
1696253050587,1.1538086,0.035095215,1.0704956,6.921875,-7.34375,10.234375
1696253050626,0.609375,-0.059143066,0.7182007,-11.4375,-15.078125,-2.859375
1696253050666,0.5214844,-0.066711426,0.51898193,-18.140625,-16.109375,-4.015625
1696253050706,0.5407715,0.012145996,0.5980835,-18.734375,-5.390625,-7.15625
1696253050746,0.7121582,0.04949951,0.7814331,-8.6875,6.015625,-5.0
1696253050788,0.94311523,-0.16851807,0.59710693,-0.96875,-5.5,-6.171875
1696253050825,0.9873047,-3.0517578E-4,0.6559448,-6.484375,-10.796875,-5.609375
1696253050866,0.8586426,0.12054443,0.68255615,9.109375,7.921875,0.328125
1696253050907,0.8317871,0.00970459,0.6803589,15.953125,21.265625,10.15625
1696253050946,0.9116211,-0.13433838,0.5775757,11.421875,15.8125,17.828125
1696253050986,0.8730469,-0.18511963,0.5927124,-5.46875,-4.859375,8.0625
1696253051025,0.59106445,-0.023742676,0.6083374,-3.359375,-12.546875,-5.84375
1696253051066,0.6298828,0.039489746,0.5297241,-16.453125,-9.578125,-7.890625
1696253051106,0.5983887,0.10638428,0.6281128,-16.265625,-9.578125,-9.3125
1696253051145,0.6298828,0.049743652,0.6884155,-9.953125,-1.921875,-4.6875
1696253051186,0.83496094,-0.11651611,0.7177124,-6.75,-6.078125,-5.890625
1696253051248,0.93603516,-0.17877197,0.7037964,-3.765625,-10.6875,-11.609375
1696253051264,1.0288086,-0.025939941,0.65252686,4.15625,6.96875,-6.875
1696253051288,0.921875,0.07122803,0.6491089,-3.46875,6.03125,0.671875
1696253051326,0.7583008,0.07952881,0.68963623,14.109375,12.421875,10.046875
1696253051366,0.83813477,-0.07672119,0.54852295,28.046875,30.1875,21.8125
1696253051405,0.92944336,-0.16583252,0.5055542,8.453125,-3.59375,21.03125
1696253051446,0.6315918,0.015563965,0.67059326,4.9375,0.9375,1.546875
1696253051487,0.6999512,0.018249512,0.6264038,7.265625,-3.390625,-2.53125
1696253051526,0.6376953,-0.0076293945,0.5861206,-7.421875,-4.59375,-4.34375
1696253051567,0.7294922,-0.04473877,0.6359253,-18.765625,-5.8125,-4.875
1696253051605,0.8083496,-0.02154541,0.6605835,-14.015625,-7.453125,-10.796875
1696253051646,0.92700195,-0.0713501,0.63446045,-5.515625,-8.5,-14.328125
1696253051685,0.8642578,-0.0154418945,0.574646,-13.234375,-16.3125,-10.015625
1696253051727,0.81884766,0.039489746,0.6173706,-0.0625,0.953125,-6.71875
1696253051766,0.77563477,-0.027648926,0.6869507,12.0,9.609375,-6.53125
1696253051805,0.80078125,-0.13775635,0.6884155,6.34375,1.640625,-3.59375
1696253051844,0.82910156,-0.117248535,0.697937,1.90625,-5.171875,-3.71875
1696253051905,0.7648926,-0.06451416,0.63983154,7.515625,-3.359375,-2.15625
1696253051924,0.75512695,-0.050109863,0.59295654,12.359375,4.046875,-0.96875
1696253051967,0.8186035,-0.081604004,0.61395264,9.484375,3.515625,-0.34375
1696253052004,0.82714844,-0.1116333,0.62664795,1.90625,-3.515625,-0.59375
1696253052043,0.79785156,-0.12310791,0.61053467,-4.84375,-3.609375,-0.390625
1696253052084,0.78515625,-0.1116333,0.61346436,-9.875,-3.453125,-0.296875
1696253052145,0.77612305,-0.06842041,0.633728,-6.78125,-3.09375,-1.234375
1696253052167,0.75878906,-0.0713501,0.6293335,-2.421875,-4.203125,-1.140625
1696253052227,0.7692871,-0.04473877,0.62054443,-1.78125,-4.90625,-0.5
1696253052245,0.7348633,-0.01739502,0.6378784,8.15625,-1.5625,0.515625
1696253052285,0.7998047,-0.020812988,0.65374756,28.71875,6.5625,3.421875
1696253052343,0.8195801,-0.21221924,0.55340576,18.0,16.484375,22.0
1696253052363,0.95581055,-0.12896729,0.23822021,3.1875,17.5,28.078125
1696253052403,1.0251465,0.1293335,1.1500854,8.0625,-27.40625,8.328125
1696253052444,0.54296875,-0.035461426,0.7345581,-6.609375,2.296875,-1.15625
1696253052485,0.5661621,0.0018920898,0.5038452,-26.78125,-6.84375,-4.53125
1696253052525,0.7097168,-0.01763916,0.67352295,-3.28125,1.453125,-5.609375
1696253052565,0.7873535,-0.10748291,0.6720581,-11.65625,-1.984375,5.359375
1696253052584,0.78466797,-0.10455322,0.6351929,-4.15625,-17.765625,-3.171875
1696253052626,0.8327637,-0.1375122,0.6715698,-8.734375,-12.6875,-9.1875
1696253052665,0.8352051,0.028747559,0.6950073,8.59375,4.265625,-8.03125
1696253052707,0.82836914,0.0036010742,0.6210327,29.453125,21.625,4.75
1696253052747,1.0112305,-0.06964111,0.5363159,1.4375,21.015625,17.703125
1696253052787,0.9650879,-0.14312744,0.5248413,1.09375,17.5,18.21875
1696253052825,0.8742676,-0.0256958,0.9279175,9.65625,-13.0625,0.4375
1696253052865,0.5390625,-0.041809082,0.6481323,-21.390625,-15.328125,-4.15625
1696253052906,0.5488281,0.0680542,0.5856323,-12.4375,-4.296875,-3.796875
1696253052945,0.73535156,0.054382324,0.6625366,-3.078125,-4.78125,-5.296875
1696253052984,0.765625,-0.0881958,0.5631714,-14.109375,-9.796875,-5.6875
1696253053025,0.86621094,-0.11480713,0.680603,-18.40625,-22.421875,-8.8125
1696253053066,0.85058594,-0.062561035,0.7079468,-8.453125,-16.15625,-9.921875
1696253053106,0.85839844,-0.019592285,0.61517334,2.875,2.90625,-4.515625
1696253053145,0.79663086,0.04486084,0.7411499,-1.53125,13.265625,4.828125
1696253053186,0.86572266,0.055603027,0.77557373,9.640625,25.265625,8.484375
1696253053226,0.9836426,-0.19903564,0.4364624,12.25,37.59375,18.765625
1696253053268,0.83032227,-0.09136963,0.56121826,8.46875,-11.203125,12.265625
1696253053308,0.56689453,-0.059387207,0.6613159,-2.5,-10.0625,-1.109375
1696253053346,0.61035156,0.05340576,0.5150757,-13.1875,-6.921875,-3.34375
1696253053386,0.72436523,0.08831787,0.70477295,-6.234375,-0.265625,-5.828125
1696253053425,0.77197266,-0.037902832,0.6378784,-14.15625,-13.28125,-7.203125
1696253053464,0.82128906,-0.05596924,0.62615967,-6.890625,-12.0625,-5.28125
1696253053505,0.8581543,-0.03302002,0.6774292,1.40625,-9.53125,-9.40625
1696253053546,0.83154297,0.012390137,0.6720581,9.25,-0.734375,-14.21875
1696253053585,0.8015137,-0.02178955,0.6713257,9.671875,7.84375,-11.609375
1696253053626,0.79956055,-0.1104126,0.6557007,2.078125,6.15625,-0.703125
1696253053666,0.80981445,-0.0881958,0.6820679,0.75,-2.53125,2.4375
1696253053705,0.7561035,-0.09625244,0.66619873,4.71875,-4.15625,-0.0625
1696253053745,0.7583008,-0.09039307,0.6046753,5.8125,-0.53125,-1.984375
1696253053786,0.78027344,-0.062805176,0.6112671,5.734375,0.9375,-2.984375
1696253053827,0.82543945,-0.06768799,0.63812256,1.984375,-2.34375,-2.671875
1696253053887,0.8269043,-0.09625244,0.6351929,-5.5,-5.421875,-0.25
1696253053891,0.7915039,-0.09283447,0.635437,-9.5,-6.03125,0.78125
1696253053925,0.74487305,-0.07232666,0.65740967,-7.546875,-5.09375,0.4375
1696253053967,0.72216797,-0.05645752,0.6520386,-6.125,-4.359375,-0.4375
1696253054007,0.7351074,-0.027893066,0.64276123,-3.5,-5.109375,-0.765625
1696253054048,0.7487793,-0.007873535,0.66278076,2.859375,-1.5625,0.140625
1696253054108,0.77905273,-0.031799316,0.65740967,11.609375,3.46875,1.46875
1696253054126,0.7297363,-0.057434082,0.68084717,20.921875,1.640625,3.515625
1696253054166,0.75805664,-0.16656494,0.69403076,22.734375,5.453125,11.703125
1696253054209,0.98999023,-0.097473145,0.5009155,1.96875,29.953125,22.9375
1696253054246,0.939209,-0.07696533,0.7609253,5.8125,-3.390625,16.3125
1696253054285,0.60498047,-0.014221191,0.6273804,12.59375,-12.921875,-0.796875
1696253054327,0.6821289,-0.08062744,0.5997925,-5.125,0.125,4.25
1696253054368,0.73657227,-0.10479736,0.4237671,0.390625,5.125,1.578125
1696253054405,0.8774414,-0.07183838,0.57196045,3.109375,7.4375,0.890625
1696253054446,0.78564453,-0.07745361,0.65301514,-12.984375,-15.65625,1.59375
1696253054507,0.6557617,-0.062561035,0.6749878,-15.453125,-5.828125,-6.5
1696253054524,0.6586914,-0.004211426,0.69281006,-15.640625,-6.34375,-8.640625
1696253054565,0.7314453,0.0138549805,0.666687,-2.140625,-1.78125,-1.984375
1696253054628,0.845459,-0.13873291,0.6166382,-1.53125,0.734375,-1.265625
1696253054644,0.88964844,-0.039611816,0.69451904,-2.03125,-5.375,-4.5625
1696253054688,0.8564453,0.029968262,0.5980835,3.84375,9.09375,1.96875
1696253054726,0.85839844,-0.018371582,0.59710693,19.8125,17.0625,10.953125
1696253054767,0.7373047,-0.04864502,0.52093506,23.125,11.15625,15.21875
1696253054805,1.0700684,-0.055236816,0.9081421,-7.703125,-0.90625,7.234375
1696253054866,0.5913086,-0.02178955,0.59783936,-14.390625,-5.0625,3.265625
1696253054886,0.6748047,-0.047180176,0.6605835,-5.4375,-6.140625,-6.84375
1696253054949,0.75683594,-0.020080566,0.70062256,0.8125,-0.921875,-7.25
1696253054986,0.79956055,-0.053771973,0.6168823,-9.046875,-0.953125,-1.296875
1696253055005,0.81274414,-0.05328369,0.5956421,-3.609375,-7.5,-5.84375
1696253055046,0.8947754,-0.0032348633,0.5890503,6.46875,0.671875,-5.875
1696253055086,0.9345703,0.015563965,0.58026123,2.546875,9.390625,5.015625
1696253055127,0.8828125,0.02557373,0.62176514,6.109375,7.0625,10.34375
1696253055185,0.8066406,-0.006164551,0.66156006,15.296875,-0.515625,12.546875
1696253055187,0.9069824,-0.0015258789,0.90618896,-1.828125,-3.484375,11.171875
1696253055225,0.5505371,-0.054504395,0.5968628,-12.375,-10.984375,2.28125
1696253055266,0.6960449,-0.024719238,0.7423706,-3.421875,1.78125,-10.078125
1696253055307,0.77246094,-0.0025024414,0.6676636,0.53125,-4.828125,-6.90625
1696253055346,0.7351074,-0.03741455,0.53460693,-10.4375,-7.984375,-2.8125
1696253055385,0.71484375,-0.05230713,0.59246826,-5.8125,-2.453125,-0.984375
1696253055428,0.9975586,-0.0134887695,0.5079956,9.3125,13.65625,-2.890625
1696253055467,1.0541992,0.06707764,0.7626343,9.9375,7.40625,0.5
1696253055505,0.873291,0.010437012,0.49163818,-8.609375,12.53125,12.671875
1696253055546,1.0148926,0.020202637,0.6810913,-1.140625,-6.78125,16.84375
1696253055587,0.61621094,-0.016662598,0.715271,13.296875,-1.484375,1.40625
1696253055626,0.51293945,-0.09210205,0.6522827,-11.28125,-8.671875,-5.546875
1696253055666,0.6027832,0.014587402,0.6403198,-1.203125,-1.65625,-8.453125
1696253055705,0.73583984,-0.042053223,0.51434326,-3.421875,-1.828125,-3.46875
1696253055745,0.80249023,-0.074279785,0.57489014,-0.359375,1.53125,-1.171875
1696253055785,0.87768555,-0.054504395,0.652771,-1.15625,-12.3125,-10.625
1696253055827,0.921875,0.010192871,0.67474365,4.796875,-2.859375,-22.828125
1696253055866,0.8894043,-0.0095825195,0.6256714,-14.03125,1.96875,-17.609375
1696253055906,0.91259766,-0.032043457,0.6791382,-16.234375,0.96875,-4.515625
1696253055947,0.8762207,-0.09674072,0.6786499,-7.75,-6.25,-0.671875
1696253055987,0.7519531,-0.07159424,0.6884155,1.203125,-4.5,-0.25
1696253056027,0.7023926,-0.051574707,0.63494873,17.71875,7.6875,-1.1875
1696253056065,0.7741699,-0.07501221,0.5709839,9.21875,12.125,1.703125
1696253056106,0.7849121,-0.031799316,0.56365967,-3.859375,-3.640625,4.625
1696253056145,0.80078125,-0.055480957,0.61224365,-0.421875,-5.78125,-0.84375
1696253056188,0.78930664,-0.09869385,0.67181396,-0.921875,-9.078125,-2.4375
1696253056226,0.7922363,-0.12213135,0.65911865,-7.015625,-11.28125,-1.515625
1696253056266,0.7739258,-0.08526611,0.67352295,-9.640625,-6.5,-2.265625
1696253056305,0.7294922,-0.020324707,0.6522827,-8.0625,-8.96875,-1.8125
1696253056346,0.7150879,0.057556152,0.62542725,6.265625,0.140625,-0.15625
1696253056386,0.77856445,0.03778076,0.63446045,27.421875,11.109375,3.75
1696253056426,0.8354492,-0.10601807,0.5585327,35.890625,12.328125,13.34375
1696253056468,1.0161133,-0.13775635,0.39471436,23.8125,30.3125,27.53125
1696253056505,1.0749512,-0.24151611,0.87713623,-6.34375,-17.640625,20.71875
1696253056524,0.5197754,-0.04156494,0.6132202,-3.671875,-10.953125,-0.96875
1696253056565,0.6152344,-0.01373291,0.5934448,-19.3125,-0.53125,1.03125
1696253056604,0.6809082,-0.012023926,0.6828003,-0.296875,2.6875,-17.125
1696253056668,0.8469238,-0.13336182,0.7313843,-12.046875,-5.484375,-6.421875
1696253056686,0.7541504,-0.0017700195,0.56292725,-8.734375,-14.953125,-1.140625
1696253056726,0.8222656,-0.13995361,0.5687866,-4.109375,-0.03125,2.71875
1696253056766,0.8496094,-0.08673096,0.68133545,6.03125,5.6875,-3.734375
1696253056806,0.9030762,-0.09161377,0.54608154,5.109375,7.25,3.78125
1696253056852,0.8564453,0.031433105,0.52923584,-5.203125,14.203125,9.109375
1696253056886,1.0761719,0.06048584,0.95648193,4.765625,-3.1875,14.171875
1696253056927,0.6074219,0.036071777,0.7040405,-16.796875,-4.3125,3.46875
1696253056967,0.56762695,0.0079956055,0.6378784,-6.03125,-9.796875,-10.828125
1696253057006,0.6281738,-0.047668457,0.65374756,-11.671875,-9.75,-7.28125
1696253057047,0.6809082,-0.033996582,0.63616943,-15.78125,-5.71875,3.015625
1696253057087,0.8647461,-0.13092041,0.6276245,-1.078125,-0.4375,0.515625
1696253057127,1.0546875,-0.04156494,0.71868896,6.421875,1.296875,-9.390625
1696253057165,0.8552246,0.11102295,0.62493896,16.390625,23.0625,2.484375
1696253057205,0.8918457,0.10858154,0.588562,20.046875,11.9375,10.03125
1696253057245,1.0239258,-0.08111572,0.47235107,7.546875,8.0,21.265625
1696253057286,0.78808594,-0.07354736,0.83929443,6.453125,-2.5,5.21875
1696253057349,0.5407715,-0.14801025,0.6132202,-17.640625,-19.984375,-5.78125
1696253057364,0.5280762,0.030944824,0.5853882,-13.359375,-5.421875,-13.328125
1696253057427,0.6442871,0.059020996,0.6078491,-9.953125,-3.578125,-7.453125
1696253057444,0.75878906,0.010681152,0.67840576,-6.3125,-3.796875,-4.734375
1696253057485,0.88500977,-0.117248535,0.6610718,-2.34375,-7.71875,-6.515625
1696253057549,1.0078125,0.03729248,0.64105225,-3.53125,-3.625,-7.921875
1696253057564,0.91748047,0.08343506,0.66400146,2.3125,12.390625,6.015625
1696253057605,0.84643555,0.049987793,0.7628784,8.4375,21.859375,9.25
1696253057648,1.2355957,-0.23614502,0.322937,-6.421875,24.359375,18.828125
1696253057706,0.5463867,0.05267334,0.7128296,4.28125,-16.171875,1.359375
1696253057747,0.52563477,-0.073791504,0.6012573,-10.921875,-19.078125,-8.671875
1696253057764,0.48461914,0.028015137,0.5282593,-16.84375,-9.40625,-8.546875
1696253057806,0.6359863,0.025817871,0.5883179,-10.375,-0.125,-4.109375
1696253057825,0.8623047,-0.026184082,0.68573,4.46875,-9.375,-5.0625
1696253057867,0.91552734,-0.08306885,0.6491089,8.953125,-19.140625,-11.765625
1696253057906,0.9020996,0.04852295,0.73602295,11.625,-3.5625,-13.03125
1696253057947,0.8515625,-0.0015258789,0.762146,14.734375,13.28125,-8.28125
1696253057987,0.8378906,-0.11236572,0.6713257,2.1875,9.109375,-2.09375
1696253058025,0.7980957,-0.113342285,0.66693115,-10.078125,-1.078125,1.328125
1696253058065,0.7409668,-0.082092285,0.6259155,-3.3125,-2.609375,1.046875
1696253058108,0.69628906,-0.049865723,0.57611084,7.796875,0.328125,-1.03125
1696253058149,0.7260742,-0.058654785,0.6137085,8.75,0.65625,-3.109375
1696253058185,0.80737305,-0.08673096,0.63079834,5.3125,1.59375,-4.328125
1696253058226,0.8815918,-0.13360596,0.6246948,-0.71875,-1.96875,-1.859375
1696253058267,0.8671875,-0.09527588,0.6791382,-2.3125,-5.5625,-1.828125
1696253058305,0.7873535,-0.101379395,0.63201904,-8.515625,-8.078125,-0.359375
1696253058347,0.7297363,-0.046203613,0.63568115,-10.078125,-5.625,-0.625
1696253058386,0.7006836,-0.0491333,0.6408081,-6.75,-5.765625,-0.6875
1696253058425,0.7302246,-0.06451416,0.651062,-3.953125,-5.15625,-0.484375
1696253058467,0.7373047,-0.050354004,0.6593628,1.609375,-3.53125,0.203125
1696253058504,0.74072266,-0.015930176,0.6329956,15.78125,5.46875,-1.015625
1696253058546,0.82470703,-0.070129395,0.6557007,35.015625,9.890625,4.40625
1696253058586,0.87890625,-0.24493408,0.5907593,9.859375,19.109375,26.734375
1696253058626,0.99853516,-0.1519165,0.1149292,5.375,21.40625,23.75
1696253058666,0.84521484,0.23699951,0.94403076,36.125,-33.515625,-0.015625
1696253058707,0.44067383,-0.08648682,0.6220093,-17.71875,3.328125,8.671875
1696253058746,0.4970703,0.05731201,0.53118896,-16.546875,-1.890625,-5.40625
1696253058786,0.7531738,-0.06378174,0.69744873,4.125,8.828125,-6.359375
1696253058826,0.8623047,-0.074035645,0.6923218,-14.921875,-5.421875,1.96875
1696253058867,0.7993164,-0.101379395,0.557312,-7.59375,-16.015625,-1.828125
1696253058908,0.8684082,-0.09454346,0.67303467,-2.9375,-8.28125,-6.875
1696253058946,0.857666,0.023864746,0.6588745,16.421875,17.703125,-1.59375
1696253058986,0.9753418,-0.08111572,0.5272827,11.078125,23.109375,11.078125
1696253059024,1.0151367,-0.050109863,0.572937,3.03125,-0.84375,17.484375
1696253059066,0.8249512,-0.04498291,0.6239624,12.546875,-12.09375,9.453125
1696253059109,0.58081055,-0.04815674,0.8168335,-7.46875,-9.296875,-3.859375
1696253059124,0.48291016,0.014343262,0.5787964,-13.4375,-3.734375,-8.0
1696253059186,0.6225586,0.005554199,0.6727905,-1.671875,3.484375,-8.96875
1696253059225,0.80810547,0.0040893555,0.6378784,-3.953125,-3.9375,-0.875
1696253059246,0.78222656,-0.008605957,0.66571045,-8.390625,-9.96875,1.0625
1696253059285,0.77075195,-0.074279785,0.6815796,-10.359375,-17.640625,-4.765625
1696253059326,0.8925781,-0.06085205,0.71087646,-2.28125,-0.546875,-6.640625
1696253059387,0.90722656,0.010925293,0.6708374,1.53125,14.015625,-2.78125
1696253059405,0.8520508,0.08734131,0.7887573,23.5625,19.5,3.671875
1696253059467,0.95947266,-0.1194458,0.293396,32.125,44.21875,21.78125
1696253059485,1.0698242,-0.15826416,0.56365967,0.234375,-12.921875,23.15625
1696253059526,0.4189453,-0.09429932,0.7313843,12.40625,3.90625,-1.078125
1696253059567,0.6660156,-0.08770752,0.4520874,-28.59375,-23.953125,-12.65625
1696253059605,0.7104492,0.06854248,0.576355,-14.984375,-1.828125,-11.0625
1696253059647,0.70947266,0.08831787,0.70184326,-6.3125,-5.453125,-4.921875
1696253059687,0.91967773,-0.12164307,0.61053467,4.03125,-16.59375,-8.1875
1696253059748,0.9172363,-0.09088135,0.6473999,-10.578125,-9.609375,-6.5625
1696253059764,0.8613281,0.040222168,0.70648193,-3.078125,3.171875,0.390625
1696253059805,0.8105469,-0.0051879883,0.6598511,9.6875,13.171875,3.421875
1696253059846,0.8532715,-0.047180176,0.6703491,4.046875,21.4375,15.03125
1696253059887,1.3222656,-0.13580322,0.6901245,-12.4375,12.4375,17.453125
1696253059927,0.49829102,0.10223389,0.6317749,11.578125,-13.09375,2.96875
1696253059968,0.5617676,-0.09161377,0.5751343,-6.765625,-22.640625,-0.328125
1696253060005,0.5371094,0.05218506,0.57440186,-1.125,-0.875,-5.0625
1696253060045,0.66308594,-0.0015258789,0.66986084,-0.796875,2.75,-4.703125
1696253060108,0.8129883,-0.028381348,0.652771,-6.0,-11.703125,-10.9375
1696253060128,0.8688965,0.026306152,0.586853,-3.140625,-10.28125,-11.609375
1696253060188,0.8815918,0.08123779,0.7391968,9.25,2.296875,-9.84375
1696253060225,0.8364258,-0.07305908,0.75213623,4.796875,1.796875,-8.0625
1696253060245,0.8408203,-0.124816895,0.72161865,-4.28125,-2.390625,-8.234375
1696253060287,0.8100586,-0.11260986,0.6913452,-9.0625,-4.171875,-4.421875
1696253060327,0.73217773,-0.06817627,0.6412964,-0.84375,3.28125,0.375
1696253060365,0.720459,-0.07745361,0.62323,6.359375,5.515625,0.15625
1696253060427,0.7368164,-0.09893799,0.5895386,0.890625,-1.984375,-1.765625
1696253060444,0.80615234,-0.08111572,0.649353,-1.96875,-5.09375,-3.640625
1696253060467,0.82666016,-0.07745361,0.65008545,-7.1875,-8.921875,-3.078125
1696253060506,0.7956543,-0.06744385,0.64886475,-8.859375,-9.65625,-0.609375
1696253060546,0.7595215,-0.03643799,0.6654663,-4.78125,-7.5625,1.546875
1696253060585,0.7470703,-0.05328369,0.69329834,3.875,-5.359375,0.765625
1696253060627,0.70336914,-0.010070801,0.664978,5.28125,-3.78125,-1.234375
1696253060666,0.7080078,0.007751465,0.63031006,23.546875,7.546875,1.15625
1696253060706,0.7939453,-0.07525635,0.62323,40.109375,17.34375,11.78125
1696253060747,0.95214844,-0.12921143,0.38861084,15.1875,33.671875,31.265625
1696253060786,1.2236328,-0.34454346,1.1056519,-14.90625,-14.71875,23.78125
1696253060827,0.359375,-0.028137207,0.7091675,3.515625,-5.109375,-3.8125
1696253060869,0.56152344,-0.1585083,0.4960327,-24.265625,-13.234375,2.828125
1696253060906,0.6159668,0.009216309,0.7184448,7.15625,4.78125,-10.890625
1696253060946,0.78125,-0.13726807,0.7196655,0.53125,3.875,-2.296875
1696253060987,0.7626953,-0.120910645,0.5531616,-6.046875,-9.875,2.0625
1696253061027,0.8100586,-0.12164307,0.5614624,-4.34375,-1.5,0.25
1696253061068,0.9243164,0.0040893555,0.6129761,8.46875,20.984375,0.921875
1696253061106,0.93237305,-0.0095825195,0.60614014,11.71875,11.84375,12.46875
1696253061145,1.0856934,-0.07525635,0.74432373,-12.296875,-9.171875,9.015625
1696253061188,0.67993164,-0.003479004,0.69158936,-6.796875,-4.453125,-0.984375
1696253061229,0.54125977,-0.085754395,0.5101929,-11.375,-7.15625,-0.015625
1696253061267,0.5942383,-0.043273926,0.65179443,-14.953125,-11.203125,-10.171875
1696253061307,0.6567383,-0.0051879883,0.62249756,-10.625,-2.3125,-6.59375
1696253061345,0.7993164,-0.06011963,0.61590576,-0.15625,-5.21875,-1.375
1696253061387,1.0095215,-0.13775635,0.6798706,-3.671875,-4.578125,-7.03125
1696253061425,0.95288086,0.06756592,0.6210327,10.890625,22.234375,4.703125
1696253061467,0.9255371,-0.035705566,0.5700073,17.078125,17.03125,13.34375
1696253061507,1.050293,-0.08062744,0.8265991,0.765625,-1.75,15.0625
1696253061549,0.6027832,-0.08770752,0.697937,-3.875,-7.46875,2.515625
1696253061584,0.54052734,-0.0960083,0.5841675,-8.203125,-14.46875,-6.375
1696253061625,0.51220703,-0.047424316,0.55340576,-10.625,-8.625,-8.859375
1696253061667,0.6213379,0.02508545,0.6190796,-13.90625,-0.75,-3.125
1696253061705,0.75,-0.0068969727,0.68865967,-0.375,-3.21875,-2.578125
1696253061746,1.0554199,-0.10845947,0.7123413,-0.71875,-4.265625,-10.046875
1696253061766,1.0432129,0.026550293,0.62957764,-2.265625,16.578125,0.375
1696253061808,0.9914551,0.09490967,0.21820068,39.484375,43.9375,24.3125
1696253061846,1.045166,1.8310547E-4,1.1810913,10.875,-22.84375,11.0
1696253061909,0.5734863,-0.20147705,0.47601318,-36.703125,-10.09375,1.171875
1696253061924,0.6647949,0.014831543,0.6161499,-3.796875,-1.015625,-13.953125
1696253061966,0.609375,0.0072631836,0.572937,6.796875,-4.9375,-4.515625
1696253062005,0.6281738,-0.01739502,0.5831909,-8.078125,-8.21875,1.546875
1696253062046,0.8076172,-0.13922119,0.5687866,2.0,-2.5,-1.0625
1696253062086,0.9511719,-0.051330566,0.5975952,-0.390625,8.640625,-4.171875
1696253062126,1.088623,0.07928467,0.6390991,11.265625,19.921875,4.890625
1696253062167,1.2375488,0.0048217773,0.4887085,16.609375,11.125,16.484375
1696253062206,0.6064453,0.027526855,0.7067261,-1.734375,-5.640625,1.96875
1696253062265,0.5991211,-0.0713501,0.5680542,-23.484375,-11.703125,0.34375
1696253062285,0.61376953,-0.016906738,0.5975952,7.03125,-3.828125,-4.796875
1696253062326,0.6479492,-0.050842285,0.55999756,-3.609375,-9.671875,-5.421875
1696253062365,0.6604004,-0.061828613,0.5844116,-8.765625,-11.390625,-9.1875
1696253062407,0.78125,-0.045715332,0.61468506,-0.5625,-10.6875,-14.40625
1696253062445,0.9416504,0.024841309,0.7033081,7.71875,0.75,-18.65625
1696253062488,0.9108887,-0.057678223,0.666687,5.59375,8.25,-13.796875
1696253062526,0.92529297,-0.09429932,0.7106323,-1.015625,7.296875,-5.390625
1696253062565,0.9243164,-0.0725708,0.7230835,-4.421875,-1.015625,-0.0625
1696253062625,0.81103516,-0.101379395,0.6203003,-1.578125,-2.203125,2.6875
1696253062646,0.70214844,-0.09039307,0.5968628,4.703125,-0.03125,0.375
1696253062686,0.6530762,-0.1026001,0.5697632,5.046875,-3.09375,-1.96875
1696253062726,0.7216797,-0.09234619,0.59051514,4.890625,-0.71875,-3.4375
1696253062765,0.83032227,-0.097717285,0.6166382,-1.3125,-3.546875,-2.90625
1696253062827,0.8754883,-0.094055176,0.64715576,-8.1875,-6.96875,-1.140625
1696253062845,0.8222656,-0.10797119,0.66400146,-7.09375,-4.59375,1.5625
1696253062886,0.7597656,-0.054260254,0.6334839,-4.234375,-2.984375,3.421875
1696253062950,0.7285156,-0.022521973,0.6137085,2.96875,-0.109375,1.296875
1696253062963,0.7531738,-0.0037231445,0.59954834,20.078125,1.6875,5.09375
1696253063029,0.84765625,-0.08648682,0.59588623,19.34375,18.21875,17.90625
1696253063044,0.94677734,-0.105285645,0.37542725,19.15625,25.78125,26.78125
1696253063066,1.1159668,-0.15924072,0.91204834,-3.171875,-20.75,10.671875
1696253063107,0.5583496,0.01361084,0.59124756,-5.96875,-5.8125,-5.578125
1696253063146,0.58569336,-0.038146973,0.58026123,-21.109375,-8.8125,1.21875
1696253063186,0.65234375,-0.04107666,0.68255615,1.21875,3.875,-3.875
1696253063226,0.7697754,-0.12359619,0.6847534,-8.65625,-0.34375,-0.203125
1696253063267,0.81933594,-0.04107666,0.6376343,-2.453125,-12.59375,-3.109375
1696253063308,0.82836914,-0.1104126,0.5934448,-2.75,-7.109375,-5.296875
1696253063348,0.86206055,-0.010314941,0.63275146,4.921875,6.203125,-4.34375
1696253063387,0.8859863,0.0018920898,0.56243896,14.1875,23.09375,5.65625
1696253063426,0.96191406,-0.18096924,0.35321045,9.125,21.78125,21.203125
1696253063466,0.9187012,0.020690918,0.791687,-4.1875,-4.6875,7.234375
1696253063507,0.62280273,-0.043518066,0.63079834,-10.71875,-11.125,-4.828125
1696253063545,0.6713867,-0.04522705,0.5656128,-15.453125,-8.828125,-10.28125
1696253063587,0.7294922,-0.016906738,0.5751343,-15.46875,-9.671875,-8.75
1696253063626,0.6999512,0.07342529,0.68792725,-5.515625,-8.015625,-4.171875
1696253063667,0.8942871,-0.13482666,0.60931396,5.328125,-11.265625,-6.5
1696253063706,0.90112305,-0.055725098,0.63568115,-6.484375,-4.859375,-4.921875
1696253063747,0.92285156,0.07635498,0.68133545,13.984375,27.484375,9.671875
1696253063786,0.9946289,-0.13214111,0.38690186,23.359375,31.1875,24.40625
1696253063826,0.7595215,-0.0569458,0.61590576,-12.234375,-7.765625,12.078125
1696253063865,0.6369629,0.008239746,0.66204834,-11.96875,-7.078125,-4.0
1696253063905,0.69384766,-0.05328369,0.5321655,-2.0,-9.625,-8.234375
1696253063945,0.71240234,-0.0015258789,0.58270264,-3.28125,-1.96875,-4.03125
1696253063985,0.77856445,0.00970459,0.6539917,-14.125,-11.140625,-2.171875
1696253064027,0.81396484,-0.0029907227,0.6156616,-3.28125,-13.921875,-9.234375
1696253064067,0.861084,-0.024963379,0.61834717,-2.75,-14.5625,-10.734375
1696253064106,0.8198242,0.034851074,0.6859741,-1.359375,-12.859375,-5.40625
1696253064148,0.8041992,-0.024230957,0.7374878,9.234375,7.375,1.015625
1696253064184,0.9658203,-0.055236816,0.6312866,6.890625,30.734375,12.796875
1696253064226,0.9243164,-0.06060791,0.47698975,7.984375,20.796875,26.53125
1696253064268,0.70532227,-0.054260254,0.4730835,4.59375,-4.265625,6.53125
1696253064308,0.68066406,0.012634277,0.6366577,2.03125,6.03125,-5.015625
1696253064345,0.77612305,0.049987793,0.56292725,-7.625,-1.78125,-6.078125
1696253064364,0.73339844,0.06488037,0.6168823,-6.4375,-4.125,-4.21875
1696253064407,0.75512695,-0.06304932,0.5504761,-12.28125,-13.71875,-3.0
1696253064466,0.7927246,-0.07696533,0.62005615,-2.484375,-9.28125,-5.28125
1696253064484,0.80249023,-0.045715332,0.6456909,-9.3125,-17.40625,-7.671875
1696253064526,0.79418945,0.027038574,0.66619873,-3.671875,-12.046875,-13.1875
1696253064568,0.82788086,-0.02545166,0.69940186,15.5625,6.09375,-14.765625
1696253064606,0.8293457,-0.097961426,0.69329834,9.6875,6.890625,-7.5
1696253064648,0.84887695,-0.08380127,0.6449585,0.5625,0.171875,-3.984375
1696253064684,0.79345703,-0.055480957,0.6420288,3.546875,-1.59375,-1.53125
1696253064725,0.73535156,-0.06939697,0.62664795,7.53125,0.890625,1.0625
1696253064767,0.7392578,-0.08502197,0.6185913,5.890625,1.078125,0.28125
1696253064807,0.78344727,-0.10089111,0.6227417,5.09375,0.125,-2.140625
1696253064846,0.8330078,-0.10992432,0.6222534,-1.53125,-4.078125,-3.125
1696253064888,0.84716797,-0.08843994,0.65838623,-4.71875,-2.1875,-3.265625
1696253064925,0.8059082,-0.109191895,0.6322632,-3.6875,-1.890625,0.15625
1696253064967,0.7519531,-0.07891846,0.62127686,-3.75,-4.890625,2.03125
1696253065027,0.704834,-0.03302002,0.62005615,4.34375,-2.84375,1.203125
1696253065044,0.751709,-0.030822754,0.635437,17.8125,5.390625,2.734375
1696253065087,0.8503418,-0.12554932,0.52630615,21.265625,13.09375,18.78125
1696253065128,0.96118164,-0.15118408,0.20550537,11.28125,29.578125,34.53125
1696253065165,1.1447754,-0.050109863,1.2809448,-0.6875,-29.765625,14.078125
1696253065206,0.37597656,0.05682373,0.6395874,-7.203125,-0.78125,-5.96875
1696253065248,0.59887695,-0.0056762695,0.49969482,-31.4375,-2.5625,-4.296875
1696253065288,0.8041992,0.008483887,0.6564331,1.5,1.25,-8.5625
1696253065328,0.83496094,-0.10845947,0.74261475,-8.203125,-6.125,2.421875
1696253065389,0.84033203,-0.11383057,0.58587646,-7.125,-16.375,-1.640625
1696253065428,0.84521484,-0.08013916,0.5621948,-0.046875,0.109375,-4.203125
1696253065467,0.8823242,-0.035461426,0.52801514,16.578125,18.015625,5.4375
1696253065486,0.90600586,-0.09820557,0.5338745,3.21875,16.328125,8.515625
1696253065549,0.7939453,0.043151855,0.7140503,-26.203125,-2.4375,6.5
1696253065564,0.7429199,0.11883545,0.64276123,-27.203125,-6.1875,1.125
1696253065606,0.67041016,0.027282715,0.7020874,-1.0,-9.3125,-5.21875
1696253065667,0.6953125,-0.031066895,0.6312866,-10.5625,-14.703125,-3.203125
1696253065685,0.7573242,0.014099121,0.71258545,-4.8125,-3.375,-2.3125
1696253065705,0.85424805,-0.08111572,0.62835693,14.59375,-2.140625,-4.4375
1696253065747,0.9416504,-0.042053223,0.6210327,15.09375,-3.703125,-4.828125
1696253065786,0.8601074,0.09295654,0.6168823,13.71875,20.0,8.359375
1696253065828,0.9626465,-0.014709473,0.49945068,13.578125,21.171875,20.703125
1696253065865,0.7519531,-0.020812988,0.8612671,3.203125,1.015625,9.5
1696253065909,0.47509766,-0.022033691,0.43572998,-25.609375,-7.78125,-0.140625
1696253065946,0.8149414,0.12786865,0.6420288,-11.78125,0.75,-18.796875
1696253065986,0.91259766,-0.08868408,0.6112671,-1.171875,7.265625,1.03125
1696253066026,0.81103516,-0.101867676,0.6703491,-17.046875,-10.140625,0.296875
1696253066066,0.7404785,-0.04547119,0.5363159,-15.796875,-18.171875,-10.03125
1696253066106,0.72436523,0.11785889,0.668396,4.125,-6.46875,-8.578125
1696253066147,0.9802246,0.022399902,0.62542725,18.796875,4.265625,-1.5
1696253066186,1.012207,0.018737793,0.62542725,21.890625,31.875,18.859375
1696253066226,1.0610352,-0.12799072,0.5187378,8.40625,7.703125,19.1875
1696253066266,0.6604004,0.04119873,0.5463257,-3.609375,-5.390625,1.96875
1696253066306,0.6118164,0.061950684,0.59539795,-12.140625,1.65625,-5.390625
1696253066346,0.6933594,0.039489746,0.5516968,-11.03125,0.5,-14.1875
1696253066385,0.8432617,-0.08258057,0.6083374,-4.375,-3.203125,-5.453125
1696253066427,0.80859375,-0.039123535,0.621521,-11.171875,-14.5,1.25
1696253066466,0.8022461,0.007019043,0.61468506,-10.125,-14.640625,-4.046875
1696253066504,0.7687988,0.040222168,0.6390991,-3.390625,-12.328125,-10.4375
1696253066549,0.82910156,0.03656006,0.6835327,10.75,-3.40625,-12.859375
1696253066586,0.8474121,-0.030578613,0.66864014,18.3125,3.390625,-8.109375
1696253066627,0.798584,-0.05279541,0.67767334,14.640625,1.59375,-2.59375
1696253066667,0.7805176,-0.08062744,0.6469116,11.078125,-3.671875,-3.484375
1696253066706,0.76831055,-0.073791504,0.6132202,8.59375,-1.015625,-4.046875
1696253066747,0.78344727,-0.09185791,0.61102295,4.453125,0.328125,-3.03125
1696253066787,0.8300781,-0.08892822,0.59124756,-1.875,-0.59375,-3.5
1696253066825,0.8430176,-0.093566895,0.5753784,-3.3125,-4.59375,-2.78125
1696253066867,0.8696289,-0.07989502,0.6144409,-2.46875,-5.21875,-1.921875
1696253066906,0.8522949,-0.097473145,0.6588745,-3.90625,-4.90625,0.09375
1696253066946,0.7648926,-0.11480713,0.64764404,-6.078125,-5.34375,1.546875
1696253066987,0.7363281,-0.09893799,0.62298584,-9.015625,-6.421875,0.0
1696253067006,0.71875,-0.04473877,0.64056396,-6.421875,-6.25,-1.328125
1696253067047,0.736084,-0.038635254,0.6576538,0.078125,-3.21875,-0.96875
1696253067087,0.7402344,-0.022766113,0.65789795,5.984375,0.890625,1.140625
1696253067126,0.7602539,-0.051574707,0.6618042,18.109375,5.640625,3.90625
1696253067168,0.7927246,-0.12652588,0.61468506,23.390625,8.5625,13.296875
1696253067227,0.9824219,-0.12359619,0.5219116,5.078125,33.375,24.390625
1696253067267,1.013916,-0.20123291,0.63812256,-2.5,7.21875,18.6875
1696253067308,0.6171875,0.034606934,0.6239624,5.421875,-14.40625,-1.875
1696253067326,0.63549805,-0.031066895,0.55755615,-22.640625,-5.8125,1.5625
1696253067366,0.6464844,-0.010559082,0.5621948,-6.609375,2.3125,-2.671875
1696253067406,0.7709961,-0.11480713,0.68377686,-7.78125,4.046875,1.265625
1696253067448,0.79467773,-0.044006348,0.63812256,-5.40625,-6.90625,-1.90625
1696253067487,0.85498047,-0.033996582,0.68304443,0.03125,-5.953125,-4.8125
1696253067547,0.87109375,-0.06036377,0.6178589,-3.515625,-1.734375,-0.046875
1696253067566,0.83935547,0.0067749023,0.62054443,10.671875,7.703125,-0.390625
1696253067605,0.8977051,-0.0791626,0.5922241,5.8125,6.5,4.78125
1696253067646,0.9428711,-0.06451416,0.41888428,-2.203125,9.109375,9.34375
1696253067684,0.7302246,0.062194824,0.6781616,-3.765625,-6.0625,-1.34375
1696253067726,0.59472656,-0.012756348,0.5778198,-13.546875,-9.953125,-0.125
1696253067786,0.7038574,-0.054748535,0.61151123,-10.578125,-4.09375,-3.28125
1696253067826,0.7092285,-0.0025024414,0.60272217,-7.640625,-7.984375,-5.171875
1696253067844,0.78759766,-0.05230713,0.6117554,-9.765625,-15.6875,-7.96875
1696253067887,0.8383789,0.001159668,0.7601929,-3.078125,-13.09375,-8.984375
1696253067926,1.0349121,-0.013000488,0.68963623,4.96875,10.796875,-2.125
1696253067967,0.9189453,0.08709717,0.68743896,17.375,34.84375,17.0
1696253068006,0.97631836,-0.12701416,0.44573975,11.1875,12.25,16.328125
1696253068047,0.60131836,0.04168701,0.701355,-0.15625,-0.015625,3.953125
1696253068087,0.6245117,-0.0569458,0.63397217,-2.375,-4.28125,-0.328125
1696253068127,0.6726074,0.004333496,0.5787964,-11.515625,-6.171875,-8.328125
1696253068186,0.78271484,-0.03668213,0.5648804,-12.09375,-11.390625,-6.0625
1696253068204,0.79956055,0.011169434,0.602478,-5.171875,-8.78125,-6.765625
1696253068248,0.8918457,-0.031555176,0.6466675,-5.796875,-18.015625,-7.1875
1696253068309,0.8239746,0.010192871,0.6791382,-7.4375,-9.609375,-4.421875
1696253068313,0.907959,0.062194824,0.77142334,7.921875,11.296875,1.53125
1696253068346,0.91918945,0.019714355,0.6779175,19.734375,35.578125,12.109375
1696253068386,1.0334473,-0.10040283,0.3595581,1.28125,13.875,22.125
1696253068425,0.59350586,0.04559326,0.72869873,15.359375,-0.078125,4.828125
1696253068468,0.67285156,-0.08721924,0.61712646,3.265625,-0.921875,-2.0
1696253068507,0.64331055,0.008483887,0.52801514,-7.921875,-5.921875,-7.140625
1696253068546,0.7246094,-0.0491333,0.54119873,-14.65625,-5.078125,-5.828125
1696253068588,0.8239746,-6.1035156E-5,0.5465698,-11.15625,-12.671875,-10.59375
1696253068625,0.8220215,0.043640137,0.5783081,-3.421875,-12.984375,-8.328125
1696253068666,0.8642578,0.08734131,0.74334717,7.65625,-6.953125,-8.265625
1696253068705,0.876709,-0.034973145,0.7601929,21.546875,8.4375,-7.09375
1696253068747,0.85375977,-0.16973877,0.6491089,8.46875,9.984375,-2.671875
1696253068787,0.84277344,-0.109680176,0.61883545,-0.28125,1.96875,-2.890625
1696253068826,0.7832031,-0.061828613,0.57562256,1.375,-1.484375,-3.625
1696253068867,0.72143555,-0.043029785,0.5790405,6.9375,-2.203125,-2.828125
1696253068908,0.7338867,-0.074523926,0.56903076,9.453125,-3.25,-3.65625
1696253068949,0.795166,-0.10992432,0.5910034,8.953125,-1.828125,-4.796875
1696253068989,0.8688965,-0.13165283,0.6066284,0.515625,-4.3125,-6.21875
1696253069025,0.8796387,-0.12994385,0.6515503,-7.0625,-6.25,-5.34375
1696253069067,0.8171387,-0.109436035,0.60736084,-13.796875,-8.0625,-1.5625
1696253069106,0.763916,-0.082092285,0.5910034,-10.515625,-6.828125,0.28125
1696253069146,0.7175293,-0.03668213,0.61395264,-0.234375,-5.03125,0.125
1696253069188,0.75561523,-0.042297363,0.63153076,14.0625,1.390625,2.09375
1696253069226,0.83496094,-0.117492676,0.57611084,19.015625,13.03125,17.1875
1696253069267,0.95874023,-0.1585083,0.5018921,-2.53125,26.40625,30.453125
1696253069306,1.0805664,-0.12677002,0.7560425,-13.90625,-5.203125,10.90625
1696253069348,0.49487305,0.07342529,0.6605835,-2.203125,-13.796875,-9.421875
1696253069385,0.6159668,-0.039123535,0.53656006,-24.9375,-9.4375,-0.890625
1696253069425,0.654541,0.011657715,0.5968628,-7.578125,-0.78125,-5.90625
1696253069464,0.7451172,-0.06573486,0.71990967,-3.03125,3.78125,1.375
1696253069506,0.7583008,-0.089416504,0.58514404,2.8125,-13.78125,-1.4375
1696253069547,0.8774414,-0.109191895,0.6420288,-2.765625,-5.53125,-7.171875
1696253069586,0.890625,0.045837402,0.64471436,12.484375,18.65625,1.890625
1696253069627,0.9724121,-0.06329346,0.5319214,10.5,22.484375,9.8125
1696253069646,0.91967773,-0.06719971,0.52557373,-3.453125,3.6875,14.484375
1696253069688,0.82714844,-0.008117676,0.7496948,-7.03125,-2.953125,7.0
1696253069728,0.5827637,9.1552734E-4,0.6144409,-13.375,-13.984375,-4.875
1696253069767,0.65283203,0.024841309,0.5932007,-11.875,-9.21875,-7.875
1696253069805,0.68310547,0.05267334,0.5570679,-8.703125,-11.125,-5.671875
1696253069867,0.74658203,0.038757324,0.64593506,5.71875,-7.578125,-2.75
1696253069888,0.88842773,-0.1104126,0.6715698,1.03125,-14.328125,-2.53125
1696253069929,0.92626953,-0.043273926,0.69525146,-8.625,-0.203125,-2.109375
1696253069968,0.88623047,0.018737793,0.7301636,-0.9375,10.359375,2.609375
1696253070006,0.8720703,0.06732178,0.7062378,13.46875,15.8125,4.1875
1696253070046,0.9550781,-0.16461182,0.3024292,7.421875,23.625,11.796875
1696253070109,0.8408203,0.01361084,0.6481323,-3.59375,-7.5,0.40625
1696253070144,0.47338867,0.051452637,0.6100464,-3.59375,-16.875,-0.59375
1696253070167,0.61987305,6.713867E-4,0.5831909,-8.4375,-4.75,-0.921875
1696253070205,0.6652832,0.002380371,0.60565186,-12.84375,1.984375,2.828125
1696253070249,0.8198242,-0.040100098,0.66156006,-5.75,-5.390625,-5.1875
1696253070309,0.86499023,-0.049865723,0.62615967,-3.703125,-17.703125,-12.03125
1696253070345,0.8618164,0.089538574,0.77948,5.90625,-2.8125,-10.96875
1696253070387,0.8376465,0.018493652,0.7206421,17.1875,2.53125,-9.765625
1696253070406,0.79052734,-0.09112549,0.6503296,16.328125,1.5,-8.25
1696253070448,0.79907227,-0.09967041,0.6637573,10.3125,-1.453125,-5.234375
1696253070489,0.7753906,-0.07183838,0.66693115,7.578125,0.265625,-0.421875
1696253070528,0.7570801,-0.070617676,0.61102295,5.90625,1.609375,0.46875
1696253070566,0.7609863,-0.06573486,0.6083374,4.0625,-0.34375,-0.9375
1696253070606,0.78515625,-0.097961426,0.6149292,4.75,-1.4375,-1.765625
1696253070646,0.8195801,-0.12701416,0.6430054,1.96875,-3.578125,-0.953125
1696253070687,0.810791,-0.1338501,0.6586304,-4.703125,-5.0,-0.5
1696253070728,0.78564453,-0.09991455,0.6498413,-9.71875,-5.296875,-0.21875
1696253070767,0.7392578,-0.0491333,0.64056396,-4.90625,-4.953125,0.125
1696253070809,0.68896484,-0.005432129,0.62054443,7.546875,-1.28125,-0.03125
1696253070847,0.7573242,-0.042297363,0.6334839,31.765625,9.84375,6.03125
1696253070887,0.9003906,-0.16363525,0.5180054,20.171875,40.203125,30.703125
1696253070949,1.3034668,-0.3826294,0.48968506,-25.203125,15.515625,24.09375
1696253070953,0.5083008,0.22772217,0.67303467,10.125,-33.921875,-14.3125
1696253070987,0.5793457,-0.007385254,0.62298584,-35.609375,-5.609375,0.109375
1696253071027,0.6308594,0.10443115,0.5499878,-18.34375,-2.75,-2.40625
1696253071065,0.8137207,-0.11407471,0.7838745,2.125,10.359375,2.703125
1696253071106,0.8503418,-0.15631104,0.7057495,-5.8125,-15.78125,-5.09375
1696253071147,0.7932129,-0.113098145,0.6576538,-13.578125,-20.0,-14.890625
1696253071187,0.73095703,-0.0115356445,0.6984253,1.765625,-8.46875,-12.203125
1696253071225,0.7702637,-0.024230957,0.6508179,17.671875,4.296875,-10.625
1696253071266,0.86499023,-0.12261963,0.6486206,7.828125,3.46875,-4.9375
1696253071306,0.86279297,-0.11138916,0.67108154,-8.4375,-4.453125,5.03125
1696253071369,0.74438477,-0.02935791,0.6442261,-4.046875,-3.453125,5.140625
1696253071385,0.6291504,0.028503418,0.6166382,8.8125,0.8125,2.578125
1696253071427,0.7312012,0.012145996,0.5787964,31.140625,11.3125,6.6875
1696253071468,0.94433594,-0.12579346,0.45941162,32.171875,44.875,26.28125
1696253071505,1.2644043,-0.37457275,0.5170288,-11.828125,2.71875,22.46875
1696253071548,0.5708008,0.10443115,0.69036865,5.015625,-26.046875,-8.21875
1696253071587,0.56811523,-0.002746582,0.5853882,-37.4375,-10.828125,0.671875
1696253071625,0.58203125,0.13031006,0.5944214,-8.875,0.015625,-4.515625
1696253071665,0.75512695,-0.10040283,0.73724365,4.890625,7.5,3.90625
1696253071707,0.7895508,-0.14727783,0.6647339,2.890625,-9.375,0.15625
1696253071745,0.8869629,-0.2131958,0.5807495,-2.859375,-7.171875,-9.671875
1696253071786,0.93237305,0.049987793,0.5927124,12.375,19.015625,-2.125
1696253071826,0.9633789,-0.07745361,0.21600342,15.84375,15.890625,14.171875
1696253071865,0.7824707,0.058776855,0.77508545,-5.796875,-14.015625,6.75
1696253071906,0.6635742,-0.016662598,0.67108154,-21.421875,-1.5625,7.65625
1696253071949,0.60595703,0.024597168,0.66033936,-4.890625,0.640625,-1.453125
1696253071987,0.6525879,-0.017150879,0.63690186,6.3125,0.46875,-2.640625
1696253072028,0.7939453,-0.058166504,0.55682373,1.21875,1.0625,-2.796875
1696253072065,0.89941406,-0.04937744,0.64959717,1.421875,-2.4375,-6.71875
1696253072107,0.9616699,0.0045776367,0.5651245,2.9375,6.359375,-1.09375
1696253072145,0.9265137,0.05218506,0.52093506,10.734375,16.734375,8.046875
1696253072187,1.0393066,-0.06402588,0.3859253,5.90625,15.109375,12.765625
1696253072226,0.83569336,0.035339355,0.76483154,1.609375,-6.859375,1.796875
1696253072245,0.564209,-0.09674072,0.6112671,-16.765625,-13.6875,1.8125
1696253072286,0.5541992,-0.030822754,0.5397339,-10.171875,-5.84375,-4.53125
1696253072328,0.7001953,-0.015686035,0.55755615,-1.1875,-2.578125,-7.9375
1696253072366,0.7709961,-0.0020141602,0.59246826,0.640625,-4.75,-8.875
1696253072429,1.0229492,-0.027893066,0.6708374,0.859375,-4.453125,-3.359375
1696253072445,0.95166016,0.042907715,0.49456787,-1.578125,14.109375,7.0625
1696253072485,0.98535156,0.085876465,0.6403198,21.9375,23.234375,9.21875
1696253072525,1.0222168,-0.15435791,0.6088257,-0.140625,8.0625,8.515625
1696253072586,0.73291016,-0.0056762695,0.71136475,-7.6875,-16.953125,1.890625
1696253072604,0.63378906,-0.028869629,0.55096436,-17.609375,-13.34375,-6.90625
1696253072645,0.62939453,0.018981934,0.49627686,-13.875,-11.03125,-11.046875
1696253072706,0.6230469,0.04827881,0.6000366,3.203125,-3.78125,-5.75
1696253072725,0.8317871,-0.024719238,0.6203003,12.8125,-0.546875,-3.0625
1696253072785,1.0041504,-0.04498291,0.6220093,-1.1875,-2.328125,-2.1875
1696253072806,1.0146484,0.10369873,0.5922241,11.03125,26.90625,11.28125
1696253072846,1.2348633,-0.055480957,0.47454834,14.125,13.09375,15.40625
1696253072907,0.6828613,0.00970459,0.72772217,8.046875,-16.34375,8.78125
1696253072925,0.54125977,-0.12408447,0.6244507,-5.78125,-18.796875,5.0
1696253072966,0.6052246,-0.09234619,0.52215576,-9.515625,1.84375,-7.15625
1696253073027,0.7277832,-0.028381348,0.51556396,-7.890625,-1.171875,-12.328125
1696253073045,0.77197266,0.06463623,0.5223999,-3.375,-10.109375,-12.015625
1696253073086,0.80566406,0.105407715,0.6256714,5.28125,-2.828125,-11.171875
1696253073147,0.86279297,-0.0051879883,0.6635132,7.75,1.59375,-9.109375
1696253073166,0.8779297,-0.09576416,0.68499756,0.78125,1.359375,-7.09375
1696253073207,0.94091797,-0.1729126,0.67303467,4.5,0.28125,-9.40625
1696253073268,0.9121094,-0.081848145,0.66448975,-0.390625,-1.9375,-7.265625
1696253073285,0.80371094,-0.019348145,0.6325073,-1.484375,-3.375,-0.34375
1696253073326,0.7163086,-0.05328369,0.5824585,0.015625,-5.375,2.375
1696253073367,0.701416,-0.09259033,0.59051514,8.078125,-0.71875,0.609375
1696253073428,0.7397461,-0.089416504,0.60443115,16.625,3.6875,-0.53125
1696253073445,0.7878418,-0.13995361,0.59832764,8.921875,-3.34375,0.578125
1696253073488,0.81811523,-0.1116333,0.6156616,-2.65625,-8.921875,-0.203125
1696253073546,0.7998047,-0.1038208,0.6469116,-4.578125,-5.1875,0.03125
1696253073566,0.7885742,-0.06500244,0.6444702,-5.3125,-4.828125,0.03125
1696253073586,0.76586914,-0.039367676,0.6017456,5.453125,1.40625,1.5625
1696253073626,0.8051758,-6.1035156E-5,0.6378784,32.125,15.25,9.375
1696253073666,0.8803711,-0.20806885,0.4533081,36.375,18.546875,27.78125
1696253073706,0.8828125,-0.15899658,0.5331421,13.875,4.140625,26.0
1696253073745,0.89624023,-0.036193848,0.7509155,-5.5,-6.515625,9.5
1696253073786,0.78930664,-0.04498291,0.52093506,2.421875,-2.8125,2.859375
1696253073825,0.7763672,-0.09234619,0.6259155,-1.296875,-9.8125,2.0
1696253073866,0.953125,-0.13116455,0.6864624,-5.171875,-0.875,-2.609375
1696253073908,0.77783203,-0.09112549,0.6600952,-11.953125,-8.890625,2.890625
1696253073948,0.62109375,-0.12872314,0.5973511,-18.90625,-13.125,-2.5
1696253073984,0.6308594,-0.07891846,0.68621826,-17.03125,-5.703125,-8.28125
1696253074026,0.720459,-0.05279541,0.5946655,-6.609375,3.90625,-2.75
1696253074066,0.79663086,-0.06793213,0.5343628,3.625,-0.921875,0.828125
1696253074107,0.9758301,-0.085510254,0.6117554,0.734375,3.296875,-1.34375
1696253074147,0.8967285,0.10784912,0.545105,16.96875,1.421875,2.34375
1696253074186,1.1437988,0.046081543,0.93011475,-3.34375,0.484375,8.796875
1696253074229,0.59521484,0.015563965,0.6625366,-16.96875,-8.203125,8.984375
1696253074267,0.59521484,-0.039855957,0.7184448,-9.3125,-5.125,-6.859375
1696253074307,0.626709,-0.06011963,0.66033936,1.328125,0.546875,-5.828125
1696253074347,0.6965332,-0.081604004,0.51483154,-9.171875,-5.671875,-1.171875
1696253074386,0.9345703,-0.105041504,0.6310425,12.328125,12.015625,2.34375
1696253074428,0.97753906,0.0079956055,0.64227295,15.375,-1.953125,-4.421875
1696253074467,1.1013184,0.02923584,0.8710327,-14.21875,-1.421875,8.25
1696253074506,0.6921387,0.08807373,0.494812,-24.296875,-8.5625,4.546875
1696253074546,0.7949219,0.03289795,0.84661865,4.515625,2.921875,-12.296875
1696253074587,0.6184082,-0.11114502,0.65789795,-6.3125,-5.03125,-3.03125
1696253074627,0.59472656,-0.053771973,0.5392456,-12.953125,-11.421875,8.171875
1696253074666,0.70288086,-0.12188721,0.5751343,20.515625,2.546875,3.8125
1696253074706,0.98339844,-0.16314697,0.5492554,27.828125,19.796875,-7.96875
1696253074747,0.74243164,0.01776123,0.61639404,-17.5625,1.6875,4.96875
1696253074786,0.8845215,0.21014404,0.49383545,-36.046875,-3.984375,-0.859375
1696253074828,0.99853516,0.18377686,1.0429077,7.46875,13.28125,-3.875
1696253074866,0.83081055,-0.19610596,0.59246826,-15.390625,-8.3125,7.296875
1696253074888,0.6394043,-0.097473145,0.5477905,-24.0625,-26.90625,2.765625
1696253074926,0.52124023,-0.045959473,0.61590576,13.8125,-0.234375,-3.78125
1696253074968,0.7114258,-0.050598145,0.52948,28.734375,24.484375,-7.015625
1696253075006,1.1052246,0.0119018555,0.4442749,15.859375,24.015625,0.515625
1696253075048,1.065918,0.06707764,0.8488159,-20.09375,-0.3125,15.0
1696253075109,0.8022461,0.074157715,0.55267334,-24.5,-2.375,1.859375
1696253075125,0.8166504,-0.04815674,0.7453003,6.890625,2.375,-4.3125
1696253075188,0.7141113,-0.17437744,0.5643921,-11.5625,-16.109375,-4.71875
1696253075205,0.6191406,-0.002746582,0.5441284,-19.109375,-23.921875,-5.90625
1696253075268,0.6550293,0.07489014,0.635437,2.859375,-0.4375,-5.140625
1696253075286,0.75390625,0.027770996,0.6046753,11.515625,0.453125,-8.296875
1696253075327,0.87646484,-0.02935791,0.6654663,15.34375,3.625,-14.359375
1696253075369,0.92993164,-0.06964111,0.7206421,14.734375,13.46875,-10.9375
1696253075406,0.9387207,-0.10479736,0.6293335,-0.296875,8.421875,-5.65625
1696253075469,0.8557129,-0.10089111,0.605896,-2.515625,-2.1875,-3.734375
1696253075485,0.7468262,-0.12750244,0.5844116,2.890625,-13.984375,-5.609375
1696253075525,0.7158203,-0.12506104,0.5651245,1.3125,-12.484375,-6.984375
1696253075588,0.7636719,-0.10357666,0.6234741,-2.09375,-0.875,-4.453125
1696253075625,0.79907227,-0.06695557,0.6310425,-4.046875,-1.640625,-0.5
1696253075646,0.81225586,-0.04547119,0.57147217,-2.65625,-8.140625,-1.171875
1696253075686,0.7841797,-0.042297363,0.60369873,-0.4375,-8.171875,-2.75
1696253075746,0.7597656,-0.04425049,0.6754761,12.1875,-1.65625,-0.78125
1696253075766,0.8054199,-0.124572754,0.6246948,15.140625,3.953125,4.421875
1696253075830,0.7651367,-0.17242432,0.6234741,12.34375,7.15625,11.234375
1696253075846,0.80810547,-0.21685791,0.60028076,-3.734375,-1.90625,13.125
1696253075888,0.8625488,-0.06109619,0.5758667,-5.125,9.875,11.28125
1696253075928,0.88183594,-0.07208252,0.5836792,3.046875,8.390625,10.53125
1696253075966,0.85498047,-0.036193848,0.6102905,7.109375,-6.15625,5.40625
1696253076028,0.7109375,-0.0713501,0.5675659,-0.375,-5.734375,7.671875
1696253076046,0.94433594,-0.038635254,0.86883545,-14.265625,-7.625,4.734375
1696253076088,0.60668945,0.0028686523,0.6720581,-23.78125,-5.90625,2.828125
1696253076127,0.68652344,-0.058654785,0.6119995,-12.09375,-3.75,-10.09375
1696253076191,0.7216797,-0.14434814,0.6571655,-11.8125,-5.953125,-8.25
1696253076204,0.689209,-0.009338379,0.6432495,-16.25,-3.140625,-1.71875
1696253076227,0.7348633,0.002380371,0.619812,9.3125,0.203125,0.25
1696253076267,0.8972168,-0.09503174,0.6273804,6.203125,-4.390625,-2.484375
1696253076306,0.8261719,0.024841309,0.69744873,-0.703125,3.25,-0.578125
1696253076348,0.8508301,-0.011291504,0.6737671,2.3125,6.421875,3.796875
1696253076385,0.82128906,-0.030090332,0.6742554,10.421875,5.5625,7.90625
1696253076426,0.84350586,-0.09234619,0.57196045,11.859375,10.5,9.828125
1696253076467,0.8618164,-0.097229004,0.33270264,21.234375,5.59375,3.140625
1696253076506,0.89697266,0.0038452148,0.7526245,3.640625,-9.203125,-0.296875
1696253076547,0.6176758,0.06414795,0.6100464,-22.9375,-10.125,4.75
1696253076585,0.5546875,0.054626465,0.6581421,-3.875,-1.03125,-6.234375
1696253076626,0.72021484,-0.13873291,0.6571655,-3.5,-2.109375,-3.0
1696253076666,0.7536621,-0.1416626,0.5619507,-5.3125,0.3125,2.328125
1696253076706,0.89868164,-0.0960083,0.67840576,5.53125,2.15625,-4.25
1696253076747,0.9304199,0.039978027,0.65838623,6.84375,-0.109375,-9.28125
1696253076786,0.9111328,0.06732178,0.6210327,-1.1875,8.609375,4.625
1696253076826,0.8955078,0.009460449,0.38079834,14.71875,12.390625,16.046875
1696253076866,0.89697266,-0.061584473,0.80023193,4.3125,-4.546875,8.796875
1696253076907,0.57958984,-0.007873535,0.6010132,-6.609375,-14.71875,-2.8125
1696253076950,0.60180664,-0.07965088,0.621521,1.25,-5.25,-12.3125
1696253076985,0.640625,-0.12359619,0.54608154,-0.296875,-3.078125,-1.46875
1696253077027,0.7355957,-0.15216064,0.5578003,-1.8125,1.734375,3.3125
1696253077064,0.8623047,-0.090148926,0.7111206,3.8125,4.96875,-8.4375
1696253077105,0.87109375,0.05706787,0.64886475,-4.96875,-1.375,-5.140625
1696253077147,0.91430664,0.19647217,0.63153076,-5.5,12.75,6.28125
1696253077187,0.9260254,0.08074951,0.75823975,7.65625,10.296875,7.234375
1696253077227,0.89746094,-0.11578369,0.61468506,6.453125,4.359375,8.40625
1696253077267,0.83569336,-0.044006348,0.6930542,-3.6875,-10.046875,1.9375
1696253077308,0.67089844,-0.06817627,0.4953003,-4.6875,-12.859375,-2.234375
1696253077352,0.64160156,-0.10845947,0.5734253,-2.140625,-1.4375,0.046875
1696253077386,0.642334,-0.15411377,0.55999756,-11.359375,-2.0,-2.625
1696253077426,0.76171875,-0.12286377,0.6305542,-10.125,-3.609375,-10.171875
1696253077466,0.8010254,0.012145996,0.6520386,0.28125,-2.96875,-11.28125
1696253077485,0.83325195,0.10687256,0.7103882,5.984375,5.6875,-8.40625
1696253077548,0.8544922,0.041931152,0.6642456,3.4375,4.140625,-7.59375
1696253077568,0.8820801,-0.09161377,0.7067261,7.890625,3.875,-8.453125
1696253077626,0.8935547,-0.14483643,0.6901245,-0.296875,-4.78125,-6.453125
1696253077646,0.79589844,-0.10870361,0.59246826,-3.75,-5.484375,-1.28125
1696253077687,0.7175293,-0.082092285,0.5463257,0.0,-2.703125,-0.3125
1696253077729,0.73095703,-0.06817627,0.5856323,4.765625,-0.453125,-1.546875
1696253077767,0.7651367,-0.04888916,0.63323975,13.03125,0.1875,-0.765625
1696253077807,0.8000488,-0.09210205,0.63275146,8.546875,-3.640625,0.71875
1696253077848,0.85131836,-0.13873291,0.63031006,3.5,-6.453125,2.140625
1696253077886,0.84399414,-0.13677979,0.6390991,-2.625,-4.265625,1.6875
1696253077926,0.8173828,-0.1116333,0.63397217,-5.0,-2.828125,0.328125
1696253077966,0.7468262,-0.07647705,0.6119995,-2.609375,-4.015625,-0.265625
1696253078027,0.7011719,-0.059143066,0.605896,3.4375,-1.34375,0.734375
1696253078067,0.7685547,-0.035705566,0.6066284,16.28125,6.3125,2.40625
1696253078085,0.7854004,-0.12237549,0.6129761,19.8125,6.078125,4.125
1696253078126,0.8129883,-0.18927002,0.6820679,15.828125,0.734375,5.390625
1696253078166,0.9094238,-0.19781494,0.6051636,-0.515625,7.46875,8.25
1696253078206,0.85717773,-0.053527832,0.5387573,2.171875,4.03125,18.703125
1696253078247,0.7922363,-0.06573486,0.62298584,0.84375,-5.359375,14.140625
1696253078309,0.7619629,-0.081604004,0.65423584,-0.625,-8.359375,6.6875
1696253078326,0.8647461,-0.13677979,0.5726929,-9.46875,6.59375,2.65625
1696253078408,0.70703125,-0.0029907227,0.7081909,-3.1875,-7.765625,0.71875
1696253078411,0.64697266,-0.022766113,0.64056396,-12.390625,-4.546875,-0.125
1696253078447,0.6750488,-0.051086426,0.64227295,-7.296875,1.875,-7.25
1696253078486,0.8078613,-0.14263916,0.67303467,-10.09375,1.984375,-4.59375
1696253078525,0.8432617,-0.049621582,0.6598511,-7.5,-4.859375,-3.578125
1696253078589,0.8425293,-0.09063721,0.5800171,4.234375,-4.375,-1.46875
1696253078607,0.8581543,-0.027160645,0.5934448,4.421875,0.09375,-2.34375
1696253078689,0.9020996,-0.030090332,0.60321045,8.4375,9.953125,4.953125
1696253078694,0.8288574,-0.046203613,0.64227295,5.109375,-0.46875,9.390625
1696253078725,0.76416016,-0.022277832,0.6325073,2.71875,-0.34375,8.265625
1696253078765,0.76538086,-0.053527832,0.59002686,-0.375,1.4375,4.734375
1696253078807,0.77319336,-0.074035645,0.54022217,5.8125,1.1875,1.265625
1696253078826,0.9016113,-0.06964111,0.7418823,-3.9375,3.078125,-2.421875
1696253078866,0.7290039,-0.017150879,0.6207886,-14.765625,-6.515625,1.796875
1696253078906,0.68481445,-0.030334473,0.6498413,-12.9375,-0.84375,-2.171875
1696253078946,0.78027344,-0.049621582,0.65667725,-14.78125,-4.25,-8.3125
1696253078988,0.779541,-0.024963379,0.6222534,-15.296875,-5.859375,-6.4375
1696253079027,0.74121094,-0.02545166,0.6190796,-2.25,-8.515625,-3.578125
1696253079068,0.89404297,-0.09136963,0.64056396,4.921875,-5.671875,-7.578125
1696253079107,0.8894043,0.042419434,0.67059326,0.03125,6.859375,0.03125
1696253079147,0.90649414,-0.050354004,0.60980225,0.859375,15.21875,10.359375
1696253079187,0.8327637,0.022888184,0.5363159,8.71875,12.765625,13.84375
1696253079227,0.9707031,-0.112854004,0.6520386,-1.140625,-4.6875,10.875
1696253079268,0.5810547,0.02557373,0.72039795,-9.71875,-9.53125,-1.203125
1696253079309,0.55371094,9.1552734E-4,0.63397217,-17.1875,-13.265625,-2.9375
1696253079348,0.62158203,0.07318115,0.6618042,-13.703125,-5.234375,-9.921875
1696253079386,0.701416,0.027282715,0.664978,-0.96875,1.484375,-5.890625
1696253079427,0.8100586,-0.061584473,0.64471436,2.1875,-9.125,-7.265625
1696253079467,0.8376465,-0.050598145,0.6557007,10.21875,-4.609375,-17.359375
1696253079507,0.89208984,-0.0335083,0.7074585,18.96875,11.328125,-16.90625
1696253079547,0.86987305,-0.11090088,0.6461792,7.859375,9.0,-6.828125
1696253079586,0.8898926,-0.105285645,0.6264038,-11.3125,-3.296875,-1.53125
1696253079626,0.85058594,-0.058898926,0.6090698,-10.78125,-4.34375,0.265625
1696253079667,0.77124023,-0.066711426,0.6364136,5.875,1.09375,0.421875
1696253079705,0.73950195,-0.10772705,0.6012573,8.359375,-1.828125,-0.984375
1696253079747,0.7570801,-0.07720947,0.61590576,3.875,-5.171875,-1.890625
1696253079787,0.796875,-0.077697754,0.63031006,1.625,-5.390625,-2.15625
1696253079826,0.8203125,-0.10089111,0.66204834,-3.0,-6.453125,-0.5625
1696253079866,0.79467773,-0.10235596,0.6893921,-6.40625,-5.53125,0.828125
1696253079907,0.7294922,-0.08135986,0.66082764,-5.40625,-4.0625,0.9375
1696253079946,0.7199707,-0.03692627,0.66571045,-0.953125,-1.234375,-0.625
1696253079986,0.72216797,-0.004699707,0.6246948,13.15625,2.765625,1.3125
1696253080026,0.76904297,-0.039123535,0.5812378,22.890625,3.03125,7.359375
1696253080067,0.8430176,-0.17803955,0.571228,8.921875,14.140625,23.03125
1696253080107,1.0258789,-0.1975708,0.49798584,-19.859375,14.453125,16.625
1696253080126,0.88916016,0.051696777,0.8085327,3.453125,-18.734375,-2.65625
1696253080184,0.59887695,-0.024230957,0.61151123,-2.8125,-3.78125,3.203125
1696253080225,0.6203613,0.08099365,0.6251831,-4.421875,-9.96875,4.9375
1696253080245,0.7229004,-0.10821533,0.55584717,27.0625,18.1875,7.640625
1696253080287,0.9243164,-0.13311768,0.81243896,4.546875,-0.703125,0.34375
1696253080327,0.6899414,-0.08502197,0.6415405,-14.984375,-13.9375,-0.9375
1696253080366,0.6599121,0.00970459,0.67181396,-9.03125,-1.40625,-5.953125
1696253080409,0.7109375,0.015319824,0.6820679,-6.28125,3.71875,-5.4375
1696253080450,0.7729492,-0.07867432,0.545105,-9.734375,-3.90625,1.75
1696253080487,0.84399414,-0.10040283,0.69403076,-4.234375,-6.703125,-5.546875
1696253080527,0.90356445,-0.023010254,0.6898804,8.4375,6.296875,-5.109375
1696253080567,0.8808594,0.051452637,0.52459717,4.09375,10.765625,9.078125
1696253080606,0.7939453,0.031433105,0.5529175,21.28125,12.171875,16.78125
1696253080645,1.0119629,-0.112854004,0.92840576,-4.15625,0.15625,6.96875
1696253080691,0.49975586,-0.06060791,0.63983154,-18.0,-8.5625,-2.53125
1696253080728,0.59106445,-0.034973145,0.5944214,-20.890625,-4.875,-9.65625
1696253080789,0.7373047,0.024108887,0.63861084,-8.703125,-2.21875,-11.640625
1696253080827,0.75219727,0.024353027,0.6688843,0.6875,2.390625,0.65625
1696253080845,0.842041,-0.1260376,0.62908936,-5.046875,-10.03125,-6.203125
1696253080886,0.8562012,-0.018859863,0.6132202,-4.15625,-5.375,-10.984375
1696253080947,0.97021484,0.06585693,0.63568115,10.125,13.3125,3.328125
1696253080966,0.89941406,0.022888184,0.63079834,18.75,29.375,14.40625
1696253081029,0.97265625,-0.13580322,0.38616943,2.578125,14.84375,15.65625
1696253081045,0.78686523,-0.02130127,0.75457764,-7.84375,-9.328125,3.328125
1696253081086,0.5966797,-0.008361816,0.60614014,-11.921875,-9.6875,-2.640625
1696253081126,0.6767578,-0.04034424,0.5980835,-14.96875,-13.15625,-9.96875
1696253081166,0.7438965,0.020202637,0.60687256,-6.03125,-6.578125,-4.140625
1696253081228,0.7922363,-0.016906738,0.6473999,2.375,-9.15625,-0.375
1696253081247,0.81762695,-0.07598877,0.64398193,12.125,-13.625,-9.0625
1696253081285,0.87524414,-0.04547119,0.66619873,6.3125,-1.171875,-6.1875
1696253081326,0.9160156,0.039001465,0.7164917,10.703125,21.65625,8.5625
1696253081366,0.9499512,0.04827881,0.60687256,16.671875,32.421875,21.859375
1696253081406,0.98657227,-0.12872314,0.4718628,5.90625,10.328125,24.421875
1696253081426,0.46191406,0.0067749023,0.6622925,-1.859375,-2.71875,3.53125
1696253081467,0.6611328,-0.06890869,0.56536865,-17.65625,-0.09375,-9.359375
1696253081506,0.8051758,0.046325684,0.6054077,3.171875,1.828125,-14.203125
1696253081548,0.82958984,-0.018615723,0.56658936,-10.03125,-6.328125,-2.1875
1696253081587,0.86499023,-0.0095825195,0.49871826,-16.484375,-15.890625,-0.15625
1696253081627,0.795166,-0.03253174,0.526062,-5.03125,-17.609375,-8.890625
1696253081667,0.8222656,0.0211792,0.74554443,12.640625,-8.75,-8.046875
1696253081708,0.98706055,-0.09210205,0.6786499,13.359375,20.21875,1.296875
1696253081746,1.0288086,0.006286621,0.4882202,4.796875,36.3125,29.375
1696253081787,0.83618164,-0.019836426,0.6141968,-10.328125,-12.859375,13.1875
1696253081826,0.61035156,0.042419434,0.6034546,-3.34375,-5.703125,-5.84375
1696253081866,0.74072266,-0.058654785,0.5687866,-9.3125,4.234375,-6.4375
1696253081907,0.7080078,-0.002746582,0.5516968,-4.609375,-9.375,-8.03125
1696253081946,0.75561523,-0.011047363,0.5910034,-3.234375,-10.375,-3.734375
1696253081987,0.8474121,-0.0051879883,0.5258179,4.984375,-13.703125,-7.25
1696253082026,0.88378906,-0.032043457,0.6078491,10.1875,-11.3125,-11.15625
1696253082065,0.859375,-0.04840088,0.7296753,13.59375,-3.25,-8.46875
1696253082108,0.8720703,-0.10601807,0.6720581,9.09375,-4.234375,-6.875
1696253082148,0.82958984,-0.034729004,0.6486206,-5.828125,-2.546875,-3.609375
1696253082187,0.7944336,-0.033996582,0.65496826,-7.875,-4.28125,1.25
1696253082225,0.73583984,-0.059143066,0.59539795,-3.1875,-1.640625,2.53125
1696253082265,0.7180176,-0.08111572,0.59173584,3.03125,-1.140625,-0.265625
1696253082307,0.7397461,-0.08258057,0.6325073,2.109375,-2.484375,-3.5625
1696253082349,0.79125977,-0.06915283,0.6481323,-1.46875,-4.046875,-2.609375
1696253082388,0.8129883,-0.061340332,0.6557007,-2.390625,-5.390625,-0.546875
1696253082425,0.8054199,-0.06304932,0.6754761,-0.84375,-3.75,-0.25
1696253082465,0.7758789,-0.058166504,0.6696167,-1.90625,-2.40625,0.25
1696253082507,0.7355957,-0.051574707,0.6469116,-3.984375,-3.3125,0.5625
1696253082545,0.7507324,-0.054992676,0.63690186,-2.921875,-2.84375,-0.3125
