,timestamp,accel_x,accel_y,accel_z,gyro_x,gyro_y,gyro_z,ind
0,1696254968804,0.6003418,-0.19708252,-0.7102661,0.28125,-1.1875,0.484375,0
1,1696254968844,0.60253906,-0.19293213,-0.71051025,-0.109375,-0.484375,0.265625,16
2,1696254968884,0.61206055,-0.19073486,-0.7073364,-0.140625,-0.4375,0.25,17
3,1696254968924,0.6035156,-0.19000244,-0.7078247,0.015625,-0.375,0.25,18
4,1696254968964,0.6062012,-0.18609619,-0.7085571,-0.03125,-0.484375,0.203125,19
5,1696254969004,0.6064453,-0.190979,-0.70806885,0.078125,-0.40625,0.09375,20
6,1696254969044,0.60180664,-0.18634033,-0.7151489,-0.046875,-0.359375,0.265625,21
7,1696254969084,0.6086426,-0.18414307,-0.7090454,-0.015625,-0.3125,0.265625,22
8,1696254969124,0.60546875,-0.18707275,-0.7036743,0.09375,-0.46875,0.28125,23
9,1696254969164,0.6022949,-0.1897583,-0.708313,-0.078125,-0.421875,0.109375,24
10,1696254969204,0.609375,-0.19024658,-0.7090454,-0.015625,-0.375,0.125,25
11,1696254969244,0.60595703,-0.19024658,-0.7173462,-0.3125,-0.1875,0.125,26
12,1696254969284,0.6020508,-0.19195557,-0.70147705,-0.046875,-0.34375,0.171875,27
13,1696254969324,0.5998535,-0.19024658,-0.7139282,-0.015625,-0.25,0.09375,28
14,1696254969364,0.60546875,-0.18536377,-0.708313,0.015625,-0.265625,0.140625,29
15,1696254969404,0.5979004,-0.18756104,-0.71881104,-0.140625,-0.21875,0.109375,30
16,1696254969444,0.59765625,-0.18511963,-0.7112427,-0.140625,-0.28125,0.203125,31
17,1696254969484,0.60131836,-0.19024658,-0.7114868,-0.296875,-0.390625,0.015625,32
18,1696254969524,0.6081543,-0.19171143,-0.7127075,-0.234375,-0.359375,-0.015625,33
19,1696254969564,0.60375977,-0.19317627,-0.7090454,-0.078125,-0.25,0.15625,34
20,1696254969604,0.59277344,-0.1897583,-0.708313,-0.125,-0.328125,0.15625,35
21,1696254969644,0.60253906,-0.19342041,-0.710022,-0.171875,-0.34375,0.109375,36
22,1696254969684,0.6022949,-0.18658447,-0.70635986,-0.125,-0.234375,0.109375,37
23,1696254969724,0.6032715,-0.19024658,-0.7131958,-0.140625,-0.234375,0.1875,38
24,1696254969764,0.5996094,-0.18829346,-0.71661377,-0.015625,-0.5,0.203125,39
25,1696254969804,0.5974121,-0.1843872,-0.7090454,-0.109375,-0.3125,0.0625,40
26,1696254969844,0.6020508,-0.190979,-0.71173096,-0.140625,-0.5,0.375,41
27,1696254969884,0.6032715,-0.19293213,-0.7085571,-0.125,-0.390625,0.171875,42
28,1696254969924,0.60717773,-0.19317627,-0.7090454,-0.34375,-0.234375,0.109375,43
29,1696254969964,0.60009766,-0.19244385,-0.71099854,-0.015625,-0.359375,0.09375,44
30,1696254970004,0.6062012,-0.1897583,-0.71051025,0.0625,-0.3125,0.125,45
31,1696254970044,0.60375977,-0.19293213,-0.7185669,-0.234375,-0.390625,0.015625,46
32,1696254970084,0.60302734,-0.19659424,-0.7127075,-0.125,-0.484375,0.09375,47
33,1696254970124,0.60180664,-0.19610596,-0.7102661,-0.125,-0.421875,0.09375,48
34,1696254970164,0.6015625,-0.19683838,-0.7124634,-0.234375,-0.421875,0.078125,49
35,1696254970204,0.6035156,-0.19488525,-0.71099854,-0.015625,-0.515625,0.234375,50
36,1696254970244,0.5983887,-0.19781494,-0.71539307,-0.046875,-0.484375,0.265625,51
37,1696254970284,0.6003418,-0.19244385,-0.7090454,0.046875,-0.34375,0.21875,52
38,1696254970324,0.60375977,-0.19390869,-0.71661377,0.015625,-0.59375,0.15625,53
39,1696254970364,0.60253906,-0.1897583,-0.70928955,0.125,-0.546875,0.109375,54
40,1696254970404,0.60302734,-0.18927002,-0.71466064,-0.125,-0.515625,0.203125,55
41,1696254970444,0.60180664,-0.18609619,-0.71295166,-0.1875,-0.71875,0.3125,56
42,1696254970484,0.60498047,-0.19342041,-0.7102661,0.03125,-0.75,0.265625,57
43,1696254970524,0.60498047,-0.18536377,-0.7085571,-0.0625,-0.484375,0.171875,58
44,1696254970564,0.60791016,-0.19146729,-0.71343994,-0.109375,-0.65625,0.15625,59
45,1696254970604,0.6062012,-0.1897583,-0.71417236,0.0625,-0.84375,0.484375,60
46,1696254970644,0.6047363,-0.1897583,-0.7168579,0.0,-0.609375,0.34375,61
47,1696254970684,0.60424805,-0.1897583,-0.7102661,0.0,-0.578125,0.125,62
48,1696254970724,0.6027832,-0.1951294,-0.70928955,-0.109375,-0.46875,0.1875,63
49,1696254970764,0.6015625,-0.19805908,-0.7119751,-0.1875,-0.515625,0.1875,64
50,1696254970804,0.6105957,-0.18951416,-0.70806885,-0.078125,-0.484375,0.3125,65
51,1696254970844,0.609375,-0.18927002,-0.71417236,-0.03125,-0.46875,0.34375,66
52,1696254970884,0.6081543,-0.1921997,-0.7136841,-0.078125,-0.640625,0.109375,67
53,1696254970924,0.60253906,-0.19073486,-0.7112427,-0.0625,-0.421875,0.1875,68
54,1696254970964,0.6027832,-0.1951294,-0.7041626,0.015625,-0.5625,0.328125,69
55,1696254971004,0.6032715,-0.19561768,-0.7107544,0.0625,-0.4375,0.296875,70
56,1696254971044,0.6064453,-0.1975708,-0.7095337,0.015625,-0.546875,0.296875,71
57,1696254971084,0.60498047,-0.19049072,-0.70880127,-0.046875,-0.4375,0.203125,72
58,1696254971124,0.6044922,-0.18682861,-0.71099854,-0.015625,-0.59375,0.234375,73
59,1696254971164,0.6020508,-0.18707275,-0.71588135,-0.15625,-0.5625,0.296875,74
60,1696254971204,0.607666,-0.19366455,-0.7085571,-0.03125,-0.546875,0.25,75
61,1696254971244,0.6125488,-0.19342041,-0.71221924,-0.125,-0.4375,0.21875,76
62,1696254971284,0.60546875,-0.190979,-0.71051025,-0.078125,-0.46875,0.1875,77
63,1696254971324,0.6047363,-0.18365479,-0.7061157,0.125,-0.6875,0.3125,78
64,1696254971364,0.607666,-0.19537354,-0.710022,-0.34375,-0.640625,0.15625,79
65,1696254971404,0.6062012,-0.1831665,-0.7085571,-0.171875,-0.640625,0.203125,80
66,1696254971444,0.6027832,-0.19024658,-0.7112427,-0.171875,-0.53125,0.203125,81
67,1696254971484,0.6074219,-0.18804932,-0.70880127,-0.21875,-0.421875,0.0625,82
68,1696254971524,0.6022949,-0.19342041,-0.7168579,-0.015625,-0.5625,0.125,83
69,1696254971564,0.60498047,-0.1885376,-0.71099854,-0.140625,-0.578125,0.28125,84
70,1696254971604,0.6057129,-0.19561768,-0.7107544,-0.203125,-0.71875,0.21875,85
71,1696254971644,0.61328125,-0.18780518,-0.7119751,-0.109375,-0.5625,0.21875,86
72,1696254971684,0.6047363,-0.18927002,-0.7095337,-0.046875,-0.546875,0.3125,87
73,1696254971724,0.6086426,-0.18878174,-0.7107544,0.046875,-0.421875,0.171875,88
74,1696254971764,0.6052246,-0.1885376,-0.7090454,0.09375,-0.53125,0.203125,89
75,1696254971804,0.61279297,-0.19439697,-0.7102661,-0.25,-0.265625,0.328125,90
76,1696254971844,0.6010742,-0.19146729,-0.70635986,-0.0625,-0.53125,0.140625,91
77,1696254971884,0.60375977,-0.19708252,-0.7112427,-0.125,-0.5,0.21875,92
78,1696254971924,0.6081543,-0.18585205,-0.708313,-0.1875,-0.46875,0.25,93
79,1696254971964,0.60791016,-0.18267822,-0.7131958,-0.109375,-0.609375,0.09375,94
80,1696254972004,0.6081543,-0.19537354,-0.7139282,0.078125,-0.5625,0.296875,95
81,1696254972044,0.6118164,-0.19244385,-0.7073364,0.03125,-0.671875,0.15625,96
82,1696254972084,0.6052246,-0.18780518,-0.7124634,-0.25,-0.375,0.140625,97
83,1696254972124,0.6142578,-0.19317627,-0.706604,0.0625,-0.65625,0.0625,98
84,1696254972164,0.6047363,-0.19195557,-0.71099854,0.03125,-0.53125,0.203125,99
85,1696254972204,0.60375977,-0.18536377,-0.7090454,-0.03125,-0.359375,0.171875,100
86,1696254972244,0.60961914,-0.1951294,-0.70635986,-0.15625,-0.484375,0.140625,101
87,1696254972284,0.60253906,-0.18511963,-0.7053833,-0.140625,-0.59375,0.265625,102
88,1696254972324,0.6101074,-0.19244385,-0.71051025,-0.03125,-0.390625,0.328125,103
89,1696254972364,0.60546875,-0.18682861,-0.7053833,-0.0625,-0.453125,0.1875,104
90,1696254972404,0.60302734,-0.18682861,-0.70440674,0.03125,-0.421875,0.140625,105
91,1696254972444,0.6044922,-0.18658447,-0.7107544,0.125,-0.265625,0.140625,106
92,1696254972484,0.60791016,-0.19000244,-0.71466064,0.0625,-0.390625,0.125,107
93,1696254972524,0.60717773,-0.18878174,-0.708313,-0.03125,-0.203125,0.015625,108
94,1696254972564,0.6027832,-0.18780518,-0.7114868,-0.125,-0.484375,0.078125,109
95,1696254972604,0.60791016,-0.19146729,-0.708313,-0.078125,-0.265625,0.03125,110
96,1696254972644,0.6074219,-0.190979,-0.7114868,-0.140625,-0.375,0.125,111
97,1696254972684,0.60180664,-0.18585205,-0.7046509,-0.109375,-0.296875,0.046875,112
98,1696254972724,0.60498047,-0.1873169,-0.7149048,-0.15625,0.046875,-0.125,113
99,1696254972764,0.6086426,-0.19268799,-0.71343994,-0.109375,-0.171875,0.265625,114
100,1696254972804,0.60668945,-0.19171143,-0.7061157,-0.28125,-0.25,0.1875,115
101,1696254972844,0.6022949,-0.18560791,-0.71466064,-0.359375,-0.25,0.015625,116
102,1696254972884,0.6020508,-0.18927002,-0.70684814,-0.078125,-0.296875,-0.0625,117
103,1696254972924,0.6069336,-0.1897583,-0.7144165,-0.1875,-0.375,0.046875,118
104,1696254972964,0.6047363,-0.18878174,-0.7136841,-0.109375,-0.234375,0.15625,119
105,1696254973004,0.60058594,-0.1963501,-0.71417236,-0.125,-0.25,0.125,120
106,1696254973044,0.60668945,-0.1873169,-0.704895,-0.09375,-0.4375,0.109375,121
107,1696254973084,0.6008301,-0.1843872,-0.70806885,-0.21875,-0.484375,0.0625,122
108,1696254973124,0.60668945,-0.19342041,-0.7107544,-0.203125,-0.375,0.140625,123
109,1696254973164,0.5986328,-0.1921997,-0.70513916,-0.09375,-0.28125,0.296875,124
110,1696254973204,0.60131836,-0.18927002,-0.7107544,-0.03125,-0.328125,0.109375,125
111,1696254973244,0.6081543,-0.19293213,-0.71099854,-0.140625,-0.421875,0.125,126
112,1696254973284,0.6022949,-0.1963501,-0.71588135,-0.171875,-0.25,0.109375,127
113,1696254973324,0.60717773,-0.19146729,-0.7119751,-0.140625,-0.203125,0.109375,128
114,1696254973364,0.6010742,-0.19390869,-0.7131958,-0.15625,-0.484375,0.046875,129
115,1696254973404,0.6022949,-0.19146729,-0.7102661,-0.265625,-0.546875,-0.015625,130
116,1696254973444,0.6035156,-0.19732666,-0.70977783,-0.171875,-0.421875,0.03125,131
117,1696254973484,0.6057129,-0.19122314,-0.7095337,-0.09375,-0.46875,0.234375,132
118,1696254973524,0.6015625,-0.19390869,-0.70806885,0.046875,-0.34375,0.296875,133
119,1696254973564,0.6003418,-0.19268799,-0.71051025,-0.140625,-0.359375,0.09375,134
120,1696254973604,0.5979004,-0.19342041,-0.7136841,-0.0625,-0.328125,0.1875,135
121,1696254973644,0.6044922,-0.19342041,-0.71295166,-0.140625,-0.4375,0.171875,136
122,1696254973684,0.5979004,-0.19683838,-0.70806885,-0.03125,-0.5,0.203125,137
123,1696254973724,0.5986328,-0.19903564,-0.71173096,-0.125,-0.25,0.171875,138
124,1696254973764,0.60131836,-0.18780518,-0.7112427,0.03125,-0.46875,0.296875,139
125,1696254973804,0.59936523,-0.19732666,-0.71954346,0.078125,-0.46875,0.359375,140
126,1696254973844,0.6010742,-0.1921997,-0.7151489,-0.015625,-0.515625,0.3125,141
127,1696254973884,0.6040039,-0.19073486,-0.71051025,-0.078125,-0.375,0.171875,142
128,1696254973924,0.6010742,-0.18829346,-0.7124634,0.0625,-0.609375,0.296875,143
129,1696254973964,0.6027832,-0.19342041,-0.7046509,0.03125,-0.546875,0.265625,144
130,1696254974004,0.60180664,-0.18902588,-0.71099854,0.109375,-0.59375,0.3125,145
131,1696254974044,0.6032715,-0.19439697,-0.7119751,0.140625,-0.421875,0.328125,146
132,1696254974084,0.6022949,-0.19683838,-0.70977783,0.03125,-0.5,0.3125,147
133,1696254974124,0.60668945,-0.19122314,-0.71343994,0.0,-0.703125,0.328125,148
134,1696254974164,0.60180664,-0.19317627,-0.7061157,-0.015625,-0.46875,0.328125,149
135,1696254974204,0.59936523,-0.19146729,-0.7180786,-0.078125,-0.328125,0.109375,150
136,1696254974244,0.60009766,-0.19122314,-0.7112427,0.03125,-0.59375,0.390625,151
137,1696254974284,0.6035156,-0.190979,-0.7119751,-0.015625,-0.578125,0.234375,152
138,1696254974324,0.60253906,-0.19122314,-0.7112427,-0.265625,-0.40625,0.1875,153
139,1696254974364,0.6040039,-0.18902588,-0.70562744,-0.03125,-0.484375,0.28125,154
140,1696254974404,0.6022949,-0.18560791,-0.7136841,-0.171875,-0.5,0.15625,155
141,1696254974444,0.6074219,-0.19586182,-0.71051025,-0.015625,-0.53125,0.140625,156
142,1696254974484,0.6008301,-0.19024658,-0.7119751,0.015625,-0.6875,0.171875,157
143,1696254974524,0.6040039,-0.1975708,-0.70928955,0.0625,-0.578125,0.3125,158
144,1696254974564,0.60791016,-0.19293213,-0.71466064,-0.234375,-0.59375,0.125,159
145,1696254974604,0.6098633,-0.19854736,-0.7085571,0.015625,-0.46875,0.234375,160
146,1696254974644,0.60839844,-0.19146729,-0.7090454,-0.1875,-0.265625,0.21875,161
147,1696254974684,0.6069336,-0.19610596,-0.7095337,0.078125,-0.59375,0.203125,162
148,1696254974724,0.6035156,-0.19024658,-0.70928955,-0.203125,-0.640625,0.328125,163
149,1696254974764,0.60498047,-0.18804932,-0.71221924,0.0625,-0.515625,0.265625,164
150,1696254974804,0.60180664,-0.19415283,-0.7078247,-0.21875,-0.578125,0.15625,165
151,1696254974844,0.6040039,-0.19073486,-0.71173096,-0.046875,-0.4375,0.1875,166
152,1696254974884,0.6020508,-0.19171143,-0.70928955,-0.140625,-0.546875,0.109375,167
153,1696254974924,0.6003418,-0.18658447,-0.70880127,-0.296875,-0.609375,0.203125,168
154,1696254974964,0.5991211,-0.19171143,-0.70758057,0.015625,-0.28125,0.25,169
155,1696254975004,0.6086426,-0.19415283,-0.7161255,-0.125,-0.546875,0.078125,170
156,1696254975044,0.6057129,-0.18609619,-0.7102661,-0.1875,-0.328125,0.15625,171
157,1696254975084,0.6032715,-0.19195557,-0.7085571,-0.25,-0.71875,0.234375,172
158,1696254975124,0.6062012,-0.18536377,-0.71295166,-0.265625,-0.609375,0.3125,173
159,1696254975164,0.6047363,-0.19415283,-0.7029419,-0.15625,-0.46875,0.21875,174
160,1696254975204,0.6040039,-0.19732666,-0.7061157,-0.015625,-0.453125,0.15625,175
161,1696254975244,0.611084,-0.19390869,-0.7112427,-0.03125,-0.25,0.3125,176
162,1696254975284,0.60961914,-0.19073486,-0.7061157,-0.109375,-0.515625,0.140625,177
163,1696254975324,0.6062012,-0.19366455,-0.7107544,0.0,-0.6875,0.265625,178
164,1696254975364,0.60424805,-0.19293213,-0.7058716,0.0625,-0.625,0.109375,179
165,1696254975404,0.61279297,-0.18707275,-0.7090454,0.0,-0.53125,0.015625,180
166,1696254975444,0.6032715,-0.19342041,-0.70977783,0.15625,-0.46875,0.203125,181
167,1696254975484,0.6069336,-0.18927002,-0.7119751,0.03125,-0.734375,0.078125,182
168,1696254975524,0.6069336,-0.19122314,-0.7078247,-0.015625,-0.5,0.234375,183
169,1696254975564,0.6113281,-0.19122314,-0.7131958,-0.046875,-0.484375,0.203125,184
170,1696254975604,0.5979004,-0.19171143,-0.71099854,-0.171875,-0.484375,0.15625,185
171,1696254975644,0.60180664,-0.18878174,-0.70562744,-0.125,-0.359375,0.21875,186
172,1696254975684,0.6088867,-0.18927002,-0.7151489,-0.21875,-0.484375,0.03125,187
173,1696254975724,0.6047363,-0.18780518,-0.7046509,-0.203125,-0.515625,0.171875,188
174,1696254975764,0.6032715,-0.19171143,-0.71173096,-0.109375,-0.625,0.1875,189
175,1696254975804,0.6086426,-0.18658447,-0.7090454,-0.28125,-0.296875,0.1875,190
176,1696254975844,0.6027832,-0.19000244,-0.7095337,-0.0625,-0.375,0.0625,191
177,1696254975884,0.6040039,-0.1873169,-0.70635986,-0.046875,-0.28125,0.1875,192
178,1696254975924,0.6052246,-0.19317627,-0.7144165,-0.203125,-0.34375,0.171875,193
179,1696254975964,0.60180664,-0.190979,-0.70440674,0.046875,-0.4375,0.109375,194
180,1696254976004,0.6032715,-0.19366455,-0.70928955,-0.0625,-0.421875,0.203125,195
181,1696254976044,0.6044922,-0.19464111,-0.71051025,-0.046875,-0.15625,0.15625,196
182,1696254976084,0.6015625,-0.19464111,-0.7131958,-0.21875,-0.265625,0.015625,197
183,1696254976124,0.6057129,-0.18780518,-0.71221924,-0.171875,-0.40625,0.125,198
184,1696254976164,0.6062012,-0.18414307,-0.710022,-0.28125,-0.21875,0.0,199
185,1696254976204,0.6062012,-0.18780518,-0.7095337,-0.03125,-0.328125,-0.046875,200
186,1696254976244,0.5991211,-0.19000244,-0.7046509,-0.03125,-0.3125,0.109375,201
187,1696254976284,0.6015625,-0.18829346,-0.71295166,-0.015625,-0.375,0.109375,202
188,1696254976324,0.60009766,-0.19171143,-0.710022,-0.109375,-0.5,0.265625,203
189,1696254976364,0.6081543,-0.19317627,-0.71295166,-0.140625,-0.1875,0.1875,204
190,1696254976404,0.60595703,-0.19683838,-0.71466064,-0.203125,-0.3125,0.03125,205
191,1696254976444,0.60375977,-0.190979,-0.71661377,-0.421875,-0.28125,0.09375,206
192,1696254976484,0.60131836,-0.19683838,-0.7136841,-0.328125,-0.5625,0.140625,207
193,1696254976524,0.6008301,-0.19366455,-0.7053833,-0.109375,-0.421875,0.171875,208
194,1696254976564,0.6003418,-0.19171143,-0.710022,-0.125,-0.203125,0.15625,209
195,1696254976604,0.60791016,-0.18902588,-0.7127075,-0.21875,-0.328125,-0.03125,210
196,1696254976644,0.6101074,-0.19268799,-0.7136841,-0.15625,-0.484375,0.28125,211
197,1696254976684,0.60498047,-0.18560791,-0.71539307,-0.125,-0.375,0.109375,212
198,1696254976724,0.5996094,-0.19439697,-0.7070923,-0.171875,-0.328125,0.25,213
199,1696254976764,0.5983887,-0.19366455,-0.7022095,-0.15625,-0.421875,0.125,214
200,1696254976804,0.6057129,-0.1963501,-0.7061157,-0.140625,-0.5,0.0,215
201,1696254976844,0.59765625,-0.19415283,-0.7180786,0.0,-0.234375,0.21875,216
202,1696254976884,0.60009766,-0.19146729,-0.7180786,-0.03125,-0.375,0.078125,217
203,1696254976924,0.60498047,-0.1897583,-0.71417236,-0.03125,-0.3125,0.203125,218
204,1696254976964,0.5991211,-0.18634033,-0.71295166,0.015625,-0.296875,0.265625,219
205,1696254977004,0.6010742,-0.19366455,-0.7151489,-0.015625,-0.53125,0.203125,220
206,1696254977044,0.5974121,-0.19464111,-0.7095337,-0.1875,-0.359375,0.1875,221
207,1696254977084,0.5991211,-0.19293213,-0.708313,0.0,-0.375,0.125,222
208,1696254977124,0.6062012,-0.19024658,-0.7180786,-0.015625,-0.53125,0.265625,223
209,1696254977164,0.6052246,-0.18878174,-0.71466064,0.109375,-0.390625,0.359375,224
210,1696254977204,0.5966797,-0.19000244,-0.7095337,0.109375,-0.359375,0.1875,225
211,1696254977244,0.60009766,-0.1873169,-0.7114868,0.0,-0.53125,0.265625,226
212,1696254977284,0.6022949,-0.19561768,-0.7073364,-0.1875,-0.546875,0.3125,227
213,1696254977324,0.6020508,-0.18780518,-0.7127075,0.0625,-0.484375,0.390625,228
214,1696254977364,0.5998535,-0.18878174,-0.71099854,0.203125,-0.59375,0.328125,229
215,1696254977404,0.60791016,-0.1897583,-0.7119751,0.203125,-0.40625,0.28125,230
216,1696254977444,0.60131836,-0.18927002,-0.7124634,0.078125,-0.484375,0.234375,231
217,1696254977484,0.60131836,-0.19146729,-0.7078247,0.21875,-0.5625,0.265625,232
218,1696254977524,0.6064453,-0.19268799,-0.7127075,0.09375,-0.59375,0.390625,233
219,1696254977564,0.5998535,-0.19317627,-0.7156372,-0.109375,-0.53125,0.28125,234
220,1696254977604,0.6027832,-0.18804932,-0.7112427,-0.015625,-0.734375,0.40625,235
221,1696254977644,0.6057129,-0.19317627,-0.70758057,-0.078125,-0.5,0.296875,236
222,1696254977684,0.6020508,-0.1873169,-0.708313,-0.078125,-0.4375,0.28125,237
223,1696254977724,0.6064453,-0.18902588,-0.71417236,-0.0625,-0.578125,0.3125,238
224,1696254977764,0.6035156,-0.1897583,-0.71832275,0.0,-0.484375,0.265625,239
225,1696254977804,0.60546875,-0.18780518,-0.7078247,-0.03125,-0.53125,0.125,240
226,1696254977844,0.6064453,-0.18829346,-0.70806885,-0.09375,-0.625,0.15625,241
227,1696254977884,0.6020508,-0.18463135,-0.7024536,0.0,-0.609375,0.296875,242
228,1696254977924,0.6022949,-0.18756104,-0.71417236,-0.046875,-0.40625,0.34375,243
229,1696254977964,0.6035156,-0.18927002,-0.71051025,0.109375,-0.578125,0.046875,244
230,1696254978004,0.60424805,-0.1921997,-0.70977783,-0.046875,-0.546875,0.203125,245
231,1696254978044,0.60791016,-0.1897583,-0.70513916,0.0,-0.515625,0.171875,246
232,1696254978084,0.60546875,-0.19268799,-0.71173096,-0.09375,-0.71875,0.25,247
233,1696254978124,0.607666,-0.18682861,-0.7058716,-0.171875,-0.609375,0.171875,248
234,1696254978164,0.6040039,-0.1873169,-0.708313,-0.109375,-0.609375,0.25,249
235,1696254978204,0.60839844,-0.18780518,-0.71051025,0.125,-0.65625,0.375,250
236,1696254978244,0.6022949,-0.19000244,-0.7136841,-0.078125,-0.546875,0.21875,251
237,1696254978284,0.6064453,-0.18658447,-0.70806885,-0.171875,-0.4375,0.078125,252
238,1696254978324,0.6027832,-0.19952393,-0.7112427,-0.0625,-0.46875,0.234375,253
239,1696254978364,0.60253906,-0.18951416,-0.7073364,-0.03125,-0.5,0.265625,254
240,1696254978404,0.60839844,-0.18609619,-0.71417236,-0.140625,-0.359375,0.328125,255
241,1696254978444,0.6047363,-0.19268799,-0.70196533,-0.09375,-0.578125,0.203125,256
242,1696254978484,0.607666,-0.18658447,-0.7085571,-0.078125,-0.46875,0.171875,257
243,1696254978524,0.61206055,-0.18536377,-0.71295166,-0.015625,-0.484375,0.09375,258
244,1696254978564,0.6022949,-0.19268799,-0.71099854,-0.171875,-0.46875,0.140625,259
245,1696254978604,0.6052246,-0.1921997,-0.70806885,-0.0625,-0.5,0.25,260
246,1696254978644,0.6062012,-0.18829346,-0.71221924,-0.125,-0.53125,0.1875,261
247,1696254978684,0.6088867,-0.19342041,-0.7114868,-0.296875,-0.625,0.25,262
248,1696254978724,0.6008301,-0.18902588,-0.71295166,-0.296875,-0.390625,0.203125,263
249,1696254978764,0.60595703,-0.18829346,-0.7053833,-0.03125,-0.546875,0.234375,264
250,1696254978804,0.6032715,-0.18121338,-0.7124634,-0.03125,-0.484375,0.3125,265
251,1696254978844,0.6062012,-0.18902588,-0.7095337,0.125,-0.4375,0.140625,266
252,1696254978884,0.609375,-0.19439697,-0.71051025,-0.140625,-0.578125,0.28125,267
253,1696254978924,0.60253906,-0.18707275,-0.7114868,-0.046875,-0.4375,0.3125,268
254,1696254978964,0.6064453,-0.18804932,-0.70977783,-0.078125,-0.578125,0.171875,269
255,1696254979004,0.60253906,-0.18218994,-0.70635986,-0.125,-0.359375,0.21875,270
256,1696254979044,0.60961914,-0.18829346,-0.70806885,-0.109375,-0.453125,0.28125,271
257,1696254979084,0.6020508,-0.19122314,-0.71051025,0.0,-0.625,0.265625,272
258,1696254979124,0.61035156,-0.18927002,-0.71221924,-0.015625,-0.296875,0.171875,273
259,1696254979164,0.6044922,-0.19342041,-0.71417236,-0.078125,-0.484375,0.21875,274
260,1696254979204,0.60913086,-0.18951416,-0.7124634,0.03125,-0.4375,0.21875,275
261,1696254979244,0.60913086,-0.18511963,-0.71173096,-0.0625,-0.5625,0.203125,276
262,1696254979284,0.5979004,-0.1873169,-0.7034302,-0.125,-0.546875,0.28125,277
263,1696254979324,0.6015625,-0.18389893,-0.7119751,0.0,-0.34375,0.125,278
264,1696254979364,0.6101074,-0.19000244,-0.7139282,-0.078125,-0.3125,0.171875,279
265,1696254979404,0.6008301,-0.18927002,-0.7114868,-0.109375,-0.4375,0.078125,280
266,1696254979444,0.60839844,-0.18658447,-0.71099854,0.09375,-0.359375,0.25,281
267,1696254979484,0.6057129,-0.18780518,-0.70928955,-0.125,-0.21875,0.09375,282
268,1696254979524,0.60961914,-0.1885376,-0.7151489,-0.046875,-0.328125,0.171875,283
269,1696254979564,0.6047363,-0.18414307,-0.7178345,-0.296875,-0.140625,0.09375,284
270,1696254979604,0.6052246,-0.19439697,-0.7085571,0.0,-0.390625,-0.03125,285
271,1696254979644,0.60913086,-0.19659424,-0.7156372,-0.109375,-0.390625,0.171875,286
272,1696254979684,0.6062012,-0.18658447,-0.7119751,0.078125,-0.15625,0.1875,287
273,1696254979724,0.6032715,-0.18634033,-0.72052,-0.03125,-0.375,0.125,288
274,1696254979764,0.60546875,-0.18560791,-0.71710205,-0.09375,-0.296875,0.0625,289
275,1696254979804,0.6010742,-0.19195557,-0.7144165,-0.171875,-0.328125,0.0,290
276,1696254979844,0.61035156,-0.19366455,-0.71099854,-0.078125,-0.390625,0.078125,291
277,1696254979884,0.61083984,-0.18878174,-0.7085571,-0.140625,-0.453125,0.203125,292
278,1696254979924,0.6022949,-0.18389893,-0.7102661,-0.125,-0.359375,0.15625,293
279,1696254979964,0.6032715,-0.1951294,-0.72076416,-0.140625,-0.140625,0.0625,294
280,1696254980004,0.60717773,-0.19171143,-0.71466064,-0.390625,-0.21875,0.28125,295
281,1696254980044,0.5974121,-0.18829346,-0.71295166,-0.1875,-0.375,0.15625,296
282,1696254980084,0.60058594,-0.18780518,-0.7119751,-0.328125,-0.40625,0.109375,297
283,1696254980124,0.60131836,-0.19122314,-0.7070923,-0.09375,-0.5,0.21875,298
284,1696254980164,0.60424805,-0.19024658,-0.7085571,-0.15625,-0.40625,0.078125,299
285,1696254980204,0.6020508,-0.1921997,-0.7119751,-0.1875,-0.140625,0.203125,300
286,1696254980244,0.60546875,-0.19122314,-0.7090454,-0.078125,-0.390625,0.078125,301
287,1696254980284,0.5979004,-0.19293213,-0.71295166,-0.140625,-0.328125,0.265625,302
288,1696254980324,0.60375977,-0.18536377,-0.7161255,-0.203125,-0.484375,0.046875,303
289,1696254980364,0.59814453,-0.18536377,-0.7112427,0.0,-0.28125,0.21875,304
290,1696254980404,0.5986328,-0.1921997,-0.70513916,-0.1875,-0.421875,0.15625,305
291,1696254980444,0.60546875,-0.1921997,-0.7144165,-0.09375,-0.375,0.1875,306
292,1696254980484,0.5991211,-0.1873169,-0.70635986,0.0,-0.609375,0.0625,307
293,1696254980524,0.6008301,-0.190979,-0.7114868,-0.125,-0.328125,0.140625,308
294,1696254980564,0.60791016,-0.18878174,-0.71466064,-0.09375,-0.421875,0.171875,309
295,1696254980604,0.5991211,-0.18609619,-0.7112427,-0.203125,-0.390625,0.171875,310
296,1696254980644,0.6020508,-0.18902588,-0.7107544,-0.015625,-0.609375,0.03125,311
297,1696254980684,0.6020508,-0.19439697,-0.7127075,-0.109375,-0.484375,0.171875,312
298,1696254980724,0.6035156,-0.18609619,-0.7107544,-0.171875,-0.484375,0.25,313
299,1696254980764,0.60253906,-0.19342041,-0.7058716,0.171875,-0.515625,0.28125,314
300,1696254980804,0.6022949,-0.19659424,-0.71417236,0.09375,-0.484375,0.21875,315
301,1696254980844,0.6086426,-0.19049072,-0.71173096,0.109375,-0.640625,0.21875,316
302,1696254980884,0.5986328,-0.19073486,-0.70758057,0.03125,-0.671875,0.484375,317
303,1696254980924,0.60131836,-0.19122314,-0.708313,0.09375,-0.546875,0.296875,318
304,1696254980964,0.6003418,-0.19073486,-0.70880127,-0.03125,-0.578125,0.265625,319
305,1696254981004,0.60058594,-0.18634033,-0.7124634,0.078125,-0.578125,0.296875,320
306,1696254981044,0.6044922,-0.1897583,-0.71295166,0.203125,-0.578125,0.296875,321
307,1696254981084,0.59936523,-0.19049072,-0.7053833,-0.0625,-0.484375,0.3125,322
308,1696254981124,0.6008301,-0.19244385,-0.710022,0.03125,-0.609375,0.203125,323
309,1696254981164,0.60498047,-0.1885376,-0.7107544,-0.1875,-0.59375,0.25,324
310,1696254981204,0.6035156,-0.1897583,-0.71221924,0.09375,-0.703125,0.265625,325
311,1696254981244,0.59716797,-0.19415283,-0.7058716,-0.109375,-0.46875,0.125,326
312,1696254981284,0.60717773,-0.19342041,-0.7151489,-0.1875,-0.515625,0.3125,327
313,1696254981324,0.6069336,-0.18634033,-0.71221924,0.0,-0.40625,0.203125,328
314,1696254981364,0.6052246,-0.18487549,-0.7131958,-0.21875,-0.40625,0.109375,329
315,1696254981404,0.59765625,-0.18804932,-0.710022,-0.203125,-0.484375,0.171875,330
316,1696254981444,0.60302734,-0.19171143,-0.7085571,-0.15625,-0.515625,0.21875,331
317,1696254981484,0.6047363,-0.18756104,-0.7136841,-0.03125,-0.59375,0.28125,332
318,1696254981524,0.60058594,-0.18804932,-0.7078247,-0.03125,-0.625,0.328125,333
319,1696254981564,0.60180664,-0.19610596,-0.71173096,-0.140625,-0.578125,0.171875,334
320,1696254981604,0.60668945,-0.1951294,-0.710022,0.03125,-0.46875,0.296875,335
321,1696254981644,0.6044922,-0.18536377,-0.7107544,-0.1875,-0.484375,0.265625,336
322,1696254981684,0.6074219,-0.18658447,-0.7095337,0.078125,-0.53125,0.203125,337
323,1696254981724,0.60791016,-0.18487549,-0.71588135,-0.140625,-0.46875,0.171875,338
324,1696254981764,0.6057129,-0.19366455,-0.7102661,-0.234375,-0.515625,0.28125,339
325,1696254981804,0.611084,-0.19195557,-0.708313,0.015625,-0.71875,0.21875,340
326,1696254981844,0.6105957,-0.1951294,-0.7124634,-0.015625,-0.5625,0.203125,341
327,1696254981884,0.60253906,-0.18756104,-0.71173096,-0.21875,-0.484375,0.1875,342
328,1696254981924,0.60424805,-0.19488525,-0.7114868,-0.140625,-0.46875,0.21875,343
329,1696254981964,0.60839844,-0.19146729,-0.710022,-0.046875,-0.640625,0.328125,344
330,1696254982004,0.5996094,-0.19146729,-0.7095337,-0.046875,-0.578125,0.1875,345
331,1696254982044,0.6044922,-0.18463135,-0.7156372,-0.15625,-0.40625,0.109375,346
332,1696254982084,0.609375,-0.18951416,-0.70758057,-0.046875,-0.546875,0.21875,347
333,1696254982124,0.61157227,-0.1873169,-0.71221924,-0.203125,-0.53125,0.25,348
334,1696254982164,0.60717773,-0.18878174,-0.71099854,-0.09375,-0.265625,-0.0625,349
335,1696254982204,0.59887695,-0.18902588,-0.7178345,-0.125,-0.375,0.09375,350
336,1696254982244,0.60668945,-0.18707275,-0.7107544,-0.015625,-0.5625,0.140625,351
337,1696254982284,0.6074219,-0.19342041,-0.71173096,-0.265625,-0.640625,0.234375,352
338,1696254982324,0.6047363,-0.19122314,-0.7112427,-0.171875,-0.5,0.125,353
339,1696254982364,0.6032715,-0.18829346,-0.7161255,-0.046875,-0.359375,0.234375,354
340,1696254982404,0.60668945,-0.18609619,-0.7078247,0.078125,-0.484375,0.140625,355
341,1696254982444,0.6074219,-0.19268799,-0.7127075,-0.109375,-0.5,0.234375,356
342,1696254982484,0.6064453,-0.18756104,-0.71417236,0.046875,-0.296875,0.34375,357
343,1696254982524,0.60913086,-0.18951416,-0.7078247,0.0625,-0.4375,0.1875,358
344,1696254982564,0.6064453,-0.19146729,-0.7151489,-0.15625,-0.59375,0.0625,359
345,1696254982604,0.60375977,-0.19073486,-0.70880127,-0.125,-0.390625,-0.015625,360
346,1696254982644,0.6125488,-0.18829346,-0.7114868,0.03125,-0.5,0.15625,361
347,1696254982684,0.6086426,-0.18902588,-0.7061157,0.015625,-0.28125,0.171875,362
348,1696254982724,0.60595703,-0.18682861,-0.7127075,0.140625,-0.265625,0.171875,363
349,1696254982764,0.6062012,-0.19073486,-0.706604,-0.203125,-0.3125,0.078125,364
350,1696254982804,0.6044922,-0.18756104,-0.7046509,0.140625,-0.390625,0.25,365
351,1696254982844,0.60595703,-0.18829346,-0.7124634,-0.171875,-0.265625,0.03125,366
352,1696254982884,0.60546875,-0.18804932,-0.70684814,-0.046875,-0.390625,0.046875,367
353,1696254982924,0.6062012,-0.18927002,-0.7178345,-0.171875,-0.375,0.203125,368
354,1696254982964,0.6027832,-0.18511963,-0.7041626,0.03125,-0.390625,0.0,369
355,1696254983004,0.60498047,-0.18902588,-0.710022,-0.15625,-0.234375,0.046875,370
356,1696254983044,0.60498047,-0.19366455,-0.71466064,-0.265625,-0.203125,0.21875,371
357,1696254983084,0.60424805,-0.19024658,-0.71417236,-0.109375,-0.328125,0.078125,372
358,1696254983124,0.6027832,-0.18829346,-0.71173096,-0.125,-0.375,0.265625,373
359,1696254983164,0.6020508,-0.18927002,-0.70806885,-0.234375,-0.375,0.15625,374
360,1696254983204,0.6047363,-0.190979,-0.7112427,-0.0625,-0.4375,0.015625,375
361,1696254983244,0.6044922,-0.19122314,-0.71417236,-0.140625,-0.140625,0.078125,376
362,1696254983284,0.60498047,-0.19561768,-0.7124634,-0.203125,-0.265625,-0.015625,377
363,1696254983324,0.60717773,-0.19268799,-0.71881104,-0.28125,-0.453125,0.09375,378
364,1696254983364,0.59887695,-0.1873169,-0.70880127,-0.34375,-0.296875,0.109375,379
365,1696254983404,0.5961914,-0.18682861,-0.70562744,-0.09375,-0.484375,0.015625,380
366,1696254983444,0.60302734,-0.19000244,-0.7136841,-0.125,-0.234375,0.015625,381
367,1696254983484,0.60058594,-0.19537354,-0.72003174,-0.140625,-0.4375,0.125,382
368,1696254983524,0.60302734,-0.19024658,-0.7073364,-0.09375,-0.25,0.109375,383
369,1696254983564,0.6022949,-0.18560791,-0.71173096,-0.25,-0.25,0.171875,384
370,1696254983604,0.6057129,-0.19317627,-0.71759033,-0.171875,-0.28125,0.140625,385
371,1696254983644,0.60009766,-0.19293213,-0.7085571,-0.265625,-0.53125,0.15625,386
372,1696254983684,0.5966797,-0.19244385,-0.7119751,-0.234375,-0.34375,0.21875,387
373,1696254983724,0.5986328,-0.190979,-0.7119751,-0.078125,-0.4375,0.0625,388
374,1696254983764,0.6035156,-0.19268799,-0.71881104,-0.140625,-0.59375,0.28125,389
375,1696254983804,0.6027832,-0.1885376,-0.7139282,0.015625,-0.34375,0.03125,390
376,1696254983844,0.5998535,-0.19293213,-0.7136841,-0.15625,-0.59375,0.046875,391
377,1696254983884,0.59814453,-0.19171143,-0.71661377,-0.03125,-0.5,0.109375,392
378,1696254983924,0.6008301,-0.19366455,-0.71343994,-0.078125,-0.546875,0.171875,393
379,1696254983964,0.59936523,-0.18878174,-0.71099854,-0.0625,-0.59375,0.40625,394
380,1696254984004,0.60791016,-0.18829346,-0.7161255,-0.03125,-0.453125,0.109375,395
381,1696254984044,0.59716797,-0.19122314,-0.7144165,-0.140625,-0.453125,0.375,396
382,1696254984084,0.6035156,-0.18267822,-0.70684814,0.140625,-0.6875,0.375,397
383,1696254984124,0.60717773,-0.190979,-0.70635986,0.046875,-0.46875,0.21875,398
384,1696254984164,0.6003418,-0.19195557,-0.71343994,0.125,-0.484375,0.375,399
385,1696254984204,0.6010742,-0.1885376,-0.7061157,0.078125,-0.625,0.203125,400
386,1696254984244,0.59765625,-0.19366455,-0.71221924,0.125,-0.546875,0.265625,401
387,1696254984284,0.6101074,-0.19390869,-0.70928955,0.046875,-0.40625,0.40625,402
388,1696254984324,0.6074219,-0.18609619,-0.7107544,0.140625,-0.578125,0.40625,403
389,1696254984364,0.6003418,-0.19049072,-0.7180786,0.0,-0.609375,0.203125,404
390,1696254984404,0.6015625,-0.1873169,-0.7144165,-0.0625,-0.46875,0.40625,405
391,1696254984444,0.6044922,-0.18609619,-0.7085571,0.125,-0.609375,0.359375,406
392,1696254984484,0.5983887,-0.19488525,-0.7058716,-0.0625,-0.453125,0.40625,407
393,1696254984524,0.6035156,-0.1921997,-0.71466064,-0.015625,-0.390625,0.15625,408
394,1696254984564,0.6027832,-0.19317627,-0.71173096,0.03125,-0.546875,0.203125,409
395,1696254984604,0.60546875,-0.18951416,-0.7144165,-0.078125,-0.46875,0.3125,410
396,1696254984644,0.6032715,-0.18829346,-0.7114868,-0.125,-0.59375,0.125,411
397,1696254984684,0.60180664,-0.18682861,-0.7161255,0.03125,-0.4375,0.171875,412
398,1696254984724,0.60498047,-0.18902588,-0.7090454,-0.015625,-0.609375,0.265625,413
399,1696254984764,0.6074219,-0.19390869,-0.7090454,0.0625,-0.5625,0.359375,414
400,1696254984804,0.60595703,-0.19024658,-0.70928955,-0.0625,-0.625,0.125,415
401,1696254984844,0.6032715,-0.19171143,-0.71295166,0.109375,-0.609375,0.140625,416
402,1696254984884,0.60375977,-0.18927002,-0.710022,0.015625,-0.390625,0.28125,417
403,1696254984924,0.6044922,-0.18804932,-0.71051025,0.03125,-0.609375,0.203125,418
404,1696254984964,0.6069336,-0.19000244,-0.7139282,-0.1875,-0.421875,0.125,419
405,1696254985004,0.6088867,-0.18511963,-0.70928955,-0.109375,-0.609375,0.265625,420
406,1696254985044,0.6035156,-0.18902588,-0.71173096,0.03125,-0.390625,0.203125,421
407,1696254985084,0.60913086,-0.19366455,-0.7095337,-0.078125,-0.65625,0.234375,422
408,1696254985124,0.60180664,-0.18902588,-0.7102661,-0.03125,-0.53125,0.296875,423
409,1696254985164,0.60546875,-0.1873169,-0.71417236,-0.078125,-0.640625,0.171875,424
410,1696254985204,0.6105957,-0.18634033,-0.7070923,-0.0625,-0.609375,0.28125,425
411,1696254985244,0.60913086,-0.1873169,-0.7156372,-0.140625,-0.46875,0.09375,426
412,1696254985284,0.60595703,-0.1885376,-0.70977783,0.0625,-0.421875,0.21875,427
413,1696254985324,0.61035156,-0.19464111,-0.7136841,0.03125,-0.625,0.328125,428
414,1696254985364,0.60424805,-0.19049072,-0.71539307,-0.078125,-0.40625,0.125,429
415,1696254985404,0.61035156,-0.18707275,-0.70806885,-0.140625,-0.515625,0.21875,430
416,1696254985444,0.60253906,-0.18951416,-0.7073364,-0.0625,-0.421875,0.140625,431
417,1696254985484,0.6027832,-0.18878174,-0.71099854,-0.109375,-0.578125,0.140625,432
418,1696254985524,0.60424805,-0.1885376,-0.7078247,0.03125,-0.59375,0.140625,433
419,1696254985564,0.60375977,-0.18756104,-0.71417236,0.046875,-0.421875,0.1875,434
420,1696254985604,0.60180664,-0.18951416,-0.708313,-0.1875,-0.359375,0.0625,435
421,1696254985644,0.60668945,-0.17974854,-0.7139282,-0.03125,-0.328125,0.171875,436
422,1696254985684,0.6074219,-0.18780518,-0.70977783,0.0,-0.375,0.109375,437
423,1696254985724,0.60424805,-0.18927002,-0.7085571,-0.046875,-0.484375,0.234375,438
424,1696254985764,0.60058594,-0.18756104,-0.7161255,-0.015625,-0.296875,0.015625,439
425,1696254985804,0.6062012,-0.19073486,-0.7070923,-0.140625,-0.421875,0.125,440
426,1696254985844,0.60791016,-0.18609619,-0.7144165,-0.015625,-0.328125,0.03125,441
427,1696254985884,0.60498047,-0.18658447,-0.71539307,-0.109375,-0.265625,0.0625,442
428,1696254985924,0.6069336,-0.19146729,-0.7168579,-0.140625,-0.03125,0.0625,443
429,1696254985964,0.60546875,-0.18804932,-0.7144165,-0.140625,-0.265625,0.09375,444
430,1696254986004,0.60131836,-0.18780518,-0.7124634,-0.1875,-0.359375,0.046875,445
431,1696254986044,0.6040039,-0.19293213,-0.7085571,-0.125,-0.328125,0.078125,446
432,1696254986084,0.60546875,-0.18536377,-0.7119751,-0.140625,-0.34375,0.21875,447
433,1696254986124,0.6008301,-0.19561768,-0.7107544,-0.09375,-0.265625,-0.171875,448
434,1696254986164,0.6032715,-0.19171143,-0.7124634,-0.078125,-0.21875,0.015625,449
435,1696254986204,0.6003418,-0.19708252,-0.7112427,-0.140625,-0.34375,0.09375,450
436,1696254986244,0.5957031,-0.18487549,-0.7151489,-0.09375,-0.359375,0.28125,451
437,1696254986284,0.59814453,-0.19268799,-0.7149048,-0.171875,-0.375,0.140625,452
438,1696254986324,0.60180664,-0.18878174,-0.7144165,-0.078125,-0.46875,0.15625,453
439,1696254986364,0.6020508,-0.18243408,-0.7119751,-0.109375,-0.5,0.015625,454
440,1696254986404,0.60375977,-0.19146729,-0.71221924,-0.21875,-0.46875,0.234375,455
441,1696254986444,0.6057129,-0.18267822,-0.71221924,-0.09375,-0.359375,0.1875,456
442,1696254986484,0.6047363,-0.18536377,-0.7139282,-0.09375,-0.203125,0.203125,457
443,1696254986524,0.59643555,-0.19268799,-0.7144165,-0.125,-0.296875,0.09375,458
444,1696254986564,0.5983887,-0.18511963,-0.7149048,-0.15625,-0.25,0.15625,459
445,1696254986604,0.60498047,-0.19439697,-0.7144165,-0.234375,-0.59375,0.203125,460
446,1696254986644,0.5983887,-0.18902588,-0.71051025,-0.1875,-0.40625,0.109375,461
447,1696254986684,0.5998535,-0.19195557,-0.7085571,-0.046875,-0.4375,0.0625,462
448,1696254986724,0.6022949,-0.19171143,-0.70977783,-0.1875,-0.421875,0.21875,463
449,1696254986764,0.607666,-0.18634033,-0.7107544,0.0,-0.4375,0.0625,464
450,1696254986804,0.6032715,-0.190979,-0.7119751,0.015625,-0.40625,0.234375,465
451,1696254986844,0.6022949,-0.19000244,-0.71221924,0.078125,-0.46875,0.140625,466
452,1696254986884,0.6020508,-0.19830322,-0.71661377,-0.171875,-0.578125,0.140625,467
453,1696254986924,0.60058594,-0.19293213,-0.71099854,-0.125,-0.53125,0.234375,468
454,1696254986964,0.60498047,-0.19244385,-0.71343994,-0.046875,-0.328125,0.34375,469
455,1696254987004,0.6022949,-0.19464111,-0.7151489,0.109375,-0.625,0.171875,470
456,1696254987044,0.60058594,-0.18927002,-0.7173462,0.0,-0.546875,0.28125,471
457,1696254987084,0.60424805,-0.18658447,-0.710022,0.046875,-0.390625,0.296875,472
458,1696254987124,0.60180664,-0.19683838,-0.7149048,-0.140625,-0.6875,0.28125,473
459,1696254987164,0.6015625,-0.1963501,-0.7144165,-0.078125,-0.5,0.21875,474
460,1696254987204,0.5996094,-0.18658447,-0.71173096,-0.234375,-0.5625,0.203125,475
461,1696254987244,0.5991211,-0.18389893,-0.7127075,0.0,-0.703125,0.171875,476
462,1696254987284,0.6074219,-0.19268799,-0.7136841,0.015625,-0.484375,0.28125,477
463,1696254987324,0.611084,-0.18658447,-0.71295166,0.078125,-0.515625,0.25,478
464,1696254987364,0.6032715,-0.18511963,-0.7114868,-0.03125,-0.578125,0.328125,479
465,1696254987404,0.6047363,-0.19000244,-0.7112427,-0.078125,-0.515625,0.375,480
466,1696254987444,0.60302734,-0.19317627,-0.7144165,0.015625,-0.546875,0.453125,481
467,1696254987484,0.6069336,-0.19073486,-0.7139282,0.09375,-0.453125,0.25,482
468,1696254987524,0.6044922,-0.19049072,-0.7173462,-0.359375,-0.515625,0.28125,483
469,1696254987564,0.6081543,-0.19195557,-0.7124634,-0.171875,-0.6875,0.34375,484
470,1696254987604,0.60717773,-0.19146729,-0.71221924,-0.015625,-0.453125,0.25,485
471,1696254987644,0.6074219,-0.19537354,-0.7173462,-0.03125,-0.28125,0.3125,486
472,1696254987684,0.6062012,-0.1975708,-0.7119751,0.03125,-0.609375,0.3125,487
473,1696254987724,0.6044922,-0.18658447,-0.7139282,-0.109375,-0.4375,0.15625,488
474,1696254987764,0.6047363,-0.18243408,-0.70928955,0.0625,-0.453125,0.15625,489
475,1696254987804,0.60424805,-0.1885376,-0.70758057,-0.1875,-0.53125,0.265625,490
476,1696254987844,0.59765625,-0.19049072,-0.704895,-0.078125,-0.59375,0.171875,491
477,1696254987884,0.6064453,-0.19244385,-0.70880127,0.0,-0.453125,0.21875,492
478,1696254987924,0.6069336,-0.19000244,-0.70928955,-0.125,-0.46875,0.1875,493
479,1696254987964,0.6101074,-0.18463135,-0.7112427,-0.09375,-0.375,0.234375,494
480,1696254988004,0.60180664,-0.1897583,-0.7053833,-0.046875,-0.421875,0.125,495
481,1696254988044,0.6040039,-0.18634033,-0.7085571,-0.125,-0.421875,0.203125,496
482,1696254988084,0.6118164,-0.18756104,-0.7136841,0.0625,-0.640625,0.265625,497
483,1696254988124,0.6003418,-0.1897583,-0.71295166,-0.09375,-0.5,0.203125,498
484,1696254988164,0.609375,-0.19439697,-0.7078247,0.09375,-0.46875,0.4375,499
485,1696254988204,0.6015625,-0.18389893,-0.71173096,-0.125,-0.5,0.265625,500
486,1696254988244,0.6022949,-0.18365479,-0.7029419,0.015625,-0.46875,0.171875,501
487,1696254988284,0.5996094,-0.19683838,-0.7119751,0.09375,-0.328125,0.34375,502
488,1696254988324,0.60375977,-0.1897583,-0.7029419,0.09375,-0.578125,0.125,503
489,1696254988364,0.61206055,-0.19390869,-0.7090454,0.015625,-0.53125,0.296875,504
490,1696254988404,0.607666,-0.1885376,-0.7163696,-0.21875,-0.4375,0.140625,505
491,1696254988444,0.60375977,-0.19415283,-0.7070923,-0.015625,-0.4375,0.203125,506
492,1696254988484,0.60546875,-0.18780518,-0.70806885,-0.0625,-0.34375,0.125,507
493,1696254988524,0.6105957,-0.19000244,-0.7136841,-0.203125,-0.28125,0.109375,508
494,1696254988564,0.60595703,-0.1921997,-0.7127075,-0.140625,-0.453125,0.015625,509
495,1696254988604,0.60424805,-0.1897583,-0.70684814,-0.03125,-0.3125,0.234375,510
496,1696254988644,0.609375,-0.18634033,-0.7178345,-0.078125,-0.203125,0.171875,511
497,1696254988684,0.60375977,-0.18560791,-0.7124634,0.0,-0.4375,0.171875,512
498,1696254988724,0.60668945,-0.18902588,-0.7095337,0.0,-0.359375,0.0625,513
499,1696254988764,0.6032715,-0.19268799,-0.7102661,0.09375,-0.34375,0.15625,514
500,1696254988804,0.60546875,-0.18658447,-0.704895,-0.078125,-0.34375,0.171875,515
501,1696254988844,0.60498047,-0.18780518,-0.70562744,-0.078125,-0.34375,0.171875,516
502,1696254988884,0.6057129,-0.1921997,-0.7102661,-0.109375,-0.203125,0.078125,517
503,1696254988924,0.607666,-0.18634033,-0.71417236,-0.09375,-0.25,0.109375,518
504,1696254988964,0.5998535,-0.18829346,-0.70977783,-0.078125,-0.328125,0.125,519
505,1696254989004,0.6027832,-0.1897583,-0.71417236,0.0,-0.3125,0.28125,520
506,1696254989044,0.6032715,-0.19342041,-0.71343994,0.046875,-0.3125,0.171875,521
507,1696254989084,0.6015625,-0.19049072,-0.71466064,-0.125,-0.328125,0.171875,522
508,1696254989124,0.60791016,-0.1885376,-0.7095337,-0.046875,-0.28125,0.078125,523
509,1696254989164,0.60375977,-0.18951416,-0.70928955,0.0625,-0.515625,0.109375,524
510,1696254989204,0.6020508,-0.18878174,-0.7168579,0.015625,-0.546875,0.125,525
511,1696254989244,0.6003418,-0.19317627,-0.70684814,-0.234375,-0.53125,0.25,526
512,1696254989284,0.6027832,-0.19439697,-0.7107544,-0.0625,-0.296875,0.015625,527
513,1696254989324,0.60595703,-0.19073486,-0.71466064,0.0,-0.203125,0.046875,528
514,1696254989364,0.6047363,-0.18756104,-0.7139282,0.03125,-0.375,0.046875,529
515,1696254989404,0.6020508,-0.19317627,-0.7180786,-0.078125,-0.203125,0.203125,530
516,1696254989444,0.60058594,-0.18634033,-0.7095337,-0.015625,-0.1875,0.015625,531
517,1696254989484,0.59936523,-0.18365479,-0.7124634,-0.09375,-0.34375,0.125,532
518,1696254989524,0.5942383,-0.19171143,-0.71051025,-0.140625,-0.3125,0.015625,533
519,1696254989564,0.60498047,-0.18927002,-0.71710205,-0.25,-0.265625,0.046875,534
520,1696254989604,0.5998535,-0.1885376,-0.7127075,-0.140625,-0.65625,0.046875,535
521,1696254989644,0.6040039,-0.19171143,-0.7144165,0.09375,-0.34375,-0.015625,536
522,1696254989684,0.60791016,-0.18804932,-0.7192993,-0.109375,-0.546875,0.140625,537
523,1696254989724,0.6027832,-0.1921997,-0.7185669,-0.328125,-0.234375,0.125,538
524,1696254989764,0.60375977,-0.19171143,-0.71221924,-0.140625,-0.3125,0.140625,539
525,1696254989804,0.5932617,-0.19244385,-0.7114868,-0.21875,-0.40625,0.046875,540
526,1696254989844,0.6020508,-0.18511963,-0.7131958,-0.25,-0.53125,0.109375,541
527,1696254989884,0.60180664,-0.18829346,-0.71173096,-0.15625,-0.46875,0.109375,542
528,1696254989924,0.5996094,-0.1885376,-0.71466064,-0.09375,-0.15625,0.03125,543
529,1696254989964,0.5998535,-0.19390869,-0.7173462,-0.015625,-0.375,0.140625,544
530,1696254990004,0.59887695,-0.19171143,-0.7197876,-0.28125,-0.484375,0.140625,545
531,1696254990044,0.5996094,-0.18585205,-0.7156372,-0.171875,-0.421875,0.171875,546
532,1696254990084,0.59350586,-0.18634033,-0.7112427,-0.21875,-0.4375,0.28125,547
533,1696254990124,0.60131836,-0.19073486,-0.71759033,-0.15625,-0.421875,0.125,548
534,1696254990164,0.6020508,-0.18804932,-0.71221924,0.0625,-0.40625,0.15625,549
535,1696254990204,0.5983887,-0.1921997,-0.71539307,0.015625,-0.484375,0.21875,550
536,1696254990244,0.60009766,-0.19049072,-0.71588135,-0.03125,-0.5,0.125,551
537,1696254990284,0.6027832,-0.1987915,-0.7139282,-0.078125,-0.484375,0.21875,552
538,1696254990324,0.6062012,-0.19000244,-0.71466064,0.0,-0.640625,0.25,553
539,1696254990364,0.60546875,-0.18756104,-0.710022,-0.09375,-0.375,0.1875,554
540,1696254990404,0.5998535,-0.190979,-0.7124634,0.125,-0.515625,0.25,555
541,1696254990444,0.6047363,-0.18804932,-0.7139282,0.15625,-0.6875,0.171875,556
542,1696254990484,0.60302734,-0.19024658,-0.71099854,0.1875,-0.4375,0.234375,557
543,1696254990524,0.60668945,-0.19317627,-0.71417236,-0.015625,-0.625,0.375,558
544,1696254990564,0.6062012,-0.18878174,-0.7127075,0.0625,-0.671875,0.296875,559
545,1696254990604,0.6020508,-0.18951416,-0.7107544,-0.03125,-0.765625,0.140625,560
546,1696254990644,0.6032715,-0.18780518,-0.71099854,-0.15625,-0.828125,0.34375,561
547,1696254990684,0.60253906,-0.19073486,-0.70977783,0.078125,-0.59375,0.203125,562
548,1696254990724,0.60009766,-0.18902588,-0.7090454,0.0625,-0.75,0.328125,563
549,1696254990764,0.6032715,-0.1921997,-0.71661377,-0.234375,-0.578125,0.265625,564
550,1696254990804,0.6057129,-0.1885376,-0.7102661,-0.078125,-0.5,0.421875,565
551,1696254990844,0.6057129,-0.1873169,-0.7136841,-0.28125,-0.53125,0.21875,566
552,1696254990884,0.6057129,-0.19366455,-0.7085571,-0.21875,-0.484375,0.09375,567
553,1696254990924,0.59936523,-0.18609619,-0.7149048,-0.09375,-0.625,0.15625,568
554,1696254990964,0.60058594,-0.19024658,-0.7161255,-0.046875,-0.515625,0.234375,569
555,1696254991004,0.60668945,-0.19122314,-0.71343994,-0.046875,-0.59375,0.265625,570
556,1696254991044,0.6064453,-0.1951294,-0.7161255,-0.1875,-0.59375,0.265625,571
557,1696254991084,0.60791016,-0.18536377,-0.7190552,-0.0625,-0.453125,0.21875,572
558,1696254991124,0.6062012,-0.18414307,-0.7151489,0.09375,-0.46875,0.15625,573
559,1696254991164,0.60424805,-0.1885376,-0.7102661,0.046875,-0.578125,0.25,574
560,1696254991204,0.6069336,-0.1885376,-0.70977783,-0.09375,-0.515625,0.109375,575
561,1696254991244,0.6047363,-0.19244385,-0.71417236,-0.140625,-0.65625,0.421875,576
562,1696254991284,0.60302734,-0.18756104,-0.7078247,-0.046875,-0.5,0.21875,577
563,1696254991324,0.6040039,-0.1951294,-0.7139282,-0.0625,-0.5,0.140625,578
564,1696254991364,0.6022949,-0.19659424,-0.7107544,-0.1875,-0.625,0.15625,579
565,1696254991404,0.6047363,-0.19171143,-0.70635986,-0.0625,-0.578125,0.234375,580
566,1696254991444,0.60595703,-0.19342041,-0.70269775,-0.015625,-0.546875,0.296875,581
567,1696254991484,0.6032715,-0.18707275,-0.706604,-0.046875,-0.671875,0.140625,582
568,1696254991524,0.61279297,-0.19073486,-0.7173462,0.03125,-0.421875,0.328125,583
569,1696254991564,0.60595703,-0.19171143,-0.70977783,0.0,-0.46875,0.25,584
570,1696254991604,0.61035156,-0.18707275,-0.7127075,-0.109375,-0.265625,0.078125,585
571,1696254991644,0.60302734,-0.1885376,-0.7124634,-0.078125,-0.546875,0.140625,586
572,1696254991684,0.60595703,-0.190979,-0.71295166,-0.125,-0.515625,0.125,587
573,1696254991724,0.60375977,-0.19195557,-0.708313,-0.046875,-0.34375,0.09375,588
574,1696254991764,0.6044922,-0.19049072,-0.70758057,-0.046875,-0.46875,0.265625,589
575,1696254991804,0.61499023,-0.18414307,-0.71588135,-0.09375,-0.46875,0.15625,590
576,1696254991844,0.6027832,-0.18756104,-0.70928955,-0.09375,-0.546875,0.171875,591
577,1696254991884,0.6130371,-0.19146729,-0.7107544,-0.28125,-0.46875,0.140625,592
578,1696254991924,0.61083984,-0.18829346,-0.708313,-0.046875,-0.59375,0.171875,593
579,1696254991964,0.6098633,-0.18218994,-0.7151489,0.078125,-0.390625,0.171875,594
580,1696254992004,0.60546875,-0.18951416,-0.7131958,0.03125,-0.296875,0.015625,595
581,1696254992044,0.60717773,-0.1843872,-0.70684814,-0.046875,-0.25,0.078125,596
582,1696254992084,0.59936523,-0.18511963,-0.7124634,-0.125,-0.40625,0.15625,597
583,1696254992124,0.60791016,-0.18682861,-0.708313,-0.109375,-0.5625,0.21875,598
584,1696254992164,0.6086426,-0.18829346,-0.7124634,0.0,-0.578125,0.203125,599
585,1696254992204,0.61035156,-0.19293213,-0.71051025,0.03125,-0.34375,0.15625,600
586,1696254992244,0.6047363,-0.18756104,-0.7151489,-0.03125,-0.453125,0.09375,601
587,1696254992284,0.60546875,-0.18927002,-0.7161255,0.0,-0.4375,0.34375,602
588,1696254992324,0.6088867,-0.19000244,-0.7144165,-0.046875,-0.46875,0.328125,603
589,1696254992364,0.60302734,-0.1885376,-0.7058716,-0.3125,-0.296875,0.046875,604
590,1696254992404,0.6008301,-0.19366455,-0.7102661,-0.015625,-0.4375,0.171875,605
591,1696254992444,0.61035156,-0.19049072,-0.7151489,0.015625,-0.375,0.109375,606
592,1696254992484,0.6101074,-0.18927002,-0.7151489,0.0,-0.125,0.203125,607
593,1696254992524,0.60253906,-0.18658447,-0.7085571,-0.0625,-0.40625,0.0625,608
594,1696254992564,0.6062012,-0.19390869,-0.7178345,-0.046875,-0.265625,0.09375,609
595,1696254992604,0.60498047,-0.19000244,-0.70977783,-0.03125,-0.28125,0.046875,610
596,1696254992644,0.6008301,-0.18927002,-0.7163696,-0.03125,-0.203125,0.109375,611
597,1696254992684,0.6027832,-0.19415283,-0.7114868,-0.09375,-0.34375,0.234375,612
598,1696254992724,0.6020508,-0.19049072,-0.7119751,-0.015625,-0.484375,0.140625,613
599,1696254992764,0.6052246,-0.18609619,-0.7139282,0.015625,-0.171875,0.15625,614
600,1696254992804,0.5996094,-0.1897583,-0.71661377,-0.046875,-0.15625,0.046875,615
601,1696254992844,0.59765625,-0.19293213,-0.7131958,-0.21875,-0.28125,0.125,616
602,1696254992884,0.5996094,-0.18902588,-0.7070923,-0.171875,-0.28125,0.03125,617
603,1696254992924,0.6052246,-0.18658447,-0.7090454,-0.296875,-0.390625,-0.015625,618
604,1696254992964,0.6010742,-0.19488525,-0.7107544,-0.1875,-0.421875,0.109375,619
605,1696254993004,0.6010742,-0.19049072,-0.70758057,-0.109375,-0.34375,0.109375,620
606,1696254993044,0.5986328,-0.19122314,-0.7112427,-0.078125,-0.234375,0.171875,621
607,1696254993084,0.6022949,-0.18707275,-0.7156372,-0.03125,-0.421875,0.0625,622
608,1696254993124,0.60302734,-0.18829346,-0.71173096,-0.203125,-0.234375,0.125,623
609,1696254993164,0.6010742,-0.19049072,-0.71588135,-0.21875,-0.171875,0.140625,624
610,1696254993204,0.6035156,-0.18609619,-0.71099854,-0.140625,-0.265625,0.015625,625
611,1696254993244,0.6020508,-0.18658447,-0.7136841,-0.09375,-0.296875,0.078125,626
612,1696254993284,0.6074219,-0.1885376,-0.71099854,0.015625,-0.25,0.03125,627
613,1696254993324,0.6015625,-0.19024658,-0.7156372,-0.0625,-0.421875,0.125,628
614,1696254993364,0.6020508,-0.19293213,-0.7136841,-0.203125,-0.21875,0.125,629
615,1696254993404,0.6044922,-0.18585205,-0.71173096,-0.21875,-0.328125,-0.109375,630
616,1696254993444,0.6064453,-0.19732666,-0.7139282,-0.546875,-0.328125,-0.1875,631
617,1696254993484,0.60131836,-0.19805908,-0.71343994,-0.078125,-0.390625,0.15625,632
618,1696254993524,0.5974121,-0.19293213,-0.7114868,-0.125,-0.59375,0.078125,633
619,1696254993564,0.59643555,-0.19049072,-0.70806885,-0.1875,-0.5,0.09375,634
620,1696254993604,0.60180664,-0.18756104,-0.7131958,-0.015625,-0.5,0.234375,635
621,1696254993644,0.59814453,-0.18878174,-0.71539307,0.0625,-0.203125,0.125,636
622,1696254993684,0.5983887,-0.19146729,-0.7095337,-0.0625,-0.65625,0.234375,637
623,1696254993724,0.60498047,-0.1885376,-0.7178345,-0.0625,-0.6875,0.21875,638
624,1696254993764,0.5974121,-0.18902588,-0.710022,-0.046875,-0.375,0.15625,639
625,1696254993804,0.6027832,-0.190979,-0.72052,-0.078125,-0.40625,0.09375,640
626,1696254993844,0.60253906,-0.190979,-0.7149048,0.015625,-0.546875,0.34375,641
627,1696254993884,0.6027832,-0.1963501,-0.7149048,0.0,-0.6875,0.265625,642
628,1696254993924,0.5974121,-0.19268799,-0.7119751,0.0,-0.53125,0.125,643
629,1696254993964,0.59594727,-0.19293213,-0.7102661,-0.0625,-0.4375,0.171875,644
630,1696254994004,0.60253906,-0.19073486,-0.7139282,-0.15625,-0.640625,0.234375,645
631,1696254994044,0.60058594,-0.18756104,-0.7168579,0.09375,-0.515625,0.421875,646
632,1696254994084,0.60253906,-0.18682861,-0.7090454,-0.03125,-0.40625,0.359375,647
633,1696254994124,0.60595703,-0.18707275,-0.7156372,0.0625,-0.640625,0.15625,648
634,1696254994164,0.59814453,-0.19024658,-0.71099854,-0.109375,-0.484375,0.203125,649
635,1696254994204,0.59765625,-0.19073486,-0.7127075,-0.09375,-0.828125,0.3125,650
636,1696254994244,0.59643555,-0.18829346,-0.7107544,-0.203125,-0.53125,0.28125,651
637,1696254994284,0.6040039,-0.19586182,-0.7144165,-0.046875,-0.578125,0.203125,652
638,1696254994324,0.60498047,-0.19171143,-0.71099854,-0.09375,-0.671875,0.328125,653
639,1696254994364,0.60595703,-0.18804932,-0.7151489,0.109375,-0.453125,0.28125,654
640,1696254994404,0.6040039,-0.18682861,-0.71661377,-0.078125,-0.53125,0.3125,655
641,1696254994444,0.6003418,-0.19293213,-0.7114868,-0.09375,-0.40625,0.265625,656
642,1696254994484,0.5991211,-0.19024658,-0.70880127,0.0,-0.53125,0.359375,657
643,1696254994524,0.6052246,-0.1897583,-0.7124634,-0.125,-0.515625,0.390625,658
644,1696254994564,0.60595703,-0.19049072,-0.7085571,-0.03125,-0.390625,0.140625,659
645,1696254994604,0.6057129,-0.18756104,-0.7131958,-0.203125,-0.46875,0.171875,660
646,1696254994644,0.5969238,-0.18682861,-0.71173096,-0.09375,-0.53125,0.234375,661
647,1696254994684,0.609375,-0.1885376,-0.7061157,0.0,-0.625,0.265625,662
648,1696254994724,0.6062012,-0.18609619,-0.7168579,-0.171875,-0.5,0.234375,663
649,1696254994764,0.6010742,-0.18927002,-0.70977783,-0.125,-0.609375,0.171875,664
650,1696254994804,0.6064453,-0.19122314,-0.7102661,0.125,-0.53125,0.234375,665
651,1696254994844,0.6047363,-0.18829346,-0.7190552,-0.09375,-0.4375,0.265625,666
652,1696254994884,0.60009766,-0.18560791,-0.70928955,-0.046875,-0.546875,0.140625,667
653,1696254994924,0.5991211,-0.18682861,-0.71051025,-0.03125,-0.4375,0.375,668
654,1696254994964,0.607666,-0.18756104,-0.7070923,-0.046875,-0.640625,0.203125,669
655,1696254995004,0.6027832,-0.18634033,-0.7124634,-0.25,-0.59375,0.375,670
656,1696254995044,0.607666,-0.18951416,-0.7114868,-0.34375,-0.484375,0.265625,671
657,1696254995084,0.5998535,-0.18609619,-0.70880127,-0.0625,-0.5625,0.46875,672
658,1696254995124,0.6052246,-0.19122314,-0.71221924,0.015625,-0.59375,0.125,673
659,1696254995164,0.60498047,-0.18829346,-0.7114868,-0.03125,-0.484375,0.1875,674
660,1696254995204,0.60302734,-0.190979,-0.7163696,-0.078125,-0.328125,0.171875,675
661,1696254995244,0.6008301,-0.18829346,-0.7124634,-0.09375,-0.15625,0.140625,676
662,1696254995284,0.60424805,-0.19073486,-0.71417236,-0.1875,-0.46875,0.15625,677
663,1696254995324,0.60913086,-0.19049072,-0.7139282,-0.046875,-0.328125,0.140625,678
664,1696254995364,0.60498047,-0.19122314,-0.7136841,-0.125,-0.375,0.1875,679
665,1696254995404,0.60180664,-0.18878174,-0.71221924,-0.171875,-0.375,0.0625,680
666,1696254995444,0.6022949,-0.19537354,-0.7144165,0.015625,-0.109375,0.140625,681
667,1696254995484,0.60498047,-0.18463135,-0.71343994,-0.171875,-0.3125,0.265625,682
668,1696254995524,0.60668945,-0.18585205,-0.71099854,0.015625,-0.375,0.046875,683
669,1696254995564,0.6040039,-0.18878174,-0.71539307,-0.046875,-0.359375,0.078125,684
670,1696254995604,0.5983887,-0.19024658,-0.7173462,-0.265625,-0.3125,0.1875,685
671,1696254995644,0.6032715,-0.18951416,-0.7107544,-0.0625,-0.4375,0.21875,686
672,1696254995684,0.60009766,-0.18658447,-0.7136841,-0.09375,-0.28125,0.21875,687
673,1696254995724,0.60253906,-0.1831665,-0.71588135,-0.1875,-0.125,0.25,688
674,1696254995764,0.60180664,-0.19049072,-0.7124634,-0.046875,-0.390625,0.125,689
675,1696254995804,0.6008301,-0.19366455,-0.71417236,-0.21875,-0.390625,0.15625,690
676,1696254995844,0.60180664,-0.18145752,-0.70635986,-0.09375,-0.40625,0.1875,691
677,1696254995884,0.609375,-0.19244385,-0.7185669,-0.15625,-0.328125,0.140625,692
678,1696254995924,0.5996094,-0.18951416,-0.71099854,-0.03125,-0.21875,0.125,693
679,1696254995964,0.60595703,-0.19244385,-0.7095337,-0.09375,-0.453125,0.078125,694
680,1696254996004,0.60595703,-0.18341064,-0.7136841,0.046875,-0.28125,0.125,695
681,1696254996044,0.6040039,-0.190979,-0.71539307,-0.21875,-0.125,0.09375,696
682,1696254996084,0.60009766,-0.18951416,-0.71099854,-0.171875,-0.1875,0.203125,697
683,1696254996124,0.5974121,-0.18267822,-0.7139282,-0.34375,-0.390625,0.125,698
684,1696254996164,0.6008301,-0.18951416,-0.7102661,-0.3125,-0.1875,0.015625,699
685,1696254996204,0.5983887,-0.19049072,-0.7112427,-0.28125,-0.328125,0.234375,700
686,1696254996244,0.59814453,-0.18951416,-0.71661377,0.09375,-0.171875,0.046875,701
687,1696254996284,0.5996094,-0.19415283,-0.71710205,-0.265625,-0.28125,0.109375,702
688,1696254996324,0.60058594,-0.19073486,-0.7073364,-0.1875,-0.53125,-0.046875,703
689,1696254996364,0.60498047,-0.19122314,-0.71539307,-0.34375,-0.578125,0.0625,704
690,1696254996404,0.5974121,-0.190979,-0.70977783,-0.140625,-0.46875,0.125,705
691,1696254996444,0.60424805,-0.18804932,-0.70928955,-0.046875,-0.5625,0.15625,706
692,1696254996484,0.60180664,-0.19073486,-0.71173096,-0.1875,-0.453125,0.046875,707
693,1696254996524,0.59936523,-0.1963501,-0.7161255,-0.234375,-0.328125,0.171875,708
694,1696254996564,0.5996094,-0.19317627,-0.7163696,-0.171875,-0.296875,0.015625,709
695,1696254996604,0.6064453,-0.1963501,-0.71343994,-0.078125,-0.484375,0.0625,710
696,1696254996644,0.5991211,-0.19049072,-0.71343994,0.015625,-0.484375,0.0625,711
697,1696254996684,0.59936523,-0.19537354,-0.7156372,0.03125,-0.484375,0.0625,712
698,1696254996724,0.5986328,-0.19268799,-0.7102661,0.015625,-0.71875,0.28125,713
699,1696254996764,0.6057129,-0.19171143,-0.7161255,0.078125,-0.546875,0.234375,714
700,1696254996804,0.59765625,-0.19390869,-0.72076416,0.03125,-0.546875,0.28125,715
701,1696254996844,0.59936523,-0.19293213,-0.71295166,0.03125,-0.40625,0.171875,716
702,1696254996884,0.59936523,-0.19268799,-0.7156372,0.140625,-0.484375,0.328125,717
703,1696254996924,0.6022949,-0.19244385,-0.71588135,-0.1875,-0.6875,0.328125,718
704,1696254996964,0.60546875,-0.18707275,-0.7197876,0.0,-0.8125,0.234375,719
705,1696254997004,0.59643555,-0.19146729,-0.7178345,0.0625,-0.625,0.34375,720
706,1696254997044,0.60498047,-0.18536377,-0.71417236,-0.03125,-0.578125,0.203125,721
707,1696254997084,0.6032715,-0.18927002,-0.72052,-0.03125,-0.40625,0.265625,722
708,1696254997124,0.6010742,-0.19122314,-0.71759033,-0.03125,-0.5625,0.140625,723
709,1696254997164,0.6020508,-0.19049072,-0.7127075,0.171875,-0.796875,0.34375,724
710,1696254997204,0.5925293,-0.18878174,-0.71539307,0.0625,-0.65625,0.15625,725
711,1696254997244,0.59228516,-0.18951416,-0.7127075,0.0,-0.796875,0.21875,726
712,1696254997284,0.6032715,-0.19268799,-0.7149048,-0.015625,-0.578125,0.15625,727
713,1696254997324,0.60253906,-0.19390869,-0.7112427,0.03125,-0.421875,0.203125,728
714,1696254997364,0.6020508,-0.18804932,-0.71539307,-0.234375,-0.53125,0.15625,729
715,1696254997404,0.60302734,-0.1885376,-0.7136841,0.03125,-0.65625,0.265625,730
716,1696254997444,0.6074219,-0.1897583,-0.7144165,-0.171875,-0.3125,0.296875,731
717,1696254997484,0.59936523,-0.19537354,-0.7119751,-0.0625,-0.75,0.234375,732
718,1696254997524,0.60717773,-0.1921997,-0.7136841,-0.109375,-0.484375,0.1875,733
719,1696254997564,0.60302734,-0.18927002,-0.71051025,-0.078125,-0.6875,0.140625,734
720,1696254997604,0.60717773,-0.18536377,-0.71466064,0.046875,-0.640625,0.34375,735
721,1696254997644,0.60131836,-0.19244385,-0.7124634,-0.078125,-0.65625,0.140625,736
722,1696254997684,0.6022949,-0.19415283,-0.7127075,-0.046875,-0.6875,0.140625,737
723,1696254997724,0.60668945,-0.19024658,-0.71539307,-0.046875,-0.296875,0.21875,738
724,1696254997764,0.6064453,-0.19195557,-0.71295166,-0.140625,-0.484375,0.171875,739
725,1696254997804,0.6044922,-0.19171143,-0.71051025,-0.078125,-0.5,0.109375,740
726,1696254997844,0.6062012,-0.1885376,-0.7127075,-0.09375,-0.65625,0.28125,741
727,1696254997884,0.60546875,-0.18878174,-0.7149048,0.0625,-0.328125,0.3125,742
728,1696254997924,0.6010742,-0.19537354,-0.7127075,0.078125,-0.53125,0.28125,743
729,1696254997964,0.60302734,-0.18756104,-0.71588135,-0.046875,-0.609375,0.1875,744
730,1696254998004,0.6032715,-0.18389893,-0.71539307,0.109375,-0.46875,0.234375,745
731,1696254998044,0.6035156,-0.1873169,-0.7136841,-0.3125,-0.40625,0.234375,746
732,1696254998084,0.60302734,-0.19049072,-0.7095337,-0.125,-0.78125,0.203125,747
733,1696254998124,0.6040039,-0.18951416,-0.7144165,-0.015625,-0.53125,0.171875,748
734,1696254998164,0.6081543,-0.18927002,-0.71710205,0.046875,-0.375,0.25,749
735,1696254998204,0.6064453,-0.190979,-0.7095337,-0.03125,-0.53125,0.359375,750
736,1696254998244,0.6015625,-0.18707275,-0.7163696,0.0,-0.4375,0.140625,751
737,1696254998284,0.60595703,-0.18878174,-0.71099854,-0.1875,-0.453125,0.171875,752
738,1696254998324,0.6069336,-0.18487549,-0.71099854,-0.125,-0.546875,0.390625,753
739,1696254998364,0.6022949,-0.18804932,-0.7058716,-0.140625,-0.453125,0.296875,754
740,1696254998404,0.60791016,-0.18829346,-0.71295166,0.09375,-0.46875,0.265625,755
741,1696254998444,0.6086426,-0.18756104,-0.710022,-0.09375,-0.28125,0.171875,756
742,1696254998484,0.6074219,-0.19024658,-0.7119751,-0.125,-0.34375,0.1875,757
743,1696254998524,0.5949707,-0.19049072,-0.7124634,-0.109375,-0.21875,0.171875,758
744,1696254998564,0.6044922,-0.19171143,-0.7131958,-0.0625,-0.328125,0.203125,759
745,1696254998604,0.6040039,-0.18292236,-0.70928955,-0.109375,-0.359375,0.125,760
746,1696254998644,0.6040039,-0.1897583,-0.7156372,-0.09375,-0.390625,-0.046875,761
747,1696254998684,0.60180664,-0.18658447,-0.7197876,0.015625,-0.296875,0.21875,762
748,1696254998724,0.60791016,-0.18780518,-0.71099854,0.046875,-0.34375,0.15625,763
749,1696254998764,0.60546875,-0.19122314,-0.7192993,-0.109375,-0.3125,0.046875,764
750,1696254998804,0.6074219,-0.18560791,-0.7090454,-0.0625,-0.296875,0.125,765
751,1696254998844,0.6052246,-0.190979,-0.71173096,-0.140625,-0.3125,0.03125,766
752,1696254998884,0.6040039,-0.18878174,-0.71099854,-0.078125,-0.296875,0.046875,767
753,1696254998924,0.6008301,-0.19268799,-0.71661377,-0.078125,-0.40625,0.1875,768
754,1696254998964,0.6015625,-0.19903564,-0.7163696,-0.078125,-0.203125,-0.015625,769
755,1696254999004,0.60058594,-0.18756104,-0.7192993,-0.15625,-0.109375,0.21875,770
756,1696254999044,0.5991211,-0.1843872,-0.7156372,-0.15625,-0.265625,0.0625,771
757,1696254999084,0.60375977,-0.18878174,-0.7131958,-0.078125,-0.359375,0.078125,772
758,1696254999124,0.5998535,-0.19317627,-0.70977783,-0.171875,-0.375,0.109375,773
759,1696254999164,0.6101074,-0.19268799,-0.7127075,-0.15625,-0.328125,0.0625,774
