# Sensor type: Respeck
# Activity type: Standing
# Activity subtype: Talking
# Subject id: s2106809
# Notes: unprocessed
timestamp,accel_x,accel_y,accel_z,gyro_x,gyro_y,gyro_z
1696251436289,0.006591797,-0.9734497,0.13763428,-3.171875,-2.953125,0.484375
1696251436328,-0.020263672,-0.99053955,0.14837646,-2.71875,-3.359375,1.6875
1696251436370,-0.033935547,-1.0093384,0.16644287,-2.0,-2.984375,0.578125
1696251436429,-0.040527344,-0.9746704,0.1593628,-2.953125,-1.984375,-0.265625
1696251436449,-0.053710938,-0.98516846,0.1671753,-3.15625,0.546875,1.078125
1696251436490,-0.022949219,-0.9824829,0.20013428,-7.34375,3.546875,1.15625
1696251436531,0.0056152344,-0.97613525,0.2074585,-12.5625,3.171875,-0.21875
1696251436570,-0.0068359375,-0.97662354,0.19769287,-6.640625,-0.828125,-0.234375
1696251436610,-0.041748047,-0.9846802,0.19281006,-3.703125,-2.921875,2.15625
1696251436650,-0.032470703,-0.9734497,0.19622803,0.0,-0.734375,2.15625
1696251436710,-0.023925781,-0.97906494,0.20819092,3.625,1.609375,2.46875
1696251436713,-0.0078125,-0.9907837,0.1774292,8.84375,3.375,2.40625
1696251436749,0.020263672,-0.9663696,0.17962646,9.8125,5.390625,0.828125
1696251436789,0.04272461,-0.94073486,0.19622803,3.375,-0.390625,0.484375
1696251436831,0.030029297,-0.96661377,0.15838623,0.765625,-3.015625,0.765625
1696251436871,-0.03149414,-1.0081177,0.14105225,3.15625,-2.203125,0.21875
1696251436910,-0.037597656,-0.9834595,0.15887451,1.625,-1.53125,-0.21875
1696251436950,-0.0021972656,-0.9788208,0.15008545,1.25,1.15625,-0.515625
1696251436992,0.024414062,-0.96099854,0.15032959,-0.015625,0.890625,-0.0625
1696251437031,0.033935547,-0.96661377,0.16229248,2.953125,-1.984375,-0.9375
1696251437071,-0.0068359375,-0.9795532,0.14691162,4.0625,-5.734375,-1.40625
1696251437111,-0.032470703,-1.0003052,0.14715576,2.703125,-5.609375,-0.109375
1696251437150,-0.0029296875,-0.9956665,0.15789795,1.671875,-2.75,0.078125
1696251437191,0.017822266,-0.98394775,0.14202881,0.921875,-3.453125,0.0625
1696251437231,-0.013671875,-0.98809814,0.13543701,0.234375,-3.96875,0.640625
1696251437270,-0.03173828,-0.98394775,0.14154053,1.5,-1.796875,0.875
1696251437310,-0.017089844,-0.9854126,0.13446045,1.328125,0.359375,1.28125
1696251437350,0.0063476562,-0.97247314,0.12689209,2.828125,0.984375,0.984375
1696251437391,0.0029296875,-0.9788208,0.13226318,1.609375,1.421875,0.96875
1696251437430,-0.009521484,-0.98443604,0.12005615,2.40625,2.234375,0.59375
1696251437472,-0.012207031,-1.0010376,0.12445068,1.078125,1.53125,0.796875
1696251437510,0.01171875,-0.98272705,0.12225342,1.796875,2.0,0.921875
1696251437549,0.027832031,-0.9805298,0.12420654,1.75,0.28125,0.953125
1696251437592,0.017822266,-0.9793091,0.12420654,0.40625,-0.734375,-0.171875
1696251437630,-0.03149414,-0.9854126,0.12664795,-0.421875,-2.015625,0.109375
1696251437670,-0.016357422,-0.98272705,0.11834717,-0.765625,0.328125,0.109375
1696251437712,0.0012207031,-0.9920044,0.12005615,2.46875,0.203125,0.109375
1696251437750,-0.010498047,-0.98272705,0.11932373,0.953125,-0.890625,0.34375
1696251437790,-0.013183594,-0.987854,0.08905029,-0.625,-0.734375,0.953125
1696251437833,0.020263672,-0.9751587,0.109558105,0.390625,-0.828125,1.40625
1696251437870,0.028076172,-0.99005127,0.105895996,0.0625,-2.25,1.15625
1696251437910,0.015380859,-0.98565674,0.10638428,-1.328125,-1.1875,-0.4375
1696251437949,-0.012939453,-0.98809814,0.117370605,-1.640625,-0.859375,-0.84375
1696251437990,-0.0029296875,-0.97491455,0.1251831,-1.84375,0.4375,-0.75
1696251438031,0.0031738281,-0.96832275,0.113220215,-2.09375,-0.453125,-1.1875
1696251438050,-0.0073242188,-0.99176025,0.12567139,0.484375,0.46875,-0.3125
1696251438110,0.0061035156,-1.00177,0.11883545,1.734375,1.78125,-0.625
1696251438129,0.0041503906,-0.98443604,0.12249756,2.5625,1.390625,-0.453125
1696251438191,-0.0075683594,-0.99542236,0.11151123,2.609375,-1.296875,0.21875
1696251438209,-0.018554688,-0.973938,0.11810303,2.453125,-1.0,0.796875
1696251438250,-0.02734375,-1.0020142,0.121520996,-1.3125,-2.359375,2.0625
1696251438291,0.0063476562,-0.9885864,0.11663818,-2.109375,-0.703125,-0.15625
1696251438332,0.030029297,-0.9717407,0.11932373,-1.0625,-1.4375,-0.09375
1696251438370,0.009521484,-0.97662354,0.11517334,-0.859375,-3.171875,0.625
1696251438410,-0.022460938,-0.9944458,0.1161499,-2.203125,-2.65625,0.0625
1696251438449,-0.024658203,-0.99102783,0.12591553,-0.765625,-0.9375,-0.515625
1696251438510,4.8828125E-4,-0.98321533,0.12420654,-2.390625,-0.453125,-0.953125
1696251438529,-0.009277344,-0.9729614,0.11883545,-2.28125,-1.78125,-0.71875
1696251438591,-0.023925781,-0.99102783,0.12835693,-2.515625,-0.890625,-0.296875
1696251438610,-0.0053710938,-0.9717407,0.13641357,-2.65625,0.390625,-1.375
1696251438650,-0.005859375,-0.98516846,0.14788818,-1.3125,0.8125,-1.015625
1696251438691,-0.010253906,-0.99786377,0.1408081,-1.53125,0.546875,-0.875
1696251438729,-0.0073242188,-0.97857666,0.12786865,-0.234375,0.359375,-2.734375
1696251438770,-0.014892578,-0.9697876,0.13861084,0.78125,0.71875,-1.046875
1696251438810,-0.0061035156,-0.9768677,0.12591553,0.09375,0.109375,-0.953125
1696251438852,-0.025390625,-0.98883057,0.13568115,2.09375,-0.140625,-0.65625
1696251438891,-0.004638672,-0.987854,0.13494873,1.46875,0.765625,-0.65625
1696251438930,-0.0078125,-0.97052,0.12567139,2.421875,1.46875,-1.03125
1696251438972,-0.017089844,-0.99176025,0.1408081,2.734375,0.03125,0.09375
1696251439011,-0.037109375,-0.9800415,0.121032715,1.109375,-0.984375,0.046875
1696251439051,-0.026367188,-0.99005127,0.13348389,0.5,-0.578125,-0.34375
1696251439091,-0.013671875,-0.98931885,0.1227417,0.921875,-0.1875,-0.078125
1696251439129,-0.022460938,-0.98760986,0.12615967,-0.984375,-2.15625,0.828125
1696251439170,-0.036132812,-0.98101807,0.12982178,0.671875,-0.9375,0.359375
1696251439210,-0.035888672,-0.99298096,0.12347412,-1.5,-0.140625,-0.3125
1696251439273,-0.013916016,-0.9734497,0.1251831,-0.703125,0.453125,-0.609375
1696251439310,-0.020263672,-0.97979736,0.12664795,-1.125,-0.328125,0.375
1696251439350,-0.033691406,-0.9968872,0.12640381,-2.609375,-0.765625,0.1875
1696251439354,-0.031982422,-1.000061,0.12957764,-1.4375,0.109375,-0.234375
1696251439390,-0.025634766,-0.9805298,0.13079834,-0.9375,-0.453125,0.71875
1696251439430,-0.017578125,-0.97906494,0.12371826,-0.15625,-0.4375,0.984375
1696251439471,-0.018798828,-0.9932251,0.13519287,-0.921875,-0.375,1.078125
1696251439512,-0.025146484,-0.98028564,0.13226318,-0.328125,0.109375,0.609375
1696251439550,-0.03100586,-0.98638916,0.13250732,-0.015625,0.625,0.59375
1696251439592,-0.036865234,-0.9915161,0.14447021,-0.53125,0.59375,0.578125
1696251439630,-0.017822266,-0.97662354,0.12249756,-0.828125,1.1875,0.359375
1696251439669,-0.015136719,-0.99346924,0.13348389,0.03125,1.625,0.375
1696251439710,-0.021484375,-0.9990845,0.13934326,0.4375,1.015625,0.625
1696251439750,-0.026367188,-0.99298096,0.12957764,-1.125,-0.296875,0.828125
1696251439791,0.010009766,-0.96539307,0.12957764,0.328125,0.265625,0.09375
1696251439831,-0.012451172,-0.97735596,0.121276855,0.359375,-0.765625,0.53125
1696251439869,-0.01977539,-0.9907837,0.14910889,1.859375,-1.328125,1.015625
1696251439910,-0.01977539,-0.9890747,0.12542725,-0.484375,-0.734375,-0.09375
1696251439950,-0.018798828,-0.9751587,0.13006592,1.0625,0.375,0.0625
1696251439990,-0.020507812,-0.9973755,0.13446045,1.671875,-0.59375,1.4375
1696251440030,-0.0036621094,-0.9859009,0.13519287,0.484375,-1.453125,0.15625
1696251440072,-0.017089844,-0.989563,0.13397217,-0.703125,-1.484375,0.296875
1696251440111,-0.025390625,-0.98931885,0.13250732,-1.03125,-1.140625,0.3125
1696251440153,-0.01586914,-0.98223877,0.13446045,-1.828125,-0.890625,0.390625
1696251440192,-0.018310547,-0.99468994,0.13543701,-0.78125,-0.75,0.609375
1696251440231,-0.0068359375,-0.97442627,0.14129639,-0.28125,-0.40625,-0.234375
1696251440271,-0.025146484,-0.99102783,0.13153076,-0.8125,-1.1875,0.40625
1696251440312,-0.015380859,-0.9883423,0.13128662,-0.5625,0.21875,0.171875
1696251440351,-0.020507812,-0.9902954,0.1383667,-0.828125,-0.390625,0.296875
1696251440391,-0.009765625,-0.9805298,0.1383667,-0.109375,0.5625,-0.046875
1696251440428,-0.015625,-0.9817505,0.14422607,0.078125,-0.421875,0.109375
1696251440471,-0.026367188,-0.99005127,0.13787842,-0.453125,-0.8125,0.359375
1696251440510,-0.013183594,-0.9885864,0.1395874,-0.6875,-0.328125,0.046875
1696251440551,-0.011230469,-0.9805298,0.14031982,-0.796875,-0.328125,-0.46875
1696251440592,-0.022949219,-0.9783325,0.13543701,0.078125,-0.5625,0.421875
1696251440634,-0.022216797,-0.987854,0.14276123,-0.109375,-0.453125,0.59375
1696251440652,-0.009765625,-0.9807739,0.14642334,0.859375,0.078125,-0.171875
1696251440692,-0.014160156,-0.975647,0.13983154,-0.015625,-0.484375,0.1875
1696251440732,-0.0234375,-0.97052,0.13275146,1.0625,-0.75,0.234375
1696251440773,-0.03149414,-0.9976196,0.13885498,-1.234375,-0.34375,0.734375
1696251440833,-0.010009766,-1.0027466,0.14642334,-1.34375,1.234375,-0.5
1696251440850,-0.0087890625,-0.97198486,0.13665771,-1.265625,-0.453125,-0.765625
1696251440892,-0.0078125,-0.97906494,0.14324951,-0.65625,-0.671875,0.21875
1696251440931,-0.023925781,-0.9849243,0.15423584,-1.375,-1.4375,0.0
1696251440994,-0.034423828,-0.9866333,0.14886475,-1.921875,0.21875,-0.5625
1696251441009,-0.013671875,-0.9800415,0.14886475,-1.359375,0.15625,-1.0
1696251441073,-0.009521484,-0.98028564,0.14910889,-1.28125,-0.6875,0.34375
1696251441089,-0.020507812,-0.9829712,0.14593506,-1.96875,-0.953125,0.46875
1696251441153,-0.029052734,-0.97979736,0.15716553,-2.25,-1.640625,0.1875
1696251441191,-0.016601562,-0.98028564,0.15911865,-0.71875,0.078125,-0.046875
1696251441231,-0.0107421875,-0.98394775,0.15911865,0.59375,0.0,-0.328125
1696251441252,-0.028320312,-0.9854126,0.15032959,0.4375,-1.296875,0.546875
1696251441312,-0.026123047,-0.97662354,0.14569092,0.765625,-0.375,0.578125
1696251441330,-0.032226562,-0.99298096,0.16644287,-0.109375,-1.375,0.75
1696251441394,-0.011474609,-0.98223877,0.15789795,1.03125,0.140625,0.234375
1696251441409,-0.0146484375,-0.9692993,0.14788818,1.15625,-0.3125,-0.140625
1696251441452,-0.028808594,-0.9780884,0.15057373,0.8125,-1.25,1.15625
1696251441492,-0.021240234,-0.9932251,0.15765381,-0.875,-1.609375,0.734375
1696251441530,-0.012207031,-0.9854126,0.15667725,-0.515625,-0.0625,-0.546875
1696251441572,-0.012451172,-0.97125244,0.14593506,-0.546875,-0.8125,-0.09375
1696251441612,-0.019042969,-0.9812622,0.15838623,-0.328125,-1.3125,1.0
1696251441651,-0.026123047,-0.9866333,0.16082764,0.046875,-0.703125,0.046875
1696251441712,-0.030273438,-0.9859009,0.15716553,-0.296875,-0.078125,-0.328125
1696251441753,-0.020019531,-0.9663696,0.15057373,-0.484375,0.671875,-0.328125
1696251441770,-0.011230469,-0.9883423,0.1539917,-0.328125,0.421875,-0.0625
1696251441810,-0.018310547,-0.9961548,0.15032959,-0.203125,-0.015625,-0.203125
1696251441850,-0.022705078,-0.98516846,0.15863037,-0.484375,-0.84375,0.375
1696251441892,-0.024414062,-0.98223877,0.14788818,-0.359375,-0.484375,0.546875
1696251441955,-0.017089844,-0.9837036,0.15130615,1.28125,0.5625,0.6875
1696251441969,-0.017578125,-0.98516846,0.15814209,0.875,0.0625,0.328125
1696251441989,-0.012939453,-0.9771118,0.1515503,0.53125,0.8125,0.203125
1696251442030,-0.020019531,-0.9937134,0.15545654,1.59375,0.625,0.40625
1696251442070,-0.018798828,-0.9668579,0.1449585,-0.34375,-1.09375,0.09375
1696251442111,-0.016845703,-0.99957275,0.15228271,1.0,0.953125,0.984375
1696251442152,-0.006591797,-0.97125244,0.14422607,0.78125,-1.21875,0.3125
1696251442192,-0.0087890625,-0.9710083,0.1473999,0.65625,-0.625,0.03125
1696251442231,-0.033447266,-0.9956665,0.1486206,-0.109375,-1.90625,1.359375
1696251442271,-0.010253906,-0.989563,0.14007568,-0.671875,-0.171875,-0.078125
1696251442314,-0.015380859,-0.97906494,0.16326904,0.296875,0.171875,-0.328125
1696251442349,-0.020996094,-0.9780884,0.13909912,0.171875,-1.140625,0.40625
1696251442392,-0.020019531,-0.9956665,0.13983154,-0.578125,-0.703125,0.03125
1696251442431,-0.021728516,-0.9951782,0.15057373,0.90625,0.265625,-0.03125
1696251442472,-0.011474609,-0.97662354,0.14471436,0.0,-0.265625,-0.03125
1696251442517,-0.009033203,-0.9710083,0.1461792,0.875,0.140625,0.15625
1696251442549,-0.01977539,-0.9924927,0.13470459,-0.265625,-1.125,0.796875
1696251442591,-0.0061035156,-0.9937134,0.14324951,-0.28125,-1.140625,0.703125
1696251442630,-0.0126953125,-0.9763794,0.14837646,0.671875,-0.890625,0.3125
1696251442670,-0.021240234,-0.9890747,0.14520264,-0.40625,-1.375,0.484375
1696251442713,-0.018798828,-0.98321533,0.14837646,-0.0625,-1.0,0.375
1696251442749,-0.024169922,-0.97491455,0.14910889,-1.1875,-0.828125,0.5
1696251442790,-0.026367188,-0.9898071,0.15032959,-1.375,0.03125,-0.1875
1696251442831,-0.01977539,-0.986145,0.15814209,-0.875,0.171875,-0.046875
1696251442871,-0.015380859,-0.97540283,0.13787842,-1.90625,-0.84375,0.03125
1696251442910,-0.022216797,-0.987854,0.15740967,-1.09375,0.078125,-0.25
1696251442952,-0.014160156,-0.98565674,0.15594482,-0.75,-0.015625,-0.3125
1696251442993,-0.0031738281,-0.98760986,0.14593506,-1.21875,0.046875,-0.84375
1696251443032,-0.017822266,-0.9741821,0.15594482,0.296875,-0.53125,-0.015625
1696251443072,-0.029541016,-0.98321533,0.15716553,0.390625,-1.09375,0.40625
1696251443110,-0.0234375,-0.9817505,0.16522217,-0.46875,-0.453125,0.578125
1696251443152,-0.01977539,-0.9717407,0.15545654,0.03125,-0.234375,-0.25
1696251443191,-0.016113281,-0.9902954,0.14398193,0.125,0.484375,0.53125
1696251443231,-0.010986328,-0.98028564,0.15911865,1.28125,-0.34375,0.921875
1696251443270,-0.021484375,-0.97613525,0.15618896,-0.5625,-1.046875,0.796875
1696251443310,-0.024414062,-0.97784424,0.15301514,0.8125,0.96875,0.21875
1696251443330,-0.013671875,-0.9776001,0.16326904,0.453125,0.265625,1.078125
1696251443369,-0.0107421875,-0.9920044,0.15692139,-0.578125,-1.90625,0.875
1696251443411,-0.009765625,-0.98443604,0.15667725,0.625,0.0625,0.4375
1696251443470,-0.018554688,-0.9819946,0.14959717,0.046875,-0.640625,0.46875
1696251443491,-0.009765625,-0.98150635,0.15252686,-0.859375,-0.9375,0.484375
1696251443533,-0.020263672,-0.9841919,0.14788818,-0.875,-0.5625,0.203125
1696251443594,-0.017822266,-0.98760986,0.15081787,-0.40625,-0.390625,0.421875
1696251443610,-0.015625,-0.9829712,0.14935303,-0.9375,0.203125,-0.015625
1696251443652,-0.0068359375,-0.9805298,0.15985107,-0.46875,-0.140625,-0.1875
1696251443691,-0.01586914,-0.98516846,0.15496826,0.515625,-0.625,0.46875
1696251443732,-0.02319336,-0.991272,0.1486206,1.921875,0.5,0.875
1696251443772,-0.006591797,-0.9866333,0.1593628,0.53125,0.15625,0.453125
1696251443812,-0.006591797,-0.98223877,0.14471436,0.046875,0.0,0.4375
1696251443850,-0.0029296875,-0.97198486,0.15203857,-0.6875,0.421875,0.0
1696251443891,-0.02319336,-0.98443604,0.16082764,-0.203125,0.0,0.140625
1696251443932,-0.017089844,-0.9885864,0.15814209,-0.46875,0.0,0.265625
1696251443994,-0.0146484375,-0.9727173,0.15472412,-0.140625,0.53125,-0.25
1696251444031,-0.0061035156,-0.98394775,0.15716553,-0.171875,-0.375,-0.015625
1696251444050,-0.009277344,-0.9849243,0.16204834,-0.453125,-0.890625,0.515625
1696251444094,-0.01953125,-0.97784424,0.152771,-0.796875,-0.671875,-0.125
1696251444152,-0.020263672,-0.99298096,0.15887451,-0.203125,0.484375,-0.421875
1696251444191,-0.013427734,-0.9800415,0.15863037,-0.671875,0.6875,-0.546875
1696251444209,-0.0061035156,-0.97784424,0.1593628,-0.09375,0.515625,-0.453125
1696251444252,-0.011474609,-0.98443604,0.15545654,1.484375,0.953125,-0.171875
1696251444290,-0.016845703,-1.0027466,0.15032959,2.65625,0.875,0.046875
1696251444330,0.0,-0.9768677,0.15447998,1.796875,-0.390625,-0.0625
1696251444372,-0.01171875,-0.9680786,0.14691162,1.328125,-0.375,0.5
1696251444410,-0.022949219,-0.99176025,0.1486206,-0.4375,-2.125,0.609375
1696251444453,-0.027832031,-0.9795532,0.14471436,-0.78125,-0.84375,-0.328125
1696251444514,-0.017089844,-0.9915161,0.14886475,-0.984375,-0.515625,-0.046875
1696251444532,-0.01586914,-0.9849243,0.16033936,-0.703125,-0.109375,0.34375
1696251444570,-0.015625,-0.9849243,0.1539917,-0.375,0.078125,0.03125
1696251444591,-0.03173828,-0.99346924,0.1473999,0.171875,-0.34375,0.15625
1696251444632,-0.016601562,-0.99224854,0.14031982,0.171875,1.78125,-0.0625
1696251444671,-0.0048828125,-0.987854,0.14642334,-1.515625,0.765625,0.15625
1696251444711,-0.009033203,-0.975647,0.16400146,-2.390625,-0.34375,0.671875
1696251444753,-0.024902344,-0.97857666,0.17034912,-1.03125,0.640625,0.234375
1696251444792,-0.015136719,-0.98516846,0.1539917,-1.078125,-0.40625,-0.015625
1696251444830,-0.0031738281,-0.98223877,0.15863037,-1.328125,-0.953125,0.359375
1696251444870,-0.0063476562,-0.9663696,0.1593628,-1.1875,-1.640625,-0.359375
1696251444910,-0.01586914,-0.9883423,0.16107178,-0.75,-1.953125,-0.15625
1696251444951,-0.022460938,-0.9841919,0.1708374,0.015625,-0.734375,1.0
1696251444991,-0.024658203,-0.98394775,0.16229248,-0.53125,-0.515625,0.515625
1696251445032,-0.020019531,-0.9834595,0.16082764,0.515625,-0.109375,-0.0625
1696251445072,-0.0029296875,-0.9854126,0.15863037,-1.234375,-1.65625,0.671875
1696251445111,7.324219E-4,-0.9663696,0.16571045,-3.046875,-3.21875,0.15625
1696251445153,-0.018554688,-0.9780884,0.1642456,-2.859375,-1.578125,0.75
1696251445191,-0.020263672,-1.0142212,0.1798706,1.0,-3.703125,0.703125
1696251445232,-0.02319336,-0.9685669,0.17572021,0.234375,0.65625,0.453125
1696251445271,-0.034179688,-0.956604,0.17547607,0.1875,0.203125,1.109375
1696251445310,-0.0024414062,-0.9873657,0.17327881,0.5625,0.78125,0.90625
1696251445352,0.0017089844,-0.986145,0.17718506,0.265625,-1.140625,0.21875
1696251445389,-0.021972656,-0.9824829,0.16668701,-0.140625,-1.109375,0.203125
1696251445431,-0.024414062,-0.973938,0.15740967,-0.671875,0.453125,0.28125
1696251445471,-0.010253906,-0.9771118,0.16595459,-1.640625,-1.453125,-0.578125
1696251445512,-0.0029296875,-0.97540283,0.1708374,-0.296875,1.640625,-0.78125
1696251445551,-0.0034179688,-0.9915161,0.17962646,-0.0625,0.203125,-0.8125
1696251445591,-0.033691406,-0.9873657,0.18475342,-0.375,-0.015625,0.09375
1696251445632,-0.0390625,-0.96832275,0.1696167,0.953125,1.0625,0.921875
1696251445671,-0.006591797,-0.9898071,0.18157959,1.90625,2.375,0.578125
1696251445713,0.01171875,-0.9873657,0.16693115,1.390625,-3.921875,1.296875
1696251445751,-0.0048828125,-0.97076416,0.1708374,0.109375,-2.171875,0.9375
1696251445792,-0.029296875,-0.9837036,0.16546631,-0.796875,-1.21875,0.203125
1696251445832,-0.024902344,-0.9771118,0.1618042,-1.0625,0.453125,0.421875
1696251445891,2.4414062E-4,-0.9800415,0.17425537,-0.765625,1.734375,-0.703125
1696251445909,-0.010009766,-0.9846802,0.16619873,-0.234375,-0.171875,-0.25
1696251445929,-0.014892578,-0.97076416,0.16693115,-1.203125,-1.53125,0.65625
1696251445971,-0.024414062,-0.99224854,0.1828003,-0.4375,-0.28125,0.46875
1696251446011,-0.010498047,-0.98760986,0.17279053,0.578125,0.375,0.5
1696251446072,-0.0146484375,-0.9771118,0.17108154,0.015625,-1.296875,0.8125
1696251446111,-0.0026855469,-0.9776001,0.1618042,0.234375,-0.640625,0.59375
1696251446151,-0.0078125,-0.99053955,0.17913818,0.078125,0.046875,0.03125
1696251446170,-0.017089844,-0.975647,0.16497803,-0.265625,-0.8125,-0.140625
1696251446210,-0.008300781,-0.96661377,0.16912842,-1.171875,-0.890625,0.671875
1696251446273,-0.0146484375,-0.98223877,0.17547607,-0.515625,-0.453125,0.59375
1696251446311,-0.010009766,-0.9819946,0.1696167,-1.125,-1.890625,0.015625
1696251446329,-0.011230469,-0.97198486,0.17010498,-1.875,-1.359375,-0.265625
1696251446393,-0.005126953,-0.9771118,0.18475342,-1.390625,0.5,-0.65625
1696251446408,-0.017578125,-0.9734497,0.17889404,-0.765625,-1.21875,-0.609375
1696251446451,-0.008300781,-0.9624634,0.18572998,1.65625,0.0,0.265625
1696251446492,-0.014404297,-0.9824829,0.20452881,2.265625,-1.890625,0.09375
1696251446531,-0.030517578,-0.99053955,0.16326904,1.078125,-2.28125,-0.796875
1696251446570,-0.029296875,-0.98883057,0.17376709,0.5625,-0.078125,-0.765625
1696251446610,-0.020751953,-0.97906494,0.16546631,0.953125,0.71875,-0.09375
1696251446653,-0.023925781,-0.98687744,0.1774292,1.15625,2.703125,0.53125
1696251446690,-0.02368164,-0.989563,0.17449951,-0.609375,0.234375,-0.734375
1696251446731,-0.011230469,-0.9849243,0.17449951,0.03125,1.3125,-1.0
1696251446772,-0.00390625,-0.97735596,0.17840576,0.0,0.5,0.53125
1696251446832,-0.008300781,-0.9805298,0.17645264,-1.15625,-0.796875,1.21875
1696251446850,-0.010253906,-0.97662354,0.1708374,-1.078125,-2.1875,0.515625
1696251446910,-0.022460938,-0.987854,0.17401123,-0.890625,-1.71875,0.171875
1696251446929,-0.021484375,-0.9651489,0.16375732,-3.046875,-1.953125,0.03125
1696251446972,-0.013183594,-0.9607544,0.17230225,-0.421875,1.328125,0.28125
1696251447012,-0.014404297,-0.9973755,0.19525146,1.125,0.046875,-0.609375
1696251447072,-0.020996094,-0.9854126,0.19110107,1.078125,-0.765625,-0.09375
1696251447092,-0.028564453,-0.97857666,0.18109131,0.734375,-1.09375,-0.046875
1696251447132,-0.027832031,-0.97906494,0.17327881,0.90625,-1.71875,0.59375
1696251447172,-0.02319336,-0.9902954,0.17572021,0.140625,-0.953125,0.703125
1696251447210,-0.029052734,-0.9729614,0.16986084,-0.796875,-2.1875,-0.21875
1696251447232,-0.020751953,-0.98565674,0.18670654,-0.078125,1.140625,-1.375
1696251447270,-0.030761719,-0.9915161,0.1749878,-1.0625,0.21875,-1.234375
1696251447311,-0.017578125,-0.97735596,0.17181396,-0.6875,-0.171875,-1.578125
1696251447350,-0.024658203,-0.9956665,0.1798706,-0.390625,0.203125,-1.140625
1696251447390,-0.028320312,-0.98565674,0.1828003,-0.75,-1.1875,-0.71875
1696251447431,-0.031982422,-0.9746704,0.17303467,-1.15625,-1.296875,-0.21875
1696251447475,-0.03149414,-0.9829712,0.17889404,-1.203125,-1.34375,0.390625
1696251447513,-0.029541016,-0.9824829,0.17425537,-2.40625,-0.5625,0.328125
1696251447551,-0.01928711,-0.9871216,0.17010498,-7.8125,-1.8125,-1.109375
1696251447593,-0.030273438,-0.927063,0.20550537,-7.265625,0.828125,-1.15625
1696251447631,-0.057617188,-1.0032349,0.2243042,-0.265625,-0.609375,3.125
1696251447671,-0.0056152344,-1.0073853,0.23675537,6.046875,-3.140625,0.5
1696251447712,-0.04296875,-0.9788208,0.21453857,4.390625,-1.546875,0.6875
1696251447751,-0.06542969,-0.9397583,0.18499756,5.8125,-0.640625,3.953125
1696251447792,-0.040283203,-1.0213013,0.18475342,8.078125,1.625,1.078125
1696251447829,-0.012451172,-1.0112915,0.16693115,4.546875,-1.09375,-0.015625
1696251447871,-0.008544922,-0.9585571,0.16546631,2.546875,-0.765625,1.65625
1696251447912,-0.03930664,-0.96051025,0.16204834,-0.84375,-1.875,1.359375
1696251447951,-0.032714844,-0.98223877,0.1359253,-2.25,-3.921875,-0.1875
1696251447991,-0.030517578,-0.9949341,0.14154053,3.515625,0.078125,0.34375
1696251448031,0.0075683594,-0.97442627,0.1461792,5.046875,0.40625,0.640625
1696251448072,-0.022460938,-0.9624634,0.13470459,0.46875,-1.0625,-0.21875
1696251448111,-0.032714844,-0.9714966,0.15179443,-6.828125,-4.140625,0.71875
1696251448151,-0.022460938,-0.9793091,0.19989014,-4.75,-3.796875,1.5625
1696251448190,0.030029297,-1.0029907,0.18743896,-2.109375,-1.515625,-2.125
1696251448230,-0.017822266,-0.9885864,0.17767334,-3.0,-0.9375,-3.03125
1696251448271,-0.03149414,-0.9727173,0.16644287,-2.0,-0.234375,-1.171875
1696251448311,-0.029296875,-0.98931885,0.18572998,-0.09375,0.390625,-1.609375
1696251448351,-0.031982422,-0.9734497,0.18426514,-0.875,-1.53125,-1.328125
1696251448392,-0.04272461,-0.97320557,0.18011475,0.71875,0.203125,-0.5625
1696251448431,-0.033691406,-0.99713135,0.17816162,-0.484375,0.515625,-0.421875
1696251448471,-0.037841797,-0.9795532,0.17816162,-0.015625,-0.6875,-0.296875
1696251448511,-0.028564453,-0.97003174,0.17401123,0.09375,-0.109375,0.765625
1696251448528,-0.033691406,-0.9690552,0.17889404,0.3125,0.21875,0.765625
1696251448572,-0.03857422,-0.989563,0.18865967,1.09375,0.0,0.390625
1696251448611,-0.0390625,-0.98272705,0.17913818,0.734375,0.28125,0.78125
1696251448652,-0.029785156,-0.9751587,0.18157959,1.109375,0.21875,0.578125
1696251448712,-0.020507812,-0.9702759,0.18231201,1.296875,-0.84375,0.6875
1696251448730,-0.040771484,-0.98321533,0.18304443,0.09375,-1.375,0.734375
1696251448795,-0.04663086,-0.98223877,0.18255615,1.125,-0.875,0.703125
1696251448812,-0.030517578,-0.9656372,0.17962646,-0.3125,-0.171875,0.078125
1696251448851,-0.03857422,-0.97540283,0.17962646,-0.046875,-0.59375,0.140625
1696251448890,-0.035888672,-0.9883423,0.18328857,0.1875,-0.34375,0.609375
1696251448931,-0.03857422,-0.9920044,0.17254639,-0.015625,-0.109375,0.015625
1696251448993,-0.029785156,-0.96710205,0.17059326,-0.109375,0.65625,-0.03125
1696251449010,-0.022216797,-0.986145,0.18109131,1.625,0.53125,-0.234375
1696251449050,-0.040283203,-0.9866333,0.17156982,0.53125,-0.21875,0.625
1696251449091,-0.026367188,-0.97369385,0.18084717,-0.1875,-1.125,0.28125
1696251449152,-0.024658203,-0.9758911,0.17327881,0.46875,-0.390625,-0.34375
1696251449169,-0.03491211,-0.9873657,0.16400146,-1.0,-0.546875,0.171875
1696251449232,-0.03540039,-0.99224854,0.16912842,0.140625,0.640625,0.875
1696251449250,-0.03881836,-0.986145,0.16815186,0.109375,-0.328125,1.03125
1696251449292,-0.033691406,-0.987854,0.16912842,-0.328125,0.3125,1.75
1696251449333,-0.0107421875,-0.97052,0.1720581,-0.078125,1.0,1.328125
1696251449372,-0.017822266,-0.9673462,0.16619873,-0.296875,-1.484375,0.578125
1696251449411,-0.033691406,-0.9859009,0.16107178,-0.0625,-1.734375,0.9375
1696251449451,-0.03100586,-0.98638916,0.17059326,0.09375,-0.34375,0.5625
1696251449492,-0.020263672,-0.972229,0.17938232,0.453125,0.390625,0.3125
1696251449532,-0.021240234,-0.9710083,0.16912842,-0.09375,-1.609375,0.390625
1696251449570,-0.03149414,-0.9812622,0.16741943,-0.171875,-1.484375,0.359375
1696251449614,-0.020507812,-0.9800415,0.16888428,0.03125,0.28125,0.171875
1696251449651,-0.028320312,-0.98321533,0.17279053,0.21875,-0.109375,-0.265625
1696251449712,-0.01928711,-0.986145,0.1696167,-0.296875,0.03125,-0.09375
1696251449730,-0.028320312,-0.97662354,0.1749878,-0.28125,-0.53125,-0.03125
1696251449771,-0.026123047,-0.98272705,0.17767334,0.328125,1.0,-0.515625
1696251449834,-0.018554688,-0.9854126,0.17474365,0.28125,0.046875,-0.46875
1696251449848,-0.036376953,-0.9776001,0.17474365,-0.671875,-1.171875,0.0625
1696251449870,-0.028808594,-0.975647,0.17376709,-1.03125,-0.25,-0.21875
1696251449912,-0.018310547,-0.98687744,0.17962646,-0.8125,-0.0625,-0.53125
1696251449949,-0.033691406,-0.98443604,0.17254639,-1.828125,-0.359375,-0.421875
1696251449991,-0.016601562,-0.97735596,0.17059326,-1.625,1.21875,-0.328125
1696251450031,-0.013183594,-0.9746704,0.17840576,-2.390625,0.65625,-0.609375
1696251450071,-0.017089844,-0.9734497,0.20452881,-3.859375,0.9375,-0.265625
1696251450110,-0.038330078,-1.0100708,0.23284912,-3.15625,0.546875,0.375
1696251450152,-0.053710938,-0.991272,0.19744873,-3.828125,-3.109375,1.234375
1696251450192,-0.026611328,-0.97662354,0.17547607,4.8125,-2.71875,0.84375
1696251450232,0.004638672,-0.9456177,0.16229248,6.109375,-2.875,0.53125
1696251450269,-0.032714844,-0.96710205,0.15228271,7.453125,-0.328125,2.59375
1696251450311,-0.036865234,-0.99224854,0.16595459,6.78125,-2.25,2.671875
1696251450350,-0.024902344,-0.9661255,0.1486206,4.75,-0.96875,0.015625
1696251450391,-0.03466797,-0.97198486,0.15252686,3.75,0.671875,1.296875
1696251450432,-0.013427734,-0.98028564,0.14349365,0.953125,-2.078125,2.71875
1696251450470,-0.014404297,-0.9751587,0.14666748,0.328125,-2.125,1.140625
1696251450509,-0.001953125,-1.0020142,0.17034912,-0.1875,0.828125,0.265625
1696251450550,-0.018066406,-0.99957275,0.1449585,-1.75,-2.34375,0.0625
1696251450593,-0.0061035156,-0.9717407,0.14837646,-2.046875,-0.734375,-0.59375
1696251450632,-0.022460938,-0.9776001,0.15570068,-0.65625,-0.34375,-1.046875
1696251450670,-0.029785156,-0.9824829,0.14544678,-2.375,-0.0625,-0.53125
1696251450711,-0.025390625,-0.99005127,0.1630249,-1.609375,-0.09375,-0.15625
1696251450752,-0.012939453,-0.97735596,0.16229248,-0.5,-0.078125,-0.15625
1696251450790,-0.014892578,-0.98223877,0.1473999,-1.4375,-0.890625,0.109375
1696251450832,-0.020019531,-0.97906494,0.16790771,-0.71875,-0.625,0.046875
1696251450873,-0.025634766,-0.97320557,0.1642456,-1.6875,0.0625,-0.53125
1696251450911,-0.020996094,-1.0022583,0.17059326,0.359375,0.84375,-0.109375
1696251450952,-0.028320312,-0.96710205,0.15838623,-1.171875,-2.28125,-0.390625
1696251450991,-0.020019531,-0.97491455,0.17254639,-0.203125,0.9375,-1.421875
1696251451032,-0.029296875,-0.9859009,0.16595459,-0.359375,0.96875,-0.921875
1696251451071,-0.025390625,-0.986145,0.16546631,-1.828125,-0.515625,-0.46875
1696251451112,-0.026123047,-0.9932251,0.18475342,-0.515625,0.484375,-0.8125
1696251451152,-0.036621094,-0.98443604,0.16644287,-0.375,-0.625,-0.359375
1696251451171,-0.030029297,-0.9673462,0.17474365,-0.21875,-0.046875,0.0625
1696251451233,-0.022705078,-0.99053955,0.17425537,-0.21875,-0.78125,-0.265625
1696251451249,-0.034179688,-0.987854,0.17034912,-0.734375,0.109375,0.078125
1696251451293,-0.02734375,-0.97125244,0.17449951,0.5625,0.78125,-0.28125
1696251451332,-0.03149414,-0.98760986,0.17547607,1.015625,1.140625,-0.75
1696251451371,-0.045898438,-0.9849243,0.17718506,0.125,0.625,-1.015625
1696251451412,-0.03564453,-0.9807739,0.15618896,-1.046875,1.0,-0.796875
1696251451450,-0.009765625,-0.97613525,0.1630249,-0.703125,0.921875,-0.546875
1696251451490,-0.01953125,-0.9866333,0.17449951,-0.828125,-1.09375,-0.1875
1696251451555,-0.052001953,-0.98321533,0.17352295,-1.328125,-0.234375,-0.53125
1696251451594,-0.052734375,-0.9824829,0.17401123,-0.5,0.4375,-0.71875
1696251451609,-0.034423828,-0.9614868,0.17401123,0.515625,1.328125,-0.453125
1696251451651,-0.022949219,-0.9783325,0.16693115,-0.875,-0.375,0.515625
1696251451711,-0.029296875,-0.98443604,0.17376709,0.046875,-0.15625,-0.203125
1696251451729,-0.038085938,-0.9758911,0.17816162,1.3125,0.53125,0.234375
1696251451792,-0.04663086,-0.97906494,0.17523193,1.015625,0.078125,0.59375
1696251451810,-0.05102539,-0.989563,0.17449951,0.40625,1.140625,0.78125
1696251451872,-0.041748047,-0.98272705,0.16253662,0.96875,0.40625,0.625
1696251451889,-0.017333984,-0.9819946,0.1720581,1.921875,1.90625,0.484375
1696251451930,-0.034423828,-0.97857666,0.16278076,2.03125,-0.15625,1.34375
1696251451970,-0.052978516,-0.9829712,0.17254639,2.53125,0.65625,0.90625
1696251452012,-0.046142578,-0.97613525,0.15423584,6.21875,2.109375,0.5625
1696251452052,-0.051757812,-0.9871216,0.15032959,9.078125,2.625,0.8125
1696251452114,-0.05126953,-0.9968872,0.1515503,8.78125,0.90625,1.9375
1696251452130,-0.020996094,-0.9885864,0.13616943,5.421875,3.046875,1.640625
1696251452171,-0.024414062,-0.9727173,0.10858154,3.515625,1.390625,0.359375
1696251452212,-0.028564453,-0.9846802,0.109802246,2.109375,0.875,0.328125
1696251452272,-0.022949219,-1.0044556,0.11907959,-0.390625,1.3125,0.734375
1696251452289,-0.036376953,-0.9727173,0.12445068,-0.296875,1.609375,-0.421875
1696251452354,-0.029296875,-0.98394775,0.11419678,-0.859375,2.125,-0.15625
1696251452371,-0.020019531,-0.9758911,0.11859131,-0.53125,1.9375,0.59375
1696251452410,-0.024169922,-0.99468994,0.12567139,-1.296875,-0.015625,1.46875
1696251452450,-0.01586914,-0.9902954,0.11395264,-3.46875,-1.71875,0.953125
1696251452469,-0.014160156,-0.97662354,0.124938965,-2.3125,-1.03125,0.71875
1696251452510,-0.016113281,-0.9805298,0.13470459,-1.53125,-1.21875,0.078125
1696251452550,-0.020263672,-0.98883057,0.12835693,-1.078125,-0.6875,0.390625
1696251452591,-0.020507812,-0.9920044,0.13568115,-0.796875,-0.09375,0.03125
1696251452632,-0.02368164,-0.99005127,0.14105225,-0.53125,-0.203125,-0.65625
1696251452672,-0.022460938,-0.97784424,0.1293335,0.09375,0.78125,-1.0
1696251452712,-0.041748047,-0.99713135,0.12640381,2.078125,1.734375,-0.5
1696251452750,-0.033935547,-0.9915161,0.12298584,0.359375,1.28125,-0.625
1696251452791,-0.015136719,-0.975647,0.11907959,1.21875,2.25,-1.1875
1696251452832,-0.0053710938,-0.97076416,0.11663818,0.4375,-1.25,-0.6875
1696251452870,0.0087890625,-0.9793091,0.12786865,1.1875,0.234375,-0.75
1696251452910,-0.032470703,-1.0081177,0.12249756,0.21875,-3.4375,-0.515625
1696251452953,-0.041259766,-0.9849243,0.12322998,1.046875,-1.390625,0.1875
1696251452992,-0.037841797,-0.97491455,0.12738037,0.375,-0.25,-0.625
1696251453031,-0.028808594,-0.9885864,0.12689209,-0.859375,-2.328125,0.140625
1696251453072,-0.032226562,-0.9920044,0.1359253,-1.53125,-1.15625,0.8125
1696251453111,-0.04248047,-0.99786377,0.1317749,-1.59375,-1.71875,-0.28125
1696251453153,-0.044921875,-0.99468994,0.12762451,-1.125,-1.171875,0.3125
1696251453190,-0.036621094,-0.97369385,0.12347412,-1.625,-0.546875,-0.28125
1696251453232,-0.028320312,-0.99005127,0.14007568,-2.046875,0.671875,-0.578125
1696251453271,-0.03881836,-1.0059204,0.13323975,-1.9375,-0.828125,-0.0625
1696251453312,-0.042236328,-0.9776001,0.13909912,-2.140625,-0.328125,-0.125
1696251453350,-0.041748047,-0.9859009,0.13201904,-1.6875,-0.140625,-0.109375
1696251453389,-0.027832031,-0.9849243,0.13348389,-1.359375,0.71875,-0.03125
1696251453431,-0.03125,-0.97906494,0.13983154,-0.21875,-0.59375,0.484375
1696251453474,-0.029296875,-0.98150635,0.13641357,-0.078125,-1.078125,0.6875
1696251453511,-0.030761719,-0.99053955,0.14324951,0.296875,-0.671875,0.421875
1696251453551,-0.035888672,-0.9812622,0.13372803,-0.6875,-1.1875,0.6875
1696251453592,-0.041259766,-0.97442627,0.152771,-0.109375,-1.21875,0.625
1696251453633,-0.034423828,-0.99346924,0.14837646,0.890625,-0.40625,0.984375
1696251453672,-0.04248047,-0.9932251,0.13568115,-0.171875,-2.25,0.65625
1696251453713,-0.038085938,-0.95635986,0.15130615,0.0,-0.765625,0.515625
1696251453794,-0.041503906,-0.98931885,0.1437378,-1.125,-1.0,0.328125
1696251453799,-0.032226562,-0.98809814,0.15447998,-0.453125,1.453125,-0.140625
1696251453809,-0.041015625,-0.9824829,0.14520264,-1.796875,0.21875,-0.609375
1696251453851,-0.034423828,-0.9746704,0.14349365,-0.515625,1.078125,0.0
1696251453892,-0.022460938,-0.98931885,0.15081787,-0.625,0.921875,1.03125
1696251453931,-0.016113281,-0.9932251,0.15863037,0.03125,-0.359375,1.09375
1696251453973,-0.041748047,-0.9866333,0.15203857,-0.125,-0.921875,0.1875
1696251454012,-0.043701172,-0.9819946,0.13616943,-0.421875,0.203125,-0.421875
1696251454073,-0.02368164,-0.97442627,0.15374756,-0.171875,1.3125,-0.734375
1696251454090,-0.03125,-0.9944458,0.15692139,-1.359375,-0.625,0.78125
1696251454132,-0.020751953,-0.98809814,0.16156006,-0.765625,-1.953125,0.734375
1696251454172,-0.016845703,-0.9795532,0.13934326,1.734375,-2.234375,0.09375
1696251454212,-0.014892578,-0.9758911,0.14300537,0.59375,-2.25,1.703125
1696251454252,-0.035888672,-0.98760986,0.15594482,0.453125,-2.109375,1.734375
1696251454293,-0.05419922,-0.9937134,0.15325928,-0.859375,-0.625,1.15625
1696251454332,-0.033935547,-0.98321533,0.15179443,-0.71875,0.359375,0.46875
1696251454371,-0.0061035156,-0.98443604,0.15496826,-0.59375,-0.265625,1.046875
1696251454431,-0.01171875,-0.9829712,0.15447998,-1.734375,-1.0625,0.90625
1696251454450,-0.034423828,-0.97491455,0.15203857,-0.890625,-1.015625,0.234375
1696251454490,-0.030761719,-0.9937134,0.16522217,-0.515625,-0.1875,0.3125
1696251454531,-0.03100586,-0.98760986,0.16571045,-1.5625,-2.4375,0.125
1696251454571,-0.028076172,-0.9500122,0.18011475,-0.703125,0.921875,-0.8125
1696251454611,-0.03881836,-1.0090942,0.15814209,-1.328125,-1.453125,-0.078125
1696251454655,-0.01953125,-0.97857666,0.16864014,-0.828125,-0.671875,0.09375
1696251454713,-0.030517578,-0.9685669,0.15814209,-1.0,-0.625,-0.78125
1696251454730,-0.025878906,-0.9807739,0.1630249,0.546875,0.25,-0.1875
1696251454772,-0.02319336,-0.986145,0.16375732,-0.109375,-0.59375,0.09375
1696251454832,-0.040527344,-0.9902954,0.16522217,-0.140625,-0.84375,-0.375
1696251454849,-0.036621094,-0.97613525,0.1618042,0.0,0.203125,-0.265625
1696251454912,-0.017333984,-0.9788208,0.16400146,0.0,0.203125,0.203125
1696251454931,-0.0126953125,-0.97613525,0.16741943,-0.4375,-0.5,0.109375
1696251454970,-0.040283203,-0.9829712,0.17156982,-0.171875,-0.875,0.453125
1696251455010,-0.03955078,-0.9788208,0.17132568,-0.9375,-0.609375,-0.15625
1696251455052,-0.049072266,-0.97491455,0.15814209,-2.1875,-0.171875,-0.671875
1696251455092,-0.030029297,-0.9812622,0.17547607,-0.796875,2.3125,-1.140625
1696251455111,-0.0043945312,-0.9741821,0.17669678,-0.796875,1.21875,-0.171875
1696251455152,-0.023925781,-0.98101807,0.1671753,-0.890625,-1.234375,0.25
1696251455190,-0.046875,-0.9807739,0.19256592,0.171875,-0.203125,0.46875
1696251455232,-0.037841797,-0.9834595,0.17156982,-0.125,-1.65625,-0.09375
1696251455271,-0.033447266,-0.9661255,0.17840576,0.15625,-1.328125,0.703125
1696251455311,-0.030029297,-0.9788208,0.1720581,-0.25,-0.84375,0.640625
1696251455353,-0.03955078,-0.99053955,0.17376709,-0.15625,-1.3125,0.046875
1696251455390,-0.039794922,-0.9758911,0.16888428,-0.28125,-0.828125,0.171875
1696251455432,-0.033935547,-0.97491455,0.18060303,0.875,0.375,-0.109375
1696251455472,-0.036865234,-0.97613525,0.17913818,-0.53125,-0.03125,-0.078125
1696251455513,-0.035888672,-1.003479,0.15985107,-0.34375,-0.03125,-0.59375
1696251455553,-0.043945312,-0.9800415,0.17547607,0.234375,1.265625,0.3125
1696251455592,-0.02758789,-0.96099854,0.17474365,-1.015625,-0.375,-0.359375
1696251455631,-0.028076172,-0.9824829,0.16619873,0.046875,0.765625,-0.140625
1696251455671,-0.036865234,-0.9846802,0.16644287,-0.953125,-1.046875,0.84375
1696251455713,-0.036132812,-0.98687744,0.18450928,-0.09375,0.203125,-0.140625
1696251455752,-0.043945312,-0.97491455,0.1696167,-1.171875,-0.515625,0.296875
1696251455792,-0.026855469,-0.96417236,0.17547607,-0.359375,-0.0625,0.046875
1696251455831,-0.022460938,-0.9829712,0.17816162,-0.703125,-0.46875,-0.09375
1696251455870,-0.038330078,-0.98272705,0.17718506,-0.046875,-0.828125,0.5
1696251455911,-0.041015625,-0.9788208,0.17449951,-1.171875,-0.640625,-0.53125
1696251455952,-0.033935547,-0.986145,0.17913818,-0.359375,0.03125,-0.1875
1696251455992,-0.024658203,-0.9793091,0.1798706,-1.171875,-0.796875,0.453125
1696251456032,-0.03100586,-0.99102783,0.16668701,-2.40625,-1.3125,0.8125
1696251456071,-0.032958984,-1.0005493,0.20135498,-0.96875,-0.25,0.0625
1696251456112,-0.025878906,-0.9463501,0.18914795,-2.046875,0.546875,0.078125
1696251456151,-0.037841797,-0.9729614,0.1708374,-1.734375,0.75,0.703125
1696251456192,-0.036621094,-1.0059204,0.21014404,1.515625,-2.1875,1.125
1696251456232,-0.068359375,-0.987854,0.21917725,2.390625,-5.03125,1.359375
1696251456273,-0.05908203,-0.9644165,0.18060303,0.75,-1.03125,1.328125
1696251456312,-0.04638672,-0.9734497,0.184021,-0.625,-0.953125,3.515625
1696251456351,-0.02368164,-0.97857666,0.16351318,4.546875,0.703125,2.484375
1696251456390,0.007080078,-1.0054321,0.184021,1.203125,-2.578125,1.109375
1696251456410,0.0034179688,-0.9727173,0.19110107,2.109375,1.578125,0.71875
1696251456453,-0.02319336,-0.97052,0.2074585,-1.96875,-1.28125,0.484375
1696251456491,-0.041503906,-0.9990845,0.17010498,2.890625,-2.53125,1.546875
1696251456553,-0.0390625,-0.9780884,0.15887451,0.09375,-5.15625,-0.09375
1696251456572,0.0024414062,-0.9356079,0.12957764,5.53125,-3.140625,0.40625
1696251456612,-0.004638672,-0.9859009,0.15350342,5.15625,-1.9375,1.265625
1696251456654,-0.024658203,-0.97735596,0.15081787,3.390625,-4.59375,0.453125
1696251456691,-0.053955078,-0.95562744,0.1564331,-0.96875,-2.28125,0.015625
1696251456730,-0.041992188,-0.99884033,0.15325928,-0.78125,0.421875,0.5
1696251456772,-0.015380859,-0.98638916,0.16986084,-0.296875,-0.5,-0.046875
1696251456812,0.0078125,-0.99053955,0.17156982,-3.46875,-0.296875,-1.109375
1696251456853,-0.018554688,-0.9771118,0.16082764,-0.34375,-0.421875,-0.203125
1696251456893,-0.034179688,-0.98638916,0.16522217,0.140625,0.6875,0.296875
1696251456930,-0.025634766,-0.97076416,0.16571045,-2.625,-1.65625,-0.546875
1696251456974,-0.010498047,-0.99053955,0.17181396,1.03125,2.25,0.015625
1696251457012,-0.033935547,-0.9873657,0.17669678,-1.15625,-1.796875,0.328125
1696251457050,-0.03515625,-0.972229,0.1564331,0.203125,-0.6875,-0.390625
1696251457091,-0.029785156,-0.9920044,0.17132568,0.359375,1.015625,0.171875
1696251457131,-0.020263672,-0.9800415,0.16375732,-0.6875,-0.015625,0.015625
1696251457193,-0.013671875,-0.97003174,0.1708374,-0.984375,0.625,-0.53125
1696251457210,-0.02734375,-0.9898071,0.16864014,-0.140625,-0.53125,0.09375
1696251457252,-0.027832031,-0.98272705,0.18353271,-0.1875,-0.296875,0.453125
1696251457314,-0.036621094,-0.9717407,0.17254639,0.203125,-0.046875,-0.265625
1696251457350,-0.020019531,-0.9783325,0.16741943,0.4375,0.25,0.015625
1696251457369,-0.030761719,-0.98809814,0.1720581,-0.328125,-1.125,0.40625
1696251457414,-0.025634766,-0.9783325,0.16619873,0.375,-0.125,-0.046875
1696251457452,-0.018554688,-0.97784424,0.16473389,0.515625,0.078125,0.53125
1696251457491,-0.031982422,-0.9805298,0.1671753,-0.765625,-1.734375,0.671875
1696251457533,-0.02758789,-0.986145,0.17254639,-0.03125,-0.5,-0.203125
1696251457574,-0.022460938,-0.9866333,0.17059326,0.671875,0.828125,0.03125
1696251457612,-0.028076172,-0.98272705,0.17181396,0.921875,0.859375,0.359375
1696251457671,-0.024658203,-0.9824829,0.16571045,-0.5625,0.078125,0.03125
1696251457690,-0.022949219,-0.9788208,0.15814209,0.96875,0.25,0.0
1696251457711,-0.029541016,-0.9624634,0.17889404,1.28125,0.578125,-0.03125
1696251457752,-0.036132812,-1.000061,0.15838623,-1.1875,-0.984375,0.015625
1696251457793,-0.024658203,-0.9795532,0.16644287,0.640625,0.296875,-0.046875
1696251457833,-0.02734375,-0.97784424,0.16546631,-0.734375,-0.125,-0.375
1696251457875,-0.026123047,-0.9783325,0.15570068,-1.03125,0.21875,-0.734375
1696251457912,-0.026855469,-1.0027466,0.16766357,0.453125,0.640625,-0.203125
1696251457950,-0.04272461,-0.973938,0.15765381,1.0,-0.890625,0.03125
1696251457991,-0.027832031,-0.9800415,0.15887451,-0.515625,-0.171875,0.140625
1696251458036,-0.014892578,-0.97784424,0.16619873,-0.4375,1.3125,-0.125
1696251458072,-0.023925781,-0.9924927,0.16253662,-1.34375,-1.125,0.53125
1696251458112,-0.038330078,-0.9800415,0.15960693,0.078125,-0.890625,0.125
1696251458150,-0.033447266,-0.9788208,0.17303467,0.0625,-0.140625,0.109375
1696251458192,-0.025878906,-0.98443604,0.1720581,-0.171875,0.125,0.328125
1696251458230,-0.032226562,-0.9776001,0.17547607,-0.21875,-0.65625,-0.421875
1696251458271,-0.032958984,-0.9783325,0.16668701,-0.546875,-1.03125,0.5
1696251458311,-0.024902344,-0.97784424,0.16571045,-0.5,0.1875,0.109375
1696251458351,-0.041259766,-0.98443604,0.17840576,0.0625,-0.03125,0.15625
1696251458391,-0.031982422,-0.97857666,0.16400146,-0.265625,-0.3125,-0.1875
1696251458431,-0.021240234,-0.9751587,0.16351318,0.734375,-0.4375,0.296875
1696251458471,-0.033691406,-0.9751587,0.17254639,-0.40625,-1.8125,0.578125
1696251458511,-0.039794922,-0.99542236,0.16546631,-0.625,-1.078125,0.5625
1696251458553,-0.040039062,-0.98150635,0.17327881,-0.15625,0.5625,0.640625
1696251458592,-0.026611328,-0.9824829,0.17132568,-0.046875,0.203125,0.578125
1696251458630,-0.008056641,-0.9741821,0.17132568,0.46875,-1.296875,0.625
1696251458671,-0.030029297,-1.0032349,0.17547607,-0.46875,-1.28125,1.4375
1696251458714,-0.043945312,-0.9692993,0.17718506,0.640625,-1.34375,0.453125
1696251458753,-0.040039062,-0.9710083,0.16351318,-0.984375,-1.234375,0.359375
1696251458791,-0.010498047,-0.97052,0.17474365,0.671875,0.796875,0.03125
1696251458830,-0.021728516,-0.9885864,0.17596436,-0.796875,-1.203125,0.40625
1696251458872,-0.03466797,-0.9834595,0.16864014,-0.609375,-0.671875,0.703125
1696251458912,-0.016601562,-0.97052,0.17156982,-0.421875,0.25,0.359375
1696251458952,-0.019042969,-0.9841919,0.17962646,0.0625,-0.6875,0.640625
1696251458991,-0.029541016,-0.98809814,0.1749878,-0.3125,-1.84375,0.859375
1696251459035,-0.039794922,-0.9829712,0.16497803,-1.15625,-0.453125,0.0625
1696251459071,-0.02758789,-0.97613525,0.17816162,0.359375,0.984375,-0.140625
1696251459090,-0.020507812,-0.989563,0.17425537,-0.671875,-0.21875,0.125
1696251459134,-0.01928711,-0.9685669,0.1749878,-0.640625,-0.15625,-0.140625
1696251459173,-0.032226562,-0.9866333,0.1762085,-0.28125,-0.328125,0.078125
1696251459233,-0.022705078,-0.98321533,0.17376709,-0.5,-0.109375,-0.046875
1696251459250,-0.020996094,-0.9783325,0.17694092,-0.65625,0.140625,-0.1875
1696251459291,-0.012451172,-0.9817505,0.16766357,-0.125,-0.125,-0.15625
1696251459352,-0.02734375,-0.9834595,0.17816162,-0.859375,-0.25,0.015625
1696251459392,-0.021240234,-0.99053955,0.17010498,-1.5,-0.5625,-0.578125
1696251459411,-0.010498047,-0.96539307,0.18450928,-4.484375,-0.90625,-0.796875
1696251459450,-0.021240234,-0.98101807,0.19744873,-3.84375,-0.875,0.8125
1696251459490,-0.048828125,-1.0042114,0.20281982,0.875,-3.9375,2.0625
1696251459531,-0.044433594,-1.010315,0.19232178,2.078125,0.34375,0.5
1696251459592,-0.020263672,-0.94415283,0.16033936,2.640625,0.3125,0.953125
1696251459610,-0.012939453,-0.99542236,0.17181396,9.71875,2.109375,2.953125
1696251459653,-0.011230469,-0.9854126,0.15057373,6.484375,-2.875,2.0
1696251459691,-0.029052734,-0.9495239,0.14959717,6.453125,-3.015625,1.609375
1696251459731,-0.0234375,-0.98687744,0.14642334,4.84375,-0.03125,1.765625
1696251459772,-0.007080078,-0.98101807,0.1437378,2.53125,-0.640625,-0.390625
1696251459811,-0.03881836,-0.9729614,0.12347412,0.765625,-0.484375,0.1875
1696251459851,-0.026611328,-0.97613525,0.1359253,1.203125,0.0,0.359375
1696251459891,-0.013183594,-0.98687744,0.14544678,-1.125,-2.046875,1.84375
1696251459953,0.010498047,-0.99713135,0.15228271,-0.671875,-2.140625,0.609375
1696251459972,-0.0026855469,-1.0020142,0.15203857,-0.53125,-1.734375,-0.65625
1696251460036,-0.037841797,-0.9768677,0.14471436,-2.03125,-1.453125,-0.40625
1696251460051,-0.027832031,-0.98443604,0.15057373,-0.796875,0.28125,-0.1875
1696251460093,-0.013671875,-0.98760986,0.15252686,-0.796875,0.359375,-0.578125
1696251460132,-0.014160156,-0.9771118,0.15472412,-0.796875,-0.390625,-0.296875
1696251460193,-0.020996094,-0.9795532,0.15570068,-2.28125,-0.1875,0.078125
1696251460211,-0.016357422,-0.9824829,0.14984131,-1.9375,-1.125,-0.390625
1696251460252,-0.018310547,-0.9890747,0.16156006,-1.671875,-0.984375,0.03125
1696251460291,-0.021728516,-0.9817505,0.1552124,-1.515625,-1.296875,0.171875
1696251460331,-0.020019531,-0.97125244,0.17401123,-0.4375,-0.25,-0.328125
1696251460351,-0.037353516,-1.0066528,0.15765381,-0.34375,-1.25,1.234375
1696251460392,-0.0031738281,-0.97198486,0.16448975,-0.4375,-1.03125,0.515625
1696251460430,-0.03149414,-0.96710205,0.16815186,-0.5625,-0.21875,-0.375
1696251460471,-0.026855469,-0.9800415,0.16619873,0.578125,0.625,-0.515625
1696251460513,-0.013427734,-0.9717407,0.16937256,-0.5625,0.453125,-0.421875
1696251460553,-0.021240234,-0.99102783,0.16229248,0.734375,-0.375,-0.921875
1696251460591,-0.0234375,-0.989563,0.15618896,-0.90625,-0.875,-0.671875
1696251460632,-0.032226562,-0.97052,0.15203857,0.078125,1.015625,-0.078125
1696251460670,-0.030029297,-1.0046997,0.1630249,0.375,2.0625,0.625
1696251460712,-0.013916016,-0.97052,0.16131592,0.140625,0.140625,-0.546875
1696251460751,-0.02709961,-0.9680786,0.15716553,-0.078125,0.265625,-0.890625
1696251460791,-0.022216797,-0.99468994,0.15863037,-0.265625,1.15625,-0.703125
1696251460833,-0.018554688,-0.9849243,0.168396,-0.0625,0.171875,0.46875
1696251460871,-0.030761719,-0.98321533,0.16448975,-1.03125,-1.34375,-0.015625
1696251460912,-0.033691406,-0.9746704,0.15863037,-0.328125,-0.71875,-0.03125
1696251460952,-0.03100586,-0.98443604,0.16326904,0.234375,-0.5625,0.203125
1696251460992,-0.03857422,-0.9937134,0.16082764,-0.6875,-0.75,-0.109375
1696251461031,-0.037841797,-0.9776001,0.15765381,-0.515625,0.078125,-0.046875
1696251461072,-0.030761719,-0.9824829,0.16229248,-0.125,0.8125,-0.484375
1696251461112,-0.022216797,-0.98223877,0.1618042,-0.609375,-0.078125,-0.578125
1696251461151,-0.02709961,-0.97735596,0.1618042,0.765625,0.28125,-0.234375
1696251461193,-0.028808594,-0.98516846,0.168396,1.171875,-0.203125,0.125
1696251461232,-0.025146484,-0.98223877,0.15863037,-0.296875,-0.8125,0.5
1696251461272,-0.0234375,-0.9800415,0.1749878,0.765625,-0.375,0.390625
1696251461311,-0.029541016,-0.9854126,0.15203857,-0.40625,-0.828125,0.5
1696251461350,-0.026855469,-0.9817505,0.15447998,0.84375,-0.75,0.765625
1696251461391,-0.028320312,-0.9788208,0.16375732,1.109375,0.0625,1.078125
1696251461431,-0.044189453,-0.9859009,0.14349365,0.890625,-0.34375,1.21875
1696251461471,-0.048828125,-0.98883057,0.15472412,0.25,-0.3125,1.8125
1696251461511,-0.010986328,-0.97540283,0.1605835,0.046875,0.953125,1.140625
1696251461552,-0.0012207031,-0.9866333,0.16571045,-0.421875,-0.109375,0.234375
1696251461593,-0.014160156,-0.9841919,0.16253662,-0.671875,-0.796875,0.125
1696251461652,-0.041503906,-0.98223877,0.15716553,-0.828125,-0.421875,-0.421875
1696251461673,-0.034423828,-0.98443604,0.15838623,0.078125,0.6875,-0.84375
1696251461690,-0.026855469,-0.9758911,0.15057373,-0.609375,-0.171875,-0.40625
1696251461754,-0.025390625,-0.99102783,0.16375732,-1.15625,-0.5,0.25
1696251461772,-0.025390625,-0.991272,0.16107178,-0.9375,-0.234375,0.09375
1696251461812,-0.022216797,-0.97540283,0.16229248,-0.78125,-0.65625,-0.296875
1696251461872,-0.028320312,-0.98028564,0.16082764,-0.703125,-0.09375,-0.1875
1696251461890,-0.024169922,-0.99468994,0.16082764,-0.390625,-0.421875,0.265625
1696251461955,-0.01953125,-0.9751587,0.17059326,0.203125,-0.078125,-0.234375
1696251461970,-0.03564453,-0.98883057,0.15423584,-0.5625,-1.40625,0.328125
1696251462011,-0.01977539,-0.9805298,0.15887451,-0.59375,-0.09375,0.21875
1696251462051,-0.032226562,-0.9939575,0.17181396,0.109375,-0.078125,0.40625
1696251462113,-0.02709961,-0.9771118,0.16766357,-0.21875,0.109375,-0.3125
1696251462131,-0.029052734,-0.97979736,0.16033936,0.046875,-0.53125,-0.15625
1696251462171,-0.028076172,-0.9866333,0.16326904,0.125,-0.125,0.109375
1696251462211,-0.028808594,-0.97613525,0.16864014,-0.125,0.6875,-0.3125
1696251462253,-0.029541016,-0.9932251,0.15911865,-1.265625,-0.625,0.328125
1696251462291,-0.025390625,-0.9807739,0.17034912,0.578125,-0.203125,0.203125
1696251462333,-0.034423828,-0.97979736,0.16278076,-1.0625,-1.8125,0.140625
1696251462396,-0.036132812,-0.97979736,0.16595459,-0.15625,0.359375,-0.0625
1696251462431,-0.032714844,-0.9883423,0.17425537,-0.34375,0.125,-0.109375
1696251462453,-0.018554688,-0.9795532,0.16473389,0.046875,0.078125,-0.1875
1696251462492,-0.02709961,-0.9746704,0.17059326,-0.5,-0.40625,0.453125
1696251462533,-0.03955078,-0.9981079,0.1630249,-0.5,-1.1875,0.546875
1696251462573,-0.025146484,-0.97540283,0.17254639,-0.109375,-0.734375,0.234375
1696251462612,-0.032714844,-0.972229,0.16522217,-0.671875,-0.78125,0.296875
1696251462653,-0.025390625,-0.97613525,0.1618042,-1.34375,-1.078125,0.609375
1696251462692,-0.030761719,-0.9841919,0.1720581,0.6875,0.34375,0.671875
1696251462752,-0.03491211,-0.9768677,0.16644287,-0.328125,-0.921875,0.28125
1696251462772,-0.038085938,-0.9883423,0.16912842,-0.0625,0.25,0.546875
1696251462811,-0.024414062,-0.9783325,0.17669678,0.0625,-0.125,0.34375
1696251462853,-0.02758789,-0.98101807,0.17108154,-1.328125,-0.375,-0.171875
1696251462892,-0.033691406,-0.9800415,0.17352295,0.8125,0.859375,-0.328125
1696251462973,-0.028808594,-0.98028564,0.17425537,0.25,1.421875,-0.703125
1696251462980,-0.030273438,-0.99591064,0.16619873,-0.984375,-1.140625,0.546875
1696251462991,-0.020996094,-0.95880127,0.18353271,-0.03125,1.75,-0.375
1696251463032,-0.03125,-0.9817505,0.1708374,-0.625,-0.65625,0.109375
1696251463075,-0.015625,-0.9788208,0.16912842,-0.796875,0.015625,0.5
1696251463111,-0.022460938,-0.98809814,0.1774292,-0.453125,-1.1875,0.5
1696251463153,-0.02758789,-0.9819946,0.18157959,0.578125,-1.703125,0.1875
1696251463191,-0.04345703,-0.96759033,0.1618042,-1.15625,-1.46875,1.1875
1696251463231,-0.025634766,-0.9763794,0.1774292,-0.296875,0.125,0.125
1696251463271,-0.033203125,-1.0020142,0.18499756,0.0625,-0.8125,0.65625
1696251463312,-0.02758789,-0.9702759,0.17376709,-0.859375,-1.8125,0.203125
1696251463354,-0.03930664,-0.9663696,0.16253662,-1.875,-0.984375,-0.125
1696251463392,-0.029052734,-0.9883423,0.18011475,0.015625,0.59375,0.203125
1696251463433,-0.025634766,-0.98809814,0.18988037,-1.03125,-0.578125,0.203125
1696251463471,-0.02758789,-0.97125244,0.18011475,-0.3125,-0.953125,-0.296875
1696251463510,-0.030273438,-0.9768677,0.18499756,-0.421875,-0.09375,0.53125
1696251463551,-0.03540039,-0.9841919,0.18109131,-1.34375,-1.0,0.359375
1696251463593,-0.030273438,-0.97369385,0.18328857,-2.078125,-1.59375,-0.765625
1696251463632,-0.029541016,-0.97052,0.1864624,-0.765625,-0.140625,-0.046875
1696251463671,-0.024902344,-0.98516846,0.1918335,0.203125,1.0625,0.15625
1696251463711,-0.032714844,-0.99591064,0.18719482,0.453125,-0.484375,0.21875
1696251463752,-0.034179688,-0.9631958,0.18743896,-0.140625,-0.734375,0.28125
1696251463791,-0.029052734,-0.9788208,0.18792725,-0.203125,-1.21875,-0.046875
1696251463830,-0.028320312,-0.9780884,0.19744873,-2.046875,-0.703125,-0.53125
1696251463872,-0.033935547,-0.9829712,0.17791748,-3.828125,-2.1875,-0.71875
1696251463914,-0.029541016,-0.99005127,0.20550537,-7.3125,-1.34375,-1.09375
1696251463954,-0.02709961,-0.9446411,0.2538452,-12.59375,-2.375,-1.53125
1696251463991,-0.059570312,-0.97857666,0.21356201,0.796875,-0.4375,0.703125
1696251464032,-0.055664062,-1.0261841,0.25531006,3.84375,-0.703125,2.25
1696251464072,-0.0390625,-0.97735596,0.184021,5.6875,-2.5,2.5
1696251464116,-0.0087890625,-0.94732666,0.18841553,13.171875,-2.078125,1.796875
1696251464152,-0.020751953,-0.960022,0.18060303,9.59375,-2.125,2.15625
1696251464192,-0.043945312,-0.9968872,0.12689209,8.3125,-5.515625,1.859375
1696251464231,-0.03491211,-0.97979736,0.16546631,5.25,-0.390625,1.09375
1696251464271,-0.041992188,-0.9639282,0.15081787,3.3125,2.28125,1.265625
1696251464292,-0.01953125,-0.97857666,0.13201904,0.609375,0.609375,1.875
1696251464333,-0.01586914,-0.9949341,0.16766357,0.921875,0.84375,1.3125
1696251464371,-0.0107421875,-0.9834595,0.15911865,0.109375,-0.5625,0.609375
1696251464435,-0.020263672,-0.97906494,0.14935303,-2.625,-0.9375,0.125
1696251464451,-0.017578125,-0.9885864,0.15814209,1.375,1.84375,0.125
1696251464492,-0.008056641,-0.98883057,0.15740967,-0.171875,-0.375,0.359375
1696251464552,-0.038085938,-0.97662354,0.15618896,-1.375,-2.125,0.03125
1696251464573,-0.028320312,-0.9776001,0.15667725,-0.421875,1.703125,-0.703125
1696251464612,-0.018554688,-0.99224854,0.1486206,-0.265625,0.765625,-0.125
1696251464674,-0.024169922,-0.9846802,0.15496826,-1.296875,-0.4375,0.125
1696251464693,-0.030517578,-0.98321533,0.15667725,-0.75,-0.125,-0.640625
1696251464731,-0.017089844,-0.9783325,0.1593628,-0.109375,0.546875,-0.765625
1696251464774,-0.004638672,-0.97491455,0.1593628,0.015625,0.546875,-0.03125
1696251464813,-0.023925781,-0.9885864,0.16033936,0.234375,-1.390625,0.296875
1696251464851,-0.041015625,-1.0059204,0.15887451,-0.5,-2.34375,0.671875
1696251464892,-0.025146484,-0.96832275,0.15814209,0.625,-0.8125,-0.328125
1696251464953,-0.013427734,-0.9800415,0.16131592,-1.90625,-0.53125,-0.09375
1696251464970,-0.022949219,-0.9846802,0.16644287,-1.453125,-1.65625,0.34375
1696251465011,-0.024902344,-0.98638916,0.16986084,-1.25,-0.9375,-0.453125
1696251465073,-0.03930664,-0.9800415,0.17279053,-0.375,0.328125,-0.625
1696251465092,-0.029052734,-0.97857666,0.17010498,0.078125,0.9375,0.59375
1696251465153,-0.016357422,-0.9771118,0.16522217,-0.15625,-0.515625,0.171875
1696251465170,-0.032958984,-0.98687744,0.1828003,0.140625,-0.5625,0.328125
1696251465212,-0.023925781,-0.98516846,0.16644287,-0.734375,-0.609375,0.390625
1696251465273,-0.029052734,-0.97320557,0.15618896,-0.546875,-0.046875,-0.03125
1696251465291,-0.024414062,-0.9859009,0.17376709,0.203125,-0.046875,0.03125
1696251465331,-0.020751953,-0.9866333,0.16546631,-0.703125,-0.921875,0.125
1696251465371,-0.02758789,-0.98321533,0.17156982,-0.734375,0.03125,-0.109375
1696251465412,-0.03515625,-0.9771118,0.17303467,0.265625,-0.171875,0.0625
1696251465450,-0.028076172,-0.97491455,0.16400146,-0.6875,-0.484375,0.15625
1696251465491,-0.02319336,-0.98760986,0.17572021,0.390625,0.234375,0.171875
1696251465532,-0.02319336,-0.9854126,0.17376709,1.234375,0.03125,-0.53125
1696251465572,-0.03881836,-0.97613525,0.16131592,-0.609375,-2.046875,0.6875
1696251465592,-0.031982422,-0.9859009,0.16644287,-0.859375,0.46875,0.21875
1696251465631,-0.015625,-0.9807739,0.17010498,-0.40625,-0.015625,-0.203125
1696251465672,-0.03149414,-0.98223877,0.16595459,-0.453125,-1.359375,0.28125
1696251465712,-0.033935547,-0.97979736,0.16766357,-0.3125,-0.046875,0.078125
1696251465753,-0.02758789,-0.98443604,0.17279053,0.40625,0.71875,-0.359375
1696251465790,-0.022705078,-0.9854126,0.17816162,-0.265625,0.03125,-0.40625
1696251465832,-0.03540039,-0.9729614,0.15716553,-1.078125,-0.25,-0.015625
1696251465873,-0.03466797,-0.9854126,0.1762085,-0.09375,1.109375,0.234375
1696251465910,-0.025146484,-1.0015259,0.1762085,0.21875,-1.484375,0.703125
1696251465950,-0.031982422,-0.97003174,0.16888428,-0.375,-0.515625,-0.078125
1696251465992,-0.033447266,-0.96832275,0.1720581,0.015625,0.1875,-0.34375
1696251466030,-0.025634766,-0.9973755,0.1696167,-0.90625,-0.328125,0.390625
1696251466073,-0.02758789,-0.9846802,0.16912842,-0.25,0.203125,-0.28125
1696251466112,-0.025878906,-0.9714966,0.17376709,0.3125,-0.34375,-0.078125
1696251466150,-0.021484375,-0.97198486,0.17767334,-0.296875,-0.203125,1.125
1696251466194,-0.029296875,-0.9793091,0.18157959,-0.296875,-0.921875,0.0625
1696251466229,-0.045898438,-0.987854,0.18084717,-0.25,-0.5625,0.1875
1696251466272,-0.02709961,-0.97735596,0.16595459,0.09375,0.234375,0.359375
1696251466312,-0.022705078,-0.9795532,0.1671753,-0.359375,-0.359375,-0.296875
1696251466351,-0.024902344,-0.9824829,0.1720581,-0.609375,0.21875,0.03125
1696251466393,-0.028076172,-0.97613525,0.17791748,-0.03125,-0.421875,0.453125
1696251466432,-0.033203125,-0.9834595,0.18157959,-0.703125,0.3125,-0.03125
1696251466471,-0.01977539,-0.97662354,0.18328857,-0.3125,-0.09375,-0.40625
1696251466512,-0.033203125,-0.9758911,0.17303467,-0.28125,-1.046875,0.4375
1696251466551,-0.040283203,-0.98394775,0.18182373,-0.5,-0.703125,0.4375
1696251466593,-0.028564453,-0.9854126,0.17401123,-0.171875,-0.5,0.15625
1696251466631,-0.036865234,-0.9714966,0.17840576,-0.625,-0.8125,0.296875
1696251466673,-0.030029297,-0.97857666,0.18450928,0.046875,-0.09375,0.234375
1696251466713,-0.022216797,-0.9841919,0.17254639,0.265625,-0.96875,0.125
1696251466751,-0.026367188,-0.9793091,0.17572021,1.5,-0.40625,0.46875
1696251466793,-0.033691406,-0.9758911,0.17694092,-0.359375,-1.25,0.6875
1696251466834,-0.037109375,-0.9776001,0.17059326,-0.453125,-0.5,0.140625
1696251466914,-0.040283203,-0.9898071,0.18328857,-0.390625,0.109375,0.46875
1696251466918,-0.028320312,-0.9783325,0.17645264,-0.328125,-0.921875,0.484375
1696251466930,-0.029052734,-0.9776001,0.17474365,-0.5625,-0.375,0.015625
1696251466971,-0.03149414,-0.9800415,0.18670654,-1.125,-0.046875,0.203125
1696251467014,-0.037353516,-0.98321533,0.1906128,-0.09375,0.75,-0.15625
1696251467052,-0.04638672,-0.9849243,0.17962646,-0.8125,0.890625,-0.671875
1696251467113,-0.03100586,-0.96954346,0.17449951,-0.640625,0.671875,-0.546875
1696251467134,-0.030273438,-0.98150635,0.17938232,0.15625,1.515625,0.5625
1696251467172,-0.029541016,-0.98223877,0.19744873,-0.40625,0.328125,-0.296875
1696251467214,-0.032714844,-0.9812622,0.18084717,-0.078125,0.3125,-0.328125
1696251467251,-0.028564453,-0.97662354,0.17718506,-0.578125,0.046875,0.171875
1696251467312,-0.03491211,-0.9776001,0.18695068,-0.171875,0.046875,0.21875
1696251467353,-0.026367188,-0.9793091,0.18231201,0.453125,-0.390625,0.609375
1696251467370,-0.024414062,-0.9776001,0.18133545,0.859375,0.125,0.484375
1696251467433,-0.032226562,-0.9727173,0.1798706,-0.109375,-0.796875,0.6875
1696251467451,-0.031982422,-0.98101807,0.18231201,-0.609375,-0.6875,0.359375
1696251467493,-0.030517578,-0.98321533,0.18939209,1.1875,0.984375,0.421875
1696251467531,-0.024414062,-0.9795532,0.1786499,0.109375,-1.40625,0.71875
1696251467573,-0.036132812,-0.98321533,0.1774292,0.046875,-0.421875,0.34375
1696251467636,-0.026123047,-0.986145,0.18011475,0.109375,-0.15625,0.578125
1696251467673,-0.020507812,-0.96881104,0.17474365,-0.21875,-0.328125,0.1875
1696251467713,-0.024902344,-0.9859009,0.18353271,-0.34375,-0.921875,0.65625
1696251467731,-0.028320312,-0.9768677,0.17694092,0.140625,-0.875,0.578125
1696251467771,-0.03540039,-0.9866333,0.18182373,0.78125,-0.546875,0.546875
1696251467812,-0.024414062,-0.9812622,0.18304443,0.265625,-0.296875,0.5
1696251467852,-0.022705078,-0.97613525,0.17230225,0.40625,-0.65625,0.234375
1696251467916,-0.02709961,-0.98223877,0.19818115,0.546875,0.34375,0.109375
1696251467932,-0.040527344,-0.9866333,0.17669678,-0.890625,-1.84375,0.40625
1696251467971,-0.02709961,-0.97442627,0.19085693,1.28125,1.78125,-0.34375
1696251468011,-0.029785156,-0.9956665,0.16986084,0.484375,-2.09375,0.78125
1696251468073,-0.018310547,-0.96832275,0.17010498,-0.03125,0.34375,0.5625
1696251468090,-0.033691406,-0.9837036,0.18353271,0.359375,-0.34375,0.15625
1696251468132,-0.03173828,-0.9885864,0.17718506,-0.5,0.375,0.703125
1696251468171,-0.025878906,-0.9788208,0.17327881,-0.375,-0.140625,-0.125
1696251468212,-0.021972656,-0.9776001,0.17449951,0.03125,0.609375,-0.125
1696251468234,-0.024658203,-0.98883057,0.17572021,-0.796875,-0.40625,0.53125
1696251468271,-0.028076172,-0.9841919,0.18792725,0.0,-0.515625,-0.078125
1696251468314,-0.029785156,-0.9829712,0.16864014,-0.59375,-0.703125,0.09375
1696251468351,-0.023925781,-0.9793091,0.17352295,-0.859375,0.0,-0.25
1696251468393,-0.014892578,-0.9758911,0.17572021,-0.671875,0.5,-0.265625
1696251468433,-0.0126953125,-0.9807739,0.17401123,-0.078125,0.53125,-0.109375
1696251468471,-0.014892578,-0.9829712,0.16448975,-0.125,-0.9375,0.671875
1696251468511,-0.036621094,-0.9907837,0.1864624,-0.5625,-0.703125,1.0
1696251468551,-0.025146484,-0.9768677,0.17376709,-1.109375,1.21875,0.109375
1696251468592,-0.009277344,-0.9800415,0.18475342,1.3125,1.0625,-0.84375
1696251468635,-0.023925781,-0.97613525,0.17791748,0.71875,-1.28125,1.390625
1696251468671,-0.044433594,-0.9924927,0.18206787,-0.1875,0.265625,1.234375
1696251468715,-0.024658203,-0.97247314,0.19207764,1.078125,0.5625,0.15625
1696251468753,2.4414062E-4,-0.95806885,0.17010498,0.40625,-1.6875,0.171875
1696251468793,-0.008056641,-0.9849243,0.17791748,-1.75,-1.53125,0.578125
1696251468832,-0.025390625,-1.0005493,0.19598389,-1.4375,-1.9375,-0.328125
1696251468891,-0.028564453,-0.9993286,0.18914795,-4.28125,-2.84375,-0.640625
1696251468933,-0.04345703,-0.9783325,0.19281006,2.453125,-4.359375,0.65625
1696251468951,-0.045166016,-0.99102783,0.2267456,2.484375,-5.84375,1.6875
1696251469012,-0.02734375,-0.9534302,0.18109131,-2.65625,-7.359375,1.703125
1696251469032,-0.023925781,-0.9746704,0.14593506,9.9375,-2.5,0.609375
1696251469070,0.0063476562,-0.9817505,0.16400146,2.453125,-4.578125,1.546875
1696251469112,-0.033203125,-0.9783325,0.1486206,3.203125,-0.4375,2.78125
1696251469172,-0.03515625,-0.97540283,0.16131592,1.4375,-0.015625,-0.328125
1696251469190,-0.019042969,-0.9741821,0.18011475,-0.296875,0.15625,-0.328125
1696251469232,-0.029785156,-0.97540283,0.15228271,-1.203125,0.515625,0.3125
1696251469272,-0.009521484,-0.989563,0.17596436,-1.53125,0.78125,-0.078125
1696251469311,-0.016601562,-0.9873657,0.18011475,-0.890625,1.234375,-1.484375
1696251469353,-0.009033203,-0.98760986,0.15911865,-1.25,0.0625,0.140625
1696251469393,-0.022460938,-0.9783325,0.16546631,-0.171875,0.109375,0.265625
1696251469431,-0.022460938,-0.9746704,0.18011475,-0.171875,-0.625,-1.09375
1696251469472,-0.035888672,-0.99102783,0.168396,-0.484375,1.078125,-0.09375
1696251469512,-0.024902344,-0.97125244,0.16375732,-0.40625,-0.140625,-0.390625
1696251469532,-0.013916016,-0.98272705,0.16107178,1.15625,0.953125,-0.734375
1696251469573,-0.03564453,-0.97540283,0.15789795,2.046875,1.28125,0.25
1696251469612,-0.023925781,-1.0134888,0.1486206,0.984375,-0.0625,1.234375
1696251469651,0.0053710938,-0.96539307,0.16668701,-0.4375,-1.796875,0.25
1696251469692,-0.023925781,-0.9636841,0.17401123,-0.765625,-1.46875,0.34375
1696251469732,-0.044433594,-0.9902954,0.16375732,-0.203125,-2.640625,1.5625
1696251469771,-0.041015625,-0.986145,0.15863037,-1.609375,-2.046875,0.46875
1696251469813,-0.029052734,-0.97857666,0.16595459,-0.84375,-0.515625,-0.390625
1696251469856,-0.0014648438,-0.96710205,0.17547607,-0.796875,0.59375,-0.421875
1696251469891,-0.020507812,-0.9690552,0.17034912,-0.9375,-0.8125,-0.4375
1696251469932,-0.049804688,-0.9981079,0.18304443,-0.0625,-0.3125,-0.125
1696251469970,-0.05493164,-0.99468994,0.17547607,-0.140625,0.171875,-0.46875
1696251470011,-0.020507812,-0.97491455,0.1618042,-1.53125,2.296875,-0.84375
1696251470055,0.015380859,-0.96221924,0.17889404,-0.015625,1.375,-1.484375
1696251470091,-0.01928711,-0.9846802,0.1696167,-0.515625,-1.375,-0.46875
1696251470132,-0.076171875,-0.99005127,0.17938232,-0.171875,-1.46875,0.796875
1696251470171,-0.056396484,-0.9837036,0.17547607,-0.484375,0.859375,-0.171875
1696251470212,0.0029296875,-0.9663696,0.16546631,0.078125,1.9375,-0.46875
1696251470252,-0.009765625,-0.9746704,0.16448975,-0.03125,-0.203125,0.25
1696251470290,-0.03491211,-0.9866333,0.17669678,-0.078125,-2.1875,0.6875
1696251470333,-0.044433594,-0.99298096,0.17694092,0.375,-0.421875,0.6875
1696251470373,-0.03491211,-0.9800415,0.17254639,0.015625,-0.375,0.390625
1696251470411,-0.017822266,-0.9614868,0.1708374,0.5625,-0.578125,0.390625
1696251470454,-0.018310547,-0.9714966,0.17010498,-0.546875,-1.828125,0.78125
1696251470491,-0.046142578,-0.9981079,0.17572021,0.46875,-1.140625,0.046875
1696251470531,-0.037353516,-0.98638916,0.18328857,0.859375,1.0625,-0.640625
1696251470571,-0.043701172,-0.96881104,0.1642456,-0.40625,-0.09375,-0.234375
1696251470612,-0.041015625,-0.9915161,0.16107178,-0.734375,0.125,0.0
1696251470653,-0.027832031,-0.99713135,0.17938232,-1.53125,0.3125,0.015625
1696251470693,-0.02368164,-0.97906494,0.18182373,-0.921875,0.53125,-0.71875
1696251470731,-0.033691406,-0.9651489,0.1708374,-1.359375,-0.1875,-0.171875
1696251470771,-0.025878906,-0.97540283,0.1720581,0.0625,-0.453125,0.046875
1696251470835,-0.030761719,-0.99053955,0.18255615,-0.375,-0.890625,0.25
1696251470851,-0.038330078,-0.9788208,0.17767334,-0.15625,-0.65625,0.09375
1696251470871,-0.030273438,-0.9819946,0.17938232,-0.78125,-0.75,-0.015625
1696251470912,-0.026855469,-0.97735596,0.18206787,0.46875,-0.078125,0.625
1696251470953,-0.032958984,-0.9793091,0.17718506,-1.03125,-0.921875,0.46875
1696251470993,-0.024169922,-0.9776001,0.17840576,1.109375,0.1875,0.15625
1696251471031,-0.029785156,-0.9800415,0.17962646,-0.03125,-0.421875,0.53125
1696251471077,-0.03491211,-0.9717407,0.17303467,-0.5625,-0.703125,-0.203125
1696251471113,-0.03491211,-0.9866333,0.1828003,0.359375,-0.015625,0.546875
1696251471151,-0.030029297,-0.9817505,0.17840576,-0.671875,-0.4375,0.0
1696251471192,-0.035888672,-0.97540283,0.16888428,-1.078125,-0.453125,-0.015625
1696251471233,-0.01586914,-0.98101807,0.18865967,-0.296875,0.453125,0.21875
1696251471294,-0.028808594,-0.9961548,0.1918335,-0.9375,-0.484375,-0.203125
1696251471311,-0.03857422,-0.9734497,0.17352295,-0.40625,-1.453125,-0.640625
1696251471376,-0.025146484,-0.960022,0.18011475,-0.46875,0.5625,-0.09375
1696251471393,-0.048583984,-0.99053955,0.18182373,-0.546875,-1.5,0.890625
1696251471431,-0.03515625,-0.99224854,0.1864624,-1.359375,-0.171875,0.015625
1696251471494,-0.026123047,-0.9649048,0.18133545,-2.734375,0.484375,-1.09375
1696251471511,-0.009521484,-0.9651489,0.18939209,-2.890625,-0.515625,0.1875
1696251471551,-0.052246094,-1.0056763,0.19940186,1.546875,-4.1875,2.296875
1696251471612,-0.060546875,-0.9854126,0.20672607,2.34375,-1.84375,0.890625
1696251471630,-0.04345703,-0.97491455,0.18890381,1.53125,0.90625,0.796875
1696251471673,-0.020996094,-0.9800415,0.1720581,1.109375,0.453125,0.96875
1696251471711,-0.0126953125,-0.9932251,0.1942749,-2.921875,-0.359375,1.109375
1696251471772,-0.031982422,-0.99053955,0.18621826,0.453125,-0.828125,1.046875
1696251471790,-0.03100586,-0.9920044,0.17889404,-1.140625,0.21875,0.15625
1696251471854,-0.030761719,-0.9573364,0.19232178,0.3125,1.75,1.015625
1696251471871,-0.03173828,-0.972229,0.17230225,1.4375,0.609375,0.59375
1696251471912,-0.03491211,-0.9834595,0.19281006,2.609375,0.359375,0.59375
1696251471953,-0.020263672,-0.9751587,0.18328857,3.015625,0.0,0.984375
1696251471992,-0.024902344,-0.98809814,0.17034912,1.078125,-2.40625,0.65625
1696251472033,-0.026123047,-0.96417236,0.15032959,4.484375,-1.15625,0.65625
1696251472073,-9.765625E-4,-0.9763794,0.16229248,3.84375,-3.3125,0.859375
1696251472133,-0.03491211,-0.9788208,0.16986084,2.328125,-2.9375,0.859375
1696251472151,-0.04711914,-0.97735596,0.15814209,1.5,-3.953125,1.640625
1696251472171,-0.024169922,-0.97784424,0.16400146,-0.265625,-3.546875,1.765625
1696251472213,0.0056152344,-0.9981079,0.17254639,-2.046875,-1.671875,0.5625
1696251472251,-0.006591797,-0.99005127,0.16571045,-1.84375,-0.78125,-1.0625
1696251472292,-0.03149414,-0.9627075,0.17181396,-1.359375,1.046875,-1.09375
1696251472333,-0.024414062,-0.9873657,0.16473389,-1.484375,1.171875,-0.578125
1696251472373,-0.024902344,-0.99420166,0.17327881,0.171875,-0.390625,-0.53125
1696251472412,-0.020263672,-0.97320557,0.17059326,-1.65625,-0.703125,-0.8125
1696251472453,-0.026123047,-0.9771118,0.17303467,-1.28125,0.40625,-0.859375
1696251472494,-0.026611328,-0.9890747,0.16864014,-0.78125,-0.765625,0.125
1696251472530,-0.026123047,-0.9829712,0.17303467,-0.765625,-0.671875,0.296875
1696251472572,-0.015625,-0.97491455,0.1774292,-0.296875,-0.09375,-0.359375
1696251472612,-0.030029297,-0.97247314,0.1828003,-0.34375,-0.46875,0.265625
1696251472652,-0.030273438,-0.9866333,0.16815186,-0.359375,-0.71875,0.171875
1696251472693,-0.037109375,-0.98101807,0.18231201,0.8125,-0.296875,0.3125
1696251472733,-0.029541016,-0.96832275,0.17279053,-0.078125,0.171875,0.1875
1696251472771,-0.016845703,-0.975647,0.17547607,0.140625,0.3125,-0.46875
1696251472812,-0.026367188,-0.98809814,0.1828003,-0.171875,0.109375,0.421875
1696251472852,-0.044433594,-0.9939575,0.16278076,-0.703125,-1.3125,-0.09375
1696251472892,-0.028076172,-0.97906494,0.1864624,0.71875,0.453125,-0.171875
1696251472931,-0.029785156,-0.9717407,0.17547607,-0.859375,0.109375,-0.203125
1696251472973,-0.030273438,-0.986145,0.16253662,-0.96875,0.40625,0.234375
1696251473013,-0.025878906,-0.986145,0.17645264,-0.34375,-0.515625,-0.296875
1696251473052,-0.021728516,-0.9763794,0.17718506,-0.078125,0.140625,-0.015625
1696251473090,-0.032470703,-0.9727173,0.17694092,0.515625,-0.3125,0.40625
1696251473132,-0.04296875,-0.9783325,0.17254639,-0.125,-1.15625,0.03125
1696251473171,-0.03564453,-0.98272705,0.18792725,-0.328125,0.078125,-0.21875
1696251473214,-0.03149414,-0.9795532,0.18743896,-0.96875,0.734375,-0.5
1696251473253,-0.037353516,-0.9697876,0.168396,-0.921875,-1.046875,-0.546875
1696251473293,-0.03149414,-0.9829712,0.17547607,0.828125,0.015625,-0.3125
1696251473334,-0.021728516,-0.9771118,0.18304443,1.28125,-0.65625,-0.265625
1696251473374,-0.036132812,-0.97906494,0.18353271,1.015625,-0.84375,-0.84375
1696251473412,-0.043945312,-0.97491455,0.1749878,-1.578125,-0.734375,-0.078125
1696251473454,-0.037109375,-0.9746704,0.17059326,-0.96875,0.03125,-0.453125
1696251473470,-0.032714844,-0.98443604,0.18621826,-0.125,0.203125,-0.109375
1696251473512,-0.03491211,-0.97247314,0.18060303,-0.890625,-0.375,-0.125
1696251473552,-0.032714844,-0.98028564,0.184021,0.4375,0.21875,0.265625
1696251473596,-0.032958984,-0.99298096,0.17816162,-0.375,-0.96875,0.109375
1696251473631,-0.041992188,-0.9819946,0.17816162,-0.671875,-0.828125,-0.109375
1696251473672,-0.045898438,-0.97784424,0.18450928,0.046875,-0.203125,-0.28125
1696251473712,-0.032714844,-0.9763794,0.1708374,-0.734375,-0.0625,-0.046875
1696251473753,-0.03125,-0.9763794,0.17254639,1.09375,0.40625,0.390625
1696251473796,-0.03955078,-0.99224854,0.17718506,0.671875,-0.09375,1.125
1696251473831,-0.032958984,-0.97320557,0.17816162,1.28125,0.1875,1.0625
1696251473873,-0.046142578,-0.9768677,0.17425537,0.53125,-0.484375,1.015625
1696251473913,-0.03857422,-0.9805298,0.17669678,-1.15625,-0.171875,1.3125
1696251473951,-0.026855469,-0.99005127,0.18133545,-0.125,0.140625,0.90625
1696251474013,-0.022949219,-0.9819946,0.17718506,-0.546875,-0.984375,1.015625
1696251474029,-0.030517578,-0.97003174,0.17791748,-0.6875,-0.328125,0.5
1696251474075,-0.041503906,-0.9873657,0.18377686,1.375,-0.46875,1.328125
1696251474113,-0.037841797,-0.97369385,0.17889404,0.65625,-0.578125,0.953125
1696251474175,-0.03173828,-0.97491455,0.17230225,0.421875,-0.6875,0.609375
1696251474192,-0.028564453,-0.9780884,0.16986084,1.390625,-0.1875,0.578125
1696251474256,-0.03125,-0.9834595,0.17547607,1.609375,-0.359375,0.640625
1696251474269,-0.029052734,-0.972229,0.17059326,0.9375,-0.484375,0.359375
1696251474334,-0.03100586,-0.98272705,0.16668701,0.390625,0.03125,0.296875
1696251474350,-0.021240234,-0.9859009,0.17254639,0.375,-0.09375,-0.109375
1696251474392,-0.028564453,-0.9837036,0.16986084,-0.109375,-0.4375,0.359375
1696251474454,-0.014404297,-0.9920044,0.17547607,0.46875,-0.359375,0.125
1696251474471,-0.018554688,-0.986145,0.16619873,0.078125,-0.71875,-0.203125
1696251474512,-0.029052734,-0.97784424,0.16937256,0.3125,-1.46875,0.296875
1696251474551,-0.022949219,-0.9746704,0.17181396,0.078125,-0.875,-0.265625
1696251474593,-0.037841797,-0.98809814,0.16497803,-0.28125,-1.640625,0.015625
1696251474632,-0.038085938,-0.98394775,0.16229248,-1.234375,-0.828125,0.0
1696251474691,-0.03515625,-0.9807739,0.17449951,-0.375,-0.25,-0.328125
1696251474713,-0.018310547,-0.97906494,0.17327881,-0.78125,-0.25,0.046875
1696251474774,-0.03515625,-0.97906494,0.16522217,-1.140625,-0.640625,-0.03125
1696251474791,-0.024658203,-0.9795532,0.18890381,-0.3125,-0.046875,-0.28125
1696251474812,-0.024169922,-0.9927368,0.18109131,-1.296875,-0.4375,-0.109375
1696251474852,-0.029052734,-0.97125244,0.17572021,-1.90625,-0.625,-0.5625
1696251474893,-0.038085938,-0.9793091,0.18450928,-4.765625,-0.5,-0.078125
1696251474930,-0.048095703,-0.99176025,0.18182373,-4.03125,-0.828125,0.046875
1696251474973,-0.025634766,-0.9819946,0.19915771,0.4375,0.53125,0.328125
1696251475012,-0.029785156,-0.97857666,0.18670654,1.46875,-0.9375,0.484375
1696251475052,-0.046875,-0.98321533,0.18719482,2.203125,-1.03125,0.71875
1696251475093,-0.03564453,-0.97857666,0.18060303,1.03125,1.09375,0.390625
1696251475133,-0.032226562,-0.9758911,0.17791748,3.96875,2.265625,0.6875
1696251475175,-0.013427734,-0.98931885,0.16937256,4.3125,1.984375,0.875
1696251475214,-0.02319336,-0.9795532,0.16522217,4.84375,2.125,1.296875
1696251475251,-0.03881836,-0.98516846,0.16912842,4.421875,2.46875,1.859375
1696251475292,-0.025146484,-0.97906494,0.15838623,3.9375,1.671875,0.828125
1696251475332,-0.024658203,-0.991272,0.15545654,5.828125,1.109375,2.359375
1696251475372,-0.016845703,-0.98516846,0.13201904,5.9375,-0.78125,2.015625
1696251475411,-0.011474609,-0.9758911,0.14031982,2.78125,-2.140625,1.125
1696251475451,-0.018554688,-0.98223877,0.11639404,2.046875,-1.3125,1.234375
1696251475493,-0.0043945312,-0.9915161,0.13031006,2.71875,-2.25,0.21875
1696251475532,-0.025146484,-0.98101807,0.13031006,0.15625,-2.65625,-0.15625
1696251475571,-0.04736328,-0.9631958,0.11102295,-2.046875,-4.171875,0.390625
1696251475612,-0.032958984,-0.9907837,0.14129639,-2.171875,-3.859375,1.40625
1696251475652,0.010009766,-0.98931885,0.14886475,-2.578125,-2.25,0.375
1696251475692,0.0075683594,-0.9898071,0.1395874,-0.75,-2.625,-0.78125
1696251475734,-0.024902344,-0.98638916,0.13934326,-0.9375,-1.875,-0.40625
1696251475771,-0.026123047,-0.9734497,0.13446045,0.3125,0.078125,-0.21875
1696251475811,-0.014892578,-0.97784424,0.14154053,0.390625,-0.046875,-0.515625
1696251475855,-0.021240234,-0.98394775,0.13641357,1.875,-0.46875,0.5
1696251475893,-0.019042969,-1.0029907,0.13348389,0.5625,0.3125,1.421875
1696251475935,-0.020751953,-0.9702759,0.13446045,0.609375,0.046875,0.171875
1696251475973,-0.0073242188,-0.97735596,0.13812256,0.359375,0.375,0.140625
1696251476013,-0.016113281,-0.97979736,0.13323975,-0.46875,-0.75,0.984375
1696251476053,-0.032226562,-0.99298096,0.13006592,-0.96875,-0.90625,0.65625
1696251476092,-0.0073242188,-0.9866333,0.14251709,-0.296875,0.9375,-0.296875
1696251476110,-0.013671875,-0.9949341,0.14007568,-1.28125,0.21875,0.0
1696251476171,-0.009521484,-0.9729614,0.14007568,-0.546875,-0.75,-0.125
1696251476196,-0.013183594,-0.99053955,0.14129639,-1.609375,-1.53125,0.265625
1696251476252,-0.02758789,-0.9817505,0.14471436,-1.21875,-0.609375,-0.046875
1696251476273,-0.013916016,-0.97979736,0.14398193,-0.625,0.140625,-0.484375
1696251476312,-0.009521484,-0.9768677,0.14178467,-0.890625,-0.1875,-0.375
1696251476352,-0.018554688,-0.9854126,0.14105225,-1.265625,-0.78125,-0.140625
1696251476391,-0.03125,-0.99102783,0.14691162,-1.140625,-0.8125,0.078125
1696251476432,-0.015380859,-0.98150635,0.14788818,-1.234375,0.3125,-0.609375
1696251476494,-0.010253906,-0.97125244,0.15179443,0.953125,1.140625,-1.078125
1696251476511,-0.033203125,-0.987854,0.14031982,-1.140625,-1.515625,0.46875
1696251476552,-0.032714844,-0.98638916,0.1329956,-0.875,-0.03125,-0.25
1696251476591,-0.030517578,-0.9932251,0.15545654,-0.359375,-0.109375,0.21875
1696251476632,-0.0087890625,-0.97320557,0.15887451,0.21875,0.078125,0.1875
1696251476671,-0.018310547,-0.9819946,0.14227295,0.265625,-0.59375,0.203125
1696251476711,-0.02709961,-0.9873657,0.15203857,0.328125,0.046875,0.078125
1696251476751,-0.027832031,-0.99298096,0.14959717,-0.15625,0.0,-0.046875
1696251476795,-0.020019531,-0.9776001,0.14154053,0.53125,-0.390625,-0.40625
1696251476834,-0.017333984,-0.9805298,0.14447021,0.671875,0.203125,0.6875
1696251476871,-0.026367188,-0.9902954,0.15325928,-0.484375,-1.375,0.59375
1696251476913,-0.020751953,-0.986145,0.14886475,-0.734375,-0.59375,-0.078125
1696251476954,-0.016601562,-0.9829712,0.14178467,0.140625,-0.65625,-0.125
1696251476993,-0.025390625,-0.98272705,0.15008545,0.1875,-1.25,0.484375
1696251477032,-0.028320312,-0.98809814,0.15008545,-0.203125,-0.953125,0.4375
1696251477071,-0.024902344,-0.9846802,0.14813232,-0.203125,0.015625,-0.109375
1696251477111,-0.020751953,-0.97320557,0.14129639,1.125,0.859375,-0.265625
1696251477152,-0.018066406,-0.9846802,0.14129639,-0.484375,-0.5625,0.828125
1696251477192,-0.015625,-0.9885864,0.14691162,-0.109375,-0.03125,-0.3125
1696251477231,-0.036376953,-0.99224854,0.15496826,0.234375,-0.4375,0.328125
1696251477272,-0.03515625,-0.9885864,0.14837646,0.375,-0.71875,1.03125
1696251477312,-0.013671875,-0.97076416,0.14202881,0.046875,-0.296875,0.328125
1696251477351,-0.011230469,-0.99298096,0.1515503,0.40625,0.1875,0.40625
1696251477435,-0.026611328,-0.9990845,0.14007568,-0.75,-0.421875,0.828125
1696251477439,-0.021240234,-0.96881104,0.14178467,-0.9375,-0.875,0.171875
1696251477450,-0.024169922,-0.9849243,0.14764404,-0.03125,0.15625,0.28125
1696251477513,-0.021240234,-0.9866333,0.1461792,-0.796875,-1.328125,-0.046875
1696251477554,-0.020263672,-0.9817505,0.14569092,-0.90625,-0.296875,0.203125
1696251477571,-0.0126953125,-0.9854126,0.14691162,-0.84375,-1.1875,-0.28125
1696251477636,-0.020996094,-0.9837036,0.14910889,-0.6875,-1.125,-0.28125
1696251477651,-0.022949219,-0.9812622,0.15203857,-0.453125,-0.546875,-0.140625
1696251477693,-0.03173828,-0.98223877,0.14691162,-0.8125,-0.28125,-0.40625
1696251477733,-0.016845703,-0.9812622,0.1593628,-0.265625,0.265625,-0.328125
1696251477792,-0.021972656,-0.98931885,0.15130615,-0.1875,-0.765625,0.265625
1696251477810,-0.023925781,-0.9800415,0.14447021,-0.765625,-1.453125,0.0625
1696251477852,-0.03173828,-0.9819946,0.16375732,-0.09375,-0.015625,0.421875
1696251477893,-0.016845703,-0.98516846,0.1515503,-0.53125,-0.875,0.03125
1696251477933,-0.020263672,-0.98443604,0.15325928,-1.03125,-1.0625,-0.046875
1696251477971,-0.037597656,-0.9961548,0.14691162,-0.8125,-0.75,0.5625
1696251478012,-0.017089844,-0.9834595,0.16473389,-1.015625,-0.1875,-0.421875
1696251478050,-0.020996094,-0.97198486,0.16351318,-1.0625,-0.6875,-0.109375
1696251478092,-0.029052734,-0.9776001,0.16204834,-0.734375,0.109375,-0.46875
1696251478131,-0.041503906,-0.9939575,0.15692139,-0.953125,0.296875,-0.453125
1696251478172,-0.03125,-0.9854126,0.15301514,0.390625,0.15625,0.078125
1696251478235,-0.02319336,-0.9846802,0.1539917,-0.78125,-0.46875,0.0
1696251478250,-0.020507812,-0.97003174,0.16741943,-0.4375,0.609375,-0.53125
1696251478291,-0.026367188,-0.9873657,0.15545654,-0.265625,-0.5,-0.015625
1696251478356,-0.033203125,-0.99420166,0.16937256,1.265625,-0.90625,0.359375
1696251478371,-0.03955078,-0.9985962,0.1605835,-0.15625,-0.984375,0.5625
1696251478434,-0.01977539,-0.9751587,0.15350342,0.1875,1.15625,-0.28125
1696251478451,-0.015625,-0.96588135,0.15716553,-0.015625,-0.578125,-0.1875
1696251478514,-0.024902344,-0.9846802,0.16400146,-1.078125,-1.140625,-0.09375
1696251478551,-0.060791016,-0.9932251,0.15740967,-1.09375,-1.09375,0.28125
1696251478593,-0.03564453,-0.98028564,0.17010498,-0.71875,0.640625,-0.09375
1696251478612,-0.030517578,-0.96710205,0.15887451,-1.453125,-0.28125,0.359375
1696251478655,-0.020019531,-0.98638916,0.17059326,-1.703125,-0.84375,-0.140625
1696251478713,-0.037353516,-0.9834595,0.17279053,-2.359375,-0.921875,-0.375
1696251478733,-0.028076172,-0.9812622,0.16595459,-1.015625,-0.40625,-0.328125
1696251478751,-0.024658203,-0.98150635,0.17889404,-0.578125,0.03125,0.453125
1696251478792,-0.025390625,-0.987854,0.17034912,-0.703125,-1.453125,0.03125
1696251478832,-0.036376953,-0.9824829,0.17034912,-0.359375,-0.59375,-0.375
1696251478872,-0.037597656,-0.97662354,0.17547607,0.359375,0.3125,0.046875
1696251478912,-0.03466797,-0.98760986,0.17303467,-0.640625,-0.234375,0.359375
1696251478952,-0.034179688,-0.9817505,0.17938232,-0.28125,-0.5,0.375
1696251478992,-0.030273438,-0.98101807,0.17474365,-0.25,-0.4375,0.03125
1696251479030,-0.023925781,-0.97125244,0.1749878,-0.125,-0.78125,-0.21875
1696251479071,-0.029541016,-0.97735596,0.18450928,0.875,-0.140625,0.078125
