,timestamp,accel_x,accel_y,accel_z,gyro_x,gyro_y,gyro_z,ind
0,1696258030404,-0.0859375,-0.94122314,0.23431396,0.59375,17.5,2.375,0
1,1696258030444,-0.12548828,-0.6724243,0.093933105,6.90625,19.1875,3.65625,16
2,1696258030484,-0.012451172,-0.97247314,0.10736084,10.84375,21.3125,4.0,17
3,1696258030524,-0.0007324219,-0.98565674,0.11102295,5.828125,12.90625,3.09375,18
4,1696258030564,-0.060058594,-0.9104614,0.19696045,2.0625,3.421875,5.796875,19
5,1696258030604,-0.12133789,-0.9873657,0.19085693,0.71875,0.984375,6.890625,20
6,1696258030644,-0.060791016,-1.1680298,0.24139404,-3.734375,2.140625,10.203125,21
7,1696258030684,-0.052978516,-1.1685181,0.25335693,2.75,-4.484375,7.234375,22
8,1696258030724,-0.096191406,-1.49469,0.042419434,-8.421875,-17.140625,6.25,23
9,1696258030764,0.15600586,-1.3955688,0.030456543,-1.765625,-7.640625,-0.78125,24
10,1696258030804,0.54003906,-0.95806885,0.1449585,10.828125,-6.84375,-11.5,25
11,1696258030844,0.42871094,-0.6897583,0.11102295,-6.8125,-13.65625,-9.359375,26
12,1696258030884,-0.1003418,-0.9463501,0.031677246,-10.921875,3.078125,-2.25,27
13,1696258030924,-0.12695312,-1.0925903,0.08441162,-5.640625,13.71875,3.828125,28
14,1696258030964,0.24682617,-0.87164307,0.12713623,-3.078125,9.390625,-7.328125,29
15,1696258031004,0.24853516,-0.68536377,0.2748413,-2.15625,-8.453125,-8.953125,30
16,1696258031044,0.0087890625,-0.6482544,0.21673584,0.078125,-7.1875,-0.734375,31
17,1696258031084,-0.11694336,-0.7901001,0.12347412,-0.28125,-3.46875,5.828125,32
18,1696258031124,-0.053955078,-0.8364868,0.19769287,10.15625,8.453125,6.25,33
19,1696258031164,0.001953125,-0.90509033,0.2909546,11.15625,-0.859375,1.140625,34
20,1696258031204,-0.033691406,-0.96539307,0.25628662,7.75,3.109375,0.875,35
21,1696258031244,-0.028076172,-1.1216431,0.26654053,5.3125,13.390625,0.0625,36
22,1696258031284,-0.036621094,-1.133606,0.37005615,4.34375,13.359375,-6.984375,37
23,1696258031324,-0.2932129,-1.2573853,0.1774292,-8.9375,12.46875,-9.546875,38
24,1696258031364,0.11279297,-1.5029907,-0.023498535,-9.640625,27.53125,-2.796875,39
25,1696258031404,0.35083008,-1.1113892,-0.061340332,-12.8125,31.5625,-5.671875,40
26,1696258031444,0.28051758,-0.8230591,-0.09283447,-14.5625,4.90625,-4.9375,41
27,1696258031484,-0.06933594,-0.96099854,-0.0960083,-2.328125,-1.296875,1.828125,42
28,1696258031524,-0.19604492,-1.2424927,0.06048584,4.484375,17.359375,4.296875,43
29,1696258031564,0.111572266,-1.0200806,0.17059326,4.640625,12.828125,-7.9375,44
30,1696258031604,0.1616211,-0.7481079,0.08856201,-1.328125,5.09375,-16.28125,45
31,1696258031644,0.018310547,-0.5796509,-0.026184082,1.46875,-4.375,-1.515625,46
32,1696258031684,-0.10205078,-0.5913696,0.07293701,3.84375,-0.84375,13.953125,47
33,1696258031724,-0.11816406,-0.76690674,0.14886475,0.484375,6.6875,14.328125,48
34,1696258031764,-0.110839844,-0.9002075,0.09515381,1.203125,9.421875,7.4375,49
35,1696258031804,-0.07397461,-1.0193481,0.12322998,7.34375,5.703125,7.578125,50
36,1696258031844,-0.00390625,-1.1567993,0.21453857,1.5625,2.4375,9.25,51
37,1696258031884,-0.029785156,-1.1636353,0.262146,1.3125,3.0,9.203125,52
38,1696258031924,-0.12792969,-1.2529907,0.20550537,-3.328125,-18.21875,5.734375,53
39,1696258031964,-0.2331543,-1.4934692,0.018981934,-16.515625,-16.640625,-2.34375,54
40,1696258032004,0.5239258,-1.2520142,-0.041809082,-1.484375,8.953125,-6.40625,55
41,1696258032044,0.8132324,-0.92633057,0.27801514,10.09375,-4.453125,-17.6875,56
42,1696258032084,0.2709961,-0.7984009,0.10491943,-8.3125,-18.25,-8.65625,57
43,1696258032124,-0.1105957,-1.0942993,0.026306152,-4.296875,-1.65625,9.703125,58
44,1696258032164,0.08959961,-0.98809814,0.07098389,3.125,8.203125,-2.078125,59
45,1696258032204,0.2824707,-0.6946411,0.2074585,4.046875,0.71875,-11.078125,60
46,1696258032244,0.18457031,-0.6069946,0.23724365,1.453125,-15.265625,-2.734375,61
47,1696258032284,-0.016113281,-0.64630127,0.15228271,1.625,-18.375,3.96875,62
48,1696258032324,-0.11645508,-0.8045044,0.17913818,4.625,-7.765625,5.5625,63
49,1696258032364,-0.05444336,-0.9258423,0.20941162,7.96875,4.578125,2.703125,64
50,1696258032404,0.072753906,-0.892395,0.27508545,7.4375,-6.265625,-2.09375,65
51,1696258032444,-0.028076172,-0.9639282,0.20672607,7.4375,-2.28125,-1.078125,66
52,1696258032484,-0.072021484,-1.1817017,0.30169678,4.75,4.234375,3.109375,67
53,1696258032524,-0.21411133,-1.3088989,0.3805542,7.03125,13.3125,-4.875,68
54,1696258032564,-0.19506836,-1.4668579,0.18377686,-5.609375,16.65625,-5.25,69
55,1696258032604,0.30639648,-1.322815,-0.011047363,0.328125,23.53125,-1.515625,70
56,1696258032644,0.38964844,-1.0081177,-0.042785645,-9.453125,15.875,-7.5,71
57,1696258032684,0.24902344,-0.7839966,-0.09674072,-8.234375,-8.734375,-0.734375,72
58,1696258032724,-0.20751953,-1.1216431,-0.073791504,-7.140625,-2.90625,7.609375,73
59,1696258032764,-0.037597656,-1.1008911,0.13323975,9.90625,12.28125,1.65625,74
60,1696258032804,0.21777344,-0.8892212,0.16937256,1.328125,3.921875,-12.5625,75
61,1696258032844,0.14697266,-0.6104126,0.035827637,-5.703125,-4.234375,-14.203125,76
62,1696258032884,-0.052734375,-0.50250244,-0.03717041,0.921875,-10.328125,2.5625,77
63,1696258032924,-0.14355469,-0.5835571,0.09124756,-1.65625,-6.78125,12.21875,78
64,1696258032964,-0.22875977,-0.8357544,0.16668701,8.53125,1.453125,8.71875,79
65,1696258033004,-0.1694336,-1.0044556,0.14788818,6.578125,9.96875,5.859375,80
66,1696258033044,0.0,-1.0752563,0.21258545,2.765625,-0.40625,5.390625,81
67,1696258033084,0.052978516,-1.2910767,0.27386475,-10.703125,-4.703125,7.625,82
68,1696258033124,-0.064697266,-1.3294067,0.37420654,-5.546875,-10.28125,13.265625,83
69,1696258033164,-0.23657227,-1.5357056,0.03363037,-20.484375,-39.703125,10.390625,84
70,1696258033204,0.15771484,-1.2625122,-0.06011963,3.328125,-12.203125,-7.421875,85
71,1696258033244,0.62768555,-0.913147,0.12884521,20.6875,-1.40625,-16.4375,86
72,1696258033284,0.4802246,-0.79156494,0.085876465,-1.03125,-6.109375,-10.015625,87
73,1696258033324,-0.038330078,-0.98150635,0.024597168,-9.671875,0.671875,2.171875,88
74,1696258033364,-0.08496094,-1.104065,-0.012756348,-4.375,12.359375,4.609375,89
75,1696258033404,0.19482422,-0.8049927,0.14202881,-4.3125,12.984375,-11.578125,90
76,1696258033444,0.28198242,-0.61016846,0.25701904,2.953125,-4.046875,-11.171875,91
77,1696258033484,0.008300781,-0.5261841,0.21258545,0.265625,-15.75,-1.953125,92
78,1696258033524,-0.15600586,-0.69244385,0.16546631,1.59375,-10.78125,9.8125,93
79,1696258033564,-0.12719727,-0.85943604,0.20892334,7.859375,7.671875,11.4375,94
80,1696258033604,-0.03955078,-0.94488525,0.3126831,7.59375,-8.578125,0.109375,95
81,1696258033644,-0.060058594,-1.0066528,0.262146,8.984375,-5.71875,-2.34375,96
82,1696258033684,-0.005859375,-1.1316528,0.20770264,3.53125,2.84375,7.03125,97
83,1696258033724,-0.11206055,-1.3560181,0.2267456,6.328125,8.46875,5.109375,98
84,1696258033764,0.10546875,-1.8010864,0.043640137,-0.359375,20.296875,11.5,99
85,1696258033804,0.34936523,-1.4011841,0.022399902,-11.171875,19.5625,-4.96875,100
86,1696258033844,0.17285156,-0.9204712,-0.09429932,-8.59375,-1.875,-18.21875,101
87,1696258033884,0.08129883,-0.67315674,-0.10284424,-11.78125,0.265625,-1.21875,102
88,1696258033924,-0.049804688,-0.9043579,-0.070373535,8.671875,5.765625,6.109375,103
89,1696258033964,0.1184082,-1.0547485,0.073913574,8.453125,15.4375,2.046875,104
90,1696258034004,0.18115234,-0.8899536,0.16326904,-8.1875,-0.875,-11.640625,105
91,1696258034044,0.09277344,-0.6638794,0.012878418,-3.734375,-11.828125,-11.078125,106
92,1696258034084,-0.07495117,-0.5510864,-0.034973145,-7.0625,-1.90625,1.109375,107
93,1696258034124,-0.1706543,-0.60772705,0.121276855,-6.65625,1.46875,5.46875,108
94,1696258034164,-0.19921875,-0.8389282,0.13372803,2.75,9.171875,6.65625,109
95,1696258034204,-0.05883789,-1.0339966,0.15472412,1.34375,12.28125,6.71875,110
96,1696258034244,0.041748047,-1.1140747,0.27874756,0.1875,-0.421875,-0.1875,111
97,1696258034284,0.08105469,-1.1575317,0.28582764,-4.84375,-4.4375,6.796875,112
98,1696258034324,-0.049316406,-1.2249146,0.17181396,7.3125,-14.5625,14.984375,113
99,1696258034364,-0.2199707,-1.6084595,0.12249756,-10.0,-19.140625,9.890625,114
100,1696258034404,0.36376953,-1.331604,-0.020324707,1.484375,-26.640625,-8.8125,115
101,1696258034444,0.4958496,-0.9849243,0.04510498,16.125,-13.1875,-25.375,116
102,1696258034484,0.32177734,-0.7671509,0.16033936,-8.421875,0.234375,-6.9375,117
103,1696258034524,0.034423828,-1.0244751,0.07366943,0.140625,-4.3125,8.40625,118
104,1696258034564,0.046875,-1.0701294,0.050476074,-4.140625,5.78125,4.53125,119
105,1696258034604,0.19165039,-0.8128052,0.1876831,-2.890625,2.578125,-12.203125,120
106,1696258034644,0.14868164,-0.5991821,0.21820068,6.0625,-6.3125,-8.46875,121
107,1696258034684,-0.03857422,-0.5745239,0.1642456,4.78125,-15.125,3.078125,122
108,1696258034724,-0.11791992,-0.71661377,0.18328857,2.765625,-0.59375,10.0,123
109,1696258034764,-0.11376953,-0.864563,0.19671631,12.78125,3.78125,8.40625,124
110,1696258034804,-0.05029297,-0.9380493,0.31219482,5.546875,-4.234375,-2.53125,125
111,1696258034844,-0.06738281,-0.9854126,0.2164917,4.25,-0.734375,-4.953125,126
112,1696258034884,-0.0078125,-1.1504517,0.24505615,-2.53125,3.625,-1.5,127
113,1696258034924,-0.15161133,-1.2927856,0.40203857,6.859375,12.875,-2.4375,128
114,1696258034964,-0.15917969,-1.6189575,0.11785889,-6.8125,19.21875,-1.21875,129
115,1696258035004,0.29882812,-1.3919067,-0.012512207,-2.0,24.453125,-5.859375,130
116,1696258035044,0.23632812,-0.8882446,-0.008605957,-18.59375,23.0625,-20.640625,131
117,1696258035084,0.16040039,-0.7112427,-0.097961426,-2.609375,-5.96875,-1.875,132
118,1696258035124,-0.15234375,-0.98028564,-0.039123535,-8.53125,4.046875,10.625,133
119,1696258035164,0.030761719,-1.1387329,0.11224365,4.09375,8.21875,7.421875,134
120,1696258035204,0.12109375,-1.0066528,0.17230225,7.859375,-2.828125,-11.765625,135
121,1696258035244,0.0068359375,-0.6265259,0.058776855,2.953125,-8.59375,-10.484375,136
122,1696258035284,-0.21142578,-0.48614502,0.058532715,2.546875,-2.703125,3.953125,137
123,1696258035324,-0.19921875,-0.58673096,0.09661865,-1.6875,8.6875,13.1875,138
124,1696258035364,-0.060302734,-0.76885986,0.09613037,3.453125,7.9375,12.328125,139
125,1696258035404,0.0009765625,-0.98760986,0.20550537,5.203125,4.875,7.234375,140
126,1696258035444,-0.037353516,-1.173645,0.22650146,11.28125,-7.6875,3.96875,141
127,1696258035484,-0.1484375,-1.3140259,0.2753296,-7.796875,-6.84375,10.640625,142
128,1696258035524,-0.2253418,-1.3670044,0.3505249,-12.140625,-16.296875,10.328125,143
129,1696258035564,-0.16430664,-1.5776978,-0.008361816,-21.15625,-26.0,0.359375,144
130,1696258035604,0.42285156,-1.2913208,-0.15362549,1.40625,-12.40625,-7.5625,145
131,1696258035644,0.7182617,-0.8909302,0.3024292,21.421875,6.546875,-17.859375,146
132,1696258035684,0.30419922,-0.74542236,0.09051514,-9.765625,-16.8125,-2.015625,147
133,1696258035724,-0.118896484,-1.0442505,0.010925293,-6.328125,-4.890625,9.5625,148
134,1696258035764,-0.033935547,-1.0630493,0.06829834,-0.34375,11.921875,3.890625,149
135,1696258035804,0.25512695,-0.6946411,0.2189331,0.75,3.609375,-9.71875,150
136,1696258035844,0.19873047,-0.54766846,0.2662964,0.953125,-14.6875,-4.765625,151
137,1696258035884,-0.04638672,-0.5413208,0.20916748,-0.1875,-18.875,4.8125,152
138,1696258035924,-0.21679688,-0.7312622,0.18670654,7.078125,-5.640625,8.515625,153
139,1696258035964,-0.14208984,-0.8826294,0.19647217,8.921875,5.828125,6.3125,154
140,1696258036004,0.011474609,-0.9014282,0.3829956,10.765625,-2.4375,-3.296875,155
141,1696258036044,-0.028076172,-1.1419067,0.14886475,13.578125,0.34375,0.171875,156
142,1696258036084,-0.012451172,-1.2280884,0.34979248,4.6875,9.890625,0.5625,157
143,1696258036124,-0.26171875,-1.4505005,0.28753662,0.59375,13.78125,-2.78125,158
144,1696258036164,0.19555664,-1.6865845,0.0680542,-12.109375,18.734375,-2.046875,159
145,1696258036204,0.34594727,-1.2168579,-0.06915283,-23.546875,19.265625,-10.015625,160
146,1696258036244,0.30419922,-0.81744385,-0.1416626,-13.953125,-4.28125,-8.3125,161
147,1696258036284,0.07763672,-0.78497314,-0.040100098,-1.21875,-10.46875,6.859375,162
148,1696258036324,-0.16357422,-1.1187134,0.02142334,10.25,7.09375,6.75,163
149,1696258036364,0.05493164,-0.9517212,0.15472412,11.671875,7.96875,0.71875,164
150,1696258036404,0.16601562,-0.6963501,0.16546631,-0.46875,-6.359375,-10.28125,165
151,1696258036444,0.027832031,-0.5701294,0.0036010742,4.5625,-13.84375,-4.421875,166
152,1696258036484,-0.18676758,-0.583313,0.007507324,-5.53125,-7.75,7.734375,167
153,1696258036524,-0.25732422,-0.68634033,0.14007568,-9.734375,0.125,9.90625,168
154,1696258036564,-0.16894531,-0.90582275,0.14642334,2.5625,10.140625,5.625,169
155,1696258036604,0.044677734,-1.0689087,0.20135498,6.84375,12.5,5.9375,170
156,1696258036644,0.056884766,-1.2525024,0.31585693,2.515625,-1.90625,4.40625,171
157,1696258036684,-0.10205078,-1.2525024,0.3451538,-4.3125,-13.34375,9.53125,172
158,1696258036724,-0.26391602,-1.4229126,0.17596436,-15.34375,-28.5,10.671875,173
159,1696258036764,-0.091796875,-1.4998169,-0.14996338,-3.234375,-22.859375,-3.546875,174
160,1696258036804,0.84887695,-1.0584106,0.054870605,11.359375,8.703125,-14.1875,175
161,1696258036844,0.6262207,-0.8352661,0.25579834,10.703125,-5.328125,-11.9375,176
162,1696258036884,-0.05029297,-0.9710083,0.0079956055,-11.078125,-9.90625,2.078125,177
163,1696258036924,-0.16870117,-1.1294556,-0.023498535,-0.984375,13.21875,8.625,178
164,1696258036964,0.13745117,-0.77227783,0.137146,5.0,18.109375,-11.34375,179
165,1696258037004,0.31469727,-0.56134033,0.25579834,1.703125,1.84375,-10.796875,180
166,1696258037044,0.08520508,-0.4968872,0.1876831,-1.890625,-15.171875,1.3125,181
167,1696258037084,-0.114746094,-0.6494751,0.14544678,1.15625,-16.875,10.609375,182
168,1696258037124,-0.17773438,-0.880188,0.117370605,8.015625,3.625,11.421875,183
169,1696258037164,0.0024414062,-1.0213013,0.2946167,1.890625,6.0,5.203125,184
170,1696258037204,0.010498047,-1.0491333,0.29388428,13.796875,-2.6875,-3.140625,185
171,1696258037244,-0.084228516,-1.1499634,0.19110107,0.734375,2.4375,-3.203125,186
172,1696258037284,-0.22290039,-1.15094,0.3270874,1.796875,19.046875,-6.953125,187
173,1696258037324,-0.20263672,-1.6524048,0.13348389,4.3125,27.234375,-2.109375,188
174,1696258037364,0.53393555,-1.4749146,0.012878418,-8.03125,24.734375,-2.140625,189
175,1696258037404,0.32006836,-0.9805298,-0.0713501,-19.5625,7.953125,-20.203125,190
176,1696258037444,0.13769531,-0.79473877,-0.14654541,-13.296875,-10.40625,-2.859375,191
177,1696258037484,-0.27441406,-0.9973755,-0.06964111,-15.921875,1.046875,6.046875,192
178,1696258037524,0.009033203,-1.0786743,0.1149292,11.765625,15.625,2.140625,193
179,1696258037564,0.26611328,-0.8899536,0.19769287,1.78125,9.625,-12.546875,194
180,1696258037604,0.1303711,-0.631897,0.0758667,3.140625,-12.375,-11.921875,195
181,1696258037644,-0.09423828,-0.5010376,-0.00592041,2.484375,-14.328125,5.625,196
182,1696258037684,-0.2265625,-0.5967407,0.10028076,-2.890625,-2.09375,15.21875,197
183,1696258037724,-0.21923828,-0.8164673,0.11785889,5.828125,8.625,10.09375,198
184,1696258037764,-0.091308594,-0.9273071,0.12982178,8.25,12.984375,7.46875,199
185,1696258037804,0.016601562,-1.0684204,0.23138428,9.65625,2.796875,6.921875,200
186,1696258037844,0.076171875,-1.326477,0.28826904,-5.46875,-3.59375,12.296875,201
187,1696258037884,-0.1875,-1.3196411,0.31048584,-4.328125,-20.5625,12.28125,202
188,1696258037924,-0.28710938,-1.6038208,0.055603027,-16.453125,-23.125,6.1875,203
189,1696258037964,0.2849121,-1.291565,-0.10479736,0.234375,-5.0,-6.640625,204
190,1696258038004,0.7141113,-1.034729,0.20965576,17.828125,5.09375,-20.390625,205
191,1696258038044,0.46679688,-0.7463989,0.06829834,-4.375,-18.953125,-8.0,206
192,1696258038084,-0.111328125,-0.91363525,0.01751709,-3.828125,-8.984375,7.109375,207
193,1696258038124,-0.059570312,-1.06427,0.06072998,-0.390625,8.46875,9.28125,208
194,1696258038164,0.18066406,-0.8220825,0.16204834,-0.640625,5.140625,-11.1875,209
195,1696258038204,0.23706055,-0.63897705,0.23553467,-1.5,-7.609375,-10.578125,210
196,1696258038244,-0.001953125,-0.55914307,0.18719482,-0.5,-12.703125,-0.09375,211
197,1696258038284,-0.15698242,-0.7192993,0.14691162,5.03125,-4.359375,8.34375,212
198,1696258038324,-0.13427734,-0.9146118,0.19158936,6.578125,9.828125,9.40625,213
199,1696258038364,0.019042969,-0.93292236,0.32196045,0.109375,-6.40625,-0.140625,214
200,1696258038404,0.009277344,-0.9331665,0.24334717,9.828125,-6.1875,-5.328125,215
201,1696258038444,-0.079589844,-1.1785278,0.2140503,3.125,6.28125,-1.6875,216
202,1696258038484,-0.25024414,-1.3294067,0.31097412,1.703125,17.28125,-8.375,217
203,1696258038524,-0.05419922,-1.7688599,0.08880615,-18.171875,22.90625,-2.3125,218
204,1696258038564,0.45336914,-1.3743286,0.024597168,-19.71875,24.921875,-10.21875,219
205,1696258038604,0.2980957,-0.84332275,-0.06524658,-17.359375,1.078125,-19.578125,220
206,1696258038644,0.03173828,-0.76348877,-0.033996582,-10.09375,-12.578125,-1.578125,221
207,1696258038684,-0.13745117,-0.9800415,0.043395996,8.625,5.453125,9.359375,222
208,1696258038724,0.024658203,-1.0413208,0.14935303,5.984375,6.359375,4.765625,223
209,1696258038764,0.14355469,-0.8291626,0.1720581,1.609375,2.125,-12.1875,224
210,1696258038804,-0.049072266,-0.6387329,0.047302246,7.328125,-10.140625,-6.4375,225
211,1696258038844,-0.16918945,-0.49395752,0.11785889,-5.625,-3.6875,5.828125,226
212,1696258038884,-0.15258789,-0.6189575,0.16204834,-3.15625,-2.46875,9.671875,227
213,1696258038924,-0.115722656,-0.88482666,0.11663818,3.1875,4.9375,7.5625,228
214,1696258038964,-0.1262207,-1.0230103,0.21820068,1.21875,0.421875,6.546875,229
215,1696258039004,-0.032470703,-1.1555786,0.26019287,-0.0625,-1.1875,1.84375,230
216,1696258039044,-0.10913086,-1.1990356,0.3624878,-3.90625,-7.25,5.953125,231
217,1696258039084,-0.28344727,-1.3201294,0.2633667,-6.875,-25.234375,8.3125,232
218,1696258039124,-0.14428711,-1.4766235,0.16400146,1.875,-11.890625,-0.75,233
219,1696258039164,0.41333008,-1.288147,0.0914917,-0.921875,-13.03125,-7.9375,234
220,1696258039204,0.4951172,-0.92974854,0.16131592,22.234375,-10.296875,-12.71875,235
221,1696258039244,0.31030273,-0.7334595,0.16082764,-5.9375,-9.84375,1.453125,236
222,1696258039284,-0.12475586,-1.0020142,0.10223389,2.984375,0.9375,13.15625,237
223,1696258039324,-0.07836914,-1.0772095,0.06903076,1.21875,16.28125,9.265625,238
224,1696258039364,0.16625977,-0.75787354,0.21258545,-0.40625,10.34375,-11.828125,239
225,1696258039404,0.119140625,-0.5918579,0.26287842,5.5625,-4.546875,-7.265625,240
226,1696258039444,-0.046875,-0.5466919,0.19525146,4.25,-10.4375,6.5,241
227,1696258039484,-0.07495117,-0.7036743,0.18865967,7.140625,-4.3125,13.734375,242
228,1696258039524,-0.0126953125,-0.98272705,0.20770264,12.625,0.328125,11.859375,243
229,1696258039564,0.05102539,-0.9649048,0.3258667,2.34375,-4.71875,0.03125,244
230,1696258039604,-0.06982422,-1.0332642,0.15228271,7.75,-3.40625,-0.609375,245
231,1696258039644,-0.115722656,-1.2383423,0.18328857,6.421875,9.0625,0.328125,246
232,1696258039684,0.0703125,-1.6294556,0.10418701,0.953125,18.296875,15.546875,247
233,1696258039724,0.3466797,-1.5217896,0.4628296,-2.6875,21.953125,3.234375,248
234,1696258039764,-0.03515625,-1.3760376,-0.043273926,-11.328125,-3.640625,-24.484375,249
235,1696258039804,0.10083008,-0.80474854,-0.07623291,-11.015625,13.6875,-12.84375,250
236,1696258039844,0.19604492,-0.54034424,-0.18170166,-0.203125,2.640625,0.25,251
237,1696258039884,-0.041503906,-0.8694458,-0.006164551,5.1875,9.40625,-0.21875,252
238,1696258039924,-0.017822266,-1.0183716,0.13665771,0.25,7.203125,4.90625,253
239,1696258039964,0.10961914,-0.9661255,0.1251831,-0.21875,-5.75,-8.84375,254
240,1696258040004,0.020263672,-0.6626587,0.01776123,2.5,1.5,-13.203125,255
241,1696258040044,-0.16552734,-0.5042114,0.030456543,-2.0625,-5.875,2.171875,256
242,1696258040084,-0.19946289,-0.5701294,0.11907959,0.75,-3.140625,9.859375,257
243,1696258040124,-0.14135742,-0.84625244,0.10101318,-0.9375,14.15625,10.3125,258
244,1696258040164,-0.028076172,-1.0418091,0.20013428,6.84375,11.0625,12.28125,259
245,1696258040204,-0.034423828,-1.3352661,0.21014404,6.9375,-11.3125,2.625,260
246,1696258040244,-0.056884766,-1.2583618,0.15863037,-8.359375,-7.4375,6.859375,261
247,1696258040284,-0.21459961,-1.5300903,0.112976074,-16.4375,-21.625,14.359375,262
248,1696258040324,0.118896484,-1.475647,-0.0071411133,-9.171875,-7.734375,-2.25,263
249,1696258040364,0.5891113,-1.0610962,0.016784668,8.046875,-10.78125,-20.640625,264
250,1696258040404,0.51464844,-0.7559204,0.13031006,3.1875,-11.203125,-9.375,265
251,1696258040444,0.13500977,-0.9104614,0.07342529,-11.71875,-16.28125,8.1875,266
252,1696258040484,-0.02709961,-1.178772,0.07196045,-1.65625,2.65625,12.984375,267
253,1696258040524,0.08911133,-0.88775635,0.051940918,0.1875,6.96875,-11.5625,268
254,1696258040564,0.14819336,-0.5750122,0.2374878,2.203125,0.375,-15.609375,269
255,1696258040604,0.045898438,-0.46466064,0.2374878,-1.546875,-9.078125,-0.875,270
256,1696258040644,-0.083984375,-0.60162354,0.19281006,1.859375,-9.234375,8.90625,271
257,1696258040684,-0.045654297,-0.8442993,0.1552124,8.328125,0.671875,12.296875,272
258,1696258040724,0.07739258,-0.99346924,0.3336792,3.234375,-7.625,2.328125,273
259,1696258040764,-0.08105469,-0.8821411,0.26531982,19.1875,-10.09375,-4.609375,274
260,1696258040804,-0.16186523,-1.114563,0.11224365,10.84375,3.953125,5.375,275
261,1696258040844,-0.18847656,-1.2698364,0.36419678,4.390625,19.953125,-2.40625,276
262,1696258040884,-0.099853516,-1.645813,0.14813232,-9.6875,21.984375,-3.890625,277
263,1696258040924,0.47265625,-1.5620728,0.036071777,-14.859375,19.0625,-3.40625,278
264,1696258040964,0.20996094,-1.0230103,-0.097473145,-20.40625,17.890625,-14.40625,279
265,1696258041004,0.15405273,-0.7505493,-0.09063721,-17.703125,-6.359375,-2.84375,280
266,1696258041044,-0.078125,-0.88775635,-0.05303955,-0.796875,6.046875,6.03125,281
267,1696258041084,0.016357422,-1.0772095,0.024108887,17.046875,17.671875,6.421875,282
268,1696258041124,0.19262695,-0.94781494,0.20770264,6.03125,9.53125,-7.578125,283
269,1696258041164,0.079833984,-0.6860962,0.097595215,2.5625,-9.125,-12.796875,284
270,1696258041204,-0.15332031,-0.5462036,-0.05328369,-2.53125,-9.265625,0.59375,285
271,1696258041244,-0.21118164,-0.5708618,0.051208496,-10.28125,0.6875,10.53125,286
272,1696258041284,-0.12133789,-0.7859497,0.1317749,-1.15625,6.046875,11.421875,287
273,1696258041324,-0.03930664,-0.9656372,0.15911865,4.390625,10.15625,6.234375,288
274,1696258041364,-0.040771484,-1.0962524,0.28485107,5.703125,-0.453125,0.75,289
275,1696258041404,-0.0925293,-1.1985474,0.22991943,-3.0,-2.71875,7.09375,290
276,1696258041444,-0.06982422,-1.1885376,0.2748413,-0.390625,-5.15625,9.25,291
277,1696258041484,-0.28515625,-1.598938,0.2723999,-8.40625,-15.15625,5.1875,292
278,1696258041524,0.04663086,-1.3919067,-0.12579346,-5.046875,-15.640625,-7.703125,293
279,1696258041564,0.70288086,-1.0161743,0.06341553,16.6875,-7.078125,-15.5625,294
280,1696258041604,0.7663574,-0.7473755,0.277771,-1.109375,-14.40625,-6.5625,295
281,1696258041644,-0.051757812,-0.9360962,-0.014709473,-14.609375,-13.84375,5.65625,296
282,1696258041684,-0.21948242,-1.1775513,0.008239746,3.34375,-2.21875,14.046875,297
283,1696258041724,0.140625,-0.82354736,0.1293335,2.28125,17.09375,-11.4375,298
284,1696258041764,0.21582031,-0.6235962,0.2675171,4.046875,1.125,-9.515625,299
285,1696258041804,0.04736328,-0.53497314,0.17718506,0.4375,-13.578125,1.78125,300
286,1696258041844,-0.09301758,-0.6519165,0.13006592,5.484375,-8.96875,9.4375,301
287,1696258041884,-0.11450195,-0.84161377,0.16473389,10.171875,4.484375,9.65625,302
288,1696258041924,0.06201172,-0.99005127,0.3126831,-2.0,3.046875,5.0,303
289,1696258041964,0.033691406,-0.94732666,0.30755615,7.53125,-3.390625,-2.21875,304
290,1696258042004,-0.06713867,-1.1607056,0.21478271,-0.640625,-9.109375,1.140625,305
291,1696258042044,-0.26171875,-1.232727,0.45941162,3.046875,22.15625,-0.34375,306
292,1696258042084,-0.30908203,-1.3799438,0.2062378,-1.0625,19.703125,-12.03125,307
293,1696258042124,0.24658203,-1.4060669,0.016784668,-3.265625,26.9375,-10.21875,308
294,1696258042164,0.47070312,-1.2000122,-0.23736572,-12.0625,29.609375,-3.03125,309
295,1696258042204,0.31469727,-0.86920166,-0.085754395,-11.40625,-2.078125,-3.4375,310
296,1696258042244,-0.22998047,-1.0005493,-0.06768799,-9.90625,-21.140625,-1.28125,311
297,1696258042284,-0.14379883,-0.93463135,0.11004639,7.3125,4.796875,4.03125,312
298,1696258042324,0.2043457,-0.85528564,0.11224365,13.765625,8.671875,-4.28125,313
299,1696258042364,0.20117188,-0.69073486,0.09539795,1.828125,-5.671875,-13.203125,314
300,1696258042404,-0.024902344,-0.5667114,0.007019043,7.5,-27.765625,2.609375,315
301,1696258042444,-0.2055664,-0.6213989,0.06048584,-2.6875,-17.609375,16.328125,316
302,1696258042484,-0.265625,-0.8296509,0.16326904,1.546875,3.75,10.9375,317
303,1696258042524,-0.12890625,-0.95391846,0.112976074,7.734375,6.890625,4.453125,318
304,1696258042564,0.12573242,-0.95098877,0.19915771,3.34375,-10.375,6.84375,319
305,1696258042604,-0.0017089844,-1.3103638,0.2501831,1.828125,-8.375,13.390625,320
306,1696258042644,-0.17993164,-1.4180298,0.23602295,-12.5,-16.0,15.328125,321
307,1696258042684,-0.1418457,-1.545227,0.24847412,-20.0625,-32.4375,9.40625,322
308,1696258042724,0.114746094,-1.2449341,-0.14727783,-7.515625,-22.609375,-4.3125,323
309,1696258042764,0.74658203,-1.020813,0.137146,13.796875,-9.671875,-19.703125,324
310,1696258042804,0.43286133,-0.83599854,0.17889404,1.9375,-9.25,-4.75,325
311,1696258042844,-0.041015625,-1.0122681,0.027770996,-17.796875,-12.859375,8.65625,326
312,1696258042884,-0.04296875,-1.1570435,0.0067749023,-1.0625,9.859375,5.65625,327
313,1696258042924,0.16992188,-0.81451416,0.14276123,4.828125,9.71875,-16.453125,328
314,1696258042964,0.21264648,-0.53326416,0.2514038,2.765625,0.25,-9.5,329
315,1696258043004,-0.02734375,-0.43145752,0.19744873,1.546875,-8.75,1.8125,330
316,1696258043044,-0.16625977,-0.5725708,0.12957764,6.484375,-9.265625,7.59375,331
317,1696258043084,-0.08276367,-0.7996216,0.17767334,5.234375,3.90625,10.0625,332
318,1696258043124,0.11328125,-0.98809814,0.42694092,3.5,-5.546875,5.34375,333
319,1696258043164,0.01977539,-1.295227,0.21453857,9.8125,-21.90625,-1.25,334
320,1696258043204,-0.0793457,-1.2210083,0.29974365,0.859375,-3.625,-2.71875,335
321,1696258043244,-0.39624023,-1.3447876,0.2987671,7.265625,22.5625,-5.671875,336
322,1696258043284,0.12133789,-1.6226196,0.05633545,-6.96875,27.5625,-4.25,337
323,1696258043324,0.4970703,-1.310852,0.019226074,-15.53125,23.796875,-12.109375,338
324,1696258043364,0.36279297,-0.84210205,-0.13018799,-14.203125,-9.15625,-12.671875,339
325,1696258043404,0.09277344,-0.72735596,-0.062805176,-11.546875,-21.578125,7.265625,340
326,1696258043444,-0.1730957,-1.076477,0.0016479492,8.4375,-1.125,12.890625,341
327,1696258043484,0.04663086,-1.0908813,0.199646,11.0,6.875,1.9375,342
328,1696258043524,0.1105957,-0.7979126,0.15325928,-0.09375,2.53125,-17.109375,343
329,1696258043564,0.018066406,-0.52227783,0.014099121,-2.109375,-11.015625,-10.84375,344
330,1696258043604,-0.1015625,-0.47686768,0.018493652,-7.359375,-7.1875,4.9375,345
331,1696258043644,-0.1628418,-0.62579346,0.1642456,-9.75,-1.640625,14.75,346
332,1696258043684,-0.17602539,-0.8911743,0.18035889,4.484375,-2.46875,10.109375,347
333,1696258043724,-0.041503906,-1.0586548,0.2098999,8.28125,0.453125,4.90625,348
334,1696258043764,0.046142578,-1.234436,0.3065796,2.859375,-1.0625,1.921875,349
335,1696258043804,-0.01171875,-1.2249146,0.2982788,-7.09375,-11.96875,6.140625,350
336,1696258043844,-0.17016602,-1.4695435,0.3217163,-6.34375,-31.328125,12.3125,351
337,1696258043884,-0.03857422,-1.5100708,-0.074279785,3.84375,-22.09375,-0.203125,352
338,1696258043924,0.7109375,-1.1155396,-0.013244629,4.578125,-17.625,-14.265625,353
339,1696258043964,0.62597656,-0.8369751,0.29364014,13.390625,-10.734375,-11.234375,354
340,1696258044004,0.041015625,-0.9312134,0.024353027,-7.578125,-22.890625,6.9375,355
341,1696258044044,-0.09741211,-1.1057739,0.10443115,-1.390625,3.90625,15.265625,356
342,1696258044084,0.083740234,-0.8352661,0.062194824,4.765625,3.5,-7.75,357
343,1696258044124,0.23242188,-0.5889282,0.22698975,-0.1875,-4.375,-11.4375,358
344,1696258044164,0.059326172,-0.49298096,0.24578857,-0.90625,-13.484375,0.75,359
345,1696258044204,-0.06713867,-0.6067505,0.17376709,1.390625,-20.265625,7.953125,360
346,1696258044244,-0.08862305,-0.8718872,0.19525146,5.921875,-5.125,11.625,361
347,1696258044284,-0.022460938,-1.0098267,0.33172607,4.421875,-3.640625,6.0625,362
348,1696258044324,-0.06591797,-0.94659424,0.29901123,6.484375,-17.5,-6.359375,363
349,1696258044364,-0.048339844,-1.1028442,0.1876831,0.34375,-10.765625,-1.796875,364
350,1696258044404,-0.17773438,-1.2905884,0.37713623,1.328125,12.984375,-1.234375,365
351,1696258044444,-0.2529297,-1.7334595,0.28753662,-4.84375,19.359375,0.9375,366
352,1696258044484,0.48095703,-1.5335083,0.08685303,-6.734375,15.40625,-4.234375,367
353,1696258044524,0.38745117,-0.93218994,-0.06866455,-16.046875,13.8125,-22.546875,368
354,1696258044564,0.31152344,-0.64385986,-0.023254395,-7.140625,-13.953125,-3.765625,369
355,1696258044604,-0.092041016,-0.8027954,-0.023010254,-2.828125,-19.3125,8.453125,370
356,1696258044644,-0.19335938,-1.236145,0.058776855,6.734375,4.703125,8.6875,371
357,1696258044684,0.12768555,-1.0215454,0.18548584,0.796875,5.890625,-7.578125,372
358,1696258044724,0.1586914,-0.736145,0.117614746,1.8125,-14.03125,-15.796875,373
359,1696258044764,0.020507812,-0.5757446,0.074157715,0.359375,-14.5,1.640625,374
360,1696258044804,-0.20947266,-0.6013794,0.16009521,-5.84375,-11.703125,11.0625,375
361,1696258044844,-0.26171875,-0.7727661,0.11810303,6.421875,-3.671875,5.75,376
362,1696258044884,-0.13647461,-0.8340454,0.113708496,6.1875,4.703125,4.859375,377
363,1696258044924,0.007080078,-0.8850708,0.20721436,9.78125,2.921875,8.65625,378
364,1696258044964,0.0063476562,-1.1929321,0.2189331,3.28125,-3.90625,7.921875,379
365,1696258045004,-0.15625,-1.2925415,0.2982788,-9.015625,-14.5,9.640625,380
366,1696258045044,-0.22387695,-1.348938,0.2538452,-11.9375,-23.015625,9.03125,381
367,1696258045084,-0.107666016,-1.3284302,0.046325684,-1.46875,-6.453125,-2.453125,382
368,1696258045124,0.4794922,-1.2114868,-0.053527832,3.0,-2.53125,-9.71875,383
369,1696258045164,0.49609375,-0.9273071,0.18206787,13.484375,-14.125,-10.25,384
370,1696258045204,0.30566406,-0.7732544,0.20452881,-16.84375,-11.84375,3.5625,385
371,1696258045244,-0.16992188,-1.1524048,0.06072998,7.03125,0.84375,13.4375,386
372,1696258045284,-0.011474609,-1.0132446,0.08856201,3.078125,5.03125,-4.359375,387
373,1696258045324,0.15673828,-0.65045166,0.23968506,6.09375,7.90625,-18.765625,388
374,1696258045364,0.017822266,-0.4673462,0.22088623,6.546875,0.375,-9.3125,389
375,1696258045404,-0.11279297,-0.45587158,0.13323975,10.125,7.0,1.0625,390
376,1696258045444,-0.08862305,-0.65289307,0.12640381,15.234375,14.1875,7.25,391
377,1696258045484,-0.047607422,-0.83062744,0.31488037,0.375,7.265625,7.625,392
378,1696258045524,-0.09814453,-0.9458618,0.37957764,-5.484375,-0.34375,1.921875,393
379,1696258045564,-0.0009765625,-1.0420532,0.27996826,-6.75,0.0625,-4.34375,394
380,1696258045604,-0.16772461,-1.1570435,0.2904663,4.796875,11.625,-4.015625,395
381,1696258045644,-0.2175293,-1.1675415,0.54852295,-6.546875,26.8125,-11.609375,396
382,1696258045684,-0.25610352,-1.5862427,0.024108887,-27.453125,7.640625,-4.578125,397
383,1696258045724,0.93530273,-1.9846802,0.044128418,-17.9375,28.046875,11.21875,398
384,1696258045764,0.2434082,-0.98443604,0.07611084,-2.28125,13.734375,-13.921875,399
385,1696258045804,-0.14746094,-1.2036743,-0.11236572,-3.875,-31.921875,-8.046875,400
386,1696258045844,-0.080566406,-0.9573364,0.14154053,1.375,9.359375,-4.515625,401
387,1696258045884,0.076660156,-0.81256104,-0.009094238,16.171875,-1.921875,2.1875,402
388,1696258045924,0.28710938,-0.690979,0.050720215,10.890625,-0.09375,0.171875,403
389,1696258045964,0.033691406,-0.56085205,0.09954834,-1.921875,-20.453125,5.765625,404
390,1696258046004,-0.16772461,-0.6069946,-0.045715332,3.234375,-37.828125,14.3125,405
391,1696258046044,-0.24560547,-0.7896118,0.05706787,5.21875,-4.84375,9.0625,406
392,1696258046084,-0.20336914,-0.8838501,0.11590576,6.40625,9.265625,0.109375,407
393,1696258046124,-0.0048828125,-0.91485596,0.2531128,7.59375,-2.28125,2.0625,408
394,1696258046164,0.057617188,-0.99786377,0.34100342,3.40625,-20.90625,5.328125,409
395,1696258046204,-0.016601562,-1.2791138,0.23626709,-3.234375,-23.796875,17.9375,410
396,1696258046244,-0.119384766,-1.3433228,0.31585693,-3.921875,-30.359375,15.40625,411
397,1696258046284,-0.36938477,-1.8120728,0.008239746,-19.265625,-37.5625,11.0625,412
398,1696258046324,0.3330078,-1.1751099,-0.14556885,6.34375,-9.328125,-10.625,413
399,1696258046364,0.77783203,-0.85723877,0.2267456,15.34375,-1.5,-15.421875,414
400,1696258046404,0.18334961,-0.99591064,0.024108887,3.21875,-6.921875,-5.03125,415
401,1696258046444,-0.13891602,-1.2012329,0.09564209,-3.515625,5.9375,17.109375,416
402,1696258046484,0.09423828,-0.97491455,0.105407715,0.953125,12.890625,-2.546875,417
403,1696258046524,0.28759766,-0.57769775,0.19720459,8.203125,-0.828125,-16.1875,418
404,1696258046564,0.032714844,-0.41461182,0.19012451,4.515625,-5.46875,0.40625,419
405,1696258046604,-0.1586914,-0.43804932,0.097351074,2.140625,-15.5625,9.703125,420
406,1696258046644,-0.17797852,-0.7029419,0.109802246,9.0625,0.484375,11.265625,421
407,1696258046684,0.0126953125,-0.99835205,0.27435303,3.5,18.625,11.859375,422
408,1696258046724,0.021484375,-1.2153931,0.3053589,10.609375,-2.515625,-0.71875,423
409,1696258046764,0.030273438,-1.3272095,0.20013428,4.609375,-0.109375,-5.265625,424
410,1696258046804,-0.18481445,-1.2468872,0.25115967,-3.328125,14.703125,-7.578125,425
411,1696258046844,0.028564453,-1.6936646,-0.08380127,4.5625,15.421875,13.625,426
412,1696258046884,0.58081055,-1.4448853,0.13616943,-3.9375,34.953125,-1.578125,427
413,1696258046924,0.26416016,-0.8809204,-0.1038208,-20.328125,-6.5625,-22.203125,428
414,1696258046964,0.06347656,-0.7871704,-0.25811768,-9.671875,-22.484375,4.171875,429
415,1696258047004,-0.09863281,-0.99224854,-0.15753174,9.453125,-2.78125,12.453125,430
416,1696258047044,0.14575195,-1.0298462,0.14471436,12.921875,14.15625,-1.59375,431
417,1696258047084,0.14648438,-0.86187744,0.10345459,2.203125,-10.3125,-16.03125,432
418,1696258047124,0.02758789,-0.52667236,-0.0178833,3.578125,-21.65625,-6.875,433
419,1696258047164,-0.1015625,-0.35113525,-0.010559082,-2.328125,-16.078125,5.28125,434
420,1696258047204,-0.20507812,-0.5498657,0.10003662,-1.953125,-2.390625,11.0,435
421,1696258047244,-0.1977539,-0.9390259,0.03338623,0.609375,-2.953125,8.625,436
422,1696258047284,0.032714844,-1.1216431,0.12322998,1.875,0.9375,3.09375,437
423,1696258047324,0.046875,-1.3272095,0.22991943,10.953125,1.4375,1.234375,438
424,1696258047364,-0.14404297,-1.4058228,0.17669678,-11.0625,-8.9375,9.640625,439
425,1696258047404,-0.21289062,-1.5874634,0.082214355,-20.296875,-13.484375,9.125,440
426,1696258047444,0.0034179688,-1.286438,-0.003479004,-6.265625,-8.453125,1.8125,441
427,1696258047484,0.55444336,-1.0706177,-0.094055176,0.203125,-10.296875,-16.171875,442
428,1696258047524,0.5551758,-0.77471924,0.16986084,7.484375,-2.578125,-13.421875,443
429,1696258047564,0.1706543,-0.77911377,0.044128418,-9.234375,-20.453125,5.71875,444
430,1696258047604,-0.015136719,-1.0752563,0.0119018555,-3.5625,-1.5,13.265625,445
431,1696258047644,0.079833984,-0.909729,0.08392334,5.296875,8.265625,-5.421875,446
432,1696258047684,0.21533203,-0.5979614,0.2074585,2.109375,-5.53125,-13.84375,447
433,1696258047724,0.06958008,-0.46270752,0.20184326,-0.09375,-17.890625,0.859375,448
434,1696258047764,-0.044189453,-0.56036377,0.19378662,-3.46875,-22.796875,9.921875,449
435,1696258047804,-0.111328125,-0.80841064,0.19622803,4.734375,-5.640625,13.859375,450
436,1696258047844,-0.1003418,-1.1021118,0.18548584,6.25,-2.625,4.328125,451
437,1696258047884,-0.10546875,-0.9871216,0.260437,14.515625,4.171875,-6.328125,452
438,1696258047924,-0.044433594,-1.2056274,0.18475342,17.625,18.328125,-2.859375,453
439,1696258047964,-0.19165039,-1.4663696,0.22723389,5.34375,25.0625,-10.34375,454
440,1696258048004,0.21533203,-1.7976685,-0.043029785,-15.4375,17.1875,2.40625,455
441,1696258048044,0.4453125,-1.3218384,-0.042053223,-19.09375,27.1875,-13.5625,456
442,1696258048084,0.42944336,-0.87750244,-0.22393799,-13.75,-12.65625,-14.28125,457
443,1696258048124,0.013671875,-0.8184204,-0.11553955,-7.78125,-15.484375,7.015625,458
444,1696258048164,-0.2512207,-1.0181274,0.007019043,6.78125,11.4375,6.484375,459
445,1696258048204,0.010498047,-0.8513794,0.13201904,12.4375,15.1875,-3.625,460
446,1696258048244,0.15234375,-0.6856079,0.112976074,-1.453125,-0.828125,-11.65625,461
447,1696258048284,0.056152344,-0.5549927,-0.04107666,-4.453125,-11.65625,-4.046875,462
448,1696258048324,-0.05078125,-0.48321533,-0.06060791,-19.515625,-3.40625,9.84375,463
449,1696258048364,-0.12207031,-0.61846924,0.15447998,-16.3125,5.09375,15.203125,464
450,1696258048404,-0.13232422,-0.81207275,0.17425537,6.296875,-3.96875,8.65625,465
451,1696258048444,-0.24536133,-1.2166138,0.18841553,17.890625,0.21875,9.234375,466
452,1696258048484,0.016601562,-1.3416138,0.3024292,-5.71875,-0.46875,14.609375,467
453,1696258048524,0.014160156,-1.3887329,0.34417725,2.640625,-18.3125,12.328125,468
454,1696258048564,-0.22192383,-1.6633911,0.06781006,3.390625,-25.921875,13.8125,469
455,1696258048604,0.30493164,-1.4473267,-0.13970947,1.515625,-5.46875,2.671875,470
456,1696258048644,0.6479492,-1.0269165,0.124938965,23.5,-4.3125,-16.9375,471
457,1696258048684,0.5073242,-0.72540283,0.05218506,-6.34375,-18.109375,-10.59375,472
458,1696258048724,-0.028808594,-0.92022705,0.02923584,-5.953125,0.640625,6.6875,473
459,1696258048764,-0.041992188,-0.9636841,0.026062012,-1.171875,4.59375,10.328125,474
460,1696258048804,0.18945312,-0.6658325,0.11419678,3.890625,6.796875,-15.140625,475
461,1696258048844,0.18603516,-0.5093384,0.1876831,-0.3125,-6.671875,-11.734375,476
462,1696258048884,0.017822266,-0.46588135,0.19476318,-2.578125,-10.375,-0.09375,477
463,1696258048924,-0.12597656,-0.64190674,0.17913818,2.890625,-7.078125,7.90625,478
464,1696258048964,-0.100097656,-0.9570923,0.07342529,6.484375,3.578125,7.09375,479
465,1696258049004,0.0078125,-1.1035767,0.25823975,1.96875,11.859375,2.125,480
466,1696258049044,-0.052978516,-1.2637329,0.16766357,10.609375,7.296875,2.09375,481
467,1696258049084,-0.016601562,-1.250061,0.36810303,-2.3125,10.953125,-4.4375,482
468,1696258049124,-0.38842773,-1.4849243,0.20794678,6.484375,29.671875,-8.65625,483
469,1696258049164,0.38061523,-1.5505981,-0.12017822,2.578125,32.828125,-9.5,484
470,1696258049204,0.5048828,-1.0894165,-0.17193604,-10.65625,22.4375,-11.0,485
471,1696258049244,0.52246094,-0.8508911,-0.14019775,-11.265625,-3.546875,-2.0,486
472,1696258049284,-0.14282227,-0.8526001,-0.1741333,-6.34375,-29.859375,3.84375,487
473,1696258049324,-0.2956543,-0.9492798,0.028259277,0.125,9.828125,4.46875,488
474,1696258049364,0.07470703,-0.81988525,0.030944824,7.703125,20.796875,-6.0,489
475,1696258049404,0.22338867,-0.6096802,0.042175293,-1.03125,10.21875,-13.765625,490
476,1696258049444,0.05078125,-0.5244751,0.043151855,-0.546875,-12.28125,-4.3125,491
477,1696258049484,-0.14331055,-0.6018677,0.04119873,-8.234375,-4.53125,11.34375,492
478,1696258049524,-0.20019531,-0.7510376,0.14715576,-2.71875,11.453125,14.484375,493
479,1696258049564,-0.114990234,-0.9783325,0.14788818,10.609375,9.78125,5.03125,494
480,1696258049604,0.083496094,-1.2791138,0.21185303,16.03125,0.40625,10.9375,495
481,1696258049644,0.021728516,-1.5335083,0.28753662,-15.46875,-13.8125,9.75,496
482,1696258049684,-0.16918945,-1.3967896,0.24334717,-24.125,-27.453125,1.671875,497
483,1696258049724,-0.053710938,-1.3840942,-0.11773682,-12.03125,-35.515625,0.140625,498
484,1696258049764,0.59521484,-1.1453247,-0.06817627,7.640625,-12.578125,1.125,499
485,1696258049804,0.89282227,-0.87384033,0.20135498,12.21875,-15.828125,-8.0,500
486,1696258049844,0.030517578,-1.0093384,0.089538574,-12.59375,-14.640625,-1.625,501
487,1696258049884,-0.29516602,-1.1863403,0.05609131,-10.171875,20.0625,3.34375,502
488,1696258049924,0.08911133,-0.78009033,0.066101074,11.28125,23.421875,-15.046875,503
489,1696258049964,0.33642578,-0.4319458,0.25701904,9.796875,-4.8125,-13.921875,504
490,1696258050004,0.16796875,-0.39483643,0.2243042,-0.078125,-16.65625,2.265625,505
491,1696258050044,-0.080566406,-0.5039673,0.17279053,-1.84375,-21.796875,10.609375,506
492,1696258050084,-0.2055664,-0.85772705,0.113464355,3.625,-6.1875,13.1875,507
493,1696258050124,-0.100097656,-1.079895,0.3007202,-2.53125,8.171875,5.46875,508
494,1696258050164,0.03173828,-1.0859985,0.28045654,17.453125,-2.796875,-3.53125,509
495,1696258050204,0.03466797,-1.2459106,0.35784912,5.5,3.796875,-6.640625,510
496,1696258050244,-0.30395508,-1.3667603,0.09466553,11.53125,18.46875,-9.625,511
497,1696258050284,0.32104492,-1.8867798,-0.16900635,2.0625,30.78125,7.1875,512
498,1696258050324,0.5251465,-1.298645,0.018493652,-21.40625,22.546875,-16.5,513
499,1696258050364,0.31835938,-0.79571533,-0.14361572,-21.328125,-14.421875,-14.859375,514
500,1696258050404,0.0043945312,-0.8640747,-0.18341064,-3.3125,-17.5,4.515625,515
501,1696258050444,-0.09008789,-0.95758057,0.028747559,13.3125,9.3125,6.984375,516
502,1696258050484,0.055908203,-0.8303833,0.14422607,11.0,13.875,-2.46875,517
503,1696258050524,0.068847656,-0.67193604,0.08441162,-5.875,-4.703125,-12.09375,518
504,1696258050564,-0.052001953,-0.536438,-0.042785645,-4.640625,-13.234375,-5.078125,519
505,1696258050604,-0.1328125,-0.56427,0.0016479492,-10.578125,-3.921875,7.015625,520
506,1696258050644,-0.12768555,-0.72052,0.13763428,-5.546875,7.6875,8.96875,521
507,1696258050684,-0.1315918,-0.9168091,0.1642456,-5.15625,7.078125,5.703125,522
508,1696258050724,-0.03100586,-1.081604,0.27044678,2.78125,-2.078125,8.40625,523
509,1696258050764,0.05102539,-1.2280884,0.3295288,0.140625,0.15625,10.71875,524
510,1696258050804,-0.0793457,-1.250061,0.276062,0.09375,-15.796875,15.34375,525
511,1696258050844,-0.38012695,-1.6953735,0.054382324,-3.296875,-36.09375,11.296875,526
512,1696258050884,0.45141602,-1.3804321,0.00091552734,-0.953125,-2.140625,-13.15625,527
513,1696258050924,0.7126465,-0.9133911,0.24383545,20.078125,-4.171875,-22.703125,528
514,1696258050964,0.32910156,-0.800354,0.11126709,-10.953125,-18.875,-7.25,529
515,1696258051004,-0.055419922,-1.1516724,0.070007324,-5.421875,-5.703125,15.828125,530
516,1696258051044,0.07348633,-1.0847778,0.12957764,-2.875,9.171875,2.1875,531
517,1696258051084,0.16113281,-0.7324829,0.19256592,4.34375,-4.609375,-18.3125,532
518,1696258051124,0.03881836,-0.5064087,0.1749878,1.921875,-1.6875,-9.609375,533
519,1696258051164,-0.08886719,-0.44537354,0.16668701,1.609375,0.03125,2.578125,534
520,1696258051204,-0.16503906,-0.5564575,0.16278076,9.875,8.34375,7.890625,535
521,1696258051244,0.00390625,-0.815979,0.19598389,8.71875,10.140625,8.5,536
522,1696258051284,0.01977539,-1.0657349,0.3583374,9.53125,-5.953125,-0.1875,537
523,1696258051324,-0.092041016,-1.2498169,0.16741943,10.859375,-6.234375,-2.453125,538
524,1696258051364,-0.17871094,-1.2415161,0.34368896,6.484375,13.5625,-6.921875,539
525,1696258051404,-0.43481445,-1.4780884,0.09100342,2.875,33.359375,-6.515625,540
526,1696258051444,0.52563477,-1.6990356,-0.26519775,8.765625,28.21875,3.84375,541
527,1696258051484,0.5517578,-1.0869751,-0.008361816,-20.328125,36.84375,-12.34375,542
528,1696258051524,0.43969727,-0.74176025,-0.10626221,-11.96875,-34.375,-6.921875,543
529,1696258051564,-0.14038086,-1.0044556,-0.11651611,2.375,-29.0,5.03125,544
530,1696258051604,-0.1875,-1.0552368,0.18255615,4.984375,15.875,1.859375,545
531,1696258051644,0.049804688,-0.78204346,0.03338623,3.421875,4.046875,-13.40625,546
532,1696258051684,0.083496094,-0.50250244,-0.034973145,-1.671875,-4.828125,-13.78125,547
533,1696258051724,-0.0068359375,-0.49005127,0.028259277,-1.328125,-13.5625,5.390625,548
534,1696258051764,-0.12231445,-0.677063,0.10858154,-9.859375,-11.3125,14.984375,549
535,1696258051804,-0.17260742,-0.9631958,0.121276855,7.25,1.390625,9.984375,550
536,1696258051844,-0.009033203,-1.0276489,0.19769287,-2.921875,-8.234375,4.75,551
537,1696258051884,-0.009277344,-0.9602661,0.25238037,10.046875,-17.5,6.484375,552
538,1696258051924,-0.1340332,-1.229065,0.2616577,0.21875,-4.6875,14.140625,553
539,1696258051964,-0.28588867,-1.3242798,0.24725342,-2.140625,-20.234375,12.625,554
540,1696258052004,-0.20581055,-1.6050415,0.09564209,-3.8125,-9.265625,5.203125,555
541,1696258052044,0.47680664,-1.2434692,-0.23736572,-1.34375,-12.65625,-2.703125,556
542,1696258052084,0.8898926,-1.083313,0.31097412,11.0625,-7.046875,-16.96875,557
543,1696258052124,0.23364258,-0.76568604,0.005065918,-5.265625,-35.203125,-5.421875,558
544,1696258052164,-0.27026367,-1.1607056,-0.05279541,-3.390625,-11.375,13.640625,559
545,1696258052204,-0.09765625,-1.0591431,0.04144287,2.0625,18.5625,-1.734375,560
546,1696258052244,0.31469727,-0.6616821,0.1762085,5.25,13.8125,-17.921875,561
547,1696258052284,0.25390625,-0.52593994,0.20306396,-2.4375,-6.6875,-2.609375,562
548,1696258052324,-0.02319336,-0.4710083,0.16326904,-3.890625,-15.203125,8.734375,563
549,1696258052364,-0.18896484,-0.6633911,0.15570068,6.234375,-10.0,10.34375,564
550,1696258052404,-0.14892578,-0.9192505,0.1671753,3.96875,7.5625,4.4375,565
551,1696258052444,-0.030273438,-0.95196533,0.37591553,1.25,4.703125,-2.609375,566
552,1696258052484,-0.048095703,-1.1511841,0.1449585,8.84375,-6.46875,-2.421875,567
553,1696258052524,0.07495117,-1.2163696,0.32684326,0.65625,3.703125,0.34375,568
554,1696258052564,-0.38330078,-1.4382935,0.2086792,-0.75,24.25,0.03125,569
555,1696258052604,0.022460938,-1.6074829,0.016540527,-5.15625,35.671875,-8.640625,570
556,1696258052644,0.29101562,-1.2334595,-0.11529541,-29.390625,44.6875,-12.125,571
557,1696258052684,0.40893555,-0.7564087,-0.1116333,-12.765625,9.390625,-9.796875,572
558,1696258052724,0.13500977,-0.85235596,-0.07574463,-7.53125,-14.265625,8.5,573
559,1696258052764,-0.22045898,-1.15094,0.020446777,0.375,8.828125,8.21875,574
560,1696258052804,-0.0014648438,-1.0147095,0.2062378,14.09375,7.515625,-2.25,575
561,1696258052844,0.16918945,-0.7280884,0.13909912,-4.328125,-1.421875,-14.59375,576
562,1696258052884,0.08935547,-0.48809814,-0.011291504,-4.796875,-2.375,-4.890625,577
563,1696258052924,-0.055419922,-0.519104,0.0072631836,-1.703125,-5.25,13.109375,578
564,1696258052964,-0.111572266,-0.6873169,0.17523193,3.171875,-1.484375,15.25,579
565,1696258053004,-0.09472656,-0.91851807,0.16400146,16.6875,-0.21875,2.796875,580
566,1696258053044,-0.07104492,-1.0596313,0.23236084,19.640625,-0.46875,2.078125,581
567,1696258053084,-0.096191406,-1.281311,0.30218506,-0.265625,-10.953125,10.671875,582
568,1696258053124,-0.02709961,-1.361145,0.3781128,-14.375,-12.078125,12.734375,583
569,1696258053164,-0.09423828,-1.5515747,0.09246826,-11.75,-36.390625,8.890625,584
570,1696258053204,0.23535156,-1.3735962,-0.270813,0.125,-34.015625,-3.171875,585
571,1696258053244,0.75,-0.96539307,0.20159912,16.515625,-3.40625,-16.3125,586
572,1696258053284,0.37939453,-0.80792236,0.09222412,-6.5,-26.0,-7.3125,587
573,1696258053324,-0.21313477,-1.1399536,0.08148193,-13.0625,-0.890625,3.921875,588
574,1696258053364,-0.10253906,-1.0401001,-0.024719238,4.03125,11.265625,3.125,589
575,1696258053404,0.24414062,-0.6296997,0.1762085,0.5625,14.921875,-15.453125,590
576,1696258053444,0.21972656,-0.45587158,0.23822021,0.203125,-6.421875,-7.203125,591
577,1696258053484,-0.03491211,-0.46148682,0.18060303,-1.59375,-14.3125,5.015625,592
578,1696258053524,-0.1887207,-0.6548462,0.16107178,5.421875,-9.078125,10.703125,593
579,1696258053564,-0.107666016,-0.96710205,0.20916748,2.75,3.328125,8.5,594
580,1696258053604,-0.013183594,-1.0144653,0.37493896,9.546875,-5.046875,-4.46875,595
581,1696258053644,-0.076416016,-1.1555786,0.1281128,15.890625,-6.1875,1.0,596
582,1696258053684,0.0009765625,-1.15094,0.32684326,3.203125,8.890625,1.671875,597
583,1696258053724,-0.3046875,-1.5437622,0.22943115,-0.78125,21.4375,-0.34375,598
584,1696258053764,0.30639648,-1.6785278,0.06341553,-6.828125,24.046875,-2.21875,599
585,1696258053804,0.32543945,-1.1438599,-0.15142822,-18.265625,21.9375,-12.359375,600
586,1696258053844,0.2758789,-0.70758057,-0.14117432,-13.484375,-3.578125,-4.953125,601
587,1696258053884,-0.0703125,-0.8735962,-0.07720947,-8.03125,-18.34375,8.75,602
588,1696258053924,-0.18457031,-1.1294556,0.06585693,7.328125,16.078125,2.03125,603
589,1696258053964,0.1003418,-0.93634033,0.12738037,11.28125,14.78125,-3.890625,604
590,1696258054004,0.1796875,-0.66900635,0.10003662,2.734375,-2.796875,-15.421875,605
591,1696258054044,0.011962891,-0.5339966,-0.00079345703,5.390625,-13.046875,-1.90625,606
592,1696258054084,-0.16845703,-0.5654907,0.03656006,-2.84375,-8.421875,15.0625,607
593,1696258054124,-0.23461914,-0.77789307,0.09857178,4.15625,4.015625,11.109375,608
594,1696258054164,-0.18554688,-0.9661255,0.14813232,8.265625,18.40625,2.359375,609
595,1696258054204,-0.013427734,-1.0308228,0.23699951,12.234375,3.46875,4.4375,610
596,1696258054244,-0.006591797,-1.2590942,0.2423706,-6.75,-1.6875,8.515625,611
597,1696258054284,-0.05908203,-1.3379517,0.17816162,-4.671875,-12.453125,13.796875,612
598,1696258054324,-0.17333984,-1.5803833,0.13446045,-16.15625,-31.671875,11.359375,613
599,1696258054364,0.1796875,-1.3130493,-0.19952393,-0.53125,-8.265625,-5.640625,614
600,1696258054404,0.62646484,-1.0422974,0.0033569336,4.3125,-4.84375,-15.859375,615
601,1696258054444,0.54956055,-0.75787354,0.184021,2.203125,-12.6875,-9.53125,616
602,1696258054484,-0.053466797,-0.9614868,-0.024963379,-3.796875,-12.78125,5.90625,617
603,1696258054524,-0.08691406,-1.1912231,0.0033569336,0.546875,10.359375,10.890625,618
604,1696258054564,0.16113281,-0.7998657,0.1329956,0.609375,8.921875,-13.890625,619
605,1696258054604,0.2355957,-0.5237427,0.23382568,0.390625,-6.40625,-11.71875,620
606,1696258054644,0.011474609,-0.46881104,0.2111206,-3.03125,-9.71875,3.3125,621
607,1696258054684,-0.15942383,-0.6157837,0.20379639,0.78125,-10.421875,8.859375,622
608,1696258054724,-0.18359375,-0.8320923,0.15057373,10.1875,1.5625,6.59375,623
609,1696258054764,-0.04321289,-0.97320557,0.27557373,-3.234375,4.640625,2.21875,624
610,1696258054804,0.037109375,-1.053772,0.32122803,8.78125,-0.78125,-1.078125,625
611,1696258054844,0.038085938,-1.2622681,0.26312256,2.21875,-2.75,1.421875,626
612,1696258054884,-0.22949219,-1.5046997,0.1449585,-2.40625,13.796875,3.140625,627
613,1696258054924,0.09838867,-1.7207642,0.08099365,-12.984375,30.1875,2.875,628
614,1696258054964,0.2902832,-1.2842407,0.059509277,-23.328125,33.15625,-13.3125,629
615,1696258055004,0.22143555,-0.819397,-0.054260254,-3.90625,-1.734375,-17.390625,630
616,1696258055044,0.09033203,-0.7671509,-0.0713501,-6.9375,-0.75,2.328125,631
617,1696258055084,-0.13305664,-0.9829712,-0.00030517578,11.5,12.25,5.21875,632
618,1696258055124,0.0056152344,-0.9673462,0.14813232,13.140625,16.25,-0.6875,633
619,1696258055164,0.084472656,-0.75982666,0.14691162,-3.59375,1.484375,-8.921875,634
620,1696258055204,0.011474609,-0.5779419,-0.0029907227,0.265625,-2.265625,-6.53125,635
621,1696258055244,-0.09277344,-0.5479126,0.01361084,-4.96875,2.0625,4.359375,636
622,1696258055284,-0.15576172,-0.6878052,0.12908936,-4.453125,2.46875,10.40625,637
623,1696258055324,-0.13891602,-0.91192627,0.22503662,1.375,8.703125,7.078125,638
624,1696258055364,-0.010009766,-1.0755005,0.24749756,8.359375,7.859375,6.875,639
625,1696258055404,0.013671875,-1.2185669,0.3102417,-2.0625,-7.984375,4.734375,640
626,1696258055444,-0.026855469,-1.2974243,0.27923584,-12.90625,-17.21875,14.03125,641
627,1696258055484,-0.1315918,-1.6206665,0.15789795,-3.140625,-23.75,9.90625,642
628,1696258055524,0.23925781,-1.5149536,-0.0881958,7.984375,-27.40625,-2.953125,643
629,1696258055564,0.64038086,-0.93634033,0.16204834,22.265625,-11.671875,-18.953125,644
630,1696258055604,0.4387207,-0.7329712,0.13763428,0.265625,-11.34375,-11.203125,645
631,1696258055644,-0.095947266,-1.0518188,0.03363037,-3.328125,2.40625,5.828125,646
632,1696258055684,-0.038085938,-1.0300903,0.02947998,-1.671875,10.28125,6.546875,647
633,1696258055724,0.20678711,-0.6890259,0.14227295,-2.4375,7.53125,-12.640625,648
634,1696258055764,0.17260742,-0.50323486,0.22454834,-1.234375,-8.9375,-9.609375,649
635,1696258055804,-0.018310547,-0.4883423,0.22161865,-0.78125,-13.5,0.421875,650
636,1696258055844,-0.17089844,-0.7073364,0.16864014,2.9375,-8.140625,9.328125,651
637,1696258055884,-0.080566406,-0.89312744,0.18865967,2.640625,1.171875,8.46875,652
638,1696258055924,0.015625,-0.94732666,0.4081421,3.828125,-5.3125,-0.5,653
639,1696258055964,-0.08666992,-1.1069946,0.20550537,10.5,-6.375,-0.625,654
640,1696258056004,-0.11010742,-1.222229,0.29510498,0.828125,8.09375,-2.875,655
641,1696258056044,-0.45874023,-1.3115845,0.262146,1.046875,32.25,-12.078125,656
642,1696258056084,0.14282227,-1.6792603,-0.0076293945,-8.75,37.0,-7.453125,657
643,1696258056124,0.6123047,-1.335022,-0.04888916,-14.703125,25.828125,-4.109375,658
644,1696258056164,0.39916992,-0.81036377,-0.046447754,-21.921875,-1.78125,-5.640625,659
645,1696258056204,-0.005126953,-0.83135986,-0.06304932,-6.984375,-32.765625,3.796875,660
646,1696258056244,-0.31445312,-1.0437622,0.097595215,5.484375,4.3125,6.15625,661
647,1696258056284,0.041503906,-0.90582275,0.101745605,17.25,7.71875,-2.421875,662
648,1696258056324,0.1772461,-0.6333618,0.06829834,3.09375,8.875,-12.890625,663
649,1696258056364,0.048095703,-0.5383911,0.03387451,10.890625,-16.78125,-5.375,664
650,1696258056404,-0.0949707,-0.61676025,0.10467529,7.90625,-11.0625,10.921875,665
651,1696258056444,-0.22363281,-0.835022,0.14813232,2.015625,1.671875,11.3125,666
652,1696258056484,-0.22338867,-1.0010376,0.14544678,7.359375,1.78125,2.71875,667
653,1696258056524,-0.051513672,-0.92266846,0.19085693,7.0,-5.859375,1.265625,668
654,1696258056564,-0.05126953,-1.1170044,0.19696045,-3.140625,-0.015625,4.125,669
655,1696258056604,-0.21166992,-1.3787231,0.18621826,-10.15625,-8.234375,9.375,670
656,1696258056644,-0.2409668,-1.5813599,0.18231201,-16.96875,-15.84375,1.421875,671
657,1696258056684,0.31445312,-1.3325806,-0.24810791,-8.296875,-11.078125,-13.015625,672
658,1696258056724,0.78393555,-1.0896606,0.27947998,12.40625,0.34375,-22.359375,673
659,1696258056764,0.3388672,-0.850647,0.18060303,-2.09375,-17.203125,-1.703125,674
660,1696258056804,-0.14770508,-1.1218872,0.00970459,5.875,-6.546875,14.265625,675
661,1696258056844,-0.06567383,-1.1060181,0.08441162,2.375,12.421875,6.609375,676
662,1696258056884,0.17749023,-0.690979,0.15472412,9.34375,3.328125,-13.515625,677
663,1696258056924,0.15063477,-0.44781494,0.2008667,1.03125,-4.734375,-6.9375,678
664,1696258056964,-0.00048828125,-0.4619751,0.15594482,3.59375,-9.4375,7.75,679
665,1696258057004,-0.07543945,-0.69537354,0.15423584,5.546875,-3.5625,17.4375,680
666,1696258057044,-0.0053710938,-0.9883423,0.20648193,0.9375,-3.21875,15.140625,681
667,1696258057084,-0.020507812,-1.1126099,0.40667725,-0.546875,-12.8125,-1.765625,682
668,1696258057124,-0.15649414,-1.0449829,0.20159912,4.4375,-5.234375,-7.78125,683
669,1696258057164,-0.15234375,-1.0774536,0.24505615,-0.359375,15.375,-5.203125,684
670,1696258057204,-0.25878906,-1.3704224,0.1798706,-5.390625,31.734375,-1.84375,685
671,1696258057244,0.41967773,-1.7954712,-0.008850098,-21.078125,24.9375,7.4375,686
672,1696258057284,0.35058594,-1.211731,0.001159668,-21.828125,26.390625,-12.578125,687
673,1696258057324,0.20532227,-0.8477173,-0.17340088,-11.8125,-17.75,-5.84375,688
674,1696258057364,-0.007080078,-0.92022705,-0.05255127,-7.25,-2.609375,4.875,689
675,1696258057404,-0.122802734,-1.098938,0.04534912,20.0625,6.1875,5.65625,690
676,1696258057444,0.13208008,-0.9807739,0.20599365,15.953125,4.953125,-4.0,691
677,1696258057484,0.13598633,-0.7229614,0.15301514,-2.046875,-12.0,-12.6875,692
678,1696258057524,-0.061767578,-0.5105591,-0.026184082,-0.328125,-20.015625,-2.359375,693
679,1696258057564,-0.18920898,-0.47149658,0.027526855,-8.90625,-9.90625,10.1875,694
680,1696258057604,-0.16625977,-0.6851196,0.11175537,-5.109375,-0.375,12.953125,695
681,1696258057644,-0.11401367,-0.88067627,0.12762451,2.15625,2.109375,6.96875,696
682,1696258057684,-0.015380859,-1.0720825,0.27557373,-3.5625,-10.09375,5.546875,697
683,1696258057724,-0.009033203,-1.2288208,0.3451538,-6.703125,-18.390625,11.625,698
684,1696258057764,-0.060302734,-1.2493286,0.32147217,10.40625,-11.03125,15.1875,699
685,1696258057804,-0.3708496,-1.5562134,0.24676514,0.140625,-18.75,17.40625,700
686,1696258057844,-0.15063477,-1.5022583,-0.2144165,1.953125,-9.03125,1.296875,701
687,1696258057884,0.7421875,-1.0767212,0.02557373,10.375,4.359375,-16.328125,702
688,1696258057924,0.6352539,-0.8406372,0.24212646,10.671875,0.765625,-16.203125,703
689,1696258057964,0.059326172,-0.8977661,0.010681152,-9.359375,-11.0,-2.65625,704
690,1696258058004,-0.21313477,-1.1636353,0.03778076,-3.6875,17.03125,13.71875,705
691,1696258058044,0.07519531,-0.9053345,0.08074951,-4.5,21.53125,-8.15625,706
692,1696258058084,0.2746582,-0.65411377,0.2296753,0.203125,14.03125,-17.6875,707
693,1696258058124,0.060058594,-0.5027466,0.24969482,0.9375,0.46875,-3.953125,708
694,1696258058164,-0.09472656,-0.5149536,0.24945068,11.96875,-2.171875,4.796875,709
695,1696258058204,-0.16772461,-0.76519775,0.07147217,16.125,-4.859375,12.015625,710
696,1696258058244,-0.020507812,-1.0332642,0.14471436,5.703125,3.984375,-1.125,711
697,1696258058284,0.036865234,-0.93951416,0.2489624,12.015625,1.953125,-10.734375,712
698,1696258058324,0.009765625,-1.0855103,0.15765381,7.125,-0.890625,-1.84375,713
699,1696258058364,-0.12866211,-1.1956177,0.27703857,12.125,17.609375,3.578125,714
700,1696258058404,-0.33032227,-1.5186157,0.07733154,-9.4375,15.859375,5.125,715
701,1696258058444,0.30004883,-1.5515747,0.023376465,5.9375,22.671875,-6.109375,716
702,1696258058484,0.39672852,-1.265686,-0.34649658,-4.234375,24.453125,-7.796875,717
703,1696258058524,0.3762207,-0.8921509,-0.1638794,-7.671875,1.359375,-1.71875,718
704,1696258058564,-0.021484375,-0.8098755,-0.08111572,-3.5625,-32.0,8.375,719
705,1696258058604,-0.08642578,-0.93170166,-6.1035156e-05,15.84375,1.203125,11.921875,720
706,1696258058644,0.118896484,-0.9180298,0.051208496,13.625,4.734375,3.078125,721
707,1696258058684,0.075927734,-0.6868286,0.007507324,4.265625,-9.84375,-11.1875,722
708,1696258058724,-0.07763672,-0.5249634,-0.013977051,9.34375,-9.9375,-6.71875,723
709,1696258058764,-0.24951172,-0.5689087,0.014587402,-3.53125,-1.78125,9.59375,724
710,1696258058804,-0.15820312,-0.81134033,0.04437256,1.84375,14.515625,14.578125,725
711,1696258058844,0.026367188,-1.0249634,0.020202637,10.765625,12.71875,9.25,726
712,1696258058884,0.15576172,-1.222229,0.20111084,16.359375,0.9375,12.296875,727
713,1696258058924,0.1015625,-1.4104614,0.042175293,15.28125,-20.796875,20.765625,728
714,1696258058964,-0.14355469,-1.3972778,0.07757568,-32.734375,-33.171875,18.703125,729
715,1696258059004,-0.47680664,-1.5505981,-0.18658447,5.921875,-5.71875,28.84375,730
716,1696258059044,0.9484863,-1.333313,-0.36236572,12.4375,16.9375,5.234375,731
717,1696258059084,0.875,-1.0488892,0.33026123,21.5,-16.78125,-28.203125,732
718,1696258059124,0.37719727,-0.8296509,-0.074279785,-13.6875,-14.46875,-8.90625,733
719,1696258059164,0.048828125,-0.9561157,-0.09893799,-4.703125,2.0,6.28125,734
720,1696258059204,0.1977539,-0.7930298,-0.024963379,-3.96875,-13.203125,-0.78125,735
721,1696258059244,0.2734375,-0.66119385,0.10272217,-1.671875,-17.828125,-8.328125,736
722,1696258059284,0.16088867,-0.62384033,0.09173584,-11.703125,-20.828125,-12.421875,737
723,1696258059324,-0.08520508,-0.54644775,0.00091552734,-11.5625,0.703125,-11.171875,738
724,1696258059364,-0.11987305,-0.52056885,0.09539795,-1.609375,12.484375,-8.921875,739
725,1696258059404,0.13378906,-0.68756104,0.21575928,-6.59375,3.8125,1.578125,740
726,1696258059444,0.16723633,-1.0061646,0.30169678,4.59375,-11.875,0.0,741
727,1696258059484,-0.11816406,-1.1983032,0.22381592,-3.421875,-11.671875,-7.34375,742
728,1696258059524,-0.080078125,-1.1426392,0.21356201,1.171875,14.40625,-12.328125,743
729,1696258059564,0.017089844,-1.1856079,0.14715576,-1.84375,16.75,-13.140625,744
730,1696258059604,0.2854004,-1.6653442,-0.058166504,-7.875,11.328125,3.65625,745
731,1696258059644,0.35253906,-1.467102,0.00970459,-20.921875,22.015625,-4.921875,746
732,1696258059684,0.3557129,-0.92144775,-0.14263916,-31.109375,-11.09375,-15.453125,747
733,1696258059724,0.17041016,-0.85357666,-0.10211182,2.390625,-23.171875,2.375,748
734,1696258059764,-0.046875,-1.0054321,-0.028381348,22.640625,-9.546875,6.21875,749
735,1696258059804,-0.039794922,-0.9072876,0.18206787,14.578125,2.40625,-4.703125,750
736,1696258059844,0.010986328,-0.6292114,0.086120605,-3.328125,-6.921875,-10.453125,751
737,1696258059884,-0.006591797,-0.47857666,-0.024475098,-5.671875,-11.265625,-2.625,752
738,1696258059924,-0.014892578,-0.56378174,0.0018920898,-6.46875,-12.203125,11.125,753
739,1696258059964,-0.08154297,-0.8032837,0.16204834,-6.828125,-6.734375,11.59375,754
740,1696258060004,-0.23144531,-1.078186,0.19891357,-5.34375,-6.34375,4.375,755
741,1696258060044,-0.018554688,-1.1192017,0.29779053,-3.0625,-15.3125,5.453125,756
742,1696258060084,0.06347656,-1.196106,0.24041748,10.875,-5.125,2.484375,757
743,1696258060124,-0.07836914,-1.2918091,0.17889404,2.375,-20.90625,17.171875,758
744,1696258060164,-0.19189453,-1.675354,0.09832764,-12.609375,-23.796875,21.375,759
745,1696258060204,0.40771484,-1.3274536,-0.0413208,1.1875,-16.8125,-11.453125,760
746,1696258060244,0.57421875,-0.88531494,0.09173584,16.3125,-3.421875,-24.203125,761
747,1696258060284,0.34326172,-0.78375244,0.07757568,-4.375,-10.875,-2.703125,762
748,1696258060324,0.048095703,-1.0261841,0.10076904,-8.15625,-14.140625,14.484375,763
749,1696258060364,0.024414062,-0.9846802,0.06732178,-1.0625,4.28125,9.28125,764
750,1696258060404,0.16113281,-0.6633911,0.14105225,4.421875,0.5,-16.015625,765
751,1696258060444,0.09008789,-0.43536377,0.22869873,4.828125,-8.234375,-12.875,766
752,1696258060484,-0.020507812,-0.44244385,0.21673584,2.34375,-9.921875,0.453125,767
753,1696258060524,-0.11621094,-0.6621704,0.19940186,0.09375,-0.125,12.578125,768
754,1696258060564,-0.10522461,-0.9985962,0.3390503,6.984375,10.171875,13.375,769
755,1696258060604,-0.30200195,-1.2730103,0.081970215,15.375,3.078125,0.203125,770
756,1696258060644,0.1899414,-1.2393188,0.19378662,4.171875,19.046875,-6.765625,771
757,1696258060684,-0.087646484,-1.1541138,0.44158936,9.09375,27.890625,-8.640625,772
758,1696258060724,-0.0546875,-1.7664185,-0.08746338,-4.375,18.40625,0.65625,773
759,1696258060764,0.5019531,-1.3914185,-0.051086426,-5.78125,22.875,-9.90625,774
