,timestamp,accel_x,accel_y,accel_z,gyro_x,gyro_y,gyro_z
0,1696249481607,-0.3737793,-0.7546997,0.59173584,-0.484375,-0.546875,-0.15625
1,1696249481647,-0.37548828,-0.7593384,0.5951538,-1.0625,-0.078125,-0.109375
2,1696249481687,-0.37109375,-0.7649536,0.58807373,-2.078125,-0.734375,0.234375
3,1696249481727,-0.36865234,-0.75738525,0.60443115,-2.46875,-0.1875,-0.265625
4,1696249481767,-0.37280273,-0.7642212,0.6034546,-3.4375,-0.078125,-0.421875
5,1696249481807,-0.39501953,-0.7503052,0.6149292,-5.546875,-0.0625,-0.234375
6,1696249481847,-0.4111328,-0.7366333,0.6779175,2.375,8.15625,0.46875
7,1696249481887,-0.36645508,-0.79400635,0.6095581,5.765625,11.234375,1.96875
8,1696249481927,-0.37475586,-0.77545166,0.5685425,3.234375,4.8125,-0.046875
9,1696249481967,-0.35595703,-0.7359009,0.61883545,5.84375,1.21875,0.9375
10,1696249482007,-0.35083008,-0.7605591,0.5907593,3.59375,0.375,1.578125
11,1696249482047,-0.3239746,-0.77423096,0.574646,3.296875,0.296875,3.765625
12,1696249482087,-0.33325195,-0.7896118,0.5758667,11.5625,1.15625,4.484375
13,1696249482127,-0.33935547,-0.7959595,0.57562256,8.625,1.53125,3.0625
14,1696249482167,-0.32983398,-0.7744751,0.56292725,4.140625,0.859375,1.46875
15,1696249482207,-0.33520508,-0.7905884,0.5621948,11.015625,1.15625,2.125
16,1696249482247,-0.31933594,-0.8208618,0.56292725,6.546875,-0.4375,2.640625
17,1696249482287,-0.33911133,-0.79571533,0.55584717,1.515625,-1.375,1.8125
18,1696249482327,-0.3178711,-0.80718994,0.5565796,2.546875,-2.28125,0.5
19,1696249482367,-0.32299805,-0.8171997,0.5463257,1.8125,-2.078125,0.546875
20,1696249482407,-0.33081055,-0.79644775,0.5343628,-1.34375,-2.984375,0.109375
21,1696249482447,-0.33129883,-0.7984009,0.54071045,-1.234375,-2.859375,0.390625
22,1696249482487,-0.32885742,-0.8201294,0.54974365,-1.8125,-3.109375,0.515625
23,1696249482527,-0.32958984,-0.81817627,0.5482788,-2.125,-4.53125,0.15625
24,1696249482567,-0.32128906,-0.7896118,0.54241943,-2.9375,-4.703125,-0.984375
25,1696249482607,-0.32373047,-0.78741455,0.5463257,-1.34375,-3.609375,-1.03125
26,1696249482647,-0.32861328,-0.81500244,0.5499878,0.8125,-2.34375,0.03125
27,1696249482687,-0.32128906,-0.798645,0.5314331,-0.578125,-2.515625,0.234375
28,1696249482727,-0.32250977,-0.7659302,0.4862671,7.34375,-3.515625,-0.359375
29,1696249482767,-0.29638672,-0.7854614,0.5036011,7.5625,-5.453125,1.796875
30,1696249482807,-0.35131836,-0.7918091,0.48187256,-7.0,-8.484375,1.375
31,1696249482847,-0.4033203,-0.81085205,0.59783936,-4.8125,-4.5625,-1.140625
32,1696249482887,-0.32202148,-0.85284424,0.56048584,-7.6875,-2.53125,-2.5625
33,1696249482927,-0.34326172,-0.8479614,0.5314331,-8.96875,-1.828125,-3.765625
34,1696249482967,-0.3857422,-0.7720337,0.5463257,-3.125,-4.265625,-4.484375
35,1696249483007,-0.3881836,-0.73883057,0.57073975,-1.390625,1.21875,-2.609375
36,1696249483047,-0.3696289,-0.77423096,0.5639038,-8.078125,-1.65625,-0.953125
37,1696249483087,-0.37573242,-0.7966919,0.5819702,-8.09375,-3.890625,-3.328125
38,1696249483127,-0.36694336,-0.788147,0.5751343,-5.171875,-0.890625,-4.28125
39,1696249483167,-0.38745117,-0.7642212,0.5883179,-4.40625,0.265625,-2.453125
40,1696249483207,-0.40795898,-0.75982666,0.57733154,-3.421875,-0.453125,-1.375
41,1696249483247,-0.39648438,-0.7456665,0.58465576,-3.671875,-0.421875,-2.328125
42,1696249483287,-0.42089844,-0.7439575,0.602478,-6.328125,0.03125,-1.59375
43,1696249483327,-0.42211914,-0.739563,0.61761475,-5.34375,2.921875,-0.75
44,1696249483367,-0.43847656,-0.7493286,0.6713257,3.75,8.28125,1.46875
45,1696249483407,-0.41601562,-0.80059814,0.619812,9.75,11.90625,4.46875
46,1696249483447,-0.3618164,-0.75201416,0.60076904,8.78125,11.390625,3.921875
47,1696249483487,-0.31762695,-0.7490845,0.5687866,8.484375,7.546875,2.90625
48,1696249483527,-0.33374023,-0.7605591,0.5800171,8.703125,2.171875,4.546875
49,1696249483567,-0.35205078,-0.77960205,0.5787964,11.25,2.46875,3.59375
50,1696249483607,-0.3552246,-0.81134033,0.5609741,8.515625,4.125,2.46875
51,1696249483647,-0.32299805,-0.8115845,0.5494995,4.78125,-0.359375,3.34375
52,1696249483687,-0.31274414,-0.7893677,0.5421753,5.359375,-0.828125,3.265625
53,1696249483727,-0.32641602,-0.80914307,0.5429077,4.875,1.171875,2.640625
54,1696249483767,-0.3310547,-0.83599854,0.5355835,1.890625,-1.765625,0.421875
55,1696249483807,-0.31860352,-0.7979126,0.5421753,-0.359375,-3.375,0.9375
56,1696249483847,-0.30786133,-0.7871704,0.54022217,-0.53125,-3.859375,0.234375
57,1696249483887,-0.30029297,-0.8040161,0.53045654,-1.15625,-4.375,0.234375
58,1696249483927,-0.31079102,-0.80841064,0.4647827,-0.046875,-9.5625,-0.390625
59,1696249483967,-0.30541992,-0.77960205,0.49261475,10.046875,-12.671875,-1.53125
60,1696249484007,-0.26904297,-0.76690674,0.49066162,3.21875,-3.4375,0.703125
61,1696249484047,-0.38891602,-0.8726196,0.5446167,-6.21875,-2.125,4.625
62,1696249484087,-0.40283203,-0.86920166,0.5844116,-9.8125,-8.28125,-3.09375
63,1696249484127,-0.33764648,-0.80548096,0.543396,-10.25,-3.75,-6.03125
64,1696249484167,-0.31298828,-0.7839966,0.51556396,-17.8125,-12.5,-5.734375
65,1696249484207,-0.39916992,-0.7774048,0.56463623,-16.421875,-11.546875,-7.421875
66,1696249484247,-0.41088867,-0.7720337,0.6078491,-3.703125,-1.3125,-7.078125
67,1696249484287,-0.38891602,-0.7576294,0.574646,-8.796875,-5.375,-4.71875
68,1696249484327,-0.41967773,-0.7456665,0.5770874,-6.0,-1.203125,-3.609375
69,1696249484367,-0.44213867,-0.7498169,0.5946655,-4.0,-0.015625,-4.015625
70,1696249484407,-0.42163086,-0.74957275,0.590271,-6.328125,-1.90625,-1.9375
71,1696249484447,-0.40649414,-0.7305298,0.6029663,-3.109375,-0.078125,-1.125
72,1696249484487,-0.43408203,-0.73321533,0.59124756,-5.15625,1.59375,-1.890625
73,1696249484527,-0.44995117,-0.72906494,0.6132202,-8.625,-2.546875,-3.359375
74,1696249484567,-0.4741211,-0.71661377,0.6532593,-5.140625,0.015625,-1.703125
75,1696249484607,-0.4638672,-0.7461548,0.6119995,-7.90625,-3.96875,1.015625
76,1696249484647,-0.4831543,-0.68927,0.6598511,-2.40625,-2.046875,-2.609375
77,1696249484687,-0.32958984,-0.66192627,0.67840576,14.734375,12.796875,1.875
78,1696249484727,-0.36865234,-0.7642212,0.61639404,14.828125,11.859375,9.328125
79,1696249484767,-0.47680664,-0.75445557,0.5314331,8.40625,6.6875,4.796875
80,1696249484807,-0.42163086,-0.73760986,0.6288452,11.421875,1.328125,4.15625
81,1696249484847,-0.3623047,-0.7485962,0.55389404,3.65625,1.515625,5.984375
82,1696249484887,-0.35375977,-0.73883057,0.58343506,4.921875,-2.78125,1.125
83,1696249484927,-0.35424805,-0.7859497,0.61517334,11.03125,5.09375,1.765625
84,1696249484967,-0.3876953,-0.815979,0.57244873,6.3125,5.125,3.875
85,1696249485007,-0.40039062,-0.7703247,0.54437256,4.265625,3.40625,3.9375
86,1696249485047,-0.3552246,-0.7539673,0.5463257,4.3125,-1.203125,3.234375
87,1696249485087,-0.33764648,-0.7930298,0.5494995,2.171875,-0.109375,3.25
88,1696249485127,-0.3557129,-0.8233032,0.54974365,1.234375,0.84375,1.9375
89,1696249485167,-0.35668945,-0.7996216,0.5204468,0.734375,-3.546875,0.609375
90,1696249485207,-0.33007812,-0.75201416,0.5211792,5.0625,-4.1875,0.703125
91,1696249485247,-0.2763672,-0.7732544,0.48358154,9.25,-2.5,-0.140625
92,1696249485287,-0.29638672,-0.7893677,0.4953003,-3.234375,-4.921875,-3.234375
93,1696249485327,-0.43359375,-0.7920532,0.58636475,-10.96875,-6.34375,-2.4375
94,1696249485367,-0.39233398,-0.8394165,0.59832764,-9.625,-6.203125,-2.703125
95,1696249485407,-0.35839844,-0.7959595,0.5253296,-19.625,-12.84375,-7.046875
96,1696249485447,-0.39892578,-0.75201416,0.56073,-15.75,-9.4375,-8.0625
97,1696249485487,-0.4296875,-0.7481079,0.59368896,-9.703125,-5.5,-8.03125
98,1696249485527,-0.42529297,-0.71466064,0.6342163,-5.625,-1.90625,-4.453125
99,1696249485567,-0.40698242,-0.72003174,0.58514404,-3.765625,0.734375,-2.3125
100,1696249485607,-0.4482422,-0.7354126,0.6220093,-5.4375,-0.796875,-3.59375
101,1696249485647,-0.44750977,-0.722229,0.60687256,-3.390625,-0.578125,-2.90625
102,1696249485687,-0.4411621,-0.7197876,0.59954834,-5.5625,-1.40625,-1.03125
103,1696249485727,-0.43237305,-0.70562744,0.6178589,-4.890625,-1.25,-2.015625
104,1696249485767,-0.45385742,-0.71099854,0.6351929,-1.015625,2.5,-2.546875
105,1696249485807,-0.45947266,-0.70269775,0.6203003,-5.15625,-0.015625,-2.203125
106,1696249485847,-0.4621582,-0.6992798,0.6378784,-3.8125,0.515625,-1.1875
107,1696249485887,-0.4404297,-0.6914673,0.6432495,-2.625,1.265625,0.09375
108,1696249485927,-0.4494629,-0.6802368,0.670105,1.5625,3.46875,2.234375
109,1696249485967,-0.46411133,-0.6958618,0.6720581,7.515625,8.6875,4.703125
110,1696249486007,-0.4567871,-0.7268677,0.6400757,7.0,10.15625,5.90625
111,1696249486047,-0.39868164,-0.6987915,0.6264038,9.0625,10.21875,3.3125
112,1696249486087,-0.3779297,-0.73272705,0.6288452,8.6875,4.390625,3.578125
113,1696249486127,-0.38867188,-0.7605591,0.5910034,7.0625,3.71875,4.0
114,1696249486167,-0.39526367,-0.7371216,0.60858154,8.203125,8.046875,3.015625
115,1696249486207,-0.37036133,-0.7258911,0.6046753,4.125,3.953125,3.8125
116,1696249486247,-0.36108398,-0.75665283,0.6022339,3.46875,-2.140625,4.234375
117,1696249486287,-0.34960938,-0.7632446,0.5968628,4.015625,-3.125,3.484375
118,1696249486327,-0.36987305,-0.7515259,0.58343506,3.984375,-1.453125,2.5
119,1696249486367,-0.37231445,-0.78497314,0.58709717,2.8125,-1.34375,2.28125
120,1696249486407,-0.35839844,-0.7720337,0.5800171,3.34375,-2.078125,1.578125
121,1696249486447,-0.34472656,-0.7630005,0.5548706,3.609375,-2.46875,1.859375
122,1696249486487,-0.33422852,-0.7647095,0.55145264,3.90625,-1.875,1.828125
123,1696249486527,-0.32055664,-0.75909424,0.49090576,8.65625,-5.03125,0.140625
124,1696249486567,-0.2998047,-0.7954712,0.49578857,9.375,-10.703125,-1.984375
125,1696249486607,-0.39697266,-0.75787354,0.57147217,-7.25,-4.40625,-1.015625
126,1696249486647,-0.45507812,-0.7949829,0.62957764,-7.515625,-7.265625,0.265625
127,1696249486687,-0.33813477,-0.8057251,0.57733154,-11.625,-4.046875,-7.59375
128,1696249486727,-0.35205078,-0.75738525,0.53582764,-11.03125,-4.578125,-6.5
129,1696249486767,-0.42797852,-0.7300415,0.5751343,-11.953125,-8.15625,-5.96875
130,1696249486807,-0.46655273,-0.73687744,0.6124878,-13.75,-9.6875,-8.234375
131,1696249486847,-0.4477539,-0.7490845,0.6420288,-8.234375,-2.15625,-5.640625
132,1696249486887,-0.4099121,-0.6968384,0.58807373,-5.34375,-0.296875,-2.390625
133,1696249486927,-0.4296875,-0.6975708,0.6144409,-4.890625,-2.84375,-6.53125
134,1696249486967,-0.48876953,-0.7053833,0.63031006,-5.09375,-0.390625,-3.1875
135,1696249487007,-0.47045898,-0.71539307,0.6166382,-3.265625,0.9375,-0.46875
136,1696249487047,-0.4321289,-0.6843872,0.6239624,-3.40625,-1.046875,-0.765625
137,1696249487087,-0.45263672,-0.6963501,0.6286011,-2.453125,0.984375,-1.640625
138,1696249487127,-0.47216797,-0.6929321,0.6312866,-6.671875,-2.21875,-2.65625
139,1696249487167,-0.49023438,-0.6838989,0.6535034,-5.859375,-2.40625,-0.71875
140,1696249487207,-0.48364258,-0.6609497,0.66033936,-2.65625,0.5,3.6875
141,1696249487247,-0.46777344,-0.68634033,0.66400146,-1.734375,-0.25,6.59375
142,1696249487287,-0.44873047,-0.7024536,0.67059326,-2.984375,1.1875,2.921875
143,1696249487327,-0.42626953,-0.68341064,0.67303467,9.71875,11.46875,1.703125
144,1696249487367,-0.41064453,-0.70196533,0.6630249,20.21875,18.484375,5.703125
145,1696249487407,-0.4375,-0.7168579,0.62054443,14.59375,10.578125,6.234375
146,1696249487447,-0.40771484,-0.7161255,0.61151123,9.09375,4.15625,2.703125
147,1696249487487,-0.39038086,-0.7341919,0.621521,9.34375,8.34375,3.703125
148,1696249487527,-0.37036133,-0.755188,0.604187,7.40625,4.640625,5.78125
149,1696249487567,-0.35913086,-0.74224854,0.5934448,3.84375,0.953125,2.671875
150,1696249487607,-0.36791992,-0.7503052,0.5973511,3.796875,-0.984375,2.765625
151,1696249487647,-0.37280273,-0.8052368,0.5775757,3.640625,-1.25,4.46875
152,1696249487687,-0.37451172,-0.7612915,0.58514404,2.109375,-2.421875,1.21875
153,1696249487727,-0.34594727,-0.7263794,0.5932007,4.453125,0.421875,0.828125
154,1696249487767,-0.33691406,-0.7600708,0.53948975,7.953125,-4.34375,2.078125
155,1696249487807,-0.29248047,-0.7737427,0.4459839,12.359375,-12.265625,1.421875
156,1696249487847,-0.30566406,-0.78082275,0.50897217,2.21875,-9.265625,-1.390625
157,1696249487887,-0.45141602,-0.74542236,0.6022339,-1.03125,-0.5625,3.015625
158,1696249487927,-0.41748047,-0.85235596,0.63616943,-5.375,-9.796875,-4.078125
159,1696249487967,-0.37060547,-0.7715454,0.58392334,-12.9375,-1.234375,-8.125
160,1696249488007,-0.3696289,-0.73565674,0.5516968,-8.078125,-4.28125,-2.84375
161,1696249488047,-0.4309082,-0.74224854,0.588562,-8.203125,-4.28125,-4.453125
162,1696249488087,-0.42626953,-0.7871704,0.6000366,-6.90625,-1.984375,-4.984375
163,1696249488127,-0.4104004,-0.74053955,0.586853,-6.703125,0.015625,-2.53125
164,1696249488167,-0.40893555,-0.7178345,0.60028076,-4.78125,-0.109375,-2.953125
165,1696249488207,-0.43554688,-0.7151489,0.5836792,-5.75,-1.59375,-3.8125
166,1696249488247,-0.43676758,-0.73931885,0.61761475,-4.25,-1.0625,-1.4375
167,1696249488287,-0.41723633,-0.7295532,0.6178589,-4.328125,0.578125,-0.0625
168,1696249488327,-0.42700195,-0.7131958,0.62054443,-5.5,-1.125,-2.296875
169,1696249488367,-0.44604492,-0.6904907,0.63446045,-4.546875,-0.875,-1.953125
170,1696249488407,-0.43432617,-0.69903564,0.6425171,0.5625,2.578125,0.0625
171,1696249488447,-0.42895508,-0.72247314,0.6486206,0.828125,2.109375,1.5
172,1696249488487,-0.44995117,-0.70928955,0.65789795,2.859375,4.125,2.21875
173,1696249488527,-0.45043945,-0.71173096,0.6901245,8.859375,11.390625,3.9375
174,1696249488567,-0.43579102,-0.7359009,0.62664795,3.71875,12.15625,5.546875
175,1696249488607,-0.3857422,-0.70196533,0.5795288,0.03125,5.5,3.34375
176,1696249488647,-0.3630371,-0.7485962,0.621521,4.65625,5.78125,1.6875
177,1696249488687,-0.32788086,-0.7678833,0.59417725,4.84375,4.53125,2.328125
178,1696249488727,-0.3955078,-0.7276001,0.59661865,6.28125,2.375,3.96875
179,1696249488767,-0.40551758,-0.73321533,0.61395264,10.1875,0.0625,3.734375
180,1696249488807,-0.36499023,-0.75665283,0.63494873,5.328125,-0.171875,2.875
181,1696249488847,-0.3347168,-0.76275635,0.61053467,1.75,-1.75,3.390625
182,1696249488887,-0.34204102,-0.75494385,0.60565186,4.65625,-1.5625,2.796875
183,1696249488927,-0.34155273,-0.77008057,0.57806396,3.421875,-2.21875,2.71875
184,1696249488967,-0.36279297,-0.77838135,0.5812378,2.84375,-2.71875,1.59375
185,1696249489007,-0.33984375,-0.75909424,0.5685425,2.546875,-1.140625,1.59375
186,1696249489047,-0.33422852,-0.75616455,0.5651245,2.421875,-1.484375,1.96875
187,1696249489087,-0.32543945,-0.76348877,0.52923584,6.65625,-1.421875,2.015625
188,1696249489127,-0.30419922,-0.77178955,0.4689331,10.6875,-5.640625,0.4375
189,1696249489167,-0.32617188,-0.82647705,0.47283936,6.296875,-10.375,1.21875
190,1696249489207,-0.45117188,-0.8093872,0.63983154,-2.84375,-7.453125,1.765625
191,1696249489247,-0.33911133,-0.7991333,0.618103,-2.671875,-4.5625,-3.9375
192,1696249489287,-0.33666992,-0.7932739,0.5307007,-17.171875,-5.5625,-9.546875
193,1696249489327,-0.40673828,-0.7424927,0.55340576,-3.328125,-2.421875,-2.640625
194,1696249489367,-0.41992188,-0.76519775,0.5734253,-1.09375,-2.125,-1.953125
195,1696249489407,-0.3876953,-0.79278564,0.5951538,-9.109375,-6.0625,-2.828125
196,1696249489447,-0.3996582,-0.7527466,0.5751343,-4.109375,0.171875,-3.0
197,1696249489487,-0.4013672,-0.7451782,0.5907593,-0.421875,0.296875,-2.890625
198,1696249489527,-0.42871094,-0.7383423,0.59246826,-6.4375,-3.640625,-3.125
199,1696249489567,-0.43481445,-0.753479,0.56903076,-7.296875,-1.703125,-1.96875
200,1696249489607,-0.41455078,-0.74005127,0.60614014,-5.34375,-0.140625,-2.671875
201,1696249489647,-0.41015625,-0.72125244,0.62176514,-6.671875,1.796875,-2.21875
202,1696249489687,-0.42285156,-0.70977783,0.6276245,-5.0625,2.703125,-1.40625
203,1696249489727,-0.43530273,-0.7161255,0.6539917,-4.0625,4.078125,0.0
204,1696249489767,-0.44702148,-0.69903564,0.69036865,0.5625,8.0625,1.0625
205,1696249489807,-0.44604492,-0.76397705,0.64959717,12.515625,18.75,6.453125
206,1696249489847,-0.39526367,-0.75006104,0.5787964,10.046875,15.265625,6.4375
207,1696249489887,-0.33666992,-0.72662354,0.60321045,7.828125,3.171875,5.234375
208,1696249489927,-0.3244629,-0.76153564,0.5805054,6.203125,-2.953125,3.484375
209,1696249489967,-0.3647461,-0.79278564,0.5758667,3.25,0.96875,1.453125
210,1696249490007,-0.3725586,-0.7505493,0.5853882,8.078125,3.109375,2.015625
211,1696249490047,-0.34887695,-0.7581177,0.59588623,6.046875,-0.15625,2.375
212,1696249490087,-0.34375,-0.7788696,0.61102295,3.359375,-0.9375,1.5625
213,1696249490127,-0.34399414,-0.79351807,0.5939331,4.09375,-2.40625,2.28125
214,1696249490167,-0.32885742,-0.7571411,0.56903076,2.890625,-3.328125,3.546875
215,1696249490207,-0.33984375,-0.7764282,0.54608154,2.40625,-0.421875,2.578125
216,1696249490247,-0.3239746,-0.7959595,0.5565796,1.828125,-2.359375,1.375
217,1696249490287,-0.31323242,-0.7671509,0.4911499,6.046875,-5.8125,1.15625
218,1696249490327,-0.2783203,-0.7913208,0.43841553,10.9375,-13.59375,-0.03125
219,1696249490367,-0.29638672,-0.7913208,0.52874756,-3.78125,-4.5,-3.1875
220,1696249490407,-0.42919922,-0.8208618,0.652771,-3.125,3.96875,1.5
221,1696249490447,-0.38110352,-0.8171997,0.5856323,-5.640625,-5.09375,-7.359375
222,1696249490487,-0.37963867,-0.7449341,0.5421753,-10.140625,-4.203125,-3.546875
223,1696249490527,-0.3515625,-0.7432251,0.53900146,-5.0625,-5.34375,-0.453125
224,1696249490567,-0.3840332,-0.8320923,0.5927124,-6.78125,-2.828125,-2.546875
225,1696249490607,-0.40429688,-0.7901001,0.5883179,-3.78125,-1.671875,-3.46875
226,1696249490647,-0.39208984,-0.73883057,0.5758667,-3.65625,3.125,-1.671875
227,1696249490687,-0.3972168,-0.73101807,0.57440186,-5.40625,0.34375,-2.53125
228,1696249490727,-0.40234375,-0.75372314,0.6066284,-4.15625,-3.671875,-2.703125
229,1696249490767,-0.37280273,-0.75616455,0.58392334,-5.28125,-2.0,-0.21875
230,1696249490807,-0.40161133,-0.75323486,0.59539795,-0.984375,-1.125,0.859375
231,1696249490847,-0.39135742,-0.76397705,0.62542725,-2.296875,-1.984375,-1.59375
232,1696249490887,-0.39990234,-0.7197876,0.60565186,-5.0625,0.359375,-2.203125
233,1696249490927,-0.41845703,-0.7234497,0.5907593,-2.53125,2.25,-1.890625
234,1696249490967,-0.41430664,-0.7463989,0.63690186,-1.546875,3.8125,-0.59375
235,1696249491007,-0.41357422,-0.74346924,0.6593628,-2.171875,4.875,0.796875
236,1696249491047,-0.4326172,-0.7415161,0.666687,-2.4375,10.0,1.515625
237,1696249491087,-0.39746094,-0.7293091,0.63323975,3.390625,13.265625,2.09375
238,1696249491127,-0.35498047,-0.7485962,0.5927124,1.71875,5.75,3.71875
239,1696249491167,-0.32202148,-0.73223877,0.63275146,5.3125,-0.890625,3.296875
240,1696249491207,-0.35302734,-0.75982666,0.6286011,12.421875,1.265625,4.0
241,1696249491247,-0.3671875,-0.770813,0.6017456,8.984375,5.140625,3.0625
242,1696249491287,-0.35595703,-0.7637329,0.59198,4.34375,1.109375,2.71875
243,1696249491327,-0.33129883,-0.75567627,0.588562,4.796875,-1.96875,2.421875
244,1696249491367,-0.33251953,-0.7835083,0.5873413,4.390625,-1.625,2.625
245,1696249491407,-0.33374023,-0.7930298,0.5805054,3.59375,-2.125,2.59375
246,1696249491447,-0.33935547,-0.78302,0.5639038,1.53125,-2.484375,1.875
247,1696249491487,-0.34326172,-0.77471924,0.57196045,2.3125,-1.921875,1.125
248,1696249491527,-0.3330078,-0.7761841,0.57073975,1.015625,-3.78125,1.015625
249,1696249491567,-0.32617188,-0.76104736,0.51727295,9.0625,-3.1875,1.703125
250,1696249491607,-0.28295898,-0.7949829,0.508728,27.953125,0.015625,2.859375
251,1696249491647,-0.23510742,-0.8574829,0.43060303,16.796875,-3.8125,2.4375
252,1696249491687,-0.38476562,-0.77716064,0.5504761,7.0,-0.53125,5.234375
253,1696249491727,-0.40234375,-0.8154907,0.56121826,-6.171875,-11.59375,0.765625
254,1696249491767,-0.38476562,-0.85601807,0.56536865,-14.265625,-10.75,-8.078125
255,1696249491807,-0.30493164,-0.7962036,0.54315186,-13.5625,-4.96875,-4.40625
256,1696249491847,-0.29492188,-0.78863525,0.5075073,-6.296875,-2.890625,-0.03125
257,1696249491887,-0.41552734,-0.8413696,0.5717163,1.265625,-3.21875,-2.359375
258,1696249491927,-0.40429688,-0.81744385,0.55877686,0.453125,1.0,-1.484375
259,1696249491967,-0.37329102,-0.7761841,0.51898193,-1.96875,3.0,0.40625
260,1696249492007,-0.3623047,-0.7698364,0.51678467,-4.265625,-0.578125,-2.046875
261,1696249492047,-0.3696289,-0.80010986,0.55145264,-3.828125,-1.453125,-2.4375
262,1696249492087,-0.3581543,-0.8171997,0.56829834,-5.3125,-1.046875,-1.0
263,1696249492127,-0.3737793,-0.79888916,0.55023193,-6.28125,0.03125,-1.65625
264,1696249492167,-0.39404297,-0.7698364,0.5741577,-6.921875,1.28125,-2.53125
265,1696249492207,-0.38134766,-0.7481079,0.5927124,-7.171875,1.875,-2.796875
266,1696249492247,-0.3798828,-0.7605591,0.6051636,-9.5,2.453125,-2.0
267,1696249492287,-0.39257812,-0.74102783,0.6454468,-6.984375,7.796875,-1.828125
268,1696249492327,-0.4128418,-0.77593994,0.6688843,5.703125,17.390625,0.984375
269,1696249492367,-0.3918457,-0.80352783,0.52923584,5.421875,17.265625,3.671875
270,1696249492407,-0.35009766,-0.7505493,0.5494995,3.375,8.40625,2.640625
271,1696249492447,-0.3190918,-0.72442627,0.6256714,2.765625,-5.078125,2.625
272,1696249492487,-0.2939453,-0.79815674,0.5956421,3.65625,-2.40625,2.140625
273,1696249492527,-0.33251953,-0.78253174,0.59295654,0.875,-2.6875,2.28125
274,1696249492567,-0.36206055,-0.77227783,0.6054077,8.359375,-0.765625,2.234375
275,1696249492607,-0.32714844,-0.7871704,0.61053467,5.40625,-2.15625,2.4375
276,1696249492647,-0.31689453,-0.79571533,0.55462646,2.375,-3.375,2.328125
277,1696249492687,-0.33374023,-0.77301025,0.5504761,2.921875,-3.109375,1.046875
278,1696249492727,-0.34448242,-0.78497314,0.55999756,3.09375,-2.6875,1.296875
279,1696249492767,-0.33618164,-0.80548096,0.5512085,-1.125,-4.09375,2.015625
280,1696249492807,-0.32250977,-0.7954712,0.5685425,-2.015625,-4.484375,0.96875
281,1696249492847,-0.32421875,-0.7739868,0.5541382,1.1875,-3.359375,0.28125
282,1696249492887,-0.29248047,-0.7942505,0.5026245,11.5625,-7.28125,0.609375
283,1696249492927,-0.2680664,-0.80548096,0.4550171,15.140625,-7.875,0.21875
284,1696249492967,-0.29492188,-0.7727661,0.44696045,3.546875,-5.734375,0.734375
285,1696249493007,-0.43554688,-0.81207275,0.58636475,-1.921875,-3.078125,5.421875
286,1696249493047,-0.3720703,-0.90509033,0.57977295,-6.59375,-4.796875,-3.765625
287,1696249493087,-0.34350586,-0.80548096,0.53460693,-12.78125,-2.359375,-7.328125
288,1696249493127,-0.3383789,-0.7522583,0.53045654,-7.875,-3.1875,-2.21875
289,1696249493167,-0.3786621,-0.788147,0.55804443,-2.859375,-2.53125,-1.5
290,1696249493207,-0.37280273,-0.8447876,0.5585327,-4.90625,-3.609375,-1.671875
291,1696249493247,-0.35961914,-0.770813,0.5438843,-1.625,-0.234375,-2.78125
292,1696249493287,-0.38232422,-0.7661743,0.5673218,-0.796875,2.6875,-3.34375
293,1696249493327,-0.42333984,-0.7481079,0.5531616,-5.875,-1.109375,-2.859375
294,1696249493367,-0.39648438,-0.77716064,0.5685425,-5.515625,-2.828125,-0.765625
295,1696249493407,-0.36108398,-0.79278564,0.5848999,-5.140625,-1.109375,-0.5625
296,1696249493447,-0.38061523,-0.7703247,0.58148193,-4.796875,0.53125,-1.78125
297,1696249493487,-0.41088867,-0.75982666,0.5980835,-7.59375,1.34375,-2.984375
298,1696249493527,-0.41088867,-0.74786377,0.62005615,-8.921875,4.59375,-1.890625
299,1696249493567,-0.4020996,-0.7288208,0.6312866,-17.765625,2.140625,-3.28125
300,1696249493607,-0.4645996,-0.72052,0.6364136,-12.6875,5.9375,-3.15625
301,1696249493647,-0.34814453,-0.73931885,0.68426514,2.78125,10.5,-0.1875
302,1696249493687,-0.34448242,-0.7595825,0.6112671,11.578125,9.953125,4.046875
303,1696249493727,-0.39282227,-0.7432251,0.5765991,13.34375,3.03125,5.46875
304,1696249493767,-0.40283203,-0.7346802,0.6141968,7.203125,-2.71875,3.890625
305,1696249493807,-0.32983398,-0.7354126,0.62176514,4.84375,1.515625,3.203125
306,1696249493847,-0.30297852,-0.7732544,0.602478,4.078125,0.265625,3.234375
307,1696249493887,-0.34985352,-0.7786255,0.6124878,5.0,-0.734375,1.578125
308,1696249493927,-0.37353516,-0.78790283,0.60321045,6.375,-0.4375,2.265625
309,1696249493967,-0.35058594,-0.7774048,0.5668335,3.390625,-2.171875,2.703125
310,1696249494007,-0.33935547,-0.7600708,0.5668335,3.59375,-2.09375,2.4375
311,1696249494047,-0.3359375,-0.77960205,0.57733154,3.4375,-1.34375,1.8125
312,1696249494087,-0.32885742,-0.8052368,0.5866089,3.609375,-1.015625,1.34375
313,1696249494127,-0.3371582,-0.7888794,0.5553589,3.03125,-2.125,1.296875
314,1696249494167,-0.3125,-0.7595825,0.494812,10.9375,-5.46875,0.8125
315,1696249494207,-0.26489258,-0.8064575,0.43988037,19.15625,-11.390625,2.078125
316,1696249494247,-0.29858398,-0.8267212,0.53826904,4.265625,-0.421875,1.296875
317,1696249494287,-0.4489746,-0.7920532,0.5499878,-5.4375,-5.921875,4.625
318,1696249494327,-0.38061523,-0.8579712,0.5997925,-9.015625,-4.703125,-7.78125
319,1696249494367,-0.30737305,-0.7893677,0.5307007,-11.046875,0.25,-3.703125
320,1696249494407,-0.33789062,-0.76641846,0.5180054,-4.984375,-3.4375,-1.546875
321,1696249494447,-0.39746094,-0.81817627,0.59124756,-4.5625,-2.984375,-3.34375
322,1696249494487,-0.3828125,-0.80181885,0.5700073,-2.6875,-1.28125,-3.125
323,1696249494527,-0.36157227,-0.7564087,0.5548706,-2.890625,0.453125,-0.328125
324,1696249494567,-0.38085938,-0.7612915,0.56463623,-2.625,-1.25,-2.546875
325,1696249494607,-0.38671875,-0.78302,0.55267334,-2.421875,-0.671875,-2.734375
326,1696249494647,-0.39453125,-0.7852173,0.5807495,-3.0,0.453125,-0.1875
327,1696249494687,-0.37670898,-0.78741455,0.57733154,-4.640625,1.71875,-0.859375
328,1696249494727,-0.39453125,-0.75567627,0.5856323,-7.984375,0.8125,-2.734375
329,1696249494767,-0.39135742,-0.74298096,0.5939331,-9.578125,-0.125,-2.625
330,1696249494807,-0.38476562,-0.74664307,0.6132202,-10.25,-3.421875,-2.6875
331,1696249494847,-0.39794922,-0.75323486,0.6539917,-9.3125,-3.109375,-3.078125
332,1696249494887,-0.41357422,-0.7485962,0.64837646,-6.328125,0.328125,-3.453125
333,1696249494927,-0.40527344,-0.7217407,0.6889038,6.375,8.109375,-3.734375
334,1696249494967,-0.40063477,-0.7463989,0.55755615,5.46875,11.4375,1.4375
335,1696249495007,-0.4321289,-0.7185669,0.5739136,8.921875,4.15625,4.578125
336,1696249495047,-0.38842773,-0.72198486,0.635437,10.109375,5.09375,7.90625
337,1696249495087,-0.33911133,-0.7739868,0.6005249,5.6875,2.703125,6.5625
338,1696249495127,-0.33154297,-0.7793579,0.58807373,0.34375,-2.78125,2.5
339,1696249495167,-0.34399414,-0.77178955,0.60491943,7.671875,-0.703125,2.5625
340,1696249495207,-0.3623047,-0.7612915,0.59417725,8.4375,2.828125,2.890625
341,1696249495247,-0.35791016,-0.78863525,0.57562256,8.453125,2.8125,4.75
342,1696249495287,-0.33374023,-0.80352783,0.5421753,4.484375,-2.375,4.15625
343,1696249495327,-0.34545898,-0.78497314,0.5543823,1.765625,-2.984375,2.84375
344,1696249495367,-0.33325195,-0.7925415,0.5475464,0.734375,-2.796875,1.421875
345,1696249495407,-0.3190918,-0.77593994,0.5231323,1.234375,-3.21875,0.703125
346,1696249495447,-0.32177734,-0.78863525,0.510437,10.125,-3.421875,1.4375
347,1696249495487,-0.27905273,-0.800354,0.4393921,13.421875,-9.484375,1.46875
348,1696249495527,-0.28881836,-0.79278564,0.5204468,0.484375,-5.53125,-0.75
349,1696249495567,-0.42285156,-0.7786255,0.5663452,-6.359375,-6.09375,1.609375
350,1696249495607,-0.3876953,-0.86846924,0.5848999,-7.875,-6.546875,-6.375
351,1696249495647,-0.3305664,-0.81573486,0.5409546,-11.8125,-1.234375,-5.359375
352,1696249495687,-0.3557129,-0.7666626,0.5285034,-8.421875,-4.59375,-3.09375
353,1696249495727,-0.40478516,-0.7744751,0.5800171,-6.21875,-2.6875,-3.75
354,1696249495767,-0.39770508,-0.7835083,0.57977295,-3.546875,-1.96875,-2.78125
355,1696249495807,-0.38745117,-0.7576294,0.5790405,-1.8125,0.140625,0.40625
356,1696249495847,-0.37329102,-0.75445557,0.5946655,-0.203125,0.109375,-0.09375
357,1696249495887,-0.3869629,-0.7695923,0.56292725,-2.453125,-0.78125,-1.4375
358,1696249495927,-0.40039062,-0.7810669,0.56414795,-1.296875,0.84375,-0.015625
359,1696249495967,-0.3725586,-0.7893677,0.5626831,-5.25,-1.234375,-0.328125
360,1696249496007,-0.39160156,-0.75372314,0.5873413,-5.890625,0.765625,-2.9375
361,1696249496047,-0.4111328,-0.75665283,0.59295654,-7.421875,0.984375,-3.015625
362,1696249496087,-0.40039062,-0.75201416,0.63201904,-5.796875,1.25,-1.390625
363,1696249496127,-0.40307617,-0.7659302,0.6190796,-4.609375,4.25,0.703125
364,1696249496167,-0.42895508,-0.7407837,0.6383667,-6.59375,3.265625,0.578125
365,1696249496207,-0.42358398,-0.7119751,0.668396,-1.234375,7.0625,1.3125
366,1696249496247,-0.34399414,-0.7432251,0.63568115,8.515625,15.15625,1.9375
367,1696249496287,-0.29858398,-0.7593384,0.5997925,5.0625,7.75,2.71875
368,1696249496327,-0.35131836,-0.74664307,0.59490967,4.53125,0.25,3.390625
369,1696249496367,-0.3942871,-0.77008057,0.59295654,12.296875,1.21875,2.4375
370,1696249496407,-0.3786621,-0.78326416,0.6012573,9.9375,-0.75,2.71875
371,1696249496447,-0.34155273,-0.7756958,0.58270264,7.609375,-0.171875,5.15625
372,1696249496487,-0.31835938,-0.7798462,0.5680542,3.078125,-1.8125,4.25
373,1696249496527,-0.32714844,-0.77545166,0.5668335,1.703125,-1.59375,1.671875
374,1696249496567,-0.33081055,-0.78863525,0.574646,3.953125,-3.546875,1.578125
375,1696249496607,-0.32885742,-0.7998657,0.5692749,2.15625,-3.78125,2.328125
376,1696249496647,-0.33691406,-0.76641846,0.5543823,0.5,-2.546875,1.40625
377,1696249496687,-0.32250977,-0.7776489,0.55633545,2.265625,-1.9375,1.015625
378,1696249496727,-0.30615234,-0.7827759,0.47113037,8.15625,-3.875,1.078125
379,1696249496767,-0.2607422,-0.8357544,0.4381714,16.140625,-16.328125,-0.046875
380,1696249496807,-0.30493164,-0.7788696,0.5360718,-2.359375,0.71875,-0.84375
381,1696249496847,-0.43554688,-0.7905884,0.6010132,-0.5625,-3.6875,5.375
382,1696249496887,-0.38427734,-0.88604736,0.58099365,-7.96875,-6.609375,-8.09375
383,1696249496927,-0.32958984,-0.8110962,0.53900146,-8.453125,-0.9375,-3.578125
384,1696249496967,-0.35595703,-0.7439575,0.56048584,-4.46875,-0.984375,0.265625
385,1696249497007,-0.3918457,-0.7727661,0.5717163,-7.703125,-9.1875,-4.375
386,1696249497047,-0.37060547,-0.8196411,0.56365967,-5.25,-3.984375,-5.21875
387,1696249497087,-0.3540039,-0.7686157,0.5421753,-3.03125,1.421875,-0.359375
388,1696249497127,-0.41259766,-0.7632446,0.5597534,-3.21875,-2.75,-2.171875
389,1696249497167,-0.4321289,-0.77960205,0.5609741,-1.46875,0.375,-3.65625
390,1696249497207,-0.39086914,-0.78448486,0.5783081,-6.625,-0.96875,-1.328125
391,1696249497247,-0.3930664,-0.7576294,0.5934448,-8.609375,0.03125,-1.59375
392,1696249497287,-0.39672852,-0.74542236,0.59417725,-8.5625,1.609375,-4.046875
393,1696249497327,-0.3984375,-0.7515259,0.6288452,-7.96875,2.265625,-2.265625
394,1696249497367,-0.39672852,-0.74298096,0.638855,-6.703125,2.46875,-0.890625
395,1696249497407,-0.42822266,-0.72003174,0.6635132,-3.734375,3.234375,-1.109375
396,1696249497447,-0.4243164,-0.7437134,0.62908936,7.1875,11.03125,2.65625
397,1696249497487,-0.39624023,-0.7559204,0.58148193,7.265625,15.21875,4.921875
398,1696249497527,-0.3642578,-0.76153564,0.6017456,5.859375,9.234375,4.296875
399,1696249497567,-0.33203125,-0.7554321,0.61102295,6.125,2.4375,3.578125
400,1696249497607,-0.34423828,-0.76031494,0.6029663,8.671875,0.71875,3.921875
401,1696249497647,-0.3388672,-0.76446533,0.5878296,7.515625,0.65625,3.71875
402,1696249497687,-0.3400879,-0.78253174,0.5895386,6.40625,0.609375,3.0625
403,1696249497727,-0.3232422,-0.79107666,0.5783081,3.84375,-1.484375,2.796875
404,1696249497767,-0.3215332,-0.78790283,0.5758667,2.578125,-1.640625,2.5
405,1696249497807,-0.33691406,-0.79229736,0.5890503,4.40625,-0.453125,1.296875
406,1696249497847,-0.34277344,-0.8062134,0.55999756,2.125,-2.6875,1.03125
407,1696249497887,-0.32958984,-0.7756958,0.55145264,0.953125,-3.875,1.21875
408,1696249497927,-0.3293457,-0.78131104,0.5380249,1.265625,-2.84375,1.515625
409,1696249497967,-0.31030273,-0.78497314,0.46600342,7.9375,-7.390625,1.65625
410,1696249498007,-0.2602539,-0.8123169,0.44329834,22.65625,-13.09375,2.828125
411,1696249498047,-0.24853516,-0.8130493,0.5529175,7.203125,3.25,1.6875
412,1696249498087,-0.3955078,-0.79400635,0.5314331,-1.859375,-7.0,4.046875
413,1696249498127,-0.4423828,-0.8843384,0.58343506,-8.046875,-4.921875,-7.453125
414,1696249498167,-0.32470703,-0.8118286,0.5348511,-6.625,-1.21875,-3.890625
415,1696249498207,-0.30322266,-0.7559204,0.5014038,-8.171875,-2.5625,-0.71875
416,1696249498247,-0.36889648,-0.82647705,0.56414795,-5.0,-3.5,-4.0
417,1696249498287,-0.4074707,-0.8428345,0.5541382,-1.890625,-0.78125,-3.9375
418,1696249498327,-0.36279297,-0.76690674,0.54437256,-4.109375,-0.015625,-1.234375
419,1696249498367,-0.37548828,-0.75128174,0.53948975,-4.765625,-0.671875,-1.65625
420,1696249498407,-0.40283203,-0.79693604,0.5541382,-2.5,-0.8125,-2.78125
421,1696249498447,-0.3684082,-0.8110962,0.5922241,-7.0,-1.390625,-1.71875
422,1696249498487,-0.36499023,-0.7769165,0.58514404,-9.65625,1.296875,-3.0625
423,1696249498527,-0.3984375,-0.7510376,0.59002686,-8.671875,3.09375,-3.34375
424,1696249498567,-0.40307617,-0.7439575,0.6005249,-11.75,1.0,-3.375
425,1696249498607,-0.40283203,-0.74420166,0.6129761,-11.625,-0.34375,-3.265625
426,1696249498647,-0.38793945,-0.755188,0.6481323,-2.71875,3.734375,-0.75
427,1696249498687,-0.38500977,-0.75006104,0.61932373,4.453125,9.484375,1.1875
428,1696249498727,-0.42382812,-0.74420166,0.59173584,10.265625,14.640625,2.4375
429,1696249498767,-0.38623047,-0.7463989,0.6088257,7.484375,8.96875,4.671875
430,1696249498807,-0.3227539,-0.76519775,0.61151123,2.421875,-0.9375,4.828125
431,1696249498847,-0.3076172,-0.75982666,0.60369873,3.0625,-0.578125,2.546875
432,1696249498887,-0.34375,-0.77471924,0.60198975,5.140625,-0.609375,2.328125
433,1696249498927,-0.3618164,-0.7817993,0.59661865,5.40625,-0.859375,2.390625
434,1696249498967,-0.3474121,-0.78619385,0.57440186,3.015625,-3.1875,2.90625
435,1696249499007,-0.33520508,-0.77008057,0.5800171,2.75,-2.4375,1.609375
436,1696249499047,-0.33764648,-0.77838135,0.57928467,2.390625,-1.046875,1.84375
437,1696249499087,-0.32910156,-0.788147,0.5685425,-0.25,-3.875,1.21875
438,1696249499127,-0.33789062,-0.77716064,0.56707764,1.1875,-2.890625,0.4375
439,1696249499167,-0.32592773,-0.77178955,0.5458374,2.4375,-2.171875,1.078125
440,1696249499207,-0.30664062,-0.77911377,0.46331787,9.140625,-8.046875,1.671875
441,1696249499247,-0.24804688,-0.81085205,0.4689331,4.890625,-14.09375,0.25
442,1696249499287,-0.34326172,-0.75787354,0.59954834,-6.0,6.046875,-3.859375
443,1696249499327,-0.4404297,-0.8272095,0.6222534,-2.53125,-6.28125,-0.9375
444,1696249499367,-0.39208984,-0.76275635,0.58221436,-13.28125,-7.65625,-8.078125
445,1696249499407,-0.32617188,-0.75982666,0.5543823,-2.609375,-2.15625,0.265625
446,1696249499447,-0.35791016,-0.798645,0.58758545,-4.25,-3.546875,-0.765625
447,1696249499487,-0.39794922,-0.80010986,0.6088257,-0.578125,-2.703125,-3.78125
448,1696249499527,-0.40161133,-0.7493286,0.5524292,-0.84375,1.171875,-1.921875
449,1696249499567,-0.40600586,-0.7202759,0.57073975,-4.1875,-0.609375,-2.265625
450,1696249499607,-0.39160156,-0.77716064,0.59954834,-3.828125,-1.25,-3.1875
451,1696249499647,-0.38549805,-0.7822876,0.5934448,-6.09375,-1.53125,-3.484375
452,1696249499687,-0.39648438,-0.74664307,0.5910034,-4.65625,-1.046875,-1.671875
453,1696249499727,-0.3972168,-0.7498169,0.59417725,-4.3125,1.140625,-2.328125
454,1696249499767,-0.41625977,-0.73638916,0.60980225,-5.140625,0.78125,-1.609375
455,1696249499807,-0.43164062,-0.7324829,0.637146,-1.703125,2.53125,-0.46875
456,1696249499847,-0.41137695,-0.7461548,0.6351929,-4.828125,2.59375,0.25
457,1696249499887,-0.43579102,-0.737854,0.64105225,-2.046875,10.171875,1.40625
458,1696249499927,-0.40283203,-0.7415161,0.6276245,4.0,15.21875,3.140625
459,1696249499967,-0.3334961,-0.77008057,0.5800171,0.65625,8.59375,2.734375
460,1696249500007,-0.33935547,-0.7354126,0.6185913,3.296875,-0.203125,1.640625
461,1696249500047,-0.3671875,-0.7329712,0.6244507,7.671875,-0.640625,2.0
462,1696249500087,-0.37036133,-0.76275635,0.6190796,6.453125,-0.34375,3.265625
463,1696249500127,-0.35327148,-0.7510376,0.60980225,4.4375,-0.359375,2.234375
464,1696249500167,-0.35009766,-0.7630005,0.59661865,4.921875,-0.859375,2.234375
465,1696249500207,-0.34423828,-0.76641846,0.6010132,4.3125,-2.140625,3.0625
466,1696249500247,-0.35839844,-0.77593994,0.5775757,4.4375,-1.46875,2.640625
467,1696249500287,-0.35595703,-0.7805786,0.5787964,3.75,-0.625,1.75
468,1696249500327,-0.3466797,-0.77349854,0.5680542,0.15625,-3.34375,1.5
469,1696249500367,-0.3256836,-0.7485962,0.5675659,1.5,-3.046875,1.296875
470,1696249500407,-0.32788086,-0.77716064,0.5524292,5.265625,-2.3125,1.671875
471,1696249500447,-0.29638672,-0.770813,0.4701538,10.921875,-6.84375,1.734375
472,1696249500487,-0.28222656,-0.80963135,0.5194702,15.53125,-9.59375,-0.109375
473,1696249500527,-0.3552246,-0.8074341,0.54559326,-4.203125,0.8125,2.46875
474,1696249500567,-0.4501953,-0.8015747,0.61102295,-4.796875,-11.234375,0.703125
475,1696249500607,-0.33862305,-0.8081665,0.5824585,-11.609375,-2.953125,-11.203125
476,1696249500647,-0.33544922,-0.7805786,0.52215576,-9.375,-2.296875,-2.78125
477,1696249500687,-0.40576172,-0.76690674,0.5609741,-3.96875,-3.625,-0.859375
478,1696249500727,-0.40942383,-0.81451416,0.59906006,-2.109375,-2.171875,-4.453125
479,1696249500767,-0.39038086,-0.76519775,0.56829834,-5.390625,-0.734375,-2.890625
480,1696249500807,-0.3815918,-0.73028564,0.5717163,-3.4375,0.046875,-0.921875
481,1696249500847,-0.4099121,-0.7542114,0.59588623,-3.671875,-1.59375,-3.6875
482,1696249500887,-0.41308594,-0.75860596,0.5993042,-6.28125,-1.21875,-2.828125
483,1696249500927,-0.3942871,-0.75445557,0.5956421,-7.296875,-0.515625,-1.828125
484,1696249500967,-0.41015625,-0.7346802,0.6029663,-4.390625,-0.03125,-1.875
485,1696249501007,-0.41748047,-0.736145,0.62298584,-4.0625,1.609375,-1.546875
486,1696249501047,-0.42871094,-0.72125244,0.63494873,-2.921875,4.109375,0.078125
487,1696249501087,-0.44433594,-0.74224854,0.67352295,-0.9375,4.203125,1.53125
488,1696249501127,-0.44213867,-0.7612915,0.64276123,1.046875,7.0,3.875
489,1696249501167,-0.37280273,-0.72369385,0.6071167,3.46875,10.25,4.078125
490,1696249501207,-0.31958008,-0.737854,0.56048584,4.171875,7.25,3.796875
491,1696249501247,-0.35131836,-0.7527466,0.5824585,3.59375,2.34375,1.15625
492,1696249501287,-0.39379883,-0.75567627,0.6234741,7.21875,2.59375,0.875
493,1696249501327,-0.37548828,-0.7737427,0.6112671,8.90625,1.5625,3.90625
494,1696249501367,-0.3503418,-0.7542114,0.590271,2.8125,-1.828125,3.1875
495,1696249501407,-0.34692383,-0.7671509,0.5997925,1.671875,-0.046875,1.6875
496,1696249501447,-0.33764648,-0.7632446,0.5993042,3.65625,-0.828125,2.125
497,1696249501487,-0.34204102,-0.7727661,0.57855225,2.984375,-2.09375,2.09375
498,1696249501527,-0.35546875,-0.772522,0.58099365,4.140625,-1.171875,1.625
499,1696249501567,-0.3540039,-0.77349854,0.5795288,1.859375,-2.265625,1.984375
500,1696249501607,-0.33081055,-0.7698364,0.56463623,-0.21875,-3.21875,1.3125
501,1696249501647,-0.33032227,-0.76031494,0.55584717,2.078125,-2.265625,0.9375
502,1696249501687,-0.31030273,-0.7539673,0.45770264,7.203125,-4.984375,0.921875
503,1696249501727,-0.27197266,-0.77593994,0.4640503,18.265625,-14.75,1.1875
504,1696249501767,-0.33276367,-0.8286743,0.5824585,7.171875,0.078125,4.484375
505,1696249501807,-0.41064453,-0.8098755,0.5817261,-5.515625,-6.203125,3.75
506,1696249501847,-0.4008789,-0.8147583,0.5651245,-10.390625,-2.1875,-11.765625
507,1696249501887,-0.35717773,-0.7776489,0.541687,-9.921875,-2.25,-3.3125
508,1696249501927,-0.3388672,-0.7666626,0.53460693,-12.21875,-5.4375,-2.46875
509,1696249501967,-0.39208984,-0.81378174,0.61053467,-6.6875,-1.890625,-5.671875
510,1696249502007,-0.42016602,-0.7901001,0.5704956,-2.875,-0.484375,-4.359375
511,1696249502047,-0.41479492,-0.739563,0.5775757,-3.296875,-1.265625,0.03125
512,1696249502087,-0.3798828,-0.73809814,0.58636475,-3.046875,-1.015625,-1.734375
513,1696249502127,-0.39624023,-0.74786377,0.59490967,-2.984375,-0.890625,-3.234375
514,1696249502167,-0.39257812,-0.7732544,0.5873413,-3.515625,-1.71875,-0.453125
515,1696249502207,-0.3955078,-0.7437134,0.60076904,-4.90625,-0.84375,-1.6875
516,1696249502247,-0.43798828,-0.7234497,0.6264038,-2.796875,1.984375,-1.984375
517,1696249502287,-0.42407227,-0.7432251,0.63812256,-3.6875,5.265625,-0.796875
518,1696249502327,-0.42626953,-0.74346924,0.6378784,-7.234375,4.640625,0.46875
519,1696249502367,-0.4248047,-0.7359009,0.63079834,-1.5625,9.953125,1.109375
520,1696249502407,-0.33398438,-0.74468994,0.6088257,4.46875,14.765625,1.734375
521,1696249502447,-0.36035156,-0.76641846,0.60614014,1.875,7.640625,2.546875
522,1696249502487,-0.38867188,-0.75006104,0.57733154,2.53125,0.75,2.140625
523,1696249502527,-0.36791992,-0.7131958,0.6210327,4.953125,-2.96875,2.65625
524,1696249502567,-0.35180664,-0.73272705,0.65179443,7.078125,-0.703125,3.59375
525,1696249502607,-0.33691406,-0.7769165,0.6090698,6.28125,-0.78125,2.515625
526,1696249502647,-0.35058594,-0.7805786,0.6054077,2.796875,-1.953125,1.171875
527,1696249502687,-0.3564453,-0.7642212,0.59368896,3.421875,-2.015625,2.578125
528,1696249502727,-0.3449707,-0.7605591,0.576355,4.921875,-1.234375,2.9375
529,1696249502767,-0.3486328,-0.78131104,0.56292725,1.796875,-3.921875,2.40625
530,1696249502807,-0.34399414,-0.7761841,0.56463623,1.09375,-2.390625,1.25
531,1696249502847,-0.34228516,-0.7564087,0.55462646,5.171875,-1.90625,0.625
532,1696249502887,-0.30249023,-0.7632446,0.47528076,15.484375,-5.234375,1.390625
533,1696249502927,-0.27026367,-0.82037354,0.48065186,18.734375,-8.546875,1.984375
534,1696249502967,-0.33911133,-0.78009033,0.5753784,3.671875,2.859375,6.703125
535,1696249503007,-0.4272461,-0.8225708,0.5907593,-4.125,-9.5,1.375
536,1696249503047,-0.3708496,-0.8467407,0.5675659,-10.015625,-2.859375,-9.921875
537,1696249503087,-0.33276367,-0.7937622,0.52996826,-9.84375,-2.515625,-2.703125
538,1696249503127,-0.35375977,-0.74957275,0.5360718,-7.515625,-3.34375,-1.390625
539,1696249503167,-0.40234375,-0.8152466,0.5856323,-5.671875,-2.28125,-5.484375
540,1696249503207,-0.39794922,-0.8023071,0.57611084,-4.734375,-0.84375,-2.546875
541,1696249503247,-0.38549805,-0.739563,0.55999756,-4.59375,-0.609375,-0.125
542,1696249503287,-0.38061523,-0.7476196,0.5946655,-3.640625,-0.546875,-3.53125
543,1696249503327,-0.38598633,-0.7630005,0.5968628,-7.015625,-0.109375,-3.28125
544,1696249503367,-0.39819336,-0.7595825,0.57928467,-9.078125,-1.125,-1.6875
545,1696249503407,-0.41381836,-0.7476196,0.62054443,-5.34375,2.890625,-1.859375
546,1696249503447,-0.40283203,-0.72662354,0.62005615,-4.234375,2.6875,-1.21875
547,1696249503487,-0.41845703,-0.7546997,0.63690186,-5.140625,3.0,0.203125
548,1696249503527,-0.41601562,-0.7564087,0.6557007,-1.140625,5.84375,-0.28125
549,1696249503567,-0.3876953,-0.7476196,0.6137085,5.03125,13.15625,0.15625
550,1696249503607,-0.3708496,-0.73883057,0.574646,-0.640625,8.53125,1.875
551,1696249503647,-0.3894043,-0.7329712,0.62957764,1.53125,0.609375,1.9375
552,1696249503687,-0.36206055,-0.7468872,0.6244507,3.6875,-0.859375,3.359375
553,1696249503727,-0.33764648,-0.739563,0.6112671,2.5,-2.828125,3.703125
554,1696249503767,-0.3479004,-0.7493286,0.6137085,3.15625,-1.015625,1.546875
555,1696249503807,-0.3605957,-0.75787354,0.61053467,3.5625,0.40625,0.6875
556,1696249503847,-0.36132812,-0.7510376,0.6144409,2.921875,-1.625,1.578125
557,1696249503887,-0.35620117,-0.7605591,0.5944214,4.15625,-2.703125,2.5
558,1696249503927,-0.35595703,-0.7647095,0.58636475,2.4375,-3.546875,2.75
559,1696249503967,-0.3605957,-0.7752075,0.5856323,0.390625,-2.65625,2.03125
560,1696249504007,-0.36010742,-0.76641846,0.58880615,2.6875,-1.453125,0.859375
561,1696249504047,-0.36010742,-0.75909424,0.5458374,1.546875,-6.515625,0.546875
562,1696249504087,-0.30639648,-0.7420044,0.4689331,13.984375,-9.609375,2.265625
563,1696249504127,-0.25219727,-0.7991333,0.5055542,16.09375,-5.671875,2.5625
564,1696249504167,-0.34936523,-0.78082275,0.5787964,1.671875,4.015625,4.40625
565,1696249504207,-0.42236328,-0.83966064,0.5687866,-3.140625,-8.671875,-0.203125
566,1696249504247,-0.39794922,-0.7998657,0.59124756,-7.953125,-0.046875,-7.390625
567,1696249504287,-0.36157227,-0.7576294,0.52679443,-7.75,-3.125,-2.703125
568,1696249504327,-0.35595703,-0.7683716,0.53167725,-9.421875,-8.171875,-3.40625
569,1696249504367,-0.39672852,-0.83135986,0.59710693,-7.25,-4.609375,-5.75
570,1696249504407,-0.4399414,-0.7595825,0.5819702,-1.5,-3.375,-2.84375
571,1696249504447,-0.39233398,-0.7192993,0.5975952,-3.25,-0.046875,-1.46875
572,1696249504487,-0.39746094,-0.72857666,0.57562256,-6.625,-0.78125,-3.203125
573,1696249504527,-0.42333984,-0.75201416,0.5963745,-7.96875,-1.890625,-3.953125
574,1696249504567,-0.4020996,-0.73223877,0.62054443,-7.984375,-0.28125,-2.21875
575,1696249504607,-0.41308594,-0.73638916,0.63690186,-7.328125,3.03125,-1.953125
576,1696249504647,-0.45043945,-0.7493286,0.62664795,-7.765625,3.703125,-1.796875
577,1696249504687,-0.45336914,-0.7127075,0.63983154,-5.140625,3.5,-1.15625
578,1696249504727,-0.4152832,-0.69903564,0.6473999,-1.21875,7.8125,0.84375
579,1696249504767,-0.40014648,-0.722229,0.6412964,8.875,13.609375,2.734375
580,1696249504807,-0.41088867,-0.7559204,0.58758545,11.265625,16.40625,3.25
581,1696249504847,-0.37060547,-0.74957275,0.62323,6.9375,5.421875,3.4375
582,1696249504887,-0.3461914,-0.73516846,0.62176514,6.78125,-2.984375,4.6875
583,1696249504927,-0.35913086,-0.75738525,0.61224365,8.875,0.0,3.84375
584,1696249504967,-0.36035156,-0.7715454,0.58221436,3.953125,2.65625,2.1875
585,1696249505007,-0.3527832,-0.75787354,0.6244507,5.3125,-0.546875,2.640625
586,1696249505047,-0.3461914,-0.7671509,0.58514404,3.96875,-1.84375,2.0625
587,1696249505087,-0.3491211,-0.7805786,0.57855225,1.75,-2.484375,2.25
588,1696249505127,-0.3479004,-0.78009033,0.5817261,2.5625,-2.421875,2.859375
589,1696249505167,-0.34692383,-0.77716064,0.5685425,3.03125,-1.65625,2.109375
590,1696249505207,-0.3408203,-0.7793579,0.56951904,1.71875,-1.453125,1.046875
591,1696249505247,-0.33544922,-0.7781372,0.54974365,1.03125,-3.78125,1.1875
592,1696249505287,-0.3154297,-0.74176025,0.50408936,2.921875,-9.25,-0.375
593,1696249505327,-0.2861328,-0.7515259,0.4689331,15.21875,-11.921875,-0.34375
594,1696249505367,-0.27319336,-0.8406372,0.5524292,8.65625,-2.4375,1.171875
595,1696249505407,-0.4765625,-0.7962036,0.5619507,-6.921875,-5.453125,6.640625
596,1696249505447,-0.4189453,-0.8154907,0.6149292,-4.359375,-7.046875,-7.28125
597,1696249505487,-0.33813477,-0.7930298,0.53656006,-11.28125,0.21875,-6.46875
598,1696249505527,-0.34594727,-0.7346802,0.53460693,-12.140625,-9.46875,-3.125
599,1696249505567,-0.421875,-0.7715454,0.61053467,-7.328125,-3.765625,-4.71875
600,1696249505607,-0.4086914,-0.8064575,0.59198,-3.4375,-1.71875,-5.515625
601,1696249505647,-0.4152832,-0.75323486,0.56951904,-5.5,-0.109375,-1.0
602,1696249505687,-0.41918945,-0.73150635,0.5819702,-2.796875,1.265625,-2.28125
603,1696249505727,-0.4194336,-0.7341919,0.60736084,-5.828125,-1.109375,-3.96875
604,1696249505767,-0.3972168,-0.7461548,0.58636475,-8.09375,-0.375,-0.953125
605,1696249505807,-0.41601562,-0.74713135,0.62371826,-5.625,0.125,-1.28125
606,1696249505847,-0.42358398,-0.7427368,0.635437,-0.984375,3.546875,-1.40625
607,1696249505887,-0.43652344,-0.7202759,0.6351929,-2.1875,3.53125,0.109375
608,1696249505927,-0.4260254,-0.7180786,0.6312866,-6.703125,1.140625,-0.203125
609,1696249505967,-0.44604492,-0.7190552,0.6547241,-1.109375,6.671875,0.0
610,1696249506007,-0.39697266,-0.7319946,0.64642334,9.25,16.734375,2.671875
611,1696249506047,-0.37280273,-0.7559204,0.59661865,4.703125,11.15625,4.46875
612,1696249506087,-0.37939453,-0.73394775,0.6256714,7.625,5.921875,4.625
613,1696249506127,-0.36621094,-0.7595825,0.6039429,9.609375,1.359375,4.765625
614,1696249506167,-0.35327148,-0.7695923,0.61224365,4.640625,-1.984375,3.25
615,1696249506207,-0.35742188,-0.739563,0.6022339,6.34375,0.359375,2.25
616,1696249506247,-0.34033203,-0.77178955,0.59490967,5.265625,0.203125,2.28125
617,1696249506287,-0.33544922,-0.7703247,0.5890503,3.296875,-1.078125,2.734375
618,1696249506327,-0.34326172,-0.7703247,0.5866089,4.859375,-1.734375,2.15625
619,1696249506367,-0.34716797,-0.78497314,0.59051514,4.0625,-1.15625,1.953125
620,1696249506407,-0.34228516,-0.7888794,0.5709839,0.0625,-2.53125,1.390625
621,1696249506447,-0.33666992,-0.74957275,0.56585693,-0.40625,-3.640625,-0.25
622,1696249506487,-0.33496094,-0.7600708,0.5036011,8.46875,-3.40625,0.8125
623,1696249506527,-0.28271484,-0.79400635,0.41741943,20.375,-12.0,3.59375
624,1696249506567,-0.27319336,-0.8311157,0.5753784,14.46875,-1.96875,4.53125
625,1696249506607,-0.39208984,-0.7564087,0.55096436,-3.515625,-1.3125,5.109375
626,1696249506647,-0.4621582,-0.85601807,0.5883179,-9.34375,-11.875,-6.9375
627,1696249506687,-0.35302734,-0.8064575,0.5475464,-13.078125,-2.34375,-8.515625
628,1696249506727,-0.2932129,-0.74957275,0.53533936,-10.65625,-2.734375,-1.90625
629,1696249506767,-0.38793945,-0.7888794,0.56658936,-6.5625,-3.40625,-3.15625
630,1696249506807,-0.44750977,-0.8140259,0.58880615,-2.34375,-2.96875,-4.8125
631,1696249506847,-0.39624023,-0.7737427,0.57147217,-4.96875,-0.265625,-1.3125
632,1696249506887,-0.3779297,-0.7229614,0.5582886,-5.0,-0.296875,-2.140625
633,1696249506927,-0.4050293,-0.74786377,0.58270264,-3.703125,0.109375,-4.1875
634,1696249506967,-0.38598633,-0.7764282,0.5939331,-9.421875,-1.140625,-2.65625
635,1696249507007,-0.4050293,-0.7503052,0.6039429,-10.828125,-1.25,-2.28125
636,1696249507047,-0.42407227,-0.73150635,0.6281128,-6.53125,2.640625,-2.703125
637,1696249507087,-0.43164062,-0.7354126,0.6564331,-2.421875,4.6875,-0.484375
638,1696249507127,-0.41552734,-0.7268677,0.64715576,-4.671875,3.953125,0.65625
639,1696249507167,-0.40649414,-0.71954346,0.6503296,0.234375,9.84375,0.328125
640,1696249507207,-0.39331055,-0.7300415,0.62323,8.15625,16.25,2.578125
641,1696249507247,-0.39208984,-0.7600708,0.59051514,4.703125,10.40625,4.265625
642,1696249507287,-0.36376953,-0.7349243,0.6256714,4.21875,0.421875,3.578125
643,1696249507327,-0.3408203,-0.7481079,0.6195679,5.265625,-3.75,3.328125
644,1696249507367,-0.35131836,-0.7654419,0.61346436,5.453125,-0.859375,3.765625
645,1696249507407,-0.35302734,-0.7695923,0.61590576,6.53125,2.453125,2.71875
646,1696249507447,-0.33422852,-0.76641846,0.6017456,3.609375,-1.21875,1.59375
647,1696249507487,-0.33618164,-0.75787354,0.59710693,3.984375,-1.65625,1.921875
648,1696249507527,-0.3383789,-0.7817993,0.5783081,2.796875,-2.46875,1.625
649,1696249507567,-0.3466797,-0.76226807,0.60272217,1.75,-2.828125,0.8125
650,1696249507607,-0.35229492,-0.7761841,0.57073975,1.59375,-2.90625,1.546875
651,1696249507647,-0.3408203,-0.77545166,0.57440186,0.921875,-1.90625,1.0
652,1696249507687,-0.3269043,-0.73565674,0.5307007,6.703125,-3.78125,0.921875
653,1696249507727,-0.29736328,-0.7666626,0.46673584,16.140625,-9.171875,2.421875
654,1696249507767,-0.26293945,-0.8230591,0.4857788,7.9375,-8.015625,1.34375
655,1696249507807,-0.42041016,-0.77471924,0.6039429,-1.140625,0.796875,4.921875
656,1696249507847,-0.3852539,-0.8467407,0.59710693,-3.3125,-8.796875,-3.875
657,1696249507887,-0.37109375,-0.8015747,0.54681396,-12.484375,-2.484375,-8.09375
658,1696249507927,-0.3400879,-0.7341919,0.5363159,-7.578125,-2.90625,-2.84375
659,1696249507967,-0.3840332,-0.7710571,0.5656128,-5.4375,-3.1875,-2.390625
660,1696249508007,-0.40429688,-0.8118286,0.6063843,-4.828125,-4.578125,-4.28125
661,1696249508047,-0.38623047,-0.767395,0.5841675,-5.796875,-2.15625,-2.6875
662,1696249508087,-0.40576172,-0.75372314,0.57684326,-3.15625,0.03125,-3.78125
663,1696249508127,-0.42260742,-0.7288208,0.5675659,-3.8125,-1.84375,-3.3125
664,1696249508167,-0.4050293,-0.7571411,0.5805054,-5.140625,-0.109375,-2.09375
665,1696249508207,-0.40185547,-0.7720337,0.6063843,-6.578125,0.28125,-0.296875
666,1696249508247,-0.41210938,-0.7427368,0.6112671,-4.28125,-1.4375,-1.75
667,1696249508287,-0.4255371,-0.72662354,0.6102905,-2.890625,2.140625,-1.703125
668,1696249508327,-0.4165039,-0.7300415,0.6334839,-2.21875,3.3125,-0.375
669,1696249508367,-0.4260254,-0.73516846,0.638855,-2.359375,3.140625,0.890625
670,1696249508407,-0.42114258,-0.7359009,0.6508179,3.0,8.203125,1.390625
671,1696249508447,-0.42114258,-0.74224854,0.5883179,3.25,10.90625,2.578125
672,1696249508487,-0.3947754,-0.74176025,0.6012573,7.96875,12.53125,6.015625
673,1696249508527,-0.33691406,-0.75787354,0.62786865,5.984375,6.1875,6.828125
674,1696249508567,-0.31713867,-0.76690674,0.6286011,5.15625,1.28125,4.125
675,1696249508607,-0.3491211,-0.75738525,0.590271,2.375,-0.171875,0.484375
676,1696249508647,-0.3623047,-0.7554321,0.60076904,5.96875,-0.40625,-0.234375
677,1696249508687,-0.3474121,-0.77056885,0.59710693,4.5,-1.46875,1.78125
678,1696249508727,-0.34692383,-0.78375244,0.58026123,2.875,-2.171875,2.265625
679,1696249508767,-0.33642578,-0.79034424,0.58148193,0.859375,-1.234375,2.3125
680,1696249508807,-0.34326172,-0.77471924,0.5812378,0.875,-2.640625,1.09375
681,1696249508847,-0.34692383,-0.7583618,0.5597534,0.09375,-2.96875,-0.25
682,1696249508887,-0.35131836,-0.77471924,0.5836792,3.09375,-1.25,0.90625
683,1696249508927,-0.32055664,-0.7805786,0.51849365,2.046875,-4.59375,1.328125
684,1696249508967,-0.28686523,-0.7698364,0.47650146,7.234375,-17.84375,-2.953125
685,1696249509007,-0.27246094,-0.7883911,0.53533936,3.59375,-4.65625,-4.703125
686,1696249509047,-0.4494629,-0.7317505,0.60565186,-5.515625,-4.828125,3.5625
687,1696249509087,-0.40722656,-0.8286743,0.607605,-4.296875,-9.15625,-3.21875
688,1696249509127,-0.3972168,-0.79937744,0.5726929,-9.21875,-0.5,-9.015625
689,1696249509167,-0.37158203,-0.7539673,0.5482788,-5.59375,-2.71875,-1.78125
690,1696249509207,-0.40454102,-0.73883057,0.5829468,-7.65625,-4.625,-2.265625
691,1696249509247,-0.4177246,-0.77960205,0.58343506,-1.6875,-0.03125,-3.46875
692,1696249509287,-0.40893555,-0.769104,0.59832764,-4.75,-1.6875,-2.28125
693,1696249509327,-0.41186523,-0.74298096,0.58880615,-2.8125,-1.109375,-1.125
694,1696249509367,-0.42871094,-0.7192993,0.5922241,-2.171875,0.28125,-3.125
695,1696249509407,-0.42529297,-0.7349243,0.61053467,-5.03125,-0.0625,-2.0
696,1696249509447,-0.40795898,-0.75079346,0.59954834,-7.046875,-0.75,-0.578125
697,1696249509487,-0.42871094,-0.736145,0.6156616,-5.671875,0.109375,-1.75
698,1696249509527,-0.4338379,-0.71661377,0.63812256,-2.28125,2.65625,-2.265625
699,1696249509567,-0.43188477,-0.72369385,0.63275146,-3.5625,3.0625,0.109375
700,1696249509607,-0.44482422,-0.7283325,0.6630249,-6.625,4.21875,0.6875
701,1696249509647,-0.4741211,-0.73931885,0.6137085,-8.28125,6.765625,-0.671875
702,1696249509687,-0.42504883,-0.6946411,0.6715698,5.84375,17.328125,-0.953125
703,1696249509727,-0.31103516,-0.7139282,0.6293335,7.84375,9.421875,4.859375
704,1696249509767,-0.34399414,-0.7263794,0.61346436,6.171875,-2.671875,5.171875
705,1696249509807,-0.39941406,-0.72979736,0.6498413,12.921875,-0.015625,3.921875
706,1696249509847,-0.3881836,-0.7542114,0.6066284,8.453125,2.8125,3.59375
707,1696249509887,-0.36108398,-0.7542114,0.59246826,1.0625,0.8125,2.5
708,1696249509927,-0.35913086,-0.7647095,0.602478,2.71875,-3.109375,2.328125
709,1696249509967,-0.3647461,-0.75201416,0.60491943,-0.09375,-4.640625,1.734375
710,1696249510007,-0.36914062,-0.75250244,0.618103,2.734375,-2.84375,1.9375
711,1696249510047,-0.34765625,-0.7803345,0.5963745,4.625,-1.4375,2.796875
712,1696249510087,-0.34155273,-0.7349243,0.59002686,0.640625,-2.25,0.578125
713,1696249510127,-0.33691406,-0.7420044,0.5560913,4.84375,-1.9375,0.96875
714,1696249510167,-0.33276367,-0.74468994,0.49432373,10.03125,-5.1875,1.6875
715,1696249510207,-0.3100586,-0.77838135,0.52679443,10.265625,-6.453125,2.0
716,1696249510247,-0.34423828,-0.7835083,0.58026123,-2.875,-0.734375,2.03125
717,1696249510287,-0.45532227,-0.8069458,0.5778198,-10.9375,-12.0625,-0.125
718,1696249510327,-0.3803711,-0.7871704,0.6046753,-3.234375,-5.53125,-5.109375
719,1696249510367,-0.33154297,-0.7647095,0.5795288,-10.09375,-3.265625,-3.890625
720,1696249510407,-0.38378906,-0.7461548,0.5873413,-6.671875,-2.59375,-2.609375
721,1696249510447,-0.4248047,-0.7827759,0.62908936,-2.203125,-1.734375,-3.4375
722,1696249510487,-0.4260254,-0.76153564,0.60491943,-3.40625,-1.953125,-2.390625
723,1696249510527,-0.40429688,-0.71710205,0.59710693,-4.796875,-0.40625,-2.375
724,1696249510567,-0.40771484,-0.7151489,0.5968628,-2.859375,-1.953125,-3.6875
725,1696249510607,-0.42382812,-0.75006104,0.6268921,-6.65625,-0.984375,-3.703125
726,1696249510647,-0.42578125,-0.7324829,0.621521,-7.65625,-0.3125,-2.5
727,1696249510687,-0.43945312,-0.7151489,0.63616943,-4.578125,2.765625,-1.234375
728,1696249510727,-0.42358398,-0.71832275,0.6437378,-4.03125,5.890625,0.515625
729,1696249510767,-0.43896484,-0.7053833,0.6207886,-10.71875,0.5625,0.125
730,1696249510807,-0.42626953,-0.7017212,0.670105,-5.78125,1.953125,-1.0
731,1696249510847,-0.3779297,-0.7095337,0.6754761,-2.40625,4.96875,-0.328125
732,1696249510887,-0.40576172,-0.7114868,0.6703491,9.484375,12.796875,1.40625
733,1696249510927,-0.4284668,-0.71295166,0.6227417,12.546875,11.828125,3.09375
734,1696249510967,-0.4099121,-0.704895,0.6334839,13.984375,5.796875,4.0625
735,1696249511007,-0.38012695,-0.76031494,0.6222534,8.640625,-0.5625,6.03125
736,1696249511047,-0.3486328,-0.7439575,0.6207886,3.453125,-2.484375,4.703125
737,1696249511087,-0.3461914,-0.7263794,0.6190796,7.640625,1.078125,1.53125
738,1696249511127,-0.35058594,-0.76934814,0.61102295,8.03125,1.34375,1.3125
739,1696249511167,-0.3659668,-0.7788696,0.5907593,5.6875,-0.578125,2.84375
740,1696249511207,-0.36108398,-0.75201416,0.5997925,7.078125,-0.296875,3.03125
741,1696249511247,-0.36035156,-0.7695923,0.5817261,8.953125,1.234375,3.359375
742,1696249511287,-0.34106445,-0.7810669,0.56463623,8.921875,2.3125,3.09375
743,1696249511327,-0.33618164,-0.7876587,0.5585327,4.1875,-0.78125,2.390625
744,1696249511367,-0.3322754,-0.7888794,0.541687,0.21875,-4.40625,1.453125
745,1696249511407,-0.31054688,-0.76519775,0.5101929,2.421875,-7.40625,0.296875
746,1696249511447,-0.29492188,-0.7661743,0.45526123,11.078125,-8.796875,0.984375
747,1696249511487,-0.27172852,-0.8115845,0.50213623,5.53125,-5.4375,0.71875
748,1696249511527,-0.41259766,-0.7954712,0.5878296,-10.828125,-3.359375,1.8125
749,1696249511567,-0.41577148,-0.8435669,0.61224365,-7.5,-9.15625,-3.953125
750,1696249511607,-0.36791992,-0.79815674,0.55145264,-15.390625,-1.296875,-7.671875
751,1696249511647,-0.3474121,-0.73101807,0.55389404,-9.59375,-6.15625,-3.84375
752,1696249511687,-0.3869629,-0.7769165,0.58587646,-10.609375,-3.65625,-4.03125
753,1696249511727,-0.41064453,-0.78253174,0.6117554,-5.71875,-4.65625,-5.328125
754,1696249511767,-0.3930664,-0.7463989,0.5853882,-5.109375,0.09375,-2.296875
755,1696249511807,-0.4104004,-0.7202759,0.5844116,-3.5,-2.140625,-2.859375
756,1696249511847,-0.4230957,-0.7439575,0.60198975,-5.671875,-1.59375,-3.203125
757,1696249511887,-0.41918945,-0.72857666,0.63153076,-4.75,-0.71875,-2.40625
758,1696249511927,-0.4182129,-0.7402954,0.6256714,-6.40625,-0.09375,-1.109375
759,1696249511967,-0.43408203,-0.7190552,0.6117554,-7.421875,-0.984375,-1.125
