# Sensor type: Respeck
# Activity type: Lying down on stomach
# Activity subtype: Singing
# Subject id: s2106809
# Notes: unprocessed
timestamp,accel_x,accel_y,accel_z,gyro_x,gyro_y,gyro_z
1696254408927,0.5041504,-0.19488525,-0.7727661,-0.15625,0.46875,0.046875
1696254408966,0.5,-0.19659424,-0.7749634,0.0625,0.609375,-0.125
1696254409006,0.50390625,-0.19830322,-0.786438,0.390625,1.15625,-0.046875
1696254409048,0.5029297,-0.1921997,-0.79571533,0.921875,1.78125,-0.109375
1696254409092,0.5007324,-0.19195557,-0.7920532,0.59375,1.203125,-0.265625
1696254409127,0.49487305,-0.19317627,-0.788147,0.125,0.71875,-0.28125
1696254409169,0.49145508,-0.18951416,-0.78741455,-0.296875,0.359375,-0.140625
1696254409208,0.49853516,-0.19415283,-0.788147,-0.1875,0.390625,-0.234375
1696254409248,0.4934082,-0.19659424,-0.7817993,-0.28125,0.578125,-0.265625
1696254409288,0.4873047,-0.19293213,-0.79156494,0.0,0.921875,-0.171875
1696254409328,0.48583984,-0.19268799,-0.79107666,0.0625,1.171875,-0.203125
1696254409368,0.48999023,-0.1975708,-0.7930298,0.03125,1.0,-0.1875
1696254409432,0.48510742,-0.20196533,-0.7944946,-0.359375,0.625,-0.078125
1696254409447,0.4855957,-0.19000244,-0.7905884,-0.515625,-0.15625,-0.125
1696254409489,0.4819336,-0.19952393,-0.78326416,-0.34375,-0.640625,-0.1875
1696254409529,0.47998047,-0.19830322,-0.7905884,-0.171875,-0.90625,0.140625
1696254409568,0.4807129,-0.19268799,-0.78302,0.015625,-1.546875,0.546875
1696254409609,0.49023438,-0.19683838,-0.7883911,0.328125,-1.578125,0.515625
1696254409648,0.4934082,-0.1975708,-0.7925415,0.71875,-1.359375,0.46875
1696254409691,0.4909668,-0.19488525,-0.78863525,0.40625,-0.953125,0.359375
1696254409729,0.4934082,-0.18829346,-0.7893677,0.375,-0.609375,0.203125
1696254409768,0.4934082,-0.19488525,-0.78082275,0.34375,0.265625,0.203125
1696254409808,0.4934082,-0.1921997,-0.78741455,0.203125,0.421875,0.140625
1696254409848,0.49072266,-0.19195557,-0.80303955,0.171875,0.15625,0.1875
1696254409888,0.4892578,-0.18511963,-0.7866821,-0.140625,-0.140625,0.0625
1696254409928,0.48779297,-0.19146729,-0.7908325,-0.375,-0.5,0.171875
1696254409968,0.48486328,-0.19439697,-0.7930298,-0.125,-0.65625,0.171875
1696254410010,0.4951172,-0.19195557,-0.7908325,-0.21875,-0.578125,0.1875
1696254410048,0.48999023,-0.19610596,-0.7937622,-0.28125,-0.4375,0.0625
1696254410088,0.48486328,-0.19390869,-0.786438,-0.25,-0.796875,0.0625
1696254410130,0.48779297,-0.1921997,-0.79278564,-0.421875,-0.921875,0.0625
1696254410168,0.49145508,-0.19342041,-0.77130127,0.0625,-0.703125,0.265625
1696254410208,0.49487305,-0.19000244,-0.78863525,0.28125,-0.21875,0.40625
1696254410226,0.49316406,-0.18829346,-0.7896118,0.296875,-0.265625,0.265625
1696254410268,0.49291992,-0.1921997,-0.78790283,0.203125,-0.3125,0.25
1696254410307,0.49389648,-0.19293213,-0.80596924,-0.28125,-0.875,0.046875
1696254410347,0.49316406,-0.19293213,-0.79815674,-0.21875,-0.765625,-0.0625
1696254410390,0.49560547,-0.1831665,-0.79156494,-0.265625,-0.734375,0.0
1696254410450,0.48266602,-0.18951416,-0.7866821,-0.21875,-0.625,-0.03125
1696254410467,0.49536133,-0.19024658,-0.772522,-0.1875,-0.859375,0.140625
1696254410529,0.49829102,-0.1951294,-0.79571533,-0.140625,-0.703125,0.078125
1696254410550,0.49438477,-0.19268799,-0.7896118,-0.03125,-0.78125,0.15625
1696254410588,0.49291992,-0.19903564,-0.7876587,0.140625,-0.296875,0.3125
1696254410629,0.49731445,-0.19317627,-0.803772,0.09375,-0.21875,0.140625
1696254410668,0.48999023,-0.19488525,-0.78497314,0.0,-0.109375,0.078125
1696254410708,0.48828125,-0.18560791,-0.77423096,0.34375,-0.21875,0.15625
1696254410750,0.4946289,-0.19024658,-0.7905884,0.265625,0.078125,0.296875
1696254410788,0.4880371,-0.19146729,-0.7859497,0.328125,-0.125,0.46875
1696254410828,0.4970703,-0.18634033,-0.79766846,-0.046875,-0.390625,0.296875
1696254410870,0.50024414,-0.1897583,-0.7959595,-0.296875,-0.546875,0.140625
1696254410928,0.48754883,-0.18780518,-0.786438,0.046875,-0.53125,0.390625
1696254410947,0.4951172,-0.19171143,-0.7913208,0.015625,-0.921875,0.21875
1696254411009,0.49682617,-0.18878174,-0.7888794,-0.421875,-1.0625,0.3125
1696254411048,0.49926758,-0.19464111,-0.78741455,-0.390625,-0.296875,0.171875
1696254411069,0.48535156,-0.18292236,-0.7822876,-0.09375,0.234375,0.015625
1696254411109,0.48608398,-0.190979,-0.7871704,0.0,0.0625,0.015625
1696254411151,0.49609375,-0.1951294,-0.79522705,0.265625,-0.5,0.390625
1696254411207,0.49804688,-0.18780518,-0.79229736,0.171875,-1.0,0.40625
1696254411229,0.49804688,-0.18389893,-0.79156494,-0.046875,-1.765625,0.234375
1696254411289,0.49487305,-0.19390869,-0.7876587,-0.578125,-1.90625,-0.109375
1696254411307,0.4975586,-0.19390869,-0.7769165,-0.75,-1.71875,0.0
1696254411349,0.50390625,-0.19464111,-0.77911377,-0.328125,-1.125,0.078125
1696254411387,0.5029297,-0.1873169,-0.7803345,-0.296875,-0.53125,0.21875
1696254411427,0.5070801,-0.19171143,-0.78448486,-0.328125,-0.265625,-0.140625
1696254411467,0.49804688,-0.18951416,-0.7852173,-0.484375,0.234375,-0.015625
1696254411508,0.5041504,-0.1897583,-0.7876587,-0.25,0.234375,0.125
1696254411530,0.49267578,-0.19659424,-0.7817993,-0.171875,-0.046875,0.140625
1696254411569,0.50097656,-0.19366455,-0.79571533,-0.28125,-0.21875,0.171875
1696254411612,0.49658203,-0.18463135,-0.78619385,-0.078125,-0.40625,-0.109375
1696254411649,0.49780273,-0.1897583,-0.7901001,-0.0625,-0.359375,0.15625
1696254411689,0.50097656,-0.20220947,-0.78790283,-0.140625,-0.9375,0.3125
1696254411727,0.49853516,-0.19415283,-0.7918091,-0.203125,-1.265625,0.21875
1696254411771,0.5095215,-0.19390869,-0.7815552,-0.28125,-0.921875,0.09375
1696254411808,0.50439453,-0.19000244,-0.7781372,-0.25,-0.484375,-0.03125
1696254411848,0.5024414,-0.19390869,-0.7827759,-0.265625,-0.4375,0.109375
1696254411888,0.5024414,-0.19464111,-0.78204346,-0.21875,-0.34375,0.125
1696254411929,0.5029297,-0.18878174,-0.7854614,-0.28125,-0.09375,0.15625
1696254411970,0.4970703,-0.1873169,-0.77716064,-0.0625,-0.25,0.25
1696254412007,0.5048828,-0.19366455,-0.7859497,0.015625,-0.25,0.0625
1696254412048,0.49389648,-0.1987915,-0.7776489,0.15625,-0.328125,0.421875
1696254412088,0.50146484,-0.18634033,-0.772522,0.109375,0.1875,0.28125
1696254412128,0.50219727,-0.18951416,-0.79034424,0.125,0.703125,-0.03125
1696254412168,0.49291992,-0.19000244,-0.7761841,0.75,2.421875,-0.265625
1696254412209,0.49682617,-0.18780518,-0.79766846,0.34375,3.3125,-0.71875
1696254412249,0.5,-0.190979,-0.80474854,-0.5625,1.21875,-0.75
1696254412288,0.49194336,-0.19439697,-0.78497314,-0.421875,0.453125,-0.34375
1696254412328,0.48413086,-0.1885376,-0.7937622,-0.140625,0.5,-0.140625
1696254412368,0.48657227,-0.18536377,-0.79229736,-0.453125,0.09375,-0.265625
1696254412408,0.4777832,-0.1921997,-0.78497314,-0.09375,-0.53125,0.0
1696254412449,0.48828125,-0.1897583,-0.7901001,0.09375,-1.5,0.140625
1696254412487,0.48461914,-0.19024658,-0.79400635,-0.265625,-1.921875,0.421875
1696254412529,0.4963379,-0.19659424,-0.78912354,0.15625,-1.59375,0.46875
1696254412569,0.49291992,-0.19024658,-0.7944946,-0.046875,-1.203125,0.4375
1696254412608,0.48535156,-0.19390869,-0.7776489,0.0625,-0.765625,0.28125
1696254412649,0.49780273,-0.190979,-0.78912354,-0.125,-0.4375,0.078125
1696254412690,0.4880371,-0.19293213,-0.7913208,-0.140625,-0.375,0.265625
1696254412728,0.501709,-0.19610596,-0.79693604,-0.15625,-0.25,0.15625
1696254412769,0.48999023,-0.19317627,-0.7835083,0.109375,-0.1875,0.25
1696254412811,0.4975586,-0.19464111,-0.7854614,0.078125,-0.296875,0.25
1696254412827,0.49023438,-0.19244385,-0.7871704,0.015625,-0.328125,0.1875
1696254412869,0.49365234,-0.18536377,-0.7888794,-0.15625,-0.4375,0.125
1696254412909,0.49731445,-0.19024658,-0.78570557,-0.28125,-0.640625,0.234375
1696254412949,0.4909668,-0.19366455,-0.7959595,-0.125,-0.5,0.078125
1696254412989,0.4951172,-0.18829346,-0.78692627,-0.1875,-0.640625,0.21875
1696254413028,0.49072266,-0.18804932,-0.78570557,-0.34375,-0.6875,0.078125
1696254413067,0.49145508,-0.1873169,-0.79351807,-0.3125,-0.640625,0.21875
1696254413111,0.49536133,-0.19390869,-0.78570557,0.015625,-0.671875,0.21875
1696254413149,0.49658203,-0.19073486,-0.7920532,0.140625,-0.78125,0.21875
1696254413189,0.49731445,-0.19268799,-0.7876587,-0.125,-0.25,0.234375
1696254413230,0.49438477,-0.19073486,-0.77960205,-0.03125,-0.296875,0.03125
1696254413269,0.49267578,-0.19464111,-0.79351807,-0.078125,-0.46875,0.109375
1696254413309,0.4951172,-0.19171143,-0.79522705,-0.234375,-0.34375,0.015625
1696254413349,0.48876953,-0.19659424,-0.7920532,-0.109375,-0.609375,0.15625
1696254413389,0.49316406,-0.18878174,-0.7835083,-0.15625,-0.75,0.296875
1696254413428,0.49121094,-0.19024658,-0.78692627,-0.0625,-0.546875,0.296875
1696254413469,0.5,-0.190979,-0.7905884,-0.234375,-0.515625,0.15625
1696254413510,0.5007324,-0.19195557,-0.7839966,-0.078125,-0.25,0.15625
1696254413549,0.49951172,-0.18951416,-0.7793579,0.078125,-0.09375,-0.015625
1696254413589,0.49438477,-0.1885376,-0.78619385,-0.078125,-0.203125,0.25
1696254413629,0.50439453,-0.1951294,-0.79107666,-0.1875,-0.765625,0.140625
1696254413670,0.49609375,-0.19390869,-0.79400635,-0.40625,-0.578125,0.09375
1696254413710,0.49487305,-0.19244385,-0.7842407,-0.5625,-0.703125,0.203125
1696254413749,0.49609375,-0.19537354,-0.78985596,-0.390625,-1.34375,0.03125
1696254413788,0.4975586,-0.19146729,-0.7842407,-0.15625,-1.59375,0.109375
1696254413829,0.501709,-0.18707275,-0.7827759,-0.328125,-1.3125,0.125
1696254413870,0.5036621,-0.19659424,-0.786438,-0.609375,-1.0,0.203125
1696254413909,0.49902344,-0.19537354,-0.7774048,-0.828125,-0.890625,-0.03125
1696254413949,0.49731445,-0.19659424,-0.78082275,-0.28125,-0.3125,0.1875
1696254413988,0.50268555,-0.19439697,-0.78692627,-0.375,-0.34375,0.234375
1696254414027,0.50683594,-0.19854736,-0.78253174,-0.421875,-0.59375,0.140625
1696254414068,0.50634766,-0.19732666,-0.7810669,-0.171875,-0.859375,0.171875
1696254414110,0.501709,-0.19830322,-0.7854614,-0.234375,-0.703125,0.078125
1696254414147,0.50268555,-0.19439697,-0.7793579,-0.234375,-0.453125,0.140625
1696254414167,0.4963379,-0.19683838,-0.78790283,-0.015625,-0.28125,0.234375
1696254414209,0.5058594,-0.19586182,-0.78497314,-0.140625,-0.328125,0.234375
1696254414248,0.5053711,-0.19805908,-0.78375244,-0.46875,-0.515625,0.125
1696254414290,0.49682617,-0.19488525,-0.7776489,-0.375,-0.421875,0.0625
1696254414328,0.5097656,-0.19317627,-0.78131104,-0.09375,-0.4375,0.09375
1696254414368,0.5058594,-0.19683838,-0.78741455,-0.015625,-0.34375,0.21875
1696254414409,0.50512695,-0.19976807,-0.7756958,0.015625,-0.359375,0.25
1696254414450,0.50878906,-0.20074463,-0.78204346,-0.203125,-0.328125,0.28125
1696254414512,0.5048828,-0.20074463,-0.78131104,-0.21875,-0.609375,0.171875
1696254414529,0.5070801,-0.19586182,-0.7815552,-0.203125,-0.625,0.078125
1696254414569,0.50512695,-0.2000122,-0.78253174,-0.15625,-0.265625,0.21875
1696254414610,0.49609375,-0.1987915,-0.7769165,0.0,-0.09375,0.078125
1696254414671,0.50146484,-0.19268799,-0.7805786,0.203125,0.296875,0.09375
1696254414687,0.4970703,-0.20050049,-0.78253174,0.171875,0.96875,0.03125
1696254414729,0.49291992,-0.1963501,-0.7835083,0.734375,1.671875,0.078125
1696254414769,0.49316406,-0.19244385,-0.7876587,0.828125,1.875,-0.078125
1696254414809,0.48901367,-0.19000244,-0.77960205,0.359375,1.921875,-0.0625
1696254414849,0.48779297,-0.19000244,-0.7991333,0.3125,2.03125,-0.25
1696254414909,0.48901367,-0.19586182,-0.8032837,-0.296875,0.9375,-0.421875
1696254414928,0.48657227,-0.19390869,-0.7966919,-0.515625,0.4375,-0.328125
1696254414968,0.48242188,-0.19317627,-0.7859497,-0.484375,-0.203125,-0.09375
1696254415009,0.47973633,-0.19244385,-0.78912354,-0.234375,-0.84375,0.125
1696254415049,0.4790039,-0.18927002,-0.7962036,-0.296875,-1.484375,0.1875
1696254415091,0.49169922,-0.19805908,-0.7996216,-0.171875,-2.09375,0.4375
1696254415130,0.49023438,-0.19268799,-0.78570557,0.34375,-1.875,0.65625
1696254415169,0.49438477,-0.18487549,-0.7842407,0.34375,-1.515625,0.421875
1696254415210,0.5012207,-0.19854736,-0.79693604,-0.015625,-0.703125,0.265625
1696254415249,0.50097656,-0.1897583,-0.78082275,-0.0625,-0.4375,0.1875
1696254415311,0.49731445,-0.18829346,-0.78326416,-0.328125,-0.46875,0.171875
1696254415328,0.4946289,-0.19708252,-0.78790283,-0.25,-0.390625,0.125
1696254415370,0.48364258,-0.18902588,-0.77789307,0.265625,-0.125,0.25
1696254415410,0.49389648,-0.19903564,-0.7805786,0.15625,-0.296875,0.140625
1696254415468,0.49169922,-0.18902588,-0.7839966,0.046875,-0.4375,0.234375
1696254415487,0.49365234,-0.19122314,-0.7954712,0.0,-0.53125,0.15625
1696254415507,0.49316406,-0.19610596,-0.79156494,-0.078125,-0.421875,0.3125
1696254415548,0.49438477,-0.18487549,-0.7932739,-0.265625,-0.8125,0.03125
1696254415588,0.4897461,-0.19439697,-0.7842407,-0.3125,-0.59375,0.15625
1696254415631,0.49145508,-0.19171143,-0.7852173,-0.328125,-0.625,0.125
1696254415667,0.4921875,-0.1843872,-0.78302,0.03125,-0.8125,0.1875
1696254415709,0.49829102,-0.18804932,-0.79107666,-0.125,-0.421875,0.265625
1696254415748,0.50268555,-0.19366455,-0.7913208,0.15625,-0.234375,0.3125
1696254415791,0.49194336,-0.19244385,-0.7883911,0.0625,-0.078125,0.109375
1696254415830,0.4934082,-0.19122314,-0.7854614,0.03125,-0.21875,0.109375
1696254415868,0.49487305,-0.19293213,-0.79351807,-0.203125,-0.265625,0.1875
1696254415909,0.49560547,-0.1921997,-0.78497314,-0.109375,-0.203125,0.171875
1696254415949,0.49194336,-0.19049072,-0.78375244,-0.03125,-0.484375,0.15625
1696254415990,0.49169922,-0.19049072,-0.78375244,0.0,-0.671875,0.15625
1696254416029,0.49316406,-0.18707275,-0.79107666,-0.09375,-0.53125,0.171875
1696254416068,0.4958496,-0.1963501,-0.78985596,-0.25,-0.359375,0.109375
1696254416109,0.49487305,-0.18878174,-0.78619385,-0.0625,-0.5,0.15625
1696254416149,0.4892578,-0.19464111,-0.7827759,0.140625,-0.296875,0.109375
1696254416188,0.49438477,-0.18511963,-0.7908325,-0.28125,-0.4375,-0.078125
1696254416229,0.4873047,-0.19415283,-0.78375244,-0.203125,-0.40625,0.140625
1696254416269,0.49121094,-0.19537354,-0.78863525,0.0,-0.3125,0.328125
1696254416310,0.49829102,-0.19366455,-0.7944946,-0.203125,-0.46875,0.109375
1696254416351,0.5036621,-0.19268799,-0.79156494,-0.171875,-0.390625,0.15625
1696254416388,0.49169922,-0.18927002,-0.7944946,-0.34375,-0.515625,0.15625
1696254416428,0.49291992,-0.19659424,-0.786438,-0.234375,-0.765625,0.0625
1696254416467,0.49487305,-0.19146729,-0.78619385,-0.1875,-0.46875,0.15625
1696254416511,0.49267578,-0.19366455,-0.788147,-0.140625,-0.6875,0.015625
1696254416548,0.4951172,-0.1921997,-0.7805786,-0.4375,-0.5625,-0.015625
1696254416590,0.5007324,-0.19390869,-0.78326416,-0.078125,-0.546875,0.28125
1696254416629,0.50146484,-0.18829346,-0.78204346,-0.140625,-0.40625,0.171875
1696254416668,0.4975586,-0.19390869,-0.78253174,-0.125,-0.578125,0.265625
1696254416709,0.4975586,-0.19342041,-0.7901001,-0.265625,-0.5625,0.078125
1696254416771,0.49487305,-0.19293213,-0.7805786,-0.03125,-0.671875,0.21875
1696254416789,0.49926758,-0.18927002,-0.7786255,-0.234375,-0.453125,0.125
1696254416808,0.5031738,-0.19366455,-0.78375244,-0.25,-0.765625,0.109375
1696254416848,0.5041504,-0.19854736,-0.7896118,-0.296875,-0.71875,-0.015625
1696254416889,0.5029297,-0.18756104,-0.78790283,-0.171875,-0.390625,0.09375
1696254416927,0.49267578,-0.18658447,-0.78253174,0.0,-0.34375,0.078125
1696254416968,0.49780273,-0.19390869,-0.7883911,-0.390625,-0.484375,0.015625
1696254417013,0.49975586,-0.1921997,-0.7761841,-0.3125,-0.578125,0.125
1696254417048,0.5031738,-0.19366455,-0.7835083,-0.15625,-0.59375,0.171875
1696254417086,0.5046387,-0.1987915,-0.784729,-0.25,-0.71875,0.234375
1696254417128,0.50024414,-0.19146729,-0.78619385,-0.25,-0.796875,0.34375
1696254417169,0.49804688,-0.19708252,-0.78009033,-0.390625,-0.515625,0.109375
1696254417212,0.4970703,-0.19317627,-0.78131104,0.046875,-0.390625,0.140625
1696254417247,0.50097656,-0.20318604,-0.78912354,-0.109375,-0.421875,0.203125
1696254417286,0.49902344,-0.19195557,-0.78302,-0.09375,-0.5,0.140625
1696254417329,0.49902344,-0.19854736,-0.78790283,-0.15625,-0.484375,0.140625
1696254417369,0.5007324,-0.19805908,-0.7866821,-0.203125,-0.640625,0.203125
1696254417408,0.5004883,-0.19488525,-0.7839966,-0.203125,-0.796875,0.21875
1696254417449,0.5046387,-0.19415283,-0.7859497,-0.375,-0.765625,0.171875
1696254417510,0.5046387,-0.19561768,-0.7761841,-0.265625,-0.640625,0.09375
1696254417529,0.5046387,-0.19195557,-0.78497314,-0.3125,-0.765625,0.09375
1696254417570,0.5031738,-0.19317627,-0.7859497,-0.046875,-0.515625,0.15625
1696254417629,0.5004883,-0.2029419,-0.78131104,-0.03125,-0.40625,0.1875
1696254417648,0.5083008,-0.19268799,-0.78375244,-0.15625,-0.859375,0.171875
1696254417712,0.50756836,-0.1885376,-0.7817993,-0.265625,-0.5,0.15625
1696254417727,0.50683594,-0.206604,-0.7852173,-0.359375,-0.46875,0.03125
1696254417769,0.50561523,-0.19366455,-0.7737427,-0.359375,-0.5,0.078125
1696254417810,0.50097656,-0.19683838,-0.7756958,0.125,-0.53125,0.234375
1696254417868,0.501709,-0.19488525,-0.7737427,0.3125,-0.796875,0.390625
1696254417886,0.50512695,-0.19244385,-0.7744751,0.28125,-1.28125,0.3125
1696254417929,0.50683594,-0.19903564,-0.7908325,-0.0625,-1.0,0.234375
1696254417969,0.50512695,-0.19268799,-0.7774048,-0.171875,-0.578125,0.140625
1696254418010,0.51538086,-0.19561768,-0.77960205,-0.34375,-0.765625,0.125
1696254418048,0.5061035,-0.19927979,-0.78448486,-0.25,-0.671875,0.21875
1696254418090,0.51293945,-0.19732666,-0.77960205,0.015625,-0.578125,0.1875
1696254418108,0.5073242,-0.1951294,-0.77838135,-0.296875,-0.734375,0.046875
1696254418149,0.5107422,-0.19708252,-0.7815552,-0.828125,-0.421875,-0.15625
1696254418191,0.5083008,-0.20123291,-0.78326416,-0.671875,-0.34375,-0.015625
1696254418227,0.5095215,-0.2000122,-0.78302,-0.25,-0.546875,0.140625
1696254418269,0.5083008,-0.19903564,-0.77716064,-0.078125,-0.59375,0.34375
1696254418311,0.50561523,-0.19415283,-0.78692627,-0.203125,-0.40625,0.09375
1696254418347,0.51000977,-0.19732666,-0.78131104,-0.46875,-0.453125,0.125
1696254418390,0.5180664,-0.2041626,-0.78326416,-0.109375,-0.34375,0.125
1696254418429,0.5078125,-0.19708252,-0.7769165,0.03125,-0.3125,0.109375
1696254418469,0.5058594,-0.2029419,-0.7805786,-0.0625,-0.390625,0.234375
1696254418507,0.50805664,-0.2000122,-0.7810669,-0.265625,-0.21875,0.015625
1696254418548,0.50512695,-0.1987915,-0.7793579,-0.359375,-0.625,0.125
1696254418592,0.5070801,-0.19488525,-0.76690674,-0.46875,-0.796875,-0.0625
1696254418628,0.5107422,-0.2029419,-0.7859497,-0.6875,-0.71875,-0.171875
1696254418671,0.51782227,-0.20440674,-0.7798462,-0.5625,-0.734375,-0.109375
1696254418708,0.5126953,-0.20245361,-0.77423096,-0.65625,-0.625,-0.078125
1696254418749,0.5053711,-0.20074463,-0.7744751,-0.375,-0.9375,0.15625
1696254418787,0.51586914,-0.20465088,-0.7671509,-0.1875,-1.59375,0.125
1696254418829,0.5209961,-0.20733643,-0.77911377,-0.203125,-1.21875,0.09375
1696254418868,0.5151367,-0.20367432,-0.7805786,-0.28125,-0.890625,0.0
1696254418909,0.51049805,-0.20489502,-0.7671509,-0.453125,-0.59375,0.109375
1696254418947,0.5168457,-0.20904541,-0.77471924,-0.296875,0.09375,0.015625
1696254418987,0.5136719,-0.20343018,-0.7671509,-0.109375,0.390625,0.1875
1696254419029,0.51123047,-0.20733643,-0.77178955,-0.25,0.546875,0.21875
1696254419070,0.50390625,-0.1987915,-0.77716064,-0.21875,-0.25,0.1875
1696254419109,0.51416016,-0.2041626,-0.7739868,0.015625,-0.390625,0.203125
1696254419149,0.50756836,-0.20196533,-0.7769165,-0.25,-0.625,0.234375
1696254419188,0.51220703,-0.20513916,-0.78497314,-0.53125,-0.859375,0.03125
1696254419231,0.5126953,-0.20709229,-0.784729,-0.703125,-1.40625,-0.109375
1696254419269,0.51416016,-0.20465088,-0.76031494,0.0625,-0.515625,0.265625
1696254419312,0.513916,-0.20855713,-0.7788696,-0.171875,-0.328125,0.328125
1696254419351,0.51220703,-0.20709229,-0.76397705,-0.34375,-0.65625,0.140625
1696254419409,0.5187988,-0.20245361,-0.7793579,-0.515625,-0.421875,-0.140625
1696254419428,0.5097656,-0.20196533,-0.7703247,-0.53125,-0.4375,-0.03125
1696254419447,0.5095215,-0.2000122,-0.77789307,-0.171875,-0.671875,0.359375
1696254419489,0.51293945,-0.20758057,-0.7827759,-0.234375,-0.390625,0.234375
1696254419550,0.51123047,-0.2131958,-0.7686157,-0.265625,-0.640625,0.015625
1696254419571,0.5085449,-0.21221924,-0.77056885,-0.390625,-0.59375,0.109375
1696254419630,0.5161133,-0.21026611,-0.7761841,-0.125,-0.4375,0.203125
1696254419669,0.51171875,-0.20587158,-0.7761841,0.078125,-0.75,0.296875
1696254419707,0.5136719,-0.21051025,-0.77667236,-0.15625,-0.65625,0.25
1696254419728,0.5114746,-0.21392822,-0.77911377,0.0625,-0.3125,0.0625
1696254419767,0.51171875,-0.2041626,-0.7710571,0.0625,-0.34375,0.234375
1696254419807,0.5161133,-0.21026611,-0.77178955,-0.09375,-0.328125,0.25
1696254419848,0.51416016,-0.2053833,-0.7732544,-0.171875,-0.328125,0.171875
1696254419908,0.5078125,-0.20977783,-0.78082275,-0.34375,-0.78125,0.171875
1696254419927,0.51220703,-0.2156372,-0.7698364,-0.328125,-1.046875,0.203125
1696254419969,0.51708984,-0.21368408,-0.767395,0.0,-0.828125,0.3125
1696254420008,0.5192871,-0.20806885,-0.77056885,0.15625,-0.21875,0.1875
1696254420048,0.52368164,-0.2029419,-0.7698364,-0.03125,0.28125,0.109375
1696254420091,0.5097656,-0.21051025,-0.7583618,0.15625,0.78125,0.0625
1696254420129,0.5163574,-0.20635986,-0.77838135,0.828125,1.453125,0.140625
1696254420169,0.5202637,-0.21295166,-0.7815552,0.515625,2.0,-0.015625
1696254420209,0.49829102,-0.19976807,-0.7781372,1.03125,2.1875,0.4375
1696254420247,0.49682617,-0.20220947,-0.7715454,1.046875,1.5625,0.078125
1696254420289,0.49731445,-0.19488525,-0.786438,0.65625,1.75,-0.03125
1696254420329,0.4987793,-0.2029419,-0.7896118,0.34375,1.484375,-0.203125
1696254420369,0.49267578,-0.19927979,-0.7913208,0.03125,0.78125,-0.21875
1696254420409,0.4958496,-0.20220947,-0.78741455,-0.046875,0.09375,-0.15625
1696254420450,0.4958496,-0.20025635,-0.78692627,0.421875,0.28125,0.203125
1696254420512,0.49487305,-0.20611572,-0.7893677,-0.09375,-0.421875,0.0625
1696254420528,0.49609375,-0.19659424,-0.7852173,-0.28125,-0.359375,-0.140625
1696254420591,0.49023438,-0.20074463,-0.78741455,-0.4375,-0.96875,0.09375
1696254420613,0.48828125,-0.19976807,-0.78863525,-0.203125,-2.25,0.53125
1696254420671,0.49658203,-0.2000122,-0.7749634,0.5625,-2.015625,0.796875
1696254420711,0.49926758,-0.19854736,-0.78204346,0.71875,-1.015625,0.59375
1696254420729,0.5046387,-0.19903564,-0.78692627,0.03125,-0.6875,0.21875
1696254420748,0.49975586,-0.2000122,-0.7974243,0.046875,-0.390625,0.1875
1696254420789,0.49316406,-0.19610596,-0.7876587,0.1875,0.078125,0.34375
1696254420829,0.5041504,-0.19244385,-0.77667236,0.46875,0.28125,0.140625
1696254420869,0.49414062,-0.1987915,-0.7769165,0.140625,0.0625,0.296875
1696254420908,0.49145508,-0.19488525,-0.7803345,0.21875,-0.0625,0.265625
1696254420950,0.49267578,-0.1963501,-0.7781372,0.703125,-0.21875,0.421875
1696254420989,0.5053711,-0.19586182,-0.78912354,0.09375,-0.21875,0.171875
1696254421028,0.5024414,-0.20050049,-0.78863525,0.0,-0.109375,0.03125
1696254421070,0.49926758,-0.19683838,-0.7871704,0.015625,-0.40625,0.140625
1696254421108,0.49682617,-0.19342041,-0.78204346,-0.21875,-0.65625,0.296875
1696254421149,0.49267578,-0.19415283,-0.7781372,-0.265625,-0.640625,0.15625
1696254421188,0.4975586,-0.19195557,-0.7839966,-0.34375,-0.875,0.0
1696254421228,0.49780273,-0.19293213,-0.78741455,-0.109375,-0.640625,0.171875
1696254421269,0.5007324,-0.19805908,-0.7810669,0.1875,-0.328125,0.25
1696254421308,0.50439453,-0.19781494,-0.78985596,-0.09375,-0.328125,0.125
1696254421349,0.501709,-0.19122314,-0.79473877,-0.09375,-0.171875,0.09375
1696254421390,0.49902344,-0.19146729,-0.7798462,-0.15625,-0.15625,0.171875
1696254421429,0.50390625,-0.19610596,-0.78326416,-0.046875,-0.265625,0.09375
1696254421468,0.49145508,-0.19805908,-0.7905884,0.03125,-0.8125,0.203125
1696254421510,0.49658203,-0.19439697,-0.78326416,-0.15625,-1.640625,0.359375
1696254421554,0.5061035,-0.19342041,-0.78302,-0.25,-1.421875,0.203125
1696254421593,0.5102539,-0.19781494,-0.7774048,0.0625,-1.125,0.25
1696254421627,0.50683594,-0.190979,-0.78570557,-0.125,-0.140625,0.09375
1696254421672,0.49804688,-0.19244385,-0.77911377,-0.234375,-0.03125,0.0
1696254421709,0.49731445,-0.19439697,-0.7764282,0.125,0.328125,0.078125
1696254421749,0.4970703,-0.19708252,-0.77838135,0.078125,-0.1875,0.140625
1696254421790,0.4975586,-0.1951294,-0.7920532,0.0625,-0.5,0.15625
1696254421828,0.49829102,-0.1975708,-0.7942505,-0.234375,-0.5625,0.078125
1696254421871,0.49975586,-0.19244385,-0.7859497,-0.375,-0.828125,0.140625
1696254421909,0.50341797,-0.19366455,-0.78326416,-0.1875,-0.671875,0.25
1696254421950,0.4987793,-0.19073486,-0.772522,-0.421875,-0.96875,0.28125
1696254421989,0.5090332,-0.1987915,-0.7810669,-0.28125,-1.0,0.09375
1696254422028,0.50097656,-0.1963501,-0.77423096,-0.15625,-0.828125,0.046875
1696254422048,0.49951172,-0.19732666,-0.77471924,-0.296875,-0.953125,0.15625
1696254422089,0.5048828,-0.19342041,-0.7803345,0.0625,-0.390625,0.171875
1696254422172,0.50561523,-0.19268799,-0.78302,-0.296875,-0.609375,0.09375
1696254422178,0.5004883,-0.19659424,-0.7842407,-0.140625,-0.78125,0.171875
1696254422249,0.50097656,-0.20684814,-0.7842407,-0.15625,-0.421875,-0.03125
1696254422252,0.5029297,-0.19927979,-0.78131104,-0.265625,-0.4375,0.015625
1696254422288,0.49853516,-0.19488525,-0.78253174,-0.109375,-0.53125,0.015625
1696254422330,0.5070801,-0.19708252,-0.78302,-0.21875,-0.671875,0.15625
1696254422368,0.5065918,-0.19732666,-0.7842407,-0.25,-0.515625,0.296875
1696254422411,0.5029297,-0.1963501,-0.78375244,-0.40625,-0.90625,0.109375
1696254422447,0.5048828,-0.20245361,-0.7781372,-0.390625,-0.78125,0.109375
1696254422489,0.50341797,-0.19708252,-0.78131104,-0.15625,-0.734375,0.234375
1696254422528,0.5058594,-0.19732666,-0.77471924,-0.390625,-0.5,0.109375
1696254422568,0.5007324,-0.19659424,-0.7739868,-0.265625,-0.765625,0.3125
1696254422610,0.50683594,-0.19952393,-0.77130127,-0.328125,-0.609375,0.046875
1696254422650,0.50634766,-0.20269775,-0.77838135,-0.375,-0.609375,-0.078125
1696254422710,0.50219727,-0.19683838,-0.7737427,-0.25,-0.609375,0.28125
1696254422749,0.50390625,-0.20123291,-0.7815552,-0.265625,-0.671875,0.125
1696254422767,0.51123047,-0.19317627,-0.78204346,-0.0625,-0.4375,0.125
1696254422810,0.5048828,-0.20440674,-0.7842407,-0.203125,-0.578125,0.203125
1696254422851,0.5119629,-0.20391846,-0.7810669,-0.0625,-0.53125,0.15625
1696254422911,0.50634766,-0.2000122,-0.7781372,-0.03125,-0.5625,0.171875
1696254422928,0.5107422,-0.19927979,-0.7781372,-0.28125,-0.640625,0.125
1696254422969,0.5041504,-0.20147705,-0.77716064,-0.171875,-0.59375,0.21875
1696254423011,0.50927734,-0.20220947,-0.7756958,-0.140625,-0.6875,0.234375
1696254423048,0.501709,-0.19781494,-0.7822876,-0.3125,-0.921875,0.25
1696254423090,0.51904297,-0.1987915,-0.7854614,-0.21875,-0.84375,0.15625
1696254423133,0.5109863,-0.20220947,-0.7737427,-0.140625,-0.546875,0.34375
1696254423170,0.5085449,-0.2000122,-0.7764282,-0.125,-0.34375,0.15625
1696254423210,0.5083008,-0.20220947,-0.772522,-0.203125,-0.671875,0.125
1696254423247,0.5107422,-0.19561768,-0.769104,-0.03125,-0.578125,0.1875
1696254423289,0.5083008,-0.19805908,-0.78009033,-0.15625,-0.53125,0.109375
1696254423351,0.5107422,-0.20220947,-0.78082275,-0.15625,-0.46875,0.125
1696254423367,0.5175781,-0.20269775,-0.78131104,-0.125,-0.546875,0.171875
1696254423388,0.51342773,-0.20245361,-0.78375244,-0.40625,-0.6875,0.09375
1696254423429,0.5126953,-0.20611572,-0.7764282,-0.3125,-0.703125,0.296875
1696254423470,0.51586914,-0.19927979,-0.7774048,-0.46875,-0.46875,0.078125
1696254423508,0.515625,-0.20611572,-0.7737427,-0.25,-0.65625,0.046875
1696254423549,0.5102539,-0.2000122,-0.7737427,-0.0625,-0.640625,0.03125
1696254423588,0.5095215,-0.20098877,-0.77789307,-0.1875,-0.640625,0.25
1696254423631,0.5175781,-0.20074463,-0.77593994,-0.265625,-1.234375,0.0
1696254423670,0.5180664,-0.2041626,-0.7600708,-0.359375,-1.203125,0.1875
1696254423710,0.51831055,-0.20245361,-0.78082275,-0.421875,-0.75,-0.015625
1696254423748,0.51293945,-0.20709229,-0.7617798,-0.3125,-0.765625,0.0
1696254423790,0.5163574,-0.20074463,-0.7737427,-0.703125,-0.8125,0.015625
1696254423832,0.5136719,-0.20709229,-0.77056885,-0.296875,-0.828125,0.171875
1696254423868,0.51416016,-0.21002197,-0.76885986,-0.234375,-0.640625,0.125
1696254423911,0.5227051,-0.20196533,-0.76934814,-0.171875,-0.4375,0.34375
1696254423949,0.5161133,-0.2029419,-0.77301025,-0.09375,-0.21875,0.21875
1696254423989,0.517334,-0.20465088,-0.7776489,-0.21875,-0.234375,0.125
1696254424033,0.51660156,-0.20245361,-0.7786255,-0.21875,-0.515625,0.0
1696254424068,0.5161133,-0.20489502,-0.772522,-0.0625,-0.375,0.125
1696254424108,0.515625,-0.20489502,-0.76812744,-0.109375,-0.375,0.3125
1696254424148,0.5090332,-0.19976807,-0.76763916,-0.203125,-0.609375,0.125
1696254424190,0.5148926,-0.20343018,-0.77593994,-0.03125,-0.640625,0.25
1696254424229,0.51220703,-0.2000122,-0.7698364,0.125,-0.640625,0.25
1696254424271,0.5136719,-0.20196533,-0.7786255,-0.09375,-0.59375,0.28125
1696254424309,0.5131836,-0.20025635,-0.77960205,0.421875,-1.3125,0.3125
1696254424350,0.5180664,-0.2078247,-0.772522,0.703125,-1.1875,0.46875
1696254424391,0.5239258,-0.2029419,-0.77545166,0.171875,-1.984375,0.375
1696254424430,0.51831055,-0.19659424,-0.7559204,-0.4375,-1.109375,0.328125
1696254424466,0.51831055,-0.2029419,-0.7695923,-0.59375,-0.328125,-0.046875
1696254424508,0.51953125,-0.206604,-0.77130127,-0.5,0.0,0.15625
1696254424549,0.5209961,-0.20196533,-0.767395,-0.078125,-0.203125,0.09375
1696254424588,0.51831055,-0.20367432,-0.76519775,0.125,-0.53125,0.34375
1696254424628,0.52001953,-0.20074463,-0.7727661,0.015625,-0.8125,0.21875
1696254424667,0.513916,-0.206604,-0.772522,0.078125,-1.3125,0.265625
1696254424689,0.51660156,-0.2041626,-0.7612915,-0.03125,-1.609375,0.328125
1696254424731,0.5344238,-0.20709229,-0.7852173,-0.96875,-1.609375,-0.046875
1696254424768,0.5358887,-0.206604,-0.7683716,-1.015625,-1.203125,-0.1875
1696254424809,0.529541,-0.20269775,-0.7678833,-0.765625,-0.859375,-0.359375
1696254424849,0.52124023,-0.20684814,-0.76104736,-0.78125,0.28125,-0.234375
1696254424889,0.5161133,-0.20733643,-0.76885986,-0.21875,0.046875,0.359375
1696254424929,0.5222168,-0.21417236,-0.76568604,0.046875,-0.640625,0.46875
1696254424968,0.5263672,-0.2131958,-0.77301025,0.109375,-0.5,0.4375
1696254425011,0.5217285,-0.20758057,-0.76812744,0.171875,-0.359375,0.125
1696254425050,0.52490234,-0.20977783,-0.7632446,-0.15625,0.015625,0.15625
1696254425090,0.52197266,-0.20855713,-0.76641846,-0.015625,-0.015625,0.203125
1696254425129,0.5180664,-0.2078247,-0.76348877,0.34375,-0.40625,0.375
1696254425169,0.52368164,-0.20928955,-0.7698364,0.515625,-0.21875,0.515625
1696254425209,0.5192871,-0.20391846,-0.77716064,0.265625,0.03125,0.53125
1696254425250,0.5253906,-0.20489502,-0.767395,0.09375,-0.09375,0.3125
1696254425289,0.5222168,-0.20172119,-0.7686157,0.15625,-0.125,0.1875
1696254425331,0.5192871,-0.20733643,-0.78009033,-0.140625,-0.34375,0.046875
1696254425369,0.5270996,-0.20758057,-0.7803345,-0.15625,-0.609375,0.109375
1696254425409,0.5214844,-0.20587158,-0.7710571,-0.546875,-0.4375,0.171875
1696254425451,0.5234375,-0.20709229,-0.7810669,-0.53125,-0.1875,0.109375
1696254425489,0.51831055,-0.19830322,-0.76568604,-0.578125,0.3125,-0.046875
1696254425529,0.5180664,-0.20806885,-0.75909424,-0.515625,0.96875,-0.140625
1696254425570,0.52075195,-0.21026611,-0.7637329,0.90625,1.75,0.234375
1696254425610,0.5085449,-0.2000122,-0.767395,1.234375,1.875,0.21875
1696254425650,0.50439453,-0.19976807,-0.7710571,0.8125,3.25,0.03125
1696254425688,0.51123047,-0.20318604,-0.77593994,0.90625,4.40625,-0.203125
1696254425728,0.5029297,-0.20440674,-0.800354,0.0,5.484375,-0.71875
1696254425770,0.48535156,-0.19952393,-0.7896118,-0.078125,3.28125,-0.640625
1696254425809,0.48266602,-0.19976807,-0.79034424,-0.390625,1.296875,-0.578125
1696254425847,0.48266602,-0.19830322,-0.7893677,0.140625,-0.546875,-0.03125
1696254425889,0.4790039,-0.20318604,-0.7888794,-0.28125,-2.40625,0.4375
1696254425930,0.5012207,-0.19732666,-0.7876587,-0.03125,-3.40625,0.453125
1696254425972,0.49389648,-0.20709229,-0.788147,0.0,-3.234375,0.71875
1696254425987,0.49853516,-0.20098877,-0.77838135,0.09375,-2.203125,0.515625
1696254426029,0.5048828,-0.20391846,-0.7776489,-0.296875,-1.828125,0.203125
1696254426070,0.50512695,-0.2053833,-0.76763916,-0.171875,-0.734375,0.21875
1696254426108,0.50268555,-0.20269775,-0.7744751,0.03125,0.4375,0.296875
1696254426150,0.50390625,-0.19830322,-0.7727661,0.234375,0.390625,0.21875
1696254426189,0.5031738,-0.19805908,-0.77911377,0.390625,1.046875,0.203125
1696254426252,0.4987793,-0.19976807,-0.7732544,0.640625,1.484375,0.21875
1696254426268,0.49023438,-0.20391846,-0.78131104,0.3125,0.75,0.15625
1696254426310,0.48608398,-0.20489502,-0.7888794,0.203125,0.234375,0.296875
1696254426349,0.5024414,-0.20269775,-0.7901001,0.296875,-0.34375,0.34375
1696254426389,0.49169922,-0.19683838,-0.7959595,0.0625,-0.890625,0.390625
1696254426430,0.49829102,-0.19073486,-0.79107666,0.03125,-0.8125,0.28125
1696254426471,0.5004883,-0.20220947,-0.7876587,-0.125,-0.421875,0.203125
1696254426527,0.4963379,-0.20465088,-0.7893677,-0.1875,-0.640625,0.0625
1696254426547,0.4987793,-0.20245361,-0.79229736,-0.03125,-0.25,0.28125
1696254426608,0.49658203,-0.2029419,-0.78570557,0.078125,-0.15625,0.109375
1696254426628,0.4975586,-0.2029419,-0.78497314,-0.046875,-0.109375,0.15625
1696254426669,0.49169922,-0.19952393,-0.78692627,0.1875,-0.25,0.09375
1696254426709,0.4909668,-0.19439697,-0.7842407,-0.125,-0.734375,0.1875
1696254426749,0.4946289,-0.20245361,-0.7798462,-0.078125,-0.796875,0.171875
1696254426788,0.49780273,-0.19610596,-0.7822876,-0.40625,-0.734375,0.078125
1696254426830,0.4975586,-0.1987915,-0.7871704,-0.390625,-0.703125,0.171875
1696254426890,0.49316406,-0.20147705,-0.770813,-0.234375,-0.71875,0.171875
1696254426930,0.49951172,-0.2029419,-0.7852173,0.015625,-0.625,0.234375
1696254426948,0.49560547,-0.1963501,-0.7876587,-0.078125,-0.421875,0.140625
1696254426988,0.50341797,-0.19976807,-0.78302,-0.046875,-0.453125,0.15625
1696254427028,0.50268555,-0.20391846,-0.7732544,0.046875,-0.03125,0.078125
1696254427088,0.49804688,-0.19952393,-0.7883911,0.0625,-0.078125,0.296875
1696254427128,0.5024414,-0.1963501,-0.7974243,-0.328125,-0.390625,0.09375
1696254427148,0.4885254,-0.19610596,-0.77838135,0.640625,-0.078125,0.46875
1696254427188,0.48754883,-0.19171143,-0.76348877,0.140625,-1.296875,0.609375
1696254427229,0.5004883,-0.1951294,-0.7827759,-0.765625,-1.6875,0.15625
1696254427268,0.51293945,-0.19830322,-0.80352783,-1.546875,-2.1875,-0.515625
1696254427309,0.5046387,-0.20440674,-0.7798462,-1.078125,-2.640625,-0.15625
1696254427328,0.50512695,-0.20391846,-0.77716064,-0.578125,-2.609375,-0.03125
1696254427372,0.50756836,-0.20684814,-0.77911377,-0.734375,-1.546875,0.15625
1696254427410,0.51904297,-0.20489502,-0.7810669,-0.078125,-0.609375,0.25
1696254427449,0.5048828,-0.2053833,-0.7810669,0.015625,-0.21875,0.328125
1696254427491,0.5090332,-0.20513916,-0.78131104,-0.03125,-0.328125,0.25
1696254427528,0.51171875,-0.19927979,-0.7817993,-0.296875,-0.5,0.015625
1696254427570,0.50561523,-0.20172119,-0.784729,-0.203125,-0.78125,0.234375
1696254427609,0.5126953,-0.20562744,-0.7839966,-0.125,-0.5625,0.015625
1696254427651,0.51123047,-0.20343018,-0.78204346,0.0,-0.578125,0.25
1696254427689,0.50927734,-0.20562744,-0.77178955,-0.546875,-0.546875,0.046875
1696254427730,0.5053711,-0.20465088,-0.76446533,-0.34375,-0.453125,0.140625
1696254427767,0.5061035,-0.20489502,-0.7671509,0.203125,0.078125,0.40625
1696254427807,0.5070801,-0.20172119,-0.78790283,0.203125,-0.4375,0.546875
1696254427849,0.5109863,-0.19610596,-0.7793579,-0.140625,-0.453125,0.21875
1696254427889,0.5126953,-0.20196533,-0.78082275,-0.28125,-0.265625,0.078125
1696254427932,0.50756836,-0.20147705,-0.78131104,-0.203125,-0.375,0.09375
1696254427971,0.5102539,-0.19952393,-0.7749634,0.0,-0.21875,0.21875
1696254428009,0.5065918,-0.20489502,-0.76885986,0.046875,-0.359375,0.296875
1696254428052,0.50512695,-0.20172119,-0.77423096,-0.03125,-0.3125,0.03125
1696254428115,0.51220703,-0.20172119,-0.7842407,0.015625,-0.1875,0.1875
1696254428126,0.5107422,-0.20489502,-0.7756958,0.1875,0.578125,0.078125
1696254428171,0.4987793,-0.20123291,-0.7654419,0.640625,1.4375,0.078125
1696254428208,0.50512695,-0.20391846,-0.7954712,0.578125,1.78125,-0.0625
1696254428248,0.50683594,-0.20050049,-0.7839966,0.5,1.734375,-0.1875
1696254428291,0.4970703,-0.19708252,-0.77838135,0.609375,2.140625,-0.25
1696254428329,0.49658203,-0.19927979,-0.78619385,0.5625,1.9375,-0.21875
1696254428370,0.48339844,-0.2029419,-0.7942505,0.140625,1.984375,-0.28125
1696254428408,0.4880371,-0.19659424,-0.798645,0.0625,1.0625,-0.34375
1696254428449,0.48339844,-0.19683838,-0.788147,0.109375,0.171875,0.078125
1696254428490,0.484375,-0.2000122,-0.7888794,0.09375,-0.59375,0.015625
1696254428529,0.48339844,-0.19000244,-0.7932739,-0.453125,-1.890625,0.1875
1696254428569,0.48535156,-0.19830322,-0.7942505,-0.1875,-3.21875,0.546875
1696254428610,0.49438477,-0.19390869,-0.7764282,0.28125,-3.03125,0.703125
1696254428648,0.49560547,-0.19830322,-0.7854614,0.0625,-1.46875,0.375
1696254428688,0.5058594,-0.1987915,-0.7827759,-0.3125,-0.875,0.09375
1696254428729,0.5031738,-0.19439697,-0.77838135,-0.015625,-0.109375,0.21875
1696254428770,0.50341797,-0.20220947,-0.79229736,-0.125,0.109375,0.203125
1696254428788,0.5019531,-0.19659424,-0.7852173,0.0,-0.046875,0.28125
1696254428830,0.49389648,-0.1963501,-0.7859497,0.1875,0.109375,0.390625
1696254428869,0.4946289,-0.20050049,-0.7842407,-0.125,-0.5,0.15625
1696254428908,0.5036621,-0.19293213,-0.78985596,-0.125,-0.4375,0.125
1696254428949,0.5019531,-0.19293213,-0.79937744,-0.28125,-0.828125,0.109375
1696254428989,0.501709,-0.19732666,-0.79693604,-0.03125,-0.875,0.234375
1696254429028,0.49804688,-0.19708252,-0.7930298,-0.3125,-0.453125,0.234375
1696254429068,0.49780273,-0.19244385,-0.7803345,-0.109375,-0.6875,0.125
1696254429110,0.49609375,-0.19366455,-0.78009033,-0.09375,-0.6875,0.09375
1696254429170,0.49902344,-0.20098877,-0.77911377,-0.328125,-0.875,0.21875
1696254429188,0.4963379,-0.1963501,-0.77423096,-0.328125,-0.703125,0.0
1696254429249,0.4975586,-0.19439697,-0.78741455,-0.21875,-0.515625,0.125
1696254429269,0.49975586,-0.19415283,-0.7871704,-0.5625,-0.59375,0.0
1696254429311,0.49658203,-0.19659424,-0.76812744,-0.28125,-0.84375,0.140625
1696254429350,0.49804688,-0.1987915,-0.788147,-0.390625,-0.484375,0.09375
1696254429392,0.4970703,-0.19439697,-0.77545166,-0.34375,-0.75,0.25
1696254429449,0.4987793,-0.1987915,-0.7744751,-0.34375,-0.546875,0.21875
1696254429467,0.49365234,-0.19683838,-0.7744751,-0.03125,-0.546875,0.3125
1696254429530,0.50805664,-0.19586182,-0.7822876,-0.125,-0.5,0.234375
1696254429548,0.5019531,-0.20025635,-0.7788696,-0.40625,-0.765625,0.0
1696254429589,0.49536133,-0.20318604,-0.7752075,-0.375,-0.796875,0.125
1696254429629,0.5019531,-0.19830322,-0.77911377,-0.328125,-0.890625,0.0625
1696254429668,0.501709,-0.19976807,-0.7769165,-0.578125,-0.984375,0.09375
1696254429709,0.50390625,-0.20440674,-0.7817993,-0.328125,-1.28125,0.28125
1696254429750,0.5058594,-0.1987915,-0.7798462,-0.25,-0.90625,0.1875
1696254429791,0.5053711,-0.19683838,-0.7774048,-0.28125,-0.953125,0.1875
1696254429829,0.50146484,-0.20513916,-0.78448486,-0.359375,-0.625,0.109375
1696254429890,0.51049805,-0.20343018,-0.77130127,-0.203125,-0.484375,0.09375
1696254429907,0.50756836,-0.20245361,-0.7764282,-0.15625,-0.453125,0.25
1696254429930,0.50634766,-0.19610596,-0.77838135,-0.265625,-0.65625,0.234375
1696254429971,0.5046387,-0.20025635,-0.77130127,-0.25,-0.90625,0.21875
1696254430009,0.5053711,-0.20025635,-0.77349854,-0.40625,-1.28125,0.109375
1696254430050,0.52246094,-0.20367432,-0.7803345,-0.484375,-1.171875,0.078125
1696254430089,0.51123047,-0.20831299,-0.7720337,-0.609375,-0.75,0.171875
1696254430127,0.5102539,-0.20855713,-0.76763916,-0.515625,-0.484375,0.09375
1696254430169,0.50439453,-0.20928955,-0.77056885,-0.171875,0.0,0.125
1696254430210,0.50756836,-0.20220947,-0.77471924,-0.03125,-0.296875,0.203125
1696254430248,0.5168457,-0.20465088,-0.78253174,-0.046875,-0.46875,0.40625
1696254430289,0.5029297,-0.20318604,-0.7647095,-0.078125,-0.625,0.328125
1696254430354,0.5109863,-0.20172119,-0.7761841,-0.078125,-0.671875,0.28125
1696254430367,0.5144043,-0.20343018,-0.7852173,-0.15625,-0.453125,0.125
1696254430411,0.5078125,-0.20587158,-0.77471924,-0.15625,-0.453125,0.0
1696254430452,0.5097656,-0.21173096,-0.77838135,-0.15625,-0.078125,0.140625
1696254430492,0.51220703,-0.20562744,-0.78009033,0.0625,-0.15625,0.15625
1696254430528,0.5136719,-0.20367432,-0.77471924,0.03125,-0.28125,0.15625
1696254430570,0.5046387,-0.2029419,-0.7752075,0.078125,-0.21875,0.265625
1696254430610,0.51049805,-0.2029419,-0.78375244,-0.171875,-0.328125,0.203125
1696254430652,0.5073242,-0.20074463,-0.77545166,0.21875,-0.375,0.25
1696254430688,0.51708984,-0.20831299,-0.78912354,-0.03125,-0.328125,0.234375
1696254430728,0.5078125,-0.20025635,-0.7815552,0.046875,-0.484375,0.15625
1696254430769,0.5107422,-0.20147705,-0.7727661,-0.046875,0.09375,0.21875
1696254430810,0.5031738,-0.2029419,-0.7710571,-0.046875,0.5625,0.09375
1696254430849,0.49438477,-0.20489502,-0.76275635,0.828125,1.59375,0.125
1696254430889,0.5041504,-0.20831299,-0.77911377,1.140625,2.078125,0.265625
1696254430929,0.49951172,-0.19708252,-0.78863525,1.109375,2.75,0.0625
1696254430969,0.4963379,-0.19830322,-0.7908325,1.125,2.625,-0.125
1696254431010,0.4909668,-0.20050049,-0.78448486,0.875,2.84375,-0.296875
1696254431048,0.48413086,-0.2029419,-0.8098755,0.109375,2.0,-0.421875
1696254431089,0.4873047,-0.19146729,-0.7905884,-0.234375,1.03125,-0.578125
1696254431130,0.47631836,-0.20123291,-0.7888794,0.15625,0.65625,-0.1875
1696254431169,0.47875977,-0.19586182,-0.7905884,0.234375,0.078125,0.0625
1696254431211,0.47998047,-0.19244385,-0.7908325,-0.28125,-0.734375,0.125
1696254431248,0.48535156,-0.19561768,-0.7920532,-0.484375,-1.671875,0.078125
1696254431269,0.48535156,-0.1987915,-0.798645,0.125,-2.6875,0.4375
1696254431331,0.47998047,-0.1963501,-0.7810669,0.34375,-2.828125,0.765625
1696254431349,0.49169922,-0.19073486,-0.7817993,0.265625,-2.109375,0.625
1696254431389,0.50390625,-0.19952393,-0.79522705,0.046875,-1.046875,0.234375
1696254431430,0.49365234,-0.19488525,-0.7930298,-0.046875,-0.3125,0.1875
1696254431491,0.50146484,-0.19537354,-0.7901001,-0.1875,-0.1875,0.203125
1696254431509,0.49438477,-0.19683838,-0.78692627,-0.21875,-0.421875,0.140625
1696254431548,0.4873047,-0.1987915,-0.7822876,-0.015625,-0.15625,0.25
1696254431610,0.49243164,-0.19122314,-0.77789307,0.0,-0.4375,0.25
1696254431628,0.4946289,-0.19342041,-0.78131104,-0.28125,-0.609375,0.1875
1696254431670,0.4975586,-0.20123291,-0.7896118,-0.25,-0.84375,0.203125
1696254431709,0.4963379,-0.18829346,-0.79571533,-0.515625,-1.296875,0.21875
1696254431748,0.49731445,-0.19244385,-0.786438,-0.421875,-1.75,0.21875
1696254431788,0.5007324,-0.19830322,-0.77789307,-0.21875,-1.0,0.3125
1696254431831,0.49926758,-0.19537354,-0.78204346,-0.09375,-0.796875,0.203125
1696254431871,0.49291992,-0.19659424,-0.76519775,0.28125,-0.640625,0.375
1696254431911,0.5029297,-0.1921997,-0.79156494,0.203125,-0.515625,0.203125
1696254431973,0.50341797,-0.19439697,-0.79229736,0.1875,-1.078125,0.40625
1696254431990,0.51049805,-0.20172119,-0.7984009,0.015625,-0.578125,0.375
1696254432030,0.5004883,-0.19781494,-0.78253174,-0.0625,-0.296875,0.203125
1696254432069,0.4987793,-0.19293213,-0.7822876,-0.09375,-0.34375,0.046875
1696254432111,0.5007324,-0.1987915,-0.7761841,0.109375,-0.1875,0.171875
1696254432147,0.4909668,-0.19342041,-0.77911377,0.328125,-0.25,0.46875
1696254432189,0.49853516,-0.19537354,-0.7788696,0.484375,-1.0,0.59375
1696254432250,0.5048828,-0.19854736,-0.78863525,0.375,-1.234375,0.609375
1696254432290,0.5119629,-0.1897583,-0.79156494,0.09375,-0.609375,0.34375
1696254432330,0.51049805,-0.1873169,-0.78912354,-0.921875,-0.890625,-0.109375
1696254432347,0.49926758,-0.1963501,-0.76641846,-1.203125,-0.734375,-0.046875
1696254432388,0.50439453,-0.19122314,-0.786438,-0.640625,-1.46875,0.125
1696254432429,0.50268555,-0.19293213,-0.77838135,-0.4375,-1.640625,0.296875
1696254432468,0.51049805,-0.19586182,-0.7798462,-0.46875,-0.671875,0.15625
1696254432509,0.50097656,-0.19195557,-0.770813,-0.078125,-0.625,0.015625
1696254432569,0.51000977,-0.19781494,-0.78131104,-0.140625,-0.484375,0.25
1696254432589,0.5107422,-0.19415283,-0.788147,-0.171875,-0.046875,-0.03125
1696254432608,0.50561523,-0.19561768,-0.7793579,-0.1875,-0.140625,0.125
1696254432648,0.51171875,-0.19927979,-0.7798462,-0.1875,-0.578125,0.328125
1696254432688,0.5085449,-0.18902588,-0.7739868,-0.0625,-0.53125,0.296875
1696254432728,0.51416016,-0.20050049,-0.7786255,-0.234375,-0.34375,0.125
1696254432771,0.5024414,-0.19976807,-0.7749634,-0.390625,-0.671875,0.03125
1696254432807,0.51000977,-0.19439697,-0.7781372,-0.296875,-0.46875,0.1875
1696254432849,0.5019531,-0.19073486,-0.7686157,-0.09375,-0.640625,0.375
1696254432888,0.5161133,-0.19390869,-0.7827759,0.171875,-0.53125,0.3125
1696254432929,0.50756836,-0.19439697,-0.78204346,-0.15625,-0.453125,0.21875
1696254432969,0.5046387,-0.19903564,-0.7698364,-0.125,-0.578125,0.15625
1696254433009,0.5085449,-0.19952393,-0.7756958,-0.1875,-0.609375,0.109375
1696254433050,0.5119629,-0.19805908,-0.7839966,-0.203125,-0.640625,0.125
1696254433088,0.5102539,-0.19293213,-0.7803345,-0.28125,-0.75,-0.046875
1696254433130,0.51416016,-0.2000122,-0.78253174,-0.75,-1.09375,0.125
1696254433169,0.5119629,-0.20196533,-0.7876587,-1.359375,-1.84375,-0.25
1696254433210,0.51586914,-0.19415283,-0.77130127,-0.84375,-2.046875,-0.109375
1696254433249,0.5151367,-0.1975708,-0.7710571,-0.6875,-1.28125,0.140625
1696254433290,0.51831055,-0.19854736,-0.7642212,-0.359375,-0.75,0.171875
1696254433330,0.51538086,-0.20123291,-0.769104,-0.109375,-0.46875,0.1875
1696254433371,0.5192871,-0.19390869,-0.7788696,0.078125,0.203125,0.09375
1696254433409,0.5114746,-0.19488525,-0.7781372,-0.359375,-0.328125,0.03125
1696254433448,0.51904297,-0.2041626,-0.7810669,-0.734375,-1.046875,0.046875
1696254433489,0.51953125,-0.20220947,-0.78326416,-0.40625,-1.046875,0.046875
1696254433529,0.5144043,-0.20855713,-0.7764282,-0.53125,-0.9375,0.234375
1696254433570,0.51464844,-0.19903564,-0.7686157,-0.265625,-0.53125,0.125
1696254433609,0.51000977,-0.20391846,-0.7581177,-0.15625,-0.265625,0.171875
1696254433649,0.513916,-0.20465088,-0.7695923,0.09375,-0.484375,0.296875
1696254433689,0.51904297,-0.20367432,-0.7715454,-0.1875,-0.65625,0.265625
1696254433729,0.5258789,-0.2078247,-0.7732544,-0.28125,-0.75,0.078125
1696254433768,0.5175781,-0.20513916,-0.77178955,-0.5,-0.609375,0.0625
1696254433809,0.5266113,-0.19439697,-0.7752075,-0.3125,-0.609375,0.15625
1696254433868,0.5136719,-0.20733643,-0.77227783,-0.625,-0.359375,-0.015625
1696254433888,0.5234375,-0.2041626,-0.76763916,-0.484375,-0.6875,0.125
1696254433908,0.51538086,-0.21002197,-0.7715454,-0.171875,-0.84375,0.140625
1696254433952,0.5180664,-0.206604,-0.767395,-0.03125,-0.4375,0.234375
1696254433988,0.52001953,-0.20709229,-0.77056885,-0.171875,-0.671875,0.171875
1696254434031,0.52319336,-0.20196533,-0.76641846,-0.03125,-0.5625,0.15625
1696254434070,0.5202637,-0.20220947,-0.77301025,-0.328125,-0.53125,0.203125
1696254434109,0.51708984,-0.20440674,-0.76226807,-0.328125,-0.46875,0.078125
1696254434152,0.5217285,-0.2000122,-0.7703247,-0.421875,-0.578125,0.109375
1696254434211,0.5187988,-0.21124268,-0.7612915,-0.3125,-0.421875,0.203125
1696254434228,0.5229492,-0.20587158,-0.770813,-0.203125,-0.734375,0.21875
1696254434269,0.5192871,-0.20220947,-0.7647095,-0.09375,-0.59375,0.328125
1696254434308,0.5217285,-0.19830322,-0.7769165,-0.125,-0.609375,0.203125
1696254434351,0.5124512,-0.20318604,-0.7620239,0.03125,-0.640625,0.078125
1696254434389,0.5180664,-0.20196533,-0.76519775,-0.234375,-0.546875,0.109375
1696254434450,0.52075195,-0.20635986,-0.7698364,-0.203125,-0.453125,0.140625
1696254434467,0.515625,-0.21026611,-0.7737427,0.046875,-0.375,0.21875
1696254434531,0.52319336,-0.20684814,-0.7761841,-0.109375,-0.453125,0.28125
1696254434569,0.5229492,-0.20318604,-0.77545166,0.046875,-0.59375,0.234375
1696254434588,0.5280762,-0.20440674,-0.7744751,-0.0625,-0.390625,0.1875
1696254434650,0.5187988,-0.2041626,-0.7739868,-0.09375,-0.203125,0.171875
1696254434669,0.515625,-0.20220947,-0.76690674,-0.171875,-0.3125,0.125
1696254434709,0.52001953,-0.21246338,-0.77178955,-0.171875,-0.578125,0.140625
1696254434750,0.52246094,-0.21148682,-0.75738525,0.078125,-0.078125,0.203125
1696254434789,0.51464844,-0.20880127,-0.7727661,-0.171875,-0.28125,0.28125
1696254434828,0.5187988,-0.20269775,-0.7739868,-0.0625,-0.53125,0.21875
1696254434869,0.52368164,-0.21124268,-0.7654419,-0.234375,-0.421875,0.171875
1696254434909,0.51660156,-0.20513916,-0.7749634,0.0625,-0.40625,0.265625
1696254434969,0.5192871,-0.20831299,-0.7654419,0.03125,-0.46875,0.34375
1696254434987,0.5197754,-0.20831299,-0.7654419,-0.15625,-0.296875,0.25
1696254435051,0.5163574,-0.20391846,-0.7774048,-0.078125,-0.484375,0.21875
1696254435069,0.5205078,-0.20318604,-0.77301025,0.015625,-0.78125,0.09375
1696254435131,0.52319336,-0.20831299,-0.769104,-0.15625,-1.359375,0.203125
1696254435147,0.52368164,-0.21221924,-0.76153564,-0.28125,-1.046875,0.0
1696254435191,0.5258789,-0.20733643,-0.75738525,-0.21875,-0.46875,0.28125
1696254435207,0.5175781,-0.21026611,-0.7666626,-0.0625,-0.234375,0.265625
1696254435250,0.52368164,-0.1975708,-0.77227783,-0.21875,-0.484375,0.140625
1696254435289,0.5161133,-0.20269775,-0.77227783,-0.109375,-0.890625,0.0625
1696254435328,0.5205078,-0.20928955,-0.7678833,-0.390625,-0.9375,-0.015625
1696254435369,0.5251465,-0.21173096,-0.7632446,-0.5,-0.484375,0.0
1696254435408,0.5227051,-0.21051025,-0.77227783,-0.359375,-0.40625,0.203125
1696254435451,0.5205078,-0.2107544,-0.75567627,-0.40625,-0.484375,0.1875
1696254435489,0.52075195,-0.20758057,-0.7625122,0.015625,-0.5,0.125
1696254435530,0.5241699,-0.20928955,-0.76763916,-0.1875,-0.71875,0.265625
1696254435570,0.52124023,-0.21539307,-0.76446533,-0.109375,-0.734375,0.25
1696254435608,0.5258789,-0.2053833,-0.767395,-0.125,-0.59375,0.140625
1696254435649,0.5239258,-0.20880127,-0.77423096,-0.140625,-0.34375,0.203125
1696254435691,0.5305176,-0.2107544,-0.7608032,-0.109375,-0.09375,0.234375
1696254435729,0.5161133,-0.20562744,-0.76568604,-0.109375,-0.234375,0.03125
1696254435770,0.52246094,-0.20758057,-0.77545166,-0.109375,-0.671875,0.171875
1696254435808,0.5258789,-0.21685791,-0.7642212,-0.203125,-0.515625,0.15625
1696254435849,0.52319336,-0.20977783,-0.7703247,-0.125,-0.78125,0.0625
1696254435889,0.53125,-0.20977783,-0.76934814,-0.171875,-0.71875,0.265625
1696254435930,0.5217285,-0.21514893,-0.7600708,0.046875,-0.3125,0.15625
1696254435969,0.5266113,-0.20635986,-0.76934814,-0.125,-0.359375,0.203125
1696254436009,0.5209961,-0.20831299,-0.7642212,-0.28125,-0.25,0.15625
1696254436049,0.5239258,-0.20367432,-0.7678833,-0.171875,0.015625,0.21875
1696254436090,0.52075195,-0.21124268,-0.77301025,0.109375,0.203125,0.0625
1696254436129,0.52246094,-0.21710205,-0.767395,0.125,1.0,0.0625
1696254436171,0.5205078,-0.20928955,-0.76275635,0.828125,1.46875,0.25
1696254436213,0.5148926,-0.21343994,-0.7703247,1.28125,1.484375,0.3125
1696254436251,0.5185547,-0.2041626,-0.7710571,1.421875,2.0,0.03125
1696254436292,0.5131836,-0.20489502,-0.78497314,1.078125,2.21875,-0.015625
1696254436331,0.50341797,-0.2029419,-0.7739868,0.484375,2.046875,-0.1875
1696254436371,0.50268555,-0.19732666,-0.7788696,0.3125,2.78125,-0.265625
1696254436407,0.4951172,-0.20074463,-0.7920532,-0.203125,1.828125,-0.40625
1696254436450,0.5019531,-0.1987915,-0.7852173,-0.296875,0.5625,-0.234375
1696254436509,0.4975586,-0.19732666,-0.7798462,-0.25,0.09375,-0.1875
1696254436530,0.4963379,-0.20220947,-0.7810669,-0.25,-0.953125,0.109375
1696254436548,0.50024414,-0.20562744,-0.7793579,-0.421875,-2.234375,0.15625
1696254436612,0.5024414,-0.20880127,-0.7803345,-0.203125,-2.96875,0.796875
1696254436649,0.5048828,-0.20343018,-0.77301025,0.265625,-2.421875,0.71875
1696254436688,0.5168457,-0.20196533,-0.7752075,0.140625,-1.328125,0.328125
1696254436707,0.515625,-0.2131958,-0.7854614,-0.125,-0.296875,0.03125
1696254436749,0.51220703,-0.20367432,-0.78863525,-0.34375,0.046875,0.09375
1696254436790,0.5048828,-0.21124268,-0.770813,0.0625,0.03125,0.25
1696254436829,0.5048828,-0.19586182,-0.77911377,-0.09375,-0.15625,0.21875
1696254436871,0.50219727,-0.19830322,-0.7671509,0.015625,-0.1875,0.25
1696254436911,0.5073242,-0.20074463,-0.77130127,0.046875,-0.359375,0.234375
1696254436950,0.51123047,-0.20196533,-0.77838135,0.0625,-0.28125,0.328125
1696254436991,0.5078125,-0.19927979,-0.7871704,-0.15625,-0.4375,0.234375
1696254437031,0.5058594,-0.20928955,-0.7817993,0.015625,-0.609375,0.234375
1696254437068,0.50341797,-0.20733643,-0.7752075,-0.109375,-0.421875,0.1875
1696254437109,0.5095215,-0.2029419,-0.7737427,-0.078125,-0.484375,0.34375
1696254437190,0.5036621,-0.2053833,-0.770813,-0.078125,-0.3125,0.296875
1696254437193,0.51123047,-0.20025635,-0.78009033,0.078125,-0.34375,0.171875
1696254437229,0.5031738,-0.1987915,-0.78741455,0.03125,-0.21875,0.109375
1696254437269,0.51171875,-0.21002197,-0.7805786,-0.015625,-0.25,0.1875
1696254437309,0.51000977,-0.20025635,-0.7756958,-0.203125,-0.109375,0.203125
1696254437350,0.5065918,-0.19952393,-0.7744751,0.0625,-0.3125,0.3125
1696254437389,0.5073242,-0.19464111,-0.76885986,-0.09375,-0.375,0.234375
1696254437450,0.5065918,-0.20098877,-0.7788696,0.0625,-0.4375,0.265625
1696254437468,0.5085449,-0.20245361,-0.7871704,0.0625,-0.390625,0.171875
1696254437507,0.50561523,-0.19561768,-0.7786255,-0.1875,-0.4375,0.078125
1696254437571,0.5046387,-0.19683838,-0.78204346,-0.25,-0.53125,0.109375
1696254437587,0.50219727,-0.1987915,-0.77911377,-0.109375,-0.375,0.140625
1696254437631,0.5036621,-0.19927979,-0.7776489,0.046875,-0.40625,0.125
1696254437670,0.5029297,-0.20172119,-0.7769165,-0.265625,-0.515625,0.25
1696254437709,0.49682617,-0.20684814,-0.7781372,-0.125,-0.703125,0.078125
1696254437749,0.513916,-0.1963501,-0.78253174,-0.109375,-0.59375,0.125
1696254437792,0.51049805,-0.20172119,-0.77471924,0.015625,-0.609375,0.109375
1696254437829,0.5083008,-0.20343018,-0.7817993,-0.140625,-0.390625,0.25
1696254437847,0.5061035,-0.20172119,-0.7739868,-0.109375,-0.53125,0.171875
1696254437892,0.5095215,-0.19903564,-0.7764282,-0.15625,-0.6875,0.09375
1696254437930,0.51538086,-0.20367432,-0.77911377,-0.234375,-0.421875,0.140625
1696254437970,0.5083008,-0.20245361,-0.7737427,-0.125,-0.5,0.265625
1696254438008,0.5095215,-0.20123291,-0.77545166,-0.21875,-0.265625,0.140625
1696254438050,0.50439453,-0.20245361,-0.7727661,-0.09375,-0.609375,0.3125
1696254438091,0.50878906,-0.20074463,-0.7827759,-0.109375,-0.4375,-0.03125
1696254438131,0.501709,-0.20513916,-0.7749634,-0.171875,-0.609375,0.03125
1696254438169,0.5024414,-0.20147705,-0.7710571,-0.09375,-0.703125,0.1875
1696254438209,0.5078125,-0.1987915,-0.76934814,0.15625,-0.921875,0.125
1696254438249,0.51171875,-0.1987915,-0.7756958,-0.09375,-1.0,0.09375
1696254438290,0.51123047,-0.1951294,-0.7752075,-0.359375,-1.09375,0.0
1696254438330,0.50756836,-0.20098877,-0.7756958,-0.46875,-1.203125,0.03125
1696254438369,0.5161133,-0.20513916,-0.77227783,-0.234375,-0.953125,0.078125
1696254438410,0.5168457,-0.20025635,-0.77838135,-0.359375,-0.5625,0.21875
1696254438450,0.51000977,-0.20050049,-0.76568604,-0.1875,-0.109375,0.171875
1696254438491,0.5107422,-0.20489502,-0.7737427,-0.28125,-0.328125,0.21875
1696254438530,0.5095215,-0.20758057,-0.76104736,-0.125,-0.4375,0.1875
1696254438570,0.513916,-0.2053833,-0.76763916,-0.078125,-0.515625,0.078125
1696254438608,0.5083008,-0.20172119,-0.7695923,-0.359375,-0.625,0.078125
1696254438650,0.51049805,-0.19927979,-0.7739868,-0.234375,-0.5625,0.203125
1696254438689,0.5187988,-0.20855713,-0.7710571,0.015625,-0.546875,0.328125
1696254438729,0.51342773,-0.19390869,-0.77349854,0.046875,-0.625,0.046875
1696254438792,0.5124512,-0.19927979,-0.7698364,-0.140625,-0.859375,0.125
1696254438809,0.5097656,-0.20343018,-0.77471924,-0.15625,-0.828125,0.109375
1696254438848,0.5148926,-0.20928955,-0.77789307,-0.296875,-0.953125,0.046875
1696254438890,0.5187988,-0.20440674,-0.7737427,-0.4375,-0.859375,0.046875
1696254438929,0.51538086,-0.2053833,-0.7637329,-0.296875,-0.734375,0.15625
1696254438969,0.51416016,-0.20318604,-0.77130127,-0.15625,-0.40625,0.25
1696254439010,0.51416016,-0.2107544,-0.7683716,-0.03125,-0.546875,0.203125
1696254439049,0.5202637,-0.20587158,-0.769104,0.03125,-0.359375,0.140625
1696254439091,0.51660156,-0.21002197,-0.77423096,-0.03125,-0.484375,0.140625
1696254439152,0.5222168,-0.2029419,-0.7764282,-0.3125,-0.53125,0.125
1696254439156,0.5090332,-0.20684814,-0.77423096,-0.328125,-0.421875,0.125
1696254439190,0.50927734,-0.20196533,-0.7654419,-0.203125,-0.3125,0.140625
1696254439270,0.52124023,-0.206604,-0.7761841,-0.09375,-0.640625,0.09375
1696254439273,0.5197754,-0.20806885,-0.76763916,-0.25,-0.46875,0.140625
1696254439310,0.51464844,-0.21246338,-0.77178955,-0.234375,-0.265625,0.140625
1696254439371,0.5185547,-0.20855713,-0.7683716,-0.1875,-0.453125,0.171875
1696254439388,0.51708984,-0.20733643,-0.7678833,0.078125,-0.46875,0.328125
1696254439428,0.5168457,-0.20391846,-0.7715454,-0.046875,-0.375,0.140625
1696254439491,0.5187988,-0.2041626,-0.769104,-0.0625,-0.5,0.109375
1696254439531,0.5205078,-0.20196533,-0.7752075,-0.234375,-0.71875,0.265625
1696254439549,0.51586914,-0.20391846,-0.7756958,-0.25,-0.578125,0.125
1696254439609,0.52124023,-0.20709229,-0.76763916,-0.171875,-0.640625,0.171875
1696254439627,0.51293945,-0.20440674,-0.7686157,-0.171875,-0.546875,0.015625
1696254439690,0.5151367,-0.20245361,-0.7756958,-0.140625,-0.609375,0.078125
1696254439708,0.52319336,-0.20098877,-0.78009033,-0.203125,-0.65625,0.0625
1696254439750,0.513916,-0.2107544,-0.7695923,-0.28125,-0.34375,0.3125
1696254439790,0.51660156,-0.21002197,-0.76226807,0.078125,-0.359375,0.171875
1696254439827,0.5187988,-0.20269775,-0.77227783,-0.046875,-0.453125,0.140625
1696254439870,0.5175781,-0.20855713,-0.770813,-0.140625,-0.3125,0.203125
1696254439909,0.5114746,-0.20611572,-0.7810669,-0.03125,-0.390625,0.359375
1696254439948,0.5205078,-0.20367432,-0.77056885,-0.171875,-0.609375,0.125
1696254439989,0.51464844,-0.20806885,-0.7727661,-0.171875,-0.359375,0.171875
1696254440029,0.513916,-0.206604,-0.767395,-0.09375,-0.578125,0.125
1696254440069,0.52368164,-0.2078247,-0.77301025,-0.15625,-0.65625,0.234375
1696254440109,0.5185547,-0.20709229,-0.76568604,-0.09375,-0.453125,0.203125
1696254440149,0.5222168,-0.20635986,-0.77423096,-0.046875,-0.6875,0.03125
1696254440188,0.51831055,-0.20562744,-0.7683716,-0.28125,-0.953125,0.109375
1696254440230,0.5180664,-0.21002197,-0.7744751,-0.71875,-0.71875,0.03125
1696254440269,0.5227051,-0.20611572,-0.7649536,-0.671875,-0.34375,0.078125
1696254440311,0.5239258,-0.20611572,-0.76446533,-0.21875,0.109375,0.15625
1696254440370,0.52197266,-0.20196533,-0.7661743,-0.203125,-0.078125,-0.0625
1696254440388,0.5161133,-0.20880127,-0.7815552,-0.0625,-0.28125,-0.015625
1696254440450,0.51586914,-0.2078247,-0.7715454,-0.015625,-0.46875,0.078125
1696254440468,0.5217285,-0.20855713,-0.7764282,-0.3125,-0.75,0.25
1696254440488,0.51708984,-0.21124268,-0.75909424,-0.34375,-0.703125,0.125
1696254440530,0.5239258,-0.20806885,-0.7798462,-0.203125,-0.9375,0.109375
1696254440570,0.52197266,-0.20928955,-0.7683716,-0.21875,-0.6875,0.09375
1696254440613,0.5241699,-0.20684814,-0.7752075,-0.453125,-0.53125,-0.09375
1696254440649,0.51660156,-0.22003174,-0.75909424,-0.15625,-0.328125,0.171875
1696254440689,0.5192871,-0.21466064,-0.7661743,-0.0625,-0.375,0.328125
1696254440731,0.51831055,-0.2107544,-0.76934814,0.109375,-0.734375,0.203125
1696254440769,0.5187988,-0.21026611,-0.76104736,-0.09375,-0.40625,0.21875
1696254440809,0.5197754,-0.21490479,-0.7695923,-0.125,-0.1875,0.15625
1696254440848,0.51220703,-0.21173096,-0.7744751,-0.15625,-0.5625,0.203125
1696254440889,0.5217285,-0.21270752,-0.7739868,-0.109375,-0.34375,0.390625
1696254440929,0.51538086,-0.20953369,-0.7698364,-0.078125,-0.296875,0.125
1696254440969,0.51904297,-0.21539307,-0.76275635,-0.21875,-0.5625,0.21875
1696254441010,0.51904297,-0.20758057,-0.76397705,-0.03125,-0.75,0.140625
1696254441050,0.51586914,-0.20855713,-0.76519775,0.171875,-0.421875,0.234375
1696254441089,0.5227051,-0.21368408,-0.7612915,-0.0625,-0.546875,0.21875
1696254441130,0.5263672,-0.21539307,-0.7683716,-0.21875,-0.5,0.28125
1696254441169,0.52612305,-0.21099854,-0.7642212,-0.078125,-0.421875,0.21875
1696254441212,0.5175781,-0.21539307,-0.77667236,-0.265625,-0.265625,0.09375
1696254441249,0.51953125,-0.21392822,-0.76397705,0.234375,0.171875,0.34375
1696254441289,0.51538086,-0.21051025,-0.76275635,0.25,0.71875,0.296875
1696254441331,0.51953125,-0.21148682,-0.770813,0.390625,1.59375,0.265625
1696254441369,0.51586914,-0.20709229,-0.7720337,1.546875,1.609375,0.5625
1696254441409,0.50927734,-0.2053833,-0.77838135,1.15625,1.859375,0.21875
1696254441449,0.5031738,-0.20733643,-0.786438,0.8125,1.859375,-0.03125
1696254441488,0.4970703,-0.20513916,-0.76885986,0.671875,1.6875,-0.03125
1696254441531,0.5061035,-0.19854736,-0.7715454,0.578125,1.90625,-0.15625
1696254441570,0.5029297,-0.20074463,-0.78302,0.6875,2.75,-0.25
1696254441609,0.49316406,-0.20343018,-0.78570557,0.4375,2.8125,-0.296875
1696254441650,0.49169922,-0.20343018,-0.7925415,0.03125,1.515625,-0.5
1696254441689,0.48608398,-0.20513916,-0.78692627,-0.0625,0.484375,-0.203125
1696254441729,0.48486328,-0.19854736,-0.7852173,0.078125,-0.40625,-0.015625
1696254441770,0.49487305,-0.2053833,-0.7949829,-0.390625,-1.421875,0.1875
1696254441790,0.48583984,-0.20196533,-0.78082275,0.46875,-2.4375,0.640625
1696254441849,0.4868164,-0.19244385,-0.7764282,0.640625,-2.25,0.75
1696254441869,0.49731445,-0.19146729,-0.78326416,0.234375,-1.671875,0.375
1696254441932,0.49804688,-0.19439697,-0.78497314,-0.234375,-0.828125,0.0625
1696254441949,0.5061035,-0.19683838,-0.788147,0.0,-0.09375,0.25
1696254441989,0.49536133,-0.1987915,-0.7896118,0.09375,-0.046875,0.234375
1696254442030,0.4987793,-0.19805908,-0.788147,-0.34375,-0.09375,0.140625
1696254442071,0.48999023,-0.19439697,-0.77227783,0.015625,-0.03125,0.3125
1696254442111,0.4897461,-0.19708252,-0.7793579,0.0,-0.125,0.28125
1696254442149,0.49560547,-0.20147705,-0.7788696,0.140625,-0.359375,0.25
1696254442189,0.49951172,-0.19830322,-0.79107666,0.296875,-0.328125,0.203125
1696254442232,0.4975586,-0.19830322,-0.79693604,-0.0625,-0.921875,0.125
1696254442291,0.49682617,-0.19854736,-0.79278564,-0.390625,-0.984375,0.109375
1696254442308,0.49804688,-0.19805908,-0.7788696,-0.640625,-0.609375,-0.171875
1696254442370,0.49389648,-0.19732666,-0.7810669,-0.46875,-0.609375,0.046875
1696254442388,0.50024414,-0.20147705,-0.7739868,-0.265625,-0.625,0.109375
1696254442451,0.49560547,-0.20440674,-0.78497314,-0.09375,-0.546875,0.171875
1696254442472,0.50390625,-0.19439697,-0.79107666,0.109375,-0.5625,0.15625
1696254442509,0.5029297,-0.19708252,-0.78375244,0.1875,-0.359375,0.3125
1696254442550,0.5012207,-0.19976807,-0.78790283,0.046875,-0.375,0.234375
1696254442590,0.49731445,-0.20147705,-0.7727661,-0.0625,-0.125,0.0625
1696254442628,0.49047852,-0.19903564,-0.7776489,0.078125,0.0,0.1875
1696254442668,0.49951172,-0.19342041,-0.784729,0.21875,-0.09375,0.25
1696254442710,0.50512695,-0.20050049,-0.7842407,0.046875,-0.296875,-0.03125
1696254442749,0.4963379,-0.19586182,-0.7966919,0.078125,-0.5,0.078125
1696254442789,0.50146484,-0.19342041,-0.78009033,-0.125,-0.640625,0.171875
1696254442829,0.49438477,-0.19561768,-0.78131104,-0.484375,-0.984375,0.125
1696254442869,0.5031738,-0.19952393,-0.7835083,-0.34375,-1.234375,0.125
1696254442910,0.4970703,-0.19439697,-0.7815552,-0.328125,-1.84375,0.078125
1696254442968,0.5070801,-0.20172119,-0.78009033,-1.0,-2.046875,-0.15625
1696254442992,0.50097656,-0.20245361,-0.7793579,-1.25,-2.078125,-0.15625
1696254443027,0.5085449,-0.21270752,-0.78009033,-0.78125,-1.390625,-0.046875
1696254443087,0.51708984,-0.20025635,-0.7752075,-0.671875,-1.171875,0.1875
1696254443089,0.50756836,-0.20318604,-0.7727661,-0.4375,-0.53125,0.21875
1696254443128,0.50341797,-0.20465088,-0.7744751,-0.125,-0.015625,0.296875
1696254443168,0.5102539,-0.206604,-0.7798462,-0.234375,-0.71875,0.140625
1696254443207,0.5073242,-0.20367432,-0.7852173,-0.03125,-0.671875,0.265625
1696254443247,0.50561523,-0.20465088,-0.7805786,0.078125,-0.703125,0.21875
1696254443287,0.51000977,-0.20709229,-0.7788696,-0.171875,-1.109375,0.140625
1696254443330,0.5070801,-0.20318604,-0.7710571,-0.5,-1.46875,0.109375
1696254443369,0.5136719,-0.20489502,-0.7720337,-0.453125,-1.265625,0.078125
1696254443410,0.513916,-0.20684814,-0.7659302,-0.28125,-1.171875,0.28125
1696254443451,0.5131836,-0.20684814,-0.772522,-0.046875,-1.125,0.0
1696254443491,0.5136719,-0.20196533,-0.7798462,-0.171875,-0.578125,0.140625
1696254443531,0.51342773,-0.20513916,-0.77423096,-0.234375,-0.15625,0.28125
1696254443572,0.5097656,-0.20318604,-0.77423096,-0.25,-0.03125,0.09375
1696254443610,0.5124512,-0.20587158,-0.772522,-0.09375,-0.15625,0.15625
1696254443649,0.50756836,-0.20147705,-0.7715454,0.03125,-0.53125,0.390625
1696254443695,0.5163574,-0.20147705,-0.7727661,-0.21875,-0.703125,-0.015625
1696254443730,0.50756836,-0.21221924,-0.7732544,-0.34375,-0.953125,-0.046875
1696254443769,0.51831055,-0.2053833,-0.78863525,-0.84375,-1.28125,-0.125
1696254443813,0.5205078,-0.20733643,-0.76568604,-0.71875,-1.25,0.234375
1696254443850,0.5119629,-0.2119751,-0.7625122,-0.28125,-1.296875,0.609375
1696254443888,0.5205078,-0.2000122,-0.77130127,-0.265625,-0.984375,0.0625
1696254443931,0.52563477,-0.20611572,-0.7774048,-0.25,-0.4375,0.125
1696254443968,0.5126953,-0.20465088,-0.7703247,-0.1875,-0.234375,0.09375
1696254444010,0.5136719,-0.20855713,-0.77789307,0.015625,-0.515625,0.0625
1696254444052,0.5187988,-0.19805908,-0.77056885,-0.03125,-0.453125,0.171875
1696254444092,0.52075195,-0.20440674,-0.7786255,-0.078125,-0.359375,0.078125
1696254444129,0.5107422,-0.2078247,-0.7776489,-0.125,-0.453125,0.046875
1696254444169,0.5126953,-0.2131958,-0.76519775,-0.046875,-0.921875,0.078125
1696254444210,0.5161133,-0.2041626,-0.7678833,-0.078125,-0.71875,0.296875
1696254444252,0.51953125,-0.20880127,-0.7720337,-0.25,-0.671875,0.234375
1696254444290,0.5251465,-0.21270752,-0.7703247,-0.390625,-0.328125,0.0
1696254444330,0.5095215,-0.20880127,-0.7683716,-0.0625,-0.1875,0.0625
1696254444391,0.51831055,-0.20928955,-0.7620239,0.0625,-0.25,0.296875
1696254444407,0.5136719,-0.20611572,-0.7632446,0.015625,-0.515625,0.203125
1696254444428,0.52001953,-0.20635986,-0.7642212,0.0,-0.90625,0.34375
1696254444489,0.51708984,-0.21392822,-0.7727661,0.0,-0.71875,0.28125
1696254444507,0.5161133,-0.20489502,-0.76519775,0.078125,-0.828125,0.375
1696254444548,0.51708984,-0.21124268,-0.76519775,-0.03125,-0.734375,0.359375
1696254444589,0.5180664,-0.2156372,-0.769104,-0.28125,-0.625,-0.09375
1696254444649,0.52124023,-0.20977783,-0.76641846,-0.1875,-0.578125,0.0
1696254444668,0.5136719,-0.21759033,-0.7564087,0.0,-0.6875,0.296875
1696254444709,0.5239258,-0.21148682,-0.7798462,-0.0625,-0.4375,0.421875
1696254444769,0.52124023,-0.21002197,-0.7720337,0.1875,-0.21875,0.375
1696254444789,0.5280762,-0.20367432,-0.7798462,-0.125,-0.296875,0.25
1696254444830,0.5253906,-0.20806885,-0.77056885,-0.46875,-1.140625,-0.21875
1696254444889,0.5168457,-0.20806885,-0.7642212,-0.53125,-0.5,-0.21875
1696254444909,0.51953125,-0.20831299,-0.76934814,-0.375,-0.140625,0.078125
1696254444951,0.5148926,-0.21832275,-0.76226807,-0.3125,-0.53125,0.171875
1696254444989,0.5151367,-0.20318604,-0.77301025,-0.078125,-0.609375,0.328125
1696254445030,0.52197266,-0.21099854,-0.7617798,0.09375,-0.546875,0.296875
1696254445070,0.51831055,-0.21221924,-0.7720337,0.03125,-0.6875,0.140625
1696254445109,0.5205078,-0.20928955,-0.76885986,-0.046875,-0.28125,0.109375
1696254445150,0.52368164,-0.21661377,-0.7625122,-0.15625,-0.40625,0.234375
1696254445212,0.5209961,-0.2078247,-0.7671509,-0.03125,-0.1875,0.1875
1696254445229,0.5114746,-0.21002197,-0.7671509,-0.046875,-0.546875,0.15625
1696254445269,0.5239258,-0.21026611,-0.7720337,-0.265625,-0.5625,0.171875
1696254445330,0.5175781,-0.2119751,-0.7642212,-0.125,-0.546875,0.3125
1696254445351,0.5217285,-0.21490479,-0.7686157,-0.140625,-0.78125,0.203125
1696254445390,0.5205078,-0.20977783,-0.76763916,0.09375,-0.546875,0.484375
1696254445430,0.52319336,-0.21295166,-0.7786255,-0.078125,-0.28125,0.21875
1696254445469,0.5202637,-0.20953369,-0.76690674,-0.03125,-0.328125,0.046875
1696254445510,0.5151367,-0.20831299,-0.7678833,0.09375,-0.34375,0.140625
1696254445552,0.51708984,-0.20733643,-0.76690674,-0.203125,-0.78125,0.296875
1696254445589,0.51538086,-0.21343994,-0.7571411,-0.109375,-1.421875,0.125
1696254445630,0.5239258,-0.20928955,-0.7764282,-0.59375,-2.515625,0.03125
1696254445671,0.5317383,-0.21173096,-0.77008057,-1.046875,-2.1875,0.03125
1696254445708,0.529541,-0.2107544,-0.75738525,-1.03125,-1.703125,-0.078125
1696254445729,0.52856445,-0.21734619,-0.7583618,-0.796875,-1.8125,-0.09375
1696254445769,0.52978516,-0.21124268,-0.75567627,-1.0625,-1.78125,-0.28125
1696254445810,0.5300293,-0.22247314,-0.7632446,-0.765625,-1.734375,0.03125
1696254445850,0.5361328,-0.21466064,-0.7595825,-0.703125,-1.046875,0.1875
1696254445889,0.532959,-0.21490479,-0.7481079,-0.453125,-0.71875,0.0625
1696254445930,0.5383301,-0.21832275,-0.7554321,-0.640625,-0.390625,0.1875
1696254445969,0.5344238,-0.21734619,-0.75445557,-0.390625,-0.421875,0.0625
1696254446009,0.5246582,-0.22125244,-0.7583618,0.109375,-0.140625,0.3125
1696254446050,0.52856445,-0.21807861,-0.76031494,0.109375,-0.53125,0.296875
1696254446089,0.5319824,-0.2210083,-0.76397705,-0.15625,-0.359375,0.28125
1696254446130,0.5307617,-0.21099854,-0.7588501,0.0625,-0.171875,0.21875
1696254446172,0.52783203,-0.22271729,-0.74591064,-0.21875,-0.46875,0.125
1696254446209,0.5341797,-0.21832275,-0.7554321,-0.296875,-0.0625,0.0625
1696254446250,0.52685547,-0.21783447,-0.7559204,-0.140625,0.015625,0.203125
1696254446288,0.529541,-0.22027588,-0.7612915,0.390625,-0.015625,0.40625
1696254446352,0.5332031,-0.21417236,-0.76275635,0.046875,-0.453125,0.28125
1696254446368,0.5317383,-0.21905518,-0.7620239,0.015625,-0.625,0.328125
1696254446409,0.5283203,-0.2156372,-0.76226807,-0.046875,-0.375,0.203125
1696254446451,0.5307617,-0.2210083,-0.75860596,-0.078125,-0.203125,0.203125
1696254446488,0.5288086,-0.22125244,-0.76568604,-0.0625,-0.046875,0.15625
1696254446530,0.5324707,-0.21466064,-0.7647095,-0.046875,-0.125,0.328125
1696254446570,0.5270996,-0.21759033,-0.7539673,0.046875,0.171875,0.28125
1696254446610,0.5205078,-0.21343994,-0.7539673,0.046875,0.828125,0.15625
1696254446648,0.52490234,-0.21539307,-0.7617798,-0.765625,1.359375,0.09375
1696254446694,0.5227051,-0.22027588,-0.76690674,-0.390625,0.6875,0.09375
1696254446730,0.5227051,-0.22247314,-0.75665283,0.84375,1.0,0.375
1696254446772,0.51416016,-0.22027588,-0.7583618,1.640625,1.984375,0.34375
1696254446811,0.51831055,-0.21588135,-0.76519775,1.59375,2.046875,0.359375
1696254446850,0.51000977,-0.21343994,-0.76885986,1.109375,1.640625,-0.015625
1696254446890,0.50927734,-0.20977783,-0.77227783,0.75,1.375,-0.09375
1696254446930,0.5095215,-0.21026611,-0.7839966,-0.15625,0.796875,-0.1875
1696254446971,0.50805664,-0.21759033,-0.7781372,-1.078125,-0.125,-0.359375
1696254447009,0.50683594,-0.21124268,-0.77545166,-1.28125,-0.59375,-0.625
1696254447029,0.5131836,-0.20831299,-0.7756958,-1.125,-0.234375,-0.5
1696254447090,0.51293945,-0.21954346,-0.77471924,-0.921875,-0.796875,-0.484375
1696254447108,0.5058594,-0.22442627,-0.76519775,0.15625,-1.59375,0.5
1696254447149,0.5012207,-0.21588135,-0.77349854,0.609375,-2.375,0.875
1696254447189,0.5095215,-0.21099854,-0.7654419,0.796875,-1.734375,0.921875
1696254447231,0.5202637,-0.21734619,-0.767395,0.21875,-1.4375,0.390625
1696254447272,0.51708984,-0.21514893,-0.7756958,0.125,-0.40625,0.375
1696254447311,0.5119629,-0.21417236,-0.75982666,0.328125,0.0625,0.65625
1696254447371,0.5163574,-0.2131958,-0.76885986,0.140625,0.109375,0.34375
1696254447388,0.51220703,-0.2107544,-0.7666626,0.015625,-0.046875,0.234375
1696254447431,0.50561523,-0.21124268,-0.76519775,0.09375,0.015625,0.3125
1696254447473,0.51831055,-0.2156372,-0.76446533,0.109375,-0.140625,0.265625
1696254447508,0.51293945,-0.21417236,-0.7732544,0.203125,-0.265625,0.21875
1696254447573,0.5083008,-0.20758057,-0.77178955,0.046875,-0.34375,0.28125
1696254447588,0.5192871,-0.20684814,-0.7866821,-0.0625,-0.375,0.140625
1696254447630,0.5163574,-0.21051025,-0.77130127,-0.3125,-0.03125,-0.15625
1696254447670,0.50512695,-0.21661377,-0.7737427,-0.0625,-0.109375,-0.09375
1696254447731,0.5083008,-0.20733643,-0.7612915,0.171875,-0.078125,0.3125
1696254447749,0.5061035,-0.21661377,-0.7739868,0.171875,-0.421875,0.375
1696254447790,0.5073242,-0.20733643,-0.767395,-0.125,-0.53125,0.3125
1696254447831,0.5151367,-0.20806885,-0.77008057,-0.15625,-0.515625,0.25
1696254447870,0.50512695,-0.20977783,-0.7695923,-0.3125,-0.578125,0.21875
1696254447907,0.5180664,-0.21099854,-0.76763916,0.0,-0.375,-0.109375
1696254447950,0.515625,-0.21539307,-0.7776489,-0.375,0.046875,0.03125
1696254447992,0.49926758,-0.21124268,-0.76446533,-0.03125,0.0,0.125
1696254448030,0.51416016,-0.21759033,-0.7761841,-0.03125,-0.359375,0.3125
1696254448068,0.5119629,-0.21051025,-0.7749634,-0.09375,-0.828125,0.328125
1696254448131,0.5161133,-0.20440674,-0.77227783,-0.078125,-0.703125,0.0625
1696254448147,0.5083008,-0.20977783,-0.77471924,-0.265625,-0.75,0.046875
1696254448190,0.51904297,-0.20928955,-0.78009033,-0.140625,-0.71875,0.125
1696254448251,0.50683594,-0.2144165,-0.77545166,-0.125,-0.53125,0.109375
1696254448268,0.51293945,-0.2107544,-0.7703247,-0.3125,-0.5,0.21875
1696254448331,0.51293945,-0.21124268,-0.7612915,-0.09375,-0.625,0.171875
1696254448348,0.5126953,-0.21392822,-0.77056885,-0.109375,-0.515625,0.234375
1696254448371,0.5083008,-0.21759033,-0.7698364,-0.09375,-0.484375,0.1875
1696254448409,0.5109863,-0.21295166,-0.7678833,0.046875,-0.53125,0.203125
1696254448449,0.5187988,-0.2119751,-0.7810669,-0.171875,-0.640625,0.203125
1696254448491,0.51220703,-0.20709229,-0.7776489,-0.203125,-0.671875,0.265625
1696254448532,0.51293945,-0.21295166,-0.77178955,-0.171875,-0.75,0.328125
1696254448569,0.5114746,-0.21270752,-0.769104,-0.125,-0.625,0.109375
1696254448609,0.5175781,-0.21002197,-0.7732544,0.015625,-0.859375,0.1875
1696254448652,0.51220703,-0.20684814,-0.7695923,0.09375,-0.828125,0.203125
1696254448689,0.52563477,-0.20953369,-0.770813,-0.265625,-1.1875,0.046875
1696254448729,0.5148926,-0.21051025,-0.7620239,-0.375,-0.765625,-0.09375
1696254448770,0.51586914,-0.21099854,-0.7715454,-0.015625,-0.640625,0.109375
1696254448808,0.5185547,-0.20806885,-0.76641846,-0.25,-0.765625,0.140625
1696254448850,0.51708984,-0.21832275,-0.7625122,-0.140625,-0.46875,0.046875
1696254448889,0.51782227,-0.21295166,-0.76397705,-0.03125,-0.5625,0.34375
1696254448930,0.51464844,-0.21392822,-0.7620239,0.234375,-0.484375,0.25
1696254448968,0.5253906,-0.2107544,-0.7761841,-0.3125,-0.796875,0.0625
1696254449011,0.5227051,-0.21295166,-0.76812744,-0.171875,-0.78125,-0.046875
1696254449049,0.517334,-0.21661377,-0.7649536,-0.171875,-0.671875,0.046875
1696254449089,0.51293945,-0.21246338,-0.76031494,-0.125,-0.421875,0.359375
1696254449129,0.5102539,-0.20953369,-0.7698364,0.0625,-0.859375,0.234375
1696254449169,0.52612305,-0.21221924,-0.76446533,-0.09375,-0.796875,0.125
1696254449210,0.517334,-0.21270752,-0.76885986,-0.40625,-1.328125,0.0625
1696254449250,0.51831055,-0.20831299,-0.78009033,-0.796875,-1.390625,-0.09375
1696254449290,0.52441406,-0.2107544,-0.769104,-0.4375,-1.125,0.34375
1696254449330,0.52783203,-0.21246338,-0.76348877,-0.09375,-0.34375,0.46875
1696254449372,0.52124023,-0.2156372,-0.7588501,0.0625,-0.1875,0.171875
1696254449411,0.517334,-0.21588135,-0.76641846,0.078125,-0.03125,0.171875
1696254449449,0.5292969,-0.21002197,-0.7769165,-0.171875,0.125,0.046875
1696254449489,0.5168457,-0.2156372,-0.76690674,-0.046875,-0.140625,0.09375
1696254449529,0.5197754,-0.21710205,-0.7625122,-0.015625,-0.296875,0.25
1696254449569,0.5209961,-0.21270752,-0.77545166,-0.140625,-0.46875,0.109375
1696254449611,0.5185547,-0.21710205,-0.7647095,-0.3125,-0.546875,-0.03125
1696254449673,0.5227051,-0.21417236,-0.7593384,-0.078125,-0.75,0.015625
1696254449688,0.52246094,-0.21929932,-0.7620239,0.078125,-0.3125,0.109375
1696254449709,0.52441406,-0.21612549,-0.7727661,0.0625,-0.390625,0.1875
1696254449748,0.5168457,-0.21417236,-0.76763916,0.015625,-0.1875,0.09375
1696254449810,0.52734375,-0.21295166,-0.7654419,-0.078125,-0.328125,0.328125
1696254449828,0.5234375,-0.2131958,-0.7686157,0.09375,-0.40625,0.28125
1696254449870,0.51904297,-0.21221924,-0.7647095,-0.046875,-0.40625,0.125
1696254449929,0.51904297,-0.21246338,-0.76446533,-0.03125,-0.609375,0.3125
1696254449968,0.5161133,-0.2078247,-0.7593384,-0.046875,-0.6875,0.296875
1696254450009,0.5253906,-0.2131958,-0.76934814,0.15625,-0.40625,0.265625
1696254450028,0.5227051,-0.20709229,-0.77349854,-0.0625,-0.421875,0.171875
1696254450070,0.5222168,-0.21881104,-0.7715454,-0.125,-0.34375,0.09375
1696254450110,0.5217285,-0.2119751,-0.75738525,-0.03125,-0.4375,0.296875
1696254450150,0.51660156,-0.20758057,-0.7666626,-0.203125,-0.34375,0.1875
1696254450190,0.51660156,-0.21514893,-0.76226807,-0.328125,-0.671875,0.09375
1696254450230,0.51831055,-0.2156372,-0.7625122,-0.109375,-0.734375,0.140625
1696254450269,0.52124023,-0.21734619,-0.7612915,-0.046875,-0.890625,0.15625
1696254450309,0.5258789,-0.21588135,-0.76812744,-0.46875,-0.65625,0.140625
1696254450351,0.5324707,-0.22198486,-0.76641846,-0.40625,-0.5,-0.09375
1696254450411,0.52124023,-0.21368408,-0.7630005,-0.265625,-0.390625,0.046875
1696254450429,0.5168457,-0.21002197,-0.7593384,-0.03125,-0.453125,0.234375
1696254450490,0.52734375,-0.21343994,-0.76934814,-0.140625,-0.5625,0.3125
1696254450508,0.52685547,-0.2029419,-0.77008057,-0.078125,-0.34375,0.203125
1696254450572,0.5144043,-0.20758057,-0.7605591,-0.15625,-0.484375,0.234375
1696254450588,0.5185547,-0.21685791,-0.7632446,-0.28125,-0.546875,-0.078125
1696254450653,0.5234375,-0.21783447,-0.7647095,-0.546875,-1.09375,-0.015625
1696254450670,0.52197266,-0.21514893,-0.7600708,-0.40625,-0.875,0.171875
1696254450709,0.5222168,-0.20709229,-0.756897,-0.375,-0.8125,0.1875
1696254450751,0.5214844,-0.22491455,-0.76397705,-0.484375,-0.546875,-0.078125
1696254450788,0.5209961,-0.21466064,-0.7595825,-0.453125,-0.84375,0.171875
1696254450832,0.5192871,-0.21588135,-0.7583618,-0.3125,-0.828125,0.140625
1696254450869,0.52612305,-0.22271729,-0.7630005,-0.328125,-0.546875,0.25
1696254450909,0.52612305,-0.21881104,-0.76446533,-0.140625,-0.828125,0.171875
1696254451012,0.52685547,-0.21661377,-0.77545166,-0.328125,-0.5625,0.046875
1696254451016,0.52490234,-0.21929932,-0.75177,-0.15625,-0.828125,-0.015625
1696254451019,0.5324707,-0.21392822,-0.7546997,-0.25,-0.734375,0.15625
1696254451050,0.52783203,-0.21783447,-0.75567627,-0.03125,-0.5,0.265625
1696254451090,0.52685547,-0.22174072,-0.7654419,-0.296875,-0.15625,-0.03125
1696254451132,0.52490234,-0.21539307,-0.7678833,-0.140625,-0.390625,0.0625
1696254451168,0.52856445,-0.22076416,-0.75738525,0.0,-0.640625,0.109375
1696254451210,0.5229492,-0.22149658,-0.76275635,-0.109375,-0.546875,0.234375
1696254451250,0.5307617,-0.21173096,-0.76568604,-0.234375,-0.625,0.125
1696254451289,0.52441406,-0.22198486,-0.76519775,-0.078125,-0.671875,0.5
1696254451330,0.52563477,-0.21759033,-0.7595825,-0.125,-0.734375,0.234375
1696254451371,0.5280762,-0.21539307,-0.75616455,-0.15625,-0.59375,0.09375
1696254451409,0.5241699,-0.21636963,-0.7522583,0.125,-0.375,0.28125
1696254451449,0.5283203,-0.21490479,-0.76104736,-0.140625,-0.234375,0.09375
1696254451490,0.53393555,-0.21881104,-0.77471924,-0.21875,-0.140625,-0.015625
1696254451529,0.5214844,-0.21612549,-0.7595825,0.140625,-0.3125,0.296875
1696254451569,0.5217285,-0.21685791,-0.76348877,-0.015625,-0.390625,0.21875
1696254451613,0.5292969,-0.21490479,-0.76641846,-0.15625,-0.546875,0.265625
1696254451649,0.5292969,-0.21661377,-0.76348877,0.296875,-0.75,0.40625
1696254451690,0.5275879,-0.21783447,-0.7608032,0.265625,-0.734375,0.46875
1696254451749,0.5336914,-0.21710205,-0.7632446,0.171875,-0.140625,0.328125
1696254451768,0.5292969,-0.21832275,-0.7620239,0.203125,-0.09375,0.28125
1696254451811,0.53564453,-0.21466064,-0.7564087,0.078125,0.1875,0.0625
1696254451850,0.5222168,-0.21734619,-0.7654419,0.21875,0.515625,0.078125
1696254451890,0.5222168,-0.21246338,-0.7605591,0.453125,0.875,0.3125
1696254451930,0.52001953,-0.21099854,-0.76934814,-0.1875,0.984375,0.328125
1696254451970,0.5168457,-0.21124268,-0.76104736,0.375,0.4375,0.078125
1696254452011,0.5180664,-0.21539307,-0.7617798,0.40625,0.453125,0.203125
1696254452050,0.5107422,-0.21173096,-0.7649536,0.453125,0.328125,0.15625
1696254452091,0.5126953,-0.21246338,-0.76763916,0.75,0.5,0.203125
1696254452132,0.51904297,-0.20318604,-0.7710571,0.375,0.390625,0.125
1696254452169,0.5095215,-0.20806885,-0.7698364,0.296875,0.171875,0.28125
1696254452211,0.5114746,-0.20928955,-0.770813,0.390625,0.453125,0.109375
1696254452249,0.51782227,-0.20684814,-0.77008057,0.484375,0.515625,0.46875
