# Sensor type: Respeck
# Activity type: Lying down on left
# Activity subtype: Laughing
# Subject id: s2106809
# Notes: unprocessed
timestamp,accel_x,accel_y,accel_z,gyro_x,gyro_y,gyro_z
1696254056375,-0.45825195,-0.11090088,-0.8567505,-0.546875,-0.75,0.171875
1696254056437,-0.45898438,-0.109680176,-0.85894775,-0.359375,-0.484375,0.28125
1696254056475,-0.45239258,-0.113586426,-0.8521118,-0.375,-0.71875,0.265625
1696254056477,-0.45581055,-0.117492676,-0.85821533,-0.703125,-1.125,0.3125
1696254056517,-0.45898438,-0.11260986,-0.862854,-0.921875,-1.125,0.328125
1696254056556,-0.4572754,-0.113098145,-0.8591919,-0.0625,-0.140625,0.15625
1696254056596,-0.45825195,-0.1194458,-0.86798096,-0.734375,-0.140625,0.25
1696254056637,-0.45288086,-0.10650635,-0.86553955,-0.6875,-0.828125,0.234375
1696254056677,-0.44799805,-0.11871338,-0.8623657,-1.1875,-1.796875,0.3125
1696254056717,-0.45336914,-0.11431885,-0.8308716,-0.671875,-1.875,-0.046875
1696254056757,-0.45214844,-0.11016846,-0.85821533,-1.0625,-2.234375,-0.140625
1696254056797,-0.45239258,-0.11968994,-0.86260986,-1.453125,-1.90625,0.0
1696254056837,-0.46142578,-0.12750244,-0.8599243,-1.203125,-1.875,0.125
1696254056880,-0.4440918,-0.12335205,-0.85772705,-0.703125,-2.65625,0.21875
1696254056920,-0.4440918,-0.12530518,-0.8579712,-0.546875,-3.09375,0.28125
1696254056958,-0.43579102,-0.11773682,-0.86065674,-0.25,-4.03125,0.5625
1696254056998,-0.43237305,-0.12408447,-0.83135986,0.609375,-3.515625,0.46875
1696254057038,-0.421875,-0.11236572,-0.8362427,0.625,-3.71875,0.875
1696254057079,-0.41064453,-0.13555908,-0.9421997,-3.421875,-3.90625,1.28125
1696254057119,-0.43115234,-0.1428833,-0.91656494,-0.125,-0.578125,0.390625
1696254057158,-0.41796875,-0.117492676,-0.8242798,-0.28125,-0.171875,-0.09375
1696254057197,-0.41918945,-0.11578369,-0.87823486,-1.25,-1.390625,0.4375
1696254057239,-0.4260254,-0.12530518,-0.90948486,-1.453125,-0.328125,0.1875
1696254057281,-0.41552734,-0.12994385,-0.8501587,0.390625,2.046875,-0.125
1696254057320,-0.42773438,-0.1350708,-0.88482666,-0.671875,1.984375,-0.0625
1696254057357,-0.42016602,-0.13165283,-0.86187744,-0.34375,1.09375,0.171875
1696254057399,-0.42919922,-0.1272583,-0.8882446,-0.765625,0.078125,0.109375
1696254057439,-0.42529297,-0.14068604,-0.83917236,0.625,2.140625,-0.4375
1696254057478,-0.43554688,-0.12945557,-0.8814087,-1.390625,0.453125,0.171875
1696254057517,-0.44555664,-0.13092041,-0.8674927,-0.921875,0.65625,0.140625
1696254057558,-0.43237305,-0.13165283,-0.8845825,-1.34375,0.875,0.25
1696254057599,-0.43188477,-0.12896729,-0.8274536,0.1875,0.96875,-0.0625
1696254057640,-0.43701172,-0.1404419,-0.8550415,-0.34375,-0.34375,0.140625
1696254057677,-0.43725586,-0.13555908,-0.8567505,-0.421875,-0.375,0.203125
1696254057718,-0.43530273,-0.13873291,-0.85772705,-1.078125,-0.671875,0.453125
1696254057800,-0.44213867,-0.14361572,-0.8633423,-1.84375,-0.703125,0.578125
1696254057806,-0.43359375,-0.14581299,-0.87506104,-1.5,-0.46875,0.296875
1696254057817,-0.43359375,-0.13702393,-0.8587036,-1.125,0.828125,0.1875
1696254057900,-0.44433594,-0.14239502,-0.86846924,-1.234375,0.15625,0.40625
1696254057903,-0.4350586,-0.13800049,-0.8477173,-1.59375,0.453125,0.6875
1696254057937,-0.43798828,-0.14654541,-0.8518677,-1.75,0.203125,0.71875
1696254057979,-0.43701172,-0.15289307,-0.8701782,-1.578125,0.15625,0.109375
1696254058018,-0.45092773,-0.15655518,-0.8267212,0.421875,-0.125,0.109375
1696254058059,-0.43652344,-0.1519165,-0.8633423,0.078125,-1.03125,0.109375
1696254058098,-0.43896484,-0.15679932,-0.84381104,0.3125,-0.296875,0.171875
1696254058138,-0.4453125,-0.15509033,-0.8677368,-0.265625,-0.40625,0.140625
1696254058178,-0.43847656,-0.1482544,-0.84747314,0.421875,-0.109375,0.03125
1696254058218,-0.44848633,-0.14703369,-0.8689575,-0.078125,-0.609375,-0.0625
1696254058277,-0.4260254,-0.14215088,-0.86505127,-0.359375,0.265625,-0.109375
1696254058296,-0.44262695,-0.1506958,-0.8882446,-1.234375,0.234375,-0.578125
1696254058338,-0.44970703,-0.15386963,-0.8518677,-0.28125,1.484375,-0.71875
1696254058377,-0.44018555,-0.14483643,-0.8567505,-0.390625,0.375,-0.71875
1696254058418,-0.45336914,-0.14801025,-0.86431885,-0.703125,0.484375,-0.609375
1696254058478,-0.45385742,-0.15289307,-0.8596802,-1.125,-0.078125,-0.578125
1696254058496,-0.45361328,-0.15509033,-0.85040283,-0.46875,-0.25,-0.265625
1696254058562,-0.45092773,-0.1506958,-0.850647,0.59375,-1.046875,-0.25
1696254058576,-0.44702148,-0.1453247,-0.84698486,0.171875,-1.78125,0.171875
1696254058638,-0.4321289,-0.1453247,-0.8477173,0.078125,-1.453125,0.390625
1696254058658,-0.44702148,-0.15020752,-0.8682251,-0.265625,-1.5625,0.609375
1696254058698,-0.4321289,-0.14776611,-0.831604,0.984375,-1.84375,0.671875
1696254058738,-0.4326172,-0.1453247,-0.83917236,2.671875,-4.5625,1.515625
1696254058776,-0.4411621,-0.15289307,-0.8970337,3.015625,-3.984375,0.8125
1696254058817,-0.43530273,-0.14752197,-0.86968994,0.5,-2.453125,0.734375
1696254058857,-0.43139648,-0.14801025,-0.8740845,0.46875,-2.09375,1.109375
1696254058897,-0.42407227,-0.13800049,-0.8740845,-0.390625,-1.828125,0.96875
1696254058938,-0.41870117,-0.14605713,-0.8833618,-0.8125,-0.40625,0.546875
1696254059001,-0.4194336,-0.15167236,-0.878479,-1.1875,-0.1875,0.328125
1696254059040,-0.4206543,-0.15045166,-0.8591919,-0.09375,0.03125,0.0625
1696254059058,-0.43115234,-0.1453247,-0.8735962,-0.390625,-0.21875,0.203125
1696254059076,-0.4248047,-0.14776611,-0.87823486,-0.578125,0.09375,0.296875
1696254059117,-0.43408203,-0.15338135,-0.8574829,-1.34375,1.203125,0.203125
1696254059159,-0.43310547,-0.14996338,-0.85601807,-0.515625,0.375,0.53125
1696254059198,-0.43310547,-0.15264893,-0.8496704,-0.484375,0.078125,0.40625
1696254059238,-0.42504883,-0.15362549,-0.84332275,0.5,-0.6875,0.1875
1696254059277,-0.42944336,-0.1482544,-0.85162354,1.375,-0.1875,0.125
1696254059317,-0.43530273,-0.14703369,-0.88848877,2.109375,0.125,1.34375
1696254059358,-0.42919922,-0.15582275,-0.90704346,0.578125,-1.75,0.8125
1696254059399,-0.40405273,-0.16168213,-0.8711548,0.859375,-1.1875,-0.15625
1696254059437,-0.4375,-0.14312744,-0.8279419,2.59375,-0.734375,-0.6875
1696254059479,-0.41455078,-0.13604736,-0.8440552,3.734375,-3.78125,-0.1875
1696254059518,-0.4243164,-0.13433838,-0.8723755,3.828125,-3.453125,-0.21875
1696254059558,-0.42651367,-0.12701416,-0.88287354,3.53125,-1.65625,-0.125
1696254059598,-0.42138672,-0.13336182,-0.8726196,0.78125,-1.0,0.21875
1696254059638,-0.41992188,-0.12994385,-0.8604126,-0.359375,-1.03125,0.109375
1696254059678,-0.4140625,-0.13311768,-0.89019775,-0.015625,-2.875,0.125
1696254059718,-0.4086914,-0.13067627,-0.86505127,0.84375,-1.46875,0.171875
1696254059758,-0.40551758,-0.12286377,-0.84698486,1.703125,-0.109375,0.03125
1696254059798,-0.39160156,-0.117248535,-0.85772705,-2.296875,-0.984375,0.734375
1696254059838,-0.44995117,-0.13873291,-0.9746704,-5.875,2.46875,1.234375
1696254059879,-0.43139648,-0.1453247,-0.954895,-1.3125,2.515625,0.828125
1696254059918,-0.40454102,-0.13409424,-0.8064575,-1.203125,2.71875,0.265625
1696254059958,-0.41625977,-0.13702393,-0.79571533,2.59375,-1.09375,0.390625
1696254060000,-0.4194336,-0.13287354,-0.83551025,-0.1875,-0.09375,0.515625
1696254060037,-0.43017578,-0.14190674,-0.8936157,-1.203125,-0.21875,0.515625
1696254060078,-0.42333984,-0.13409424,-0.88726807,-2.578125,-2.703125,0.578125
1696254060117,-0.4260254,-0.14752197,-0.8838501,0.6875,-1.078125,0.265625
1696254060158,-0.41870117,-0.15216064,-0.8701782,0.140625,-0.484375,0.359375
1696254060199,-0.42382812,-0.14459229,-0.85772705,-0.203125,-0.75,0.03125
1696254060239,-0.41552734,-0.14093018,-0.8584595,0.546875,-0.15625,0.0625
1696254060278,-0.41918945,-0.12921143,-0.8687134,-0.3125,0.15625,0.109375
1696254060318,-0.42700195,-0.14093018,-0.8713989,-0.65625,-0.03125,0.09375
1696254060362,-0.42919922,-0.13873291,-0.878479,-0.109375,-0.453125,0.109375
1696254060398,-0.4248047,-0.14190674,-0.8814087,-0.53125,-0.265625,0.140625
1696254060418,-0.4248047,-0.14068604,-0.86065674,-0.125,0.15625,0.125
1696254060458,-0.4189453,-0.14117432,-0.8452759,0.40625,0.28125,0.0625
1696254060499,-0.4260254,-0.14385986,-0.8604126,-0.078125,-0.234375,0.296875
1696254060539,-0.42333984,-0.13873291,-0.8567505,-0.1875,-0.5,0.34375
1696254060599,-0.4255371,-0.14385986,-0.8933716,-0.9375,-0.390625,0.359375
1696254060616,-0.42016602,-0.14215088,-0.8713989,-0.859375,-0.9375,0.25
1696254060681,-0.4165039,-0.14141846,-0.8689575,-0.53125,-0.5,0.046875
1696254060697,-0.42578125,-0.14727783,-0.86968994,-0.640625,-0.453125,0.046875
1696254060759,-0.41625977,-0.14263916,-0.8501587,-0.9375,-0.09375,0.140625
1696254060777,-0.4189453,-0.14312744,-0.8562622,-0.734375,-0.40625,0.15625
1696254060818,-0.4255371,-0.14727783,-0.8682251,-0.484375,-0.46875,0.15625
1696254060860,-0.4345703,-0.14654541,-0.878479,-0.953125,-0.546875,0.15625
1696254060899,-0.4230957,-0.15533447,-0.85943604,-0.046875,0.125,0.046875
1696254060939,-0.41918945,-0.1506958,-0.85943604,-0.0625,-0.265625,0.140625
1696254060977,-0.4272461,-0.144104,-0.8635864,-0.0625,-0.109375,0.1875
1696254061018,-0.42260742,-0.15386963,-0.8616333,0.15625,-0.09375,0.25
1696254061058,-0.4260254,-0.15582275,-0.85894775,1.015625,0.875,-0.0625
1696254061097,-0.42871094,-0.15093994,-0.8713989,1.25,0.21875,0.0625
1696254061138,-0.42456055,-0.14605713,-0.8574829,0.921875,0.125,0.046875
1696254061200,-0.4345703,-0.14459229,-0.8809204,-0.09375,0.15625,0.359375
1696254061216,-0.42382812,-0.15216064,-0.84210205,0.203125,1.03125,0.0625
1696254061258,-0.42919922,-0.15338135,-0.8670044,-0.59375,-0.078125,0.15625
1696254061298,-0.4338379,-0.14141846,-0.8652954,-0.4375,-0.046875,0.0625
1696254061337,-0.43579102,-0.14508057,-0.8711548,-0.078125,-0.03125,0.21875
1696254061378,-0.43237305,-0.14434814,-0.85943604,-0.34375,-0.15625,0.15625
1696254061438,-0.42993164,-0.15216064,-0.8677368,0.03125,0.03125,0.109375
1696254061457,-0.43041992,-0.1531372,-0.8567505,0.15625,0.5625,0.0
1696254061519,-0.4177246,-0.14190674,-0.8635864,-0.21875,0.390625,-0.0625
1696254061539,-0.43359375,-0.14874268,-0.8567505,0.21875,0.671875,-0.171875
1696254061579,-0.42529297,-0.1428833,-0.86065674,0.484375,0.078125,0.078125
1696254061639,-0.43676758,-0.14630127,-0.86016846,0.28125,-0.578125,0.03125
1696254061657,-0.42919922,-0.1326294,-0.864563,-0.125,-0.46875,0.203125
1696254061698,-0.4362793,-0.14239502,-0.8562622,-0.109375,-0.203125,0.28125
1696254061717,-0.44140625,-0.13824463,-0.8604126,-0.015625,-0.625,0.234375
1696254061759,-0.43188477,-0.14703369,-0.8706665,-0.03125,-0.546875,0.3125
1696254061800,-0.4309082,-0.14678955,-0.8804321,-0.484375,-0.1875,0.34375
1696254061837,-0.41235352,-0.14215088,-0.8711548,0.71875,-2.34375,0.53125
1696254061900,-0.44555664,-0.15240479,-0.8545532,0.53125,-2.25,0.609375
1696254061916,-0.4309082,-0.14630127,-0.8596802,-0.140625,-1.140625,0.0625
1696254061979,-0.43017578,-0.13995361,-0.84552,-0.53125,-1.390625,-0.03125
1696254062017,-0.4272461,-0.14678955,-0.86724854,0.125,-0.21875,0.171875
1696254062039,-0.42456055,-0.14654541,-0.8513794,0.5625,-0.515625,0.0625
1696254062102,-0.43139648,-0.14068604,-0.8753052,1.40625,-1.59375,-0.125
1696254062116,-0.43432617,-0.14678955,-0.847229,4.015625,-5.46875,-0.1875
1696254062181,-0.41015625,-0.1338501,-0.85943604,4.171875,-4.9375,-0.109375
1696254062198,-0.4169922,-0.120910645,-0.86676025,3.875,-6.140625,-0.03125
1696254062260,-0.40795898,-0.12506104,-0.881897,3.96875,-5.46875,0.109375
1696254062300,-0.40551758,-0.11968994,-0.9116821,1.953125,-3.484375,0.234375
1696254062316,-0.39697266,-0.11456299,-0.9151001,-0.3125,-2.53125,0.3125
1696254062359,-0.39892578,-0.120910645,-0.8855591,-1.046875,-1.984375,0.3125
1696254062397,-0.39013672,-0.11553955,-0.880188,-1.09375,-1.671875,0.34375
1696254062437,-0.40112305,-0.11456299,-0.894104,-1.546875,-0.921875,0.203125
1696254062478,-0.3918457,-0.12530518,-0.85040283,-0.890625,-1.234375,0.28125
1696254062517,-0.3713379,-0.12432861,-0.864563,-2.484375,-0.390625,0.40625
1696254062558,-0.4140625,-0.13555908,-0.95684814,-4.53125,2.390625,0.546875
1696254062597,-0.40844727,-0.13800049,-0.9536743,-3.0625,1.703125,0.53125
1696254062638,-0.39208984,-0.14019775,-0.85821533,-1.109375,2.28125,0.234375
1696254062702,-0.39111328,-0.1338501,-0.83917236,-2.390625,-1.125,0.046875
1696254062718,-0.39331055,-0.13555908,-0.84259033,-1.9375,-1.59375,0.40625
1696254062758,-0.40844727,-0.14605713,-0.88531494,-1.78125,-1.140625,0.359375
1696254062798,-0.39892578,-0.15240479,-0.87042236,-0.859375,-0.265625,0.203125
1696254062839,-0.4086914,-0.14996338,-0.8933716,-0.3125,-0.046875,0.0625
1696254062878,-0.3984375,-0.13824463,-0.8838501,-0.375,-0.46875,0.0625
1696254062917,-0.39746094,-0.13970947,-0.8867798,-0.53125,0.484375,0.21875
1696254062978,-0.3942871,-0.1453247,-0.85284424,-0.828125,0.25,0.21875
1696254063018,-0.39770508,-0.14874268,-0.86187744,-0.703125,-0.03125,-0.015625
1696254063036,-0.3984375,-0.1494751,-0.8779907,-0.453125,-0.15625,0.171875
1696254063057,-0.41088867,-0.15142822,-0.9067993,-1.390625,-0.34375,0.109375
1696254063097,-0.4033203,-0.15167236,-0.8706665,-0.171875,0.140625,0.0625
1696254063138,-0.40429688,-0.14923096,-0.85528564,0.421875,-0.015625,0.03125
1696254063178,-0.40405273,-0.14849854,-0.8706665,-0.484375,-0.46875,0.203125
1696254063218,-0.39135742,-0.14630127,-0.87750244,-1.328125,0.1875,0.1875
1696254063257,-0.3996582,-0.14923096,-0.85162354,-0.203125,-0.203125,-0.15625
1696254063299,-0.40234375,-0.14703369,-0.88360596,0.734375,-0.578125,-0.015625
1696254063337,-0.41064453,-0.14971924,-0.8796997,-0.75,0.015625,0.203125
1696254063378,-0.40698242,-0.15533447,-0.8772583,-0.8125,-0.28125,0.390625
1696254063418,-0.40722656,-0.15557861,-0.86846924,0.265625,0.140625,0.109375
1696254063457,-0.40405273,-0.15460205,-0.878479,0.1875,-0.03125,0.15625
1696254063497,-0.40673828,-0.1531372,-0.87506104,-0.0625,-0.125,0.34375
1696254063538,-0.40698242,-0.14556885,-0.8674927,-0.5,-0.421875,0.125
1696254063579,-0.41015625,-0.15533447,-0.88360596,-0.515625,-0.03125,0.09375
1696254063618,-0.40161133,-0.14776611,-0.8706665,-0.171875,-0.234375,-0.03125
1696254063659,-0.4074707,-0.15753174,-0.86602783,-0.140625,-0.359375,0.375
1696254063698,-0.4074707,-0.15997314,-0.87579346,-0.21875,-0.25,0.203125
1696254063735,-0.40795898,-0.14385986,-0.87506104,-0.25,-0.046875,0.296875
1696254063778,-0.40600586,-0.1572876,-0.87506104,-0.09375,0.09375,0.125
1696254063817,-0.4091797,-0.14776611,-0.8635864,0.0625,-0.078125,0.34375
1696254063858,-0.4116211,-0.15240479,-0.8753052,-0.765625,-0.9375,0.421875
1696254063899,-0.40185547,-0.1531372,-0.8804321,-1.53125,-0.71875,0.1875
1696254063936,-0.41259766,-0.1519165,-0.85772705,-0.4375,0.59375,-0.21875
1696254063981,-0.41625977,-0.16021729,-0.8789673,-0.578125,-0.6875,0.203125
1696254064019,-0.40795898,-0.15704346,-0.84942627,0.515625,0.515625,0.328125
1696254064057,-0.4086914,-0.16363525,-0.87286377,-0.328125,0.125,0.25
1696254064100,-0.41333008,-0.16143799,-0.8677368,0.6875,0.375,0.046875
1696254064138,-0.4074707,-0.15289307,-0.8555298,1.296875,0.40625,-0.046875
1696254064180,-0.41333008,-0.15338135,-0.87164307,1.390625,-0.546875,0.09375
1696254064219,-0.4165039,-0.15240479,-0.8772583,-0.515625,-0.375,0.234375
1696254064258,-0.40673828,-0.15264893,-0.8743286,-0.9375,-0.234375,0.140625
1696254064297,-0.41333008,-0.15289307,-0.86724854,-0.296875,-0.53125,0.265625
1696254064337,-0.41015625,-0.1572876,-0.87628174,-0.1875,-0.640625,0.125
1696254064356,-0.4128418,-0.15338135,-0.8687134,0.03125,-0.625,0.25
1696254064419,-0.4104004,-0.15509033,-0.85943604,0.234375,-0.171875,0.125
1696254064439,-0.40722656,-0.15435791,-0.88409424,-0.453125,-0.578125,0.28125
1696254064478,-0.41625977,-0.15142822,-0.87213135,-0.3125,-0.75,-0.0625
1696254064540,-0.41479492,-0.15631104,-0.8677368,0.34375,-0.703125,0.09375
1696254064557,-0.40966797,-0.16705322,-0.86431885,0.09375,-0.703125,0.265625
1696254064598,-0.40722656,-0.1531372,-0.8623657,0.703125,-0.890625,0.171875
1696254064639,-0.4086914,-0.15264893,-0.8804321,0.546875,-1.28125,0.0
1696254064678,-0.40600586,-0.15264893,-0.8970337,1.5,-2.859375,-0.140625
1696254064718,-0.4177246,-0.14654541,-0.89508057,3.671875,-4.21875,-0.015625
1696254064758,-0.39819336,-0.1416626,-0.84259033,6.1875,-2.0,-0.265625
1696254064798,-0.39697266,-0.13018799,-0.8616333,3.15625,-2.140625,-0.046875
1696254064858,-0.40283203,-0.14019775,-0.8569946,2.34375,-2.234375,0.125
1696254064901,-0.3996582,-0.1272583,-0.880188,1.328125,-2.734375,0.1875
1696254064937,-0.3840332,-0.12701416,-0.897522,0.046875,-2.9375,0.359375
1696254064957,-0.38964844,-0.12579346,-0.86846924,-0.046875,-0.984375,0.203125
1696254064998,-0.39794922,-0.1260376,-0.8687134,1.25,0.1875,0.265625
1696254065037,-0.38476562,-0.12579346,-0.86187744,0.109375,0.203125,0.265625
1696254065079,-0.38330078,-0.12579346,-0.91241455,-1.890625,-0.328125,0.4375
1696254065118,-0.40454102,-0.1350708,-0.91729736,-2.5625,1.390625,0.796875
1696254065158,-0.39990234,-0.13482666,-0.9126587,-1.421875,2.703125,0.21875
1696254065221,-0.390625,-0.13189697,-0.84039307,-2.25,1.34375,0.015625
1696254065236,-0.40649414,-0.13775635,-0.84381104,-0.203125,0.625,0.09375
1696254065278,-0.39672852,-0.13531494,-0.85772705,0.0625,0.296875,0.234375
1696254065318,-0.4086914,-0.13677979,-0.89923096,-0.046875,0.546875,0.421875
1696254065357,-0.40405273,-0.14190674,-0.8987427,-0.859375,1.203125,0.125
1696254065398,-0.40576172,-0.14117432,-0.88360596,-0.109375,0.03125,0.21875
1696254065440,-0.40014648,-0.1350708,-0.8674927,0.09375,0.171875,0.203125
1696254065478,-0.40454102,-0.14117432,-0.86602783,-0.890625,0.0,0.359375
1696254065518,-0.40185547,-0.13873291,-0.8670044,-1.046875,1.046875,0.140625
1696254065581,-0.40478516,-0.14215088,-0.87945557,-0.921875,-0.21875,0.375
1696254065597,-0.4111328,-0.13897705,-0.8699341,-0.640625,-0.03125,0.25
1696254065657,-0.40600586,-0.1338501,-0.8579712,-0.625,1.75,0.375
1696254065677,-0.42260742,-0.14971924,-0.8682251,-0.96875,1.0,0.359375
1696254065697,-0.41674805,-0.14776611,-0.87164307,-0.546875,0.328125,0.15625
1696254065740,-0.40966797,-0.14434814,-0.8584595,-0.453125,-0.03125,0.1875
1696254065778,-0.41455078,-0.1453247,-0.86187744,-0.390625,-0.5625,0.3125
1696254065817,-0.41674805,-0.14434814,-0.87628174,-0.078125,-0.296875,0.046875
1696254065856,-0.41992188,-0.1531372,-0.8838501,-0.15625,-0.65625,0.1875
1696254065895,-0.4189453,-0.14508057,-0.8765259,0.0,-0.5,0.171875
1696254065935,-0.41333008,-0.15216064,-0.8735962,-0.4375,-0.171875,0.140625
1696254065976,-0.41015625,-0.15093994,-0.87335205,-0.390625,0.0625,0.03125
1696254066017,-0.41967773,-0.1494751,-0.8689575,-0.4375,-0.4375,0.203125
1696254066057,-0.4165039,-0.15045166,-0.862854,-0.46875,-0.140625,0.28125
1696254066098,-0.41870117,-0.1506958,-0.87286377,-0.484375,-0.703125,0.21875
1696254066138,-0.41479492,-0.15484619,-0.86920166,-0.15625,-1.078125,-0.015625
1696254066180,-0.41552734,-0.14801025,-0.86065674,0.265625,-0.625,0.0625
1696254066218,-0.41455078,-0.15167236,-0.8743286,-0.046875,-0.5,0.171875
1696254066260,-0.4104004,-0.15093994,-0.8765259,-0.4375,-0.578125,0.265625
1696254066297,-0.41137695,-0.15093994,-0.8701782,-0.1875,-0.46875,0.34375
1696254066339,-0.41088867,-0.14581299,-0.8713989,-0.109375,-0.15625,-0.0625
1696254066378,-0.41845703,-0.14996338,-0.8677368,-0.1875,-0.359375,0.15625
1696254066417,-0.4182129,-0.14263916,-0.8682251,0.0625,-0.171875,0.203125
1696254066457,-0.42114258,-0.15142822,-0.86383057,-0.203125,-0.390625,0.296875
1696254066498,-0.4177246,-0.14678955,-0.87750244,-0.1875,-0.546875,0.15625
1696254066539,-0.41552734,-0.1506958,-0.86920166,-0.265625,-0.578125,0.1875
1696254066578,-0.41186523,-0.14239502,-0.8665161,-0.078125,-0.234375,0.140625
1696254066618,-0.4189453,-0.15509033,-0.8821411,-0.265625,-0.890625,0.28125
1696254066658,-0.42016602,-0.14508057,-0.8826294,-0.8125,-0.6875,0.28125
1696254066697,-0.41674805,-0.14678955,-0.8543091,-0.984375,-0.140625,0.0625
1696254066739,-0.41601562,-0.15435791,-0.86553955,-0.078125,-0.09375,0.21875
1696254066778,-0.41479492,-0.15093994,-0.8677368,-0.359375,-0.328125,0.28125
1696254066818,-0.42114258,-0.15484619,-0.86920166,-0.140625,-0.53125,0.15625
1696254066860,-0.41430664,-0.15142822,-0.8674927,-0.1875,0.03125,0.21875
1696254066899,-0.42114258,-0.15118408,-0.86602783,0.515625,-0.390625,0.21875
1696254066937,-0.41992188,-0.14898682,-0.8562622,0.96875,-0.078125,0.296875
1696254066979,-0.41723633,-0.15216064,-0.86383057,0.4375,-0.6875,0.40625
1696254067017,-0.41430664,-0.14849854,-0.87750244,0.03125,-0.546875,0.421875
1696254067036,-0.42236328,-0.14801025,-0.8723755,0.171875,-0.9375,0.375
1696254067099,-0.41455078,-0.15020752,-0.8718872,0.15625,-0.578125,0.046875
1696254067116,-0.41210938,-0.15142822,-0.87384033,-0.4375,-0.625,0.234375
1696254067159,-0.4206543,-0.14605713,-0.8674927,-0.21875,-0.53125,0.21875
1696254067198,-0.42041016,-0.15338135,-0.8635864,0.46875,-0.40625,0.203125
1696254067242,-0.41064453,-0.14581299,-0.8623657,0.390625,-0.953125,0.015625
1696254067276,-0.41992188,-0.14898682,-0.8689575,2.375,-2.578125,-0.234375
1696254067319,-0.40698242,-0.14019775,-0.8496704,7.09375,-6.203125,-0.28125
1696254067359,-0.39038086,-0.12921143,-0.85943604,6.171875,-5.46875,-0.03125
1696254067397,-0.4020996,-0.1194458,-0.897522,2.4375,-3.6875,0.015625
1696254067440,-0.40625,-0.12872314,-0.90631104,0.625,-2.734375,0.21875
1696254067477,-0.4008789,-0.12286377,-0.892395,-0.078125,-1.765625,0.015625
1696254067519,-0.39160156,-0.11993408,-0.87286377,-0.578125,-0.609375,0.171875
1696254067559,-0.38891602,-0.12945557,-0.87945557,-0.03125,-0.3125,0.265625
1696254067598,-0.38500977,-0.12994385,-0.87335205,-0.484375,-1.453125,0.421875
1696254067636,-0.390625,-0.12945557,-0.89434814,-1.625,-2.359375,0.453125
1696254067679,-0.38867188,-0.12408447,-0.89508057,-1.328125,-1.6875,0.40625
1696254067720,-0.38842773,-0.12359619,-0.881897,0.234375,-0.328125,0.3125
1696254067759,-0.38305664,-0.12994385,-0.8550415,2.546875,-0.078125,0.4375
1696254067798,-0.36816406,-0.1350708,-0.9026489,-2.515625,-0.90625,0.625
1696254067838,-0.40576172,-0.14434814,-0.96221924,-2.65625,0.5,0.53125
1696254067879,-0.3864746,-0.12701416,-0.8755493,-0.53125,1.921875,0.0625
1696254067919,-0.3852539,-0.13287354,-0.8323364,-1.1875,1.375,0.25
1696254067959,-0.40307617,-0.1338501,-0.8760376,-0.84375,0.0,0.359375
1696254068000,-0.39257812,-0.13214111,-0.87628174,-0.625,0.125,0.21875
1696254068037,-0.4020996,-0.13531494,-0.90167236,-0.28125,-0.625,0.1875
1696254068076,-0.39038086,-0.14483643,-0.850647,0.71875,0.8125,0.140625
1696254068118,-0.38989258,-0.13824463,-0.8809204,-0.203125,-0.875,0.15625
1696254068158,-0.3959961,-0.13555908,-0.88482666,-0.515625,0.03125,0.203125
1696254068198,-0.38916016,-0.13238525,-0.8921509,-0.65625,0.0,0.265625
1696254068240,-0.39233398,-0.14337158,-0.86383057,0.359375,0.3125,0.09375
1696254068279,-0.39624023,-0.14190674,-0.87750244,0.03125,-0.4375,0.1875
1696254068297,-0.3972168,-0.13165283,-0.88604736,-0.171875,-0.625,0.078125
1696254068339,-0.39501953,-0.13580322,-0.87677,0.3125,0.0625,0.1875
1696254068377,-0.39135742,-0.13458252,-0.8833618,0.25,0.609375,0.078125
1696254068418,-0.3959961,-0.14141846,-0.88848877,-0.28125,-0.609375,0.234375
1696254068458,-0.40039062,-0.13531494,-0.8777466,-0.59375,-0.40625,0.328125
1696254068499,-0.40063477,-0.13580322,-0.88653564,-0.578125,-0.078125,0.359375
1696254068538,-0.39794922,-0.12823486,-0.89801025,-0.609375,0.234375,0.40625
1696254068578,-0.40527344,-0.14019775,-0.8870239,-2.09375,0.09375,0.703125
1696254068619,-0.39770508,-0.14459229,-0.8826294,-1.765625,0.515625,0.609375
1696254068659,-0.39746094,-0.14605713,-0.85723877,-0.953125,0.3125,0.296875
1696254068700,-0.39770508,-0.14361572,-0.8718872,0.109375,0.25,-0.015625
1696254068738,-0.4025879,-0.14801025,-0.86846924,0.28125,-0.375,-0.015625
1696254068779,-0.40454102,-0.14849854,-0.8772583,-0.265625,-1.09375,0.203125
1696254068817,-0.40429688,-0.1428833,-0.86602783,0.328125,-0.75,0.265625
1696254068857,-0.4013672,-0.1404419,-0.88165283,0.4375,-0.265625,0.109375
1696254068898,-0.39135742,-0.14215088,-0.87701416,0.75,0.09375,0.015625
1696254068938,-0.3972168,-0.13555908,-0.87213135,-0.234375,-0.25,0.125
1696254068978,-0.39990234,-0.13897705,-0.8833618,-0.265625,-0.25,0.203125
1696254069018,-0.40161133,-0.13800049,-0.86846924,-0.78125,0.34375,0.171875
1696254069058,-0.40625,-0.14801025,-0.88165283,-0.296875,1.109375,0.09375
1696254069098,-0.4128418,-0.1531372,-0.87506104,-0.328125,0.28125,0.046875
1696254069137,-0.4091797,-0.1404419,-0.8674927,-0.234375,-0.265625,0.28125
1696254069179,-0.41137695,-0.14190674,-0.87457275,-0.65625,-0.25,0.328125
1696254069223,-0.40283203,-0.14874268,-0.86846924,-0.421875,0.59375,0.265625
1696254069278,-0.41333008,-0.14752197,-0.878479,-0.125,-0.75,0.125
1696254069297,-0.41137695,-0.14483643,-0.87457275,-0.375,-0.234375,0.15625
1696254069337,-0.40600586,-0.14581299,-0.87677,-0.421875,-0.453125,0.265625
1696254069377,-0.40356445,-0.14581299,-0.8779907,-0.40625,-0.234375,0.15625
1696254069416,-0.40698242,-0.14434814,-0.87457275,-0.09375,-0.390625,0.296875
1696254069459,-0.40942383,-0.14654541,-0.8755493,-0.453125,-0.359375,0.0625
1696254069497,-0.40820312,-0.15460205,-0.86920166,-0.4375,0.21875,0.25
1696254069539,-0.4116211,-0.14556885,-0.8809204,-0.640625,-0.15625,0.09375
1696254069578,-0.40820312,-0.14654541,-0.86798096,-0.3125,-0.109375,0.078125
1696254069597,-0.40625,-0.14556885,-0.8657837,0.09375,-0.1875,0.125
1696254069638,-0.4033203,-0.14752197,-0.8682251,-0.046875,-0.3125,0.125
1696254069677,-0.40698242,-0.14483643,-0.87506104,0.046875,0.3125,0.078125
1696254069719,-0.4152832,-0.15045166,-0.8755493,-0.078125,0.578125,-0.078125
1696254069758,-0.41235352,-0.14703369,-0.8640747,0.265625,0.265625,0.0625
1696254069797,-0.40698242,-0.14678955,-0.8648071,0.125,-0.0625,0.328125
1696254069839,-0.41333008,-0.14654541,-0.8687134,-0.3125,-0.28125,0.328125
1696254069878,-0.40527344,-0.14996338,-0.87945557,-0.203125,0.03125,0.234375
1696254069918,-0.4165039,-0.15289307,-0.88946533,-0.796875,-0.921875,0.171875
1696254069979,-0.41088867,-0.14923096,-0.87213135,0.71875,-1.09375,0.078125
1696254069998,-0.40771484,-0.14923096,-0.8521118,1.265625,-0.484375,0.109375
1696254070039,-0.41455078,-0.15142822,-0.88287354,3.546875,-2.671875,-0.140625
1696254070078,-0.40014648,-0.1350708,-0.835022,5.625,-3.75,-0.203125
1696254070119,-0.40673828,-0.13238525,-0.84991455,2.578125,-4.1875,0.0
1696254070161,-0.4025879,-0.13360596,-0.89630127,1.3125,-4.109375,0.265625
1696254070199,-0.40576172,-0.12652588,-0.91070557,-0.296875,-2.484375,0.515625
1696254070263,-0.39770508,-0.12872314,-0.89849854,-0.546875,-1.125,0.296875
1696254070277,-0.38745117,-0.13458252,-0.8892212,-0.859375,-1.6875,0.4375
1696254070317,-0.3869629,-0.13653564,-0.8772583,-0.234375,-2.140625,0.328125
1696254070379,-0.37817383,-0.13165283,-0.866272,-1.140625,-2.625,0.375
1696254070397,-0.38427734,-0.13092041,-0.8777466,0.53125,-0.96875,0.25
1696254070440,-0.38500977,-0.12677002,-0.8657837,1.625,-0.9375,0.484375
1696254070480,-0.36547852,-0.12677002,-0.88116455,0.328125,0.53125,0.328125
1696254070516,-0.39697266,-0.15045166,-0.96759033,-3.53125,2.28125,0.640625
1696254070560,-0.4074707,-0.13922119,-0.93829346,-2.515625,1.734375,0.546875
1696254070597,-0.3828125,-0.13311768,-0.835022,-0.3125,5.234375,0.3125
1696254070638,-0.39160156,-0.14117432,-0.8555298,-1.578125,4.8125,0.515625
1696254070702,-0.39233398,-0.13555908,-0.86846924,-0.984375,2.453125,0.5625
1696254070719,-0.41235352,-0.14605713,-0.8657837,-0.71875,-1.609375,0.21875
1696254070759,-0.3996582,-0.13458252,-0.8464966,-0.375,0.609375,0.0
1696254070819,-0.4206543,-0.14508057,-0.87628174,-1.171875,-1.21875,0.203125
1696254070838,-0.4099121,-0.14801025,-0.8858032,-0.640625,-1.46875,0.40625
1696254070878,-0.40795898,-0.14727783,-0.8970337,-0.328125,-1.765625,0.296875
1696254070916,-0.38183594,-0.14923096,-0.8460083,-0.421875,-1.796875,0.078125
1696254070937,-0.40649414,-0.1560669,-0.86724854,0.390625,-6.515625,-0.28125
1696254070977,-0.38476562,-0.1375122,-0.8555298,3.390625,-6.0625,-0.125
1696254071019,-0.38720703,-0.13311768,-0.8518677,2.390625,-5.171875,0.0
1696254071058,-0.38720703,-0.1416626,-0.9019165,0.4375,-4.15625,0.4375
1696254071097,-0.38916016,-0.144104,-0.89312744,0.359375,-2.21875,0.46875
1696254071138,-0.37646484,-0.14556885,-0.9314575,2.65625,0.375,0.328125
1696254071176,-0.37109375,-0.1326294,-0.8760376,2.0,1.515625,0.3125
1696254071218,-0.36816406,-0.1350708,-0.93585205,-2.21875,1.09375,0.46875
1696254071257,-0.38378906,-0.13702393,-0.9212036,-2.03125,1.6875,0.3125
1696254071299,-0.37573242,-0.13995361,-0.9036255,-4.828125,4.296875,0.21875
1696254071337,-0.3828125,-0.13995361,-0.8599243,-2.46875,1.234375,-0.046875
1696254071377,-0.39526367,-0.1453247,-0.8320923,0.9375,-0.34375,-0.28125
1696254071417,-0.39404297,-0.1326294,-0.82891846,0.203125,0.75,0.171875
1696254071457,-0.3996582,-0.14874268,-0.8899536,-0.296875,-0.234375,0.40625
1696254071498,-0.39697266,-0.15802002,-0.8574829,0.78125,0.234375,0.171875
1696254071538,-0.39160156,-0.144104,-0.87994385,0.453125,-0.1875,-0.03125
1696254071578,-0.39135742,-0.1338501,-0.8711548,0.0,0.203125,-0.03125
1696254071618,-0.3935547,-0.13970947,-0.8945923,-0.953125,-0.125,0.375
1696254071658,-0.3876953,-0.14703369,-0.85528564,-0.046875,-0.140625,0.109375
1696254071700,-0.3881836,-0.13995361,-0.9116821,-1.25,-1.1875,0.171875
1696254071737,-0.39892578,-0.15093994,-0.90704346,-2.53125,-0.734375,0.453125
1696254071778,-0.38183594,-0.14849854,-0.90826416,-3.546875,0.40625,-0.609375
1696254071818,-0.40820312,-0.16290283,-0.8389282,-1.671875,0.09375,-1.296875
1696254071860,-0.39770508,-0.15924072,-0.85601807,-2.4375,-1.28125,-0.40625
1696254071897,-0.38720703,-0.15997314,-0.86553955,-0.28125,0.515625,-0.078125
1696254071936,-0.39013672,-0.15899658,-0.8670044,-0.421875,-0.171875,0.15625
1696254071977,-0.4038086,-0.17022705,-0.85821533,-0.15625,-0.921875,0.3125
1696254072018,-0.390625,-0.15875244,-0.86383057,1.53125,-1.28125,0.125
1696254072058,-0.3955078,-0.15338135,-0.88287354,0.9375,-1.265625,0.140625
1696254072100,-0.39526367,-0.15924072,-0.8911743,-0.171875,-0.6875,0.265625
1696254072138,-0.39135742,-0.15533447,-0.8845825,-0.15625,0.40625,0.296875
1696254072177,-0.39208984,-0.1585083,-0.88726807,-0.15625,-0.265625,0.171875
1696254072240,-0.39404297,-0.16241455,-0.87628174,0.296875,-0.09375,0.0625
1696254072243,-0.39794922,-0.1585083,-0.8833618,-0.09375,0.109375,0.0625
1696254072279,-0.39282227,-0.1506958,-0.8916626,-0.71875,-0.09375,0.28125
1696254072360,-0.39501953,-0.1585083,-0.8753052,-0.4375,-0.5,0.25
1696254072363,-0.3942871,-0.1638794,-0.8880005,-1.0,-0.828125,0.171875
1696254072418,-0.39282227,-0.1519165,-0.8652954,-0.828125,-0.625,0.203125
1696254072437,-0.39135742,-0.15924072,-0.8777466,-0.75,-0.4375,0.25
1696254072500,-0.39941406,-0.1609497,-0.87701416,-0.203125,-0.09375,0.390625
1696254072518,-0.39770508,-0.16436768,-0.88116455,-0.34375,-0.09375,0.25
1696254072558,-0.39086914,-0.16339111,-0.87091064,-0.09375,-0.078125,0.3125
1696254072597,-0.39208984,-0.1638794,-0.8760376,-0.265625,-0.203125,0.171875
1696254072640,-0.39453125,-0.16021729,-0.86260986,0.453125,-0.28125,0.0625
1696254072678,-0.3959961,-0.16143799,-0.8831177,-0.15625,-0.828125,0.03125
1696254072719,-0.39501953,-0.15631104,-0.880188,-0.5625,-0.796875,0.28125
1696254072757,-0.39526367,-0.1585083,-0.8772583,0.109375,-0.234375,0.21875
1696254072797,-0.39868164,-0.15924072,-0.87872314,0.515625,-0.125,0.15625
1696254072858,-0.39160156,-0.16363525,-0.8723755,0.21875,-0.296875,0.09375
1696254072876,-0.39501953,-0.15753174,-0.8833618,-0.078125,-0.625,0.40625
1696254072942,-0.3955078,-0.15826416,-0.88238525,-0.328125,-0.78125,0.28125
1696254072978,-0.39794922,-0.1585083,-0.8718872,0.15625,-0.328125,0.0625
1696254072996,-0.39135742,-0.16046143,-0.88482666,0.28125,-1.296875,0.328125
1696254073039,-0.39331055,-0.15631104,-0.87994385,2.0,-1.90625,-0.046875
1696254073078,-0.38598633,-0.15631104,-0.86138916,2.421875,-2.796875,-0.046875
1696254073118,-0.37817383,-0.15679932,-0.8543091,4.296875,-2.859375,-0.0625
1696254073158,-0.38354492,-0.13946533,-0.8550415,6.609375,-0.34375,-0.078125
1696254073219,-0.3857422,-0.13214111,-0.89263916,2.9375,-1.59375,0.203125
1696254073237,-0.3935547,-0.13287354,-0.90753174,0.921875,-2.8125,0.4375
1696254073300,-0.38671875,-0.13531494,-0.8814087,0.984375,-1.875,0.375
1696254073318,-0.38232422,-0.13360596,-0.88848877,0.53125,-2.046875,0.265625
1696254073358,-0.37548828,-0.13140869,-0.89385986,-0.390625,-1.984375,0.203125
1696254073398,-0.37060547,-0.13287354,-0.8779907,0.125,-0.78125,0.4375
1696254073439,-0.37597656,-0.1375122,-0.88165283,-0.671875,-1.921875,0.28125
1696254073480,-0.37304688,-0.13189697,-0.8689575,-0.53125,-0.109375,0.34375
1696254073518,-0.3720703,-0.13824463,-0.9092407,0.203125,2.734375,0.140625
1696254073538,-0.40063477,-0.13800049,-0.9612427,-2.109375,2.59375,0.671875
1696254073601,-0.3930664,-0.14361572,-0.9780884,-2.328125,0.5625,0.484375
1696254073619,-0.36010742,-0.13433838,-0.7984009,-1.171875,0.0625,0.0
1696254073658,-0.36621094,-0.13555908,-0.831604,0.765625,-1.15625,-0.25
1696254073698,-0.38598633,-0.13360596,-0.87994385,0.40625,0.328125,0.1875
1696254073738,-0.3942871,-0.14263916,-0.9092407,-0.84375,0.109375,0.46875
1696254073778,-0.39038086,-0.14581299,-0.9104614,-0.265625,-0.078125,0.296875
1696254073842,-0.38378906,-0.14385986,-0.87579346,-0.234375,-0.515625,0.21875
1696254073856,-0.3894043,-0.14849854,-0.87384033,0.5625,-0.359375,0.15625
1696254073898,-0.38134766,-0.1404419,-0.87384033,-0.109375,-0.125,0.265625
1696254073941,-0.38134766,-0.13702393,-0.8933716,-0.6875,-0.03125,0.28125
1696254073979,-0.39135742,-0.14337158,-0.88238525,-0.46875,-0.640625,0.296875
1696254074021,-0.39038086,-0.1428833,-0.8796997,0.359375,-0.25,0.140625
1696254074058,-0.38183594,-0.13287354,-0.8936157,-0.625,-0.3125,0.1875
1696254074097,-0.38012695,-0.1428833,-0.89068604,-0.609375,-0.046875,0.359375
1696254074138,-0.3894043,-0.15435791,-0.878479,-0.15625,0.46875,0.203125
1696254074178,-0.37548828,-0.14459229,-0.8718872,-0.375,-0.078125,0.15625
1696254074218,-0.39160156,-0.13677979,-0.8850708,-0.640625,-0.078125,0.203125
1696254074258,-0.3930664,-0.14508057,-0.88067627,-0.53125,-0.515625,0.25
1696254074298,-0.38500977,-0.13848877,-0.8989868,-0.546875,0.015625,0.078125
1696254074339,-0.39331055,-0.14434814,-0.880188,-0.359375,0.625,0.1875
1696254074400,-0.39379883,-0.14263916,-0.8713989,-0.1875,0.078125,0.0625
1696254074418,-0.3852539,-0.14703369,-0.881897,-0.390625,-0.28125,0.3125
1696254074481,-0.38427734,-0.15264893,-0.88604736,-0.625,-0.140625,0.140625
1696254074496,-0.39648438,-0.15216064,-0.8718872,-0.15625,0.546875,-0.046875
1696254074558,-0.3930664,-0.14678955,-0.87750244,0.28125,-0.0625,0.03125
1696254074577,-0.39648438,-0.13653564,-0.8735962,0.046875,-0.1875,0.234375
1696254074639,-0.39282227,-0.14483643,-0.87872314,0.03125,-0.4375,0.25
1696254074658,-0.39526367,-0.14239502,-0.88726807,-0.53125,0.078125,0.21875
1696254074721,-0.38745117,-0.14898682,-0.8753052,-0.21875,-0.734375,0.296875
1696254074737,-0.38867188,-0.14996338,-0.8718872,0.21875,-0.4375,0.28125
1696254074778,-0.3947754,-0.1519165,-0.8814087,-0.03125,0.03125,0.078125
1696254074820,-0.39501953,-0.14141846,-0.8850708,-0.265625,-0.03125,0.125
1696254074858,-0.3984375,-0.14508057,-0.8887329,-0.390625,0.515625,0.171875
1696254074877,-0.3996582,-0.14508057,-0.8735962,-0.046875,-0.28125,0.109375
1696254074919,-0.39038086,-0.14361572,-0.8635864,-0.078125,-0.65625,0.3125
1696254074958,-0.390625,-0.14459229,-0.8723755,-0.671875,-0.625,0.3125
1696254074999,-0.38891602,-0.14654541,-0.8921509,-1.0,-1.1875,0.4375
1696254075038,-0.3942871,-0.1531372,-0.88482666,-0.25,-0.671875,0.25
1696254075078,-0.39404297,-0.14752197,-0.88360596,0.421875,-0.890625,0.140625
1696254075118,-0.3947754,-0.1494751,-0.8796997,1.609375,-1.078125,-0.078125
1696254075157,-0.38110352,-0.14093018,-0.87945557,2.578125,-3.234375,-0.015625
1696254075197,-0.37670898,-0.13726807,-0.86260986,1.15625,-4.125,-0.015625
1696254075237,-0.3959961,-0.14483643,-0.8809204,-0.65625,-3.921875,0.28125
1696254075278,-0.38793945,-0.13458252,-0.89801025,-0.1875,-2.59375,0.09375
1696254075319,-0.3803711,-0.14703369,-0.8777466,0.359375,-2.296875,0.296875
1696254075361,-0.37304688,-0.14117432,-0.8928833,1.984375,-2.28125,0.265625
1696254075399,-0.36621094,-0.13848877,-0.8711548,-0.03125,-2.953125,0.1875
1696254075438,-0.3618164,-0.13726807,-0.8887329,0.6875,-1.34375,0.46875
1696254075477,-0.36499023,-0.13531494,-0.8945923,0.609375,-1.59375,-0.046875
1696254075518,-0.37304688,-0.13726807,-0.90093994,0.4375,-1.171875,0.015625
1696254075558,-0.35913086,-0.13458252,-0.87579346,1.71875,0.53125,0.28125
1696254075598,-0.3564453,-0.13433838,-0.90753174,0.734375,2.09375,0.265625
1696254075640,-0.38891602,-0.1428833,-0.94976807,-1.59375,3.015625,0.765625
1696254075680,-0.3786621,-0.144104,-0.9487915,-1.59375,3.375,0.28125
1696254075719,-0.37597656,-0.13995361,-0.8435669,-1.140625,2.1875,0.25
1696254075758,-0.37280273,-0.13604736,-0.8296509,-0.265625,0.078125,0.15625
1696254075798,-0.38134766,-0.13580322,-0.8550415,-0.09375,-0.578125,0.171875
1696254075839,-0.38842773,-0.13531494,-0.89801025,0.015625,-0.390625,0.515625
1696254075878,-0.3972168,-0.14678955,-0.9338989,-0.4375,-0.671875,0.4375
1696254075919,-0.37548828,-0.14703369,-0.8850708,0.390625,0.28125,0.25
1696254075957,-0.3840332,-0.1375122,-0.8706665,0.125,-0.34375,0.1875
1696254075998,-0.3791504,-0.1375122,-0.8682251,-0.203125,-0.03125,0.25
1696254076039,-0.38012695,-0.1326294,-0.8694458,-0.671875,0.171875,0.296875
1696254076077,-0.39257812,-0.1416626,-0.8867798,-0.0625,0.140625,0.1875
1696254076122,-0.39282227,-0.14068604,-0.8904419,-0.78125,-0.515625,0.28125
1696254076201,-0.39697266,-0.14361572,-0.9002075,-0.890625,-0.984375,0.3125
1696254076204,-0.3803711,-0.14117432,-0.8513794,-0.78125,-0.28125,0.28125
1696254076238,-0.38549805,-0.14776611,-0.8665161,-1.890625,-0.75,0.390625
1696254076258,-0.38671875,-0.15533447,-0.87164307,-0.359375,-0.609375,0.5
1696254076298,-0.38378906,-0.1506958,-0.8892212,0.015625,-0.703125,0.234375
1696254076338,-0.3852539,-0.1494751,-0.8921509,-0.171875,-0.609375,0.15625
1696254076377,-0.3798828,-0.14312744,-0.8911743,-0.15625,-0.265625,0.09375
1696254076418,-0.38867188,-0.14971924,-0.88165283,0.15625,0.5625,0.03125
1696254076458,-0.3864746,-0.15020752,-0.8921509,-0.1875,0.65625,0.15625
1696254076498,-0.39160156,-0.14923096,-0.9067993,-1.78125,-0.796875,0.15625
1696254076538,-0.3864746,-0.15264893,-0.8765259,-1.671875,-0.515625,0.21875
1696254076600,-0.3713379,-0.15777588,-0.8604126,-0.125,-1.390625,-0.078125
1696254076619,-0.39013672,-0.15802002,-0.8809204,0.921875,-2.1875,-0.171875
1696254076658,-0.38452148,-0.14703369,-0.85284424,4.0,-2.828125,-0.171875
1696254076698,-0.3828125,-0.14337158,-0.88238525,4.515625,-4.328125,-0.015625
1696254076740,-0.3708496,-0.13287354,-0.88897705,3.8125,-3.640625,0.0
1696254076779,-0.36938477,-0.13043213,-0.8731079,3.484375,0.734375,0.078125
1696254076821,-0.38793945,-0.12774658,-0.9182739,0.703125,0.234375,0.515625
1696254076859,-0.37817383,-0.14215088,-0.89849854,-0.21875,0.28125,0.515625
1696254076898,-0.37646484,-0.13067627,-0.8792114,0.65625,0.46875,0.34375
1696254076939,-0.36157227,-0.12774658,-0.86505127,1.703125,0.0625,0.203125
1696254076978,-0.3635254,-0.12750244,-0.89630127,-2.140625,0.390625,0.515625
1696254077019,-0.40283203,-0.1375122,-0.9397583,-3.078125,1.78125,0.625
1696254077059,-0.38598633,-0.1416626,-0.9048462,-1.71875,2.984375,0.125
1696254077098,-0.38085938,-0.13409424,-0.8479614,-0.984375,2.015625,-0.109375
1696254077137,-0.38598633,-0.13043213,-0.8652954,-1.546875,-0.34375,0.171875
1696254077198,-0.39331055,-0.1428833,-0.8731079,-1.1875,-0.1875,0.390625
1696254077217,-0.3947754,-0.13555908,-0.8977661,-0.8125,-0.859375,0.453125
1696254077258,-0.3869629,-0.14703369,-0.8882446,-0.40625,0.265625,0.109375
1696254077298,-0.39453125,-0.15142822,-0.88604736,-0.484375,-0.984375,0.25
1696254077361,-0.38183594,-0.14483643,-0.880188,-0.125,-0.546875,0.15625
1696254077377,-0.38671875,-0.14190674,-0.8735962,-0.53125,0.046875,0.328125
1696254077438,-0.38867188,-0.1404419,-0.87213135,-0.078125,-0.078125,0.03125
1696254077458,-0.39013672,-0.14263916,-0.89141846,-0.25,-0.4375,0.171875
1696254077478,-0.3876953,-0.14239502,-0.87286377,0.390625,-0.125,0.0625
1696254077517,-0.39526367,-0.14385986,-0.9055786,-0.21875,0.46875,0.328125
1696254077558,-0.38452148,-0.1416626,-0.8953247,-1.34375,1.515625,0.3125
1696254077597,-0.38671875,-0.15142822,-0.8562622,-0.40625,0.359375,0.28125
1696254077640,-0.38476562,-0.14312744,-0.8543091,-0.40625,-0.53125,0.09375
1696254077678,-0.3942871,-0.14385986,-0.8633423,-0.28125,0.03125,0.265625
1696254077717,-0.39916992,-0.13970947,-0.89068604,-0.6875,0.03125,0.296875
1696254077759,-0.40161133,-0.15289307,-0.88726807,-0.625,-0.046875,0.171875
1696254077797,-0.3996582,-0.14776611,-0.8826294,0.46875,0.109375,0.15625
1696254077839,-0.39501953,-0.14971924,-0.87945557,-0.359375,-0.34375,0.265625
1696254077878,-0.3918457,-0.14385986,-0.8694458,-0.375,-0.34375,0.25
1696254077918,-0.390625,-0.15142822,-0.88116455,-0.578125,-0.296875,0.28125
1696254077959,-0.39624023,-0.15045166,-0.878479,0.0625,0.171875,0.21875
1696254078001,-0.3972168,-0.14776611,-0.89019775,-0.640625,-0.078125,0.15625
1696254078037,-0.40454102,-0.14508057,-0.88946533,-0.640625,-0.03125,0.34375
1696254078080,-0.39453125,-0.15118408,-0.86553955,-1.0625,0.484375,0.171875
1696254078119,-0.3935547,-0.14703369,-0.8933716,-1.625,0.515625,0.0625
1696254078161,-0.40039062,-0.15264893,-0.8682251,-0.859375,0.453125,0.296875
1696254078198,-0.39892578,-0.15020752,-0.8648071,-0.421875,0.265625,0.109375
1696254078237,-0.40356445,-0.1519165,-0.8694458,-0.203125,0.265625,0.15625
1696254078277,-0.40698242,-0.15093994,-0.88165283,-0.25,0.0625,0.21875
1696254078317,-0.40576172,-0.15924072,-0.86383057,-0.1875,0.21875,0.25
1696254078359,-0.40551758,-0.15264893,-0.8833618,-0.359375,-0.5,0.21875
1696254078400,-0.40649414,-0.15240479,-0.8743286,-0.109375,-0.625,0.15625
1696254078440,-0.4025879,-0.15411377,-0.88165283,-0.3125,-0.65625,0.25
1696254078479,-0.40161133,-0.15167236,-0.86676025,-0.140625,-0.34375,0.078125
1696254078518,-0.39575195,-0.15411377,-0.86553955,0.46875,-0.40625,0.15625
1696254078557,-0.40600586,-0.15679932,-0.88287354,0.359375,-0.203125,0.28125
1696254078598,-0.3996582,-0.15509033,-0.90704346,-1.09375,0.875,-0.015625
1696254078639,-0.40405273,-0.1482544,-0.8916626,-0.6875,0.109375,-0.125
1696254078700,-0.40185547,-0.15411377,-0.8442993,0.1875,0.875,-0.203125
1696254078723,-0.4091797,-0.14996338,-0.85235596,0.21875,-0.21875,0.03125
1696254078779,-0.40698242,-0.15484619,-0.8467407,0.03125,0.203125,0.046875
1696254078796,-0.4033203,-0.15777588,-0.8701782,-0.71875,-0.609375,0.46875
1696254078818,-0.4182129,-0.15386963,-0.88482666,-0.71875,-1.21875,0.140625
1696254078857,-0.41381836,-0.15948486,-0.87701416,-0.078125,-1.796875,0.0
1696254078898,-0.40356445,-0.16070557,-0.8579712,0.890625,-2.0,0.125
1696254078937,-0.39135742,-0.16412354,-0.8652954,2.515625,-4.890625,-0.046875
1696254078979,-0.39404297,-0.14801025,-0.85406494,7.046875,-9.078125,0.09375
1696254079018,-0.37231445,-0.12994385,-0.85650635,7.328125,-7.53125,-0.078125
1696254079059,-0.37353516,-0.124816895,-0.8909302,4.453125,-5.90625,0.03125
1696254079099,-0.37719727,-0.13092041,-0.9338989,2.0,-3.515625,0.109375
1696254079138,-0.3720703,-0.121154785,-0.90802,1.28125,-1.125,0.171875
1696254079178,-0.36547852,-0.12554932,-0.90631104,0.03125,-0.296875,0.125
1696254079219,-0.35913086,-0.12261963,-0.86260986,-0.640625,0.34375,-0.015625
1696254079258,-0.37670898,-0.12286377,-0.897522,-2.03125,-3.359375,0.40625
1696254079301,-0.35961914,-0.1260376,-0.88165283,-1.703125,-2.703125,0.34375
1696254079338,-0.3552246,-0.12677002,-0.86920166,0.078125,-0.96875,0.484375
1696254079378,-0.36254883,-0.11846924,-0.83795166,0.734375,0.0,0.546875
1696254079416,-0.35864258,-0.1260376,-0.94903564,1.8125,2.546875,0.484375
1696254079459,-0.3996582,-0.14727783,-1.0440063,-2.03125,3.375,1.03125
1696254079499,-0.36669922,-0.13800049,-0.91119385,-0.34375,2.890625,0.1875
1696254079537,-0.3684082,-0.11578369,-0.7720337,-1.40625,1.1875,-0.109375
1696254079580,-0.3671875,-0.1272583,-0.8320923,-0.25,0.328125,0.109375
1696254079620,-0.38623047,-0.13531494,-0.88409424,-0.140625,0.359375,0.21875
1696254079661,-0.39648438,-0.13018799,-0.9307251,-0.953125,-0.90625,0.453125
1696254079699,-0.38989258,-0.14630127,-0.9151001,-0.171875,-0.46875,0.421875
1696254079737,-0.38110352,-0.14654541,-0.8623657,0.34375,-0.28125,0.3125
1696254079778,-0.3786621,-0.14068604,-0.8977661,0.140625,-0.6875,0.140625
1696254079817,-0.36914062,-0.12188721,-0.85943604,0.140625,-0.015625,0.140625
1696254079858,-0.37695312,-0.1326294,-0.88897705,-0.625,0.078125,0.109375
1696254079901,-0.3864746,-0.12652588,-0.89141846,0.359375,-0.3125,0.21875
1696254079938,-0.38598633,-0.13873291,-0.89556885,-0.03125,-0.796875,0.171875
1696254079978,-0.3791504,-0.13409424,-0.89801025,0.140625,-0.671875,0.109375
1696254080018,-0.3774414,-0.13824463,-0.8928833,-0.484375,-0.703125,0.171875
1696254080059,-0.3725586,-0.13018799,-0.87628174,0.421875,-0.953125,0.109375
1696254080100,-0.37719727,-0.13165283,-0.90948486,-2.578125,-2.09375,-0.015625
1696254080116,-0.3803711,-0.13116455,-0.9151001,-2.03125,-4.265625,0.203125
1696254080182,-0.3647461,-0.13214111,-0.83551025,0.40625,-2.453125,-0.015625
1696254080218,-0.36206055,-0.1338501,-0.85479736,1.6875,-2.234375,-0.0625
1696254080237,-0.3671875,-0.12994385,-0.8999634,1.875,-3.875,0.21875
1696254080279,-0.35986328,-0.12677002,-0.9055786,0.28125,-2.3125,0.328125
1696254080322,-0.35766602,-0.12799072,-0.9006958,0.359375,-0.484375,0.28125
1696254080358,-0.36157227,-0.13140869,-0.8916626,0.890625,-0.078125,0.21875
1696254080399,-0.3503418,-0.12896729,-0.8682251,2.421875,0.953125,0.265625
1696254080439,-0.36938477,-0.12945557,-0.95196533,-2.578125,2.015625,0.390625
1696254080479,-0.3786621,-0.13458252,-0.9558716,-2.90625,1.015625,0.6875
1696254080537,-0.3671875,-0.1272583,-0.84698486,-0.921875,3.515625,0.125
1696254080558,-0.36865234,-0.1260376,-0.833313,-2.609375,-0.390625,0.375
1696254080619,-0.3713379,-0.13311768,-0.8501587,0.53125,-0.46875,0.21875
1696254080637,-0.38232422,-0.1375122,-0.8652954,0.6875,-0.328125,0.296875
1696254080679,-0.38842773,-0.1404419,-0.91070557,-0.5,-1.359375,0.84375
1696254080721,-0.38110352,-0.14898682,-0.91485596,-0.796875,-1.5625,0.84375
1696254080757,-0.3684082,-0.14385986,-0.8814087,-0.1875,-2.125,0.328125
1696254080798,-0.3581543,-0.13458252,-0.86065674,0.109375,0.09375,0.140625
1696254080840,-0.3630371,-0.14312744,-0.8904419,-0.375,-0.203125,-0.046875
1696254080879,-0.3642578,-0.14068604,-0.89019775,-0.328125,-0.53125,-0.09375
1696254080917,-0.3671875,-0.1338501,-0.880188,0.703125,0.234375,-0.109375
1696254080957,-0.36914062,-0.13165283,-0.8777466,0.9375,0.890625,0.09375
1696254080998,-0.3713379,-0.13995361,-0.87872314,1.84375,2.203125,0.015625
1696254081040,-0.37890625,-0.1416626,-0.88897705,1.453125,1.359375,-0.09375
1696254081098,-0.3774414,-0.1350708,-0.89019775,0.5625,0.125,0.0625
1696254081144,-0.37768555,-0.13092041,-0.87384033,0.078125,0.265625,0.171875
1696254081157,-0.3713379,-0.12677002,-0.8855591,0.140625,0.078125,0.09375
1696254081196,-0.3894043,-0.13214111,-0.9507446,-1.171875,-0.8125,0.265625
1696254081236,-0.3779297,-0.13067627,-0.8948364,0.421875,-0.578125,0.015625
1696254081279,-0.37426758,-0.12750244,-0.87579346,0.828125,-0.015625,0.015625
1696254081317,-0.37548828,-0.12359619,-0.866272,0.6875,0.140625,0.078125
1696254081359,-0.37353516,-0.12921143,-0.88531494,0.28125,0.140625,-0.109375
1696254081400,-0.3779297,-0.12701416,-0.8916626,-0.0625,0.078125,0.203125
1696254081458,-0.3815918,-0.1296997,-0.8960571,-0.484375,-0.5625,0.09375
1696254081463,-0.3857422,-0.12799072,-0.8862915,-0.546875,-0.40625,0.09375
1696254081503,-0.36767578,-0.12384033,-0.84747314,0.9375,1.34375,0.03125
1696254081538,-0.38891602,-0.12213135,-0.88067627,1.375,1.6875,-0.21875
1696254081578,-0.38964844,-0.12384033,-0.88848877,0.484375,0.578125,0.125
1696254081622,-0.39135742,-0.121154785,-0.90338135,-0.78125,-0.8125,0.234375
1696254081657,-0.38598633,-0.13214111,-0.9026489,-0.75,-0.859375,0.328125
1696254081698,-0.38916016,-0.12994385,-0.92071533,-1.09375,-0.53125,0.3125
1696254081738,-0.38354492,-0.1326294,-0.8870239,0.09375,-0.140625,-0.03125
1696254081778,-0.38256836,-0.13189697,-0.87286377,0.21875,-0.046875,0.09375
1696254081820,-0.37548828,-0.12432861,-0.8731079,0.078125,0.234375,0.15625
1696254081859,-0.38842773,-0.12408447,-0.895813,-0.203125,0.078125,0.3125
1696254081898,-0.390625,-0.13702393,-0.8833618,0.296875,0.484375,0.1875
1696254081939,-0.3876953,-0.12310791,-0.88653564,0.46875,-0.03125,0.40625
1696254081980,-0.39208984,-0.12750244,-0.88726807,-0.8125,-0.46875,0.390625
1696254082020,-0.3942871,-0.13531494,-0.8867798,-1.03125,-0.1875,0.265625
1696254082059,-0.38500977,-0.12677002,-0.89630127,-0.421875,0.0625,0.03125
1696254082099,-0.390625,-0.12896729,-0.87823486,-0.09375,-0.359375,0.0625
1696254082139,-0.38549805,-0.12799072,-0.8706665,0.171875,0.03125,0.15625
1696254082179,-0.38671875,-0.12872314,-0.8648071,0.53125,0.234375,0.078125
1696254082220,-0.39770508,-0.13775635,-0.9092407,-0.59375,-0.046875,0.046875
1696254082259,-0.38891602,-0.13873291,-0.8821411,0.3125,-0.390625,0.03125
1696254082299,-0.38842773,-0.12896729,-0.8999634,-0.140625,-1.34375,0.03125
1696254082339,-0.39770508,-0.1338501,-0.8765259,0.09375,-2.5,0.109375
1696254082380,-0.37426758,-0.13555908,-0.85723877,1.609375,-2.796875,0.171875
1696254082418,-0.38354492,-0.1350708,-0.8916626,3.34375,-3.03125,0.0625
1696254082458,-0.3774414,-0.11627197,-0.8999634,3.375,-2.921875,-0.015625
1696254082500,-0.37670898,-0.10870361,-0.88726807,2.109375,-1.09375,0.140625
1696254082539,-0.38476562,-0.11529541,-0.87677,0.65625,-1.421875,0.109375
1696254082578,-0.3713379,-0.11553955,-0.8862915,-0.578125,-1.28125,0.3125
1696254082620,-0.37231445,-0.11773682,-0.8833618,-0.765625,-1.515625,0.296875
1696254082659,-0.3696289,-0.12261963,-0.8960571,-0.71875,-1.734375,0.3125
1696254082698,-0.37304688,-0.121154785,-0.895813,-0.46875,-1.84375,0.28125
1696254082740,-0.3696289,-0.11431885,-0.8543091,-0.484375,-1.4375,0.453125
1696254082756,-0.34448242,-0.11773682,-0.8323364,-2.125,0.421875,0.703125
1696254082799,-0.3803711,-0.14190674,-0.9885864,-3.625,2.25,0.96875
1696254082841,-0.3852539,-0.12750244,-0.9702759,-2.171875,1.40625,0.703125
1696254082879,-0.3605957,-0.12945557,-0.8428345,-1.953125,2.859375,0.140625
1696254082917,-0.37695312,-0.12872314,-0.819397,-2.84375,-1.578125,0.078125
1696254082958,-0.37548828,-0.13238525,-0.8501587,0.203125,-1.328125,0.140625
1696254082997,-0.38085938,-0.12896729,-0.87701416,0.671875,-0.328125,0.140625
1696254083039,-0.37695312,-0.13482666,-0.92071533,0.28125,-1.171875,0.328125
1696254083078,-0.3798828,-0.13995361,-0.9356079,-0.8125,-0.296875,0.359375
1696254083140,-0.36791992,-0.14093018,-0.8850708,-0.4375,-0.828125,0.265625
1696254083158,-0.3630371,-0.13409424,-0.8731079,0.46875,0.109375,-0.015625
1696254083201,-0.37475586,-0.12506104,-0.8718872,-0.09375,0.515625,0.21875
1696254083260,-0.375,-0.13946533,-0.88531494,-0.125,0.4375,-0.015625
1696254083277,-0.38256836,-0.13287354,-0.88604736,-0.359375,0.078125,0.25
1696254083318,-0.38330078,-0.13214111,-0.895813,-0.265625,-0.234375,0.265625
1696254083359,-0.38354492,-0.14068604,-0.87872314,0.28125,0.21875,0.203125
1696254083420,-0.37719727,-0.13214111,-0.8858032,0.234375,0.625,-0.109375
1696254083439,-0.3852539,-0.1350708,-0.87750244,-0.84375,0.640625,0.25
1696254083478,-0.38061523,-0.14117432,-0.8838501,-0.8125,0.234375,0.171875
1696254083540,-0.38598633,-0.13433838,-0.8875122,-0.453125,-0.3125,0.265625
1696254083557,-0.3852539,-0.13775635,-0.90411377,-0.59375,-0.34375,0.15625
1696254083618,-0.38208008,-0.13946533,-0.8792114,0.40625,0.25,0.21875
1696254083638,-0.37939453,-0.13848877,-0.88165283,0.3125,-0.078125,0.0
1696254083677,-0.3852539,-0.13580322,-0.88238525,-0.109375,-0.390625,0.234375
1696254083719,-0.3803711,-0.13531494,-0.881897,-0.578125,-0.140625,0.078125
1696254083759,-0.38793945,-0.13409424,-0.8740845,-0.28125,0.78125,-0.109375
1696254083820,-0.38549805,-0.14019775,-0.88482666,-0.34375,-0.640625,0.203125
1696254083837,-0.3930664,-0.13897705,-0.89434814,-0.0625,-0.296875,0.140625
1696254083899,-0.38330078,-0.1404419,-0.87457275,-0.296875,-0.609375,0.21875
1696254083917,-0.3881836,-0.13848877,-0.894104,-0.453125,-0.0625,0.1875
1696254083958,-0.38500977,-0.13946533,-0.87164307,-0.5,-0.59375,0.328125
1696254083998,-0.38891602,-0.13970947,-0.88116455,-0.4375,-0.84375,0.046875
1696254084038,-0.3852539,-0.13726807,-0.8772583,-0.25,-0.4375,0.140625
1696254084057,-0.38110352,-0.1404419,-0.90582275,-0.4375,-0.234375,0.265625
1696254084099,-0.3894043,-0.14239502,-0.8916626,-0.140625,-0.234375,0.0
1696254084138,-0.3840332,-0.13702393,-0.87872314,-0.015625,-0.515625,0.109375
1696254084178,-0.39086914,-0.1350708,-0.88165283,-0.03125,-0.265625,0.25
1696254084220,-0.3876953,-0.13873291,-0.8892212,-0.515625,-0.625,0.234375
1696254084264,-0.3852539,-0.14215088,-0.87823486,0.265625,-0.65625,0.1875
1696254084300,-0.38500977,-0.14093018,-0.8826294,0.171875,-0.78125,0.328125
1696254084339,-0.3840332,-0.13604736,-0.8718872,0.0625,-0.3125,0.21875
1696254084378,-0.3779297,-0.13970947,-0.88946533,-0.4375,-1.015625,0.25
1696254084419,-0.3828125,-0.14337158,-0.8987427,-0.90625,-0.75,0.34375
1696254084460,-0.37670898,-0.14312744,-0.87628174,-0.640625,-0.078125,0.21875
1696254084497,-0.38134766,-0.14727783,-0.87677,0.1875,-0.71875,0.046875
1696254084538,-0.38134766,-0.14727783,-0.91290283,1.109375,-1.328125,0.078125
1696254084580,-0.3791504,-0.13922119,-0.85821533,4.328125,-1.640625,-0.140625
1696254084619,-0.38427734,-0.13238525,-0.8777466,4.046875,-2.359375,0.0
1696254084659,-0.3762207,-0.12359619,-0.87823486,3.75,-1.5625,-0.109375
1696254084700,-0.38061523,-0.11480713,-0.8740845,1.53125,-0.796875,-0.09375
1696254084741,-0.38964844,-0.117248535,-0.9043579,0.0,-1.71875,0.390625
1696254084781,-0.36865234,-0.124572754,-0.8897095,-0.09375,-1.765625,0.546875
1696254084821,-0.3708496,-0.124572754,-0.8858032,-0.421875,-1.515625,0.28125
1696254084859,-0.3659668,-0.12164307,-0.8599243,0.40625,-0.5,0.09375
1696254084900,-0.36450195,-0.12554932,-0.87677,-0.140625,0.71875,0.28125
1696254084938,-0.36279297,-0.12994385,-0.9668579,-4.515625,3.46875,0.484375
1696254084977,-0.42114258,-0.15777588,-0.98321533,-3.15625,1.609375,0.84375
1696254085021,-0.37719727,-0.13336182,-0.8845825,-3.59375,2.171875,0.171875
1696254085059,-0.37890625,-0.12750244,-0.80059814,0.96875,2.40625,-0.421875
1696254085102,-0.37939453,-0.12530518,-0.8543091,-0.265625,-0.78125,0.03125
1696254085139,-0.38891602,-0.12750244,-0.8591919,0.5625,-0.671875,0.25
1696254085178,-0.39453125,-0.13580322,-0.89141846,0.640625,-0.875,0.515625
1696254085219,-0.39575195,-0.1416626,-0.90997314,0.421875,-1.078125,0.09375
1696254085259,-0.375,-0.1338501,-0.87213135,2.109375,0.0625,-0.203125
1696254085298,-0.39331055,-0.12896729,-0.88067627,1.4375,-1.53125,-0.140625
1696254085337,-0.37597656,-0.12701416,-0.87335205,0.640625,-2.703125,0.125
1696254085378,-0.37280273,-0.12945557,-0.8374634,0.8125,-2.03125,0.1875
1696254085397,-0.375,-0.12188721,-0.86920166,-0.109375,-3.65625,0.28125
1696254085461,-0.38012695,-0.11993408,-0.90289307,0.859375,-2.671875,0.46875
1696254085479,-0.37841797,-0.13555908,-0.9319458,1.609375,-1.09375,0.484375
1696254085539,-0.36499023,-0.12628174,-0.8897095,1.671875,0.5,0.15625
1696254085560,-0.3701172,-0.12628174,-0.9404907,-0.828125,4.171875,0.453125
1696254085619,-0.39941406,-0.124572754,-0.93536377,-3.09375,3.796875,0.953125
1696254085637,-0.37573242,-0.1362915,-0.892395,-3.328125,4.359375,0.625
1696254085680,-0.38232422,-0.1326294,-0.8274536,-2.390625,-0.046875,0.28125
1696254085719,-0.37963867,-0.12432861,-0.8406372,0.484375,-1.484375,0.046875
1696254085760,-0.38354492,-0.12774658,-0.8699341,0.125,-0.96875,0.1875
1696254085798,-0.39526367,-0.12554932,-0.8928833,-0.65625,-2.078125,0.421875
1696254085838,-0.39013672,-0.13604736,-0.90948486,-0.765625,-1.0,0.28125
1696254085878,-0.38500977,-0.14312744,-0.88287354,-1.484375,-2.125,0.234375
1696254085918,-0.3779297,-0.13214111,-0.87677,0.515625,-0.265625,0.125
1696254085959,-0.38476562,-0.13067627,-0.8674927,0.0625,-0.09375,0.296875
1696254085998,-0.37768555,-0.13189697,-0.8777466,0.0625,-0.65625,0.125
1696254086038,-0.3864746,-0.13360596,-0.88604736,-0.109375,-0.609375,0.109375
1696254086097,-0.3947754,-0.13336182,-0.8887329,-0.0625,-0.453125,0.296875
1696254086119,-0.38549805,-0.13189697,-0.8640747,0.3125,0.203125,0.015625
1696254086162,-0.3864746,-0.13189697,-0.8989868,0.046875,0.8125,0.0
1696254086197,-0.38354492,-0.1428833,-0.8831177,0.203125,-0.515625,0.140625
1696254086239,-0.38330078,-0.1326294,-0.88165283,-0.0625,-0.40625,0.265625
1696254086279,-0.39160156,-0.13189697,-0.8850708,-0.46875,-0.234375,0.34375
1696254086318,-0.38598633,-0.12921143,-0.9053345,-0.875,-0.375,0.234375
1696254086358,-0.390625,-0.13360596,-0.88531494,0.140625,-0.625,0.0625
1696254086402,-0.3840332,-0.13336182,-0.8723755,0.1875,-0.8125,0.109375
1696254086461,-0.38867188,-0.12945557,-0.8777466,0.078125,-0.421875,0.25
1696254086479,-0.37475586,-0.13580322,-0.87286377,0.65625,0.546875,0.28125
1696254086518,-0.3918457,-0.13604736,-0.8862915,1.015625,0.53125,0.0
1696254086559,-0.39282227,-0.128479,-0.8882446,0.5625,0.390625,-0.046875
1696254086600,-0.39111328,-0.1272583,-0.89263916,-0.203125,0.0625,0.140625
1696254086638,-0.38745117,-0.12701416,-0.8921509,-0.25,-0.234375,0.25
1696254086680,-0.38867188,-0.13116455,-0.8687134,-0.125,0.265625,0.078125
1696254086699,-0.39038086,-0.13140869,-0.88604736,-0.171875,-0.609375,0.28125
1696254086738,-0.39453125,-0.13140869,-0.87628174,-0.5625,-0.953125,0.28125
1696254086818,-0.39282227,-0.12628174,-0.878479,-0.3125,-0.84375,0.125
1696254086822,-0.39208984,-0.13409424,-0.8945923,-0.5,-0.640625,0.140625
1696254086859,-0.38964844,-0.13018799,-0.88116455,0.46875,-0.546875,0.078125
1696254086900,-0.38183594,-0.13165283,-0.8689575,0.4375,-0.78125,0.234375
1696254086941,-0.39331055,-0.13531494,-0.91778564,1.015625,-1.453125,0.015625
1696254086980,-0.39086914,-0.12188721,-0.86431885,2.0625,-1.515625,0.265625
1696254087018,-0.38256836,-0.11651611,-0.85357666,0.734375,-2.0,0.265625
1696254087059,-0.37963867,-0.12335205,-0.8870239,0.671875,-3.375,0.078125
1696254087101,-0.37524414,-0.12188721,-0.87701416,0.71875,-4.140625,0.1875
1696254087137,-0.37451172,-0.1194458,-0.89385986,0.703125,-3.125,0.265625
1696254087181,-0.37548828,-0.12677002,-0.91119385,0.765625,-1.40625,0.203125
1696254087218,-0.37451172,-0.12408447,-0.89849854,0.171875,-0.921875,0.109375
1696254087259,-0.3708496,-0.12188721,-0.8765259,-0.65625,-0.328125,0.15625
1696254087300,-0.36865234,-0.12335205,-0.88482666,-2.21875,1.4375,0.28125
1696254087340,-0.38964844,-0.13287354,-0.9534302,-3.3125,1.375,0.71875
1696254087379,-0.3791504,-0.1362915,-0.9212036,-1.53125,1.796875,0.328125
1696254087420,-0.3737793,-0.12359619,-0.81915283,-2.03125,1.3125,-0.015625
1696254087460,-0.37280273,-0.12872314,-0.84381104,-0.765625,-1.171875,0.3125
1696254087498,-0.38208008,-0.13580322,-0.8713989,0.03125,-0.546875,0.34375
1696254087540,-0.38916016,-0.13555908,-0.91119385,-0.671875,-0.75,0.359375
1696254087580,-0.39282227,-0.14019775,-0.91070557,-0.765625,-0.359375,0.34375
1696254087619,-0.38256836,-0.13824463,-0.8855591,0.71875,0.21875,0.046875
1696254087658,-0.37719727,-0.13897705,-0.8882446,0.390625,-0.90625,0.078125
1696254087699,-0.3701172,-0.1326294,-0.8604126,0.734375,-0.078125,0.1875
1696254087738,-0.3774414,-0.13238525,-0.8821411,-0.515625,-0.21875,0.046875
1696254087778,-0.38720703,-0.13970947,-0.8862915,0.609375,-0.375,0.078125
1696254087819,-0.3869629,-0.12921143,-0.8928833,-0.46875,-0.6875,0.109375
1696254087858,-0.3876953,-0.13287354,-0.90045166,-0.34375,-0.4375,0.1875
1696254087901,-0.38354492,-0.13653564,-0.89068604,-0.46875,-0.0625,0.1875
1696254087938,-0.38623047,-0.13482666,-0.87750244,-0.390625,-0.234375,0.09375
1696254087980,-0.3828125,-0.13824463,-0.8748169,-0.09375,-0.328125,0.1875
1696254087997,-0.37646484,-0.1296997,-0.8713989,-0.34375,-0.390625,0.1875
1696254088038,-0.38354492,-0.13189697,-0.88409424,-0.828125,-0.296875,0.390625
1696254088081,-0.39038086,-0.1404419,-0.9168091,-0.765625,-0.328125,0.1875
1696254088119,-0.37841797,-0.13897705,-0.87872314,0.203125,-0.40625,0.265625
1696254088161,-0.38232422,-0.13238525,-0.87994385,0.328125,-0.4375,0.109375
1696254088198,-0.38427734,-0.13116455,-0.8735962,-0.046875,-0.09375,0.234375
1696254088240,-0.3815918,-0.13311768,-0.87286377,-0.296875,-0.046875,0.171875
1696254088278,-0.37646484,-0.12872314,-0.8911743,-0.4375,-0.359375,-0.015625
1696254088321,-0.38134766,-0.13555908,-0.87823486,0.203125,-0.375,0.109375
1696254088360,-0.38256836,-0.13922119,-0.9031372,0.0,-0.53125,0.109375
1696254088400,-0.39135742,-0.13580322,-0.8875122,-0.34375,-0.625,0.3125
1696254088438,-0.37817383,-0.13970947,-0.8928833,0.015625,-0.984375,0.09375
1696254088500,-0.37524414,-0.13677979,-0.9026489,0.859375,-1.53125,0.03125
1696254088519,-0.37890625,-0.13140869,-0.8909302,2.203125,-1.53125,0.015625
1696254088558,-0.38208008,-0.13189697,-0.87579346,2.265625,-1.125,-0.171875
1696254088599,-0.38842773,-0.13043213,-0.8953247,-0.59375,-2.34375,0.140625
1696254088639,-0.37573242,-0.1338501,-0.8953247,0.21875,-2.125,0.359375
1696254088680,-0.37158203,-0.1272583,-0.8867798,0.203125,-2.609375,0.375
1696254088720,-0.36572266,-0.12506104,-0.87994385,0.984375,-1.234375,0.078125
1696254088758,-0.36669922,-0.12213135,-0.8753052,0.046875,-0.5,0.0
1696254088800,-0.36743164,-0.13140869,-0.88604736,-0.515625,-1.03125,0.21875
1696254088839,-0.37939453,-0.12628174,-0.89508057,-0.1875,-0.796875,0.3125
1696254088878,-0.37719727,-0.12994385,-0.8928833,0.3125,-0.53125,0.296875
1696254088920,-0.3671875,-0.12359619,-0.85723877,0.828125,0.921875,0.328125
1696254088958,-0.3684082,-0.1338501,-0.93341064,-2.28125,1.125,0.5
1696254089000,-0.37963867,-0.13458252,-0.9277954,-2.265625,0.9375,0.4375
1696254089058,-0.36645508,-0.1296997,-0.8875122,-1.375,1.453125,0.0625
1696254089077,-0.3720703,-0.12945557,-0.83428955,-1.484375,0.40625,0.09375
1696254089118,-0.37817383,-0.1375122,-0.8735962,0.359375,-0.734375,0.21875
1696254089180,-0.37573242,-0.13531494,-0.87628174,0.734375,-0.1875,0.140625
1696254089199,-0.3828125,-0.14312744,-0.8904419,0.515625,-0.421875,0.140625
1696254089259,-0.37890625,-0.13922119,-0.90509033,-0.15625,-0.375,0.234375
1696254089299,-0.38012695,-0.13165283,-0.9048462,-0.28125,0.234375,0.171875
1696254089318,-0.3708496,-0.1362915,-0.87506104,0.25,0.640625,-0.046875
1696254089339,-0.36645508,-0.13140869,-0.850647,-0.46875,0.03125,0.171875
1696254089379,-0.37280273,-0.13458252,-0.8740845,-0.1875,-0.5,0.125
1696254089419,-0.37939453,-0.13360596,-0.8916626,-0.40625,-0.203125,0.4375
1696254089460,-0.38867188,-0.13238525,-0.911438,-0.03125,-0.921875,0.125
1696254089499,-0.37426758,-0.13775635,-0.90997314,0.046875,-1.265625,0.21875
1696254089543,-0.37451172,-0.14508057,-0.90802,-1.84375,-1.609375,0.0
1696254089578,-0.37280273,-0.12921143,-0.8743286,-0.203125,-2.34375,0.140625
1696254089618,-0.36816406,-0.12628174,-0.82818604,2.328125,-1.046875,0.015625
1696254089658,-0.36865234,-0.12677002,-0.8670044,2.46875,-2.75,0.078125
1696254089699,-0.37231445,-0.12335205,-0.8870239,0.96875,-3.96875,0.296875
1696254089738,-0.3635254,-0.1350708,-0.9077759,0.53125,-1.109375,0.203125
1696254089779,-0.36621094,-0.13140869,-0.8994751,-0.28125,0.078125,0.46875
1696254089819,-0.36572266,-0.13360596,-0.92755127,-0.25,1.734375,0.671875
1696254089858,-0.375,-0.13873291,-0.94781494,-1.140625,1.828125,0.515625
1696254089900,-0.35424805,-0.117492676,-0.8274536,-3.0625,2.5,0.484375
1696254089939,-0.37963867,-0.1350708,-0.8665161,-3.515625,0.125,0.328125
1696254089980,-0.3762207,-0.13800049,-0.8792114,-3.609375,-3.171875,0.34375
1696254090018,-0.3720703,-0.14263916,-0.84820557,1.03125,-1.953125,0.21875
1696254090060,-0.36791992,-0.13970947,-0.8911743,1.9375,0.71875,0.125
1696254090099,-0.3791504,-0.13531494,-0.894104,0.9375,-0.546875,0.203125
1696254090138,-0.3779297,-0.1494751,-0.93463135,-1.140625,0.15625,0.34375
1696254090180,-0.36108398,-0.14312744,-0.8731079,-1.375,-1.59375,0.09375
1696254090220,-0.36376953,-0.13897705,-0.8411255,1.171875,0.1875,-0.046875
1696254090279,-0.36523438,-0.12384033,-0.85284424,1.078125,0.4375,0.0
1696254090298,-0.37426758,-0.13067627,-0.95147705,-1.984375,0.53125,0.359375
1696254090339,-0.37231445,-0.14263916,-0.91778564,-1.28125,-0.890625,0.34375
1696254090381,-0.37817383,-0.14141846,-0.89141846,0.171875,-0.671875,0.09375
1696254090419,-0.37036133,-0.13238525,-0.878479,1.484375,0.90625,-0.03125
1696254090457,-0.36157227,-0.13116455,-0.8591919,1.6875,0.859375,0.078125
1696254090501,-0.36547852,-0.13726807,-0.8880005,0.109375,0.515625,0.171875
1696254090538,-0.37304688,-0.13458252,-0.88409424,0.171875,-0.4375,0.296875
1696254090579,-0.38427734,-0.13458252,-0.88409424,0.0625,-0.34375,0.234375
1696254090638,-0.38208008,-0.13287354,-0.8933716,0.390625,0.390625,0.125
1696254090657,-0.3774414,-0.13165283,-0.93218994,-0.90625,0.578125,0.109375
1696254090678,-0.38232422,-0.14019775,-0.89923096,-0.453125,-0.40625,0.296875
1696254090719,-0.37158203,-0.13946533,-0.8526001,0.109375,-0.984375,0.171875
1696254090757,-0.37451172,-0.1296997,-0.86553955,0.375,-0.578125,0.125
1696254090798,-0.37890625,-0.13214111,-0.91192627,-0.4375,-1.109375,0.25
1696254090842,-0.38208008,-0.14215088,-0.90289307,-0.375,-0.5,0.078125
1696254090879,-0.37451172,-0.13604736,-0.88238525,-0.171875,-0.40625,0.03125
1696254090921,-0.3762207,-0.13922119,-0.88653564,-0.46875,-0.25,0.109375
1696254090958,-0.37646484,-0.13995361,-0.87628174,-0.71875,-0.34375,0.140625
1696254090998,-0.37890625,-0.13043213,-0.87384033,-0.359375,0.0,0.125
1696254091038,-0.37524414,-0.1404419,-0.8880005,0.046875,-0.125,0.21875
1696254091078,-0.38134766,-0.1416626,-0.89630127,-0.46875,-0.28125,0.171875
1696254091138,-0.38110352,-0.1375122,-0.87750244,-0.0625,-0.359375,0.09375
1696254091158,-0.3791504,-0.14068604,-0.9024048,-0.265625,-0.015625,0.21875
1696254091200,-0.38745117,-0.128479,-0.90216064,-0.359375,-0.8125,0.1875
1696254091238,-0.37158203,-0.13897705,-0.8718872,0.359375,-0.609375,0.1875
1696254091277,-0.37353516,-0.14337158,-0.9043579,0.6875,-1.296875,0.078125
1696254091318,-0.375,-0.1338501,-0.8916626,2.078125,-2.0,0.1875
1696254091358,-0.37719727,-0.13458252,-0.864563,3.125,-1.21875,-0.015625
1696254091399,-0.375,-0.12652588,-0.866272,3.046875,-0.953125,0.15625
1696254091460,-0.37060547,-0.12237549,-0.8987427,1.515625,-1.703125,0.125
1696254091478,-0.37280273,-0.1260376,-0.8833618,0.984375,-1.71875,0.0625
1696254091520,-0.37426758,-0.12213135,-0.88848877,-0.6875,-2.890625,0.265625
1696254091562,-0.36108398,-0.12188721,-0.9109497,-0.625,-2.15625,0.171875
1696254091598,-0.36132812,-0.12677002,-0.9043579,0.4375,-1.296875,0.078125
1696254091640,-0.3635254,-0.12286377,-0.9104614,-0.203125,-2.578125,0.484375
1696254091679,-0.3605957,-0.11602783,-0.8545532,-0.203125,-2.46875,0.421875
1696254091718,-0.33642578,-0.12261963,-0.85650635,-1.078125,-1.484375,0.703125
1696254091759,-0.37597656,-0.14605713,-0.9673462,-4.8125,2.0,0.890625
1696254091800,-0.37963867,-0.15875244,-1.0667114,-3.109375,1.71875,0.546875
1696254091840,-0.3408203,-0.13897705,-0.8296509,-1.40625,2.1875,-0.015625
1696254091880,-0.3713379,-0.12750244,-0.7949829,1.140625,-0.859375,-0.25
1696254091940,-0.36376953,-0.13800049,-0.85723877,0.59375,0.265625,-0.140625
1696254091978,-0.37768555,-0.14190674,-0.8882446,0.609375,-0.390625,0.03125
1696254091984,-0.37817383,-0.12896729,-0.9221802,-0.328125,-0.21875,0.359375
1696254092019,-0.3786621,-0.13897705,-0.9417114,-0.375,0.109375,0.328125
1696254092059,-0.3737793,-0.1350708,-0.8833618,0.03125,1.21875,0.109375
1696254092101,-0.3623047,-0.13238525,-0.87701416,-0.1875,0.796875,0.15625
1696254092138,-0.36547852,-0.13604736,-0.86676025,-0.484375,0.546875,0.09375
1696254092180,-0.3725586,-0.13848877,-0.8999634,-0.6875,0.65625,0.25
1696254092218,-0.37695312,-0.13433838,-0.88604736,0.0,0.8125,0.1875
1696254092278,-0.38330078,-0.13946533,-0.90338135,-0.359375,0.125,0.203125
1696254092298,-0.3876953,-0.14141846,-0.8858032,-0.8125,0.40625,0.0625
1696254092341,-0.3779297,-0.1416626,-0.87042236,0.5625,-0.390625,0.015625
1696254092378,-0.3720703,-0.1350708,-0.87872314,1.1875,0.15625,-0.171875
1696254092417,-0.37182617,-0.13531494,-0.861145,1.359375,-0.015625,0.0625
1696254092459,-0.37646484,-0.13555908,-0.89190674,0.5,-0.5,0.015625
1696254092498,-0.3881836,-0.13580322,-0.90631104,-0.078125,-0.4375,0.375
1696254092537,-0.39038086,-0.13970947,-0.9204712,-0.546875,-0.75,0.265625
1696254092578,-0.36743164,-0.14239502,-0.8809204,0.15625,-0.828125,0.078125
1696254092620,-0.3803711,-0.13922119,-0.9212036,-0.46875,-1.984375,0.171875
1696254092661,-0.38476562,-0.13800049,-0.8843384,0.625,-3.71875,0.234375
1696254092698,-0.3659668,-0.12921143,-0.8328247,3.078125,-2.75,0.046875
1696254092739,-0.36987305,-0.12042236,-0.8623657,2.859375,-2.265625,-0.15625
1696254092777,-0.3671875,-0.12310791,-0.8960571,1.34375,-2.90625,0.1875
1696254092818,-0.3659668,-0.12799072,-0.88726807,-0.0625,-2.15625,0.140625
1696254092857,-0.37451172,-0.121398926,-0.9043579,-0.5625,-0.421875,0.40625
1696254092899,-0.35668945,-0.1194458,-0.87213135,-0.890625,1.625,0.421875
1696254092939,-0.3713379,-0.13604736,-0.958313,-4.515625,0.828125,0.578125
1696254092978,-0.37353516,-0.14117432,-0.93927,-2.5,-0.765625,0.734375
1696254093019,-0.35229492,-0.13555908,-0.87213135,-2.6875,1.375,-0.015625
1696254093062,-0.36694336,-0.13018799,-0.8430786,-1.09375,-0.375,0.125
1696254093099,-0.3659668,-0.1404419,-0.8701782,0.6875,-0.265625,-0.078125
1696254093139,-0.3894043,-0.1482544,-0.9043579,-0.03125,0.078125,0.328125
1696254093178,-0.3815918,-0.14019775,-0.8948364,-0.359375,-0.515625,0.453125
1696254093218,-0.36572266,-0.14581299,-0.9031372,-0.515625,0.21875,0.265625
1696254093257,-0.36450195,-0.13922119,-0.8718872,0.453125,-0.40625,0.09375
1696254093277,-0.37280273,-0.124816895,-0.86431885,-0.421875,-0.96875,0.1875
1696254093340,-0.36987305,-0.13702393,-0.89556885,-1.4375,-0.484375,0.296875
1696254093357,-0.37475586,-0.14605713,-0.90631104,-1.203125,-0.84375,0.234375
1696254093398,-0.37573242,-0.14508057,-0.89630127,0.046875,0.484375,0.125
1696254093439,-0.37109375,-0.14508057,-0.90826416,0.015625,0.546875,0.125
1696254093499,-0.36938477,-0.14801025,-0.87701416,0.109375,1.1875,-0.09375
1696254093517,-0.37402344,-0.14678955,-0.8735962,-0.21875,0.34375,0.171875
1696254093559,-0.3737793,-0.14776611,-0.8682251,-0.171875,-0.03125,0.21875
1696254093618,-0.38012695,-0.13775635,-0.8777466,0.078125,0.078125,0.0
1696254093638,-0.375,-0.14483643,-0.88897705,0.296875,0.046875,0.078125
1696254093701,-0.37597656,-0.14337158,-0.89923096,-0.234375,-0.40625,0.046875
1696254093718,-0.375,-0.14923096,-0.8826294,0.40625,0.015625,0.109375
1696254093759,-0.38354492,-0.14263916,-0.8814087,-0.046875,-0.1875,0.3125
1696254093798,-0.37548828,-0.14019775,-0.8779907,-0.296875,0.546875,0.265625
1696254093840,-0.3828125,-0.14581299,-0.8843384,-0.59375,-0.390625,0.3125
1696254093880,-0.38256836,-0.13897705,-0.8850708,-0.3125,-0.546875,0.265625
1696254093920,-0.37963867,-0.14752197,-0.88726807,-0.09375,-0.15625,0.25
1696254093960,-0.37182617,-0.14239502,-0.8897095,-0.28125,0.03125,0.15625
1696254093998,-0.37402344,-0.1428833,-0.89385986,-0.25,-0.796875,0.125
1696254094060,-0.37695312,-0.14190674,-0.8792114,0.0625,-0.546875,0.375
1696254094078,-0.38012695,-0.13677979,-0.88531494,-0.28125,-0.328125,0.109375
1696254094119,-0.38476562,-0.14434814,-0.8909302,0.140625,-0.234375,0.0625
1696254094158,-0.38354492,-0.14703369,-0.8875122,0.453125,-0.671875,0.015625
1696254094198,-0.38012695,-0.14239502,-0.90411377,1.125,-1.140625,0.109375
1696254094239,-0.38793945,-0.1416626,-0.87579346,4.5625,-2.09375,-0.078125
1696254094279,-0.3623047,-0.12237549,-0.850647,4.703125,-2.84375,-0.09375
1696254094340,-0.37768555,-0.12286377,-0.8945923,2.46875,-3.078125,0.03125
1696254094358,-0.36816406,-0.12237549,-0.88531494,2.0625,-1.0625,-0.015625
1696254094441,-0.36987305,-0.120910645,-0.89385986,1.25,-1.234375,-0.046875
1696254094444,-0.3708496,-0.113586426,-0.8987427,0.453125,-2.09375,0.109375
1696254094479,-0.35791016,-0.11431885,-0.8897095,-0.421875,-0.96875,0.21875
1696254094518,-0.36010742,-0.12164307,-0.8792114,-0.96875,-0.59375,0.1875
1696254094560,-0.36743164,-0.12188721,-0.8743286,-0.234375,0.265625,0.0625
1696254094578,-0.36889648,-0.11627197,-0.89263916,0.421875,2.25,0.09375
1696254094618,-0.36914062,-0.12310791,-0.9158325,-0.40625,2.171875,0.3125
1696254094659,-0.3894043,-0.13018799,-0.9458618,-2.203125,1.390625,0.71875
1696254094704,-0.38330078,-0.12628174,-0.90802,-1.8125,2.78125,0.3125
1696254094761,-0.37036133,-0.12237549,-0.8394165,-2.078125,1.28125,0.03125
1696254094778,-0.37353516,-0.13189697,-0.8440552,-1.5625,0.390625,0.03125
1696254094842,-0.38330078,-0.13311768,-0.84747314,-0.515625,0.15625,0.203125
1696254094879,-0.3930664,-0.13360596,-0.90289307,-0.140625,-0.3125,0.171875
1696254094898,-0.39575195,-0.14019775,-0.8948364,0.34375,-0.296875,0.1875
1696254094941,-0.38598633,-0.13726807,-0.9065552,0.015625,-0.328125,0.140625
1696254094978,-0.38330078,-0.13433838,-0.89678955,-0.65625,-0.359375,0.25
1696254095018,-0.36938477,-0.13140869,-0.8687134,-0.21875,0.25,0.21875
1696254095060,-0.37817383,-0.12530518,-0.8665161,-0.421875,0.375,0.0625
1696254095099,-0.38061523,-0.12896729,-0.86920166,-0.796875,-0.546875,0.09375
1696254095138,-0.38891602,-0.12530518,-0.897522,-0.21875,-0.46875,0.21875
1696254095200,-0.38916016,-0.13726807,-0.87872314,0.203125,0.046875,0.203125
1696254095218,-0.38427734,-0.13482666,-0.8999634,-0.40625,0.125,0.171875
1696254095260,-0.38134766,-0.13800049,-0.8677368,-0.734375,0.3125,0.375
1696254095302,-0.38671875,-0.13946533,-0.87042236,-0.34375,-0.375,0.40625
1696254095341,-0.38427734,-0.13360596,-0.87335205,0.015625,-0.328125,0.296875
1696254095384,-0.39135742,-0.13433838,-0.8982544,0.21875,-0.09375,0.125
1696254095420,-0.38964844,-0.1326294,-0.88848877,-0.234375,-0.40625,0.390625
1696254095459,-0.3947754,-0.13702393,-0.895813,-0.953125,-0.828125,0.265625
1696254095497,-0.38183594,-0.1404419,-0.8755493,0.078125,-0.234375,0.140625
1696254095538,-0.38452148,-0.13531494,-0.8723755,-0.21875,-0.171875,0.234375
1696254095598,-0.38671875,-0.13604736,-0.9011841,-0.609375,-0.21875,0.296875
1696254095639,-0.3876953,-0.13946533,-0.8838501,-0.546875,-0.34375,0.21875
1696254095678,-0.390625,-0.13555908,-0.8845825,-0.296875,-0.265625,0.078125
1696254095699,-0.3864746,-0.13580322,-0.88360596,-0.1875,-0.21875,0.265625
1696254095760,-0.38745117,-0.13995361,-0.87506104,0.328125,0.703125,0.328125
1696254095777,-0.4020996,-0.13482666,-0.8687134,0.21875,0.296875,0.09375
1696254095820,-0.3930664,-0.13677979,-0.8796997,-0.1875,-0.234375,0.140625
1696254095860,-0.39013672,-0.14312744,-0.88946533,-0.359375,-0.75,0.328125
1696254095901,-0.38671875,-0.14093018,-0.8882446,-0.328125,-0.875,0.1875
1696254095918,-0.3864746,-0.13604736,-0.8953247,0.0,-0.3125,-0.0625
1696254095959,-0.3918457,-0.13702393,-0.88360596,-0.09375,-0.625,0.28125
1696254095999,-0.3869629,-0.13653564,-0.8887329,-0.234375,-0.359375,0.109375
1696254096039,-0.39331055,-0.14117432,-0.8911743,-0.078125,-0.40625,0.078125
1696254096079,-0.3894043,-0.13458252,-0.8862915,0.03125,-1.25,0.265625
1696254096118,-0.38623047,-0.1375122,-0.880188,0.484375,-1.75,0.078125
1696254096160,-0.38061523,-0.12994385,-0.8623657,0.296875,-3.3125,0.21875
1696254096199,-0.3737793,-0.1362915,-0.8569946,2.59375,-2.75,-0.125
1696254096238,-0.37768555,-0.12652588,-0.8945923,4.28125,-1.953125,-0.28125
1696254096281,-0.37524414,-0.12506104,-0.8833618,3.328125,-1.75,0.03125
1696254096320,-0.38354492,-0.11480713,-0.88360596,1.109375,-2.125,-0.015625
1696254096360,-0.37695312,-0.12188721,-0.91729736,-0.125,-0.25,0.3125
1696254096398,-0.3696289,-0.1194458,-0.8569946,-1.09375,-0.421875,0.296875
1696254096439,-0.36816406,-0.12701416,-0.8804321,-2.34375,1.1875,0.390625
1696254096480,-0.39038086,-0.13409424,-0.9690552,-3.734375,2.09375,0.765625
1696254096521,-0.39282227,-0.14141846,-0.96588135,-2.375,1.375,0.59375
1696254096558,-0.36450195,-0.12310791,-0.81329346,-2.359375,2.578125,0.125
1696254096598,-0.36450195,-0.13116455,-0.8213501,0.328125,-0.125,0.21875
1696254096637,-0.38623047,-0.13995361,-0.8699341,0.171875,-0.171875,0.1875
1696254096681,-0.38891602,-0.13922119,-0.89678955,0.03125,-0.8125,0.3125
1696254096718,-0.39892578,-0.13238525,-0.91656494,0.40625,-0.390625,0.203125
1696254096761,-0.38476562,-0.13970947,-0.8833618,0.484375,-0.859375,-0.078125
1696254096800,-0.38793945,-0.13677979,-0.89508057,0.234375,-0.875,-0.078125
1696254096838,-0.3791504,-0.1260376,-0.86798096,0.3125,-0.578125,0.203125
1696254096879,-0.37280273,-0.13140869,-0.8755493,-0.390625,-0.828125,0.3125
1696254096919,-0.3791504,-0.13238525,-0.8557739,0.75,-0.640625,0.234375
1696254096958,-0.38916016,-0.13311768,-0.89190674,-0.03125,-0.890625,0.21875
1696254096999,-0.39013672,-0.13311768,-0.89923096,-0.234375,-0.171875,0.03125
1696254097039,-0.3881836,-0.13800049,-0.895813,-0.375,-0.1875,0.03125
1696254097080,-0.38110352,-0.13653564,-0.895813,0.203125,-0.484375,0.0625
1696254097118,-0.38085938,-0.13116455,-0.8755493,1.453125,-1.234375,0.0
1696254097160,-0.38012695,-0.124816895,-0.85357666,2.28125,-1.359375,-0.234375
1696254097199,-0.3720703,-0.12701416,-0.8792114,1.734375,-1.109375,0.015625
1696254097218,-0.39038086,-0.12335205,-0.9053345,1.671875,-0.828125,0.0
1696254097259,-0.3828125,-0.124572754,-0.9077759,1.1875,-0.5,0.03125
1696254097317,-0.3779297,-0.12554932,-0.8867798,0.71875,-0.59375,0.234375
1696254097337,-0.37329102,-0.11968994,-0.88116455,0.734375,-0.5,0.0625
