# Sensor type: Respeck
# Activity type: Lying down on left
# Activity subtype: Singing
# Subject id: s2106809
# Notes: unprocessed
timestamp,accel_x,accel_y,accel_z,gyro_x,gyro_y,gyro_z
1696254003174,-0.47558594,-0.12237549,-0.84503174,-0.171875,-0.515625,0.171875
1696254003213,-0.46899414,-0.1194458,-0.85113525,-0.0625,-0.53125,0.265625
1696254003254,-0.46875,-0.120666504,-0.84576416,0.21875,-0.78125,0.046875
1696254003295,-0.47094727,-0.11871338,-0.8418579,0.375,-0.46875,0.25
1696254003334,-0.47509766,-0.121398926,-0.8562622,-0.109375,-0.5,0.15625
1696254003374,-0.4716797,-0.116760254,-0.8533325,0.34375,-0.21875,0.15625
1696254003414,-0.4736328,-0.11846924,-0.84942627,0.171875,-0.53125,0.15625
1696254003454,-0.47436523,-0.117492676,-0.848938,0.171875,-0.359375,0.09375
1696254003493,-0.47216797,-0.124572754,-0.85723877,-0.140625,-0.46875,0.34375
1696254003534,-0.47094727,-0.12335205,-0.84698486,0.015625,-0.3125,0.265625
1696254003574,-0.47314453,-0.1182251,-0.8411255,0.359375,0.03125,0.140625
1696254003615,-0.47192383,-0.11846924,-0.84625244,0.34375,-0.015625,0.234375
1696254003654,-0.46655273,-0.12506104,-0.8442993,0.15625,-0.046875,0.1875
1696254003694,-0.4645996,-0.12310791,-0.8538208,-0.03125,-0.03125,0.34375
1696254003734,-0.46655273,-0.12042236,-0.84381104,0.265625,-0.453125,0.109375
1696254003775,-0.47607422,-0.11920166,-0.8562622,-0.09375,-0.359375,0.203125
1696254003814,-0.47436523,-0.11798096,-0.8477173,-0.09375,-0.46875,0.1875
1696254003856,-0.47143555,-0.11920166,-0.8430786,0.265625,-0.359375,0.25
1696254003894,-0.47509766,-0.113098145,-0.8423462,0.078125,-0.578125,0.21875
1696254003934,-0.47607422,-0.11773682,-0.847229,0.203125,-0.421875,0.078125
1696254003955,-0.4790039,-0.11920166,-0.8467407,0.171875,-0.5,0.171875
1696254003995,-0.47143555,-0.11529541,-0.85162354,0.109375,-0.53125,0.203125
1696254004034,-0.47216797,-0.11773682,-0.8491821,0.109375,-0.5,0.109375
1696254004075,-0.46704102,-0.12261963,-0.84747314,-0.03125,-0.734375,0.09375
1696254004115,-0.46948242,-0.117492676,-0.8460083,0.109375,-0.3125,0.359375
1696254004155,-0.46777344,-0.10821533,-0.84869385,-0.203125,-0.640625,0.28125
1696254004195,-0.46850586,-0.11553955,-0.848938,-0.140625,-0.96875,0.171875
1696254004235,-0.46484375,-0.121154785,-0.85162354,0.140625,-0.6875,0.15625
1696254004276,-0.4609375,-0.11968994,-0.8435669,0.0,-0.828125,0.15625
1696254004314,-0.47021484,-0.11578369,-0.8442993,0.015625,-0.765625,0.1875
1696254004356,-0.47436523,-0.1182251,-0.84991455,0.21875,-0.828125,0.390625
1696254004394,-0.46484375,-0.116760254,-0.85479736,0.375,-0.78125,0.328125
1696254004434,-0.46777344,-0.11529541,-0.85601807,0.296875,-0.296875,0.171875
1696254004474,-0.4658203,-0.117492676,-0.85821533,0.21875,-0.5,0.28125
1696254004514,-0.4699707,-0.11553955,-0.8479614,0.046875,-0.546875,0.15625
1696254004555,-0.46899414,-0.11138916,-0.8530884,0.078125,-0.484375,0.15625
1696254004595,-0.46289062,-0.11773682,-0.84747314,-0.09375,-0.4375,0.28125
1696254004634,-0.46948242,-0.1194458,-0.84576416,-0.1875,-0.359375,0.25
1696254004675,-0.46728516,-0.11553955,-0.84869385,-0.078125,-0.328125,0.28125
1696254004714,-0.4724121,-0.11920166,-0.8460083,0.234375,-0.21875,0.15625
1696254004754,-0.46923828,-0.11651611,-0.8460083,0.453125,-0.5625,0.109375
1696254004794,-0.4711914,-0.11456299,-0.8562622,0.265625,-0.5625,0.25
1696254004834,-0.46801758,-0.11016846,-0.8557739,0.390625,-0.5,0.1875
1696254004875,-0.46948242,-0.11456299,-0.85821533,0.0625,-0.125,0.171875
1696254004915,-0.47143555,-0.11846924,-0.85235596,0.28125,-0.109375,0.125
1696254004954,-0.47436523,-0.11114502,-0.84869385,0.109375,0.171875,0.1875
1696254004994,-0.4663086,-0.11920166,-0.8533325,-0.171875,-0.140625,0.109375
1696254005035,-0.47436523,-0.11090088,-0.8460083,-0.203125,0.0625,0.171875
1696254005075,-0.47485352,-0.1116333,-0.8484497,-0.21875,-0.015625,0.109375
1696254005115,-0.47485352,-0.11602783,-0.8491821,-0.15625,-0.25,0.328125
1696254005155,-0.46875,-0.11651611,-0.85113525,-0.1875,-0.40625,0.140625
1696254005195,-0.47021484,-0.12017822,-0.8479614,-0.28125,-0.453125,0.1875
1696254005216,-0.46948242,-0.1116333,-0.8484497,-0.234375,-0.375,0.234375
1696254005255,-0.46484375,-0.11553955,-0.84698486,-0.171875,-0.3125,0.1875
1696254005294,-0.4724121,-0.11407471,-0.8479614,-0.109375,-0.375,0.125
1696254005335,-0.47094727,-0.11480713,-0.8557739,-0.09375,-0.234375,0.21875
1696254005394,-0.47045898,-0.11236572,-0.850647,0.015625,-0.140625,0.078125
1696254005415,-0.4724121,-0.10992432,-0.8477173,0.125,-0.25,0.109375
1696254005475,-0.4633789,-0.11187744,-0.83966064,0.0625,-0.46875,0.234375
1696254005496,-0.47387695,-0.11114502,-0.8411255,0.09375,-0.59375,0.28125
1696254005535,-0.46972656,-0.11578369,-0.84991455,0.21875,-0.46875,0.203125
1696254005575,-0.47314453,-0.11212158,-0.8557739,-0.078125,-0.65625,0.203125
1696254005616,-0.4724121,-0.11480713,-0.85650635,-0.125,-0.640625,0.265625
1696254005655,-0.4716797,-0.11602783,-0.84747314,-0.046875,-0.546875,0.234375
1696254005716,-0.4650879,-0.113098145,-0.8533325,0.109375,-0.40625,0.328125
1696254005756,-0.47265625,-0.112854004,-0.848938,-0.53125,-1.15625,0.5
1696254005795,-0.46728516,-0.117248535,-0.8467407,-0.296875,-1.21875,0.234375
1696254005815,-0.4658203,-0.11602783,-0.84259033,0.109375,-1.4375,0.203125
1696254005856,-0.4650879,-0.11407471,-0.8428345,0.21875,-1.65625,0.34375
1696254005896,-0.4675293,-0.11187744,-0.8464966,-0.203125,-1.90625,0.3125
1696254005937,-0.46191406,-0.10797119,-0.8423462,-0.40625,-2.140625,0.515625
1696254005976,-0.46240234,-0.11578369,-0.8518677,-0.28125,-3.1875,0.546875
1696254006017,-0.45166016,-0.11431885,-0.8543091,-0.25,-3.5,0.515625
1696254006057,-0.44433594,-0.121154785,-0.8484497,-0.703125,-4.125,0.359375
1696254006096,-0.44360352,-0.12017822,-0.848938,-0.84375,-4.140625,0.5
1696254006157,-0.44799805,-0.12237549,-0.8670044,-0.390625,-3.40625,0.265625
1696254006174,-0.4375,-0.117004395,-0.87750244,-0.5,-2.921875,0.3125
1696254006216,-0.42944336,-0.11260986,-0.8635864,-1.375,-2.59375,0.71875
1696254006279,-0.4309082,-0.124816895,-0.89312744,-1.578125,-2.484375,0.796875
1696254006297,-0.43188477,-0.11798096,-0.86724854,-1.8125,-2.4375,0.921875
1696254006337,-0.43554688,-0.13067627,-0.8648071,-1.734375,-2.390625,0.375
1696254006376,-0.43115234,-0.124572754,-0.86798096,-0.671875,-3.015625,0.21875
1696254006437,-0.42651367,-0.12994385,-0.84625244,-0.1875,-3.4375,0.265625
1696254006456,-0.41748047,-0.13067627,-0.83966064,-0.375,-4.890625,0.265625
1696254006520,-0.41430664,-0.12384033,-0.8543091,-0.734375,-5.515625,0.3125
1696254006535,-0.4128418,-0.13555908,-0.8743286,0.390625,-4.75,0.359375
1696254006555,-0.40283203,-0.13677979,-0.8862915,0.734375,-5.03125,0.359375
1696254006598,-0.3930664,-0.12652588,-0.894104,0.8125,-4.84375,0.15625
1696254006638,-0.38671875,-0.12994385,-0.8999634,1.109375,-4.34375,0.28125
1696254006677,-0.38305664,-0.12164307,-0.8960571,1.234375,-3.96875,0.171875
1696254006717,-0.3762207,-0.11895752,-0.9053345,1.078125,-3.40625,0.203125
1696254006756,-0.36914062,-0.11920166,-0.89923096,0.6875,-3.0,0.03125
1696254006797,-0.37573242,-0.117004395,-0.8948364,-0.171875,-2.640625,0.015625
1696254006836,-0.37475586,-0.11529541,-0.8921509,-1.03125,-1.546875,0.21875
1696254006876,-0.3828125,-0.11871338,-0.89727783,-0.421875,-1.109375,0.28125
1696254006917,-0.3684082,-0.12506104,-0.8897095,-0.28125,-1.359375,0.265625
1696254006958,-0.36889648,-0.1326294,-0.8789673,-0.921875,-1.296875,0.21875
1696254006997,-0.3701172,-0.1362915,-0.9014282,-1.34375,-1.21875,0.234375
1696254007036,-0.3762207,-0.13458252,-0.8804321,-1.34375,-0.140625,0.28125
1696254007078,-0.3737793,-0.12896729,-0.89385986,-0.453125,-0.359375,0.375
1696254007116,-0.36889648,-0.11920166,-0.8867798,-0.4375,-1.0,0.53125
1696254007156,-0.36450195,-0.1404419,-0.8945923,-0.53125,-1.03125,0.125
1696254007198,-0.37158203,-0.12872314,-0.9089966,0.828125,-0.28125,-0.234375
1696254007236,-0.36621094,-0.12579346,-0.90948486,0.78125,0.8125,-0.296875
1696254007276,-0.3671875,-0.12823486,-0.9060669,0.65625,1.40625,-0.296875
1696254007315,-0.3642578,-0.1260376,-0.88238525,0.78125,1.671875,-0.03125
1696254007357,-0.375,-0.12261963,-0.87750244,0.8125,1.625,-0.0625
1696254007398,-0.37475586,-0.1296997,-0.8789673,0.4375,2.34375,-0.140625
1696254007435,-0.38330078,-0.12994385,-0.89801025,0.21875,4.3125,-0.078125
1696254007475,-0.39819336,-0.12823486,-0.9295044,1.3125,4.4375,-0.296875
1696254007516,-0.39111328,-0.11480713,-0.88482666,1.171875,4.5,-0.09375
1696254007557,-0.39892578,-0.12017822,-0.8743286,0.265625,3.078125,-0.140625
1696254007598,-0.39501953,-0.120910645,-0.8648071,0.625,2.125,-0.09375
1696254007636,-0.39135742,-0.11651611,-0.8501587,0.46875,1.09375,-0.484375
1696254007676,-0.40405273,-0.11407471,-0.86431885,0.265625,-0.015625,-0.796875
1696254007715,-0.4074707,-0.1182251,-0.8870239,0.421875,1.5625,-0.78125
1696254007759,-0.4296875,-0.1104126,-0.9031372,-0.765625,0.375,-0.25
1696254007797,-0.42285156,-0.10211182,-0.8904419,-1.0,1.5625,0.03125
1696254007838,-0.4206543,-0.109191895,-0.8826294,-1.453125,2.25,0.09375
1696254007856,-0.40063477,-0.11895752,-0.83599854,-2.3125,2.703125,0.140625
1696254007896,-0.42871094,-0.12628174,-0.8921509,-4.140625,0.65625,0.3125
1696254007957,-0.4230957,-0.1272583,-0.87750244,-3.109375,1.96875,0.21875
1696254007975,-0.41479492,-0.12823486,-0.8413696,-0.046875,3.015625,-0.109375
1696254008017,-0.42578125,-0.12799072,-0.8599243,0.21875,0.890625,0.15625
1696254008055,-0.4333496,-0.12945557,-0.87750244,0.375,0.203125,0.109375
1696254008097,-0.43188477,-0.13092041,-0.8723755,1.1875,0.6875,0.203125
1696254008137,-0.42797852,-0.12945557,-0.8460083,1.875,0.234375,0.203125
1696254008176,-0.4321289,-0.12359619,-0.86187744,0.640625,-0.796875,0.09375
1696254008216,-0.42773438,-0.124572754,-0.8670044,1.59375,-1.140625,0.015625
1696254008277,-0.43017578,-0.11480713,-0.862854,1.171875,-1.203125,0.0625
1696254008295,-0.42871094,-0.12017822,-0.8665161,0.71875,-1.046875,0.046875
1696254008358,-0.4243164,-0.11529541,-0.8748169,0.21875,-1.4375,0.1875
1696254008377,-0.42871094,-0.121154785,-0.87164307,0.46875,-1.078125,0.046875
1696254008417,-0.42529297,-0.113586426,-0.87164307,0.46875,-1.078125,0.171875
1696254008457,-0.42626953,-0.120666504,-0.8748169,-0.125,-1.046875,0.078125
1696254008519,-0.42358398,-0.11773682,-0.8735962,-0.203125,-0.59375,0.203125
1696254008535,-0.42895508,-0.12701416,-0.8833618,-0.171875,-0.46875,0.125
1696254008578,-0.41992188,-0.11553955,-0.8701782,-0.203125,-0.34375,0.171875
1696254008616,-0.42700195,-0.11553955,-0.8792114,-0.21875,-0.21875,0.21875
1696254008657,-0.42626953,-0.11212158,-0.86968994,0.046875,0.203125,0.140625
1696254008696,-0.42016602,-0.11578369,-0.8718872,0.03125,0.140625,0.15625
1696254008738,-0.42700195,-0.12017822,-0.8711548,0.03125,0.15625,0.234375
1696254008777,-0.42578125,-0.11480713,-0.86553955,-0.046875,-0.09375,0.1875
1696254008818,-0.43066406,-0.11065674,-0.8621216,-0.28125,-0.609375,0.1875
1696254008857,-0.43188477,-0.12432861,-0.87042236,-0.390625,-0.984375,0.3125
1696254008898,-0.4248047,-0.12432861,-0.86968994,0.046875,-0.15625,-0.0625
1696254008940,-0.4255371,-0.12335205,-0.8652954,0.15625,-0.25,0.046875
1696254008977,-0.42456055,-0.11260986,-0.86676025,-0.265625,-0.390625,0.171875
1696254009017,-0.42871094,-0.117492676,-0.8740845,-0.390625,-0.421875,0.265625
1696254009057,-0.43017578,-0.11846924,-0.88653564,-0.21875,-0.546875,0.28125
1696254009096,-0.42749023,-0.112854004,-0.87457275,-0.0625,-0.3125,0.140625
1696254009158,-0.42871094,-0.113342285,-0.8718872,0.046875,-0.1875,0.109375
1696254009162,-0.4243164,-0.11895752,-0.86065674,0.28125,-0.296875,0.171875
1696254009196,-0.4309082,-0.11871338,-0.86431885,-0.125,-0.296875,0.125
1696254009235,-0.43066406,-0.12017822,-0.8701782,0.203125,-0.21875,0.09375
1696254009275,-0.42651367,-0.120910645,-0.8701782,-0.0625,-0.453125,0.0625
1696254009317,-0.42993164,-0.11846924,-0.8665161,-0.09375,-0.4375,0.03125
1696254009360,-0.43237305,-0.11920166,-0.8706665,0.0,-0.375,0.078125
1696254009398,-0.43066406,-0.11065674,-0.8640747,-0.109375,-0.375,0.109375
1696254009436,-0.42871094,-0.12213135,-0.8652954,-0.171875,-0.1875,0.125
1696254009476,-0.42651367,-0.11578369,-0.8731079,-0.15625,-0.171875,0.25
1696254009516,-0.42895508,-0.11578369,-0.86968994,0.0,-0.40625,0.078125
1696254009557,-0.42822266,-0.11578369,-0.87164307,-0.03125,-0.234375,0.203125
1696254009596,-0.43066406,-0.11871338,-0.8689575,-0.140625,-0.375,0.203125
1696254009639,-0.4345703,-0.12017822,-0.8591919,0.0625,-0.3125,0.078125
1696254009677,-0.43603516,-0.116760254,-0.8694458,-0.125,-0.3125,0.21875
1696254009716,-0.42504883,-0.11407471,-0.8574829,0.46875,0.15625,0.3125
1696254009756,-0.43579102,-0.112854004,-0.8699341,0.46875,-0.109375,0.125
1696254009796,-0.43652344,-0.11627197,-0.8792114,0.53125,0.109375,0.140625
1696254009838,-0.43310547,-0.11456299,-0.87335205,0.03125,-0.28125,0.046875
1696254009877,-0.43920898,-0.12017822,-0.86309814,-0.03125,-0.484375,0.0625
1696254009918,-0.43139648,-0.11553955,-0.86846924,-0.03125,-0.515625,0.171875
1696254009956,-0.43725586,-0.11431885,-0.8689575,-0.40625,-0.421875,0.15625
1696254009995,-0.42895508,-0.113098145,-0.86602783,-0.390625,0.21875,0.21875
1696254010037,-0.43652344,-0.11114502,-0.86309814,-0.640625,-0.203125,0.15625
1696254010075,-0.4404297,-0.11456299,-0.87677,-0.4375,0.0625,0.171875
1696254010117,-0.43676758,-0.11529541,-0.8706665,-0.109375,-0.1875,0.1875
1696254010155,-0.43359375,-0.117004395,-0.86676025,-0.09375,-0.578125,0.140625
1696254010197,-0.42797852,-0.113586426,-0.8616333,-0.296875,-0.59375,0.203125
1696254010237,-0.4333496,-0.120666504,-0.85943604,0.0,-0.34375,0.078125
1696254010276,-0.43579102,-0.12261963,-0.87335205,-0.0625,-0.515625,0.1875
1696254010319,-0.42749023,-0.11602783,-0.87384033,-0.109375,-0.53125,0.1875
1696254010357,-0.43237305,-0.12506104,-0.8657837,0.03125,-0.640625,0.15625
1696254010397,-0.4362793,-0.11456299,-0.86676025,0.140625,-0.640625,0.15625
1696254010459,-0.43481445,-0.11846924,-0.8670044,0.171875,-0.34375,0.1875
1696254010475,-0.43164062,-0.11456299,-0.8657837,0.0,-0.53125,0.109375
1696254010495,-0.4272461,-0.11798096,-0.8640747,0.015625,-0.34375,0.125
1696254010558,-0.43676758,-0.112854004,-0.8706665,-0.046875,-0.328125,0.171875
1696254010576,-0.43554688,-0.11505127,-0.8633423,0.109375,-0.640625,0.0625
1696254010640,-0.43554688,-0.11773682,-0.8677368,-0.109375,-0.40625,0.21875
1696254010655,-0.43041992,-0.11456299,-0.8609009,-0.046875,-0.171875,0.15625
1696254010696,-0.4333496,-0.11456299,-0.86309814,-0.203125,-0.390625,0.3125
1696254010739,-0.43432617,-0.11602783,-0.86260986,-0.078125,-0.34375,0.21875
1696254010798,-0.4272461,-0.12042236,-0.8706665,-0.28125,-0.515625,0.328125
1696254010815,-0.43823242,-0.116760254,-0.8657837,-0.03125,-0.34375,0.109375
1696254010876,-0.43164062,-0.113342285,-0.8682251,-0.1875,-0.28125,0.125
1696254010898,-0.4338379,-0.11505127,-0.8652954,-0.03125,-0.296875,0.28125
1696254010939,-0.4333496,-0.112854004,-0.8748169,0.0625,-0.265625,0.15625
1696254010977,-0.4321289,-0.11895752,-0.8665161,0.203125,-0.421875,0.1875
1696254011018,-0.42773438,-0.117492676,-0.8670044,0.234375,-0.21875,0.046875
1696254011055,-0.43798828,-0.10748291,-0.87384033,0.046875,-0.578125,0.28125
1696254011095,-0.42871094,-0.113586426,-0.8652954,0.03125,-0.453125,0.046875
1696254011137,-0.43725586,-0.113098145,-0.8731079,-0.09375,-0.375,0.203125
1696254011176,-0.4350586,-0.11993408,-0.87213135,-0.125,-0.53125,0.40625
1696254011217,-0.4338379,-0.108947754,-0.866272,0.03125,-0.484375,0.171875
1696254011256,-0.43481445,-0.11187744,-0.8591919,0.0,-0.5,0.078125
1696254011316,-0.43554688,-0.10845947,-0.86602783,-0.1875,-0.40625,0.109375
1696254011359,-0.43286133,-0.11456299,-0.861145,-0.09375,-0.453125,0.078125
1696254011374,-0.4345703,-0.11993408,-0.8711548,-0.359375,-0.421875,0.21875
1696254011416,-0.44580078,-0.117004395,-0.8674927,-0.234375,-0.46875,0.09375
1696254011457,-0.43017578,-0.12164307,-0.86016846,-0.203125,-0.296875,0.1875
1696254011496,-0.43554688,-0.113342285,-0.8640747,-0.171875,-0.34375,0.140625
1696254011537,-0.43530273,-0.11651611,-0.8699341,-0.171875,-0.296875,0.140625
1696254011578,-0.43408203,-0.11212158,-0.8652954,-0.203125,-0.15625,0.328125
1696254011616,-0.42773438,-0.11773682,-0.8635864,-0.375,-0.28125,0.234375
1696254011658,-0.43920898,-0.12213135,-0.8699341,-0.53125,-0.15625,0.265625
1696254011696,-0.44189453,-0.11895752,-0.8687134,-0.28125,-0.390625,0.3125
1696254011738,-0.43945312,-0.11920166,-0.8674927,0.09375,-0.25,0.421875
1696254011778,-0.43310547,-0.11651611,-0.85821533,0.640625,-0.140625,0.21875
1696254011794,-0.4416504,-0.117248535,-0.87164307,0.171875,-0.390625,0.203125
1696254011838,-0.43481445,-0.11602783,-0.86431885,-0.03125,-0.25,0.140625
1696254011879,-0.4333496,-0.11383057,-0.866272,0.0,-0.28125,0.15625
1696254011917,-0.43603516,-0.113098145,-0.8694458,0.109375,-0.5,0.21875
1696254011957,-0.4338379,-0.116760254,-0.8726196,-0.125,-0.375,0.15625
1696254011998,-0.4404297,-0.11383057,-0.862854,-0.453125,-0.328125,0.21875
1696254012037,-0.43725586,-0.11627197,-0.8623657,-0.640625,-0.40625,0.25
1696254012076,-0.43481445,-0.11627197,-0.8682251,-0.40625,-0.359375,0.171875
1696254012116,-0.4387207,-0.11553955,-0.8648071,-0.15625,-0.21875,0.3125
1696254012158,-0.4375,-0.11895752,-0.8687134,-0.296875,-0.3125,0.21875
1696254012196,-0.43774414,-0.11968994,-0.86846924,-0.3125,-0.21875,0.140625
1696254012236,-0.43188477,-0.11993408,-0.8623657,0.015625,-0.140625,0.0
1696254012276,-0.4333496,-0.124572754,-0.8682251,-0.234375,-0.3125,0.265625
1696254012316,-0.44433594,-0.12164307,-0.8706665,-0.078125,-0.28125,0.109375
1696254012380,-0.4375,-0.11871338,-0.8616333,-0.09375,-0.328125,0.140625
1696254012395,-0.44018555,-0.11602783,-0.86309814,-0.1875,-0.53125,0.28125
1696254012438,-0.4345703,-0.12017822,-0.8674927,0.0625,-0.46875,0.09375
1696254012479,-0.43530273,-0.11456299,-0.8682251,-0.125,-0.5,0.171875
1696254012516,-0.4404297,-0.11383057,-0.86187744,0.0,-0.46875,0.125
1696254012556,-0.44067383,-0.11871338,-0.87042236,-0.15625,-0.515625,0.203125
1696254012596,-0.43408203,-0.121398926,-0.86260986,-0.046875,-0.390625,0.15625
1696254012635,-0.43408203,-0.12042236,-0.864563,-0.203125,-0.390625,0.25
1696254012677,-0.4399414,-0.11846924,-0.8713989,-0.03125,-0.5625,0.140625
1696254012716,-0.43408203,-0.11871338,-0.85723877,0.234375,-0.640625,0.171875
1696254012758,-0.43945312,-0.116760254,-0.8670044,0.046875,-0.65625,0.140625
1696254012797,-0.43408203,-0.11553955,-0.8665161,-0.3125,-0.5,0.171875
1696254012835,-0.43603516,-0.11016846,-0.8633423,-0.171875,-0.515625,0.265625
1696254012876,-0.43652344,-0.12042236,-0.8623657,-0.484375,-0.390625,0.140625
1696254012917,-0.43823242,-0.11773682,-0.86798096,-0.609375,-0.125,0.21875
1696254012957,-0.43920898,-0.11920166,-0.8657837,-0.5,-0.421875,0.515625
1696254012996,-0.4428711,-0.12286377,-0.8670044,-0.09375,-0.34375,0.203125
1696254013036,-0.42895508,-0.12042236,-0.85723877,-0.0625,-0.4375,0.375
1696254013078,-0.43896484,-0.12310791,-0.8765259,0.25,-0.21875,0.03125
1696254013096,-0.43603516,-0.1182251,-0.85723877,1.703125,-0.890625,0.046875
1696254013136,-0.44311523,-0.11529541,-0.8521118,1.640625,-1.109375,0.015625
1696254013177,-0.43554688,-0.11260986,-0.86065674,1.703125,-0.96875,0.03125
1696254013217,-0.44458008,-0.11212158,-0.87701416,0.828125,-0.34375,0.125
1696254013257,-0.43164062,-0.105285645,-0.86920166,0.546875,-0.109375,0.234375
1696254013296,-0.43530273,-0.11553955,-0.86724854,-0.75,-0.65625,0.453125
1696254013336,-0.44018555,-0.11895752,-0.8670044,-0.546875,-0.296875,0.109375
1696254013377,-0.43286133,-0.11431885,-0.8753052,-0.46875,-0.75,0.265625
1696254013435,-0.43066406,-0.113586426,-0.8682251,-0.625,-0.796875,0.375
1696254013455,-0.43701172,-0.113586426,-0.87457275,-0.421875,-0.53125,0.375
1696254013521,-0.42797852,-0.10821533,-0.85772705,1.03125,-0.34375,0.109375
1696254013535,-0.4296875,-0.10235596,-0.86676025,0.25,-0.53125,0.21875
1696254013577,-0.43920898,-0.10650635,-0.8740845,0.0625,-0.65625,0.125
1696254013616,-0.44750977,-0.11602783,-0.8621216,-0.046875,-0.578125,0.1875
1696254013656,-0.43481445,-0.11236572,-0.86383057,-0.046875,-0.5625,0.234375
1696254013696,-0.43554688,-0.112854004,-0.87750244,0.15625,-0.71875,0.0625
1696254013758,-0.43139648,-0.1104126,-0.8670044,0.40625,-0.515625,0.234375
1696254013775,-0.43920898,-0.10284424,-0.866272,0.390625,-0.375,0.109375
1696254013837,-0.42871094,-0.11187744,-0.8621216,0.46875,-0.453125,0.078125
1696254013855,-0.43481445,-0.10626221,-0.86602783,0.46875,-0.421875,0.125
1696254013896,-0.4321289,-0.10845947,-0.8674927,-0.15625,-0.40625,0.140625
1696254013935,-0.43164062,-0.10699463,-0.8748169,-0.109375,-0.390625,0.125
1696254013977,-0.4333496,-0.11090088,-0.8740845,-0.234375,-0.375,0.0625
1696254014015,-0.43188477,-0.11212158,-0.87164307,-0.46875,-0.5625,0.390625
1696254014059,-0.4326172,-0.11138916,-0.8640747,-0.5625,-0.5625,0.28125
1696254014097,-0.43798828,-0.1116333,-0.86505127,-0.25,-0.421875,0.21875
1696254014135,-0.43310547,-0.11187744,-0.8609009,0.125,-0.296875,0.0
1696254014200,-0.4345703,-0.10699463,-0.86553955,0.09375,-0.453125,0.1875
1696254014215,-0.43579102,-0.10772705,-0.87335205,-0.09375,-0.8125,0.296875
1696254014257,-0.43066406,-0.11114502,-0.86920166,-0.046875,-0.171875,0.125
1696254014299,-0.4345703,-0.11260986,-0.8670044,0.0,-0.40625,0.078125
1696254014357,-0.43896484,-0.10601807,-0.87384033,0.0625,0.03125,0.25
1696254014376,-0.43408203,-0.105041504,-0.8713989,0.15625,-0.1875,0.15625
1696254014395,-0.4350586,-0.10845947,-0.8670044,0.15625,-0.296875,0.15625
1696254014437,-0.4399414,-0.11065674,-0.87091064,0.109375,-0.328125,0.15625
1696254014479,-0.43481445,-0.109680176,-0.864563,-0.03125,-0.28125,0.15625
1696254014519,-0.43408203,-0.109191895,-0.8599243,-0.046875,-0.328125,0.25
1696254014558,-0.43432617,-0.10333252,-0.8604126,0.1875,-0.265625,0.171875
1696254014600,-0.4399414,-0.105529785,-0.87164307,-0.09375,-0.453125,0.171875
1696254014636,-0.43408203,-0.10723877,-0.86846924,0.09375,-0.46875,-0.015625
1696254014677,-0.43798828,-0.109191895,-0.8665161,0.015625,-0.53125,0.140625
1696254014716,-0.44262695,-0.10723877,-0.8687134,0.265625,-0.359375,0.1875
1696254014757,-0.43164062,-0.105529785,-0.8755493,-0.34375,-0.640625,0.28125
1696254014798,-0.4272461,-0.108947754,-0.8633423,0.015625,-0.203125,-0.03125
1696254014837,-0.43530273,-0.11065674,-0.87091064,-0.015625,-0.34375,0.25
1696254014879,-0.4362793,-0.10845947,-0.8706665,-0.453125,-0.640625,0.25
1696254014917,-0.43579102,-0.11431885,-0.86724854,-0.65625,-0.34375,0.28125
1696254014956,-0.43847656,-0.11065674,-0.8687134,-0.515625,-0.359375,0.296875
1696254014997,-0.43652344,-0.10601807,-0.8689575,-0.5625,-0.25,0.109375
1696254015039,-0.43652344,-0.1038208,-0.8701782,-0.203125,-0.09375,0.109375
1696254015077,-0.43310547,-0.11480713,-0.8689575,-0.6875,-0.25,0.296875
1696254015118,-0.42822266,-0.11090088,-0.8718872,-0.28125,-0.015625,0.078125
1696254015156,-0.4399414,-0.10723877,-0.8711548,0.015625,0.015625,0.1875
1696254015197,-0.4428711,-0.10797119,-0.8648071,-0.71875,0.109375,0.28125
1696254015239,-0.43603516,-0.11602783,-0.8670044,-1.046875,0.109375,0.296875
1696254015278,-0.43774414,-0.11480713,-0.8701782,-0.78125,0.015625,0.203125
1696254015317,-0.44067383,-0.120666504,-0.87213135,-0.125,-0.234375,0.234375
1696254015357,-0.43847656,-0.11651611,-0.8591919,0.171875,-0.375,0.109375
1696254015396,-0.4375,-0.11627197,-0.86431885,0.015625,-0.515625,0.0625
1696254015436,-0.44091797,-0.109436035,-0.8670044,-0.140625,-0.625,0.359375
1696254015477,-0.43920898,-0.11236572,-0.86798096,0.15625,-0.4375,0.171875
1696254015516,-0.44555664,-0.11407471,-0.86968994,0.1875,-0.5,0.171875
1696254015557,-0.44360352,-0.113098145,-0.8694458,-0.234375,-0.640625,0.21875
1696254015597,-0.43701172,-0.117492676,-0.8796997,-0.28125,-0.8125,0.078125
1696254015636,-0.44018555,-0.113586426,-0.86505127,-0.1875,-0.765625,0.296875
1696254015676,-0.43286133,-0.11016846,-0.86431885,-0.046875,-0.734375,0.21875
1696254015717,-0.4345703,-0.11431885,-0.8635864,-0.390625,-0.75,0.15625
1696254015735,-0.43798828,-0.1116333,-0.8596802,0.234375,-0.078125,0.125
1696254015797,-0.4416504,-0.1182251,-0.8687134,0.265625,-0.109375,0.21875
1696254015815,-0.4404297,-0.113586426,-0.87091064,-0.078125,-0.234375,0.15625
1696254015877,-0.43774414,-0.11407471,-0.8726196,0.328125,0.078125,0.109375
1696254015895,-0.43310547,-0.113586426,-0.87164307,-0.21875,-0.171875,0.328125
1696254015938,-0.43676758,-0.11651611,-0.87335205,-0.5,-0.609375,0.453125
1696254015997,-0.43286133,-0.11456299,-0.84820557,-0.15625,-0.21875,0.421875
1696254016015,-0.43798828,-0.113586426,-0.8640747,-0.4375,-0.296875,0.15625
1696254016056,-0.44335938,-0.112854004,-0.87945557,-0.328125,-0.578125,0.21875
1696254016097,-0.4338379,-0.116760254,-0.861145,0.5625,-0.4375,0.125
1696254016136,-0.43481445,-0.11480713,-0.8652954,0.21875,-0.296875,0.125
1696254016176,-0.44335938,-0.11627197,-0.8748169,-0.4375,-0.734375,0.203125
1696254016218,-0.43554688,-0.12188721,-0.86505127,-0.046875,-0.640625,0.203125
1696254016256,-0.43774414,-0.11456299,-0.85943604,0.34375,-0.3125,0.09375
1696254016296,-0.44213867,-0.120910645,-0.87628174,0.171875,-0.515625,0.0625
1696254016336,-0.4350586,-0.11138916,-0.8687134,0.265625,-0.640625,0.03125
1696254016376,-0.4350586,-0.113342285,-0.861145,0.15625,-0.5,0.296875
1696254016416,-0.43237305,-0.11114502,-0.861145,0.03125,-0.5625,0.171875
1696254016476,-0.43359375,-0.1104126,-0.85772705,0.015625,-0.640625,0.203125
1696254016495,-0.4411621,-0.109436035,-0.87091064,0.046875,-0.359375,0.09375
1696254016558,-0.43652344,-0.113098145,-0.86138916,0.0625,-0.265625,0.171875
1696254016576,-0.4338379,-0.11090088,-0.8670044,-0.125,-0.1875,0.078125
1696254016617,-0.43798828,-0.10845947,-0.86187744,-0.15625,-0.265625,0.171875
1696254016659,-0.43701172,-0.1116333,-0.8694458,-0.28125,-0.453125,0.125
1696254016699,-0.4411621,-0.11773682,-0.861145,-0.21875,-0.15625,0.03125
1696254016736,-0.43041992,-0.10870361,-0.86920166,-0.03125,-0.25,0.09375
1696254016777,-0.4321289,-0.11090088,-0.8591919,-0.375,-0.296875,0.3125
1696254016816,-0.43701172,-0.11651611,-0.87042236,-0.703125,-0.421875,0.25
1696254016857,-0.4387207,-0.11383057,-0.8640747,-0.28125,-0.34375,0.171875
1696254016896,-0.43579102,-0.11456299,-0.8579712,0.078125,-0.078125,0.015625
1696254016935,-0.4453125,-0.11505127,-0.8713989,-0.859375,-0.484375,0.359375
1696254016976,-0.43798828,-0.11114502,-0.8706665,-0.484375,-0.265625,0.265625
1696254017040,-0.44140625,-0.12237549,-0.864563,-0.25,-0.15625,0.21875
1696254017043,-0.44018555,-0.11212158,-0.8740845,-0.03125,-0.234375,0.203125
1696254017076,-0.43530273,-0.12384033,-0.86505127,0.265625,-0.265625,0.109375
1696254017159,-0.44067383,-0.11553955,-0.8621216,0.25,-0.234375,0.21875
1696254017162,-0.4387207,-0.11651611,-0.8648071,0.328125,-0.234375,0.09375
1696254017197,-0.44067383,-0.11114502,-0.86724854,0.4375,-0.203125,0.109375
1696254017237,-0.44335938,-0.113586426,-0.8699341,0.53125,-0.5,0.265625
1696254017277,-0.4411621,-0.10821533,-0.866272,0.5,-0.40625,0.109375
1696254017318,-0.4387207,-0.10845947,-0.8670044,0.421875,-0.515625,-0.03125
1696254017356,-0.44262695,-0.09991455,-0.86846924,0.171875,-0.703125,0.09375
1696254017396,-0.43701172,-0.11456299,-0.8699341,0.09375,-0.46875,0.109375
1696254017457,-0.43603516,-0.10650635,-0.86187744,-0.03125,-0.4375,0.078125
1696254017474,-0.43725586,-0.11236572,-0.86676025,-0.1875,-0.34375,0.203125
1696254017517,-0.4375,-0.10748291,-0.86505127,-0.34375,-0.3125,0.203125
1696254017558,-0.43823242,-0.11065674,-0.8735962,-0.15625,-0.265625,0.28125
1696254017597,-0.4416504,-0.112854004,-0.8623657,0.1875,-0.171875,0.03125
1696254017637,-0.43945312,-0.11138916,-0.87091064,-0.21875,-0.28125,0.03125
1696254017677,-0.44067383,-0.1104126,-0.8652954,-0.328125,-0.1875,0.03125
1696254017716,-0.44140625,-0.10992432,-0.85821533,-0.1875,-0.1875,0.203125
1696254017757,-0.44458008,-0.109191895,-0.862854,-0.5,-0.140625,0.0625
1696254017797,-0.44482422,-0.113098145,-0.8706665,-0.78125,-0.09375,0.296875
1696254017835,-0.44189453,-0.10870361,-0.8670044,-0.3125,-0.21875,0.34375
1696254017877,-0.44018555,-0.11236572,-0.86187744,-0.21875,-0.3125,0.21875
1696254017918,-0.43139648,-0.11383057,-0.8689575,-0.109375,-0.34375,0.15625
1696254017958,-0.44360352,-0.109680176,-0.8635864,-0.28125,-0.46875,0.109375
1696254018017,-0.44580078,-0.11383057,-0.8677368,-0.328125,-0.328125,0.203125
1696254018035,-0.44091797,-0.11627197,-0.864563,-0.09375,-0.390625,0.1875
1696254018076,-0.43432617,-0.11456299,-0.8599243,-0.09375,-0.46875,0.171875
1696254018137,-0.43896484,-0.117004395,-0.8609009,-0.1875,-0.390625,0.1875
1696254018156,-0.44384766,-0.113586426,-0.8711548,0.046875,-0.53125,0.203125
1696254018195,-0.43603516,-0.113586426,-0.87042236,0.203125,-0.484375,0.203125
1696254018236,-0.4440918,-0.11236572,-0.86431885,0.265625,-0.296875,0.046875
1696254018276,-0.4416504,-0.113098145,-0.8587036,0.578125,-0.3125,0.203125
1696254018315,-0.43969727,-0.109191895,-0.8635864,0.625,-0.21875,0.125
1696254018335,-0.44091797,-0.113586426,-0.8648071,0.640625,-0.203125,0.109375
1696254018377,-0.44604492,-0.11529541,-0.8689575,0.046875,-0.3125,0.09375
1696254018417,-0.44360352,-0.10870361,-0.8640747,0.0,-0.40625,0.140625
1696254018456,-0.44360352,-0.11212158,-0.881897,-0.3125,-0.65625,0.328125
1696254018497,-0.43920898,-0.10601807,-0.86602783,0.078125,0.09375,0.078125
1696254018537,-0.44335938,-0.10723877,-0.8657837,-0.34375,0.375,0.1875
1696254018578,-0.4465332,-0.10748291,-0.864563,-0.953125,0.125,0.328125
1696254018617,-0.43896484,-0.11480713,-0.85772705,-0.796875,-0.109375,0.25
1696254018657,-0.44018555,-0.113342285,-0.8530884,-0.625,-0.40625,0.296875
1696254018695,-0.4411621,-0.117004395,-0.86383057,-0.15625,-0.421875,0.234375
1696254018737,-0.44921875,-0.11090088,-0.8569946,0.0,-0.1875,0.28125
1696254018777,-0.45117188,-0.113098145,-0.8743286,0.140625,-0.671875,0.3125
1696254018816,-0.43798828,-0.11993408,-0.8567505,1.15625,-0.53125,0.015625
1696254018857,-0.43139648,-0.10797119,-0.85650635,0.625,-0.5625,0.03125
1696254018898,-0.44873047,-0.1116333,-0.86846924,0.25,-0.890625,0.109375
1696254018937,-0.43798828,-0.10797119,-0.86187744,0.015625,-0.578125,0.03125
1696254018977,-0.44799805,-0.10870361,-0.8701782,-0.078125,-0.84375,-0.03125
1696254019018,-0.4489746,-0.112854004,-0.8694458,-0.078125,-0.71875,0.203125
1696254019060,-0.44262695,-0.1104126,-0.8567505,-0.15625,-0.421875,0.15625
1696254019098,-0.43945312,-0.10870361,-0.85821533,0.0,-0.6875,0.28125
1696254019140,-0.4399414,-0.11480713,-0.86065674,0.28125,-0.765625,0.140625
1696254019176,-0.44555664,-0.105773926,-0.87213135,0.234375,-0.8125,0.0625
1696254019218,-0.4416504,-0.10479736,-0.86309814,-0.015625,-0.546875,0.109375
1696254019256,-0.44628906,-0.11236572,-0.8670044,-0.390625,-0.609375,0.203125
1696254019299,-0.44580078,-0.109436035,-0.8711548,0.140625,-0.375,0.1875
1696254019336,-0.43920898,-0.10723877,-0.8621216,0.109375,-0.21875,0.1875
1696254019376,-0.4399414,-0.11090088,-0.86383057,-0.015625,-0.375,0.09375
1696254019419,-0.4411621,-0.109191895,-0.8587036,-0.03125,-0.15625,0.265625
1696254019460,-0.4428711,-0.09625244,-0.86724854,0.21875,-0.078125,0.09375
1696254019501,-0.4362793,-0.10357666,-0.8670044,0.390625,-0.203125,0.265625
1696254019536,-0.4399414,-0.11212158,-0.8718872,0.25,-0.234375,0.140625
1696254019578,-0.4440918,-0.1104126,-0.8674927,0.328125,-0.21875,0.109375
1696254019616,-0.4428711,-0.10479736,-0.8557739,0.0,-0.484375,0.1875
1696254019658,-0.44018555,-0.09942627,-0.8604126,-0.15625,-0.3125,0.15625
1696254019677,-0.44091797,-0.10235596,-0.862854,-0.546875,-0.21875,0.1875
1696254019717,-0.44262695,-0.10479736,-0.8743286,-0.46875,-0.46875,0.21875
1696254019758,-0.44604492,-0.10406494,-0.87091064,-0.59375,-0.40625,0.171875
1696254019795,-0.43945312,-0.11138916,-0.8599243,0.171875,-0.234375,0.234375
1696254019839,-0.4423828,-0.11065674,-0.86309814,-0.34375,-0.5,0.28125
1696254019877,-0.44360352,-0.112854004,-0.86724854,-0.109375,-0.65625,0.109375
1696254019920,-0.4423828,-0.1038208,-0.86553955,-0.0625,-0.40625,0.078125
1696254019958,-0.43530273,-0.108947754,-0.86846924,0.125,-0.609375,0.21875
1696254019996,-0.43896484,-0.11187744,-0.8689575,0.0625,-0.71875,0.03125
1696254020036,-0.44262695,-0.10723877,-0.86505127,0.203125,-0.59375,0.25
1696254020077,-0.4375,-0.10772705,-0.86138916,0.484375,-0.46875,0.0625
1696254020140,-0.43969727,-0.11090088,-0.8579712,0.21875,-0.546875,0.25
1696254020157,-0.44213867,-0.105041504,-0.8682251,0.171875,-0.453125,0.15625
1696254020196,-0.4416504,-0.11114502,-0.86553955,-0.171875,-0.453125,0.234375
1696254020237,-0.44702148,-0.11114502,-0.8609009,-0.0625,-0.3125,0.078125
1696254020277,-0.4428711,-0.1026001,-0.86798096,-0.0625,-0.59375,0.296875
1696254020318,-0.43823242,-0.10992432,-0.86505127,-0.125,-0.4375,0.15625
1696254020357,-0.43969727,-0.10699463,-0.8623657,-0.140625,-0.296875,0.171875
1696254020397,-0.43896484,-0.11407471,-0.8616333,-0.171875,-0.40625,0.265625
1696254020437,-0.44555664,-0.10601807,-0.8699341,-0.15625,-0.328125,0.125
1696254020475,-0.4416504,-0.113342285,-0.8623657,-0.28125,-0.453125,0.09375
1696254020518,-0.44433594,-0.11090088,-0.8652954,0.078125,-0.40625,0.09375
1696254020556,-0.44458008,-0.10357666,-0.8604126,0.28125,-0.546875,0.0625
1696254020598,-0.44213867,-0.109436035,-0.86260986,0.125,-0.40625,0.25
1696254020636,-0.43530273,-0.09844971,-0.8670044,-0.03125,-0.3125,0.09375
1696254020679,-0.4440918,-0.10601807,-0.87042236,-0.125,-0.5,0.109375
1696254020717,-0.44140625,-0.10284424,-0.8687134,0.140625,-0.1875,0.125
1696254020780,-0.44458008,-0.1038208,-0.8674927,-0.15625,-0.4375,0.171875
1696254020797,-0.4387207,-0.108947754,-0.86260986,0.015625,-0.453125,0.203125
1696254020838,-0.4350586,-0.10430908,-0.8609009,0.09375,-0.359375,0.203125
1696254020879,-0.44189453,-0.10992432,-0.87628174,-0.203125,-0.625,0.234375
1696254020915,-0.4428711,-0.1104126,-0.864563,-0.125,-0.578125,0.109375
1696254020977,-0.4387207,-0.10455322,-0.8579712,0.0625,-0.34375,0.0
1696254020994,-0.4399414,-0.10626221,-0.8713989,-0.25,-0.3125,0.1875
1696254021017,-0.4453125,-0.10357666,-0.88116455,-0.75,-0.328125,0.1875
1696254021101,-0.4453125,-0.10870361,-0.8567505,-0.671875,-0.09375,0.28125
1696254021104,-0.4428711,-0.10650635,-0.85284424,-0.859375,-0.1875,0.234375
1696254021136,-0.4416504,-0.105529785,-0.8587036,-0.828125,-0.328125,0.25
1696254021177,-0.4423828,-0.117492676,-0.8753052,-0.96875,-0.5625,0.3125
1696254021217,-0.43798828,-0.1116333,-0.862854,-0.34375,-0.546875,0.328125
1696254021257,-0.43920898,-0.1116333,-0.85894775,-0.3125,-0.4375,0.3125
1696254021296,-0.4465332,-0.11187744,-0.8694458,0.5,-0.75,0.203125
1696254021336,-0.4321289,-0.11236572,-0.8591919,1.859375,-0.65625,-0.015625
1696254021376,-0.43530273,-0.105529785,-0.85723877,0.984375,-0.828125,0.109375
1696254021415,-0.4404297,-0.10650635,-0.87091064,-0.015625,-0.9375,0.28125
1696254021457,-0.44213867,-0.11431885,-0.85723877,-0.3125,-0.53125,0.125
1696254021496,-0.44555664,-0.10357666,-0.86309814,-0.234375,-0.46875,0.109375
1696254021536,-0.4440918,-0.11236572,-0.8772583,-0.265625,-0.71875,0.15625
1696254021577,-0.44140625,-0.11431885,-0.8682251,-0.03125,-0.578125,0.28125
1696254021616,-0.43725586,-0.10455322,-0.87042236,0.125,-0.15625,0.109375
1696254021660,-0.4428711,-0.10870361,-0.8682251,0.234375,-0.53125,0.265625
1696254021699,-0.43920898,-0.10845947,-0.86187744,0.125,-0.421875,0.09375
1696254021737,-0.4404297,-0.1038208,-0.87335205,0.140625,-0.375,0.25
1696254021779,-0.43554688,-0.109680176,-0.87335205,-0.109375,-0.359375,0.359375
1696254021816,-0.43823242,-0.10479736,-0.8609009,0.171875,-0.34375,0.109375
1696254021859,-0.44360352,-0.1038208,-0.86798096,0.015625,-0.59375,0.046875
1696254021896,-0.4411621,-0.105773926,-0.864563,-0.09375,-0.5,0.125
1696254021938,-0.43823242,-0.10455322,-0.86553955,0.046875,-0.65625,0.109375
1696254021977,-0.43969727,-0.11138916,-0.8743286,-0.15625,-0.25,0.28125
1696254022018,-0.43725586,-0.10479736,-0.8657837,-0.25,-0.25,0.25
1696254022059,-0.43847656,-0.10479736,-0.8689575,-0.015625,-0.484375,0.1875
1696254022097,-0.44458008,-0.11065674,-0.8652954,0.03125,-0.5,0.140625
1696254022136,-0.43774414,-0.10357666,-0.8674927,-0.078125,-0.4375,0.265625
1696254022176,-0.43847656,-0.10748291,-0.8635864,-0.03125,-0.46875,0.125
1696254022215,-0.43701172,-0.10699463,-0.8621216,-0.125,-0.375,0.234375
1696254022298,-0.43798828,-0.10797119,-0.8699341,0.015625,-0.5,0.078125
1696254022301,-0.43676758,-0.113098145,-0.8616333,-0.078125,-0.375,0.03125
1696254022335,-0.43603516,-0.10601807,-0.8621216,0.015625,-0.25,0.109375
1696254022355,-0.44335938,-0.10455322,-0.87164307,-0.140625,-0.390625,0.171875
1696254022397,-0.44311523,-0.108947754,-0.86505127,0.109375,-0.140625,0.078125
1696254022460,-0.44433594,-0.09967041,-0.8657837,-0.03125,-0.34375,0.1875
1696254022477,-0.4338379,-0.10748291,-0.86505127,-0.140625,-0.46875,0.25
1696254022518,-0.44067383,-0.11016846,-0.86724854,0.1875,-0.453125,0.265625
1696254022556,-0.43554688,-0.11065674,-0.8648071,-0.046875,-0.53125,0.171875
1696254022600,-0.4440918,-0.10723877,-0.8670044,-0.03125,-0.34375,-0.015625
1696254022636,-0.4411621,-0.10601807,-0.8635864,-0.171875,-0.4375,0.21875
1696254022677,-0.43896484,-0.11212158,-0.862854,-0.09375,-0.265625,0.0625
1696254022716,-0.4440918,-0.105773926,-0.86065674,-0.171875,-0.375,0.203125
1696254022755,-0.43286133,-0.105529785,-0.866272,-0.546875,-0.5,0.21875
1696254022797,-0.43798828,-0.101379395,-0.8579712,-0.0625,-0.5625,0.078125
1696254022835,-0.44384766,-0.1038208,-0.87823486,-0.234375,-0.546875,0.09375
1696254022879,-0.4326172,-0.10406494,-0.861145,0.03125,-0.359375,0.234375
1696254022917,-0.43603516,-0.10601807,-0.8591919,-0.15625,-0.40625,0.203125
1696254022980,-0.44335938,-0.109436035,-0.86553955,-0.1875,-0.296875,0.1875
1696254023017,-0.43969727,-0.11016846,-0.86798096,-0.171875,-0.359375,0.203125
1696254023036,-0.44067383,-0.10650635,-0.866272,-0.0625,-0.453125,0.0625
1696254023077,-0.43725586,-0.11627197,-0.86553955,0.28125,-0.34375,0.25
1696254023138,-0.44384766,-0.10430908,-0.86260986,-0.203125,-0.578125,0.1875
1696254023155,-0.44091797,-0.1104126,-0.8604126,-0.171875,-0.546875,0.109375
1696254023199,-0.43725586,-0.10992432,-0.8765259,-0.484375,-0.5625,0.15625
1696254023237,-0.44384766,-0.11480713,-0.8652954,-0.28125,-0.453125,0.1875
1696254023298,-0.4399414,-0.11138916,-0.8635864,-0.03125,-0.578125,0.0
1696254023337,-0.43896484,-0.10797119,-0.86383057,0.078125,-0.375,0.109375
1696254023355,-0.43701172,-0.112854004,-0.8604126,-0.0625,-0.421875,0.265625
1696254023396,-0.43725586,-0.105529785,-0.8616333,-0.140625,-0.578125,0.21875
1696254023436,-0.4362793,-0.10333252,-0.86309814,0.0,-0.296875,0.125
1696254023476,-0.4423828,-0.10040283,-0.86138916,-0.1875,-0.125,0.234375
1696254023517,-0.43701172,-0.10699463,-0.8677368,0.125,-0.046875,0.09375
1696254023558,-0.44311523,-0.10748291,-0.8599243,-0.15625,0.0625,0.078125
1696254023597,-0.43945312,-0.11431885,-0.8687134,-0.21875,-0.5625,0.203125
1696254023615,-0.43286133,-0.10626221,-0.8609009,-0.234375,-0.109375,0.34375
1696254023657,-0.4428711,-0.10675049,-0.87213135,-1.3125,-0.609375,0.171875
1696254023698,-0.4428711,-0.10845947,-0.8665161,-1.78125,-0.578125,0.421875
1696254023736,-0.43554688,-0.11236572,-0.8567505,-1.0,-0.140625,0.296875
1696254023779,-0.44384766,-0.11529541,-0.8623657,-0.765625,-0.40625,0.3125
1696254023817,-0.43603516,-0.11871338,-0.88067627,-0.09375,-0.421875,0.15625
1696254023857,-0.4399414,-0.12261963,-0.86602783,1.03125,-0.390625,0.015625
1696254023895,-0.43652344,-0.11553955,-0.8513794,0.671875,-0.453125,-0.03125
1696254023938,-0.4416504,-0.11260986,-0.86968994,0.0625,-1.140625,0.0
1696254023981,-0.44384766,-0.105529785,-0.86505127,-0.140625,-0.8125,0.203125
1696254024017,-0.44482422,-0.10992432,-0.8591919,0.40625,-0.3125,0.0625
1696254024059,-0.44091797,-0.11602783,-0.8713989,0.140625,-1.078125,0.296875
1696254024100,-0.44213867,-0.11236572,-0.8694458,0.171875,-0.953125,0.203125
1696254024136,-0.4345703,-0.1104126,-0.8640747,0.34375,-0.6875,0.15625
1696254024179,-0.4350586,-0.11260986,-0.862854,0.328125,-0.6875,0.015625
1696254024219,-0.43579102,-0.10992432,-0.86602783,0.234375,-0.6875,0.15625
1696254024257,-0.42749023,-0.11016846,-0.8699341,-0.046875,-0.5,0.234375
1696254024298,-0.4326172,-0.10675049,-0.8731079,-0.078125,-0.328125,0.171875
1696254024336,-0.44262695,-0.11236572,-0.8735962,-0.296875,-0.28125,0.265625
1696254024376,-0.4345703,-0.113586426,-0.8670044,-0.03125,-0.265625,0.359375
1696254024417,-0.4404297,-0.10992432,-0.8609009,0.0625,-0.46875,0.0625
1696254024456,-0.43237305,-0.10748291,-0.8713989,-0.09375,-0.671875,0.078125
1696254024495,-0.43432617,-0.108947754,-0.8550415,0.25,-0.59375,-0.0625
1696254024537,-0.4416504,-0.109680176,-0.86383057,0.375,-0.53125,0.0
1696254024576,-0.43041992,-0.11798096,-0.86676025,0.109375,-0.734375,-0.046875
1696254024618,-0.43823242,-0.11065674,-0.86260986,0.125,-0.96875,0.015625
1696254024656,-0.43701172,-0.101623535,-0.8699341,0.453125,-0.953125,0.078125
1696254024697,-0.43310547,-0.10870361,-0.87213135,0.453125,-0.6875,0.078125
1696254024738,-0.43603516,-0.11431885,-0.8657837,0.5625,-0.359375,0.171875
1696254024779,-0.42993164,-0.105285645,-0.87042236,0.25,-0.53125,0.21875
1696254024818,-0.43579102,-0.1116333,-0.86602783,0.171875,-0.078125,0.0625
1696254024856,-0.43530273,-0.10723877,-0.86968994,0.0,0.015625,-0.015625
1696254024919,-0.4399414,-0.10333252,-0.8723755,-0.296875,-0.3125,0.15625
1696254024939,-0.4416504,-0.10040283,-0.8701782,-0.15625,-0.203125,0.234375
1696254024958,-0.43798828,-0.10455322,-0.866272,0.03125,-0.3125,0.21875
1696254024997,-0.43554688,-0.10723877,-0.86676025,0.109375,-0.4375,0.171875
1696254025037,-0.43139648,-0.1026001,-0.8635864,0.109375,-0.453125,0.0625
1696254025076,-0.4375,-0.10797119,-0.8689575,0.03125,-0.4375,0.28125
1696254025137,-0.43310547,-0.10333252,-0.86553955,-0.03125,-0.484375,0.125
1696254025177,-0.43896484,-0.113342285,-0.8713989,-0.0625,-0.609375,0.21875
1696254025195,-0.43408203,-0.105773926,-0.864563,-0.265625,-0.625,0.140625
1696254025235,-0.43701172,-0.10479736,-0.87628174,-0.109375,-0.09375,0.1875
1696254025295,-0.4338379,-0.105041504,-0.8718872,-0.671875,-0.25,0.171875
1696254025335,-0.43676758,-0.09918213,-0.8635864,-0.765625,-0.234375,0.171875
1696254025356,-0.4375,-0.10333252,-0.8657837,-1.171875,-0.453125,0.296875
1696254025421,-0.43481445,-0.105773926,-0.8569946,-0.875,-0.203125,0.28125
1696254025456,-0.4399414,-0.11505127,-0.8682251,-1.046875,-0.65625,0.28125
1696254025475,-0.44458008,-0.10748291,-0.87286377,-0.078125,-0.3125,0.09375
1696254025520,-0.44311523,-0.109191895,-0.87457275,0.3125,-0.59375,0.078125
1696254025557,-0.4404297,-0.109191895,-0.86065674,0.046875,-0.8125,0.375
1696254025597,-0.43823242,-0.112854004,-0.864563,0.28125,-0.78125,0.078125
1696254025637,-0.43530273,-0.1116333,-0.86138916,0.328125,-0.4375,0.078125
1696254025676,-0.44018555,-0.11138916,-0.8674927,0.1875,-0.890625,0.25
1696254025716,-0.43432617,-0.108947754,-0.8670044,0.078125,-0.84375,0.15625
1696254025756,-0.43798828,-0.11407471,-0.8687134,0.078125,-0.453125,0.15625
1696254025819,-0.43676758,-0.11138916,-0.8670044,-0.03125,-0.484375,0.078125
1696254025835,-0.42797852,-0.10821533,-0.8687134,-0.15625,-0.421875,0.171875
1696254025877,-0.43676758,-0.10870361,-0.8699341,0.03125,-0.546875,0.109375
1696254025919,-0.43725586,-0.116760254,-0.86968994,0.015625,-0.25,0.09375
1696254025955,-0.42919922,-0.10699463,-0.86846924,-0.1875,-0.375,0.140625
1696254025997,-0.43920898,-0.1038208,-0.8687134,-0.390625,-0.5,0.34375
1696254026036,-0.43115234,-0.11065674,-0.8674927,-0.28125,-0.40625,0.296875
1696254026098,-0.4399414,-0.113586426,-0.8616333,-0.09375,-0.40625,0.21875
1696254026141,-0.43286133,-0.10650635,-0.86968994,-0.078125,-0.453125,0.15625
1696254026176,-0.43188477,-0.11016846,-0.8706665,-0.15625,-0.234375,0.09375
1696254026195,-0.43823242,-0.10723877,-0.8713989,-0.125,-0.375,0.03125
1696254026215,-0.43164062,-0.108947754,-0.8687134,-0.3125,-0.4375,0.15625
1696254026257,-0.43725586,-0.113098145,-0.86602783,0.03125,-0.296875,0.1875
1696254026297,-0.43310547,-0.11578369,-0.86431885,0.34375,-0.453125,0.171875
1696254026338,-0.43945312,-0.1104126,-0.86602783,0.109375,-0.1875,0.015625
1696254026377,-0.4428711,-0.109680176,-0.8723755,-0.34375,-0.171875,0.3125
1696254026417,-0.43945312,-0.109680176,-0.8545532,-0.109375,-0.28125,0.21875
1696254026458,-0.43530273,-0.11431885,-0.8621216,-0.125,-0.34375,0.171875
1696254026498,-0.44311523,-0.10601807,-0.87042236,-0.203125,-0.640625,0.109375
1696254026537,-0.4333496,-0.10015869,-0.8652954,-0.484375,-0.609375,0.1875
1696254026576,-0.43823242,-0.11456299,-0.86846924,-0.4375,-0.75,0.171875
1696254026618,-0.43603516,-0.10650635,-0.8640747,-0.375,-0.765625,0.296875
1696254026658,-0.43481445,-0.10870361,-0.86846924,-0.390625,-0.484375,0.15625
1696254026698,-0.4399414,-0.121154785,-0.8652954,-0.765625,-0.484375,0.21875
1696254026738,-0.43969727,-0.11260986,-0.87628174,-0.921875,-0.53125,0.078125
1696254026777,-0.4321289,-0.11480713,-0.8670044,-0.5625,-0.4375,0.15625
1696254026818,-0.4338379,-0.11187744,-0.8701782,-0.421875,-0.21875,0.15625
1696254026858,-0.43481445,-0.11505127,-0.8670044,-0.15625,-0.078125,0.171875
1696254026897,-0.43725586,-0.11651611,-0.86846924,-0.34375,-0.453125,0.15625
1696254026938,-0.4296875,-0.11480713,-0.8657837,-0.3125,-0.390625,0.265625
1696254026976,-0.43945312,-0.116760254,-0.8623657,-0.515625,-0.21875,0.25
1696254027017,-0.43017578,-0.11895752,-0.85772705,-0.765625,-0.640625,0.390625
1696254027057,-0.44067383,-0.117004395,-0.86187744,-0.265625,-0.265625,0.21875
1696254027096,-0.43432617,-0.11529541,-0.85357666,0.171875,-0.21875,0.203125
1696254027139,-0.43774414,-0.11505127,-0.87213135,0.46875,-0.140625,0.09375
1696254027178,-0.4326172,-0.11627197,-0.8723755,0.328125,-0.046875,0.09375
1696254027217,-0.43823242,-0.11798096,-0.85772705,0.203125,-0.046875,0.0625
1696254027259,-0.43139648,-0.116760254,-0.87091064,-0.078125,-0.09375,0.15625
1696254027297,-0.43920898,-0.11383057,-0.8706665,-0.328125,-0.234375,0.3125
1696254027339,-0.4423828,-0.11505127,-0.8640747,-0.265625,-0.34375,0.265625
1696254027376,-0.44311523,-0.113342285,-0.8682251,-0.390625,-0.375,0.1875
1696254027421,-0.44384766,-0.117492676,-0.8599243,0.21875,-0.3125,0.140625
1696254027457,-0.4375,-0.1194458,-0.8699341,0.046875,-0.546875,0.1875
1696254027498,-0.43774414,-0.11187744,-0.86920166,0.234375,-0.578125,0.171875
1696254027537,-0.4375,-0.11651611,-0.864563,0.015625,-0.515625,0.21875
1696254027557,-0.44140625,-0.10723877,-0.86724854,0.015625,-0.359375,0.125
1696254027597,-0.43188477,-0.11920166,-0.87164307,-0.21875,-0.484375,0.171875
1696254027638,-0.43969727,-0.12188721,-0.86920166,-0.546875,-0.28125,0.234375
1696254027699,-0.44091797,-0.11773682,-0.8623657,-0.421875,-0.296875,0.1875
1696254027715,-0.43652344,-0.117248535,-0.861145,-0.65625,-0.421875,0.1875
1696254027757,-0.43920898,-0.109191895,-0.87091064,-0.421875,-0.46875,0.09375
1696254027798,-0.44189453,-0.11846924,-0.86260986,-0.1875,-0.4375,0.265625
1696254027837,-0.4423828,-0.120666504,-0.8674927,0.0625,-0.390625,0.078125
1696254027875,-0.43969727,-0.11627197,-0.8640747,-0.3125,-0.40625,0.21875
1696254027917,-0.4416504,-0.1116333,-0.86187744,-0.0625,-0.296875,0.296875
1696254027976,-0.4362793,-0.113342285,-0.8701782,-0.53125,-0.578125,0.40625
1696254027994,-0.4345703,-0.121154785,-0.861145,-0.515625,-0.578125,0.15625
1696254028058,-0.43945312,-0.11627197,-0.8706665,-0.609375,-0.578125,0.265625
1696254028076,-0.44580078,-0.11871338,-0.8670044,-0.109375,-0.34375,0.0625
1696254028139,-0.4399414,-0.117004395,-0.862854,0.234375,-0.4375,0.015625
1696254028156,-0.43652344,-0.12042236,-0.8677368,0.078125,-0.4375,0.046875
1696254028196,-0.44018555,-0.12042236,-0.85894775,0.0,-0.6875,0.28125
1696254028236,-0.44360352,-0.1194458,-0.86846924,-0.234375,-0.625,0.09375
1696254028278,-0.44311523,-0.11993408,-0.8670044,0.0625,-0.625,0.25
1696254028337,-0.43652344,-0.11529541,-0.8574829,-0.40625,-0.6875,0.1875
1696254028355,-0.43945312,-0.117492676,-0.8657837,0.03125,-0.1875,0.125
1696254028417,-0.43432617,-0.121154785,-0.85723877,0.28125,-0.390625,0.03125
1696254028437,-0.4362793,-0.12213135,-0.8616333,0.78125,-0.484375,0.078125
1696254028480,-0.43798828,-0.11846924,-0.86968994,1.515625,-0.296875,0.03125
1696254028517,-0.43798828,-0.11871338,-0.8701782,1.359375,-0.484375,-0.078125
1696254028556,-0.43530273,-0.10723877,-0.8731079,1.21875,-0.3125,-0.015625
1696254028598,-0.43798828,-0.11505127,-0.86187744,0.578125,-0.1875,0.125
1696254028636,-0.43969727,-0.1104126,-0.8711548,-0.1875,-0.171875,0.296875
1696254028679,-0.43188477,-0.113586426,-0.8623657,-0.328125,-0.390625,0.3125
1696254028716,-0.43945312,-0.11383057,-0.8574829,0.140625,-0.359375,0.078125
1696254028756,-0.4387207,-0.11431885,-0.8635864,-0.171875,-0.4375,0.125
1696254028797,-0.4345703,-0.109680176,-0.8711548,-0.3125,-0.46875,0.109375
1696254028839,-0.43164062,-0.11773682,-0.8587036,-0.03125,-0.734375,0.125
1696254028856,-0.43481445,-0.11651611,-0.8665161,-0.203125,-0.765625,0.078125
1696254028918,-0.44213867,-0.11383057,-0.8674927,0.453125,-0.640625,0.15625
1696254028936,-0.43554688,-0.10870361,-0.8713989,0.484375,-0.6875,0.0625
1696254028977,-0.43530273,-0.11260986,-0.866272,0.484375,-0.671875,-0.046875
1696254029017,-0.42993164,-0.1116333,-0.8701782,0.234375,-0.5,0.125
1696254029055,-0.42993164,-0.109680176,-0.86383057,-0.125,-0.46875,0.0625
1696254029097,-0.42919922,-0.11138916,-0.86309814,0.0,-0.359375,0.125
1696254029137,-0.4375,-0.10748291,-0.8731079,0.171875,-0.28125,0.15625
1696254029177,-0.4453125,-0.10870361,-0.8753052,0.1875,-0.265625,0.21875
1696254029218,-0.43554688,-0.10748291,-0.86846924,-0.078125,-0.5625,0.25
1696254029259,-0.4404297,-0.105773926,-0.86431885,-0.03125,-0.359375,0.03125
1696254029297,-0.43945312,-0.10430908,-0.8640747,-0.109375,-0.375,0.125
1696254029336,-0.43579102,-0.11480713,-0.8609009,-0.234375,-0.640625,0.09375
1696254029377,-0.4321289,-0.10601807,-0.86676025,-0.15625,-0.734375,0.140625
1696254029416,-0.44140625,-0.11114502,-0.8670044,-0.046875,-0.234375,0.203125
1696254029459,-0.43920898,-0.10699463,-0.86505127,-0.15625,-0.53125,0.09375
1696254029496,-0.43286133,-0.10821533,-0.8616333,0.0,-0.3125,0.140625
1696254029538,-0.43969727,-0.11016846,-0.8640747,-0.03125,-0.328125,0.1875
1696254029576,-0.43725586,-0.10992432,-0.8677368,0.1875,-0.46875,0.1875
1696254029616,-0.42993164,-0.10992432,-0.86505127,0.125,-0.296875,0.109375
1696254029657,-0.43579102,-0.109680176,-0.8713989,0.171875,-0.46875,0.1875
1696254029697,-0.43310547,-0.109436035,-0.86968994,0.046875,-0.28125,0.125
1696254029737,-0.4375,-0.10650635,-0.86968994,0.0,-0.5,-0.046875
1696254029776,-0.43359375,-0.11114502,-0.85943604,-0.03125,-0.421875,0.140625
1696254029819,-0.43603516,-0.11553955,-0.86602783,0.0,-0.46875,0.140625
1696254029858,-0.4338379,-0.109436035,-0.8670044,-0.359375,-0.25,0.359375
1696254029897,-0.43652344,-0.10723877,-0.86920166,-0.8125,-0.578125,0.3125
1696254029936,-0.43530273,-0.11260986,-0.8633423,-0.90625,-0.71875,0.359375
1696254029977,-0.43359375,-0.11260986,-0.86553955,-0.171875,-0.3125,0.234375
1696254030018,-0.4321289,-0.11236572,-0.86260986,0.125,-0.296875,0.078125
1696254030058,-0.43603516,-0.10284424,-0.862854,-0.046875,-0.328125,0.234375
1696254030096,-0.43676758,-0.11212158,-0.8591919,-0.171875,-0.421875,0.09375
1696254030136,-0.43725586,-0.11895752,-0.8731079,-0.03125,-0.5,0.15625
1696254030178,-0.43725586,-0.10089111,-0.8718872,-0.125,-0.75,0.28125
1696254030195,-0.43896484,-0.11553955,-0.861145,-0.09375,-0.453125,0.03125
1696254030237,-0.4350586,-0.11431885,-0.866272,0.015625,-0.5625,0.125
1696254030278,-0.4309082,-0.109436035,-0.8635864,0.203125,-0.125,0.203125
1696254030341,-0.43554688,-0.108947754,-0.862854,-0.171875,-0.390625,0.1875
1696254030375,-0.43701172,-0.10772705,-0.86260986,-0.203125,-0.328125,0.03125
1696254030394,-0.44018555,-0.10479736,-0.8665161,-0.375,-0.296875,0.1875
1696254030438,-0.4321289,-0.11456299,-0.8726196,-0.375,-0.234375,0.140625
1696254030495,-0.43481445,-0.11016846,-0.8699341,-0.265625,-0.3125,0.140625
1696254030515,-0.4411621,-0.108947754,-0.861145,-0.046875,-0.515625,0.21875
1696254030581,-0.43408203,-0.108947754,-0.8567505,0.125,-0.25,0.203125
1696254030597,-0.43481445,-0.11090088,-0.8689575,-0.09375,-0.296875,0.28125
1696254030637,-0.4321289,-0.10650635,-0.8713989,-0.09375,-0.40625,0.203125
1696254030676,-0.43554688,-0.11431885,-0.8670044,-0.171875,-0.515625,0.125
1696254030717,-0.4387207,-0.11065674,-0.86920166,-0.078125,-0.453125,0.171875
1696254030758,-0.43115234,-0.11529541,-0.86138916,-0.078125,-0.34375,0.203125
1696254030795,-0.43652344,-0.10797119,-0.861145,-0.09375,-0.390625,0.28125
1696254030837,-0.43652344,-0.11065674,-0.8670044,-0.046875,-0.546875,0.265625
1696254030878,-0.4375,-0.10870361,-0.8731079,0.015625,-0.484375,0.09375
1696254030918,-0.43676758,-0.11138916,-0.8713989,0.3125,-0.296875,0.171875
1696254030956,-0.43823242,-0.11553955,-0.8711548,-0.0625,-0.546875,0.09375
1696254031008,-0.43408203,-0.113586426,-0.8657837,0.0625,-0.390625,0.21875
1696254031056,-0.43652344,-0.11431885,-0.864563,0.234375,-0.40625,0.203125
1696254031078,-0.43554688,-0.11456299,-0.86968994,-0.1875,-0.375,0.15625
1696254031117,-0.4411621,-0.113342285,-0.8674927,-0.15625,-0.40625,0.15625
1696254031156,-0.4375,-0.11138916,-0.8723755,-0.171875,-0.328125,0.203125
1696254031217,-0.43481445,-0.1104126,-0.8711548,0.0,-0.28125,0.140625
1696254031237,-0.4321289,-0.11431885,-0.86920166,-0.125,-0.421875,0.078125
1696254031278,-0.43652344,-0.10870361,-0.8674927,-0.3125,-0.421875,0.140625
1696254031318,-0.43920898,-0.11553955,-0.8670044,-0.15625,-0.25,0.0625
1696254031355,-0.43579102,-0.11236572,-0.8677368,-0.375,-0.359375,0.21875
1696254031400,-0.43481445,-0.11236572,-0.86968994,-0.265625,-0.25,0.171875
1696254031437,-0.4375,-0.11383057,-0.8682251,-0.296875,-0.328125,0.203125
1696254031478,-0.43945312,-0.113342285,-0.8760376,-0.328125,-0.28125,0.15625
1696254031496,-0.43237305,-0.117004395,-0.8648071,-0.171875,-0.328125,0.109375
1696254031538,-0.44140625,-0.113586426,-0.86065674,-0.40625,-0.390625,0.171875
1696254031578,-0.43530273,-0.11578369,-0.8652954,-0.46875,-0.453125,0.28125
1696254031615,-0.4350586,-0.11651611,-0.8701782,-0.1875,-0.234375,0.203125
1696254031657,-0.43774414,-0.117492676,-0.86676025,-0.078125,-0.359375,0.265625
1696254031698,-0.43432617,-0.10626221,-0.86138916,0.015625,-0.5,0.109375
1696254031736,-0.43920898,-0.11431885,-0.8748169,0.0,-0.421875,0.203125
1696254031778,-0.4345703,-0.11627197,-0.8652954,-0.0625,-0.53125,0.234375
1696254031819,-0.43847656,-0.10797119,-0.86724854,0.234375,-0.40625,0.109375
1696254031857,-0.4399414,-0.11114502,-0.86846924,-0.09375,-0.3125,0.1875
1696254031899,-0.43969727,-0.11187744,-0.8616333,-0.15625,-0.390625,0.1875
1696254031938,-0.4423828,-0.11187744,-0.86138916,-0.21875,-0.296875,0.0625
1696254031976,-0.43408203,-0.11187744,-0.862854,-0.1875,-0.328125,0.078125
1696254032017,-0.43115234,-0.11456299,-0.8670044,-0.421875,-0.4375,0.203125
1696254032058,-0.43847656,-0.11212158,-0.8621216,-0.578125,-0.234375,0.125
1696254032096,-0.43945312,-0.11651611,-0.8648071,-0.328125,-0.25,0.15625
1696254032138,-0.43676758,-0.11602783,-0.8687134,-0.25,-0.234375,0.09375
1696254032177,-0.44458008,-0.11553955,-0.86676025,-0.1875,-0.4375,0.03125
1696254032218,-0.43652344,-0.117004395,-0.8648071,0.0,-0.359375,0.25
1696254032258,-0.43823242,-0.116760254,-0.86920166,-0.0625,-0.484375,0.21875
1696254032300,-0.43896484,-0.116760254,-0.86920166,-0.140625,-0.34375,0.25
1696254032336,-0.43945312,-0.11871338,-0.8701782,-0.171875,-0.40625,0.265625
1696254032377,-0.43896484,-0.1194458,-0.86724854,-0.15625,-0.421875,0.15625
1696254032417,-0.43945312,-0.113586426,-0.86676025,-0.3125,-0.390625,0.09375
1696254032458,-0.4416504,-0.11431885,-0.86431885,-0.125,-0.390625,0.09375
1696254032495,-0.43237305,-0.11407471,-0.8694458,-0.09375,-0.515625,0.15625
1696254032537,-0.43969727,-0.120910645,-0.86138916,-0.015625,-0.375,0.203125
1696254032578,-0.44262695,-0.112854004,-0.87164307,-0.015625,-0.53125,0.328125
1696254032617,-0.44140625,-0.11651611,-0.87213135,0.078125,-0.328125,0.125
1696254032657,-0.43579102,-0.11480713,-0.8687134,0.0625,-0.390625,0.140625
1696254032698,-0.43603516,-0.11602783,-0.86505127,-0.0625,-0.359375,0.125
1696254032736,-0.44262695,-0.11383057,-0.864563,-0.15625,-0.53125,0.09375
1696254032817,-0.4345703,-0.117248535,-0.86187744,-0.21875,-0.359375,0.21875
1696254032819,-0.43945312,-0.113098145,-0.86920166,-0.25,-0.328125,0.0625
1696254032836,-0.44067383,-0.12188721,-0.8689575,-0.1875,-0.390625,0.21875
1696254032877,-0.43554688,-0.117248535,-0.862854,-0.171875,-0.3125,0.21875
1696254032916,-0.43530273,-0.12017822,-0.86138916,-0.125,-0.328125,0.234375
1696254032956,-0.43823242,-0.11798096,-0.8657837,-0.125,-0.34375,0.328125
1696254032997,-0.43774414,-0.112854004,-0.8609009,-0.125,-0.328125,0.203125
1696254033037,-0.4404297,-0.11578369,-0.8633423,-0.140625,-0.25,0.125
1696254033076,-0.43823242,-0.11920166,-0.8687134,-0.109375,-0.484375,0.296875
1696254033139,-0.43310547,-0.11798096,-0.8635864,-0.390625,-0.296875,0.15625
1696254033156,-0.4375,-0.11553955,-0.86309814,0.0,-0.390625,0.296875
1696254033220,-0.44067383,-0.11383057,-0.866272,-0.15625,-0.421875,0.09375
1696254033236,-0.4345703,-0.11627197,-0.8616333,0.09375,-0.359375,0.203125
1696254033279,-0.43823242,-0.11578369,-0.862854,0.0,-0.234375,0.03125
1696254033317,-0.4428711,-0.12017822,-0.86309814,-0.046875,-0.09375,0.140625
1696254033357,-0.44091797,-0.11993408,-0.8701782,-0.375,-0.328125,0.125
1696254033399,-0.43725586,-0.11895752,-0.8526001,-0.015625,-0.09375,0.0625
1696254033459,-0.44091797,-0.116760254,-0.87213135,0.0625,-0.28125,0.15625
1696254033476,-0.44458008,-0.113586426,-0.85723877,1.484375,-0.078125,0.15625
1696254033516,-0.43945312,-0.11236572,-0.8640747,1.28125,0.0625,0.0625
1696254033556,-0.4375,-0.10992432,-0.86724854,1.15625,-0.34375,0.171875
1696254033596,-0.43530273,-0.113586426,-0.86431885,0.859375,-0.078125,0.25
1696254033635,-0.43725586,-0.10748291,-0.8599243,0.03125,-0.53125,0.09375
1696254033675,-0.4440918,-0.108947754,-0.87335205,-0.328125,-0.734375,0.28125
1696254033716,-0.43603516,-0.11407471,-0.86260986,-0.4375,-0.453125,0.109375
1696254033756,-0.44140625,-0.10821533,-0.8648071,-0.265625,-0.671875,0.171875
1696254033800,-0.43798828,-0.11090088,-0.8706665,-0.359375,-0.40625,0.09375
1696254033838,-0.4465332,-0.113586426,-0.87701416,0.015625,-0.734375,0.203125
1696254033877,-0.44458008,-0.11212158,-0.864563,0.3125,-0.53125,0.171875
1696254033938,-0.43774414,-0.10748291,-0.8635864,0.5,-0.390625,0.078125
1696254033977,-0.4404297,-0.11138916,-0.8635864,0.375,-0.375,0.0
1696254034018,-0.43896484,-0.113586426,-0.8604126,0.1875,-0.546875,0.21875
1696254034035,-0.44213867,-0.101623535,-0.86187744,-0.03125,-0.46875,0.109375
1696254034077,-0.43579102,-0.108947754,-0.86798096,0.046875,-0.4375,0.046875
1696254034118,-0.43164062,-0.108947754,-0.8682251,-0.015625,-0.25,0.109375
1696254034134,-0.44628906,-0.10797119,-0.87091064,-0.203125,-0.46875,0.15625
1696254034177,-0.44091797,-0.11065674,-0.861145,0.109375,-0.421875,0.1875
1696254034217,-0.4375,-0.10723877,-0.85821533,0.078125,-0.40625,0.1875
1696254034257,-0.4345703,-0.10870361,-0.86260986,-0.109375,-0.546875,0.234375
1696254034297,-0.44067383,-0.10845947,-0.86724854,-0.078125,-0.375,0.21875
1696254034337,-0.44360352,-0.113586426,-0.86553955,-0.015625,-0.34375,-0.046875
1696254034377,-0.44189453,-0.1116333,-0.8674927,-0.265625,-0.34375,0.25
1696254034417,-0.4440918,-0.10626221,-0.85821533,-0.109375,-0.296875,0.1875
1696254034457,-0.4423828,-0.11236572,-0.86383057,-0.21875,-0.375,0.109375
1696254034496,-0.44311523,-0.1116333,-0.8670044,-0.3125,-0.40625,0.15625
1696254034537,-0.44482422,-0.11138916,-0.86920166,-0.34375,-0.421875,0.203125
1696254034579,-0.4453125,-0.10992432,-0.8677368,-0.140625,-0.484375,0.15625
1696254034618,-0.43603516,-0.10406494,-0.8604126,0.109375,-0.546875,0.0625
1696254034656,-0.4345703,-0.10675049,-0.8657837,-0.171875,-0.546875,0.328125
1696254034696,-0.44189453,-0.11212158,-0.86846924,-0.015625,-0.484375,0.1875
1696254034740,-0.4416504,-0.10821533,-0.86505127,-0.125,-0.3125,0.09375
1696254034779,-0.4362793,-0.108947754,-0.8550415,-0.140625,-0.390625,0.1875
1696254034818,-0.43823242,-0.10211182,-0.86260986,0.015625,-0.5,0.21875
1696254034856,-0.43774414,-0.1116333,-0.8665161,-0.1875,-0.5,0.234375
1696254034897,-0.44067383,-0.109191895,-0.86553955,0.0,-0.546875,0.296875
1696254034937,-0.44091797,-0.11383057,-0.8701782,-0.46875,-0.625,0.21875
1696254034978,-0.43945312,-0.1104126,-0.86920166,-0.46875,-0.359375,0.296875
1696254035017,-0.44189453,-0.1104126,-0.86016846,-0.390625,-0.546875,0.28125
1696254035055,-0.44384766,-0.1104126,-0.8648071,-0.3125,-0.390625,0.203125
1696254035096,-0.44140625,-0.11480713,-0.8657837,-0.203125,-0.265625,0.203125
1696254035135,-0.4411621,-0.11065674,-0.8587036,-0.015625,-0.1875,0.046875
1696254035176,-0.43579102,-0.10748291,-0.86920166,-0.15625,-0.59375,0.015625
1696254035216,-0.4411621,-0.11090088,-0.8633423,-0.203125,-0.390625,0.234375
1696254035256,-0.44335938,-0.109680176,-0.8677368,-0.234375,-0.34375,0.328125
1696254035296,-0.44140625,-0.11480713,-0.86431885,-0.015625,-0.1875,0.296875
1696254035337,-0.4440918,-0.116760254,-0.8621216,-0.140625,-0.3125,0.015625
1696254035376,-0.44482422,-0.11627197,-0.8616333,-0.140625,-0.5625,0.015625
1696254035419,-0.44458008,-0.11651611,-0.8633423,-0.03125,-0.421875,0.15625
1696254035435,-0.4411621,-0.11798096,-0.86260986,-0.28125,-0.25,0.28125
1696254035477,-0.4326172,-0.113098145,-0.86065674,-0.296875,-0.3125,0.09375
1696254035538,-0.43798828,-0.11187744,-0.8657837,-0.703125,-0.4375,0.171875
1696254035579,-0.43798828,-0.11480713,-0.8701782,-0.796875,-0.4375,0.125
1696254035595,-0.44091797,-0.11114502,-0.8562622,-0.046875,-0.328125,0.140625
1696254035640,-0.43481445,-0.11212158,-0.861145,0.125,-0.34375,0.09375
1696254035699,-0.43164062,-0.11798096,-0.8657837,0.078125,-0.375,0.125
1696254035737,-0.43725586,-0.11431885,-0.8623657,0.046875,-0.25,0.15625
1696254035755,-0.43896484,-0.11529541,-0.8635864,-0.078125,-0.140625,0.171875
1696254035797,-0.4428711,-0.11505127,-0.8633423,-0.34375,-0.40625,0.140625
1696254035838,-0.44140625,-0.11529541,-0.8584595,-0.234375,-0.359375,0.09375
1696254035876,-0.4465332,-0.11407471,-0.87164307,-0.109375,-0.328125,0.28125
1696254035919,-0.44189453,-0.11553955,-0.8621216,-0.109375,-0.390625,0.109375
1696254035956,-0.44018555,-0.12188721,-0.8609009,-0.109375,-0.375,0.125
1696254035996,-0.4399414,-0.117492676,-0.86016846,-0.125,-0.40625,0.234375
1696254036036,-0.44702148,-0.11553955,-0.87164307,-0.265625,-0.265625,0.296875
1696254036075,-0.44580078,-0.124572754,-0.86676025,-0.25,-0.421875,0.109375
1696254036116,-0.4411621,-0.11431885,-0.86016846,-0.15625,-0.484375,0.03125
1696254036157,-0.44384766,-0.11651611,-0.86553955,-0.09375,-0.5625,0.015625
1696254036197,-0.4387207,-0.11627197,-0.86309814,-0.21875,-0.484375,0.28125
1696254036259,-0.4375,-0.11383057,-0.86138916,-0.21875,-0.53125,0.109375
1696254036297,-0.44580078,-0.11553955,-0.8687134,-0.265625,-0.5625,0.28125
1696254036315,-0.4404297,-0.109680176,-0.86602783,-0.15625,-0.453125,0.28125
1696254036357,-0.44140625,-0.11260986,-0.8633423,-0.265625,-0.4375,0.359375
1696254036398,-0.43701172,-0.117004395,-0.86138916,-0.171875,-0.375,0.234375
1696254036436,-0.44335938,-0.113098145,-0.86065674,-0.375,-0.5,0.21875
1696254036478,-0.44067383,-0.121398926,-0.8609009,-0.390625,-0.3125,0.3125
1696254036517,-0.44506836,-0.11456299,-0.8689575,-0.296875,-0.21875,0.25
1696254036560,-0.44213867,-0.109191895,-0.8635864,-0.484375,-0.390625,0.140625
1696254036598,-0.4428711,-0.11846924,-0.8609009,-0.59375,-0.484375,0.28125
1696254036638,-0.43774414,-0.12530518,-0.8584595,-0.421875,-0.359375,0.203125
1696254036677,-0.43798828,-0.12042236,-0.8599243,-0.546875,-0.28125,0.359375
1696254036717,-0.44604492,-0.1194458,-0.8723755,-0.640625,-0.625,0.28125
1696254036736,-0.44628906,-0.11578369,-0.8591919,-0.484375,-0.359375,0.234375
1696254036778,-0.4440918,-0.12432861,-0.86431885,-0.953125,-0.421875,0.21875
1696254036820,-0.4423828,-0.11993408,-0.8670044,-0.9375,-0.453125,0.15625
1696254036856,-0.4362793,-0.11993408,-0.85284424,-0.5625,-0.671875,0.296875
1696254036897,-0.4399414,-0.12310791,-0.8623657,-1.15625,-0.703125,0.421875
1696254036940,-0.4326172,-0.12408447,-0.86138916,-1.15625,-0.3125,0.28125
1696254036975,-0.44140625,-0.12554932,-0.8616333,-1.234375,-0.140625,0.34375
1696254037016,-0.4423828,-0.13604736,-0.86065674,-1.09375,-0.359375,0.296875
1696254037060,-0.4387207,-0.13092041,-0.861145,-0.5,0.09375,0.03125
1696254037098,-0.44433594,-0.13043213,-0.85284424,0.34375,0.75,0.21875
1696254037139,-0.453125,-0.13092041,-0.87750244,-0.375,0.34375,0.390625
1696254037179,-0.44628906,-0.12774658,-0.8652954,-0.109375,0.46875,0.09375
1696254037219,-0.44458008,-0.12750244,-0.86016846,-0.265625,-0.125,0.25
1696254037257,-0.43774414,-0.1350708,-0.8526001,-0.25,-0.296875,0.21875
1696254037297,-0.44702148,-0.12896729,-0.8530884,-0.203125,-0.34375,0.171875
1696254037337,-0.44921875,-0.13116455,-0.8652954,-0.28125,-0.34375,0.265625
1696254037377,-0.44750977,-0.1338501,-0.8604126,-0.234375,-0.375,0.3125
1696254037415,-0.44580078,-0.13140869,-0.8604126,0.015625,-0.453125,0.390625
1696254037457,-0.44433594,-0.13165283,-0.8567505,0.0,-0.390625,0.046875
1696254037498,-0.43823242,-0.13116455,-0.84454346,-0.40625,-0.3125,0.265625
1696254037537,-0.44628906,-0.12994385,-0.8587036,-0.28125,-0.375,0.109375
1696254037576,-0.43969727,-0.12432861,-0.85479736,0.0,-0.4375,0.171875
1696254037618,-0.44677734,-0.13800049,-0.86309814,0.28125,-0.765625,0.0
1696254037658,-0.44580078,-0.12506104,-0.86309814,0.328125,-0.6875,0.171875
1696254037701,-0.44482422,-0.13482666,-0.8574829,0.171875,-0.515625,0.28125
1696254037739,-0.44580078,-0.13482666,-0.85772705,0.0,-0.515625,0.15625
1696254037779,-0.44604492,-0.13458252,-0.85894775,-0.234375,-0.515625,0.171875
1696254037819,-0.44458008,-0.13116455,-0.8579712,-0.5,-0.375,0.234375
1696254037861,-0.44433594,-0.12872314,-0.8599243,-0.34375,-0.40625,0.140625
1696254037897,-0.44482422,-0.12750244,-0.8635864,-0.09375,-0.328125,0.296875
1696254037937,-0.44482422,-0.13433838,-0.866272,-0.078125,-0.46875,0.1875
1696254037977,-0.44702148,-0.13531494,-0.8674927,-0.59375,-0.3125,0.0625
1696254038018,-0.44458008,-0.13653564,-0.8491821,-0.234375,-0.359375,0.140625
1696254038056,-0.44067383,-0.13238525,-0.85943604,-0.234375,-0.59375,0.203125
1696254038076,-0.4519043,-0.13189697,-0.8557739,-0.1875,-0.453125,0.265625
1696254038118,-0.4428711,-0.12921143,-0.8677368,-0.375,-0.484375,0.3125
1696254038157,-0.44799805,-0.13482666,-0.8599243,-0.140625,-0.390625,0.359375
1696254038197,-0.4387207,-0.13067627,-0.86187744,-0.1875,-0.546875,0.15625
1696254038239,-0.4489746,-0.1338501,-0.85357666,0.0,-0.25,0.125
1696254038277,-0.43969727,-0.13433838,-0.8491821,0.0,-0.21875,0.1875
1696254038318,-0.4489746,-0.13018799,-0.85723877,-0.703125,-0.25,0.046875
1696254038378,-0.44604492,-0.13214111,-0.86383057,-0.765625,0.015625,0.40625
1696254038397,-0.44506836,-0.13677979,-0.8699341,-0.5,-0.328125,0.234375
1696254038440,-0.43774414,-0.13604736,-0.8562622,0.109375,-0.78125,0.1875
1696254038477,-0.4465332,-0.1404419,-0.8652954,0.359375,-0.53125,0.09375
1696254038516,-0.44726562,-0.13043213,-0.8545532,0.0,-0.53125,0.234375
1696254038578,-0.43896484,-0.13653564,-0.8467407,0.0,-0.625,0.140625
1696254038596,-0.44702148,-0.13311768,-0.862854,0.015625,-0.5,0.265625
1696254038636,-0.44873047,-0.12945557,-0.8694458,-0.3125,-0.359375,0.078125
1696254038678,-0.44604492,-0.13946533,-0.8699341,-0.4375,-0.359375,0.171875
1696254038718,-0.4411621,-0.13970947,-0.85723877,-0.078125,-0.40625,0.078125
1696254038758,-0.44750977,-0.13824463,-0.86016846,0.28125,-0.5,0.15625
1696254038797,-0.4477539,-0.13653564,-0.8545532,0.59375,-0.328125,0.140625
1696254038837,-0.4465332,-0.12799072,-0.8440552,0.734375,-0.359375,0.1875
1696254038897,-0.44506836,-0.13287354,-0.8562622,2.265625,-0.4375,-0.046875
1696254038917,-0.44677734,-0.12896729,-0.8579712,3.484375,-0.765625,-0.28125
1696254038980,-0.44433594,-0.12286377,-0.8591919,3.625,-0.65625,-0.1875
1696254038995,-0.44702148,-0.1194458,-0.85943604,3.46875,0.078125,-0.296875
1696254039038,-0.453125,-0.109436035,-0.8706665,1.484375,0.3125,-0.046875
1696254039081,-0.44555664,-0.11212158,-0.86553955,0.53125,0.546875,0.109375
1696254039120,-0.44506836,-0.113098145,-0.86724854,0.109375,0.3125,0.25
1696254039159,-0.45117188,-0.11236572,-0.8711548,-0.28125,-0.21875,0.140625
1696254039196,-0.45043945,-0.11553955,-0.85113525,-0.09375,-0.109375,0.21875
1696254039241,-0.44482422,-0.11407471,-0.8543091,-0.46875,-0.09375,0.265625
1696254039276,-0.45532227,-0.10992432,-0.8648071,-0.359375,-0.34375,0.109375
1696254039317,-0.4572754,-0.11895752,-0.8674927,-0.359375,-0.296875,0.265625
1696254039378,-0.44970703,-0.11651611,-0.8584595,0.078125,-0.5,0.28125
1696254039395,-0.43847656,-0.11846924,-0.8521118,0.734375,-1.046875,-0.03125
1696254039415,-0.44213867,-0.11114502,-0.8386841,1.140625,-1.140625,-0.21875
1696254039500,-0.45703125,-0.11383057,-0.8640747,0.484375,-1.625,0.109375
1696254039503,-0.4501953,-0.11553955,-0.86065674,0.3125,-1.078125,0.125
1696254039536,-0.44433594,-0.113098145,-0.8579712,0.359375,-0.421875,0.1875
1696254039576,-0.44750977,-0.10284424,-0.87213135,0.296875,-0.421875,0.234375
1696254039618,-0.43920898,-0.1038208,-0.866272,0.171875,-0.5,0.09375
1696254039656,-0.44018555,-0.09967041,-0.86798096,0.296875,-0.5625,0.0625
1696254039698,-0.4416504,-0.11236572,-0.8687134,0.125,-0.25,-0.03125
1696254039739,-0.44921875,-0.101379395,-0.8587036,-0.203125,-0.21875,0.296875
1696254039778,-0.4482422,-0.105529785,-0.8557739,-0.109375,0.046875,0.203125
1696254039822,-0.4416504,-0.10772705,-0.85650635,0.109375,-0.25,0.15625
1696254039857,-0.4465332,-0.10748291,-0.85894775,0.0625,-0.234375,0.0625
1696254039898,-0.44458008,-0.10772705,-0.8545532,0.0,-0.375,0.109375
1696254039939,-0.4465332,-0.10870361,-0.86138916,0.0625,-0.25,0.03125
1696254039978,-0.44506836,-0.105773926,-0.8591919,0.078125,-0.453125,0.1875
1696254040018,-0.45117188,-0.105773926,-0.8731079,-0.0625,-0.5,0.296875
1696254040057,-0.44140625,-0.10650635,-0.8567505,-0.046875,-0.65625,0.046875
1696254040101,-0.44458008,-0.10357666,-0.8599243,-0.609375,-0.546875,0.203125
1696254040137,-0.4440918,-0.11212158,-0.85772705,-0.015625,-0.328125,0.171875
1696254040178,-0.4506836,-0.11065674,-0.8635864,0.046875,-0.40625,0.0625
1696254040216,-0.44360352,-0.11260986,-0.8640747,0.03125,-0.484375,0.234375
1696254040256,-0.44873047,-0.10748291,-0.8648071,0.046875,-0.328125,0.15625
1696254040298,-0.4494629,-0.10845947,-0.8670044,-0.015625,-0.484375,0.25
1696254040338,-0.44750977,-0.101135254,-0.8587036,0.15625,-0.34375,0.078125
1696254040377,-0.44873047,-0.10748291,-0.86260986,0.359375,-0.296875,0.078125
1696254040416,-0.4440918,-0.109680176,-0.86431885,-0.21875,-0.390625,0.0625
1696254040457,-0.44995117,-0.10650635,-0.85943604,-0.109375,-0.265625,0.203125
1696254040498,-0.44384766,-0.10357666,-0.8596802,-0.078125,-0.28125,0.21875
1696254040537,-0.44335938,-0.105041504,-0.86968994,-0.203125,-0.390625,0.125
1696254040578,-0.44067383,-0.10992432,-0.87213135,0.03125,-0.421875,0.171875
1696254040616,-0.43725586,-0.105773926,-0.8574829,0.0,-0.296875,0.171875
1696254040678,-0.44384766,-0.10040283,-0.8550415,-0.046875,-0.28125,0.171875
1696254040696,-0.44628906,-0.109680176,-0.86138916,-0.421875,-0.359375,0.28125
1696254040718,-0.44433594,-0.10992432,-0.8604126,-0.328125,-0.125,0.140625
1696254040757,-0.43969727,-0.10626221,-0.862854,-0.5,-0.328125,0.1875
1696254040819,-0.45214844,-0.105773926,-0.862854,-0.359375,-0.234375,0.234375
1696254040835,-0.44995117,-0.10772705,-0.86187744,-0.578125,-0.484375,0.078125
1696254040877,-0.4477539,-0.11114502,-0.8657837,-0.609375,-0.4375,0.25
1696254040916,-0.4494629,-0.10821533,-0.86260986,-0.171875,-0.21875,0.203125
1696254040978,-0.44702148,-0.11260986,-0.86138916,0.03125,-0.390625,0.21875
1696254040998,-0.44677734,-0.11407471,-0.86553955,-0.109375,-0.53125,0.140625
1696254041037,-0.45141602,-0.10626221,-0.8665161,-0.09375,-0.34375,0.15625
1696254041079,-0.44604492,-0.11212158,-0.861145,-0.09375,-0.375,0.078125
1696254041117,-0.43823242,-0.10626221,-0.86602783,0.015625,-0.375,0.296875
1696254041180,-0.44458008,-0.10723877,-0.861145,-0.265625,-0.203125,0.296875
1696254041197,-0.44555664,-0.11114502,-0.8584595,-0.21875,-0.359375,0.234375
1696254041239,-0.44091797,-0.11114502,-0.8574829,-0.03125,-0.359375,0.1875
1696254041277,-0.44458008,-0.109680176,-0.8689575,-0.171875,-0.546875,0.171875
1696254041317,-0.4506836,-0.11968994,-0.86187744,-0.09375,-0.5,0.203125
1696254041357,-0.44702148,-0.11016846,-0.86968994,-0.15625,-0.421875,0.171875
1696254041398,-0.45117188,-0.11016846,-0.87286377,-0.140625,-0.453125,0.21875
1696254041436,-0.45214844,-0.10748291,-0.8648071,0.0,-0.453125,0.171875
1696254041477,-0.44482422,-0.11212158,-0.8609009,0.0,-0.328125,0.3125
1696254041520,-0.4465332,-0.11236572,-0.8545532,0.171875,0.0,0.21875
1696254041577,-0.4489746,-0.10797119,-0.86065674,-0.109375,-0.34375,0.265625
1696254041597,-0.44677734,-0.105529785,-0.8652954,-0.375,-0.390625,0.140625
1696254041635,-0.44360352,-0.11114502,-0.8538208,-0.171875,-0.296875,0.328125
1696254041699,-0.44091797,-0.10650635,-0.85943604,-0.3125,-0.5,0.15625
1696254041715,-0.44213867,-0.117492676,-0.85723877,-0.25,-0.4375,0.21875
1696254041780,-0.44628906,-0.11260986,-0.8530884,0.078125,-0.265625,0.0625
1696254041796,-0.44726562,-0.11260986,-0.86920166,-0.125,-0.453125,0.15625
1696254041837,-0.45141602,-0.10845947,-0.8648071,-0.078125,-0.28125,0.203125
1696254041898,-0.44628906,-0.10797119,-0.85821533,0.0,-0.421875,0.171875
1696254041915,-0.44262695,-0.11456299,-0.8652954,-0.0625,-0.4375,0.125
1696254041958,-0.45166016,-0.10772705,-0.86505127,0.015625,-0.28125,0.0625
1696254041997,-0.4428711,-0.11383057,-0.86431885,-0.078125,-0.390625,0.109375
1696254042016,-0.44506836,-0.10992432,-0.8596802,-0.15625,-0.328125,0.171875
1696254042056,-0.45117188,-0.11529541,-0.86724854,-0.140625,-0.515625,0.234375
1696254042096,-0.44213867,-0.10992432,-0.8538208,-0.0625,-0.265625,0.078125
1696254042137,-0.45361328,-0.11114502,-0.8701782,-0.203125,-0.375,0.0625
1696254042177,-0.44482422,-0.11383057,-0.862854,-0.171875,-0.359375,0.125
1696254042219,-0.44506836,-0.109436035,-0.8562622,-0.171875,-0.296875,0.140625
1696254042258,-0.44873047,-0.11090088,-0.86431885,-0.21875,-0.5,0.296875
1696254042298,-0.44848633,-0.10284424,-0.86309814,-0.40625,-0.796875,0.4375
1696254042337,-0.4423828,-0.109191895,-0.85113525,-0.1875,-0.734375,0.234375
1696254042377,-0.4494629,-0.11431885,-0.85894775,0.34375,-0.328125,0.203125
1696254042417,-0.44677734,-0.11993408,-0.86431885,0.265625,-0.34375,0.21875
1696254042457,-0.43701172,-0.1116333,-0.866272,-0.046875,-0.546875,0.21875
1696254042497,-0.44067383,-0.1116333,-0.8543091,0.15625,-0.546875,0.1875
1696254042537,-0.44433594,-0.11553955,-0.8596802,0.015625,-0.15625,0.03125
1696254042575,-0.44384766,-0.10992432,-0.86602783,-0.09375,-0.15625,0.21875
1696254042616,-0.44506836,-0.1116333,-0.8599243,-0.015625,-0.359375,0.296875
1696254042655,-0.44140625,-0.11212158,-0.8567505,-0.09375,-0.4375,0.203125
1696254042695,-0.44799805,-0.10748291,-0.85772705,-0.09375,-0.21875,0.03125
1696254042735,-0.44873047,-0.109680176,-0.86138916,-0.28125,-0.4375,0.0625
1696254042775,-0.44921875,-0.10797119,-0.8567505,-0.296875,-0.59375,0.171875
1696254042815,-0.4501953,-0.11138916,-0.8569946,-0.125,-0.484375,0.109375
1696254042856,-0.44433594,-0.109436035,-0.86383057,-0.03125,-0.390625,0.171875
1696254042896,-0.44921875,-0.11505127,-0.8569946,-0.0625,-0.46875,0.234375
1696254042935,-0.4416504,-0.11236572,-0.85650635,-0.203125,-0.40625,0.234375
1696254042975,-0.44970703,-0.109436035,-0.862854,-0.265625,-0.234375,0.203125
1696254043016,-0.44799805,-0.116760254,-0.8640747,-0.15625,-0.46875,0.078125
1696254043056,-0.44482422,-0.11212158,-0.8587036,-0.046875,-0.203125,0.15625
1696254043096,-0.45288086,-0.11529541,-0.862854,0.015625,-0.265625,0.25
1696254043135,-0.44702148,-0.11016846,-0.8562622,-0.4375,-0.28125,0.375
1696254043175,-0.4501953,-0.117004395,-0.86260986,-0.15625,-0.34375,0.234375
1696254043216,-0.44677734,-0.117004395,-0.86016846,0.015625,-0.4375,0.125
1696254043256,-0.4428711,-0.11505127,-0.86187744,0.375,-0.34375,0.0
1696254043296,-0.4440918,-0.11456299,-0.8616333,-0.078125,-0.5,0.125
1696254043316,-0.4501953,-0.11212158,-0.86065674,0.078125,-0.453125,0.1875
1696254043357,-0.44702148,-0.11212158,-0.8633423,0.046875,-0.421875,0.109375
1696254043398,-0.44555664,-0.109191895,-0.8621216,-0.15625,-0.390625,0.3125
1696254043436,-0.44970703,-0.108947754,-0.85650635,-0.15625,-0.234375,0.171875
1696254043478,-0.44604492,-0.10650635,-0.8623657,-0.0625,-0.359375,0.265625
1696254043521,-0.4423828,-0.117004395,-0.86138916,-0.03125,-0.234375,0.234375
1696254043556,-0.44482422,-0.10992432,-0.86187744,-0.25,-0.4375,0.21875
1696254043597,-0.44677734,-0.11553955,-0.861145,-0.09375,-0.421875,0.15625
1696254043636,-0.44628906,-0.11260986,-0.8587036,-0.046875,-0.15625,0.25
1696254043676,-0.45288086,-0.11651611,-0.8567505,-0.078125,-0.5,0.125
1696254043736,-0.45166016,-0.10821533,-0.8635864,0.015625,-0.4375,0.265625
1696254043777,-0.43823242,-0.11260986,-0.85406494,0.15625,-0.359375,0.1875
1696254043796,-0.45166016,-0.113586426,-0.86309814,0.203125,-0.671875,0.171875
1696254043839,-0.44750977,-0.11212158,-0.8587036,0.171875,-0.609375,0.125
1696254043877,-0.44262695,-0.11431885,-0.8616333,0.125,-0.4375,0.046875
1696254043937,-0.44433594,-0.10821533,-0.86187744,0.453125,-0.53125,0.125
1696254043956,-0.44702148,-0.113342285,-0.8604126,0.9375,-0.359375,0.171875
1696254043997,-0.44555664,-0.11090088,-0.8604126,1.078125,-0.515625,0.0625
1696254044059,-0.44799805,-0.11260986,-0.86724854,0.78125,-0.5,0.046875
1696254044076,-0.44555664,-0.10845947,-0.85772705,0.828125,-0.1875,0.046875
1696254044118,-0.44458008,-0.109191895,-0.86187744,0.125,-0.46875,0.125
1696254044157,-0.4494629,-0.11016846,-0.8640747,0.078125,-0.21875,0.203125
1696254044199,-0.44970703,-0.10723877,-0.8633423,0.234375,-0.390625,0.0
1696254044237,-0.44628906,-0.11016846,-0.866272,-0.0625,-0.359375,0.25
1696254044280,-0.45581055,-0.09893799,-0.8652954,-0.109375,-0.4375,-0.015625
1696254044318,-0.44506836,-0.10723877,-0.86553955,0.015625,-0.328125,0.015625
1696254044379,-0.44873047,-0.10797119,-0.86505127,-0.140625,-0.40625,0.203125
1696254044418,-0.4440918,-0.11260986,-0.8635864,-0.03125,-0.46875,0.109375
1696254044439,-0.45092773,-0.109436035,-0.850647,-0.109375,-0.5,0.15625
1696254044476,-0.44628906,-0.10699463,-0.8616333,0.125,-0.296875,0.21875
