# Sensor type: Respeck
# Activity type: Lying down right
# Activity subtype: Hyperventilating
# Subject id: s2106809
# Notes: unprocessed
timestamp,accel_x,accel_y,accel_z,gyro_x,gyro_y,gyro_z
1696253111387,0.7236328,-0.039123535,0.71307373,-0.1875,-0.40625,0.328125
1696253111427,0.7224121,-0.047424316,0.72698975,0.0,-0.46875,0.4375
1696253111467,0.7258301,-0.0335083,0.7196655,-0.28125,-0.640625,0.203125
1696253111506,0.7192383,-0.0413208,0.7194214,-0.296875,-0.703125,0.109375
1696253111548,0.7199707,-0.0413208,0.71698,0.34375,-0.296875,0.25
1696253111587,0.7167969,-0.04107666,0.7243042,0.375,0.125,0.25
1696253111607,0.720459,-0.046203613,0.7238159,0.140625,-0.1875,0.140625
1696253111647,0.71875,-0.038146973,0.72821045,0.4375,0.5,0.1875
1696253111686,0.71655273,-0.038391113,0.71746826,-0.765625,-0.140625,0.234375
1696253111727,0.7216797,-0.042541504,0.71917725,0.375,0.71875,0.21875
1696253111768,0.7260742,-0.042053223,0.7196655,1.203125,1.734375,0.625
1696253111807,0.7233887,-0.045959473,0.72283936,3.234375,2.078125,0.15625
1696253111848,0.7390137,-0.05230713,0.7238159,2.921875,1.765625,-0.171875
1696253111887,0.74731445,-0.049621582,0.73114014,4.34375,4.0,0.078125
1696253111927,0.736084,-0.055236816,0.70648193,3.75,2.9375,0.4375
1696253111971,0.7416992,-0.057434082,0.72088623,4.078125,3.59375,0.125
1696253112007,0.7380371,-0.069885254,0.67767334,2.40625,3.0625,1.234375
1696253112048,0.73950195,-0.06866455,0.6930542,5.15625,3.578125,0.734375
1696253112088,0.7470703,-0.086242676,0.68304443,4.734375,3.171875,0.609375
1696253112128,0.751709,-0.07745361,0.6720581,1.921875,1.640625,1.03125
1696253112168,0.7492676,-0.061828613,0.68304443,0.734375,0.234375,0.359375
1696253112208,0.7546387,-0.06793213,0.6732788,-0.171875,0.78125,0.265625
1696253112249,0.7512207,-0.07110596,0.66937256,-2.296875,0.5,0.40625
1696253112287,0.76953125,-0.06842041,0.68914795,-1.953125,0.03125,0.328125
1696253112327,0.76831055,-0.07281494,0.6749878,-3.515625,-1.46875,0.46875
1696253112367,0.7548828,-0.066711426,0.6715698,-5.328125,-2.25,0.734375
1696253112408,0.7441406,-0.050109863,0.67108154,-6.5,-2.8125,0.75
1696253112448,0.74902344,-0.047424316,0.67767334,-4.765625,-2.234375,0.390625
1696253112489,0.7595215,-0.04449463,0.6889038,-3.296875,-1.953125,0.28125
1696253112528,0.7531738,-0.032287598,0.6918335,-3.640625,-2.09375,0.453125
1696253112567,0.7336426,-0.034484863,0.68499756,-2.53125,-3.15625,0.65625
1696253112608,0.72265625,-0.025939941,0.6820679,0.5625,-1.421875,0.109375
1696253112647,0.7207031,-0.031555176,0.6757202,3.65625,-0.921875,0.171875
1696253112688,0.6850586,-0.011291504,0.6884155,8.453125,-0.875,0.0625
1696253112729,0.7092285,-0.058654785,0.6359253,6.921875,-6.046875,4.125
1696253112768,0.7524414,-0.078186035,0.6630249,-4.515625,-4.4375,6.421875
1696253112810,0.7800293,-0.07354736,0.7145386,-6.390625,-3.3125,0.96875
1696253112847,0.7614746,-0.010803223,0.76312256,-7.484375,-3.234375,-3.546875
1696253112888,0.7480469,-0.012512207,0.701355,-7.625,-0.109375,-2.34375
1696253112907,0.73779297,-0.008117676,0.696228,-4.734375,2.3125,-0.140625
1696253112947,0.7312012,-0.027893066,0.73309326,-0.859375,-2.3125,0.421875
1696253112988,0.7182617,-0.053771973,0.72161865,-5.28125,-4.375,-0.4375
1696253113048,0.7150879,-0.03253174,0.7157593,-3.09375,-2.046875,-0.734375
1696253113066,0.72753906,-0.018371582,0.7247925,2.90625,0.328125,-1.171875
1696253113130,0.7216797,-0.020324707,0.71136475,1.25,-0.015625,-0.78125
1696253113167,0.7336426,-0.02154541,0.71990967,0.921875,-0.234375,-0.40625
1696253113186,0.73828125,-0.027893066,0.7238159,2.015625,-0.203125,-0.0625
1696253113230,0.7307129,-0.035217285,0.70355225,0.203125,-1.453125,0.078125
1696253113291,0.732666,-0.03302002,0.7201538,-1.921875,-2.21875,-0.0625
1696253113330,0.72680664,-0.010070801,0.72406006,-1.328125,-1.328125,-0.171875
1696253113347,0.7219238,-0.0178833,0.73065186,1.734375,1.78125,-0.625
1696253113389,0.7285156,-0.04058838,0.73651123,4.125,2.6875,-0.5
1696253113449,0.74731445,-0.03375244,0.7536011,4.875,3.421875,-0.390625
1696253113490,0.73828125,-0.050354004,0.7350464,3.859375,3.796875,-0.09375
1696253113505,0.7519531,-0.046203613,0.7182007,4.265625,4.859375,-0.65625
1696253113549,0.7258301,-0.042297363,0.71746826,6.96875,9.078125,-0.34375
1696253113588,0.74365234,-0.06939697,0.66741943,6.859375,6.5625,2.109375
1696253113629,0.7373047,-0.070373535,0.66693115,7.609375,4.171875,2.625
1696253113666,0.7546387,-0.06866455,0.6610718,2.75,-0.46875,2.015625
1696253113708,0.7590332,-0.059143066,0.670105,1.515625,-0.6875,0.65625
1696253113767,0.76171875,-0.0569458,0.6557007,-0.4375,-1.1875,0.265625
1696253113806,0.75756836,-0.03692627,0.64764404,-2.609375,-1.515625,0.34375
1696253113827,0.7746582,-0.038391113,0.67059326,-2.890625,-1.5,-0.015625
1696253113889,0.7734375,-0.051574707,0.67474365,-3.015625,-3.1875,-0.078125
1696253113927,0.76000977,-0.06378174,0.6742554,-4.859375,-3.1875,0.015625
1696253113947,0.7414551,-0.058166504,0.67596436,-4.65625,-2.671875,0.1875
1696253113990,0.7441406,-0.04058838,0.68865967,-5.390625,-2.9375,0.40625
1696253114050,0.73583984,-0.04156494,0.6991577,-4.9375,-2.59375,0.6875
1696253114067,0.74121094,-0.034973145,0.69329834,-4.453125,-2.453125,1.140625
1696253114108,0.7338867,-0.018859863,0.6845093,-1.34375,-1.734375,0.59375
1696253114149,0.7270508,-0.012512207,0.666687,1.171875,-1.9375,0.65625
1696253114187,0.6945801,0.008239746,0.6630249,9.609375,1.28125,1.03125
1696253114228,0.73168945,-0.042785645,0.605896,10.515625,-2.03125,4.625
1696253114246,0.7897949,-0.0791626,0.6947632,6.265625,2.1875,4.15625
1696253114287,0.78149414,-0.09967041,0.71868896,-0.8125,0.125,0.734375
1696253114327,0.7663574,-0.031555176,0.7003784,-8.28125,-5.0625,-2.90625
1696253114370,0.7475586,4.272461E-4,0.6720581,-9.46875,-1.078125,-1.640625
1696253114408,0.7480469,-0.003479004,0.7025757,-2.578125,2.171875,0.53125
1696253114449,0.73657227,-0.04888916,0.73114014,-0.03125,-1.09375,0.3125
1696253114487,0.73657227,-0.073791504,0.7133179,-5.359375,-4.40625,-0.1875
1696253114527,0.7380371,-0.024963379,0.7074585,-3.46875,-0.046875,-0.515625
1696253114569,0.72680664,-0.022521973,0.6947632,1.96875,1.40625,-0.625
1696253114607,0.7421875,-0.02545166,0.69525146,1.40625,0.90625,0.109375
1696253114647,0.7451172,-0.022277832,0.70843506,3.09375,0.703125,0.203125
1696253114688,0.7458496,-0.04083252,0.69158936,1.15625,-0.75,-0.015625
1696253114728,0.7446289,-0.022277832,0.67889404,0.40625,-1.15625,-0.203125
1696253114767,0.73876953,-0.027160645,0.6967163,0.0625,-0.765625,0.171875
1696253114807,0.74609375,-0.030090332,0.696228,1.0,-1.21875,-0.40625
1696253114847,0.75,-0.02960205,0.730896,1.125,-2.328125,-0.953125
1696253114888,0.7519531,-0.049621582,0.7262573,-0.71875,-1.0625,-1.09375
1696253114927,0.75683594,-0.04034424,0.7418823,-2.28125,-0.875,-1.59375
1696253114968,0.72509766,-0.04107666,0.71624756,-0.015625,-3.234375,-1.453125
1696253115007,0.72875977,-0.042541504,0.71429443,1.5,-3.6875,-0.71875
1696253115048,0.734375,-0.04498291,0.7164917,3.03125,1.4375,0.34375
1696253115088,0.7294922,-0.051818848,0.7003784,2.59375,2.984375,1.65625
1696253115131,0.73168945,-0.05206299,0.6906128,1.4375,0.84375,1.3125
1696253115171,0.74487305,-0.039123535,0.6959839,1.875,0.09375,0.171875
1696253115210,0.7578125,-0.042541504,0.69451904,0.90625,1.046875,0.578125
1696253115251,0.748291,-0.023986816,0.6881714,-1.40625,0.984375,1.34375
1696253115288,0.71875,-0.040100098,0.6815796,-1.96875,-0.25,0.84375
1696253115331,0.7314453,-0.039855957,0.6847534,-1.65625,-1.5,0.53125
1696253115369,0.75097656,-0.04864502,0.6959839,-1.484375,-1.40625,-0.34375
1696253115407,0.75390625,-0.039367676,0.69866943,-3.546875,-2.0,-0.515625
1696253115448,0.73779297,-0.038879395,0.7025757,-3.875,-1.984375,-0.03125
1696253115489,0.732666,-0.031555176,0.69818115,-4.203125,-2.96875,0.40625
1696253115553,0.72924805,-0.02545166,0.7028198,-3.34375,-2.59375,0.40625
1696253115557,0.7229004,-0.020324707,0.70428467,-2.140625,-1.796875,0.65625
1696253115589,0.7224121,-0.016906738,0.696228,-0.0625,-0.921875,1.140625
1696253115670,0.7026367,0.0033569336,0.6774292,2.8125,-0.59375,0.40625
1696253115673,0.68652344,0.011169434,0.6613159,17.03125,3.921875,0.765625
1696253115709,0.7702637,-0.06793213,0.6359253,14.890625,2.640625,6.3125
1696253115748,0.80322266,-0.090148926,0.7304077,6.109375,9.359375,5.28125
1696253115809,0.78100586,-0.062805176,0.7296753,-3.875,-1.234375,0.859375
1696253115828,0.71777344,-0.007873535,0.6727905,-10.5625,-5.046875,-1.171875
1696253115888,0.7092285,0.012145996,0.65740967,-3.75,0.421875,-1.40625
1696253115906,0.74121094,-0.013000488,0.7015991,3.09375,0.578125,-0.765625
1696253115950,0.74438477,-0.08843994,0.7033081,-5.046875,-4.640625,-0.796875
1696253115988,0.7519531,-0.06744385,0.7333374,-7.140625,-3.40625,-2.203125
1696253116027,0.74731445,-0.031311035,0.6942749,-0.546875,0.65625,-2.59375
1696253116068,0.72998047,-0.020080566,0.69158936,2.125,1.53125,-0.796875
1696253116129,0.7519531,-0.024230957,0.70184326,1.296875,0.765625,0.921875
1696253116147,0.74243164,-0.023498535,0.699646,1.0625,0.578125,1.421875
1696253116188,0.7294922,-0.028381348,0.697937,2.921875,0.78125,1.125
1696253116229,0.7302246,-0.0335083,0.70062256,1.59375,-0.96875,0.015625
1696253116268,0.7319336,-0.02911377,0.70355225,2.359375,-0.953125,-0.734375
1696253116308,0.7429199,-0.03692627,0.68573,0.171875,-1.328125,-1.296875
1696253116348,0.77197266,-0.04888916,0.70526123,-1.9375,-2.390625,-1.296875
1696253116388,0.7644043,-0.037902832,0.7243042,-1.796875,-1.484375,-1.828125
1696253116428,0.7307129,-0.053771973,0.732605,1.125,-1.84375,-1.390625
1696253116487,0.7438965,-0.07159424,0.72869873,1.796875,-2.375,-0.84375
1696253116506,0.72802734,-0.051086426,0.7040405,0.125,0.171875,-0.0625
1696253116548,0.7270508,-0.040100098,0.7081909,0.71875,0.375,0.453125
1696253116609,0.73095703,-0.046447754,0.6930542,2.484375,-0.21875,0.671875
1696253116649,0.7368164,-0.04522705,0.6930542,1.875,1.0625,0.125
1696253116668,0.7451172,-0.051086426,0.6954956,1.578125,2.359375,0.09375
1696253116708,0.75634766,-0.05718994,0.68133545,0.3125,1.015625,0.1875
1696253116748,0.74780273,-0.050842285,0.67962646,-0.8125,-0.5625,0.359375
1696253116787,0.74975586,-0.04083252,0.68133545,-0.921875,-1.203125,0.359375
1696253116831,0.74853516,-0.046691895,0.6942749,-1.953125,-1.9375,0.328125
1696253116847,0.7414551,-0.05718994,0.6864624,-2.15625,-1.984375,0.453125
1696253116888,0.7324219,-0.04473877,0.69525146,-3.65625,-1.546875,0.0
1696253116929,0.7277832,-0.046936035,0.69647217,-3.546875,-1.125,0.09375
1696253116968,0.7414551,-0.039855957,0.69696045,-3.78125,-1.46875,0.546875
1696253117008,0.7404785,-0.03643799,0.7033081,-2.90625,-2.1875,0.375
1696253117048,0.7409668,-0.025939941,0.6989136,-1.6875,-1.859375,0.421875
1696253117088,0.72802734,-0.0134887695,0.68377686,-0.03125,-1.765625,0.546875
1696253117131,0.7001953,-0.0049438477,0.6754761,2.578125,-1.015625,1.015625
1696253117167,0.6936035,4.272461E-4,0.6732788,15.703125,1.78125,2.796875
1696253117208,0.75878906,-0.07330322,0.6478882,7.828125,0.875,6.890625
1696253117248,0.7937012,-0.09649658,0.71307373,0.234375,3.1875,3.3125
1696253117288,0.7421875,-0.043029785,0.74627686,-0.765625,-0.53125,-1.453125
1696253117328,0.7602539,-0.042541504,0.69158936,-4.515625,0.21875,-1.5625
1696253117368,0.7524414,0.005554199,0.67767334,-5.6875,5.953125,-0.4375
1696253117407,0.73095703,-0.0134887695,0.7111206,0.75,0.375,0.921875
1696253117447,0.7331543,-0.07305908,0.69866943,-4.515625,-4.40625,0.09375
1696253117488,0.74365234,-0.057922363,0.6845093,-4.53125,-0.21875,0.015625
1696253117527,0.73168945,-0.03668213,0.7086792,2.515625,1.8125,-0.65625
1696253117567,0.7507324,-0.030822754,0.7015991,3.390625,0.671875,-1.171875
1696253117608,0.7583008,-0.02520752,0.6906128,1.4375,0.109375,0.296875
1696253117648,0.7583008,-0.02911377,0.68865967,-0.703125,0.234375,0.765625
1696253117689,0.7487793,-0.042297363,0.68084717,-0.859375,-0.9375,0.5
1696253117729,0.75146484,-0.035461426,0.6942749,-0.640625,-0.609375,0.125
1696253117768,0.7578125,-0.043762207,0.6901245,0.75,-1.3125,-0.125
1696253117808,0.7487793,-0.035949707,0.69696045,0.015625,-1.09375,-0.140625
1696253117848,0.7392578,-0.030578613,0.73114014,3.4375,-0.109375,-0.484375
1696253117887,0.7636719,-0.04107666,0.73651123,2.640625,1.171875,0.09375
1696253117927,0.7392578,-0.05670166,0.6972046,2.609375,1.78125,0.296875
1696253117968,0.75634766,-0.06549072,0.66204834,-1.46875,-1.734375,-0.875
1696253118007,0.7302246,-0.02520752,0.668396,0.078125,0.109375,-0.96875
1696253118048,0.7128906,-0.05206299,0.7020874,3.5,-3.09375,-0.421875
1696253118087,0.75756836,-0.065979004,0.7094116,1.859375,-4.4375,-0.40625
1696253118128,0.7763672,-0.061828613,0.67645264,-3.453125,-1.125,0.109375
1696253118169,0.75390625,-0.042297363,0.6793823,-2.84375,-1.421875,0.234375
1696253118186,0.7583008,-0.032287598,0.699646,0.84375,-0.953125,0.125
1696253118230,0.74902344,-0.05206299,0.6989136,-0.40625,0.484375,0.484375
1696253118268,0.7390137,-0.03643799,0.7037964,-2.171875,-0.375,1.21875
1696253118308,0.7233887,-0.047424316,0.6871948,-1.265625,-2.5,0.640625
1696253118349,0.7302246,-0.040100098,0.69525146,-2.21875,-3.578125,0.21875
1696253118388,0.72387695,-0.04522705,0.69036865,-2.453125,-1.53125,0.609375
1696253118429,0.7248535,-0.04156494,0.7106323,-2.890625,-0.578125,0.5625
1696253118467,0.73950195,-0.033996582,0.69744873,-3.1875,-2.0,0.515625
1696253118507,0.7270508,-0.02935791,0.70355225,-5.125,-4.359375,0.859375
1696253118568,0.72216797,0.0028686523,0.6923218,-4.890625,-4.28125,0.75
1696253118609,0.7077637,0.022888184,0.67474365,5.125,-0.046875,0.34375
1696253118627,0.7241211,-0.023010254,0.6207886,7.140625,0.34375,2.21875
1696253118667,0.7619629,-0.06964111,0.71307373,11.46875,9.234375,2.53125
1696253118730,0.7878418,-0.108947754,0.7362671,7.09375,8.609375,0.4375
1696253118746,0.7536621,-0.061584473,0.72821045,-6.328125,-1.171875,-0.96875
1696253118791,0.751709,-0.0022583008,0.7050171,-5.578125,-0.3125,-0.640625
1696253118830,0.74975586,-0.012756348,0.68914795,4.203125,4.265625,2.234375
1696253118891,0.7260742,-0.06329346,0.68865967,5.5,1.484375,2.109375
1696253118908,0.734375,-0.06402588,0.69329834,0.140625,-1.15625,-0.171875
1696253118970,0.7487793,-0.05596924,0.6744995,0.03125,0.609375,-0.09375
1696253118988,0.7578125,-0.040100098,0.68182373,3.703125,2.734375,-0.21875
1696253119029,0.7590332,-0.028381348,0.6762085,1.765625,-0.109375,0.484375
1696253119091,0.75634766,-0.031799316,0.68304443,0.9375,-0.5,0.46875
1696253119106,0.76293945,-0.059631348,0.68865967,0.265625,-0.28125,0.390625
1696253119150,0.7763672,-0.06329346,0.66571045,-2.5,-1.5,-0.328125
1696253119189,0.7609863,-0.055725098,0.68011475,-3.953125,-1.765625,-0.859375
1696253119228,0.7487793,-0.036193848,0.6820679,-3.578125,-1.171875,-0.6875
1696253119270,0.73950195,-0.045959473,0.6876831,-0.9375,-1.1875,-0.015625
1696253119330,0.7626953,-0.0491333,0.71624756,2.296875,1.015625,-0.203125
1696253119347,0.7788086,-0.047424316,0.7223511,1.953125,0.828125,-0.953125
1696253119409,0.7602539,-0.06304932,0.6864624,-3.390625,-2.015625,-0.734375
1696253119427,0.7192383,-0.034484863,0.7008667,-2.984375,-3.09375,-1.9375
1696253119468,0.73168945,-0.04473877,0.70306396,-3.4375,-8.3125,-2.4375
1696253119487,0.74365234,-0.051330566,0.6935425,-2.4375,-3.109375,-0.75
1696253119528,0.74487305,-0.05279541,0.70892334,-0.5,0.0625,1.03125
1696253119565,0.7470703,-0.066467285,0.6942749,1.328125,0.296875,0.421875
1696253119606,0.7504883,-0.034484863,0.68255615,0.640625,0.21875,0.0625
1696253119646,0.7512207,-0.031066895,0.68084717,0.78125,0.3125,0.171875
1696253119687,0.7561035,-0.04107666,0.68573,0.015625,-0.3125,0.375
1696253119727,0.75341797,-0.054748535,0.68426514,-0.28125,0.046875,0.546875
1696253119769,0.74487305,-0.047912598,0.684021,-1.796875,-1.5625,0.453125
1696253119809,0.74365234,-0.049865723,0.69744873,-2.6875,-2.015625,-0.03125
1696253119849,0.74072266,-0.038879395,0.6828003,-4.234375,-2.6875,0.3125
1696253119889,0.7285156,-0.03326416,0.6930542,-4.59375,-2.390625,0.25
1696253119929,0.72680664,-0.03253174,0.6923218,-4.546875,-3.5,0.328125
1696253119968,0.7109375,-0.026672363,0.6906128,-3.703125,-3.59375,0.515625
1696253120007,0.6843262,0.0018920898,0.6869507,-0.28125,-4.109375,1.515625
1696253120049,0.7207031,-6.1035156E-5,0.65911865,10.71875,-1.4375,3.28125
1696253120087,0.77685547,-0.038391113,0.67596436,6.703125,6.96875,3.921875
1696253120129,0.7717285,-0.085998535,0.72454834,7.796875,10.234375,2.28125
1696253120169,0.7548828,-0.06890869,0.71868896,-1.03125,-1.96875,-0.625
1696253120209,0.74194336,-0.0178833,0.70233154,-7.609375,-2.484375,-1.703125
1696253120248,0.7475586,-0.024963379,0.6911011,1.4375,5.984375,2.140625
1696253120289,0.76586914,-0.049865723,0.7116089,5.484375,2.5625,1.90625
1696253120327,0.7272949,-0.04937744,0.69281006,-1.046875,-2.78125,0.1875
1696253120368,0.73217773,-0.02960205,0.67767334,0.40625,-0.984375,-0.71875
1696253120408,0.7233887,-0.027893066,0.6671753,3.828125,1.59375,-0.34375
1696253120449,0.7458496,-0.014709473,0.68377686,3.796875,1.625,-0.15625
1696253120487,0.7597656,-0.035217285,0.6766968,0.0,-0.59375,0.484375
1696253120527,0.76782227,-0.04083252,0.7001343,-1.328125,-2.078125,0.0
1696253120569,0.7558594,-0.043518066,0.69281006,-0.265625,-1.765625,-0.234375
1696253120609,0.75146484,-0.047912598,0.7033081,0.4375,0.640625,-0.578125
1696253120647,0.74853516,-0.057434082,0.69403076,0.3125,0.484375,-0.390625
1696253120688,0.7565918,-0.04107666,0.6671753,1.78125,0.265625,-0.53125
1696253120727,0.7687988,-0.04840088,0.7008667,5.1875,2.0,-1.25
1696253120791,0.7751465,-0.07159424,0.6984253,-0.171875,-0.546875,-0.6875
1696253120807,0.74194336,-0.07305908,0.7140503,-4.953125,-3.921875,-0.546875
1696253120827,0.7270508,-0.05255127,0.7069702,-2.109375,-5.21875,-1.859375
1696253120869,0.7211914,-0.059143066,0.70599365,-0.953125,-3.4375,-2.515625
1696253120907,0.7561035,-0.046203613,0.69647217,2.71875,2.421875,-0.640625
1696253120969,0.7426758,-0.061340332,0.684021,1.71875,0.515625,0.9375
1696253120988,0.7416992,-0.054504395,0.682312,-0.484375,-1.515625,0.78125
1696253121030,0.74438477,-0.06378174,0.6703491,-2.6875,-1.328125,0.015625
1696253121092,0.75390625,-0.043273926,0.69036865,-4.1875,-2.328125,0.1875
1696253121108,0.74902344,-0.046447754,0.69085693,-2.1875,-1.8125,0.3125
1696253121148,0.74487305,-0.045715332,0.68792725,-3.640625,-3.328125,-0.078125
1696253121190,0.74731445,-0.05279541,0.701355,-5.4375,-3.109375,0.25
1696253121226,0.73999023,-0.054504395,0.6947632,-6.53125,-2.796875,0.421875
1696253121268,0.736084,-0.031311035,0.70184326,-7.25,-2.0,0.21875
1696253121329,0.7290039,-0.008117676,0.7015991,-4.921875,-2.03125,0.40625
1696253121348,0.7216797,-0.015930176,0.7055054,-1.875,-2.109375,0.984375
1696253121388,0.7253418,-0.016662598,0.6976929,0.65625,-1.6875,0.78125
1696253121448,0.717041,-0.015930176,0.69696045,1.515625,-1.78125,0.5
1696253121467,0.6953125,0.032165527,0.6935425,10.46875,2.71875,-0.28125
1696253121530,0.7302246,-0.042053223,0.6259155,17.28125,3.46875,3.109375
1696253121568,0.7753906,-0.07086182,0.6942749,9.78125,6.015625,5.75
1696253121586,0.75683594,-0.101379395,0.74139404,4.859375,0.890625,1.765625
1696253121631,0.7446289,-0.069885254,0.71209717,-7.015625,-6.890625,-1.953125
1696253121671,0.73779297,-0.009338379,0.6828003,-10.546875,-2.265625,-1.71875
1696253121708,0.7355957,0.0021362305,0.67523193,-2.515625,2.421875,0.703125
1696253121748,0.7414551,-0.035461426,0.70843506,0.515625,-0.4375,0.984375
1696253121788,0.7368164,-0.0713501,0.72039795,-4.09375,-2.171875,0.171875
1696253121827,0.7375488,-0.059387207,0.7106323,-3.984375,-1.078125,-0.203125
1696253121868,0.7338867,-0.042541504,0.70770264,1.0625,2.171875,-0.46875
1696253121930,0.7285156,-0.02130127,0.7094116,5.03125,0.8125,-0.78125
1696253121949,0.7285156,-0.0335083,0.7147827,4.65625,0.28125,-0.265625
1696253121987,0.74731445,-0.037902832,0.7028198,4.921875,0.859375,0.296875
1696253122030,0.751709,-0.05645752,0.68670654,2.34375,0.0625,0.390625
1696253122088,0.74121094,-0.04815674,0.6871948,1.578125,0.578125,-0.15625
1696253122109,0.7463379,-0.05328369,0.69085693,1.640625,0.234375,0.0
1696253122128,0.7553711,-0.054748535,0.6889038,0.46875,0.625,-0.09375
1696253122168,0.7585449,-0.05255127,0.72991943,2.234375,2.78125,-0.546875
1696253122210,0.767334,-0.078430176,0.7067261,-1.171875,0.484375,-0.296875
1696253122247,0.74365234,-0.06036377,0.69989014,-5.46875,-2.265625,-1.09375
1696253122288,0.72265625,-0.041809082,0.7069702,-3.25,-4.15625,-1.953125
1696253122330,0.7336426,-0.04888916,0.71673584,-1.84375,-4.4375,-1.171875
1696253122370,0.7336426,-0.06060791,0.6976929,-0.40625,0.3125,0.34375
1696253122410,0.734375,-0.070617676,0.6845093,-1.375,0.53125,0.90625
1696253122449,0.736084,-0.04840088,0.68865967,-1.046875,-0.59375,0.328125
1696253122488,0.74658203,-0.038635254,0.67889404,-0.28125,-0.46875,-0.078125
1696253122529,0.7495117,-0.045959473,0.69403076,-0.890625,-0.828125,0.5625
1696253122572,0.74194336,-0.050842285,0.6815796,-1.203125,-0.875,0.921875
1696253122611,0.74121094,-0.04156494,0.6869507,-2.109375,-1.765625,0.59375
1696253122651,0.7438965,-0.04083252,0.7001343,-1.4375,-1.453125,-0.046875
1696253122689,0.75341797,-0.050109863,0.69940186,-2.234375,-0.90625,0.21875
1696253122731,0.72753906,-0.04473877,0.7050171,-4.609375,-0.5625,0.640625
1696253122768,0.7258301,-0.03692627,0.6781616,-5.59375,-1.90625,0.28125
1696253122810,0.7270508,-0.016906738,0.699646,-3.125,-2.203125,0.5625
1696253122850,0.7290039,-0.027648926,0.70648193,-0.515625,-1.59375,0.515625
1696253122889,0.71655273,-0.015197754,0.68548584,2.203125,-0.46875,0.359375
1696253122928,0.7019043,0.016784668,0.6930542,14.421875,5.765625,-0.015625
1696253122967,0.7414551,-0.058654785,0.6119995,20.21875,4.46875,4.34375
1696253123008,0.78686523,-0.078430176,0.6769409,4.953125,2.46875,7.921875
1696253123048,0.7741699,-0.09552002,0.7296753,-1.0625,0.03125,3.203125
1696253123089,0.75878906,-0.046203613,0.71698,-6.640625,-4.078125,-1.6875
1696253123127,0.736084,6.713867E-4,0.670105,-8.296875,-1.4375,-1.765625
1696253123170,0.7314453,0.007019043,0.68548584,-1.0,1.078125,-0.71875
1696253123211,0.7504883,-0.055480957,0.7094116,-0.0625,-0.875,-0.203125
1696253123247,0.7441406,-0.0725708,0.71624756,-4.96875,-2.546875,0.015625
1696253123289,0.73413086,-0.0647583,0.70843506,-5.515625,-2.34375,-0.65625
1696253123327,0.7246094,-0.035949707,0.6881714,-0.296875,-0.46875,-1.046875
1696253123369,0.74316406,-0.022033691,0.70770264,2.21875,0.4375,-0.390625
1696253123409,0.75097656,-0.027648926,0.71087646,2.15625,-0.125,0.65625
1696253123448,0.7438965,-0.03717041,0.70306396,0.53125,-0.3125,0.890625
1696253123468,0.7470703,-0.03692627,0.6984253,0.5,0.21875,-0.109375
1696253123509,0.7607422,-0.037902832,0.69451904,0.125,0.890625,-0.375
1696253123548,0.7519531,-0.0256958,0.7055054,1.359375,2.0625,-0.1875
1696253123610,0.7578125,-0.049865723,0.7062378,0.375,0.203125,-0.0625
1696253123650,0.73706055,-0.053771973,0.70892334,-2.84375,-1.140625,-0.75
1696253123668,0.7224121,-0.045715332,0.71014404,-0.421875,-1.59375,-2.15625
1696253123709,0.7438965,-0.042785645,0.7352905,0.65625,-5.25,-2.96875
1696253123769,0.7441406,-0.026916504,0.69989014,-3.90625,-6.078125,-0.65625
1696253123788,0.7375488,-0.032287598,0.6954956,0.96875,1.328125,1.1875
1696253123831,0.7260742,-0.05987549,0.6918335,1.640625,2.203125,1.375
1696253123866,0.73779297,-0.04888916,0.68865967,0.234375,0.359375,0.546875
1696253123910,0.7414551,-0.045715332,0.68914795,-0.453125,-0.546875,-0.03125
1696253123949,0.7512207,-0.026428223,0.69403076,-1.671875,-2.15625,0.015625
1696253123988,0.7458496,-0.031311035,0.69036865,-0.6875,-1.234375,0.421875
1696253124028,0.7463379,-0.043518066,0.7001343,-1.03125,-1.859375,-0.015625
1696253124068,0.7421875,-0.047424316,0.7057495,-3.3125,-2.28125,0.0
1696253124107,0.7338867,-0.047912598,0.6942749,-3.90625,-1.75,-0.046875
1696253124149,0.7331543,-0.028869629,0.7020874,-3.1875,-1.703125,0.25
1696253124188,0.7246094,-0.030090332,0.71014404,-0.65625,-0.859375,0.703125
1696253124227,0.71875,-0.031066895,0.71429443,-0.71875,-1.625,0.5625
1696253124290,0.72436523,-0.030334473,0.7062378,-1.390625,-1.34375,0.578125
1696253124328,0.7351074,-0.02960205,0.70965576,-0.65625,-0.703125,0.25
1696253124368,0.7348633,-0.011047363,0.7001343,-0.203125,-0.59375,-0.203125
1696253124388,0.6972656,0.013122559,0.69744873,4.84375,1.734375,0.046875
1696253124451,0.70043945,-0.011291504,0.6571655,18.890625,5.859375,1.140625
1696253124468,0.75927734,-0.06524658,0.6144409,9.828125,1.890625,5.234375
1696253124509,0.77783203,-0.089904785,0.7338257,4.875,1.0625,4.84375
1696253124548,0.7644043,-0.0791626,0.7435913,-6.15625,-3.546875,-1.046875
1696253124588,0.72436523,-0.018859863,0.6889038,-16.25,-3.375,-2.234375
1696253124628,0.7294922,0.018981934,0.6881714,-6.203125,0.71875,-1.78125
1696253124689,0.74121094,-0.038879395,0.71795654,4.078125,1.03125,-0.828125
1696253124729,0.75024414,-0.077697754,0.7147827,0.828125,-1.71875,0.0625
1696253124732,0.72875977,-0.059143066,0.71380615,-2.625,-0.71875,0.328125
1696253124769,0.7199707,-0.026672363,0.6989136,0.1875,0.546875,-0.296875
1696253124809,0.7253418,-0.0076293945,0.69451904,2.0,1.1875,-0.28125
1696253124849,0.7319336,-0.021057129,0.7106323,0.984375,-1.046875,0.03125
1696253124892,0.74853516,-0.039123535,0.70306396,-0.9375,-2.015625,0.171875
1696253124929,0.7402344,-0.045959473,0.71258545,1.3125,0.375,-0.15625
1696253124967,0.74438477,-0.04840088,0.7033081,0.046875,-0.984375,-0.84375
1696253125010,0.75268555,-0.05206299,0.70428467,-1.140625,-1.078125,-1.015625
1696253125048,0.7421875,-0.042297363,0.7133179,-1.609375,-1.609375,-0.40625
1696253125088,0.7336426,-0.03765869,0.73187256,-0.375,-2.46875,-0.3125
1696253125128,0.72387695,-0.046447754,0.72821045,-1.1875,-2.515625,-0.359375
1696253125168,0.7297363,-0.042053223,0.71551514,-0.75,-0.953125,-0.21875
1696253125209,0.72216797,-0.038391113,0.7079468,-1.015625,-0.015625,-0.234375
1696253125248,0.7355957,-0.034729004,0.7074585,-1.078125,-0.4375,-0.046875
1696253125288,0.72875977,-0.04156494,0.7037964,1.03125,0.9375,0.359375
1696253125328,0.7307129,-0.043029785,0.69207764,0.03125,0.5,0.578125
1696253125368,0.7294922,-0.043518066,0.6923218,-0.625,-0.484375,0.78125
1696253125408,0.73461914,-0.035461426,0.6869507,-0.859375,-0.90625,0.1875
1696253125449,0.7429199,-0.033996582,0.70233154,-1.03125,-1.390625,0.125
1696253125486,0.7392578,-0.030578613,0.70306396,-0.46875,-0.875,0.0625
1696253125528,0.7368164,-0.034729004,0.7015991,-2.15625,-1.703125,0.375
1696253125569,0.73657227,-0.039123535,0.71429443,-3.03125,-1.109375,0.328125
1696253125610,0.7319336,-0.035461426,0.70428467,-2.96875,-0.96875,0.203125
1696253125650,0.73291016,-0.022521973,0.7133179,-3.09375,-1.546875,0.625
1696253125686,0.72436523,-0.023254395,0.7111206,-1.625,-1.25,0.53125
1696253125729,0.71118164,-0.022521973,0.7025757,-1.15625,-2.1875,0.546875
1696253125769,0.7302246,-0.015930176,0.70843506,0.015625,-1.125,0.15625
1696253125810,0.7297363,-0.031799316,0.7003784,3.078125,0.0625,0.859375
1696253125849,0.71728516,-0.013000488,0.70233154,2.78125,0.984375,0.671875
1696253125888,0.7055664,0.010681152,0.71698,10.875,6.203125,0.078125
1696253125929,0.73779297,-0.02545166,0.65374756,21.890625,8.0,1.6875
1696253125968,0.7609863,-0.07208252,0.6383667,14.21875,4.359375,5.3125
1696253126008,0.7687988,-0.11968994,0.71209717,5.625,-0.21875,4.234375
1696253126027,0.7636719,-0.093566895,0.713562,-7.203125,-2.546875,0.171875
1696253126068,0.73657227,-0.024719238,0.6954956,-9.34375,-3.90625,-1.21875
1696253126131,0.7270508,0.0038452148,0.67108154,-8.359375,-1.796875,-1.6875
1696253126168,0.7492676,-0.043762207,0.6989136,-1.484375,1.46875,-2.1875
1696253126188,0.76123047,-0.07647705,0.73358154,1.328125,-1.40625,-0.984375
1696253126229,0.7570801,-0.07940674,0.6991577,-3.171875,-1.484375,-0.734375
1696253126289,0.73217773,-0.050354004,0.68011475,-1.828125,0.203125,-0.796875
1696253126309,0.7302246,-0.02911377,0.69989014,2.765625,0.90625,-0.0625
1696253126350,0.7307129,-0.039855957,0.70428467,1.671875,-0.5,0.90625
1696253126392,0.7426758,-0.038391113,0.7055054,-0.59375,-1.09375,1.265625
1696253126448,0.7363281,-0.039611816,0.7123413,-1.75,-2.125,-0.09375
1696253126467,0.73168945,-0.03375244,0.70892334,-0.859375,-1.1875,-1.234375
1696253126508,0.7453613,-0.04547119,0.70599365,1.40625,1.515625,-1.203125
1696253126568,0.7561035,-0.057678223,0.70721436,1.65625,1.6875,-0.234375
1696253126588,0.7578125,-0.06573486,0.69989014,2.125,0.859375,0.0625
1696253126629,0.7495117,-0.062072754,0.70184326,-0.203125,-1.921875,-0.453125
1696253126669,0.73291016,-0.050109863,0.7206421,-1.5625,-2.796875,-1.0625
1696253126709,0.7380371,-0.050109863,0.7218628,-2.6875,-5.84375,-0.9375
1696253126749,0.7331543,-0.051086426,0.70843506,-3.09375,-2.453125,-0.4375
1696253126788,0.72802734,-0.046447754,0.69329834,-2.734375,-1.25,0.359375
1696253126827,0.7277832,-0.04449463,0.7116089,0.359375,0.203125,-0.125
1696253126888,0.7307129,-0.05279541,0.6991577,1.515625,0.40625,-0.078125
1696253126908,0.74487305,-0.055725098,0.6967163,-0.625,-0.359375,0.203125
1696253126949,0.7495117,-0.04815674,0.70355225,-2.40625,-1.390625,0.40625
1696253127007,0.7373047,-0.034240723,0.69940186,-0.359375,-0.484375,0.484375
1696253127028,0.73876953,-0.04473877,0.7001343,-1.5,-1.625,0.203125
1696253127090,0.73950195,-0.043029785,0.7111206,-3.140625,-1.703125,0.40625
1696253127106,0.73339844,-0.047180176,0.69866943,-2.296875,-1.109375,0.265625
1696253127148,0.7314453,-0.0335083,0.7069702,-1.1875,-1.0,0.40625
1696253127210,0.72631836,-0.04815674,0.7111206,-1.296875,-1.015625,0.46875
1696253127229,0.72802734,-0.030822754,0.715271,-2.265625,-1.5625,0.375
1696253127269,0.7229004,-0.028625488,0.7062378,-3.0,-1.90625,0.734375
1696253127308,0.72021484,-0.014221191,0.7057495,-2.46875,-1.328125,0.5625
1696253127347,0.72094727,-0.023498535,0.7055054,-1.609375,-1.28125,0.453125
1696253127367,0.71655273,-0.00982666,0.66326904,6.03125,5.734375,1.40625
1696253127408,0.7692871,-0.006164551,0.6610718,17.953125,15.734375,4.84375
1696253127449,0.75097656,-0.047668457,0.6635132,18.921875,8.765625,7.59375
1696253127488,0.74731445,-0.11187744,0.70306396,9.203125,-1.65625,5.421875
1696253127528,0.7429199,-0.07598877,0.70062256,-0.6875,-0.78125,0.953125
1696253127567,0.7561035,-0.026916504,0.68426514,-5.265625,-1.1875,-0.6875
1696253127608,0.76000977,-0.014709473,0.6781616,-6.015625,-1.9375,-0.9375
1696253127647,0.74902344,-0.026428223,0.682312,-2.796875,-2.03125,-1.046875
1696253127689,0.7429199,-0.04547119,0.6984253,-2.203125,-0.734375,-0.875
1696253127728,0.7602539,-0.06036377,0.6935425,-4.265625,-0.953125,-0.03125
1696253127770,0.7553711,-0.057678223,0.68792725,-4.15625,-0.640625,-0.375
1696253127807,0.7504883,-0.031799316,0.68914795,-0.234375,-1.234375,-0.75
1696253127847,0.75268555,-0.018371582,0.6901245,1.5625,-1.625,-0.390625
1696253127890,0.7507324,-0.027404785,0.7045288,1.1875,0.171875,0.375
1696253127930,0.74853516,-0.037902832,0.68573,-0.453125,1.625,1.515625
1696253127968,0.7644043,-0.046447754,0.68792725,0.46875,1.578125,0.5625
1696253128007,0.765625,-0.02935791,0.6901245,-0.359375,-0.8125,-0.96875
1696253128049,0.7548828,-0.022033691,0.6869507,-0.703125,-2.0,-1.484375
1696253128088,0.75219727,-0.032287598,0.6852417,-2.75,-3.03125,-0.84375
1696253128128,0.7480469,-0.0491333,0.70648193,0.6875,-1.671875,-1.4375
1696253128168,0.7375488,-0.054260254,0.70648193,-0.703125,-3.75,-3.0
1696253128208,0.7338867,-0.03326416,0.72161865,-1.453125,-4.90625,-3.34375
1696253128250,0.7404785,-0.04034424,0.7267456,-2.125,-4.75,-2.65625
1696253128290,0.7355957,-0.044006348,0.7172241,-1.375,-0.84375,-0.609375
1696253128329,0.73217773,-0.054016113,0.6893921,-0.578125,-0.09375,0.34375
1696253128367,0.736084,-0.035949707,0.6984253,-0.078125,-0.609375,0.265625
1696253128408,0.7302246,-0.044006348,0.69573975,1.171875,0.3125,0.34375
1696253128452,0.74438477,-0.05596924,0.68621826,-0.8125,0.28125,0.140625
1696253128488,0.74902344,-0.047912598,0.70477295,-2.59375,-0.75,0.03125
1696253128528,0.7451172,-0.04156494,0.6925659,-0.828125,-0.96875,-0.046875
1696253128570,0.7487793,-0.036193848,0.69989014,-0.671875,-1.828125,0.15625
1696253128608,0.73413086,-0.04815674,0.70184326,-1.28125,-1.578125,0.140625
1696253128671,0.7312012,-0.04425049,0.69647217,-3.03125,-1.828125,0.3125
1696253128688,0.7272949,-0.043273926,0.7062378,-3.328125,-1.625,0.453125
1696253128708,0.7351074,-0.034729004,0.70111084,-3.390625,-0.9375,0.609375
1696253128771,0.7375488,-0.028381348,0.713562,-2.46875,-1.09375,0.40625
1696253128787,0.7285156,-0.023986816,0.70111084,-2.1875,-2.1875,0.53125
1696253128849,0.7175293,-0.021057129,0.6991577,-2.1875,-1.875,0.453125
1696253128866,0.7158203,0.012878418,0.7062378,4.265625,5.046875,0.421875
1696253128909,0.7463379,-0.035217285,0.66937256,15.796875,10.4375,1.921875
1696253128972,0.7602539,-0.022521973,0.61053467,16.4375,11.453125,3.921875
1696253129009,0.7644043,-0.053527832,0.6847534,16.578125,10.78125,5.609375
1696253129029,0.76220703,-0.10211182,0.68304443,9.984375,0.5625,4.484375
1696253129071,0.74487305,-0.08477783,0.67181396,-2.421875,-4.25,2.1875
1696253129108,0.7573242,-0.047180176,0.682312,-6.234375,-6.46875,-0.265625
1696253129172,0.74658203,-0.016174316,0.65618896,-7.328125,-3.34375,-1.109375
1696253129208,0.74780273,-0.035949707,0.6803589,-2.21875,-1.0,-1.0
1696253129227,0.7883301,-0.053527832,0.69818115,-2.9375,-2.328125,-2.078125
1696253129268,0.77490234,-0.08111572,0.66741943,-5.359375,-0.890625,-0.84375
1696253129309,0.74243164,-0.06378174,0.68084717,-3.140625,0.125,0.125
1696253129350,0.74902344,-0.042053223,0.6798706,1.15625,0.5,-0.21875
1696253129394,0.7480469,-0.020324707,0.68743896,3.109375,-0.015625,0.1875
1696253129427,0.7578125,-0.038391113,0.6889038,2.75,-0.1875,0.5625
1696253129491,0.76049805,-0.049865723,0.684021,0.3125,-1.546875,0.125
1696253129508,0.7434082,-0.047424316,0.69329834,-0.171875,-0.1875,-0.75
1696253129549,0.7631836,-0.0491333,0.6864624,0.4375,0.609375,-1.5
1696253129590,0.77490234,-0.05328369,0.67645264,-1.21875,-0.515625,-0.578125
1696253129628,0.76953125,-0.051086426,0.7015991,0.234375,1.640625,-0.421875
1696253129668,0.7536621,-0.065979004,0.69989014,-0.1875,0.875,-0.78125
1696253129708,0.7519531,-0.06939697,0.67962646,-1.140625,-2.890625,-1.9375
1696253129772,0.7453613,-0.038391113,0.69744873,-2.296875,-6.171875,-2.90625
1696253129789,0.7380371,-0.04815674,0.70428467,-2.265625,-2.59375,-1.75
1696253129830,0.7644043,-0.051574707,0.68084717,1.71875,2.578125,-0.109375
1696253129893,0.74902344,-0.06866455,0.69696045,-1.140625,-1.21875,0.421875
1696253129909,0.75024414,-0.06915283,0.6720581,-1.4375,-2.84375,0.140625
1696253129947,0.7546387,-0.05206299,0.66741943,-0.671875,-2.28125,-0.34375
1696253129968,0.7480469,-0.05718994,0.6884155,-0.296875,-1.984375,-0.3125
1696253130007,0.7392578,-0.05279541,0.68963623,-0.40625,-1.65625,0.484375
1696253130048,0.75146484,-0.05230713,0.6762085,-1.703125,-1.171875,0.46875
1696253130087,0.7524414,-0.054504395,0.69451904,-3.09375,-1.078125,-0.09375
1696253130127,0.7446289,-0.058654785,0.6935425,-3.09375,-1.34375,-0.40625
1696253130168,0.73657227,-0.051818848,0.6901245,-4.234375,-2.609375,0.28125
1696253130209,0.73291016,-0.04083252,0.68670654,-3.265625,-2.703125,0.796875
1696253130248,0.72924805,-0.023986816,0.68573,-2.578125,-1.90625,0.71875
1696253130288,0.72143555,-0.038146973,0.6984253,-0.328125,-1.5,0.5625
1696253130328,0.7126465,-0.0017700195,0.70062256,8.390625,3.125,0.53125
1696253130367,0.7597656,-0.023986816,0.6351929,25.921875,8.375,5.4375
1696253130409,0.7697754,-0.0791626,0.62542725,11.984375,6.40625,9.265625
1696253130449,0.73828125,-0.12261963,0.7201538,5.296875,-1.375,4.390625
1696253130488,0.76953125,-0.0881958,0.7238159,-2.859375,-3.015625,-0.625
1696253130528,0.7729492,-0.05255127,0.6715698,-10.875,-2.578125,0.5625
1696253130569,0.7229004,0.010681152,0.6635132,-7.125,-0.234375,0.578125
1696253130610,0.7470703,-0.016418457,0.69281006,0.046875,-0.703125,-1.078125
1696253130647,0.7585449,-0.08648682,0.7050171,-2.328125,-1.1875,-0.65625
1696253130688,0.7651367,-0.10089111,0.7015991,-5.90625,-1.28125,-0.078125
1696253130727,0.7470703,-0.0569458,0.6901245,-2.953125,-0.390625,-0.875
1696253130769,0.7375488,-0.014465332,0.6793823,0.71875,-0.546875,-0.625
1696253130809,0.74609375,-0.014465332,0.697937,2.359375,-0.171875,0.609375
1696253130849,0.7561035,-0.050109863,0.697937,0.734375,0.375,1.1875
1696253130892,0.7487793,-0.054748535,0.69940186,-0.359375,-0.03125,0.515625
1696253130931,0.7429199,-0.046691895,0.6791382,-2.453125,-1.171875,-0.875
1696253130970,0.7438965,-0.03692627,0.6820679,-1.171875,-0.453125,-1.25
1696253131011,0.7685547,-0.037902832,0.6989136,1.1875,1.40625,-0.96875
1696253131050,0.7675781,-0.051330566,0.7160034,3.15625,3.171875,-0.625
1696253131089,0.7631836,-0.06890869,0.6676636,-0.84375,-1.34375,-0.90625
1696253131130,0.73217773,-0.05255127,0.6847534,-1.859375,-2.890625,-2.734375
1696253131168,0.71972656,-0.035705566,0.7147827,0.375,-3.53125,-3.90625
1696253131209,0.7429199,-0.062805176,0.7230835,-0.96875,-4.40625,-2.3125
1696253131248,0.7626953,-0.065979004,0.6947632,-1.953125,-0.9375,0.0
1696253131287,0.74316406,-0.06060791,0.6889038,-2.125,-0.34375,0.90625
1696253131307,0.7368164,-0.046936035,0.6828003,0.953125,-0.421875,-0.140625
1696253131348,0.75146484,-0.04815674,0.6793823,1.59375,-0.625,-0.734375
1696253131410,0.7487793,-0.053771973,0.69329834,-0.328125,-0.953125,-0.078125
1696253131451,0.74609375,-0.055236816,0.6845093,-1.8125,-1.03125,0.609375
1696253131466,0.7421875,-0.050354004,0.6881714,-2.359375,-1.75,0.171875
1696253131510,0.7426758,-0.050109863,0.70306396,-2.578125,-2.015625,-0.4375
1696253131548,0.7385254,-0.043518066,0.6954956,-3.65625,-2.453125,-0.484375
1696253131612,0.7312012,-0.04522705,0.70843506,-1.84375,-1.078125,-0.046875
1696253131629,0.732666,-0.049865723,0.70111084,-1.890625,-1.078125,0.453125
1696253131668,0.74121094,-0.050354004,0.6991577,-2.8125,-1.703125,0.4375
1696253131729,0.72631836,-0.039611816,0.70062256,-3.0,-1.796875,0.234375
1696253131746,0.7246094,-0.026428223,0.6911011,-2.15625,-1.390625,0.5625
1696253131812,0.72143555,-0.0095825195,0.7057495,1.8125,0.421875,0.71875
1696253131848,0.7050781,-0.0022583008,0.69207764,15.421875,8.25,1.703125
1696253131868,0.7595215,-0.04156494,0.6012573,29.28125,12.484375,5.890625
1696253131908,0.82299805,-0.12530518,0.64105225,15.90625,9.65625,10.328125
1696253131948,0.78930664,-0.10211182,0.7172241,-1.984375,1.015625,6.078125
1696253132010,0.74316406,-0.043273926,0.69329834,-4.59375,-4.640625,0.15625
1696253132027,0.72924805,-0.04815674,0.6310425,-7.046875,-3.046875,-1.546875
1696253132068,0.7451172,-0.026672363,0.6647339,-3.046875,0.875,-0.609375
1696253132132,0.7687988,-0.0569458,0.69696045,-0.609375,-0.734375,0.046875
1696253132148,0.77563477,-0.069885254,0.69085693,-4.453125,-2.984375,-0.140625
1696253132209,0.7619629,-0.06939697,0.6593628,-4.640625,-1.171875,0.09375
1696253132228,0.7519531,-0.06109619,0.6676636,-0.46875,0.765625,0.359375
1696253132269,0.75,-0.037902832,0.6847534,1.390625,0.578125,-0.046875
1696253132308,0.7687988,-0.041809082,0.68011475,0.4375,-1.953125,0.015625
1696253132350,0.76171875,-0.04473877,0.6757202,-1.09375,-2.09375,-0.546875
1696253132391,0.75390625,-0.04522705,0.6766968,-1.96875,-1.453125,-1.0625
1696253132427,0.7529297,-0.047668457,0.67059326,-3.234375,-1.359375,-0.875
1696253132469,0.7585449,-0.045715332,0.6732788,-2.484375,-0.890625,-0.671875
1696253132507,0.7692871,-0.041809082,0.6732788,-0.640625,-0.75,-0.796875
1696253132547,0.7680664,-0.04815674,0.697937,1.71875,1.328125,-1.140625
1696253132608,0.7648926,-0.057678223,0.6976929,0.5,0.390625,-0.6875
1696253132612,0.7363281,-0.06085205,0.6901245,-0.046875,-0.3125,-1.640625
1696253132650,0.7248535,-0.05255127,0.72039795,1.03125,-3.578125,-4.140625
1696253132688,0.74609375,-0.066223145,0.71917725,-2.96875,-7.171875,-3.421875
1696253132728,0.7597656,-0.061828613,0.68621826,-5.03125,-4.0,-0.515625
1696253132770,0.7578125,-0.051818848,0.6757202,-1.375,0.75,0.703125
1696253132808,0.7438965,-0.057678223,0.7045288,0.046875,-0.4375,0.546875
1696253132849,0.7480469,-0.053771973,0.6810913,1.375,-0.15625,0.25
1696253132889,0.74194336,-0.070373535,0.67840576,-1.59375,-0.734375,-0.046875
1696253132931,0.7468262,-0.04449463,0.68011475,-2.90625,-2.171875,-0.390625
1696253132968,0.748291,-0.04449463,0.6871948,-0.453125,-0.875,-0.0625
1696253133010,0.7468262,-0.054748535,0.68548584,-2.46875,-2.09375,-0.09375
1696253133047,0.7331543,-0.049865723,0.70599365,-4.8125,-2.28125,-0.296875
1696253133089,0.73876953,-0.059143066,0.7008667,-4.578125,-1.515625,-0.015625
1696253133129,0.74902344,-0.03717041,0.6984253,-3.171875,-1.890625,0.390625
1696253133167,0.7312012,-0.039367676,0.6991577,-3.078125,-2.9375,0.25
1696253133208,0.71533203,-0.04156494,0.6947632,-3.984375,-3.5,0.9375
1696253133248,0.7072754,-0.033996582,0.6864624,-2.390625,-4.15625,1.203125
1696253133288,0.6965332,-0.0095825195,0.6947632,-0.34375,-3.234375,1.328125
1696253133329,0.7043457,-0.002746582,0.6947632,13.53125,2.09375,3.46875
1696253133367,0.7824707,-0.039611816,0.6600952,11.71875,7.609375,8.109375
1696253133409,0.80908203,-0.06524658,0.69207764,6.0625,9.5,6.75
1696253133449,0.74731445,-0.06866455,0.72283936,0.984375,1.28125,1.53125
1696253133488,0.7277832,-0.046203613,0.6906128,-6.421875,-3.125,-1.21875
1696253133529,0.736084,-0.005432129,0.6871948,-2.390625,4.484375,0.578125
1696253133567,0.7675781,-0.04156494,0.7045288,3.34375,3.921875,2.296875
1696253133609,0.7507324,-0.042541504,0.69158936,1.171875,-0.953125,0.375
1696253133649,0.75,-0.041809082,0.6911011,1.1875,-1.453125,-0.546875
1696253133688,0.7480469,-0.039611816,0.67181396,2.765625,2.234375,-0.71875
1696253133728,0.748291,-0.024230957,0.6720581,1.71875,0.46875,-0.4375
1696253133768,0.7414551,-0.02545166,0.66204834,-0.828125,-1.609375,0.515625
1696253133808,0.75268555,-0.046936035,0.66815186,-2.859375,-3.421875,0.3125
1696253133851,0.7536621,-0.042297363,0.68377686,-3.96875,-4.0,-0.765625
1696253133888,0.76586914,-0.043762207,0.7106323,-1.421875,-1.28125,-1.71875
1696253133907,0.7709961,-0.043518066,0.72161865,-0.9375,1.21875,-2.203125
1696253133950,0.767334,-0.05596924,0.7074585,2.390625,1.359375,-2.625
1696253133989,0.7390137,-0.051574707,0.6847534,1.921875,-0.875,-2.859375
1696253134030,0.7233887,-0.044006348,0.7028198,0.21875,-2.921875,-3.40625
1696253134067,0.74121094,-0.0335083,0.7157593,-0.828125,-4.296875,-3.078125
1696253134110,0.7458496,-0.061340332,0.70721436,-4.0625,-4.25,-0.15625
1696253134151,0.7368164,-0.06573486,0.6803589,-3.21875,-1.109375,0.765625
1696253134188,0.74316406,-0.04473877,0.69744873,1.453125,1.8125,-0.640625
1696253134228,0.74780273,-0.05230713,0.69647217,2.34375,0.546875,-0.734375
1696253134268,0.7507324,-0.06011963,0.68792725,-1.03125,-0.421875,-0.03125
1696253134309,0.7463379,-0.066711426,0.6732788,-2.4375,-0.140625,0.453125
1696253134347,0.74658203,-0.04473877,0.680603,-0.265625,-0.75,0.046875
1696253134388,0.7504883,-0.054748535,0.6923218,2.765625,0.53125,-0.34375
1696253134427,0.74487305,-0.058166504,0.7074585,0.328125,0.5625,0.34375
1696253134468,0.74121094,-0.05230713,0.68426514,-4.703125,-1.171875,0.625
1696253134508,0.7297363,-0.046936035,0.69451904,-4.015625,-1.34375,0.171875
1696253134549,0.7385254,-0.043273926,0.69085693,-2.5625,-1.375,-0.03125
1696253134610,0.75024414,-0.04058838,0.69403076,-2.546875,-1.4375,0.25
1696253134650,0.74316406,-0.031799316,0.6845093,-1.859375,-2.046875,0.453125
1696253134667,0.73339844,-0.034240723,0.6884155,0.15625,-0.5625,0.328125
1696253134708,0.7272949,-0.031555176,0.69647217,3.359375,4.25,0.265625
1696253134749,0.7468262,-0.022521973,0.6600952,15.1875,10.640625,0.1875
1696253134811,0.75634766,-0.04156494,0.5997925,16.53125,8.15625,4.578125
1696253134829,0.77612305,-0.058898926,0.6703491,12.03125,4.109375,8.546875
1696253134869,0.77490234,-0.109680176,0.70599365,4.953125,-1.625,5.421875
1696253134909,0.7722168,-0.07696533,0.6852417,-6.390625,-5.03125,0.96875
1696253134949,0.76220703,-0.03302002,0.6559448,-10.125,-4.328125,0.671875
1696253135009,0.73339844,-0.0022583008,0.6671753,-3.5625,0.09375,0.125
1696253135028,0.7307129,-0.04547119,0.6852417,0.96875,2.6875,0.0
1696253135071,0.7788086,-0.078186035,0.67474365,-5.96875,-1.75,-0.0625
1696253135111,0.77368164,-0.06402588,0.66864014,-5.75,-1.328125,-0.40625
1696253135152,0.76464844,-0.050842285,0.6637573,-0.3125,-1.59375,-0.734375
1696253135189,0.75097656,-0.027893066,0.6781616,1.015625,-2.0,0.0625
1696253135229,0.7585449,-0.023986816,0.6930542,0.671875,-1.6875,0.40625
1696253135248,0.7663574,-0.054260254,0.6779175,-2.546875,-1.203125,0.4375
1696253135288,0.7614746,-0.045959473,0.6769409,-3.3125,-1.046875,-0.265625
1696253135329,0.74975586,-0.034484863,0.68865967,-0.875,-0.328125,-1.109375
1696253135369,0.7570801,-0.034973145,0.6774292,0.453125,-1.21875,-1.421875
1696253135408,0.76538086,-0.02130127,0.68621826,2.03125,1.1875,-1.375
1696253135449,0.76831055,-0.047912598,0.6930542,2.234375,1.640625,-0.8125
1696253135488,0.763916,-0.06109619,0.6864624,-0.09375,0.75,-1.359375
1696253135528,0.7390137,-0.058654785,0.68548584,0.546875,0.390625,-2.640625
1696253135568,0.74072266,-0.050842285,0.70477295,0.484375,-5.09375,-4.265625
1696253135608,0.75512695,-0.05670166,0.71551514,-3.171875,-7.515625,-2.28125
1696253135648,0.7624512,-0.05279541,0.67767334,-1.421875,-1.3125,0.65625
1696253135687,0.74194336,-0.058898926,0.6793823,-0.453125,-1.59375,0.890625
1696253135727,0.7351074,-0.058166504,0.6725464,1.421875,-0.765625,-0.640625
1696253135768,0.7541504,-0.053527832,0.66864014,0.453125,-0.453125,-0.625
1696253135809,0.76660156,-0.049621582,0.6876831,-0.90625,-0.515625,0.078125
1696253135848,0.7453613,-0.049621582,0.6779175,-2.875,-1.953125,0.453125
1696253135887,0.74609375,-0.06060791,0.69696045,-0.734375,-1.5625,0.3125
1696253135929,0.7470703,-0.066467285,0.69329834,-3.40625,-3.421875,0.109375
1696253135968,0.74316406,-0.051330566,0.6967163,-6.234375,-3.28125,-0.703125
1696253136008,0.7373047,-0.03717041,0.70599365,-5.125,-2.515625,-0.25
1696253136048,0.72509766,-0.03741455,0.68865967,-4.78125,-2.4375,0.828125
1696253136088,0.7290039,-0.027893066,0.69573975,-4.34375,-2.140625,0.859375
1696253136128,0.7416992,-0.025939941,0.7008667,-2.28125,-1.96875,0.84375
1696253136168,0.7158203,0.0036010742,0.70648193,3.640625,3.0,0.96875
1696253136210,0.7216797,-0.007873535,0.65960693,18.421875,10.296875,3.390625
1696253136250,0.75512695,-0.033996582,0.6298218,22.9375,12.953125,5.78125
1696253136286,0.782959,-0.08355713,0.6600952,15.765625,4.84375,7.8125
1696253136328,0.78564453,-0.113342285,0.6959839,3.484375,1.203125,4.40625
1696253136369,0.78149414,-0.061584473,0.6720581,-5.328125,-0.96875,0.84375
1696253136410,0.7319336,-0.035461426,0.65911865,-8.140625,-2.53125,0.015625
1696253136450,0.76000977,-0.03253174,0.65838623,-2.390625,-0.640625,-0.109375
1696253136488,0.7597656,-0.050109863,0.67181396,-0.140625,1.6875,0.671875
1696253136527,0.7675781,-0.06304932,0.69329834,-3.078125,-1.453125,0.15625
1696253136547,0.76782227,-0.06744385,0.6786499,-3.5625,-1.6875,-0.515625
1696253136588,0.751709,-0.04058838,0.6696167,-0.1875,-0.375,-0.765625
1696253136627,0.75146484,-0.012268066,0.6679077,2.125,-0.34375,-0.578125
1696253136668,0.75561523,-0.031799316,0.67889404,-0.1875,-1.8125,-0.25
1696253136709,0.76416016,-0.04547119,0.68426514,0.265625,-0.96875,0.015625
1696253136747,0.75219727,-0.047180176,0.684021,-1.5,-1.53125,-0.890625
1696253136789,0.77734375,-0.06573486,0.66864014,-2.75,-2.546875,-1.953125
1696253136829,0.7780762,-0.04498291,0.6828003,0.078125,0.859375,-1.375
1696253136870,0.77734375,-0.06304932,0.66522217,-0.203125,-1.3125,-0.65625
1696253136910,0.72998047,-0.043273926,0.680603,-2.4375,-0.65625,-1.671875
1696253136950,0.7150879,-0.047912598,0.70648193,2.3125,-0.71875,-3.984375
1696253136991,0.7541504,-0.061828613,0.7262573,-1.09375,-7.703125,-4.296875
1696253137029,0.78222656,-0.05206299,0.6959839,-4.765625,-6.25,-1.484375
1696253137069,0.7548828,-0.04815674,0.6901245,-4.71875,-2.203125,0.53125
1696253137109,0.72875977,-0.062561035,0.69940186,-1.59375,-0.4375,0.765625
1696253137149,0.73706055,-0.066711426,0.6725464,-0.5625,0.4375,-0.21875
1696253137192,0.75146484,-0.05303955,0.67474365,-2.09375,-0.796875,-0.75
1696253137231,0.75024414,-0.03375244,0.6803589,-0.484375,-1.078125,-0.109375
1696253137269,0.74316406,-0.042541504,0.6779175,-0.59375,-1.8125,0.515625
1696253137309,0.7475586,-0.04156494,0.7040405,-1.03125,-1.609375,0.34375
1696253137349,0.74365234,-0.059631348,0.6918335,-2.8125,-1.984375,0.140625
1696253137389,0.74316406,-0.045959473,0.7094116,-4.109375,-1.6875,-0.078125
1696253137428,0.72802734,-0.046203613,0.6954956,-4.8125,-2.65625,0.515625
1696253137468,0.734375,-0.034484863,0.70233154,-3.515625,-2.453125,0.40625
1696253137510,0.7219238,-0.022766113,0.7008667,-2.640625,-2.21875,0.78125
1696253137548,0.7270508,-0.030090332,0.7008667,-2.109375,-1.828125,0.21875
1696253137587,0.72802734,-0.01739502,0.6950073,-0.015625,-1.390625,0.3125
1696253137628,0.7062988,0.018005371,0.71429443,12.78125,6.53125,0.609375
1696253137669,0.7661133,-0.06964111,0.588562,20.671875,10.3125,6.109375
1696253137709,0.80859375,-0.066711426,0.6766968,10.15625,11.3125,11.421875
1696253137750,0.7741699,-0.10211182,0.72772217,3.640625,3.109375,6.609375
1696253137790,0.7409668,-0.0647583,0.67840576,-4.359375,-4.5625,-0.890625
1696253137828,0.73291016,-3.0517578E-4,0.6442261,-5.140625,-1.21875,-1.46875
1696253137848,0.7446289,0.010192871,0.6625366,-2.515625,1.53125,0.40625
1696253137889,0.76220703,-0.043029785,0.67596436,-1.140625,1.34375,1.25
1696253137929,0.78027344,-0.08282471,0.68914795,-3.796875,-0.578125,-0.03125
1696253137971,0.7626953,-0.07086182,0.68621826,-5.359375,-1.359375,-0.640625
1696253138009,0.75390625,-0.027160645,0.6744995,0.09375,-0.09375,-0.859375
1696253138052,0.7546387,-0.018859863,0.6713257,1.484375,-1.640625,-0.421875
1696253138090,0.7609863,-0.020812988,0.680603,1.375,-1.6875,-0.078125
1696253138129,0.7663574,-0.03302002,0.67108154,-0.390625,-2.296875,0.234375
1696253138169,0.7675781,-0.039611816,0.67401123,-1.40625,-1.46875,-0.375
1696253138208,0.7392578,-0.031799316,0.6820679,-1.375,-1.75,-1.21875
1696253138251,0.7536621,-0.022521973,0.68084717,-4.34375,-4.171875,-1.796875
1696253138310,0.779541,-0.030822754,0.696228,1.921875,1.6875,-2.21875
1696253138348,0.75512695,-0.050598145,0.7001343,3.71875,0.515625,-2.328125
1696253138368,0.75146484,-0.0713501,0.71209717,2.03125,-2.34375,-4.15625
1696253138429,0.75219727,-0.0491333,0.7147827,-1.296875,-4.671875,-3.5
1696253138469,0.7578125,-0.050109863,0.6930542,-4.765625,-5.65625,-0.71875
1696253138487,0.7402344,-0.039367676,0.69744873,-3.625,-2.109375,0.421875
1696253138529,0.7363281,-0.06378174,0.68621826,0.375,-0.46875,0.09375
1696253138588,0.7385254,-0.057922363,0.6950073,1.484375,0.375,-0.28125
1696253138608,0.74438477,-0.051818848,0.68084717,0.484375,0.140625,-0.171875
1696253138650,0.74853516,-0.046203613,0.68377686,-0.125,-0.84375,0.28125
1696253138688,0.7487793,-0.04547119,0.68377686,-0.484375,-1.5,0.109375
1696253138747,0.74853516,-0.055236816,0.6815796,-1.234375,-0.9375,-0.15625
1696253138768,0.7512207,-0.049621582,0.6901245,-2.9375,-1.609375,-0.234375
1696253138830,0.748291,-0.047668457,0.682312,-4.21875,-1.859375,-0.25
1696253138848,0.7375488,-0.03277588,0.6976929,-4.8125,-2.234375,-0.25
1696253138892,0.7282715,-0.04473877,0.7008667,-3.59375,-2.203125,0.625
1696253138928,0.72802734,-0.04449463,0.70062256,-4.09375,-3.109375,0.5625
1696253138972,0.7290039,-0.030334473,0.7057495,-2.796875,-2.1875,0.21875
1696253139027,0.7233887,-0.01373291,0.6913452,-1.703125,-2.0,0.328125
1696253139047,0.7219238,-0.009338379,0.6869507,1.921875,0.828125,0.25
1696253139088,0.7102051,0.01727295,0.70111084,19.90625,10.5,1.53125
1696253139150,0.8095703,-0.081848145,0.62054443,22.671875,13.140625,11.15625
1696253139168,0.84936523,-0.09161377,0.7008667,9.265625,14.125,15.65625
1696253139188,0.7832031,-0.074523926,0.6942749,0.890625,1.3125,6.0625
1696253139230,0.7080078,-0.037902832,0.652771,-2.078125,-5.03125,-0.203125
1696253139268,0.71435547,-0.014221191,0.62127686,-3.703125,-0.1875,-0.109375
1696253139309,0.7438965,-0.006164551,0.6600952,1.234375,3.71875,0.484375
1696253139351,0.7832031,-0.055236816,0.68914795,-0.234375,-0.96875,0.6875
1696253139388,0.7988281,-0.06768799,0.6637573,-6.265625,-2.921875,-0.421875
1696253139428,0.76586914,-0.03326416,0.6547241,-4.1875,0.296875,-0.921875
1696253139469,0.7631836,-0.027648926,0.6642456,-0.359375,1.125,-0.703125
1696253139511,0.7758789,-0.019592285,0.6642456,-1.734375,-0.328125,0.5
1696253139548,0.7709961,-0.023498535,0.64715576,-3.375,-2.359375,0.96875
1696253139588,0.75756836,-0.024230957,0.6647339,-0.234375,-2.453125,-0.625
1696253139629,0.7519531,-0.02154541,0.6679077,-0.578125,-2.234375,-2.359375
1696253139669,0.7558594,-0.02935791,0.66937256,-1.265625,-3.15625,-2.96875
1696253139707,0.78344727,-0.026672363,0.67230225,1.578125,-1.09375,-4.859375
1696253139749,0.7919922,-0.057678223,0.699646,2.796875,-1.203125,-5.609375
1696253139789,0.76293945,-0.053527832,0.7045288,-1.125,-1.59375,-4.46875
1696253139829,0.74975586,-0.058166504,0.71258545,-1.359375,-2.484375,-2.4375
1696253139867,0.75024414,-0.046447754,0.6923218,-2.953125,-6.109375,-1.125
1696253139910,0.7463379,-0.046447754,0.67962646,-2.765625,-5.875,-0.609375
1696253139948,0.73706055,-0.054016113,0.6852417,0.703125,0.234375,-0.84375
1696253139989,0.7536621,-0.054260254,0.6869507,0.921875,0.609375,-0.421875
1696253140028,0.75512695,-0.05645752,0.68255615,0.203125,0.359375,0.078125
1696253140068,0.7597656,-0.0491333,0.6708374,-1.25,-0.65625,-0.078125
1696253140109,0.7531738,-0.05230713,0.668396,-1.1875,-1.015625,-0.296875
1696253140148,0.7541504,-0.047912598,0.6835327,-0.921875,-1.96875,-0.5625
1696253140189,0.75561523,-0.042785645,0.682312,-0.5625,-2.4375,-0.21875
1696253140227,0.74316406,-0.053527832,0.6871948,-2.578125,-1.890625,0.125
1696253140269,0.751709,-0.05718994,0.6871948,-3.75,-0.953125,0.234375
1696253140307,0.7392578,-0.051818848,0.6991577,-4.8125,-2.25,0.0
1696253140347,0.7182617,-0.04058838,0.6828003,-3.671875,-2.671875,-0.09375
1696253140388,0.73339844,-0.0134887695,0.69281006,-1.453125,-2.609375,0.34375
1696253140429,0.7312012,-0.010559082,0.6671753,4.15625,-0.828125,0.671875
1696253140469,0.7402344,-0.016174316,0.67767334,16.359375,6.078125,3.234375
1696253140509,0.7595215,-0.04034424,0.69573975,27.125,15.140625,8.546875
1696253140528,0.7800293,-0.12628174,0.6246948,9.40625,6.8125,10.03125
1696253140570,0.7895508,-0.113098145,0.6442261,-3.046875,-0.828125,6.65625
1696253140609,0.75634766,-0.030822754,0.68084717,-4.484375,-4.9375,1.3125
1696253140648,0.7438965,-0.0032348633,0.6835327,-6.9375,-2.390625,-0.46875
1696253140689,0.751709,-0.034729004,0.6647339,-4.625,-0.890625,0.078125
1696253140730,0.75512695,-0.059143066,0.68084717,-1.953125,-0.421875,0.109375
1696253140771,0.7661133,-0.06524658,0.6884155,-2.578125,0.703125,-0.828125
1696253140811,0.76904297,-0.047424316,0.67523193,-2.71875,0.171875,-0.578125
1696253140849,0.7692871,-0.029846191,0.6793823,-2.53125,-0.75,-0.234375
1696253140891,0.7570801,-0.01763916,0.6552124,0.0,-0.34375,0.40625
1696253140931,0.75634766,-0.024475098,0.6688843,-1.84375,-1.875,1.109375
1696253140967,0.7541504,-0.022766113,0.6901245,-3.640625,-3.21875,0.234375
1696253141008,0.75,-0.02960205,0.6835327,-1.875,-1.78125,-0.734375
1696253141048,0.76049805,-0.042297363,0.6810913,0.53125,0.5,-1.921875
1696253141089,0.7722168,-0.03302002,0.6901245,3.203125,0.703125,-2.375
1696253141148,0.77490234,-0.04815674,0.6757202,0.875,-1.71875,-3.984375
1696253141192,0.7434082,-0.04058838,0.6889038,0.25,-0.171875,-4.8125
1696253141209,0.7404785,-0.055725098,0.7196655,2.421875,-0.375,-4.65625
1696253141251,0.75805664,-0.074279785,0.7111206,0.90625,-3.828125,-3.140625
1696253141312,0.7624512,-0.061584473,0.6864624,-4.0625,-4.171875,-0.546875
1696253141348,0.7541504,-0.039855957,0.68011475,-2.46875,-0.03125,0.03125
1696253141390,0.7441406,-0.05987549,0.6781616,0.703125,1.625,-0.578125
1696253141432,0.751709,-0.058654785,0.6720581,0.65625,0.78125,-0.859375
1696253141448,0.7597656,-0.073791504,0.6715698,-1.390625,-1.03125,-0.21875
1696253141513,0.7709961,-0.04449463,0.6781616,0.15625,-0.890625,0.265625
1696253141529,0.7609863,-0.05279541,0.6659546,0.171875,-0.9375,0.625
1696253141569,0.7458496,-0.061828613,0.68426514,-1.390625,-0.875,0.53125
1696253141611,0.73876953,-0.058166504,0.67840576,-4.21875,-2.203125,0.046875
1696253141668,0.74780273,-0.054504395,0.68621826,-4.75,-2.109375,-0.28125
1696253141688,0.74243164,-0.04840088,0.6889038,-5.484375,-2.46875,-0.203125
1696253141730,0.7519531,-0.025939941,0.6881714,-5.171875,-2.484375,-0.0625
1696253141792,0.7324219,-0.04473877,0.6901245,-2.328125,-2.5,0.71875
1696253141808,0.7390137,-0.035949707,0.6832886,-2.890625,-2.578125,0.921875
1696253141828,0.7324219,-0.009094238,0.68865967,2.625,0.203125,0.109375
1696253141911,0.704834,0.018005371,0.6720581,20.96875,8.828125,2.015625
1696253141915,0.8005371,-0.07720947,0.5753784,25.96875,12.96875,9.78125
1696253141949,0.8269043,-0.08111572,0.68670654,6.703125,8.3125,13.8125
1696253141988,0.7758789,-0.117248535,0.7098999,-0.90625,-2.171875,6.71875
1696253142028,0.7426758,-0.059143066,0.66082764,-6.15625,-3.8125,-0.546875
1696253142069,0.74560547,-0.02178955,0.6364136,-5.5625,-0.171875,-1.921875
1696253142109,0.7324219,0.011169434,0.65740967,-1.359375,0.140625,-0.078125
1696253142150,0.7763672,-0.044006348,0.65740967,-0.734375,-0.859375,1.203125
1696253142190,0.7919922,-0.08013916,0.6889038,-4.78125,-1.234375,0.59375
1696253142230,0.76782227,-0.06109619,0.6737671,-4.84375,-1.09375,-1.0
1696253142268,0.74780273,-0.033996582,0.6654663,0.6875,-1.125,-1.6875
1696253142309,0.76660156,-0.016174316,0.6610718,-1.21875,-1.953125,-0.5
1696253142349,0.7661133,-0.011779785,0.6654663,-2.03125,-0.9375,1.5625
1696253142390,0.76220703,-0.039367676,0.6781616,0.625,-0.1875,0.890625
1696253142430,0.76293945,-0.05230713,0.6713257,-0.140625,-2.40625,-1.15625
1696253142471,0.7609863,-0.038879395,0.6642456,-1.625,-2.515625,-2.0625
1696253142509,0.7624512,-0.02130127,0.66448975,-1.828125,-2.234375,-1.8125
1696253142550,0.7753906,-0.018859863,0.69036865,0.40625,-0.078125,-2.125
1696253142592,0.78686523,-0.054992676,0.6947632,0.546875,0.875,-2.40625
1696253142629,0.74365234,-0.053527832,0.6828003,1.46875,1.59375,-3.46875
1696253142670,0.72509766,-0.06427002,0.7033081,3.90625,-0.15625,-5.234375
1696253142708,0.75927734,-0.054260254,0.7247925,-1.140625,-6.921875,-4.125
1696253142748,0.7614746,-0.051086426,0.682312,-3.984375,-5.484375,-0.09375
1696253142789,0.7529297,-0.05255127,0.66937256,-0.09375,0.984375,0.859375
1696253142829,0.73779297,-0.06549072,0.6732788,2.421875,1.453125,-0.484375
1696253142870,0.7668457,-0.070129395,0.6679077,-0.703125,-0.9375,-1.046875
1696253142909,0.76538086,-0.05328369,0.6679077,-0.890625,0.203125,-0.234375
1696253142949,0.7626953,-0.055725098,0.666687,-0.453125,-1.046875,0.1875
1696253142989,0.7651367,-0.058166504,0.66326904,-1.609375,-2.84375,-0.4375
1696253143029,0.7597656,-0.058410645,0.6864624,-1.9375,-2.984375,-0.96875
1696253143070,0.7546387,-0.05279541,0.6923218,-3.25,-2.796875,-0.796875
1696253143111,0.7426758,-0.06011963,0.6869507,-6.15625,-2.859375,-0.015625
1696253143128,0.73583984,-0.050109863,0.67767334,-6.28125,-3.109375,0.140625
1696253143189,0.7416992,-0.036193848,0.6972046,-3.703125,-3.546875,0.3125
1696253143229,0.72753906,-0.039367676,0.68548584,-0.765625,-2.546875,0.890625
1696253143247,0.71533203,-0.004211426,0.70843506,6.796875,2.65625,0.8125
1696253143310,0.74438477,-0.035217285,0.6251831,22.984375,9.171875,5.359375
1696253143327,0.82666016,-0.051574707,0.62664795,15.484375,15.0,13.421875
1696253143370,0.83154297,-0.105773926,0.7111206,3.75,8.21875,13.703125
1696253143409,0.77319336,-0.061584473,0.6766968,-1.015625,-3.421875,3.015625
1696253143449,0.7253418,-0.0491333,0.6351929,-4.875,-1.921875,0.25
1696253143489,0.72509766,0.009216309,0.6557007,-3.328125,0.15625,-0.859375
1696253143530,0.74316406,-0.016906738,0.67108154,0.03125,2.34375,0.859375
1696253143570,0.7885742,-0.07867432,0.66522217,-2.65625,-0.140625,1.21875
1696253143608,0.7824707,-0.07354736,0.6637573,-4.796875,-0.421875,-0.296875
1696253143651,0.7714844,-0.023010254,0.66278076,0.96875,0.671875,-0.359375
1696253143691,0.77246094,-0.015197754,0.6564331,1.671875,1.328125,0.109375
1696253143729,0.7766113,-0.018371582,0.6552124,-1.59375,-1.3125,1.140625
1696253143769,0.7714844,-0.016174316,0.6456909,-1.359375,-2.75,0.515625
1696253143829,0.7548828,-0.032287598,0.6503296,0.984375,-2.8125,-1.03125
1696253143869,0.7626953,-0.039367676,0.6576538,1.03125,-3.03125,-2.765625
1696253143888,0.7932129,-0.046936035,0.6708374,-0.3125,-1.484375,-4.046875
1696253143929,0.7663574,-0.031066895,0.680603,-0.65625,-1.828125,-5.359375
1696253143990,0.74316406,-0.059143066,0.69085693,0.90625,-2.796875,-7.5
1696253144009,0.7746582,-0.07183838,0.71209717,-4.265625,-4.40625,-6.625
1696253144051,0.7897949,-0.06011963,0.69525146,-5.015625,-1.78125,-1.5
1696253144112,0.74316406,-0.04937744,0.67303467,-2.25,-2.84375,1.125
1696253144127,0.7338867,-0.057434082,0.67596436,-0.640625,-3.453125,-0.53125
1696253144171,0.7480469,-0.058410645,0.6781616,1.671875,-0.265625,-1.6875
1696253144230,0.7541504,-0.066467285,0.670105,0.125,-0.21875,-0.75
1696253144271,0.7597656,-0.062805176,0.6769409,-1.875,-1.09375,-0.078125
1696253144309,0.7626953,-0.049865723,0.65667725,-1.234375,-1.46875,0.234375
1696253144327,0.7585449,-0.051330566,0.6786499,-1.671875,-2.125,-0.0625
1696253144368,0.75634766,-0.06402588,0.68573,-1.375,-1.8125,-0.171875
1696253144410,0.7458496,-0.069885254,0.6828003,-3.8125,-3.015625,-0.09375
1696253144427,0.7470703,-0.043518066,0.69647217,-5.46875,-3.015625,-0.4375
1696253144469,0.7302246,-0.047180176,0.69940186,-4.25,-1.609375,0.1875
1696253144508,0.73583984,-0.053771973,0.68011475,-4.515625,-0.390625,0.953125
1696253144550,0.73999023,-0.02130127,0.697937,-1.8125,0.9375,0.59375
1696253144588,0.73168945,-0.019836426,0.6947632,1.25,-1.453125,0.359375
1696253144629,0.7207031,-0.022766113,0.6923218,8.9375,3.9375,0.390625
1696253144669,0.751709,-0.02545166,0.638855,22.953125,10.28125,4.140625
1696253144709,0.8327637,-0.055480957,0.64227295,20.96875,16.171875,12.59375
1696253144750,0.84643555,-0.093566895,0.6642456,14.96875,13.625,15.140625
1696253144789,0.7832031,-0.085998535,0.6195679,2.109375,-3.6875,7.25
1696253144829,0.6936035,-0.05596924,0.63494873,0.375,-3.34375,2.796875
1696253144869,0.74560547,-0.066223145,0.6415405,-2.90625,-0.71875,-2.078125
1696253144907,0.76782227,-0.047668457,0.63861084,-3.15625,-1.9375,-1.203125
1696253144949,0.7883301,-0.05645752,0.65374756,-2.84375,-3.671875,-0.65625
1696253144988,0.7824707,-0.05255127,0.6498413,-6.546875,-2.921875,-1.390625
1696253145028,0.7788086,-0.04888916,0.67230225,-5.25,-0.890625,-0.90625
1696253145069,0.79589844,-0.035217285,0.67474365,-0.625,0.546875,0.5625
1696253145107,0.7883301,-0.043518066,0.6659546,0.96875,0.453125,1.78125
1696253145147,0.80078125,-0.034973145,0.6400757,1.34375,0.53125,3.65625
1696253145189,0.7648926,-0.036193848,0.6408081,0.3125,-1.0,2.578125
1696253145229,0.7548828,-0.058166504,0.6432495,-0.296875,-0.890625,1.078125
1696253145269,0.7680664,-0.04840088,0.6430054,-1.703125,-0.25,-3.203125
1696253145308,0.7902832,-0.06036377,0.67767334,-0.546875,0.34375,-6.25
1696253145347,0.76660156,-0.04156494,0.64715576,-5.484375,-0.078125,-6.59375
1696253145388,0.7504883,-0.041809082,0.6715698,-1.4375,-0.859375,-7.8125
1696253145430,0.7753906,-0.08135986,0.68573,0.03125,-5.046875,-8.25
1696253145468,0.79125977,-0.04937744,0.7025757,-6.328125,-11.296875,-3.5625
1696253145509,0.77075195,-0.05328369,0.67718506,-7.578125,-6.984375,1.5
1696253145549,0.7404785,-0.070617676,0.66522217,-0.75,-0.703125,0.640625
1696253145590,0.7441406,-0.07305908,0.6779175,3.0,1.28125,-1.65625
1696253145628,0.75878906,-0.07696533,0.68182373,-2.0625,-2.734375,-1.265625
1696253145669,0.7663574,-0.041809082,0.6691284,-5.734375,-2.28125,0.046875
1696253145711,0.7717285,-0.038879395,0.6588745,-2.765625,-1.875,0.171875
1696253145751,0.7546387,-0.057922363,0.68914795,-1.40625,-1.734375,-0.375
1696253145767,0.7468262,-0.06109619,0.67962646,-2.40625,-3.578125,-0.359375
1696253145808,0.7468262,-0.06524658,0.6864624,-5.046875,-3.5625,-0.46875
1696253145872,0.74560547,-0.042541504,0.6923218,-6.34375,-3.109375,-0.234375
1696253145909,0.7380371,-0.019592285,0.68182373,-4.015625,-2.109375,0.15625
1696253145927,0.72924805,-0.038391113,0.69403076,-1.15625,-1.84375,0.78125
1696253145972,0.7277832,-0.03277588,0.7086792,-0.15625,-0.9375,0.25
1696253146008,0.7182617,0.018737793,0.6884155,15.828125,7.78125,2.359375
1696253146048,0.8222656,-0.06427002,0.58270264,24.703125,16.1875,11.046875
1696253146111,0.86083984,-0.06842041,0.6454468,8.71875,16.578125,15.78125
1696253146128,0.75268555,-0.089660645,0.70721436,2.6875,-3.53125,7.296875
1696253146170,0.6899414,-0.0725708,0.6432495,-5.46875,-6.640625,-0.4375
1696253146229,0.7368164,-0.028625488,0.6442261,-4.65625,1.0,-2.0
1696253146270,0.8000488,-0.012512207,0.6642456,2.78125,3.3125,-2.1875
1696253146289,0.7998047,-0.044006348,0.6532593,0.59375,-2.65625,-0.125
1696253146330,0.79785156,-0.05255127,0.65960693,-6.0625,-2.75,1.546875
1696253146369,0.76831055,-0.05718994,0.67230225,-1.6875,1.9375,1.703125
1696253146410,0.7487793,-0.054748535,0.65301514,0.703125,1.0,-0.390625
1696253146449,0.7609863,-0.02911377,0.6491089,0.96875,-0.46875,-1.09375
1696253146489,0.7734375,-0.023986816,0.64715576,-0.84375,-2.71875,-0.34375
1696253146528,0.7714844,-0.03277588,0.6478882,-1.015625,-2.203125,-0.171875
1696253146571,0.77197266,-0.045715332,0.6605835,-3.328125,-2.359375,-1.28125
1696253146611,0.7685547,-0.043762207,0.6769409,-5.109375,-1.90625,-2.0625
1696253146670,0.7766113,-0.031311035,0.67401123,-1.03125,-1.53125,-2.59375
1696253146688,0.79711914,-0.043762207,0.67718506,3.71875,0.921875,-4.296875
1696253146754,0.76171875,-0.05303955,0.6625366,1.484375,1.0625,-4.515625
1696253146767,0.7390137,-0.062316895,0.6832886,1.484375,0.828125,-4.9375
1696253146831,0.77490234,-0.06719971,0.7001343,-1.46875,-6.265625,-4.15625
1696253146848,0.7897949,-0.057434082,0.69403076,-6.640625,-8.171875,-1.140625
1696253146912,0.7570801,-0.04937744,0.67352295,-3.5625,-0.375,0.46875
1696253146948,0.7390137,-0.066467285,0.6671753,0.96875,-1.515625,-0.03125
1696253146967,0.751709,-0.07354736,0.6659546,0.375,-1.765625,-1.453125
1696253147008,0.7685547,-0.058410645,0.66741943,-2.390625,-1.640625,-0.53125
1696253147026,0.7702637,-0.047180176,0.6688843,-2.234375,-1.8125,0.359375
1696253147071,0.75219727,-0.051330566,0.664978,-2.71875,-2.65625,0.46875
1696253147109,0.7468262,-0.050598145,0.6786499,-3.125,-2.671875,-0.078125
1696253147150,0.7504883,-0.05279541,0.6967163,-2.75,-2.640625,-0.78125
1696253147191,0.7578125,-0.06451416,0.6925659,-4.03125,-2.109375,-0.15625
1696253147228,0.74975586,-0.05255127,0.69866943,-6.203125,-2.875,0.453125
1696253147268,0.7265625,-0.035949707,0.6835327,-6.859375,-1.78125,0.90625
1696253147308,0.7331543,-0.020080566,0.68670654,-4.125,-1.3125,0.8125
1696253147349,0.74316406,-0.011779785,0.6923218,0.796875,-1.0625,-0.328125
1696253147390,0.72631836,-0.003967285,0.69940186,6.5,0.59375,-0.53125
1696253147427,0.72509766,-0.013977051,0.6647339,20.859375,8.453125,1.828125
1696253147468,0.8034668,-0.08868408,0.59661865,18.203125,12.265625,8.6875
1696253147508,0.8005371,-0.10211182,0.6762085,4.0625,4.03125,11.953125
1696253147549,0.7578125,-0.07550049,0.71258545,-3.703125,-4.53125,4.640625
1696253147590,0.7404785,-0.029846191,0.6676636,-3.5625,-3.328125,-1.984375
1696253147630,0.7565918,-0.027160645,0.64593506,-4.28125,-0.796875,-1.5
1696253147669,0.7504883,-0.0049438477,0.68304443,-0.390625,2.125,0.171875
1696253147708,0.75683594,-0.03643799,0.6845093,-1.984375,-0.75,1.765625
1696253147749,0.76123047,-0.07330322,0.6869507,-3.71875,-1.734375,0.734375
1696253147789,0.7553711,-0.062316895,0.6828003,-1.890625,-0.421875,-0.28125
1696253147829,0.7336426,-0.042785645,0.6715698,-0.0625,-1.671875,-0.828125
1696253147873,0.74609375,-0.012023926,0.6766968,0.1875,-1.890625,-2.0625
1696253147908,0.7636719,-0.017150879,0.680603,-0.1875,-2.53125,-0.25
1696253147949,0.77734375,-0.04888916,0.6786499,0.234375,-1.40625,-0.28125
1696253147990,0.7687988,-0.046936035,0.67181396,-1.1875,-1.125,-1.65625
1696253148029,0.7609863,-0.039367676,0.67303467,-2.046875,-1.515625,-2.453125
1696253148070,0.77905273,-0.035949707,0.69207764,0.4375,0.75,-2.28125
1696253148108,0.7805176,-0.0413208,0.70892334,2.453125,2.1875,-1.6875
1696253148148,0.74194336,-0.06427002,0.6913452,4.46875,3.625,-1.65625
1696253148189,0.7355957,-0.061828613,0.6930542,4.3125,1.1875,-3.6875
1696253148229,0.7504883,-0.05230713,0.7040405,-0.296875,-5.890625,-3.5
1696253148269,0.75634766,-0.054748535,0.6810913,-3.140625,-5.296875,-0.546875
1696253148309,0.75439453,-0.054260254,0.6757202,1.25,2.328125,0.703125
1696253148349,0.7570801,-0.06890869,0.6708374,4.046875,2.546875,-0.09375
1696253148389,0.7507324,-0.081848145,0.65130615,0.71875,-2.0,-0.96875
1696253148408,0.7697754,-0.05621338,0.6635132,-0.734375,-1.234375,-1.015625
1696253148449,0.7636719,-0.06573486,0.6749878,-1.5625,-0.9375,0.109375
1696253148491,0.7692871,-0.074523926,0.66571045,-4.546875,-2.875,0.03125
1696253148550,0.75878906,-0.07745361,0.6691284,-6.015625,-4.1875,-0.5
1696253148567,0.7553711,-0.061828613,0.68865967,-5.5625,-3.453125,-0.921875
1696253148610,0.7390137,-0.061828613,0.68304443,-5.109375,-3.40625,0.296875
1696253148649,0.74072266,-0.051574707,0.67718506,-6.015625,-4.109375,0.28125
1696253148690,0.7336426,-0.034240723,0.6911011,-3.984375,-4.0625,-0.109375
1696253148730,0.7236328,-0.012756348,0.71087646,4.171875,1.53125,0.28125
1696253148793,0.72509766,-0.028381348,0.6508179,15.8125,6.140625,3.125
1696253148808,0.8010254,-0.059631348,0.60809326,16.28125,9.5625,11.25
1696253148849,0.8249512,-0.101379395,0.6959839,3.671875,7.90625,13.34375
1696253148889,0.76171875,-0.057678223,0.70843506,-2.71875,-0.453125,4.109375
1696253148929,0.75097656,-0.07305908,0.6473999,-4.875,-4.390625,-1.109375
1696253148971,0.7414551,-0.030090332,0.66815186,0.453125,1.5625,-0.359375
1696253149009,0.7441406,-0.024475098,0.65838623,1.453125,1.5625,0.453125
1696253149072,0.75512695,-0.03741455,0.69036865,0.390625,-1.328125,0.78125
1696253149087,0.76953125,-0.04840088,0.6906128,-4.96875,-1.390625,0.28125
1696253149130,0.7792969,-0.057434082,0.6691284,-4.890625,-0.25,-0.03125
1696253149169,0.74316406,-0.034729004,0.66741943,-0.703125,0.734375,0.125
1696253149210,0.75683594,-0.0178833,0.66864014,-0.65625,-0.109375,1.09375
1696253149250,0.76953125,-0.029846191,0.6625366,-1.25,-2.09375,0.875
1696253149291,0.76708984,-0.035705566,0.67767334,0.390625,-1.375,-1.3125
1696253149330,0.7631836,-0.046691895,0.6779175,0.515625,-1.390625,-2.1875
1696253149367,0.7739258,-0.035217285,0.6679077,-0.109375,-2.046875,-2.421875
1696253149409,0.77612305,-0.03643799,0.6901245,3.65625,0.984375,-2.265625
1696253149448,0.767334,-0.04498291,0.68255615,-0.34375,-1.59375,-3.828125
1696253149489,0.72314453,-0.033996582,0.7008667,3.515625,1.109375,-4.65625
1696253149528,0.7233887,-0.08013916,0.6869507,5.046875,-4.6875,-4.65625
1696253149589,0.7663574,-0.0791626,0.71014404,-0.28125,-9.640625,-3.859375
1696253149630,0.78271484,-0.06524658,0.68621826,-4.140625,-2.421875,-0.890625
1696253149647,0.75756836,-0.06719971,0.6676636,-1.203125,2.328125,0.203125
1696253149668,0.7492676,-0.077697754,0.66619873,0.15625,1.03125,-0.40625
1696253149709,0.7609863,-0.06329346,0.67596436,-0.984375,-0.890625,-0.75
1696253149749,0.76416016,-0.06524658,0.67181396,-0.890625,-1.09375,0.09375
1696253149791,0.76171875,-0.074523926,0.6779175,-2.265625,-2.5625,0.484375
1696253149849,0.7553711,-0.061584473,0.6893921,-3.515625,-3.265625,-0.125
1696253149867,0.7375488,-0.05987549,0.69158936,-3.03125,-2.34375,-0.34375
1696253149908,0.7312012,-0.062072754,0.6859741,-4.15625,-2.53125,-0.34375
1696253149948,0.7368164,-0.06060791,0.6913452,-6.109375,-3.140625,-0.453125
1696253149991,0.7409668,-0.044006348,0.69573975,-4.078125,-2.859375,-0.203125
1696253150028,0.72753906,-0.028381348,0.6923218,-1.59375,-2.265625,0.5625
1696253150069,0.7050781,-0.011047363,0.71673584,8.0625,4.96875,2.09375
1696253150108,0.75146484,-0.043273926,0.621521,19.578125,8.03125,6.421875
1696253150151,0.7871094,-0.07305908,0.618103,10.890625,8.34375,10.109375
1696253150193,0.76538086,-0.12384033,0.6898804,4.25,0.359375,9.171875
1696253150231,0.76904297,-0.089660645,0.7055054,-4.703125,-4.515625,1.703125
1696253150269,0.7507324,-0.021057129,0.6720581,-7.5,-2.71875,-1.71875
1696253150310,0.73339844,-0.0154418945,0.670105,-3.40625,0.109375,-2.109375
1696253150349,0.7558594,-0.024963379,0.6744995,-2.5625,0.3125,0.109375
1696253150391,0.76586914,-0.05303955,0.69818115,-1.96875,1.984375,2.1875
1696253150429,0.7697754,-0.0725708,0.70062256,-3.546875,0.265625,1.109375
1696253150471,0.7602539,-0.06036377,0.68084717,-1.96875,0.765625,0.046875
1696253150510,0.7507324,-0.031555176,0.6725464,0.28125,0.765625,0.203125
1696253150549,0.75341797,-0.0134887695,0.6708374,0.625,0.40625,1.546875
1696253150592,0.763916,-0.03302002,0.68133545,1.109375,0.109375,0.71875
1696253150632,0.75512695,-0.046447754,0.67596436,-0.5,-1.40625,-0.171875
1696253150670,0.74975586,-0.035217285,0.6696167,-1.28125,-2.34375,-0.84375
1696253150709,0.76000977,-0.030822754,0.670105,0.3125,-0.25,-1.1875
1696253150750,0.77978516,-0.034240723,0.6847534,3.484375,3.40625,-1.65625
1696253150789,0.78808594,-0.042785645,0.68548584,3.5625,1.859375,-2.0
1696253150832,0.75268555,-0.065979004,0.66204834,2.171875,0.25,-3.4375
1696253150870,0.7312012,-0.061584473,0.67840576,2.671875,-0.828125,-5.78125
1696253150908,0.74438477,-0.061340332,0.70306396,-2.296875,-7.59375,-5.203125
1696253150949,0.7636719,-0.06793213,0.7037964,-4.484375,-5.625,-1.796875
1696253150970,0.7636719,-0.0713501,0.68133545,-2.109375,-0.375,0.84375
1696253151032,0.7570801,-0.07232666,0.67645264,-1.140625,-0.09375,0.296875
1696253151047,0.7475586,-0.06744385,0.6688843,0.8125,-0.03125,-0.75
1696253151109,0.7548828,-0.05645752,0.6679077,-0.078125,-0.984375,-0.640625
1696253151128,0.7583008,-0.058166504,0.68084717,-1.140625,-1.390625,0.4375
1696253151190,0.75805664,-0.06573486,0.6637573,-2.109375,-2.234375,0.640625
1696253151210,0.76000977,-0.05718994,0.69036865,-0.953125,-1.421875,-0.4375
1696253151269,0.7512207,-0.07720947,0.6884155,-2.609375,-1.734375,0.015625
1696253151288,0.7531738,-0.06964111,0.6893921,-6.25,-3.203125,-0.109375
1696253151330,0.72998047,-0.041809082,0.6864624,-5.65625,-2.6875,-0.296875
1696253151369,0.7219238,-0.03668213,0.6786499,-3.703125,-2.890625,0.421875
1696253151410,0.7380371,-0.03302002,0.6984253,-0.671875,-1.546875,0.078125
1696253151450,0.72680664,-0.013977051,0.699646,5.5,1.734375,0.21875
1696253151491,0.71533203,-0.030822754,0.68743896,17.75,7.71875,2.6875
1696253151531,0.76049805,-0.07623291,0.5841675,19.5625,8.25,5.5625
1696253151592,0.80126953,-0.11651611,0.6744995,10.109375,5.765625,8.6875
1696253151632,0.8041992,-0.09576416,0.71429443,2.875,1.140625,6.09375
1696253151667,0.7614746,-0.061828613,0.66693115,-6.328125,-5.109375,1.9375
1696253151710,0.7402344,-0.022766113,0.6810913,-5.328125,-1.6875,0.09375
1696253151729,0.72021484,-0.039855957,0.67596436,-0.3125,1.546875,0.65625
1696253151767,0.7434082,-0.061340332,0.66741943,0.296875,2.015625,1.53125
1696253151808,0.7788086,-0.08721924,0.67352295,-2.46875,0.640625,1.390625
1696253151849,0.7919922,-0.07110596,0.66619873,-3.109375,0.984375,1.015625
1696253151889,0.7609863,-0.050109863,0.6571655,-0.1875,0.3125,0.828125
1696253151931,0.7590332,-0.03302002,0.6671753,0.453125,0.09375,0.40625
1696253151969,0.7758789,-0.034973145,0.6593628,-0.734375,-0.140625,0.984375
1696253152010,0.78222656,-0.047180176,0.6659546,-1.25,-2.234375,0.359375
1696253152052,0.76586914,-0.04498291,0.666687,-1.84375,-1.953125,-1.171875
1696253152090,0.7824707,-0.043762207,0.67962646,-4.1875,-1.28125,-2.078125
1696253152129,0.79248047,-0.04058838,0.68792725,-4.3125,3.046875,-1.640625
1696253152189,0.75219727,-0.02545166,0.6884155,1.484375,4.421875,-2.203125
1696253152231,0.7270508,-0.057678223,0.6679077,2.84375,-1.578125,-4.390625
1696253152248,0.7402344,-0.06109619,0.66864014,-0.28125,-4.0,-4.4375
1696253152268,0.7807617,-0.059143066,0.68670654,1.0625,-0.40625,-1.984375
1696253152310,0.79711914,-0.061340332,0.6671753,-1.296875,-2.40625,-0.5
1696253152352,0.7697754,-0.05303955,0.6671753,-6.15625,-4.34375,0.53125
1696253152390,0.7524414,-0.057678223,0.6625366,-0.3125,-1.15625,0.140625
1696253152429,0.75561523,-0.07550049,0.66326904,1.34375,-1.71875,-0.578125
1696253152469,0.7675781,-0.05621338,0.6647339,-0.484375,-3.0,-1.015625
1696253152509,0.7583008,-0.04864502,0.66815186,-1.921875,-2.546875,-0.5
1696253152551,0.7619629,-0.047424316,0.67059326,-3.4375,-3.046875,-0.09375
1696253152590,0.76049805,-0.054748535,0.68573,-3.5625,-2.015625,-0.234375
1696253152632,0.74194336,-0.05230713,0.6832886,-5.125,-3.734375,-0.28125
1696253152671,0.7373047,-0.0491333,0.70428467,-4.65625,-2.671875,-0.484375
1696253152709,0.73779297,-0.038391113,0.68743896,-5.15625,-3.546875,0.203125
1696253152750,0.736084,-0.038146973,0.6845093,-4.890625,-3.3125,0.296875
1696253152790,0.7302246,-0.0178833,0.6972046,-1.0625,-2.0625,-0.015625
1696253152829,0.7109375,0.0036010742,0.7050171,9.265625,5.453125,0.8125
1696253152868,0.74072266,-0.03717041,0.602478,19.3125,6.25,4.3125
1696253152908,0.7849121,-0.054748535,0.6310425,13.03125,6.140625,8.140625
1696253152948,0.7873535,-0.117248535,0.7201538,9.28125,1.03125,7.015625
1696253152992,0.7788086,-0.089904785,0.69403076,-4.859375,-3.265625,0.9375
1696253153029,0.7470703,-0.03253174,0.664978,-9.84375,-3.546875,0.3125
1696253153072,0.72387695,-0.003479004,0.6622925,-2.453125,-0.515625,-0.4375
1696253153109,0.73168945,-0.023254395,0.67718506,1.828125,-0.1875,-0.5625
1696253153149,0.7583008,-0.086242676,0.70477295,0.96875,-0.203125,0.125
1696253153190,0.7792969,-0.09527588,0.7098999,-3.15625,-0.65625,0.3125
1696253153229,0.77368164,-0.06451416,0.6762085,-1.765625,-0.390625,-0.390625
1696253153269,0.74975586,-0.0095825195,0.66033936,0.640625,-0.4375,-0.203125
1696253153311,0.736084,-0.0178833,0.67230225,1.25,-0.40625,0.75
1696253153351,0.7414551,-0.045959473,0.6845093,0.375,-0.125,0.484375
1696253153388,0.7578125,-0.0491333,0.68304443,-1.375,-1.46875,-0.765625
1696253153428,0.76953125,-0.0335083,0.6976929,-1.546875,0.421875,-2.375
1696253153470,0.7841797,-0.054504395,0.7133179,1.1875,3.71875,-1.953125
1696253153511,0.7729492,-0.05621338,0.670105,-2.0625,0.46875,-0.796875
1696253153548,0.74853516,-0.054260254,0.6671753,-0.984375,-0.15625,-1.90625
1696253153589,0.7163086,-0.058166504,0.70355225,2.40625,-0.90625,-4.140625
1696253153631,0.7282715,-0.06793213,0.70770264,-0.1875,-6.015625,-3.984375
1696253153648,0.77490234,-0.054992676,0.6954956,-0.546875,-2.359375,-2.0625
1696253153710,0.76904297,-0.066467285,0.67352295,-1.671875,-0.65625,1.453125
1696253153729,0.7529297,-0.05718994,0.67889404,-0.40625,0.21875,0.84375
1696253153790,0.75561523,-0.06915283,0.67230225,1.15625,0.03125,-0.796875
1696253153807,0.7619629,-0.07330322,0.6737671,-0.703125,-1.015625,-0.953125
1696253153850,0.7631836,-0.058410645,0.6793823,-0.859375,-0.140625,0.078125
1696253153887,0.7487793,-0.066467285,0.6835327,-0.046875,-0.890625,0.9375
1696253153931,0.75512695,-0.06695557,0.67523193,-3.234375,-2.53125,-0.171875
1696253153969,0.7504883,-0.074523926,0.6950073,-4.25,-1.359375,-0.453125
1696253154010,0.7426758,-0.058166504,0.67401123,-4.875,-1.234375,-0.015625
1696253154050,0.7458496,-0.044006348,0.68084717,-4.890625,-1.8125,-0.15625
1696253154093,0.748291,-0.046447754,0.6869507,-2.78125,-1.890625,0.453125
1696253154129,0.7421875,-0.046691895,0.6869507,-2.75,-2.015625,0.984375
1696253154172,0.72924805,-0.037902832,0.6884155,-0.34375,-1.625,0.796875
1696253154209,0.7084961,-0.008850098,0.6893921,8.046875,2.234375,0.359375
1696253154250,0.73168945,-0.033996582,0.62493896,17.9375,3.828125,3.0
1696253154310,0.7651367,-0.07305908,0.6210327,10.03125,1.421875,5.703125
1696253154327,0.7624512,-0.1038208,0.70721436,4.109375,-1.484375,5.390625
1696253154388,0.7897949,-0.10333252,0.7262573,-6.375,-4.5,1.046875
1696253154410,0.76171875,-0.025939941,0.68621826,-13.140625,-2.34375,-0.34375
1696253154449,0.7312012,0.0028686523,0.66278076,-7.28125,-1.328125,-0.8125
1696253154488,0.71533203,-0.014709473,0.68792725,-2.328125,-0.640625,-0.53125
1696253154530,0.7463379,-0.058654785,0.69989014,-2.40625,0.421875,0.21875
1696253154569,0.7602539,-0.07720947,0.7081909,-3.0,-1.328125,0.28125
1696253154609,0.7380371,-0.051818848,0.69451904,-0.75,-1.03125,-1.03125
1696253154651,0.74243164,-0.023254395,0.69451904,1.03125,-0.625,-1.015625
1696253154689,0.75097656,-0.02154541,0.69573975,1.375,-0.328125,0.59375
1696253154730,0.7636719,-0.034729004,0.699646,2.5,1.578125,0.53125
1696253154771,0.7663574,-0.042541504,0.7069702,2.15625,1.75,-0.78125
1696253154808,0.75878906,-0.042541504,0.6911011,1.578125,2.09375,-0.265625
1696253154850,0.75634766,-0.04498291,0.68548584,2.8125,1.8125,-0.265625
1696253154909,0.7368164,-0.04937744,0.6810913,2.75,1.9375,-0.84375
1696253154928,0.7290039,-0.057434082,0.6793823,1.21875,-0.78125,-2.25
1696253154949,0.74902344,-0.04815674,0.71014404,0.3125,-3.21875,-3.21875
1696253154990,0.76123047,-0.074035645,0.69647217,-2.453125,-3.28125,-0.859375
1696253155029,0.7553711,-0.058166504,0.66400146,-1.4375,-0.015625,0.234375
1696253155069,0.74658203,-0.055725098,0.7045288,0.453125,-0.765625,-0.421875
1696253155109,0.7470703,-0.05718994,0.6859741,0.890625,-0.875,-0.375
1696253155150,0.7573242,-0.06719971,0.66619873,-0.921875,-1.0625,0.15625
1696253155189,0.75634766,-0.05596924,0.6913452,-0.578125,-1.171875,-0.171875
1696253155229,0.7470703,-0.054016113,0.67767334,0.09375,-1.09375,-0.015625
1696253155270,0.7463379,-0.062561035,0.68426514,-2.0625,-1.96875,-0.296875
1696253155309,0.7487793,-0.062805176,0.6911011,-4.234375,-1.796875,-0.1875
1696253155349,0.7348633,-0.0569458,0.684021,-3.6875,-2.265625,0.15625
1696253155390,0.74438477,-0.043273926,0.6967163,-1.4375,-2.265625,0.1875
1696253155428,0.7414551,-0.05621338,0.68743896,-0.484375,-1.875,0.40625
1696253155469,0.7246094,-0.046203613,0.68548584,-0.484375,-1.4375,0.328125
1696253155508,0.72924805,-0.03643799,0.680603,0.828125,-1.0,0.359375
1696253155550,0.72631836,-0.03375244,0.69573975,4.90625,3.609375,-0.46875
1696253155588,0.7429199,-0.04522705,0.6691284,14.859375,5.796875,0.859375
1696253155629,0.78808594,-0.105773926,0.6276245,9.40625,5.453125,7.0
1696253155670,0.8227539,-0.08013916,0.68011475,-4.953125,7.796875,10.453125
1696253155708,0.75024414,-0.018615723,0.6991577,-5.625,-0.78125,5.5
1696253155748,0.70825195,-0.030578613,0.664978,-6.953125,-6.453125,-1.734375
1696253155788,0.732666,-0.046691895,0.65448,-7.1875,-5.015625,-3.703125
