,timestamp,accel_x,accel_y,accel_z,gyro_x,gyro_y,gyro_z,ind
0,1696258326930,0.19018555,-0.5635376,0.02166748,0.90625,0.90625,-3.5,0
1,1696258326970,0.053710938,-0.61260986,0.014343262,4.390625,-7.234375,4.1875,1
2,1696258327010,0.020996094,-0.71661377,-0.020568848,5.875,5.75,4.265625,2
3,1696258327050,-0.080566406,-0.7276001,-0.06427002,2.046875,9.515625,0.0,3
4,1696258327090,-0.021728516,-0.93292236,-0.09136963,4.328125,11.0,4.21875,4
5,1696258327130,0.1315918,-1.3442993,-0.09967041,-4.453125,7.796875,11.765625,5
6,1696258327170,0.15649414,-1.5588989,-0.1795044,-2.609375,6.359375,3.296875,6
7,1696258327210,0.13305664,-1.2097778,-0.11065674,-28.234375,-6.828125,9.046875,7
8,1696258327250,0.60791016,-1.2715454,0.0038452148,-17.421875,-2.875,13.671875,8
9,1696258327290,0.6188965,-1.1365356,-0.0947876,5.0625,-24.8125,-11.09375,9
10,1696258327330,0.34423828,-0.89801025,-0.0154418945,-9.890625,6.359375,6.78125,10
11,1696258327370,0.38793945,-0.83013916,-0.113342285,-5.328125,-8.296875,3.765625,11
12,1696258327410,0.43774414,-0.9199829,0.05609131,2.546875,-9.28125,-4.90625,12
13,1696258327450,0.28857422,-0.9314575,0.07635498,-9.328125,-2.15625,-0.4375,13
14,1696258327490,0.2084961,-0.7752075,0.018737793,-6.03125,-18.125,-5.234375,14
15,1696258327530,0.14404297,-0.66070557,0.04119873,3.53125,-20.03125,-6.984375,15
16,1696258327570,0.16113281,-0.6729126,0.090026855,2.765625,-10.8125,0.34375,16
17,1696258327610,0.1730957,-0.60284424,0.1071167,3.5,-9.203125,4.75,17
18,1696258327650,0.13012695,-0.5725708,0.09051514,7.640625,-16.65625,4.359375,18
19,1696258327690,0.020996094,-0.64263916,0.124938965,0.203125,-17.515625,7.6875,19
20,1696258327730,0.017822266,-0.83062744,0.19378662,-10.125,-0.6875,17.609375,20
21,1696258327770,0.24243164,-1.5239868,0.32244873,7.1875,12.96875,28.15625,21
22,1696258327810,0.546875,-2.0,0.23382568,12.890625,5.421875,-2.203125,22
23,1696258327850,0.5041504,-1.4778442,0.14251709,10.703125,-18.140625,-23.96875,23
24,1696258327890,0.5354004,-1.0645142,0.015319824,-17.546875,-5.0,-13.265625,24
25,1696258327930,0.103271484,-0.7415161,-0.13482666,-18.125,2.25,-18.453125,25
26,1696258327970,0.046142578,-0.6531372,-0.20977783,4.796875,-1.578125,-20.328125,26
27,1696258328010,0.18139648,-0.62506104,-0.065979004,-5.46875,6.4375,-3.109375,27
28,1696258328050,0.31518555,-0.77301025,0.0036010742,4.171875,10.640625,-1.515625,28
29,1696258328090,0.19604492,-1.0942993,0.012634277,6.125,-7.0,-4.46875,29
30,1696258328130,-0.06298828,-1.0960083,0.07122803,3.265625,-3.859375,-11.5,30
31,1696258328170,-0.11010742,-0.8286743,0.027526855,10.03125,9.328125,-10.765625,31
32,1696258328210,0.037109375,-0.7007446,-0.046691895,1.328125,13.953125,-7.75,32
33,1696258328250,0.12768555,-0.71221924,0.0524292,-2.734375,10.453125,0.21875,33
34,1696258328290,0.115478516,-0.6868286,0.105163574,1.859375,5.484375,1.765625,34
35,1696258328330,-0.0146484375,-0.67071533,0.053894043,0.796875,3.328125,4.140625,35
36,1696258328370,-0.13085938,-0.77716064,-0.04473877,7.71875,8.203125,7.703125,36
37,1696258328410,-0.048583984,-1.0689087,-0.05987549,6.171875,19.4375,15.703125,37
38,1696258328450,0.31713867,-1.5950317,0.049743652,30.984375,11.296875,22.421875,38
39,1696258328490,0.27661133,-1.451477,0.116882324,7.859375,-28.453125,11.53125,39
40,1696258328530,0.07006836,-1.6790161,-0.042053223,-20.921875,19.109375,29.15625,40
41,1696258328570,0.4091797,-1.4880981,-0.11529541,7.46875,-12.5,-1.0,41
42,1696258328610,0.28881836,-0.92755127,-0.05230713,5.46875,12.375,-20.359375,42
43,1696258328650,0.41259766,-0.5864868,-0.22149658,-12.984375,22.109375,-11.359375,43
44,1696258328690,0.41845703,-0.7173462,0.0036010742,-6.375,11.625,4.46875,44
45,1696258328730,0.33032227,-1.1773071,0.15960693,-22.234375,8.59375,9.34375,45
46,1696258328770,0.04711914,-1.144104,-0.031555176,-26.4375,-20.6875,-3.171875,46
47,1696258328810,0.14331055,-0.7078247,-0.046203613,-11.203125,-10.671875,-14.5,47
48,1696258328850,0.22460938,-0.32208252,0.027038574,-1.578125,2.203125,-6.125,48
49,1696258328890,0.18286133,-0.38531494,0.039489746,6.625,5.234375,8.09375,49
50,1696258328930,0.18017578,-0.5366821,0.034851074,9.390625,20.515625,17.890625,50
51,1696258328970,0.09448242,-0.6343384,0.06463623,-7.265625,-2.03125,18.015625,51
52,1696258329010,0.16796875,-0.6331177,0.3168335,-5.5625,-17.0,14.3125,52
53,1696258329050,-0.039794922,-1.0178833,0.04852295,13.578125,-10.140625,13.84375,53
54,1696258329090,0.13305664,-1.5010376,0.12908936,12.765625,30.796875,37.421875,54
55,1696258329130,0.33666992,-1.5879517,0.4730835,-4.046875,21.765625,19.15625,55
56,1696258329170,0.33374023,-1.6348267,0.44476318,-1.015625,11.40625,-9.1875,56
57,1696258329210,-0.04296875,-1.5083618,-0.237854,-0.359375,18.75,-14.0,57
58,1696258329250,0.60546875,-1.1399536,-0.16949463,13.109375,41.953125,-4.6875,58
59,1696258329290,0.20532227,-0.819397,-0.19390869,-3.421875,44.296875,-26.765625,59
60,1696258329330,0.099121094,-1.128479,0.03656006,0.84375,2.484375,-10.578125,91
61,1696258329370,-0.12207031,-1.270813,-0.1675415,-6.828125,11.484375,-8.875,92
62,1696258329410,0.27539062,-1.3030396,-0.33551025,21.953125,54.734375,-7.34375,93
63,1696258329450,0.40112305,-1.0256958,-0.14093018,14.796875,45.90625,-16.296875,94
64,1696258329490,0.43310547,-0.68878174,-0.12579346,-5.609375,18.71875,-11.546875,95
65,1696258329530,0.27807617,-0.71051025,-0.14556885,-25.75,7.515625,-8.90625,96
66,1696258329570,0.004638672,-0.8513794,-0.19805908,-26.875,8.09375,-0.84375,97
67,1696258329610,-0.1743164,-1.2280884,-0.19122314,-17.390625,18.90625,-1.515625,98
68,1696258329650,-0.049560547,-1.0903931,-0.008361816,1.046875,21.140625,-6.765625,99
69,1696258329690,0.2109375,-0.7036743,0.010681152,6.78125,28.5,-5.9375,100
70,1696258329730,0.22705078,-0.56036377,0.04437256,-5.09375,17.28125,-1.390625,101
71,1696258329770,0.12036133,-0.6013794,0.039733887,-7.1875,4.25,7.109375,102
72,1696258329810,0.020019531,-0.6968384,-0.0095825195,-2.0625,5.828125,8.8125,103
73,1696258329850,-0.12719727,-0.8657837,0.014343262,4.25,15.53125,5.828125,104
74,1696258329890,-0.19873047,-1.2754517,0.023620605,-3.28125,25.71875,12.265625,105
75,1696258329930,-0.09863281,-1.6331177,0.10614014,-38.453125,27.703125,13.546875,106
76,1696258329970,0.07373047,-1.4348755,-0.09503174,-4.25,0.0,-4.234375,107
77,1696258330010,0.39111328,-1.2070923,-0.089904785,-4.53125,-0.03125,-1.46875,108
78,1696258330050,0.89038086,-1.2276001,0.008483887,-2.6875,-1.75,10.28125,109
79,1696258330090,0.6040039,-0.94854736,0.04534912,2.734375,-25.765625,-5.140625,110
80,1696258330130,0.0769043,-0.8106079,0.036315918,-8.09375,-1.90625,-0.3125,111
81,1696258330170,0.080078125,-0.8032837,-0.12506104,4.484375,5.734375,4.953125,112
82,1696258330210,0.37670898,-0.9024048,0.13763428,4.203125,10.75,4.53125,113
83,1696258330250,0.3251953,-0.9439087,0.18157959,-2.6875,8.109375,0.5,114
84,1696258330290,0.17773438,-0.79815674,0.04510498,0.625,-11.375,-6.734375,115
85,1696258330330,0.107910156,-0.5552368,0.06707764,3.296875,-17.671875,2.453125,116
86,1696258330370,0.13208008,-0.553772,0.09564209,6.609375,-8.984375,8.90625,117
87,1696258330410,0.12158203,-0.7461548,0.07757568,6.28125,-2.390625,12.3125,118
88,1696258330450,0.14257812,-0.725647,0.08905029,2.859375,-3.09375,11.40625,119
89,1696258330490,0.21069336,-0.82647705,0.116882324,4.875,-5.953125,13.140625,120
90,1696258330530,0.28295898,-1.1160278,0.17718506,5.609375,-6.1875,13.484375,121
91,1696258330570,0.30322266,-1.3953247,0.22479248,11.171875,-3.828125,6.703125,122
92,1696258330610,0.18066406,-1.2857056,0.13787842,5.75,-2.765625,-7.3125,123
93,1696258330650,0.09887695,-1.3919067,-0.005432129,7.28125,4.734375,-16.28125,124
94,1696258330690,0.623291,-1.296936,-0.10284424,12.390625,18.203125,-3.109375,125
95,1696258330730,0.41259766,-1.0142212,-0.057678223,10.671875,8.0625,-28.515625,126
96,1696258330770,0.15991211,-0.84820557,-0.07672119,-1.390625,6.03125,-31.171875,127
97,1696258330810,0.083984375,-0.65045166,-0.253479,-3.484375,3.109375,-11.5625,128
98,1696258330850,0.1550293,-0.7280884,-0.1765747,9.625,10.625,-2.609375,129
99,1696258330890,0.19189453,-0.9380493,-0.046691895,8.203125,13.15625,1.125,130
100,1696258330930,0.15649414,-1.0501099,0.04144287,5.890625,2.6875,-11.671875,131
101,1696258330970,0.12841797,-0.88946533,-0.020324707,8.5625,-0.34375,-10.0,132
102,1696258331010,0.033447266,-0.77301025,-0.043518066,-0.03125,1.28125,-2.734375,133
103,1696258331050,-0.07861328,-0.78448486,-0.026428223,-4.328125,-7.15625,-2.03125,134
104,1696258331090,-0.052246094,-0.79034424,-0.013977051,-10.578125,-4.4375,-2.53125,135
105,1696258331130,-0.0007324219,-0.66656494,-0.026428223,-8.96875,4.1875,3.015625,136
106,1696258331170,-0.028320312,-0.7263794,-0.054504395,13.703125,11.859375,9.390625,137
107,1696258331210,-0.059814453,-0.9751587,-0.0076293945,2.96875,4.734375,8.734375,138
108,1696258331250,-0.076660156,-1.2407837,0.013122559,-12.578125,5.5625,10.25,139
109,1696258331290,0.08666992,-1.5171509,0.07537842,-8.046875,4.859375,12.015625,140
110,1696258331330,0.1928711,-1.5391235,-0.031311035,3.375,3.71875,5.53125,141
111,1696258331370,0.28808594,-1.5393677,-0.21466064,7.3125,-5.96875,19.46875,142
112,1696258331410,0.7246094,-1.3862915,-0.028381348,21.484375,-33.265625,7.71875,143
113,1696258331450,0.4934082,-0.8648071,-0.11602783,2.125,-5.78125,6.828125,144
114,1696258331490,0.28637695,-0.61138916,-0.08428955,-13.953125,2.015625,4.8125,145
115,1696258331530,0.15576172,-0.69781494,-0.105529785,0.484375,-16.5,1.375,146
116,1696258331570,0.059570312,-0.83380127,0.00091552734,-17.21875,-7.96875,6.890625,147
117,1696258331610,0.11450195,-0.74786377,0.06121826,-19.875,-3.765625,-0.21875,148
118,1696258331650,0.16088867,-0.54400635,0.009216309,-5.21875,-5.203125,-10.078125,149
119,1696258331690,0.15112305,-0.4126587,0.001159668,6.59375,-14.875,-1.84375,150
120,1696258331730,0.119384766,-0.49517822,-0.023742676,13.34375,-15.796875,11.265625,151
121,1696258331770,0.21069336,-0.7522583,0.121276855,5.71875,-3.53125,22.328125,152
122,1696258331810,0.30444336,-1.1653442,0.12200928,8.609375,-4.078125,21.578125,153
123,1696258331850,0.33618164,-1.6773071,0.12713623,3.4375,-17.75,8.46875,154
124,1696258331890,0.122558594,-1.350647,0.1281128,9.40625,-0.5625,-9.4375,155
125,1696258331930,0.14208984,-1.1902466,-0.055236816,14.109375,11.984375,-24.53125,156
126,1696258331970,0.4411621,-1.223938,-0.22784424,3.765625,17.984375,-9.1875,157
127,1696258332010,0.45532227,-1.0332642,-0.1272583,4.453125,13.5625,0.125,158
128,1696258332050,0.29833984,-0.95977783,-0.20611572,-1.234375,15.015625,-17.9375,159
129,1696258332090,0.18969727,-0.84942627,-0.2078247,-11.78125,1.453125,-17.703125,160
130,1696258332130,0.103271484,-0.73223877,-0.1638794,3.453125,8.796875,-12.9375,161
131,1696258332170,0.18041992,-0.8960571,-0.11016846,7.546875,12.421875,-6.171875,162
132,1696258332210,0.14575195,-1.0596313,-0.031311035,-2.015625,8.78125,-7.75,163
133,1696258332250,0.15063477,-0.92071533,-0.033996582,-2.109375,-3.03125,-10.984375,164
134,1696258332290,0.057128906,-0.6404419,-0.10308838,2.78125,-1.09375,-3.640625,165
135,1696258332330,-0.02709961,-0.5823364,-0.07696533,5.296875,6.640625,-0.734375,166
136,1696258332370,-0.04248047,-0.67071533,-0.03741455,6.28125,7.234375,1.328125,167
137,1696258332410,-0.01953125,-0.73150635,-0.065979004,7.015625,9.796875,7.515625,168
138,1696258332450,0.0009765625,-0.8196411,-0.06817627,12.3125,15.015625,10.765625,169
139,1696258332490,0.0087890625,-1.1028442,-0.054748535,5.28125,13.390625,10.734375,170
140,1696258332530,0.10180664,-1.4465942,-0.026916504,-4.65625,0.46875,10.890625,171
141,1696258332570,0.16723633,-1.479065,-0.20123291,-5.5,0.84375,13.90625,172
142,1696258332610,0.17553711,-1.3779907,-0.3850708,-17.546875,-7.015625,17.75,173
143,1696258332650,0.73095703,-1.6604614,-0.10772705,-7.59375,-11.6875,10.875,174
144,1696258332690,0.37231445,-0.9089966,-0.08770752,-6.359375,-7.65625,-3.859375,175
145,1696258332730,0.3671875,-0.6658325,-0.16046143,-19.5,2.453125,-1.34375,176
146,1696258332770,0.33374023,-0.70977783,-0.08502197,-13.625,-10.59375,-3.3125,177
147,1696258332810,0.17041016,-0.9768677,0.035339355,-17.359375,-10.4375,7.03125,178
148,1696258332850,0.15893555,-0.99835205,0.07366943,-26.109375,-18.28125,2.90625,179
149,1696258332890,0.17651367,-0.7901001,0.06390381,-8.921875,-9.453125,-9.640625,180
150,1696258332930,0.12573242,-0.5166626,0.059020996,0.625,-17.09375,-6.75,181
151,1696258332970,0.02709961,-0.46539307,0.013122559,-0.25,-12.0,0.28125,182
152,1696258333010,0.08203125,-0.48760986,0.09442139,4.234375,2.84375,10.265625,183
153,1696258333050,0.1496582,-0.58843994,0.11541748,5.96875,8.453125,21.078125,184
154,1696258333090,0.13671875,-0.88482666,0.1762085,0.15625,0.203125,28.265625,185
155,1696258333130,0.42089844,-1.6594849,0.14886475,15.203125,3.015625,27.65625,186
156,1696258333170,0.37695312,-1.6123657,0.21234131,17.625,-6.015625,-5.140625,187
157,1696258333210,0.20825195,-1.3057251,-0.018371582,18.203125,-9.0,-17.671875,188
158,1696258333250,0.5515137,-1.1851196,-0.11846924,15.796875,5.59375,10.75,189
159,1696258333290,0.34350586,-1.1099243,-0.15167236,13.546875,18.0625,-7.203125,190
160,1696258333330,0.115234375,-1.038147,-0.25665283,-12.078125,9.46875,-29.640625,191
161,1696258333370,0.103271484,-0.85040283,-0.18804932,-15.1875,23.046875,-19.40625,192
162,1696258333410,0.2763672,-0.84552,-0.117248535,-3.359375,9.046875,-17.578125,193
163,1696258333450,0.34106445,-0.9800415,0.013366699,-1.125,0.328125,-17.421875,194
164,1696258333490,0.13208008,-0.8567505,0.015808105,-4.828125,-5.9375,-20.328125,195
165,1696258333530,-0.033447266,-0.57818604,-0.02520752,-7.96875,0.9375,-11.765625,196
166,1696258333570,-0.018066406,-0.4199829,-0.0071411133,2.890625,-1.28125,-7.625,197
167,1696258333610,-0.015380859,-0.517395,-0.006652832,0.015625,3.75,0.3125,198
168,1696258333650,0.0078125,-0.57940674,0.048034668,-5.453125,10.921875,4.859375,199
169,1696258333690,-0.125,-0.630188,-0.019836426,0.671875,-5.09375,3.984375,200
170,1696258333730,-0.038085938,-0.86602783,-0.013000488,19.65625,8.3125,12.328125,201
171,1696258333770,0.09301758,-1.1817017,0.04925537,22.953125,23.953125,22.453125,202
172,1696258333810,-0.2006836,-2.0,0.012634277,7.828125,-4.953125,27.359375,203
173,1696258333850,-0.18139648,-1.7268677,0.022644043,5.0,-8.859375,8.625,204
174,1696258333890,0.10961914,-1.2886353,-0.5491333,13.3125,-1.75,14.625,205
175,1696258333930,0.5180664,-0.9507446,-0.09918213,-36.5,20.40625,46.125,206
176,1696258333970,0.7089844,-1.8318481,-0.18267822,-5.109375,-22.9375,-0.171875,207
177,1696258334010,0.25927734,-0.7197876,-0.11627197,3.859375,13.90625,-19.828125,208
178,1696258334050,0.26049805,-0.60284424,-0.28033447,-6.765625,25.734375,-14.5625,209
179,1696258334090,0.33764648,-1.4351196,-0.14923096,-32.0625,14.71875,8.96875,241
180,1696258334130,0.515625,-1.2857056,-0.286438,-12.140625,-17.71875,-17.15625,242
181,1696258334170,0.2939453,-0.95269775,-0.11138916,-6.90625,10.921875,-4.625,243
182,1696258334210,0.32250977,-0.63409424,-0.21710205,-24.6875,12.375,0.375,244
183,1696258334250,0.34936523,-0.6069946,-0.08453369,-23.453125,-1.1875,2.03125,245
184,1696258334290,0.2998047,-0.9661255,0.04071045,-16.0,5.59375,7.59375,246
185,1696258334330,0.16015625,-0.91485596,0.082458496,-20.40625,-4.046875,8.578125,247
186,1696258334370,0.18457031,-0.6799927,0.10858154,-7.109375,-7.96875,0.515625,248
187,1696258334410,0.13085938,-0.631897,0.11077881,-1.28125,-12.125,0.671875,249
188,1696258334450,0.114746094,-0.7114868,0.078063965,-7.015625,-12.5,3.375,250
189,1696258334490,0.125,-0.71710205,0.078552246,2.71875,-0.75,6.3125,251
190,1696258334530,0.15258789,-0.7617798,0.11468506,7.71875,-0.640625,13.734375,252
191,1696258334570,0.16381836,-0.86309814,0.1798706,-2.078125,-2.8125,18.484375,253
192,1696258334610,0.27539062,-1.1109009,0.2584839,8.234375,2.609375,19.0625,254
193,1696258334650,0.16064453,-1.6253052,0.09613037,44.78125,-7.9375,15.28125,255
194,1696258334690,0.40722656,-1.4107056,0.11224365,7.171875,-12.15625,-12.71875,256
195,1696258334730,0.26367188,-1.0828247,-0.055480957,-3.53125,-0.546875,-25.671875,257
196,1696258334770,0.49365234,-0.9212036,0.046813965,2.25,-5.96875,0.125,258
197,1696258334810,0.103271484,-1.0046997,-0.23394775,5.546875,8.46875,-17.296875,259
198,1696258334850,0.18066406,-1.0342407,-0.17901611,-7.625,6.4375,-14.625,260
199,1696258334890,0.21801758,-0.75372314,-0.17242432,-1.65625,12.015625,-9.734375,261
200,1696258334930,0.2397461,-0.84161377,-0.12677002,5.75,12.21875,-14.921875,262
201,1696258334970,0.07885742,-0.9194946,-0.026184082,8.1875,7.296875,-15.46875,263
202,1696258335010,0.00024414062,-0.9507446,-0.0020141602,10.203125,4.671875,-10.71875,264
203,1696258335050,0.014404297,-0.8062134,-0.039855957,4.5625,8.703125,-1.875,265
204,1696258335090,0.07788086,-0.7666626,-0.008117676,0.765625,3.8125,-3.703125,266
205,1696258335130,0.036621094,-0.79229736,0.008972168,2.640625,1.609375,-4.609375,267
206,1696258335170,0.010986328,-0.7788696,0.029968262,2.25,2.84375,-2.09375,268
207,1696258335210,-0.012207031,-0.66070557,-0.043273926,4.890625,4.796875,-0.921875,269
208,1696258335250,-0.03173828,-0.6878052,-0.12530518,13.921875,-2.53125,5.828125,270
209,1696258335290,0.052246094,-0.7402954,-0.06573486,25.359375,-2.15625,19.0,271
210,1696258335330,-0.21044922,-1.3718872,-0.2774048,21.0625,-8.8125,32.5625,272
211,1696258335370,-0.119140625,-2.0,-0.06524658,-17.96875,9.625,13.59375,273
212,1696258335410,0.0017089844,-1.357727,-0.2649536,-8.265625,4.59375,4.53125,274
213,1696258335450,0.6386719,-1.409729,-0.5237427,-33.921875,3.9375,22.1875,275
214,1696258335490,0.22680664,-1.366272,0.022155762,-0.0625,-2.890625,-6.21875,276
215,1696258335530,0.31640625,-0.77130127,-0.34381104,-10.046875,28.640625,3.25,277
216,1696258335570,0.41601562,-0.5210571,-0.2930298,-5.4375,30.65625,-1.234375,278
217,1696258335610,0.34545898,-0.56622314,-0.074035645,-14.015625,46.03125,-0.8125,279
218,1696258335650,0.20117188,-0.97979736,-0.032043457,-36.84375,27.234375,-1.203125,280
219,1696258335690,0.045654297,-1.1323853,-0.08648682,-30.5625,19.3125,-5.78125,281
220,1696258335730,0.09008789,-0.8713989,-0.051574707,-20.5625,44.921875,-10.34375,282
221,1696258335770,0.22851562,-0.6880493,0.09857178,-3.75,42.984375,-10.859375,283
222,1696258335810,0.13305664,-0.8110962,-0.02130127,-11.875,24.296875,-12.859375,284
223,1696258335850,-0.10083008,-0.89068604,-0.06695557,-16.890625,53.453125,-7.640625,285
224,1696258335890,-0.118652344,-0.8804321,0.0211792,-14.34375,54.5,-5.265625,286
225,1696258335930,0.18408203,-0.7163696,0.043395996,-4.203125,43.5625,-8.625,287
226,1696258335970,0.25854492,-0.7449341,0.18743896,-17.59375,32.875,-2.96875,288
227,1696258336010,0.043945312,-0.7227173,0.043395996,-0.6875,10.90625,1.015625,289
228,1696258336050,-0.07104492,-0.8220825,0.03314209,-7.65625,10.328125,12.328125,290
229,1696258336090,-0.11376953,-0.98101807,0.12591553,-0.265625,38.6875,10.703125,291
230,1696258336130,-0.10253906,-1.1365356,0.1408081,17.734375,33.96875,4.5,292
231,1696258336170,-0.021484375,-1.1106567,-0.0154418945,43.3125,24.9375,-5.484375,293
232,1696258336210,0.5957031,-1.3953247,-0.37945557,19.09375,39.296875,38.125,294
233,1696258336250,0.46435547,-1.2918091,0.02166748,9.703125,47.53125,32.15625,295
234,1696258336290,0.35253906,-1.576477,-0.25567627,15.96875,12.5,-1.40625,296
235,1696258336330,0.1081543,-1.0286255,-0.5281372,4.25,12.609375,-11.515625,297
236,1696258336370,0.27197266,-0.61602783,-0.5269165,-3.859375,34.625,4.171875,298
237,1696258336410,0.27563477,-0.722229,-0.3735962,12.984375,41.71875,2.09375,299
238,1696258336450,0.037353516,-1.013977,-0.31280518,1.734375,43.25,1.921875,300
239,1696258336490,0.119140625,-1.0193481,-0.21466064,-3.28125,36.21875,0.15625,301
240,1696258336530,0.25439453,-0.86309814,-0.17022705,-4.703125,22.5625,-9.078125,302
241,1696258336570,0.25317383,-0.6519165,-0.21051025,-4.75,11.703125,-1.859375,303
242,1696258336610,0.11645508,-0.5894165,-0.20904541,-5.078125,6.75,8.6875,304
243,1696258336650,-0.16113281,-0.75372314,-0.15875244,-7.953125,13.828125,11.125,305
244,1696258336690,-0.2998047,-0.9834595,-0.19073486,3.0625,30.09375,3.484375,306
245,1696258336730,-0.08178711,-0.9312134,-0.25421143,1.03125,35.140625,2.203125,307
246,1696258336770,0.3022461,-0.7908325,-0.2234497,-8.875,26.390625,7.578125,308
247,1696258336810,0.4375,-1.0776978,-0.28741455,-5.03125,2.78125,13.90625,309
248,1696258336850,0.103271484,-1.4487915,-0.4265747,-22.0,-6.34375,21.09375,310
249,1696258336890,0.32788086,-1.7017212,-0.23028564,-26.296875,15.46875,9.046875,311
250,1696258336930,0.18725586,-1.0881958,-0.28790283,-14.390625,-16.140625,-21.171875,312
251,1696258336970,0.359375,-0.7949829,-0.21612549,-15.46875,28.140625,-6.0625,313
252,1696258337010,0.4128418,-0.5952759,-0.21881104,-35.078125,17.296875,1.640625,314
253,1696258337050,0.36767578,-0.80303955,-0.008850098,-17.671875,8.4375,11.390625,315
254,1696258337090,0.21826172,-1.0337524,0.10614014,-17.765625,3.265625,12.21875,316
255,1696258337130,0.087646484,-0.9002075,0.039001465,-26.015625,-4.28125,-1.6875,317
256,1696258337170,0.107910156,-0.6411743,0.005065918,-10.8125,-0.234375,-5.625,318
257,1696258337210,0.17407227,-0.5984497,0.085876465,1.34375,-8.078125,1.578125,319
258,1696258337250,0.20678711,-0.63726807,0.06854248,-1.4375,-4.8125,5.84375,320
259,1696258337290,0.15942383,-0.736145,0.08294678,4.0625,-1.390625,9.96875,321
260,1696258337330,0.19848633,-0.850647,0.11029053,10.09375,-7.1875,12.8125,322
261,1696258337370,0.2783203,-1.029602,0.17669678,12.984375,-9.234375,14.703125,323
262,1696258337410,0.2565918,-1.4343872,0.04949951,18.328125,-18.875,10.1875,324
263,1696258337450,0.1105957,-1.107727,0.0602417,9.296875,-18.15625,-21.28125,325
264,1696258337490,0.34960938,-1.1543579,-0.059387207,3.984375,-10.15625,-7.9375,326
265,1696258337530,0.2866211,-1.291565,-0.06060791,14.546875,14.296875,2.640625,327
266,1696258337570,0.10644531,-1.2849731,-0.054992676,2.796875,6.484375,-20.25,328
267,1696258337610,0.20800781,-0.861145,-0.12310791,-9.71875,4.9375,-16.8125,329
268,1696258337650,0.2734375,-0.7554321,-0.18365479,-4.421875,8.5625,-11.328125,330
269,1696258337690,0.24707031,-0.8777466,-0.07550049,12.828125,11.609375,-12.734375,331
270,1696258337730,0.0,-1.0081177,-0.10772705,19.65625,0.609375,-5.90625,332
271,1696258337770,-0.12915039,-0.8772583,-0.11895752,9.84375,6.671875,-5.6875,333
272,1696258337810,0.0053710938,-0.80718994,-0.10211182,6.4375,23.40625,-9.28125,334
273,1696258337850,0.17993164,-0.72613525,-0.101379395,10.21875,19.453125,-0.078125,335
274,1696258337890,0.16259766,-0.70758057,-0.03302002,5.515625,12.8125,9.96875,336
275,1696258337930,0.10595703,-0.7620239,-0.062805176,10.359375,5.3125,12.125,337
276,1696258337970,0.0107421875,-0.9065552,-0.09503174,9.265625,3.9375,11.171875,338
277,1696258338010,-0.036621094,-0.9331665,-0.039611816,15.140625,8.453125,10.46875,339
278,1696258338050,-0.14550781,-0.99346924,-0.21002197,11.890625,8.1875,10.625,340
279,1696258338090,-0.15356445,-1.3770142,-0.20904541,-3.59375,15.140625,21.78125,341
280,1696258338130,0.36767578,-1.3711548,-0.40533447,4.28125,19.28125,-3.28125,342
281,1696258338170,0.18701172,-1.4778442,-0.28399658,-28.734375,24.75,3.921875,343
282,1696258338210,0.8925781,-1.427063,-0.33233643,-22.484375,-3.390625,-6.90625,344
283,1696258338250,0.36328125,-0.9624634,-0.1272583,-10.5625,-21.25,-8.078125,345
284,1696258338290,0.35058594,-0.7095337,-0.12896729,-18.765625,0.671875,3.140625,346
285,1696258338330,0.13623047,-0.65704346,-0.23345947,-25.234375,-25.90625,3.921875,347
286,1696258338370,0.24121094,-0.90167236,0.010681152,-4.0,-7.234375,1.90625,348
287,1696258338410,0.14501953,-0.8814087,0.0770874,-25.375,5.4375,0.609375,349
288,1696258338450,0.1508789,-0.7234497,0.0026245117,-17.9375,-5.765625,-6.5,350
289,1696258338490,0.16430664,-0.60601807,0.061462402,-0.3125,-8.703125,-1.390625,351
290,1696258338530,0.17260742,-0.7625122,0.10272217,-8.734375,-22.625,8.921875,352
291,1696258338570,0.2614746,-0.8936157,0.12908936,-8.6875,-20.34375,12.0,353
292,1696258338610,0.17529297,-0.87628174,0.13104248,-3.375,-20.640625,5.453125,354
293,1696258338650,0.0637207,-0.7373657,0.16619873,-6.8125,-18.078125,-2.203125,355
294,1696258338690,-0.010009766,-0.7803345,0.15765381,5.359375,-10.140625,0.171875,356
295,1696258338730,0.034179688,-0.80841064,0.086364746,6.96875,-11.8125,4.03125,357
296,1696258338770,0.30004883,-0.9187622,0.25823975,18.59375,-4.171875,9.53125,358
297,1696258338810,0.32495117,-1.2520142,0.30169678,23.234375,-10.078125,13.15625,359
298,1696258338850,0.068359375,-1.3618774,-0.016418457,26.265625,-31.453125,5.34375,360
299,1696258338890,0.19726562,-1.2402954,-0.159729,16.34375,-20.875,0.5625,361
300,1696258338930,0.24047852,-1.2786255,-0.1296997,34.0625,34.890625,7.09375,362
301,1696258338970,0.14794922,-1.2693481,-0.06329346,-12.265625,21.90625,-10.65625,363
302,1696258339010,0.22802734,-0.96954346,-0.1428833,-5.3125,12.90625,-10.015625,364
303,1696258339050,0.38598633,-0.74346924,-0.2341919,-8.109375,15.328125,-11.15625,365
304,1696258339090,0.38842773,-0.93951416,-0.090148926,0.046875,13.734375,-14.953125,366
305,1696258339130,-0.0021972656,-1.0674438,-0.13092041,9.703125,-6.796875,-12.796875,367
306,1696258339170,-0.22338867,-0.9326782,-0.11431885,-1.71875,9.390625,-4.921875,368
307,1696258339210,0.061279297,-0.7671509,-0.09942627,2.78125,22.8125,-4.328125,369
308,1696258339250,0.23510742,-0.6609497,-0.10089111,6.703125,18.890625,-4.375,370
309,1696258339290,0.1953125,-0.5901489,-0.04449463,4.625,5.25,-0.234375,371
310,1696258339330,0.075927734,-0.55670166,-0.0076293945,6.734375,3.4375,7.328125,372
311,1696258339370,-0.057128906,-0.7061157,-0.117492676,7.046875,4.4375,9.8125,373
312,1696258339410,-0.0625,-0.975647,-0.10626221,4.609375,6.75,10.328125,374
313,1696258339450,0.05834961,-1.3538208,-0.1716919,-0.734375,4.890625,18.765625,375
314,1696258339490,0.18530273,-1.6565552,-0.10601807,-0.734375,8.75,13.671875,376
315,1696258339530,0.11645508,-1.3220825,-0.1609497,-28.59375,0.25,5.703125,377
316,1696258339570,0.5917969,-1.3660278,-0.21173096,-20.890625,17.96875,5.078125,378
317,1696258339610,0.37963867,-1.2817993,-0.15997314,-9.890625,-10.375,-16.328125,379
318,1696258339650,0.4506836,-0.89019775,-0.1519165,-1.859375,5.890625,-3.84375,380
319,1696258339690,0.20581055,-0.6790161,-0.17266846,-9.5,-4.984375,-1.203125,381
320,1696258339730,0.19165039,-0.8015747,-0.035949707,-0.640625,4.546875,-4.140625,382
321,1696258339770,0.21777344,-0.8911743,0.0119018555,-9.71875,4.9375,2.578125,383
322,1696258339810,0.22827148,-0.6934204,0.0060424805,-7.34375,-2.3125,-2.140625,384
323,1696258339850,0.17529297,-0.5654907,0.04510498,6.546875,-10.859375,0.46875,385
324,1696258339890,0.11767578,-0.52838135,0.06829834,-0.34375,-27.859375,6.625,386
325,1696258339930,0.043945312,-0.61065674,0.05682373,-10.0625,-18.046875,16.1875,387
326,1696258339970,0.07885742,-0.73028564,0.059753418,-2.125,-4.546875,18.46875,388
327,1696258340010,0.14672852,-0.9155884,0.101989746,6.15625,-6.15625,16.265625,389
328,1696258340050,0.3256836,-1.3821411,0.109802246,10.609375,7.921875,21.15625,390
329,1696258340090,0.42578125,-1.6484985,0.30828857,3.71875,-9.421875,2.40625,391
330,1696258340130,0.14086914,-1.0784302,-0.023010254,8.03125,-16.078125,-21.0625,392
331,1696258340170,0.25878906,-1.0830688,-0.27398682,-20.515625,-1.15625,-11.9375,393
332,1696258340210,0.28686523,-0.94854736,-0.024475098,3.28125,30.15625,-2.90625,394
333,1696258340250,0.060302734,-1.02594,-0.093566895,3.53125,24.84375,-15.921875,395
334,1696258340290,0.25976562,-1.0056763,-0.24542236,-8.8125,13.515625,-10.84375,396
335,1696258340330,0.3864746,-0.9529419,-0.18341064,-4.9375,25.21875,-8.125,397
336,1696258340370,0.3413086,-1.0222778,-0.00030517578,3.734375,5.5625,-9.328125,398
337,1696258340410,0.028076172,-1.0818481,-0.0012817383,11.34375,-8.234375,-12.46875,399
338,1696258340450,-0.07006836,-0.95318604,-0.0791626,15.140625,5.78125,-6.546875,400
339,1696258340490,0.044189453,-0.7095337,-0.06573486,5.09375,9.125,-2.15625,401
340,1696258340530,0.09692383,-0.5449829,-0.053771973,2.890625,12.0625,-0.234375,402
341,1696258340570,0.06982422,-0.60723877,-0.00030517578,11.375,8.90625,-0.53125,403
342,1696258340610,0.0026855469,-0.6765747,-0.0491333,10.03125,17.46875,-1.078125,404
343,1696258340650,-0.047851562,-0.72491455,-0.10333252,3.625,14.875,5.3125,405
344,1696258340690,-0.025634766,-0.8887329,-0.1338501,0.0,14.828125,14.0,406
345,1696258340730,0.09741211,-1.1455688,-0.022766113,0.296875,13.484375,15.90625,407
346,1696258340770,0.14013672,-1.4849243,0.018493652,6.796875,9.015625,13.53125,408
347,1696258340810,-0.055419922,-1.5264282,-0.27130127,-10.796875,0.515625,8.296875,409
348,1696258340850,0.44702148,-1.4463501,-0.4109497,-20.078125,29.359375,26.4375,410
349,1696258340890,0.6184082,-1.4175415,-0.14581299,6.015625,-13.109375,-0.0625,411
350,1696258340930,0.46069336,-1.0852661,-0.12896729,-6.390625,12.4375,-0.34375,412
351,1696258340970,0.2685547,-0.7214966,-0.24346924,-16.15625,3.203125,0.921875,413
352,1696258341010,0.35791016,-0.7305298,-0.12945557,-5.734375,0.375,-1.171875,414
353,1696258341050,0.2529297,-1.0005493,0.050476074,-18.390625,8.0,1.265625,415
354,1696258341090,0.18017578,-0.92852783,-0.066711426,-25.21875,0.421875,0.046875,416
355,1696258341130,0.20947266,-0.7473755,0.050476074,-11.109375,-2.890625,-11.265625,417
356,1696258341170,0.07397461,-0.67926025,0.08709717,-1.796875,3.328125,-6.96875,418
357,1696258341210,0.04638672,-0.6760864,0.012390137,-9.8125,2.65625,1.796875,419
358,1696258341250,0.1328125,-0.61676025,0.0446167,-7.375,6.203125,5.015625,420
359,1696258341290,0.16870117,-0.61383057,0.1593628,-2.9375,-5.515625,2.828125,421
360,1696258341330,0.15527344,-0.7046509,0.2531128,-8.125,-11.09375,5.640625,422
361,1696258341370,0.15795898,-0.7034302,0.15985107,-3.984375,-23.546875,8.375,423
362,1696258341410,0.07446289,-0.66851807,0.06756592,2.203125,-27.921875,4.453125,424
363,1696258341450,0.14233398,-1.0474243,0.17840576,-3.9375,-1.265625,14.53125,425
364,1696258341490,0.19238281,-1.6411743,0.30999756,27.109375,14.28125,22.28125,426
365,1696258341530,-0.13427734,-1.4512329,0.12860107,21.921875,8.3125,-11.625,427
366,1696258341570,0.12768555,-1.3181763,-0.044006348,4.734375,23.6875,2.140625,428
367,1696258341610,0.7175293,-1.159729,0.085632324,31.390625,32.859375,26.984375,429
368,1696258341650,0.35913086,-1.4866333,-0.1404419,-11.546875,-6.09375,-18.734375,430
369,1696258341690,0.21606445,-1.0825806,-0.45465088,-17.140625,-6.328125,-11.875,431
370,1696258341730,0.22631836,-0.66729736,-0.37286377,-21.515625,20.265625,-11.28125,432
371,1696258341770,0.2163086,-0.7510376,-0.2732544,-5.453125,27.421875,-17.671875,433
372,1696258341810,-0.00024414062,-1.1223755,-0.13653564,-17.15625,37.015625,-12.65625,434
373,1696258341850,0.055908203,-1.1140747,0.01361084,-12.015625,33.765625,-15.40625,435
374,1696258341890,0.21777344,-0.8062134,0.007019043,-17.4375,18.03125,-20.875,436
375,1696258341930,0.22363281,-0.52667236,-0.06890869,-9.6875,4.453125,-15.34375,437
376,1696258341970,0.016113281,-0.48443604,-0.13189697,-0.421875,0.46875,1.6875,438
377,1696258342010,-0.03125,-0.66900635,-0.066467285,4.671875,14.0,10.75,439
378,1696258342050,-0.023925781,-0.7686157,0.02532959,-1.546875,39.984375,7.84375,440
379,1696258342090,-0.10205078,-0.7761841,-0.028137207,-0.1875,37.515625,3.828125,441
380,1696258342130,-0.087402344,-0.7617798,-0.08746338,5.78125,26.328125,2.734375,442
381,1696258342170,-0.017333984,-0.9380493,-0.03643799,3.265625,30.6875,12.703125,443
382,1696258342210,0.029785156,-1.4985962,-0.026672363,14.25,35.015625,23.859375,444
383,1696258342250,0.08203125,-1.5828247,-0.2498169,-1.0,28.28125,11.53125,445
384,1696258342290,0.21606445,-1.4700317,-0.31695557,-14.421875,32.359375,23.890625,446
385,1696258342330,0.6044922,-1.472229,-0.22979736,-9.078125,2.734375,-2.1875,447
386,1696258342370,0.4567871,-1.0061646,-0.300354,-0.125,25.9375,-9.515625,448
387,1696258342410,0.29833984,-0.630188,-0.21343994,-6.90625,24.890625,-2.03125,449
388,1696258342450,0.19433594,-0.64923096,-0.30792236,-17.484375,17.953125,0.421875,450
389,1696258342490,0.3310547,-1.0032349,-0.1416626,-13.921875,32.671875,5.25,451
390,1696258342530,0.38745117,-1.0967407,-0.0869751,-15.953125,34.875,6.1875,452
391,1696258342570,0.3881836,-0.82647705,0.027770996,-10.546875,18.3125,-11.171875,453
392,1696258342610,0.2631836,-0.630188,-0.0037231445,6.25,5.0625,-6.3125,454
393,1696258342650,0.08520508,-0.6885376,-0.049621582,-7.796875,8.40625,8.8125,455
394,1696258342690,0.09472656,-0.8088989,-0.020812988,-3.015625,17.859375,9.71875,456
395,1696258342730,0.056396484,-0.82232666,0.08416748,-3.34375,18.0,4.1875,457
396,1696258342770,0.12036133,-0.70318604,0.06488037,-2.234375,7.421875,0.65625,458
397,1696258342810,0.13500977,-0.7415161,0.09173584,-12.609375,-12.5,-0.984375,459
398,1696258342850,0.08081055,-0.9846802,0.13494873,-14.296875,-4.578125,13.84375,460
399,1696258342890,0.026611328,-1.3621216,0.020446777,-7.828125,6.53125,16.484375,461
400,1696258342930,0.033203125,-1.5759888,-0.21832275,-3.546875,15.515625,-4.296875,462
401,1696258342970,0.94189453,-1.2341919,-0.333313,24.5625,44.21875,3.1875,463
402,1696258343010,-0.0026855469,-0.99713135,-0.11138916,-14.296875,50.40625,-17.234375,464
403,1696258343050,0.068603516,-0.9060669,-0.22930908,-4.6875,20.796875,-13.4375,465
404,1696258343090,0.23657227,-0.87335205,-0.34259033,-5.59375,30.34375,-4.765625,466
405,1696258343130,0.43676758,-0.97003174,-0.026672363,-30.78125,28.78125,-1.96875,467
406,1696258343170,0.3178711,-1.1218872,0.013366699,-4.578125,-4.96875,-10.203125,468
407,1696258343210,0.0043945312,-0.85113525,-0.0068969727,-8.703125,-8.65625,-8.5625,469
408,1696258343250,-0.15600586,-0.71759033,-0.07745361,-8.484375,21.25,-5.796875,470
409,1696258343290,-0.021484375,-0.6826782,-0.050354004,6.328125,29.59375,-0.59375,471
410,1696258343330,0.13598633,-0.65167236,-0.0025024414,-0.828125,21.953125,4.203125,472
411,1696258343370,0.123535156,-0.66363525,0.039001465,7.375,14.875,3.828125,473
412,1696258343410,0.032958984,-0.7554321,-0.008850098,8.21875,12.390625,9.390625,474
413,1696258343450,-0.03491211,-0.8699341,-0.011047363,4.796875,17.296875,13.875,475
414,1696258343490,-0.044189453,-1.3325806,-0.03717041,6.390625,7.4375,18.71875,476
415,1696258343530,0.19067383,-1.7896118,0.14251709,-0.703125,5.59375,21.71875,477
416,1696258343570,0.2746582,-1.2476196,-0.32208252,-7.875,-10.328125,9.515625,478
417,1696258343610,0.28295898,-1.6797485,-0.21612549,-16.21875,23.828125,12.859375,479
418,1696258343650,0.6088867,-1.1997681,-0.038146973,-3.328125,-14.484375,-6.625,480
419,1696258343690,0.50390625,-0.73101807,-0.09649658,-6.28125,6.171875,-8.609375,481
420,1696258343730,0.28173828,-0.53253174,-0.05255127,-18.390625,11.890625,2.375,482
421,1696258343770,0.21484375,-0.70928955,-0.06036377,-2.609375,8.375,10.734375,483
422,1696258343810,0.09838867,-0.8804321,0.08929443,-22.75,8.015625,13.15625,484
423,1696258343850,0.14868164,-0.91656494,0.07659912,-16.015625,9.359375,-5.453125,485
424,1696258343890,0.14916992,-0.7107544,0.07269287,-2.796875,15.28125,-12.328125,486
425,1696258343930,0.17382812,-0.66973877,0.16497803,-0.5,14.359375,-3.25,487
426,1696258343970,0.14819336,-0.8179321,0.11956787,-5.453125,11.328125,2.609375,488
427,1696258344010,0.19970703,-0.7920532,0.17181396,-1.21875,8.546875,2.390625,489
428,1696258344050,0.11401367,-0.64434814,0.12884521,-1.4375,3.953125,-0.375,490
429,1696258344090,-0.022216797,-0.5276489,0.090026855,1.109375,3.734375,1.578125,491
430,1696258344130,0.009277344,-0.55718994,0.184021,10.09375,11.953125,12.234375,492
431,1696258344170,0.14135742,-0.94659424,0.17645264,16.828125,18.875,24.953125,493
432,1696258344210,0.3779297,-2.0,0.3583374,11.6875,32.75,46.40625,494
433,1696258344250,0.103515625,-1.6187134,0.27313232,7.03125,1.546875,-14.34375,495
434,1696258344290,0.111816406,-1.3779907,-0.28546143,21.265625,18.03125,-24.984375,496
435,1696258344330,0.82714844,-1.3086548,-0.23052979,21.09375,38.65625,10.015625,497
436,1696258344370,0.30444336,-1.4199829,-0.3460083,-4.15625,34.203125,-18.859375,498
437,1696258344410,0.27783203,-0.78692627,-0.27667236,-12.53125,7.75,-29.65625,499
438,1696258344450,0.16625977,-0.66119385,-0.33746338,-31.6875,34.8125,-14.84375,500
439,1696258344490,0.19018555,-0.6878052,-0.25006104,-34.875,24.578125,-18.84375,501
440,1696258344530,0.12451172,-1.0076294,0.0048217773,-17.609375,30.828125,-16.234375,502
441,1696258344570,0.27539062,-1.1602173,-0.054748535,-6.5625,16.53125,-15.609375,503
442,1696258344610,0.18115234,-0.7608032,0.08709717,-7.984375,-0.625,-12.796875,504
443,1696258344650,0.02319336,-0.64141846,-0.049621582,-22.03125,5.515625,-9.6875,505
444,1696258344690,-0.036621094,-0.7439575,-0.005432129,-11.34375,8.859375,-0.765625,506
445,1696258344730,-0.1184082,-0.88897705,0.074645996,-4.21875,3.171875,6.21875,507
446,1696258344770,-0.08129883,-0.77667236,0.16619873,3.0625,7.75,1.078125,508
447,1696258344810,-0.03564453,-0.5877075,0.1618042,11.0625,5.015625,-0.890625,509
448,1696258344850,-0.030029297,-0.5515747,0.015563965,-8.328125,-1.71875,3.71875,510
449,1696258344890,-0.083740234,-0.6487427,0.070495605,-7.453125,7.40625,7.71875,511
450,1696258344930,-0.19702148,-1.053772,0.16766357,8.796875,32.046875,13.515625,512
451,1696258344970,-0.13452148,-1.5410767,0.1828003,19.28125,2.71875,13.5,513
452,1696258345010,0.14331055,-1.3638306,-0.059631348,35.234375,13.4375,19.84375,514
453,1696258345050,0.17333984,-1.2146606,-0.18585205,-2.234375,9.15625,35.765625,515
454,1696258345090,0.5097656,-1.9653931,0.13885498,21.015625,-0.3125,19.34375,516
455,1696258345130,0.27441406,-1.2041626,-0.3977661,15.875,-0.515625,-5.28125,517
456,1696258345170,0.6015625,-0.79644775,-0.4578247,-1.359375,20.0625,-7.671875,518
457,1696258345210,0.6611328,-0.7949829,-0.13360596,-3.375,24.46875,1.109375,519
458,1696258345250,0.57006836,-1.0593872,-0.11553955,-14.734375,2.8125,-0.484375,520
459,1696258345290,0.30126953,-1.0559692,-0.19683838,-20.9375,-1.421875,-8.890625,521
460,1696258345330,0.115234375,-0.82354736,-0.13873291,-12.125,17.09375,-11.140625,522
461,1696258345370,0.17260742,-0.64849854,-0.042541504,-9.609375,13.71875,-12.0,523
462,1696258345410,0.20532227,-0.6055298,-0.020324707,-5.78125,16.9375,-3.53125,524
463,1696258345450,0.18823242,-0.75006104,-0.046936035,-1.890625,11.484375,-1.0,541
464,1696258345490,0.1809082,-0.72442627,-0.03741455,-7.40625,15.234375,1.109375,542
465,1696258345530,0.09008789,-0.7930298,-0.047668457,-2.578125,13.859375,5.40625,543
466,1696258345570,-0.03515625,-0.85723877,-0.022033691,8.734375,8.5,8.75,544
467,1696258345610,-0.021972656,-0.93096924,-0.037902832,7.875,2.796875,11.875,545
468,1696258345650,0.079833984,-1.1524048,-0.038146973,-4.3125,6.859375,15.59375,546
469,1696258345690,0.1508789,-1.5161743,-0.0005493164,1.609375,8.328125,11.9375,547
470,1696258345730,0.087402344,-1.5132446,-0.27545166,12.265625,7.625,11.90625,548
471,1696258345770,0.66259766,-1.5332642,-0.31524658,18.78125,22.59375,28.5,549
472,1696258345810,0.70166016,-0.94903564,-0.11578369,10.875,-21.890625,-2.03125,550
473,1696258345850,0.2944336,-0.6758423,-0.23931885,-3.890625,1.1875,0.703125,551
474,1696258345890,0.0026855469,-0.63897705,-0.2276001,-16.875,-9.875,6.640625,552
475,1696258345930,0.19726562,-0.7937622,-0.26715088,-0.859375,-2.484375,7.203125,553
476,1696258345970,0.3383789,-0.87335205,0.028747559,-14.59375,11.84375,3.328125,554
477,1696258346010,0.3413086,-0.8130493,0.06439209,-13.84375,2.09375,-4.796875,555
478,1696258346050,0.30371094,-0.8049927,-0.059143066,-8.484375,-12.03125,-2.1875,556
479,1696258346090,0.22753906,-0.6536255,-0.0044555664,-6.609375,-14.609375,0.828125,557
480,1696258346130,0.14819336,-0.67852783,0.030700684,-6.5,-6.921875,4.671875,558
481,1696258346170,0.14892578,-0.7749634,0.02923584,-1.953125,-6.28125,5.796875,559
482,1696258346210,0.18457031,-0.8789673,0.059020996,-1.390625,-8.0625,5.6875,560
483,1696258346250,0.19580078,-0.9209595,0.06585693,1.65625,-9.3125,1.734375,561
484,1696258346290,0.20825195,-0.9065552,0.20159912,3.15625,-11.640625,-1.640625,562
485,1696258346330,0.11694336,-0.940979,-0.03643799,7.046875,-8.0,1.78125,563
486,1696258346370,-0.053955078,-1.1328735,-0.15924072,5.828125,6.671875,-4.296875,564
487,1696258346410,0.37451172,-1.2097778,0.01751709,9.859375,30.984375,0.359375,565
488,1696258346450,0.64331055,-1.531311,-0.12896729,31.578125,32.46875,7.5,566
489,1696258346490,0.5241699,-1.4309692,-0.0032348633,-15.78125,13.546875,-21.3125,567
490,1696258346530,0.29638672,-0.91485596,-0.22418213,18.09375,-4.828125,-22.921875,568
491,1696258346570,0.23364258,-0.7703247,-0.28253174,8.71875,17.25,-12.203125,569
492,1696258346610,0.08691406,-0.8213501,-0.21026611,3.265625,24.640625,-4.203125,570
493,1696258346650,0.13720703,-1.0603638,-0.18829346,11.28125,17.84375,-8.40625,571
494,1696258346690,0.10595703,-1.0127563,-0.105773926,7.515625,18.84375,-13.171875,572
495,1696258346730,0.21484375,-0.9055786,-0.043762207,-1.3125,13.15625,-18.46875,573
496,1696258346770,0.17553711,-0.67974854,-0.046447754,-5.875,4.125,-10.59375,574
497,1696258346810,-0.001953125,-0.5864868,-0.074035645,-15.90625,-11.078125,2.3125,575
498,1696258346850,-0.13208008,-0.5930786,-0.12921143,-19.28125,-2.8125,3.203125,576
499,1696258346890,-0.123291016,-0.6502075,-0.11920166,-5.515625,25.28125,4.21875,577
500,1696258346930,-0.025634766,-0.84552,-0.08135986,10.109375,24.390625,5.546875,578
501,1696258346970,0.07421875,-1.0689087,-0.08917236,-4.703125,7.875,9.015625,579
502,1696258347010,0.13452148,-1.159729,0.0040893555,-19.3125,2.28125,16.078125,580
503,1696258347050,0.03930664,-1.2720337,0.031677246,-12.78125,20.90625,19.015625,581
504,1696258347090,-0.18530273,-1.4158325,0.0060424805,-30.609375,6.96875,7.40625,582
505,1696258347130,0.15185547,-1.4995728,-0.15264893,-5.5,11.734375,6.671875,583
506,1696258347170,0.6315918,-1.2678833,0.07684326,17.625,-4.46875,-0.375,584
507,1696258347210,0.7097168,-1.0413208,-0.09625244,-19.640625,-28.4375,4.015625,585
508,1696258347250,0.34399414,-0.9998169,-0.32403564,-3.15625,-25.359375,-1.75,586
509,1696258347290,0.24853516,-0.7905884,-0.13653564,-8.5,-11.859375,1.3125,587
510,1696258347330,0.3466797,-0.81451416,0.07659912,-7.421875,3.328125,3.953125,588
511,1696258347370,0.27929688,-0.8670044,0.010925293,-14.84375,-9.03125,5.40625,589
512,1696258347410,0.17700195,-0.7529907,0.06756592,-16.5,-11.265625,-1.984375,590
513,1696258347450,0.15063477,-0.600647,0.08465576,2.5625,-20.65625,-2.875,591
514,1696258347490,0.20751953,-0.5894165,0.050231934,10.859375,-21.234375,4.65625,592
515,1696258347530,0.2043457,-0.61846924,0.035095215,11.46875,-19.578125,9.828125,593
516,1696258347570,0.13183594,-0.7805786,0.03704834,18.15625,-18.609375,14.921875,594
517,1696258347610,0.19458008,-0.90802,0.113220215,14.109375,-14.40625,13.859375,595
518,1696258347650,0.18969727,-1.0025024,0.054626465,13.4375,-16.59375,12.40625,596
519,1696258347690,0.29467773,-1.1934204,0.070495605,23.625,-6.296875,14.609375,597
520,1696258347730,0.24584961,-1.3115845,0.0758667,20.59375,-1.75,-1.15625,598
521,1696258347770,0.14355469,-1.2532349,-0.007873535,7.140625,1.453125,-20.28125,599
522,1696258347810,0.5275879,-1.1912231,-0.1531372,-1.140625,8.890625,6.96875,600
523,1696258347850,0.19897461,-1.2666626,-0.22467041,4.609375,23.21875,-18.734375,601
524,1696258347890,0.28466797,-1.086731,-0.06011963,-6.3125,12.359375,-25.984375,602
525,1696258347930,0.24047852,-0.7732544,-0.3040161,-2.609375,17.65625,-18.890625,603
526,1696258347970,0.27783203,-0.7671509,-0.22198486,-4.65625,21.5,-12.765625,604
527,1696258348010,0.17700195,-0.975647,-0.13775635,5.921875,13.46875,-11.0,605
528,1696258348050,0.021484375,-1.0213013,-0.035217285,0.171875,12.1875,-13.0,606
529,1696258348090,0.033447266,-0.80474854,-0.09161377,3.015625,17.078125,-12.5625,607
530,1696258348130,0.068847656,-0.70269775,-0.089416504,5.4375,18.734375,-6.78125,608
531,1696258348170,0.05859375,-0.68414307,-0.07989502,6.65625,12.03125,-3.828125,609
532,1696258348210,-0.040771484,-0.7234497,-0.062805176,-0.53125,8.8125,0.578125,610
533,1696258348250,-0.13598633,-0.7666626,-0.12335205,1.265625,17.484375,4.109375,611
534,1696258348290,-0.068115234,-0.7888794,-0.14019775,5.3125,22.5625,8.296875,612
535,1696258348330,-0.064208984,-0.86187744,-0.11871338,6.5,15.484375,18.1875,613
536,1696258348370,0.095458984,-0.9710083,-0.08795166,4.90625,15.1875,25.328125,614
537,1696258348410,-0.022460938,-1.1572876,-0.07598877,-4.1875,0.25,25.328125,615
538,1696258348450,-0.22851562,-1.4326782,-0.20025635,-11.171875,12.53125,22.859375,616
539,1696258348490,-0.008300781,-1.7705688,-0.21148682,-24.453125,36.703125,14.25,617
540,1696258348530,0.5578613,-1.2454224,-0.18682861,-11.171875,24.828125,1.375,618
541,1696258348570,0.72875977,-0.9963989,-0.23272705,1.359375,-12.515625,3.59375,619
542,1696258348610,0.31323242,-1.1777954,-0.32891846,-16.328125,12.421875,11.953125,620
543,1696258348650,0.22021484,-0.77960205,-0.22784424,-25.03125,15.1875,5.265625,621
544,1696258348690,0.2409668,-0.68218994,-0.10650635,-14.8125,11.671875,-4.515625,622
545,1696258348730,0.5175781,-0.81256104,-0.03741455,-13.625,-6.75,-4.203125,623
546,1696258348770,0.46606445,-0.8010864,0.034851074,-17.9375,-15.078125,6.28125,624
547,1696258348810,0.27978516,-0.77667236,0.12835693,-18.703125,-12.34375,11.53125,625
548,1696258348850,0.16625977,-0.770813,0.0993042,-11.421875,-20.140625,4.890625,626
549,1696258348890,0.079589844,-0.7666626,0.06414795,-8.625,-13.25,-0.75,627
550,1696258348930,0.076171875,-0.7546997,0.08050537,-2.15625,-3.90625,-0.890625,628
551,1696258348970,0.12231445,-0.7217407,0.1281128,6.734375,6.234375,-0.71875,629
552,1696258349010,0.17504883,-0.8118286,0.14178467,2.140625,9.328125,4.484375,630
553,1696258349050,0.14086914,-0.8130493,0.18450928,8.390625,9.890625,9.90625,631
554,1696258349090,0.083984375,-0.986145,0.07366943,7.9375,-21.3125,9.53125,632
555,1696258349130,0.2368164,-1.1482544,0.15911865,20.65625,-20.21875,0.375,633
556,1696258349170,0.19335938,-1.1421509,-0.049621582,27.765625,-12.296875,-11.609375,634
557,1696258349210,0.41674805,-1.1367798,0.105163574,16.828125,6.828125,-8.84375,635
558,1696258349250,0.50146484,-1.2009888,-0.030090332,20.109375,0.421875,7.21875,636
559,1696258349290,0.18969727,-1.4605103,-0.109191895,1.984375,9.609375,2.28125,637
560,1696258349330,0.3203125,-1.3123169,-0.028625488,6.71875,-1.390625,-13.734375,638
561,1696258349370,0.33129883,-0.8753052,-0.13287354,-0.484375,7.203125,-21.8125,639
562,1696258349410,0.18237305,-0.69122314,-0.22906494,-20.734375,2.78125,-24.515625,640
563,1696258349450,-0.022216797,-0.83599854,-0.22808838,-0.125,5.984375,-23.28125,641
564,1696258349490,-0.08203125,-0.8389282,-0.031799316,4.25,9.1875,-8.859375,642
565,1696258349530,0.2055664,-0.8809204,-0.06915283,-5.9375,18.109375,-8.09375,643
566,1696258349570,0.44262695,-0.9175415,0.11102295,-10.90625,-10.953125,-15.5625,644
567,1696258349610,0.12109375,-0.67144775,-0.058166504,-2.078125,-27.84375,-6.640625,645
568,1696258349650,-0.09033203,-0.6362915,-0.097961426,3.046875,-12.59375,9.3125,646
569,1696258349690,-0.14355469,-0.612854,-0.14337158,7.625,0.484375,4.9375,647
570,1696258349730,-0.1381836,-0.51348877,-0.073791504,15.15625,6.09375,3.78125,648
571,1696258349770,-0.09106445,-0.6069946,-0.0010375977,20.640625,22.953125,13.609375,649
572,1696258349810,-0.14379883,-0.89434814,0.06414795,19.484375,17.390625,25.9375,650
573,1696258349850,-0.10595703,-1.3811646,-0.121154785,15.140625,-3.453125,26.59375,651
574,1696258349890,-0.06933594,-1.6641235,-0.050354004,13.921875,12.515625,28.859375,652
575,1696258349930,0.09008789,-1.6419067,-0.2197876,12.421875,8.34375,20.671875,653
576,1696258349970,0.3017578,-1.4534302,-0.38311768,-20.046875,4.421875,34.03125,654
577,1696258350010,0.9975586,-1.5130005,-0.5667114,-1.828125,3.375,28.765625,655
578,1696258350050,0.66845703,-0.77667236,-0.054504395,-2.90625,-3.328125,17.8125,656
579,1696258350090,0.3779297,-0.5918579,-0.34259033,-30.625,-25.859375,20.625,657
580,1696258350130,0.08618164,-0.6565552,-0.31695557,-12.46875,19.484375,12.359375,658
581,1696258350170,0.08886719,-0.9890747,-0.26324463,-10.078125,45.171875,-4.640625,659
582,1696258350210,0.27172852,-0.88604736,-0.109191895,-49.09375,29.140625,-6.796875,660
583,1696258350250,0.5385742,-0.72369385,-0.16290283,-44.53125,30.15625,-4.421875,661
584,1696258350290,0.51464844,-0.772522,0.02947998,-33.046875,20.90625,-8.6875,662
585,1696258350330,0.32250977,-0.95391846,0.059753418,-32.6875,12.890625,-17.515625,663
586,1696258350370,0.13378906,-0.90802,0.008728027,-32.453125,27.46875,-18.671875,664
587,1696258350410,0.07128906,-0.87750244,0.073913574,-31.578125,27.96875,-13.953125,665
588,1696258350450,0.17236328,-0.62091064,0.08123779,-16.34375,13.34375,-14.90625,666
589,1696258350490,0.36621094,-0.5449829,0.20452881,-10.46875,10.0,-7.390625,667
590,1696258350530,0.1706543,-0.57696533,0.19818115,-6.1875,11.65625,1.34375,668
591,1696258350570,-0.09667969,-0.8101196,0.059020996,6.140625,-9.359375,10.5625,669
592,1696258350610,-0.07128906,-0.8040161,0.15252686,10.046875,16.90625,5.046875,670
593,1696258350650,0.0014648438,-0.80841064,0.11395264,23.765625,36.0625,-1.890625,671
594,1696258350690,0.12060547,-0.9365845,0.17669678,14.5625,35.734375,-0.4375,672
595,1696258350730,0.2541504,-1.0498657,0.14593506,19.03125,24.65625,0.421875,673
596,1696258350770,0.6020508,-1.5112915,-0.0413208,5.046875,6.8125,19.28125,674
597,1696258350810,0.52685547,-1.4363403,-0.12554932,41.578125,20.046875,35.890625,675
598,1696258350850,0.044677734,-1.5264282,-0.16241455,-28.703125,32.09375,-7.96875,676
599,1696258350890,0.088378906,-1.1350708,-0.6921997,43.390625,9.359375,-23.328125,677
600,1696258350930,0.5656738,-0.7337036,-0.46051025,31.34375,43.6875,7.6875,678
601,1696258350970,0.8076172,-0.7334595,-0.46246338,-7.21875,28.6875,-0.828125,679
602,1696258351010,0.27661133,-0.99053955,-0.30499268,-2.03125,13.390625,-5.390625,680
603,1696258351050,-0.010009766,-1.1209106,-0.34405518,-0.828125,27.375,0.359375,681
604,1696258351090,-0.025390625,-0.89019775,-0.3057251,-3.703125,22.765625,-17.34375,682
605,1696258351130,0.21728516,-0.6814575,-0.22955322,-7.578125,22.109375,-11.953125,683
606,1696258351170,0.23901367,-0.55303955,-0.26934814,-20.390625,19.046875,-3.296875,684
607,1696258351210,0.12768555,-0.65460205,-0.2510376,-10.484375,12.5,4.671875,685
608,1696258351250,0.091796875,-0.7630005,-0.19244385,-8.4375,7.421875,7.890625,686
609,1696258351290,0.0871582,-0.79156494,-0.10089111,-4.890625,1.28125,0.359375,687
610,1696258351330,0.00024414062,-0.7925415,-0.15655518,-5.828125,-1.453125,-2.53125,688
611,1696258351370,-0.009765625,-0.8208618,-0.12945557,-6.890625,9.0,6.0,689
612,1696258351410,0.06542969,-0.97857666,-0.13775635,-3.265625,18.953125,18.8125,690
613,1696258351450,0.03100586,-1.265686,-0.18585205,-10.953125,6.046875,18.28125,691
614,1696258351490,-0.14208984,-1.5984497,-0.29449463,-25.734375,5.625,10.546875,692
615,1696258351530,0.38012695,-1.4170532,-0.2053833,-28.1875,29.03125,5.75,693
616,1696258351570,0.38110352,-0.9085083,-0.16168213,-50.5,-17.796875,-6.5625,694
617,1696258351610,0.32250977,-0.87091064,-0.23736572,-27.59375,-2.171875,0.28125,695
618,1696258351650,0.40966797,-1.0274048,-0.11114502,-11.109375,27.375,13.953125,696
619,1696258351690,0.31103516,-0.9812622,-0.031066895,-24.140625,18.65625,4.296875,697
620,1696258351730,0.27685547,-0.74786377,0.030700684,-32.28125,6.359375,-3.984375,698
621,1696258351770,0.23754883,-0.85772705,-0.010070801,-13.125,10.734375,-3.875,699
622,1696258351810,0.21459961,-0.92266846,-0.00079345703,-14.421875,17.90625,-2.71875,700
623,1696258351850,0.16894531,-0.7859497,0.13372803,-8.40625,13.34375,1.28125,701
624,1696258351890,0.1550293,-0.76885986,0.14056396,-0.59375,17.453125,5.4375,702
625,1696258351930,0.19799805,-0.7090454,0.12689209,-2.859375,14.90625,4.203125,703
626,1696258351970,0.17993164,-0.67144775,0.113464355,-1.53125,10.0625,6.296875,704
627,1696258352010,0.17651367,-0.63360596,0.12249756,-1.0625,4.359375,9.09375,705
628,1696258352050,0.12719727,-0.6983032,0.12957764,3.859375,9.796875,8.140625,706
629,1696258352090,0.09814453,-0.91485596,0.035827637,15.125,9.578125,11.4375,707
630,1696258352130,0.27929688,-1.2114868,0.16522217,16.03125,13.34375,15.765625,708
631,1696258352170,0.35131836,-1.2407837,-0.032043457,37.125,14.640625,-0.84375,709
632,1696258352210,0.62768555,-1.3218384,-0.1482544,4.0,3.734375,-7.359375,710
633,1696258352250,0.48291016,-1.1829224,-0.0015258789,38.6875,15.78125,0.890625,711
634,1696258352290,0.10522461,-1.5310669,-0.13970947,-3.90625,12.6875,-21.828125,712
635,1696258352330,0.23925781,-0.9187622,-0.24224854,6.453125,3.734375,-17.53125,713
636,1696258352370,0.39453125,-0.72784424,-0.2197876,-1.875,27.640625,-11.078125,714
637,1696258352410,0.36279297,-0.8911743,-0.11798096,-8.171875,13.984375,-22.640625,715
638,1696258352450,0.01928711,-0.97662354,-0.08087158,3.625,-10.421875,-14.453125,716
639,1696258352490,-0.043701172,-0.86309814,-0.085998535,1.390625,9.6875,-7.609375,717
640,1696258352530,0.084228516,-0.788147,-0.085510254,5.453125,29.796875,-14.859375,718
641,1696258352570,0.13452148,-0.64923096,-0.05303955,8.390625,17.75,-17.078125,719
642,1696258352610,0.013183594,-0.6084595,0.0006713867,-8.78125,4.796875,-8.15625,720
643,1696258352650,-0.091796875,-0.61505127,-0.0029907227,-5.140625,5.765625,0.25,721
644,1696258352690,-0.12207031,-0.741272,-0.16217041,-0.453125,5.5625,4.203125,722
645,1696258352730,0.049560547,-0.8101196,-0.07696533,6.578125,7.84375,9.53125,723
646,1696258352770,0.0715332,-0.831604,0.050476074,10.09375,3.0625,16.328125,724
647,1696258352810,-0.14135742,-0.89801025,0.016540527,9.265625,1.09375,23.046875,725
648,1696258352850,-0.48291016,-1.3604126,-0.29718018,14.96875,-1.859375,29.984375,726
649,1696258352890,0.09863281,-1.7307739,-0.2144165,19.0,24.375,38.03125,727
650,1696258352930,0.16552734,-1.4758911,-0.12164307,-22.65625,17.59375,20.09375,728
651,1696258352970,0.8000488,-1.3408813,-0.6296997,-15.171875,-11.890625,27.109375,729
652,1696258353010,0.82714844,-1.1983032,0.06512451,-6.0625,-38.640625,29.84375,730
653,1696258353050,0.5559082,-1.2869263,-0.33428955,-4.296875,-1.25,11.359375,731
654,1696258353090,0.24389648,-0.7461548,-0.315979,-8.34375,26.09375,9.796875,732
655,1696258353130,0.31860352,-0.58795166,-0.17144775,-18.984375,43.65625,-4.46875,733
656,1696258353170,0.33520508,-0.55596924,-0.085510254,-27.703125,21.4375,-18.046875,734
657,1696258353210,0.92944336,-1.3955688,0.026794434,-27.265625,-6.203125,-10.265625,766
658,1696258353250,0.5695801,-0.88848877,-0.144104,-24.375,5.40625,-6.578125,767
659,1696258353290,0.3244629,-0.6453247,-0.16339111,-27.6875,-2.421875,2.8125,768
660,1696258353330,0.20117188,-0.7197876,-0.20269775,-4.828125,-19.75,0.5625,769
661,1696258353370,0.17700195,-0.92388916,0.09954834,-14.078125,10.390625,6.921875,770
662,1696258353410,0.20825195,-0.8167114,0.078308105,-21.203125,9.9375,1.59375,771
663,1696258353450,0.25097656,-0.6008911,0.026550293,-2.625,1.4375,-9.328125,772
664,1696258353490,0.16186523,-0.46343994,0.07342529,0.953125,-6.609375,-2.4375,773
665,1696258353530,0.14746094,-0.62750244,0.093933105,-1.0,-8.6875,11.421875,774
666,1696258353570,0.1953125,-0.72979736,0.08905029,11.1875,-14.109375,13.25,775
667,1696258353610,0.2331543,-0.8621216,0.094177246,19.640625,-14.765625,10.25,776
668,1696258353650,0.21386719,-0.99005127,0.20916748,3.734375,-12.453125,7.765625,777
669,1696258353690,0.17285156,-1.0982056,0.17889404,8.078125,-11.1875,9.03125,778
670,1696258353730,0.2241211,-1.1333618,0.14520264,15.328125,-4.96875,-2.6875,779
671,1696258353770,0.04248047,-1.0957642,0.0021362305,17.78125,-3.390625,-14.90625,780
672,1696258353810,0.12060547,-1.2896118,-0.014465332,6.90625,6.125,-6.84375,781
673,1696258353850,0.6069336,-1.3755493,-0.1375122,19.296875,19.75,9.640625,782
674,1696258353890,0.34887695,-1.279602,-0.10430908,4.09375,4.203125,-18.265625,783
675,1696258353930,0.2487793,-1.0025024,-0.10406494,-3.078125,-5.21875,-18.546875,784
676,1696258353970,0.28857422,-0.76885986,-0.16900635,3.15625,5.359375,-14.5625,785
677,1696258354010,0.1875,-0.82525635,-0.18878174,11.53125,13.984375,-12.578125,786
678,1696258354050,0.016601562,-0.9714966,-0.07281494,5.03125,16.578125,0.671875,787
679,1696258354090,0.0068359375,-0.9221802,-0.08843994,5.546875,11.671875,-4.84375,788
680,1696258354130,0.099853516,-0.7835083,-0.085510254,10.890625,24.71875,-1.953125,789
681,1696258354170,0.111572266,-0.6243286,-0.093811035,10.734375,19.625,0.84375,790
682,1696258354210,0.0871582,-0.7234497,-0.04156494,8.96875,12.21875,6.125,791
683,1696258354250,0.0769043,-0.7468872,-0.10748291,6.421875,5.015625,6.671875,792
684,1696258354290,0.028808594,-0.72540283,-0.07940674,13.40625,9.40625,6.25,793
685,1696258354330,-0.04663086,-0.8496704,-0.16314697,13.0,14.09375,10.46875,794
686,1696258354370,0.036621094,-1.0762329,-0.19854736,2.53125,6.34375,16.65625,795
687,1696258354410,0.2548828,-1.3462524,-0.06768799,2.171875,6.21875,18.484375,796
688,1696258354450,0.19042969,-1.4922485,-0.2859497,-5.015625,-2.78125,2.359375,797
689,1696258354490,0.091552734,-1.4024048,-0.3821411,-36.109375,5.59375,18.578125,798
690,1696258354530,0.6723633,-1.4797974,-0.22930908,-16.046875,-19.859375,-9.453125,799
691,1696258354570,0.52490234,-0.9841919,-0.0029907227,-4.203125,-16.796875,-22.71875,800
692,1696258354610,0.39892578,-0.7415161,-0.25152588,-32.875,-11.4375,-6.890625,801
693,1696258354650,0.17358398,-0.6499634,-0.17926025,-29.765625,-21.90625,-2.265625,802
694,1696258354690,0.22753906,-0.9495239,0.003112793,-12.28125,-14.125,3.984375,803
695,1696258354730,0.15771484,-0.9885864,0.12298584,-24.125,-4.359375,3.3125,804
696,1696258354770,0.19213867,-0.6721802,0.06585693,-18.28125,-10.328125,-6.5,805
697,1696258354810,0.078125,-0.5442505,0.051696777,-4.734375,-17.765625,-2.21875,806
698,1696258354850,0.08496094,-0.5652466,0.10321045,-4.75,-12.578125,7.390625,807
699,1696258354890,0.08959961,-0.6831665,0.12567139,5.0625,-2.203125,12.25,808
700,1696258354930,0.12475586,-0.83966064,0.13372803,6.609375,-0.328125,12.140625,809
701,1696258354970,0.12548828,-0.92266846,0.18255615,5.796875,-0.328125,7.421875,810
702,1696258355010,0.13842773,-1.0247192,0.19744873,5.375,-4.859375,6.984375,811
703,1696258355050,0.1328125,-1.1018677,0.14715576,13.140625,-2.984375,6.53125,812
704,1696258355090,0.12939453,-1.1438599,0.06732178,20.921875,6.59375,1.53125,813
705,1696258355130,0.10986328,-1.3547974,-0.03717041,14.78125,10.515625,-8.640625,814
706,1696258355170,0.7949219,-1.3086548,-0.14874268,20.765625,20.53125,10.3125,815
707,1696258355210,0.23632812,-1.2876587,-0.062072754,19.5,16.96875,-21.171875,816
708,1696258355250,0.12573242,-1.0613403,-0.14312744,-11.796875,4.28125,-19.703125,817
709,1696258355290,0.23925781,-0.71173096,-0.34454346,6.5,8.5625,-9.6875,818
710,1696258355330,0.36328125,-0.7991333,-0.17559814,14.59375,23.109375,-2.890625,819
711,1696258355370,0.24194336,-1.0855103,-0.0960083,10.265625,3.578125,-3.21875,820
712,1696258355410,0.0087890625,-1.1765747,-0.10626221,2.671875,2.03125,-9.0625,821
713,1696258355450,0.021240234,-0.8970337,-0.11602783,-1.296875,8.640625,-7.09375,822
714,1696258355490,0.15917969,-0.6729126,-0.06573486,1.640625,6.109375,-1.765625,823
715,1696258355530,0.20288086,-0.5750122,-0.026428223,1.765625,-2.765625,4.40625,824
716,1696258355570,0.079833984,-0.58062744,-0.06402588,6.640625,-9.390625,7.0625,825
717,1696258355610,-0.11450195,-0.737854,-0.085510254,6.265625,-0.640625,6.28125,826
718,1696258355650,-0.20678711,-0.86431885,-0.13897705,5.09375,11.359375,2.296875,827
719,1696258355690,-0.015625,-0.90631104,-0.10992432,-4.75,15.765625,7.125,828
720,1696258355730,0.15625,-1.1275024,-0.11187744,-6.171875,17.375,11.65625,829
721,1696258355770,0.23706055,-1.5457153,-0.29278564,5.515625,3.515625,11.8125,830
722,1696258355810,0.13183594,-1.3928833,-0.21343994,-23.875,-7.640625,15.5,831
723,1696258355850,0.7224121,-1.2874146,-0.14361572,-20.34375,-6.171875,19.328125,832
724,1696258355890,0.5175781,-1.1497192,-0.17681885,6.78125,-23.984375,-6.78125,833
725,1696258355930,0.27026367,-0.96295166,-0.17999268,-8.421875,0.5,1.15625,834
726,1696258355970,0.20825195,-0.7842407,-0.24957275,-11.6875,-9.71875,0.125,835
727,1696258356010,0.45947266,-0.864563,-0.13067627,-1.484375,-4.515625,-4.734375,836
728,1696258356050,0.3569336,-0.897522,0.061706543,-11.46875,-5.765625,-1.171875,837
729,1696258356090,0.24780273,-0.7966919,-0.020080566,-13.640625,-13.71875,-2.828125,838
730,1696258356130,0.12719727,-0.67510986,-0.004211426,-2.578125,-20.453125,-4.4375,839
731,1696258356170,0.12011719,-0.647522,0.016540527,-2.046875,-16.421875,0.125,840
732,1696258356210,0.15307617,-0.6643677,0.034362793,-3.6875,-12.5,3.15625,841
733,1696258356250,0.12524414,-0.7180786,0.08514404,1.328125,-11.234375,3.03125,842
734,1696258356290,0.080322266,-0.88775635,0.0680542,7.1875,-6.875,3.53125,843
735,1696258356330,0.115234375,-0.91290283,0.08782959,-1.890625,-11.4375,2.875,844
736,1696258356370,0.22143555,-0.913147,0.1630249,5.1875,-16.109375,6.140625,845
737,1696258356410,0.22631836,-1.0066528,0.15765381,0.453125,-15.34375,9.015625,846
738,1696258356450,0.11328125,-1.1467896,0.057556152,19.625,-4.90625,3.75,847
739,1696258356490,0.19116211,-1.388977,0.027282715,17.390625,-0.546875,-3.828125,848
740,1696258356530,0.55200195,-1.2974243,-0.28912354,17.171875,6.921875,7.203125,849
741,1696258356570,0.18701172,-1.1555786,-0.018371582,-23.890625,22.296875,-6.25,850
742,1696258356610,0.3557129,-1.0564575,-0.13702393,0.234375,17.71875,-10.65625,851
743,1696258356650,0.2854004,-0.8740845,-0.23687744,-7.40625,10.859375,-7.484375,852
744,1696258356690,0.37646484,-0.9661255,-0.03643799,-18.5625,3.625,-11.828125,853
745,1696258356730,0.13500977,-1.0088501,-0.101135254,0.15625,0.203125,-17.390625,854
746,1696258356770,-0.060302734,-0.9741821,-0.046936035,-3.46875,2.96875,-9.203125,855
747,1696258356810,0.016845703,-0.79937744,0.032165527,-1.171875,15.46875,-9.875,856
748,1696258356850,0.14379883,-0.73150635,0.019714355,3.0625,12.453125,-11.09375,857
749,1696258356890,0.08178711,-0.63482666,-0.04888916,-8.171875,5.921875,-5.40625,858
750,1696258356930,0.0021972656,-0.6189575,-0.018859863,0.59375,9.859375,1.671875,859
751,1696258356970,0.00048828125,-0.7732544,-0.05255127,-0.140625,15.1875,7.25,860
752,1696258357010,0.025146484,-0.8308716,-0.0044555664,-5.140625,18.296875,7.609375,861
753,1696258357050,0.0024414062,-1.0286255,0.0099487305,-1.125,12.484375,13.84375,862
754,1696258357090,0.06518555,-1.3030396,0.0692749,-11.625,6.5,18.0625,863
755,1696258357130,0.11767578,-1.3984985,-0.07940674,8.015625,14.796875,6.875,864
756,1696258357170,0.119140625,-1.3508911,0.06976318,-29.46875,15.03125,11.109375,865
757,1696258357210,0.45239258,-1.4849243,-0.17315674,15.84375,-0.984375,6.484375,866
758,1696258357250,0.5900879,-1.1433716,-0.11431885,-1.78125,-11.953125,-3.046875,867
759,1696258357290,0.38061523,-0.98809814,-0.033996582,-6.625,2.203125,-3.953125,868
