,timestamp,accel_x,accel_y,accel_z,gyro_x,gyro_y,gyro_z,ind
0,1696251643576,0.050048828,-0.96588135,0.23187256,-2.84375,0.78125,1.265625,0
1,1696251643616,0.010498047,-0.9866333,0.17474365,-0.34375,-3.84375,2.40625,51
2,1696251643656,0.080078125,-0.9019165,0.15789795,0.890625,0.40625,-1.96875,52
3,1696251643696,0.03515625,-0.94415283,0.15960693,0.984375,-2.53125,-0.3125,53
4,1696251643736,-0.0036621094,-1.0613403,0.21966553,4.078125,-4.921875,4.140625,54
5,1696251643776,0.01953125,-1.0071411,0.18304443,-2.015625,-7.4375,1.875,55
6,1696251643816,0.0043945312,-0.91851807,0.14764404,2.0,-0.078125,2.3125,56
7,1696251643856,0.083984375,-0.9692993,0.15911865,0.34375,-3.796875,0.28125,57
8,1696251643896,0.043701172,-0.99053955,0.16937256,-2.171875,-4.84375,0.453125,58
9,1696251643936,0.033691406,-0.97735596,0.17010498,-2.609375,-4.71875,-1.421875,59
10,1696251643976,0.011962891,-0.9692993,0.18377686,-2.40625,-2.578125,-1.390625,60
11,1696251644016,0.033691406,-0.9458618,0.20819092,-5.390625,-5.875,-1.71875,61
12,1696251644056,-0.0048828125,-0.93463135,0.22113037,6.03125,-2.109375,1.0,62
13,1696251644096,-0.025878906,-1.0005493,0.20135498,14.203125,8.828125,10.703125,63
14,1696251644136,0.10205078,-1.0750122,0.1461792,11.578125,8.265625,7.703125,64
15,1696251644176,0.047607422,-1.0110474,0.12347412,6.9375,-5.1875,4.296875,65
16,1696251644216,0.017822266,-0.94903564,0.05267334,0.84375,-15.46875,0.515625,66
17,1696251644256,0.030517578,-0.91729736,0.0602417,10.359375,-27.0625,-6.765625,67
18,1696251644296,-0.060546875,-1.0481567,0.0033569336,16.765625,-24.109375,-2.515625,68
19,1696251644336,0.06298828,-0.92852783,0.11834717,-11.25,-5.765625,9.578125,69
20,1696251644376,0.08911133,-1.0630493,0.054870605,3.03125,13.015625,4.859375,70
21,1696251644416,-0.09790039,-1.0374146,0.08001709,-3.078125,-0.78125,3.390625,71
22,1696251644456,0.06274414,-0.92559814,0.1281128,2.1875,2.328125,2.90625,72
23,1696251644496,0.15698242,-0.9612427,0.21063232,-6.5625,-2.109375,-1.03125,73
24,1696251644536,0.09692383,-0.92803955,0.08050537,-3.96875,-8.0,-5.21875,74
25,1696251644576,-0.0021972656,-0.92974854,0.12640381,-7.15625,-3.0,-3.328125,75
26,1696251644616,-0.020751953,-1.03302,0.10614014,-5.03125,-5.46875,-4.25,76
27,1696251644656,0.0036621094,-1.0408325,0.11639404,-6.03125,2.5,-1.71875,77
28,1696251644696,0.012939453,-1.0413208,0.13104248,-7.390625,1.828125,-1.8125,78
29,1696251644736,0.041259766,-0.93292236,0.14447021,-5.890625,0.328125,-4.1875,79
30,1696251644776,0.028808594,-0.9758911,0.11126709,-3.453125,0.625,-1.1875,80
31,1696251644816,0.04321289,-1.0093384,0.14593506,-2.65625,-1.703125,0.5625,81
32,1696251644856,0.028076172,-1.0100708,0.14837646,-4.125,1.46875,-0.265625,82
33,1696251644896,-0.007080078,-0.9624634,0.15545654,-1.796875,-0.28125,-1.5,83
34,1696251644936,0.026367188,-0.9570923,0.14324951,-1.984375,-1.359375,0.84375,84
35,1696251644976,0.041015625,-0.9817505,0.16888428,-2.84375,-3.171875,-1.484375,85
36,1696251645016,-0.0012207031,-1.0149536,0.17059326,-1.15625,-4.203125,0.875,86
37,1696251645056,-0.05834961,-0.9343872,0.13543701,-0.4375,0.65625,4.5,87
38,1696251645096,-0.052001953,-1.0110474,0.16009521,-1.421875,2.75,4.953125,88
39,1696251645136,0.044433594,-0.9944458,0.19256592,1.890625,7.0625,2.375,89
40,1696251645176,0.05493164,-0.94781494,0.16790771,-0.375,2.734375,1.96875,90
41,1696251645216,0.0031738281,-0.92559814,0.16107178,0.0625,1.453125,1.9375,91
42,1696251645256,0.0029296875,-1.0244751,0.18743896,2.5,3.4375,2.1875,92
43,1696251645296,0.04638672,-1.0227661,0.18377686,4.6875,4.6875,1.953125,93
44,1696251645336,0.023925781,-0.9644165,0.16229248,0.859375,4.578125,4.296875,94
45,1696251645376,0.03173828,-0.99713135,0.17352295,-2.609375,-1.359375,4.390625,95
46,1696251645416,0.020751953,-0.96295166,0.18182373,0.703125,1.8125,-0.53125,96
47,1696251645456,0.035888672,-0.97735596,0.15106201,-0.875,4.8125,-0.96875,97
48,1696251645496,0.030761719,-0.9602661,0.15570068,-1.84375,8.46875,0.5,98
49,1696251645536,0.076171875,-1.013977,0.19818115,-0.265625,5.859375,-1.265625,99
50,1696251645576,0.052246094,-0.97784424,0.15814209,-1.5,4.03125,-2.96875,100
51,1696251645616,0.06274414,-0.96051025,0.17401123,-3.578125,3.515625,-2.03125,101
52,1696251645656,0.0061035156,-0.98883057,0.18304443,-4.125,5.09375,0.4375,102
53,1696251645696,-0.030029297,-1.0527954,0.16400146,-5.40625,4.90625,0.8125,103
54,1696251645736,0.02709961,-0.97003174,0.17889404,-4.890625,13.84375,-2.375,104
55,1696251645776,0.111816406,-0.91900635,0.2020874,-4.21875,14.53125,-3.65625,105
56,1696251645816,0.13232422,-0.91290283,0.168396,-4.453125,7.59375,-3.28125,106
57,1696251645856,0.08276367,-0.9920044,0.2098999,-4.453125,0.671875,-2.328125,107
58,1696251645896,-0.023925781,-1.0371704,0.21331787,-8.484375,-5.90625,-1.640625,108
59,1696251645936,-0.07763672,-0.89727783,0.15350342,-4.9375,16.984375,2.1875,109
60,1696251645976,0.09399414,-0.8928833,0.24847412,-0.546875,7.359375,4.390625,110
61,1696251646016,0.1315918,-1.0071411,0.21380615,4.546875,11.921875,3.1875,111
62,1696251646056,0.110839844,-1.00177,0.21722412,3.140625,4.390625,0.90625,112
63,1696251646096,0.032714844,-1.00177,0.19720459,9.8125,-2.15625,0.0625,113
64,1696251646136,0.010498047,-1.0088501,0.1605835,5.46875,-2.03125,1.0,114
65,1696251646176,0.037597656,-0.9651489,0.18157959,8.828125,5.984375,0.375,115
66,1696251646216,0.03466797,-1.0484009,0.17596436,7.140625,3.5,0.046875,116
67,1696251646256,0.05908203,-1.0054321,0.13446045,-2.546875,-1.109375,-2.5625,117
68,1696251646296,0.056640625,-0.90802,0.089782715,-7.3125,-7.84375,-3.1875,118
69,1696251646336,0.05859375,-0.8928833,0.07537842,19.015625,-21.25,-3.546875,119
70,1696251646376,0.034179688,-1.1694946,0.055847168,14.265625,-16.3125,2.171875,120
71,1696251646416,0.2553711,-0.7695923,0.15765381,-2.234375,12.171875,9.296875,121
72,1696251646456,0.19311523,-1.1919556,0.1852417,1.40625,-6.234375,-6.359375,122
73,1696251646496,-0.1459961,-0.9024048,0.19012451,-11.515625,-7.375,4.671875,123
74,1696251646536,-0.11254883,-0.84576416,0.07366943,-4.21875,-8.765625,5.109375,124
75,1696251646576,0.14746094,-1.0501099,0.23626709,-1.4375,7.15625,0.734375,125
76,1696251646616,0.0949707,-1.0239868,0.1552124,-4.640625,-1.78125,-0.953125,126
77,1696251646656,0.0021972656,-0.91534424,0.18475342,-3.0625,0.5,-2.828125,127
78,1696251646696,-0.04711914,-0.9524536,0.12249756,-1.84375,6.703125,-2.75,128
79,1696251646736,0.048583984,-1.0237427,0.1281128,-3.75,7.21875,-0.921875,129
80,1696251646776,0.1328125,-1.0227661,0.17694092,-2.65625,7.015625,0.0625,130
81,1696251646816,0.055908203,-0.9651489,0.1942749,-4.234375,-2.8125,-0.25,131
82,1696251646856,0.0087890625,-0.9680786,0.15350342,-1.828125,-3.484375,1.1875,132
83,1696251646896,0.033935547,-0.9800415,0.19720459,-1.796875,-0.265625,-3.046875,133
84,1696251646936,0.068603516,-1.0115356,0.16375732,-3.5625,0.4375,-1.28125,134
85,1696251646976,0.033691406,-0.95440674,0.16888428,-4.875,-2.484375,-1.703125,135
86,1696251647016,0.013183594,-0.9780884,0.1696167,-3.828125,-0.859375,-2.390625,136
87,1696251647056,0.018798828,-0.99468994,0.20135498,-0.984375,1.765625,-4.796875,137
88,1696251647096,0.060058594,-0.99224854,0.18353271,-2.09375,2.015625,-3.03125,138
89,1696251647136,0.042236328,-0.9182739,0.23358154,-0.375,-3.75,-3.234375,139
90,1696251647176,0.03125,-0.97613525,0.19818115,0.421875,-4.34375,-2.359375,140
91,1696251647216,-0.010986328,-1.0081177,0.24432373,1.4375,-5.125,-3.3125,141
92,1696251647256,-0.027832031,-1.0059204,0.2062378,-1.25,-7.328125,-1.421875,142
93,1696251647296,-0.018310547,-0.96173096,0.16619873,-1.9375,-2.015625,-1.578125,143
94,1696251647336,0.022949219,-0.9859009,0.19940186,-2.734375,-2.21875,-1.203125,144
95,1696251647376,-0.00024414062,-0.9517212,0.24359131,-4.296875,-4.203125,0.6875,145
96,1696251647416,-0.01171875,-0.986145,0.20892334,-5.265625,-5.75,2.03125,146
97,1696251647456,0.0107421875,-0.9351196,0.23944092,-1.34375,-1.953125,1.625,147
98,1696251647496,-0.019042969,-0.9685669,0.28167725,-0.734375,-3.75,1.75,148
99,1696251647536,-0.06567383,-0.9871216,0.2345581,-3.296875,-4.546875,2.484375,149
100,1696251647576,-0.020507812,-0.96710205,0.21014404,-2.03125,0.71875,0.109375,150
101,1696251647616,0.024658203,-0.9883423,0.21746826,-0.53125,0.609375,-0.859375,151
102,1696251647656,0.02709961,-0.95318604,0.18157959,-2.3125,0.9375,0.078125,152
103,1696251647696,0.023925781,-0.9534302,0.20501709,-1.140625,0.203125,0.375,153
104,1696251647736,0.036376953,-0.99420166,0.23431396,-0.515625,-0.125,1.890625,154
105,1696251647776,0.024414062,-0.95098877,0.260437,1.421875,-1.265625,1.71875,155
106,1696251647816,-0.049804688,-0.98223877,0.2584839,-0.390625,-2.796875,1.328125,156
107,1696251647856,-0.044921875,-0.9458618,0.24798584,0.875,2.71875,0.984375,157
108,1696251647896,-0.041015625,-0.96417236,0.23675537,1.5,3.28125,2.796875,158
109,1696251647936,0.03955078,-0.98272705,0.22283936,2.203125,7.953125,0.484375,159
110,1696251647976,0.07006836,-0.96466064,0.23065186,2.125,5.625,-0.671875,160
111,1696251648016,0.018798828,-0.97735596,0.23504639,0.390625,0.984375,1.28125,161
112,1696251648056,0.011474609,-0.97198486,0.23162842,1.5625,2.53125,0.625,162
113,1696251648096,0.01977539,-0.96099854,0.23504639,0.953125,2.015625,0.46875,163
114,1696251648136,0.026855469,-0.954895,0.21722412,-0.578125,1.703125,0.734375,164
115,1696251648176,0.0007324219,-0.975647,0.23504639,0.453125,2.03125,-0.28125,165
116,1696251648216,-0.0029296875,-0.9585571,0.26312256,-0.703125,1.734375,-1.3125,166
117,1696251648256,-0.107910156,-0.91973877,0.2579956,-5.234375,10.421875,1.9375,167
118,1696251648296,-0.030273438,-0.9536743,0.20501709,-3.703125,14.890625,5.765625,168
119,1696251648336,0.13647461,-1.0361938,0.23480225,3.421875,17.546875,1.296875,169
120,1696251648376,0.1809082,-1.0147095,0.22576904,2.1875,5.8125,-0.4375,170
121,1696251648416,0.13452148,-0.98394775,0.26654053,10.359375,-5.15625,-2.453125,171
122,1696251648456,0.061279297,-0.9729614,0.21063232,10.390625,-7.265625,-3.625,172
123,1696251648496,-0.011962891,-0.960022,0.14764404,1.71875,-8.328125,-1.703125,173
124,1696251648536,-0.03466797,-0.9343872,0.12225342,10.71875,-17.671875,-3.515625,174
125,1696251648576,-0.013183594,-1.0125122,0.026550293,25.765625,-13.0,-4.15625,175
126,1696251648616,-0.005126953,-0.9397583,0.260437,-14.703125,-14.03125,2.828125,176
127,1696251648656,0.0061035156,-0.93536377,0.2831421,9.046875,8.0625,6.1875,177
128,1696251648696,-0.0847168,-1.0620728,0.081726074,-7.96875,-3.03125,-6.953125,178
129,1696251648736,-0.025390625,-0.93170166,0.19281006,0.078125,7.9375,-2.15625,179
130,1696251648776,0.12573242,-0.9702759,0.18475342,-3.640625,7.53125,-2.046875,180
131,1696251648816,0.05883789,-1.0515747,0.20013428,-6.546875,-2.9375,-1.84375,181
132,1696251648856,0.010009766,-0.9121704,0.1642456,-1.875,-2.53125,-2.5,182
133,1696251648896,-0.0021972656,-0.9331665,0.12567139,-3.921875,-5.390625,-0.4375,183
134,1696251648936,0.041015625,-0.98638916,0.21917725,1.8125,1.34375,-0.234375,184
135,1696251648976,-0.007080078,-1.0359497,0.21722412,-2.21875,-4.03125,1.625,185
136,1696251649016,-0.018066406,-0.9368286,0.19891357,-1.1875,-2.515625,0.078125,186
137,1696251649056,0.007080078,-0.9573364,0.18719482,-0.5,-0.96875,-0.734375,187
138,1696251649096,-0.009033203,-0.97784424,0.22088623,1.140625,1.71875,-0.734375,188
139,1696251649136,-0.045654297,-1.0134888,0.2140503,-1.875,1.828125,1.0625,189
140,1696251649176,-0.028808594,-0.97613525,0.20697021,-0.859375,2.0,-0.3125,190
141,1696251649216,0.024658203,-0.97125244,0.17816162,-2.1875,1.171875,-0.4375,191
142,1696251649256,0.046875,-0.9741821,0.23822021,1.171875,1.28125,-1.296875,192
143,1696251649296,-0.034423828,-0.9788208,0.20452881,2.3125,-0.75,1.328125,193
144,1696251649336,-0.006591797,-1.0039673,0.16644287,-1.34375,-1.890625,1.5,194
145,1696251649376,0.034179688,-0.96661377,0.21820068,-5.109375,-1.640625,0.140625,195
146,1696251649416,-0.01977539,-0.9529419,0.23626709,0.34375,0.1875,2.734375,196
147,1696251649456,-0.03540039,-0.9663696,0.20159912,-5.21875,-3.5,3.234375,197
148,1696251649496,0.02368164,-1.0020142,0.19598389,-0.890625,0.609375,3.609375,198
149,1696251649536,0.053466797,-0.9885864,0.22088623,-1.546875,-3.984375,2.453125,199
150,1696251649576,0.030761719,-0.94610596,0.23309326,-1.65625,-4.8125,0.78125,200
151,1696251649616,-0.044921875,-0.9692993,0.22625732,-2.234375,-6.140625,3.265625,201
152,1696251649656,-0.0041503906,-1.0210571,0.23040771,-0.546875,-2.859375,1.46875,202
153,1696251649696,0.084228516,-1.0012817,0.22088623,-3.78125,-2.59375,-3.484375,203
154,1696251649736,0.045166016,-0.9295044,0.22406006,-1.609375,-4.078125,-0.4375,204
155,1696251649776,0.018798828,-0.93048096,0.22894287,-3.484375,-6.828125,2.3125,205
156,1696251649816,0.045166016,-0.99786377,0.22991943,-2.765625,-7.5625,2.65625,206
157,1696251649856,0.031982422,-0.975647,0.23504639,0.03125,-8.046875,0.796875,207
158,1696251649896,-0.01171875,-0.94659424,0.23284912,0.171875,-8.078125,2.171875,208
159,1696251649936,-0.030273438,-0.94415283,0.22259521,1.34375,-4.328125,4.1875,209
160,1696251649976,-0.005859375,-0.9849243,0.24163818,1.734375,1.15625,1.046875,210
161,1696251650016,-0.0087890625,-0.9717407,0.24285889,3.21875,0.859375,-0.9375,211
162,1696251650056,0.046875,-0.9624634,0.21380615,1.875,4.390625,-0.4375,212
163,1696251650096,0.06738281,-0.96661377,0.22479248,0.125,0.875,0.078125,213
164,1696251650136,0.017578125,-0.97052,0.25115967,-1.25,-4.203125,1.453125,214
165,1696251650176,-0.028320312,-0.9326782,0.23895264,0.390625,-7.703125,1.984375,215
166,1696251650216,0.0031738281,-0.97052,0.25604248,-2.09375,0.296875,4.296875,216
167,1696251650256,0.00390625,-0.9998169,0.28167725,1.734375,-1.421875,3.984375,217
168,1696251650296,0.040771484,-0.98883057,0.23114014,2.984375,3.203125,2.78125,218
169,1696251650336,0.048583984,-0.9817505,0.17938232,-1.71875,8.46875,-0.796875,219
170,1696251650376,0.03881836,-0.9849243,0.19940186,-2.09375,6.359375,-0.1875,220
171,1696251650416,0.091796875,-0.9678345,0.23504639,-0.3125,5.984375,-0.46875,221
172,1696251650456,0.09838867,-0.9319458,0.21234131,2.765625,-5.171875,-1.78125,222
173,1696251650496,0.07495117,-0.97662354,0.21160889,11.890625,-24.84375,-0.84375,223
174,1696251650536,0.001953125,-0.97906494,0.042419434,18.90625,-10.984375,-1.03125,224
175,1696251650576,-0.08129883,-0.98687744,0.21331787,-10.40625,-10.375,5.875,225
176,1696251650616,0.06982422,-0.88604736,0.20428467,7.484375,2.1875,9.0,226
177,1696251650656,0.19506836,-1.1380005,0.16644287,0.34375,1.484375,-9.53125,227
178,1696251650696,-0.095703125,-0.8999634,0.2345581,-1.734375,-8.203125,0.46875,228
179,1696251650736,-0.013916016,-0.87677,0.19110107,-0.125,-4.0,0.46875,229
180,1696251650776,-0.04296875,-1.0715942,0.28070068,-1.765625,-0.75,-1.734375,230
181,1696251650816,-0.03955078,-0.9651489,0.13909912,2.015625,0.671875,-2.15625,231
182,1696251650856,0.060058594,-0.9456177,0.11981201,2.875,11.609375,-5.390625,232
183,1696251650896,0.16992188,-1.0564575,0.12786865,0.640625,5.921875,-7.3125,233
184,1696251650936,-0.013916016,-0.9470825,0.16473389,-2.375,-6.109375,0.421875,234
185,1696251650976,-0.076416016,-0.96661377,0.1762085,-4.203125,-7.328125,2.921875,235
186,1696251651016,-0.044921875,-1.0283813,0.23553467,-2.109375,5.21875,-0.484375,236
187,1696251651056,0.04711914,-1.0015259,0.21014404,-0.796875,5.78125,-4.84375,237
188,1696251651096,-0.010986328,-0.8447876,0.19769287,-2.671875,2.921875,0.5625,238
189,1696251651136,0.03100586,-0.98321533,0.18450928,-3.078125,1.53125,2.375,239
190,1696251651176,0.06201172,-1.1067505,0.21331787,3.640625,-0.1875,-0.28125,240
191,1696251651216,-0.05493164,-0.91363525,0.20916748,0.421875,-1.109375,-0.8125,241
192,1696251651256,-0.0390625,-0.9053345,0.17791748,0.625,4.375,3.65625,242
193,1696251651296,0.06518555,-1.0493774,0.21185303,3.703125,1.75,3.953125,243
194,1696251651336,0.0009765625,-0.97906494,0.18353271,3.765625,-4.015625,3.0,244
195,1696251651376,0.011230469,-0.8921509,0.15814209,2.078125,0.875,5.046875,245
196,1696251651416,0.07910156,-0.9649048,0.22625732,5.046875,1.78125,1.46875,246
197,1696251651456,0.05908203,-1.0344849,0.2423706,5.40625,-2.359375,1.03125,247
198,1696251651496,-0.018066406,-0.9417114,0.21282959,2.828125,6.421875,1.359375,248
199,1696251651536,-0.041259766,-0.94854736,0.1473999,3.421875,9.75,5.796875,249
200,1696251651576,0.087646484,-1.0498657,0.18743896,7.4375,11.125,-0.3125,250
201,1696251651616,0.09399414,-1.0933228,0.21673584,6.21875,7.484375,-4.25,251
202,1696251651656,0.0146484375,-0.99468994,0.13519287,-0.4375,-6.21875,-6.15625,252
203,1696251651696,-0.014160156,-0.87677,0.03314209,-5.3125,-17.59375,-5.78125,253
204,1696251651736,-0.045166016,-0.9373169,0.05657959,14.453125,-19.265625,0.328125,254
205,1696251651776,0.033691406,-1.0718384,0.12762451,7.953125,-4.1875,6.0,255
206,1696251651816,0.1394043,-0.89312744,0.13031006,-3.515625,-3.96875,11.671875,256
207,1696251651856,0.053466797,-1.1326294,0.10858154,-0.28125,0.3125,2.609375,257
208,1696251651896,-0.025878906,-0.927063,0.26898193,-1.421875,1.40625,-4.453125,258
209,1696251651936,0.053466797,-0.9590454,0.19329834,-6.703125,-5.171875,-3.609375,259
210,1696251651976,0.0859375,-0.9221802,0.11956787,-3.765625,2.984375,-2.890625,260
211,1696251652016,0.053955078,-1.0325317,0.10076904,-2.984375,-1.578125,1.390625,261
212,1696251652056,-0.009521484,-0.9824829,0.15472412,-0.65625,-2.140625,-4.1875,262
213,1696251652096,-0.032958984,-0.9834595,0.20721436,2.25,6.75,-2.0,263
214,1696251652136,0.07299805,-1.0081177,0.14959717,-2.390625,2.0,-0.890625,264
215,1696251652176,0.021972656,-0.9194946,0.17352295,0.203125,0.6875,1.09375,265
216,1696251652216,0.015625,-1.008606,0.11639404,-5.109375,-4.375,0.890625,266
217,1696251652256,0.08081055,-1.0027466,0.22845459,0.46875,2.84375,-4.453125,267
218,1696251652296,0.016601562,-0.9573364,0.15423584,-2.34375,-4.0,-2.609375,268
219,1696251652336,-0.032958984,-0.93463135,0.13421631,-0.125,4.015625,3.5625,269
220,1696251652376,0.032470703,-1.0300903,0.18597412,-2.28125,-1.09375,-0.59375,270
221,1696251652416,0.07055664,-1.0564575,0.22894287,2.171875,0.4375,-3.921875,271
222,1696251652456,-0.027832031,-0.9077759,0.17547607,-3.28125,-6.328125,-1.875,272
223,1696251652496,-0.08251953,-0.9199829,0.101257324,-4.96875,0.015625,6.421875,273
224,1696251652536,0.017333984,-1.0408325,0.1942749,-0.34375,5.484375,3.296875,274
225,1696251652576,0.0871582,-1.0750122,0.21380615,3.703125,2.828125,-0.703125,275
226,1696251652616,0.044433594,-0.86383057,0.16986084,-0.546875,-2.390625,0.828125,276
227,1696251652656,-0.024169922,-0.9336548,0.13665771,-2.890625,-5.015625,6.25,277
228,1696251652696,0.012451172,-1.0628052,0.20404053,-1.296875,-0.9375,2.625,278
229,1696251652736,0.013427734,-1.0403442,0.1720581,-1.5625,-0.109375,-2.9375,279
230,1696251652776,0.017333984,-0.90093994,0.1539917,-1.1875,2.375,-1.171875,280
231,1696251652816,0.06298828,-0.94781494,0.17034912,-3.296875,0.859375,0.921875,281
232,1696251652856,0.06298828,-1.017395,0.1749878,-0.578125,-3.046875,-1.34375,282
233,1696251652896,-0.029052734,-0.9961548,0.20965576,-0.828125,-2.859375,-1.890625,283
234,1696251652936,-0.043701172,-0.9624634,0.1828003,-1.046875,-1.0,0.3125,284
235,1696251652976,0.059326172,-0.94903564,0.20452881,1.578125,6.65625,-1.421875,285
236,1696251653016,0.06567383,-0.9795532,0.21136475,0.1875,-0.578125,-3.734375,286
237,1696251653056,0.011962891,-0.99664307,0.15667725,-1.234375,-5.828125,-0.921875,287
238,1696251653096,-0.016357422,-0.98272705,0.18572998,-1.421875,0.171875,0.59375,288
239,1696251653136,-0.021972656,-0.98028564,0.19476318,1.15625,1.328125,1.03125,289
240,1696251653176,0.01586914,-0.98443604,0.19647217,-0.40625,0.515625,-0.921875,290
241,1696251653216,0.040527344,-0.98394775,0.19329834,-1.203125,0.78125,-0.9375,291
242,1696251653256,0.03491211,-0.9837036,0.18109131,-0.1875,-1.71875,0.46875,292
243,1696251653296,-0.007080078,-0.99884033,0.14910889,-1.546875,-3.3125,1.40625,293
244,1696251653336,0.016357422,-0.97003174,0.20477295,-1.0,-0.3125,0.4375,294
245,1696251653376,0.02758789,-0.97491455,0.1930542,-1.5625,-1.546875,-0.28125,295
246,1696251653416,0.025146484,-0.97442627,0.1906128,0.546875,-0.78125,1.4375,296
247,1696251653456,0.001953125,-0.9680786,0.18426514,1.609375,-3.484375,2.296875,297
248,1696251653496,-0.006591797,-0.98516846,0.27215576,3.0625,-3.421875,5.21875,298
249,1696251653536,-0.08105469,-0.9038696,0.17572021,0.046875,-7.859375,5.984375,299
250,1696251653576,0.068359375,-0.9470825,0.1876831,1.328125,7.0,4.671875,300
251,1696251653616,0.0793457,-1.050354,0.2399292,6.671875,14.8125,-1.1875,301
252,1696251653656,0.060546875,-1.029602,0.15472412,8.40625,3.359375,-3.921875,302
253,1696251653696,-0.017333984,-0.96954346,0.1593628,8.28125,-0.796875,-6.328125,303
254,1696251653736,0.0234375,-0.97247314,0.19232178,8.890625,12.546875,-6.96875,304
255,1696251653776,-0.008300781,-0.9529419,0.1395874,-3.0,12.875,-0.171875,305
256,1696251653816,-0.030273438,-0.9524536,0.09637451,-7.203125,0.640625,3.546875,306
257,1696251653856,0.032958984,-0.99884033,0.10784912,-1.015625,-7.328125,-1.390625,307
258,1696251653896,0.079833984,-1.0379028,0.1408081,6.953125,-13.703125,-2.296875,308
259,1696251653936,0.038330078,-1.0054321,0.0119018555,17.171875,-24.8125,1.234375,309
260,1696251653976,0.029785156,-0.7678833,0.18939209,-9.203125,-8.390625,7.140625,310
261,1696251654016,0.20996094,-1.0335083,0.19036865,-1.75,7.953125,1.515625,311
262,1696251654056,-0.28759766,-1.1106567,0.22088623,-13.203125,-18.765625,3.71875,312
263,1696251654096,-0.10473633,-0.93829346,0.17352295,2.0,4.25,-3.09375,313
264,1696251654136,0.064941406,-0.9956665,0.1486206,-0.171875,8.34375,-5.640625,314
265,1696251654176,0.19677734,-0.98687744,0.14300537,-1.53125,10.625,0.078125,315
266,1696251654216,0.076660156,-0.98101807,0.1708374,-6.09375,-9.921875,1.625,316
267,1696251654256,-0.07080078,-0.94244385,0.14984131,-2.828125,-10.484375,0.953125,317
268,1696251654296,-0.060791016,-1.0410767,0.18426514,-2.171875,1.046875,2.71875,318
269,1696251654336,0.0009765625,-0.9768677,0.1918335,-2.46875,1.703125,-1.84375,319
270,1696251654376,0.034179688,-0.9595337,0.17938232,-3.296875,1.015625,-0.34375,320
271,1696251654416,-0.010253906,-0.9961548,0.17694092,-1.28125,0.15625,1.734375,321
272,1696251654456,0.010253906,-0.9751587,0.1786499,-2.03125,2.46875,0.6875,322
273,1696251654496,0.01977539,-0.95977783,0.18060303,-1.171875,3.515625,-2.15625,323
274,1696251654536,0.057617188,-1.0293579,0.17596436,1.015625,5.171875,1.375,324
275,1696251654576,0.0061035156,-0.9619751,0.21209717,-0.84375,1.484375,1.8125,325
276,1696251654616,-0.013427734,-0.958313,0.18304443,10.734375,3.09375,3.75,326
277,1696251654656,-0.107177734,-1.0249634,0.116882324,4.28125,-0.8125,10.28125,327
278,1696251654696,0.024902344,-0.9937134,0.1918335,0.96875,10.9375,3.4375,328
279,1696251654736,0.03955078,-0.9282837,0.14642334,0.421875,13.578125,-4.09375,329
280,1696251654776,0.11743164,-0.90704346,0.12762451,1.046875,19.296875,-3.703125,330
281,1696251654816,0.08666992,-0.9902954,0.17962646,-2.390625,7.671875,-3.46875,331
282,1696251654856,0.07421875,-1.0496216,0.16497803,-3.03125,2.046875,-2.453125,332
283,1696251654896,0.024169922,-1.0032349,0.16229248,0.140625,4.078125,-2.09375,333
284,1696251654936,0.045898438,-0.9175415,0.1593628,0.9375,4.546875,-0.59375,334
285,1696251654976,0.10498047,-0.98028564,0.17059326,-2.0625,1.046875,1.765625,335
286,1696251655016,0.06640625,-1.0095825,0.1642456,0.5625,-5.671875,0.6875,336
287,1696251655056,0.03466797,-0.99224854,0.17962646,0.0,-7.734375,1.265625,337
288,1696251655096,0.034179688,-0.9414673,0.15985107,-0.65625,-6.375,-0.90625,338
289,1696251655136,-0.01928711,-0.99298096,0.17376709,-1.296875,-3.625,0.28125,339
290,1696251655176,-0.040283203,-1.0171509,0.17108154,-2.703125,-2.203125,0.109375,340
291,1696251655216,-0.017822266,-0.98321533,0.15252686,-0.75,0.921875,-1.328125,341
292,1696251655256,0.045410156,-0.9639282,0.18841553,-0.375,4.15625,-0.546875,342
293,1696251655296,0.036621094,-0.95684814,0.16668701,-1.75,-1.875,1.03125,343
294,1696251655336,0.029296875,-1.008606,0.19329834,-3.4375,-2.921875,1.0,344
295,1696251655376,-0.0073242188,-0.99176025,0.18255615,-1.203125,-1.78125,-1.09375,345
296,1696251655416,-0.018310547,-0.96417236,0.17718506,-0.140625,0.8125,0.171875,346
297,1696251655456,0.044433594,-0.96099854,0.15106201,-0.0625,4.71875,0.6875,347
298,1696251655496,0.044189453,-0.9963989,0.2033081,0.96875,2.640625,-0.203125,348
299,1696251655536,-0.021484375,-0.99053955,0.18353271,0.53125,0.078125,0.015625,349
300,1696251655576,-0.0061035156,-0.95806885,0.1749878,-1.265625,4.546875,0.921875,350
301,1696251655616,0.06542969,-0.9714966,0.17327881,0.109375,4.0,-0.125,351
302,1696251655656,0.067871094,-0.9932251,0.18988037,0.0625,-0.71875,-0.109375,352
303,1696251655696,0.040527344,-0.95806885,0.16741943,1.0625,-1.59375,-0.828125,353
304,1696251655736,-0.0146484375,-0.99005127,0.18865967,1.265625,-1.859375,-0.0625,354
305,1696251655776,-0.033691406,-0.99786377,0.18450928,-1.296875,0.078125,-0.03125,355
306,1696251655816,-0.019042969,-0.94415283,0.18231201,-0.703125,5.3125,-0.609375,356
307,1696251655856,0.017333984,-0.96954346,0.16937256,3.90625,8.1875,1.890625,357
308,1696251655896,0.07373047,-1.0269165,0.20574951,9.1875,6.8125,0.90625,358
309,1696251655936,0.0029296875,-0.95758057,0.15203857,1.71875,2.65625,3.15625,359
310,1696251655976,0.045166016,-0.9373169,0.12908936,-5.359375,7.265625,3.515625,360
311,1696251656016,0.12792969,-0.9898071,0.20819092,-1.34375,15.4375,-4.453125,361
312,1696251656056,0.08129883,-1.09552,0.16448975,8.90625,1.0625,-3.15625,362
313,1696251656096,0.03466797,-0.9927368,0.046325684,11.578125,-6.875,0.75,363
314,1696251656136,-0.0107421875,-0.8862915,0.09710693,9.296875,-18.578125,4.375,364
315,1696251656176,-0.005859375,-0.9258423,0.062438965,13.03125,-11.9375,5.984375,365
316,1696251656216,0.06518555,-1.0127563,0.070739746,-5.640625,-8.6875,5.5625,366
317,1696251656256,0.04736328,-1.0161743,0.19281006,10.109375,4.796875,6.828125,367
318,1696251656296,0.15917969,-1.005188,0.031677246,1.625,-4.546875,3.0625,368
319,1696251656336,-0.020263672,-0.897522,0.14471436,-0.09375,-6.515625,7.71875,369
320,1696251656376,0.04296875,-0.975647,0.16790771,-3.0625,0.453125,4.84375,370
321,1696251656416,-0.0068359375,-1.0440063,0.1449585,3.671875,-0.390625,5.6875,371
322,1696251656456,0.04345703,-0.9546509,0.0836792,1.40625,0.671875,11.984375,372
323,1696251656496,0.1303711,-0.9751587,0.1239624,-1.390625,2.46875,8.453125,373
324,1696251656536,0.18554688,-1.0671997,0.12786865,-2.4375,-3.9375,-0.359375,374
325,1696251656576,0.16210938,-0.9429321,0.16326904,-2.609375,-4.15625,-4.078125,375
326,1696251656616,0.060302734,-0.9006958,0.08929443,-4.578125,-9.59375,-1.21875,376
327,1696251656656,0.10644531,-1.003479,0.089782715,-1.953125,-3.546875,0.515625,377
328,1696251656696,0.10424805,-1.045227,0.17840576,-1.9375,-8.1875,-5.53125,378
329,1696251656736,0.07104492,-0.96759033,0.1798706,-1.796875,-5.140625,-6.75,379
330,1696251656776,0.071777344,-0.92803955,0.12249756,-2.453125,-4.21875,-4.453125,380
331,1696251656816,0.11035156,-0.95318604,0.13006592,-2.96875,-2.625,-2.359375,381
332,1696251656856,0.09033203,-1.0293579,0.1539917,-2.75,-8.5625,-6.1875,382
333,1696251656896,0.028808594,-1.0361938,0.15472412,-4.40625,-6.546875,-5.234375,383
334,1696251656936,0.037353516,-0.93218994,0.1359253,-5.4375,1.3125,-5.5625,384
335,1696251656976,0.038085938,-0.92071533,0.1539917,0.234375,1.96875,-1.125,385
336,1696251657016,0.028808594,-1.0142212,0.15472412,-2.828125,-6.765625,2.9375,386
337,1696251657056,0.029785156,-1.0335083,0.1618042,0.171875,-2.46875,-0.5625,387
338,1696251657096,0.043945312,-0.97198486,0.14227295,-3.6875,-0.65625,-2.234375,388
339,1696251657136,0.027832031,-0.8970337,0.1317749,-3.328125,3.34375,0.53125,389
340,1696251657176,0.060302734,-1.0484009,0.18475342,-5.140625,-1.234375,-0.984375,390
341,1696251657216,0.06640625,-1.0513306,0.18377686,-6.265625,-2.875,-5.609375,391
342,1696251657256,0.057373047,-0.95391846,0.17376709,-4.140625,0.84375,-6.890625,392
343,1696251657296,0.07080078,-0.90289307,0.1671753,-5.59375,-3.796875,-4.875,393
344,1696251657336,0.07495117,-0.97369385,0.21942139,-3.84375,-4.234375,-0.53125,394
345,1696251657376,-0.02319336,-1.0137329,0.24310303,-5.453125,-8.328125,-1.828125,395
346,1696251657416,-0.076171875,-0.97003174,0.18328857,-2.671875,-1.078125,-2.515625,396
347,1696251657456,0.020019531,-0.9241333,0.22406006,0.859375,5.296875,-2.46875,397
348,1696251657496,0.05834961,-0.94488525,0.17767334,-0.78125,0.75,1.84375,398
349,1696251657536,0.041992188,-0.99053955,0.21868896,-0.71875,0.28125,1.828125,399
350,1696251657576,-0.0146484375,-0.9849243,0.21502686,1.875,-1.234375,1.328125,400
351,1696251657616,-0.0068359375,-0.9602661,0.1864624,2.703125,2.0,0.953125,401
352,1696251657656,0.010009766,-0.96173096,0.19525146,2.34375,1.953125,0.84375,402
353,1696251657696,0.037841797,-0.9710083,0.19647217,2.140625,2.5,2.15625,403
354,1696251657736,0.030761719,-1.0144653,0.21356201,1.4375,-1.9375,0.09375,404
355,1696251657776,0.0,-0.9771118,0.18426514,1.125,-3.90625,-0.796875,405
356,1696251657816,-0.0034179688,-0.9678345,0.20550537,0.265625,-2.0,0.390625,406
357,1696251657856,0.010009766,-0.9702759,0.1798706,-0.234375,0.796875,1.6875,407
358,1696251657896,-0.0063476562,-1.0093384,0.2111206,-0.890625,-1.984375,-0.25,408
359,1696251657936,-0.007080078,-0.9783325,0.19793701,-1.546875,-0.25,-1.453125,409
360,1696251657976,-0.0043945312,-0.92071533,0.20648193,-0.46875,1.578125,0.109375,410
361,1696251658016,0.04345703,-0.99542236,0.19085693,0.75,-0.484375,0.4375,411
362,1696251658056,0.06689453,-1.0186157,0.2111206,0.109375,-2.6875,-4.015625,412
363,1696251658096,0.0,-0.954895,0.20184326,-0.5,-6.546875,-4.0,413
364,1696251658136,-0.049316406,-0.9487915,0.19769287,-0.328125,-1.03125,-0.953125,414
365,1696251658176,-0.024414062,-0.98394775,0.21282959,2.890625,0.671875,0.34375,415
366,1696251658216,-0.02368164,-1.0066528,0.24017334,12.859375,4.921875,2.078125,416
367,1696251658256,0.035888672,-1.003479,0.24163818,19.015625,7.40625,3.515625,417
368,1696251658296,-0.018310547,-0.895813,0.12615967,5.484375,0.03125,8.046875,418
369,1696251658336,0.024414062,-0.9282837,0.13079834,5.65625,5.84375,5.34375,419
370,1696251658376,0.053955078,-1.0393677,0.12786865,1.796875,3.953125,1.4375,420
371,1696251658416,0.053222656,-1.0249634,0.09515381,2.03125,-3.609375,1.734375,421
372,1696251658456,0.037597656,-1.0213013,0.042907715,8.6875,-12.234375,0.734375,422
373,1696251658496,0.02368164,-0.9800415,0.023132324,12.21875,-22.1875,0.15625,423
374,1696251658536,0.1628418,-0.7932739,0.24993896,-7.96875,-5.484375,1.203125,424
375,1696251658576,-0.03881836,-1.0076294,0.08880615,-5.578125,-1.96875,0.21875,425
376,1696251658616,0.02709961,-1.0679321,0.15667725,-1.140625,-4.4375,0.125,426
377,1696251658656,0.061523438,-0.89556885,0.17767334,2.421875,-0.21875,-3.40625,427
378,1696251658696,-0.018066406,-1.0632935,0.1005249,-7.015625,-3.9375,4.390625,428
379,1696251658736,0.01977539,-1.0401001,0.14202881,-1.578125,0.28125,1.265625,429
380,1696251658776,0.013427734,-0.8965454,0.11907959,1.046875,-3.015625,-3.0,430
381,1696251658816,0.063964844,-0.9505005,0.09661865,-0.765625,1.4375,6.46875,431
382,1696251658856,0.08178711,-1.0498657,0.1486206,-4.875,-4.234375,5.09375,432
383,1696251658896,0.045410156,-1.0317993,0.2321167,1.09375,-2.265625,-1.171875,433
384,1696251658936,-0.018066406,-0.93218994,0.121032715,-3.09375,-5.890625,-2.515625,434
385,1696251658976,-0.0034179688,-0.9451294,0.08294678,-3.1875,3.421875,5.5,435
386,1696251659016,0.07543945,-1.0117798,0.1918335,-2.109375,-0.3125,3.328125,436
387,1696251659056,-0.05126953,-1.0049438,0.1749878,-5.0,-2.21875,0.53125,437
388,1696251659096,0.020507812,-0.94415283,0.13226318,-3.015625,2.4375,3.78125,438
389,1696251659136,0.12695312,-0.9319458,0.16131592,0.953125,6.53125,3.265625,439
390,1696251659176,0.17822266,-0.99957275,0.18743896,1.3125,2.359375,-2.703125,440
391,1696251659216,0.056152344,-0.9758911,0.16033936,-0.25,-2.84375,-5.890625,441
392,1696251659256,-0.016601562,-0.9692993,0.16741943,2.40625,3.5625,-2.5,442
393,1696251659296,0.018798828,-0.98443604,0.15814209,0.875,2.046875,-1.453125,443
394,1696251659336,0.06323242,-1.0281372,0.14178467,0.71875,5.828125,1.015625,444
395,1696251659376,0.10986328,-0.9824829,0.16595459,-0.984375,1.5625,-2.71875,445
396,1696251659416,0.055664062,-0.95635986,0.13739014,-2.28125,-0.765625,-3.109375,446
397,1696251659456,0.044921875,-0.9741821,0.1359253,-1.234375,-1.375,-0.4375,447
398,1696251659496,-0.0041503906,-0.9981079,0.13446045,-1.03125,-0.265625,1.53125,448
399,1696251659536,0.01928711,-1.0105591,0.1564331,-0.9375,0.4375,-1.109375,449
400,1696251659576,0.012939453,-0.9668579,0.15740967,-2.015625,-0.890625,-0.859375,450
401,1696251659616,0.01977539,-0.9873657,0.14886475,-3.296875,1.09375,2.25,451
402,1696251659656,0.038330078,-1.0076294,0.14837646,-2.015625,-0.53125,0.328125,452
403,1696251659696,0.08129883,-0.9121704,0.18084717,1.03125,3.5625,-1.96875,453
404,1696251659736,0.034179688,-0.9199829,0.1486206,1.34375,-1.453125,-1.703125,454
405,1696251659776,0.027832031,-1.0300903,0.16448975,0.875,-0.8125,1.140625,455
406,1696251659816,-0.0031738281,-1.0479126,0.18572998,-2.671875,-0.625,-1.21875,456
407,1696251659856,0.01171875,-0.9417114,0.15960693,1.25,5.375,-2.640625,457
408,1696251659896,0.057861328,-0.9541626,0.18011475,14.15625,16.984375,1.453125,458
409,1696251659936,0.008544922,-0.9961548,0.14349365,4.1875,12.140625,7.59375,459
410,1696251659976,0.033935547,-1.0303345,0.15081787,-0.421875,9.71875,4.953125,460
411,1696251660016,0.056396484,-1.0349731,0.16790771,1.8125,3.828125,-0.703125,461
412,1696251660056,0.055419922,-0.96466064,0.08685303,3.046875,-5.796875,-1.109375,462
413,1696251660096,0.03564453,-0.88482666,0.038024902,7.28125,-13.34375,0.546875,463
414,1696251660136,-0.0007324219,-0.986145,0.086120605,12.375,-13.09375,1.96875,464
415,1696251660176,0.044677734,-1.0342407,0.06463623,2.4375,-2.1875,2.671875,465
416,1696251660216,0.046875,-1.0293579,0.11541748,-11.046875,-4.515625,4.78125,466
417,1696251660256,0.09887695,-0.9163208,0.12957764,-3.828125,-5.90625,-0.171875,467
418,1696251660296,0.11230469,-1.0418091,0.23236084,0.03125,7.484375,-5.171875,468
419,1696251660336,0.107666016,-0.9939575,0.070007324,-7.3125,-2.890625,-6.75,469
420,1696251660376,-0.041015625,-0.864563,0.097839355,-0.421875,-7.78125,-0.734375,470
421,1696251660416,-0.013183594,-1.0896606,0.13348389,1.15625,6.3125,3.953125,471
422,1696251660456,0.017578125,-1.0464478,0.14788818,0.6875,4.28125,-3.5,472
423,1696251660496,0.099853516,-0.928772,0.16815186,12.359375,22.3125,-2.578125,473
424,1696251660536,0.09399414,-1.0342407,0.1317749,18.90625,14.28125,2.046875,474
425,1696251660576,-0.0031738281,-0.9763794,0.06488037,-5.0,-1.421875,6.296875,475
426,1696251660616,0.014404297,-0.9595337,0.08074951,-10.921875,-1.75,5.0625,476
427,1696251660656,0.064208984,-1.0064087,-0.04083252,11.671875,-8.375,-2.796875,477
428,1696251660696,0.14428711,-0.9727173,0.058044434,6.359375,-9.03125,-0.6875,478
429,1696251660736,0.072753906,-0.86431885,0.09564209,-3.484375,-8.390625,6.703125,479
430,1696251660776,-0.02758789,-1.0132446,0.042907715,-17.21875,-17.59375,5.34375,480
431,1696251660816,0.049072266,-1.0708618,0.16595459,0.8125,-2.78125,-2.9375,481
432,1696251660856,0.1616211,-1.0108032,0.2164917,6.046875,7.921875,-9.5625,482
433,1696251660896,0.0690918,-0.90704346,0.121032715,-5.375,-7.109375,0.671875,483
434,1696251660936,0.048339844,-0.8711548,0.09637451,2.6875,0.3125,4.765625,484
435,1696251660976,0.0021972656,-1.1055298,0.15252686,-9.546875,-7.4375,-0.40625,485
436,1696251661016,0.07421875,-1.0615845,0.08807373,1.734375,-1.125,-5.421875,486
437,1696251661056,0.023925781,-0.8789673,0.13519287,-7.484375,-5.78125,-0.59375,487
438,1696251661096,0.01586914,-0.92388916,0.12542725,-0.1875,2.84375,5.34375,488
439,1696251661136,0.061767578,-1.1052856,0.16009521,-7.28125,-5.5625,0.265625,489
440,1696251661176,0.057617188,-1.0188599,0.10736084,-0.53125,0.171875,-7.09375,490
441,1696251661216,-0.010498047,-0.88897705,0.14422607,-4.875,-2.734375,-2.6875,491
442,1696251661256,0.053710938,-0.93096924,0.101257324,-4.3125,2.796875,1.96875,492
443,1696251661296,0.068847656,-1.0652466,0.18255615,-3.078125,-1.640625,-2.140625,493
444,1696251661336,0.067871094,-1.020813,0.19085693,-1.09375,1.859375,-6.546875,494
445,1696251661376,-0.036132812,-0.90216064,0.16009521,1.0,-0.484375,0.5625,495
446,1696251661416,0.020996094,-0.975647,0.16619873,0.0625,-2.59375,6.171875,496
447,1696251661456,0.059326172,-1.0466919,0.16131592,1.375,-1.171875,0.9375,497
448,1696251661496,0.04736328,-0.98272705,0.19793701,1.828125,-0.984375,-2.34375,498
449,1696251661536,-0.026123047,-0.94122314,0.11126709,-4.9375,-2.8125,3.28125,499
450,1696251661576,0.021728516,-0.9841919,0.16815186,-1.203125,6.890625,3.078125,500
451,1696251661616,0.060302734,-1.0342407,0.17645264,-3.625,2.4375,-0.578125,501
452,1696251661656,0.07373047,-0.92388916,0.15863037,-0.46875,4.1875,-0.71875,502
453,1696251661696,0.079833984,-0.9258423,0.17108154,-0.390625,-0.1875,0.9375,503
454,1696251661736,-0.03149414,-0.9932251,0.15985107,2.984375,-4.40625,2.90625,504
455,1696251661776,0.04711914,-1.0122681,0.15887451,1.8125,2.390625,-2.234375,505
456,1696251661816,0.049072266,-0.9854126,0.14886475,2.0625,-0.265625,-2.625,506
457,1696251661856,0.041992188,-0.9512329,0.12860107,-1.6875,-0.734375,2.0,507
458,1696251661896,0.009033203,-1.0081177,0.16912842,-0.765625,3.390625,0.8125,508
459,1696251661936,0.068603516,-1.0454712,0.15863037,-1.75,2.125,-3.96875,509
460,1696251661976,0.05053711,-0.93829346,0.14471436,-2.28125,1.46875,-2.296875,510
461,1696251662016,0.053222656,-0.9439087,0.13665771,-1.21875,-0.546875,2.53125,511
462,1696251662056,0.05493164,-1.0237427,0.17669678,-2.3125,-1.890625,4.640625,512
463,1696251662096,0.03955078,-0.9985962,0.19281006,-3.203125,-4.625,0.0625,513
464,1696251662136,0.040771484,-0.91778564,0.1630249,-3.359375,-3.171875,-2.4375,514
465,1696251662176,0.05053711,-0.94903564,0.15789795,-0.21875,-1.796875,1.75,515
466,1696251662216,0.045654297,-1.0076294,0.19744873,0.328125,-2.40625,1.703125,516
467,1696251662256,-0.0007324219,-0.9927368,0.18328857,0.171875,-6.8125,-1.25,517
468,1696251662296,-0.030761719,-0.96221924,0.17962646,0.421875,-5.796875,3.578125,518
469,1696251662336,0.11767578,-1.0369263,0.16278076,1.265625,1.8125,0.9375,519
470,1696251662376,0.10449219,-0.98443604,0.14886475,-1.46875,-5.609375,-2.515625,520
471,1696251662416,0.013916016,-0.9734497,0.14422607,-7.28125,-7.65625,2.125,521
472,1696251662456,0.032226562,-0.9751587,0.21502686,-2.6875,-0.40625,2.078125,522
473,1696251662496,-0.0068359375,-1.0252075,0.2645874,1.140625,1.109375,2.390625,523
474,1696251662536,0.008300781,-0.95562744,0.16278076,3.90625,8.03125,2.8125,524
475,1696251662576,0.05810547,-0.87506104,0.16888428,-0.75,-1.6875,3.515625,525
476,1696251662616,0.11352539,-1.0227661,0.1749878,-8.109375,1.40625,3.5625,526
477,1696251662656,0.14257812,-0.9480591,0.2477417,-4.546875,-1.46875,-9.453125,527
478,1696251662696,0.036621094,-1.0281372,0.18328857,-8.875,-6.859375,-8.46875,528
479,1696251662736,-0.039794922,-0.9585571,0.19281006,-2.28125,-2.578125,-0.609375,529
480,1696251662776,-0.041748047,-0.97613525,0.25213623,-4.171875,1.140625,0.28125,530
481,1696251662816,0.040283203,-0.9805298,0.2789917,4.609375,3.828125,0.796875,531
482,1696251662856,0.0715332,-0.9483032,0.25604248,9.234375,1.203125,3.984375,532
483,1696251662896,0.033691406,-0.9607544,0.21551514,1.15625,-4.484375,5.140625,533
484,1696251662936,-0.0009765625,-0.93756104,0.19134521,-6.46875,-4.0,4.421875,534
485,1696251662976,0.060546875,-1.003479,0.24212646,-7.046875,6.359375,3.53125,535
486,1696251663016,0.10107422,-1.0149536,0.22528076,-6.328125,3.65625,1.59375,536
487,1696251663056,0.09301758,-0.9849243,0.1630249,6.078125,-6.75,1.3125,537
488,1696251663096,0.06567383,-0.9116821,0.14324951,13.515625,-15.734375,-0.296875,538
489,1696251663136,0.115234375,-0.92755127,0.19744873,9.421875,-0.6875,-2.59375,539
490,1696251663176,0.021240234,-0.9614868,0.1798706,-13.703125,-8.71875,-2.359375,540
491,1696251663216,0.038330078,-0.942688,0.22723389,-6.78125,-14.3125,-4.625,541
492,1696251663256,0.016357422,-1.0786743,0.14788818,4.4375,0.859375,-5.78125,542
493,1696251663296,0.08569336,-0.9824829,0.3287964,5.078125,7.65625,-7.71875,543
494,1696251663336,-0.07421875,-0.92755127,0.2567749,-6.421875,-5.59375,-0.234375,544
495,1696251663376,-0.042236328,-0.8909302,0.15887451,3.96875,4.71875,6.515625,545
496,1696251663416,0.08544922,-1.034729,0.22454834,-1.046875,-1.515625,2.75,546
497,1696251663456,0.14331055,-0.95977783,0.20526123,4.0625,-3.71875,-3.84375,547
498,1696251663496,0.057128906,-0.94610596,0.30267334,1.984375,-1.671875,-2.09375,548
499,1696251663536,-0.072021484,-0.97003174,0.19818115,-3.34375,-3.796875,1.4375,549
500,1696251663576,-0.045166016,-0.9385376,0.22283936,4.34375,0.796875,1.953125,550
501,1696251663616,0.01928711,-1.0369263,0.28338623,1.125,2.5625,0.015625,551
502,1696251663656,0.13354492,-0.9939575,0.15057373,0.8125,3.515625,-3.375,552
503,1696251663696,0.111328125,-0.93170166,0.22113037,-3.359375,0.625,-1.8125,553
504,1696251663736,-0.092041016,-0.9990845,0.2243042,-3.203125,-7.25,4.71875,554
505,1696251663776,-0.095214844,-1.0195923,0.24871826,-6.296875,-2.109375,5.453125,555
506,1696251663816,-0.020507812,-0.9907837,0.2506714,-3.5,4.390625,1.421875,556
507,1696251663856,0.107177734,-0.93585205,0.19793701,-1.296875,4.453125,1.4375,557
508,1696251663896,0.123046875,-0.93707275,0.22210693,-2.40625,-1.453125,3.34375,558
509,1696251663936,0.025634766,-0.97784424,0.22259521,-3.03125,-7.921875,4.859375,559
510,1696251663976,-0.028320312,-0.97735596,0.24066162,-1.078125,-1.515625,0.796875,560
511,1696251664016,-0.018066406,-0.9673462,0.2526245,1.15625,4.390625,-3.328125,561
512,1696251664056,0.053466797,-0.9524536,0.24481201,0.59375,5.546875,-3.03125,562
513,1696251664096,0.087646484,-0.9463501,0.2399292,-3.4375,1.8125,-0.515625,563
514,1696251664136,0.067871094,-0.954895,0.24822998,-1.765625,-2.1875,0.1875,564
515,1696251664176,-0.0068359375,-0.9710083,0.26971436,-2.140625,-3.078125,-1.9375,565
516,1696251664216,-0.031982422,-0.9795532,0.23944092,-0.9375,1.109375,-2.875,566
517,1696251664256,0.014892578,-0.96832275,0.2489624,-0.484375,7.421875,-4.4375,567
518,1696251664296,0.08203125,-0.95880127,0.25042725,1.5,5.53125,-3.4375,568
519,1696251664336,0.05493164,-0.9553833,0.2543335,1.90625,0.703125,-0.890625,569
520,1696251664376,-0.006591797,-0.9553833,0.24212646,0.453125,-2.890625,0.1875,570
521,1696251664416,-0.03149414,-0.973938,0.2526245,0.421875,-1.96875,1.609375,571
522,1696251664456,0.02319336,-0.98687744,0.24359131,0.8125,2.25,0.875,572
523,1696251664496,0.04248047,-0.95977783,0.23699951,1.515625,2.234375,-2.015625,573
524,1696251664536,0.03100586,-0.96295166,0.24627686,6.046875,9.4375,1.328125,574
525,1696251664576,0.045410156,-0.99713135,0.26434326,14.203125,24.125,2.375,575
526,1696251664616,0.0390625,-0.9885864,0.17108154,3.90625,14.109375,2.609375,576
527,1696251664656,-0.011230469,-0.93878174,0.15423584,1.53125,0.171875,2.421875,577
528,1696251664696,0.057617188,-0.9968872,0.24993896,14.890625,8.15625,1.703125,578
529,1696251664736,0.13330078,-1.0266724,0.23846436,5.671875,0.390625,0.140625,579
530,1696251664776,0.03125,-0.9373169,0.07659912,5.671875,-12.796875,-0.40625,580
531,1696251664816,-0.04272461,-0.93536377,0.030944824,15.78125,-17.75,0.78125,581
532,1696251664856,0.040039062,-1.0276489,0.14324951,8.140625,-4.53125,2.484375,582
533,1696251664896,0.096191406,-0.8921509,0.152771,-5.328125,-4.25,5.03125,583
534,1696251664936,0.075683594,-1.0645142,0.21795654,-4.953125,-10.328125,1.5625,584
535,1696251664976,0.072265625,-1.0232544,0.11907959,-3.890625,-6.84375,-5.015625,585
536,1696251665016,0.05444336,-0.9570923,0.23138428,-3.890625,-0.6875,-5.453125,586
537,1696251665056,0.037841797,-0.9993286,0.10467529,-6.71875,0.03125,0.328125,587
538,1696251665096,-0.013183594,-0.944397,0.18060303,-0.875,-2.203125,2.671875,588
539,1696251665136,0.0017089844,-0.9788208,0.17352295,-3.15625,-3.03125,-0.09375,589
540,1696251665176,0.06201172,-1.008606,0.1449585,-3.453125,-2.390625,-3.59375,590
541,1696251665216,0.08203125,-0.9673462,0.22747803,0.71875,4.234375,-3.53125,591
542,1696251665256,0.0014648438,-0.9378052,0.19036865,0.375,-2.5,0.265625,592
543,1696251665296,-0.017578125,-0.9819946,0.14178467,-2.109375,-2.8125,3.21875,593
544,1696251665336,0.009521484,-1.0046997,0.19403076,-1.53125,1.828125,-0.234375,594
545,1696251665376,0.079833984,-0.99346924,0.23480225,3.34375,5.09375,-3.96875,595
546,1696251665416,0.024658203,-0.9336548,0.1593628,-1.71875,-2.578125,1.1875,596
547,1696251665456,0.016113281,-0.95928955,0.16888428,-1.234375,-1.9375,3.53125,597
548,1696251665496,0.02319336,-1.00177,0.19647217,-0.421875,-0.484375,-0.796875,598
549,1696251665536,0.028808594,-1.0081177,0.20648193,-0.171875,3.703125,-0.5,599
550,1696251665576,0.0056152344,-0.95391846,0.17718506,-1.28125,-2.46875,2.0,600
551,1696251665616,0.03857422,-0.96954346,0.16522217,-0.984375,-0.6875,1.578125,601
552,1696251665656,0.04663086,-0.9961548,0.18743896,1.109375,1.6875,-0.15625,602
553,1696251665696,0.03173828,-0.99591064,0.23577881,0.734375,1.0,-0.09375,603
554,1696251665736,0.041503906,-0.973938,0.18060303,-4.796875,-0.5625,0.9375,604
555,1696251665776,0.052001953,-0.91412354,0.17425537,-1.578125,-0.53125,-0.078125,605
556,1696251665816,0.055419922,-1.0005493,0.20281982,-1.65625,-2.09375,-2.203125,606
557,1696251665856,0.045166016,-0.9834595,0.19036865,-2.4375,-3.34375,-2.375,607
558,1696251665896,0.021728516,-0.9524536,0.18304443,-2.078125,-2.765625,-0.140625,608
559,1696251665936,-0.010253906,-0.9644165,0.19256592,0.8125,-0.734375,0.859375,609
560,1696251665976,0.0034179688,-0.9702759,0.20159912,3.328125,3.84375,0.21875,610
561,1696251666016,0.045166016,-1.0020142,0.184021,2.28125,2.015625,0.578125,611
562,1696251666056,0.0637207,-0.9780884,0.17962646,-0.8125,-1.171875,3.875,612
563,1696251666096,0.0146484375,-0.9585571,0.19329834,-0.15625,-1.609375,3.8125,613
564,1696251666136,0.020263672,-0.975647,0.1954956,0.9375,0.96875,2.78125,614
565,1696251666176,0.060546875,-1.0044556,0.19769287,1.203125,1.578125,2.1875,615
566,1696251666216,0.072509766,-0.97979736,0.20599365,0.21875,-1.140625,0.34375,616
567,1696251666256,-0.023925781,-0.960022,0.17425537,-0.34375,-0.15625,0.8125,617
568,1696251666296,0.009765625,-0.9920044,0.18206787,1.546875,3.1875,0.859375,618
569,1696251666336,0.057373047,-0.98272705,0.17767334,-0.359375,3.265625,0.203125,619
570,1696251666376,0.068115234,-0.9439087,0.1762085,-1.265625,1.578125,0.046875,620
571,1696251666416,0.045654297,-0.9729614,0.19207764,-1.875,0.65625,0.359375,621
572,1696251666456,0.05810547,-0.9973755,0.18817139,0.84375,0.59375,0.953125,622
573,1696251666496,0.033691406,-0.9758911,0.19451904,0.46875,-1.0625,0.65625,623
574,1696251666536,0.028564453,-0.92437744,0.19207764,6.421875,3.84375,0.484375,624
575,1696251666576,0.046142578,-1.0081177,0.19696045,2.109375,-1.28125,2.734375,625
576,1696251666616,0.040039062,-0.9898071,0.13690186,-0.609375,-0.21875,2.3125,626
577,1696251666656,0.050048828,-0.9890747,0.20404053,-1.546875,4.34375,-0.734375,627
578,1696251666696,0.09838867,-0.92681885,0.1564331,-1.90625,2.671875,1.03125,628
579,1696251666736,0.09765625,-0.9397583,0.16937256,-1.453125,1.375,2.6875,629
580,1696251666776,0.10571289,-1.0344849,0.21722412,-2.953125,-4.484375,0.046875,630
581,1696251666816,0.009765625,-0.9746704,0.18597412,-1.4375,-3.828125,-2.859375,631
582,1696251666856,-0.005126953,-0.9312134,0.16326904,1.140625,0.515625,-1.65625,632
583,1696251666896,-0.029296875,-0.9585571,0.16912842,6.203125,11.125,2.203125,633
584,1696251666936,0.095947266,-0.9536743,0.20477295,3.59375,5.03125,6.046875,634
585,1696251666976,0.15600586,-1.0115356,0.20281982,8.796875,8.140625,0.375,635
586,1696251667016,0.109375,-0.96343994,0.13665771,3.15625,4.09375,-0.40625,636
587,1696251667056,0.025390625,-0.9512329,0.12982178,0.40625,0.40625,2.484375,637
588,1696251667096,0.03100586,-1.0442505,0.15350342,1.484375,3.25,-0.484375,638
589,1696251667136,0.072509766,-1.0579224,0.17010498,-1.203125,5.203125,-3.46875,639
590,1696251667176,0.083496094,-0.94317627,0.086120605,-0.0625,-7.78125,-3.5,640
591,1696251667216,0.06567383,-0.9019165,0.034362793,8.296875,-20.734375,-1.9375,641
592,1696251667256,0.10644531,-1.0855103,0.15228271,4.78125,-7.203125,-2.1875,642
593,1696251667296,0.22753906,-0.784729,0.09051514,2.875,8.203125,8.140625,643
594,1696251667336,0.0146484375,-1.1345825,0.2814331,2.15625,-6.546875,5.59375,644
595,1696251667376,-0.063964844,-1.015686,0.21087646,-4.015625,-7.359375,-3.96875,645
596,1696251667416,0.056152344,-0.8440552,0.16912842,0.9375,10.65625,-6.515625,646
597,1696251667456,0.21362305,-1.0422974,0.11248779,-2.78125,2.140625,-1.421875,647
598,1696251667496,0.12866211,-0.9859009,0.18182373,-4.75,-7.421875,-1.90625,648
599,1696251667536,-0.037597656,-0.96710205,0.12860107,-7.609375,-9.484375,-3.953125,649
600,1696251667576,-0.033203125,-0.9458618,0.13079834,4.109375,3.421875,-1.5,650
601,1696251667616,0.0949707,-1.0657349,0.18939209,-0.5,3.78125,3.03125,651
602,1696251667656,0.080566406,-1.0166626,0.17156982,-7.71875,-10.015625,-2.765625,652
603,1696251667696,0.017333984,-0.9273071,0.14813232,-0.109375,-5.078125,-1.703125,653
604,1696251667736,-0.008300781,-0.9585571,0.17889404,7.046875,2.671875,3.9375,654
605,1696251667776,0.08496094,-1.0610962,0.2423706,8.8125,9.5,2.21875,655
606,1696251667816,0.031982422,-0.95806885,0.14984131,4.296875,7.359375,-0.109375,656
607,1696251667856,0.05126953,-0.95318604,0.121276855,-4.609375,2.46875,1.6875,657
608,1696251667896,0.027832031,-0.99591064,0.109802246,-8.078125,-6.5,1.875,658
609,1696251667936,0.038085938,-0.9390259,0.019226074,5.765625,-13.140625,-0.3125,659
610,1696251667976,0.037353516,-0.9651489,0.11981201,12.734375,-15.109375,-0.703125,660
611,1696251668016,0.14575195,-0.88848877,0.1486206,-3.25,-6.640625,5.453125,661
612,1696251668056,0.08227539,-1.1409302,0.16204834,-3.53125,-5.546875,7.984375,662
613,1696251668096,0.010253906,-0.9846802,0.21331787,-4.359375,-2.40625,2.5625,663
614,1696251668136,0.011474609,-0.9378052,0.21087646,2.828125,-0.015625,-6.8125,664
615,1696251668176,0.05029297,-0.89385986,0.1798706,3.5,0.203125,-3.109375,665
616,1696251668216,0.111328125,-0.958313,0.13446045,-6.296875,-1.390625,5.328125,666
617,1696251668256,0.040039062,-1.0828247,0.19232178,-5.640625,-4.34375,2.109375,667
618,1696251668296,0.026367188,-1.0200806,0.11224365,-1.375,-0.984375,-4.078125,668
619,1696251668336,-0.0041503906,-0.8809204,0.16278076,-2.5625,1.0625,1.390625,669
620,1696251668376,0.11279297,-0.96221924,0.1552124,-5.8125,-0.71875,1.578125,670
621,1696251668416,0.14477539,-1.0535278,0.22479248,0.171875,-5.140625,-2.171875,671
622,1696251668456,-0.017822266,-0.97320557,0.17572021,-1.125,-7.421875,-2.09375,672
623,1696251668496,-0.033203125,-0.90631104,0.1605835,-2.125,0.765625,0.53125,673
624,1696251668536,0.083496094,-1.0256958,0.16351318,-0.453125,4.28125,-0.703125,674
625,1696251668576,0.16259766,-1.0325317,0.2177124,3.109375,3.015625,-4.8125,675
626,1696251668616,0.0026855469,-0.91119385,0.17645264,-4.71875,-8.65625,-0.21875,676
627,1696251668656,-0.03857422,-0.9680786,0.17449951,-1.984375,-1.734375,4.0,677
628,1696251668696,0.041748047,-1.0567017,0.17962646,1.609375,4.109375,0.359375,678
629,1696251668736,0.104003906,-0.98028564,0.21917725,0.015625,4.140625,-3.78125,679
630,1696251668776,0.008544922,-0.909729,0.14007568,-4.40625,-4.5,1.96875,680
631,1696251668816,0.06616211,-0.9907837,0.17816162,-0.484375,3.296875,0.84375,681
632,1696251668856,0.017333984,-1.0435181,0.20452881,-1.921875,1.390625,-2.328125,682
633,1696251668896,0.028808594,-0.97052,0.1918335,-2.671875,2.609375,-1.796875,683
634,1696251668936,0.03881836,-0.9060669,0.16204834,-0.90625,4.328125,1.84375,684
635,1696251668976,0.09838867,-0.9956665,0.20965576,-0.8125,-1.6875,0.8125,685
636,1696251669016,0.048583984,-1.0078735,0.20794678,-0.40625,-4.03125,-0.9375,686
637,1696251669056,0.03466797,-0.9524536,0.17474365,0.28125,-0.28125,-0.078125,687
638,1696251669096,0.013427734,-0.9522095,0.16986084,-2.203125,-2.0,4.515625,688
639,1696251669136,0.118652344,-0.9788208,0.22601318,-1.125,1.421875,1.3125,689
640,1696251669176,0.084228516,-0.9998169,0.22454834,0.453125,-4.703125,-1.65625,690
641,1696251669216,0.010986328,-0.9651489,0.17230225,-2.09375,-5.75,2.53125,691
642,1696251669256,0.027832031,-0.9717407,0.19085693,-0.203125,-2.375,2.84375,692
643,1696251669296,0.052734375,-0.9717407,0.19818115,1.671875,-2.375,-0.375,693
644,1696251669336,0.044433594,-1.0093384,0.2255249,-0.421875,-0.84375,0.828125,694
645,1696251669376,0.044433594,-0.9573364,0.17913818,-0.3125,-2.46875,-1.046875,695
646,1696251669416,0.0107421875,-0.95025635,0.1984253,-0.390625,-1.65625,1.96875,696
647,1696251669456,0.015136719,-0.9807739,0.23724365,2.171875,0.3125,0.125,697
648,1696251669496,-0.039794922,-1.0090942,0.17474365,2.0625,3.015625,4.078125,698
649,1696251669536,0.08105469,-0.9873657,0.19403076,3.265625,7.390625,3.125,699
650,1696251669576,0.15698242,-0.9380493,0.1552124,2.890625,1.421875,-2.734375,700
651,1696251669616,0.08886719,-0.97320557,0.1552124,4.828125,0.90625,-0.3125,701
652,1696251669656,0.079589844,-1.0527954,0.20550537,14.859375,9.6875,2.34375,702
653,1696251669696,0.033203125,-0.96051025,0.16888428,0.46875,-0.609375,3.34375,703
654,1696251669736,-0.022949219,-0.8777466,0.1437378,-5.4375,2.421875,4.1875,704
655,1696251669776,-0.009521484,-0.98687744,0.21014404,2.078125,7.0,3.484375,705
656,1696251669816,0.07910156,-0.991272,0.10101318,0.75,-2.515625,1.640625,706
657,1696251669856,0.25830078,-1.048645,0.12200928,13.125,-9.46875,-1.5625,707
658,1696251669896,0.13354492,-0.909729,0.10321045,0.765625,-1.78125,0.234375,708
659,1696251669936,0.043701172,-0.91412354,0.10443115,-12.171875,-4.15625,2.921875,709
660,1696251669976,0.0021972656,-1.0310669,0.19134521,0.765625,-4.109375,-3.1875,710
661,1696251670016,0.114746094,-1.060852,0.27459717,0.578125,7.765625,-4.484375,711
662,1696251670056,0.055664062,-0.94854736,0.21697998,-7.3125,-9.984375,-2.71875,712
663,1696251670096,0.01977539,-0.9126587,0.11956787,-2.1875,-0.15625,1.375,713
664,1696251670136,0.051513672,-1.0283813,0.18743896,-4.484375,-5.875,-0.5625,714
665,1696251670176,0.10253906,-0.9714966,0.13031006,-3.609375,-3.0,-3.578125,715
666,1696251670216,0.080566406,-0.960022,0.13739014,-3.796875,-1.84375,-1.59375,716
667,1696251670256,0.0146484375,-0.9434204,0.21795654,-0.765625,-0.296875,2.0625,717
668,1696251670296,-0.011230469,-1.0195923,0.1762085,-4.09375,-6.140625,0.59375,718
669,1696251670336,0.03173828,-1.0325317,0.19329834,-3.65625,0.484375,-2.140625,719
670,1696251670376,0.12231445,-0.9212036,0.21697998,2.0,6.78125,-5.921875,720
671,1696251670416,0.038330078,-0.942688,0.1708374,-3.890625,-1.203125,0.6875,721
672,1696251670456,0.083496094,-0.9849243,0.20062256,0.359375,2.8125,1.078125,722
673,1696251670496,0.05834961,-1.0076294,0.21624756,2.03125,-0.84375,-1.40625,723
674,1696251670536,-0.022460938,-0.960022,0.18865967,-1.796875,-1.234375,3.015625,724
675,1696251670576,0.006591797,-0.9636841,0.21795654,-0.203125,2.15625,3.9375,725
676,1696251670616,0.06958008,-1.0459595,0.22625732,11.90625,10.859375,3.984375,726
677,1696251670656,0.056884766,-0.9199829,0.18157959,3.875,10.9375,4.84375,727
678,1696251670696,0.09692383,-0.92266846,0.1552124,-5.5625,5.75,5.984375,728
679,1696251670736,0.12109375,-1.0388794,0.18792725,0.1875,5.0625,2.1875,729
680,1696251670776,0.109375,-1.0388794,0.16790771,-2.453125,-3.640625,-2.359375,730
681,1696251670816,0.08520508,-0.90875244,0.1461792,-5.0625,-16.46875,-6.078125,731
682,1696251670856,-0.018554688,-0.93536377,0.078063965,16.921875,-11.75,-3.765625,732
683,1696251670896,0.095458984,-1.0808716,0.19818115,-7.265625,-4.5,-2.296875,733
684,1696251670936,0.06518555,-0.8809204,0.1552124,-5.09375,-2.71875,0.625,734
685,1696251670976,-0.021484375,-1.060852,0.22406006,4.171875,-6.609375,-3.21875,735
686,1696251671016,0.1550293,-0.9451294,0.18255615,0.140625,15.09375,-7.421875,736
687,1696251671056,0.051513672,-0.90753174,0.24822998,0.5,-9.359375,3.4375,737
688,1696251671096,0.057861328,-0.9614868,0.17669678,-1.75,-1.921875,3.859375,738
689,1696251671136,-0.037597656,-1.0645142,0.1852417,-3.171875,-5.265625,1.59375,739
690,1696251671176,0.08105469,-0.94122314,0.19451904,4.765625,2.015625,-3.921875,740
691,1696251671216,0.06518555,-0.93756104,0.1564331,-0.78125,0.5625,1.921875,741
692,1696251671256,0.08544922,-0.96099854,0.1749878,-3.359375,0.453125,2.609375,742
693,1696251671296,0.08935547,-1.0361938,0.18988037,-0.765625,-2.984375,-1.90625,743
694,1696251671336,0.043945312,-1.0410767,0.22259521,1.71875,-3.0,-4.28125,744
695,1696251671376,-0.02319336,-0.9573364,0.17669678,-1.453125,-4.578125,3.125,745
696,1696251671416,0.01928711,-0.8921509,0.16888428,-1.890625,-0.421875,5.609375,746
697,1696251671456,0.091308594,-1.0349731,0.18963623,1.515625,2.21875,2.578125,747
698,1696251671496,0.10473633,-1.0559692,0.23602295,-0.015625,-0.859375,-3.421875,748
699,1696251671536,0.032714844,-0.8965454,0.14959717,-0.46875,-3.25,-2.265625,749
700,1696251671576,-0.021240234,-0.9348755,0.1395874,-0.390625,-1.484375,5.0,750
701,1696251671616,0.06738281,-1.048645,0.21722412,0.125,4.359375,0.140625,751
702,1696251671656,0.11401367,-1.0281372,0.22747803,3.484375,3.078125,-4.09375,752
703,1696251671696,0.042236328,-0.8804321,0.1749878,3.4375,-0.6875,-0.90625,753
704,1696251671736,0.0048828125,-0.9126587,0.13226318,0.1875,-2.53125,7.1875,754
705,1696251671776,0.07055664,-1.0698853,0.1954956,2.75,-1.5625,5.078125,755
706,1696251671816,0.057861328,-1.0713501,0.1642456,1.78125,-5.125,-3.375,756
707,1696251671856,0.04663086,-0.8855591,0.15814209,0.65625,0.5625,-2.5625,757
708,1696251671896,0.040039062,-0.92144775,0.16473389,1.0,1.046875,3.5,758
709,1696251671936,0.05419922,-1.0271606,0.16888428,-2.921875,-1.28125,4.015625,759
710,1696251671976,0.033935547,-1.0408325,0.21331787,-0.640625,-0.734375,-2.328125,760
711,1696251672016,0.038330078,-0.956604,0.1630249,2.09375,0.640625,-2.65625,761
712,1696251672056,0.08227539,-0.9036255,0.11175537,0.734375,2.484375,0.96875,762
713,1696251672096,0.08325195,-0.94195557,0.18328857,0.6875,1.53125,3.34375,763
714,1696251672136,0.06225586,-1.0757446,0.20233154,-1.4375,-0.625,-0.796875,764
715,1696251672176,0.0234375,-1.0300903,0.1317749,3.953125,-0.828125,-1.734375,765
716,1696251672216,0.13061523,-0.90338135,0.14324951,1.984375,3.4375,-3.265625,766
717,1696251672256,0.09301758,-0.91412354,0.18621826,0.296875,-2.265625,3.59375,767
718,1696251672296,0.010009766,-1.0064087,0.19207764,-2.046875,-2.296875,4.84375,768
719,1696251672336,0.05908203,-1.0940552,0.16693115,2.859375,-1.453125,0.109375,769
720,1696251672376,0.056884766,-0.909729,0.14788818,2.078125,1.40625,-3.90625,770
721,1696251672416,0.075683594,-0.9456177,0.13812256,2.0,0.953125,4.6875,771
722,1696251672456,0.08178711,-0.954895,0.15716553,-0.90625,-1.078125,5.40625,772
723,1696251672496,0.07324219,-1.052063,0.19256592,-3.171875,0.0,-0.15625,773
724,1696251672536,0.06738281,-0.98443604,0.1539917,-0.625,-2.90625,-4.171875,774
725,1696251672576,0.06616211,-0.88482666,0.13787842,-0.046875,1.0,1.296875,775
726,1696251672616,0.0847168,-1.00177,0.18035889,-0.234375,-0.4375,5.171875,776
727,1696251672656,0.03564453,-1.0029907,0.18743896,-2.796875,-3.484375,-0.546875,777
728,1696251672696,-0.0078125,-0.95098877,0.14202881,-3.140625,2.890625,0.234375,778
729,1696251672736,0.13500977,-1.0542603,0.15008545,2.546875,0.6875,-3.859375,779
730,1696251672776,0.14501953,-0.94903564,0.13739014,-3.421875,0.265625,-7.0625,780
731,1696251672816,0.0146484375,-0.9402466,0.17376709,-0.1875,-3.375,0.390625,781
732,1696251672856,-0.0021972656,-0.97857666,0.20135498,-0.375,4.359375,2.796875,782
733,1696251672896,0.040527344,-1.0137329,0.27703857,7.9375,13.265625,-1.15625,783
734,1696251672936,0.017089844,-0.94976807,0.12054443,-2.40625,7.78125,3.609375,784
735,1696251672976,0.07543945,-0.92510986,0.10882568,-4.09375,-3.46875,4.921875,785
736,1696251673016,0.16088867,-1.0430298,0.13104248,-2.515625,4.0,4.625,786
737,1696251673056,0.20043945,-1.0310669,0.18035889,-4.953125,-8.578125,-2.75,787
738,1696251673096,0.13427734,-0.9360962,0.1852417,4.59375,-13.734375,-4.5625,788
739,1696251673136,0.05810547,-1.1221313,0.0602417,13.03125,-10.6875,2.390625,789
740,1696251673176,-0.018554688,-0.8369751,0.2526245,-5.921875,2.640625,-7.828125,790
741,1696251673216,-0.072265625,-0.8406372,0.11981201,-1.375,2.78125,3.046875,791
742,1696251673256,0.09863281,-1.1067505,0.20233154,2.6875,8.25,2.625,792
743,1696251673296,0.15942383,-0.9951782,0.21356201,-0.625,1.625,-1.546875,793
744,1696251673336,0.028076172,-1.0037231,0.04095459,-2.109375,-9.578125,1.3125,794
745,1696251673376,0.11694336,-0.9468384,0.2909546,4.0625,3.390625,-1.640625,795
746,1696251673416,-0.017822266,-0.9290161,0.12884521,3.453125,-1.015625,6.09375,796
747,1696251673456,0.11206055,-0.9890747,0.16937256,3.84375,2.21875,7.453125,797
748,1696251673496,0.08178711,-1.0586548,0.13787842,3.5,-0.078125,4.25,798
749,1696251673536,0.1538086,-0.94000244,0.18817139,5.765625,3.6875,-2.78125,799
750,1696251673576,0.06567383,-0.9102173,0.1486206,3.3125,-8.84375,-0.015625,800
751,1696251673616,0.056396484,-0.9758911,0.13763428,0.015625,1.3125,4.796875,801
752,1696251673656,0.08105469,-1.0391235,0.18011475,-0.078125,-2.578125,-0.140625,802
753,1696251673696,0.0146484375,-1.0576782,0.101257324,-2.671875,-5.234375,-0.765625,803
754,1696251673736,0.07543945,-0.9512329,0.1395874,-3.296875,0.75,-2.96875,804
755,1696251673776,0.056152344,-0.95513916,0.11663818,-4.21875,0.0625,0.765625,805
756,1696251673816,0.15161133,-0.9956665,0.15423584,-4.8125,-1.015625,-1.84375,806
757,1696251673856,0.04296875,-0.95806885,0.16351318,-4.671875,-1.453125,-5.25,807
758,1696251673896,-0.015136719,-0.98223877,0.13470459,-4.5,1.375,-2.03125,808
759,1696251673936,0.029785156,-0.9553833,0.20013428,-1.84375,10.359375,-3.796875,809
