,timestamp,accel_x,accel_y,accel_z,gyro_x,gyro_y,gyro_z,ind
0,1696251571073,0.036376953,-0.97076416,0.20550537,0.015625,3.9375,-1.328125,0
1,1696251571113,-0.00390625,-0.97735596,0.21673584,1.40625,-3.65625,1.5625,31
2,1696251571153,-0.0024414062,-0.96343994,0.23065186,1.453125,-3.59375,0.796875,32
3,1696251571193,-0.01928711,-0.99224854,0.20965576,1.203125,-1.34375,1.328125,33
4,1696251571233,-0.004638672,-0.9783325,0.21185303,0.078125,-1.109375,1.3125,34
5,1696251571273,0.0031738281,-0.94317627,0.21600342,1.671875,-1.328125,0.96875,35
6,1696251571313,0.008544922,-0.9644165,0.20965576,2.453125,-0.84375,1.375,36
7,1696251571353,0.007080078,-0.9981079,0.21429443,1.796875,-0.828125,1.046875,37
8,1696251571393,0.00390625,-0.97662354,0.20697021,2.109375,-1.703125,0.921875,38
9,1696251571433,0.013916016,-0.96832275,0.18988037,2.875,-1.234375,0.8125,39
10,1696251571473,0.03564453,-0.9678345,0.20037842,2.390625,-1.34375,0.796875,40
11,1696251571513,0.016113281,-0.986145,0.19818115,1.3125,-2.453125,1.078125,41
12,1696251571553,-0.007080078,-0.98565674,0.18939209,1.53125,-2.546875,1.171875,42
13,1696251571593,0.0146484375,-0.9678345,0.18206787,3.21875,-2.40625,0.921875,43
14,1696251571633,0.014892578,-0.97491455,0.1774292,2.09375,-3.203125,1.046875,44
15,1696251571673,0.010009766,-0.98760986,0.20452881,0.09375,-1.09375,0.609375,45
16,1696251571713,-0.0014648438,-0.98883057,0.19915771,0.8125,-0.296875,0.203125,46
17,1696251571753,0.010253906,-0.96954346,0.18035889,0.859375,-0.25,-0.6875,47
18,1696251571793,0.020751953,-0.97198486,0.18963623,0.328125,0.9375,-0.046875,48
19,1696251571833,0.01171875,-0.99005127,0.18695068,1.140625,-0.5625,0.515625,49
20,1696251571873,0.01586914,-0.986145,0.17279053,0.234375,-1.53125,0.515625,50
21,1696251571913,0.014404297,-0.97857666,0.18377686,-0.40625,-1.0,0.359375,51
22,1696251571953,0.030273438,-0.9612427,0.18304443,0.796875,-1.546875,-0.109375,52
23,1696251571993,0.011962891,-0.972229,0.18328857,-0.640625,-1.234375,0.09375,53
24,1696251572033,0.007080078,-0.99053955,0.18157959,-0.078125,-1.359375,0.0625,54
25,1696251572073,0.008544922,-0.98321533,0.18426514,-1.75,-0.765625,0.265625,55
26,1696251572113,0.011962891,-0.96588135,0.18670654,-0.09375,0.046875,-0.21875,56
27,1696251572153,0.01586914,-0.97906494,0.19256592,1.65625,0.140625,0.296875,57
28,1696251572193,0.00390625,-0.98687744,0.18328857,-0.296875,-0.953125,0.46875,58
29,1696251572233,0.0075683594,-0.9812622,0.17279053,1.0625,-0.453125,-0.03125,59
30,1696251572273,0.021728516,-0.9636841,0.18060303,0.78125,0.484375,-0.4375,60
31,1696251572313,0.012207031,-0.9788208,0.18963623,-0.140625,0.078125,-0.09375,61
32,1696251572353,0.010498047,-0.9812622,0.18084717,-0.78125,-1.15625,-0.21875,62
33,1696251572393,0.010498047,-0.97857666,0.17376709,-1.078125,-0.890625,-0.71875,63
34,1696251572433,0.0024414062,-0.9776001,0.1876831,-0.703125,-0.046875,-0.125,64
35,1696251572473,0.01928711,-0.9788208,0.19036865,0.28125,0.34375,0.46875,65
36,1696251572513,0.015136719,-0.98394775,0.18988037,0.015625,-1.109375,-0.015625,66
37,1696251572553,-0.00024414062,-0.98321533,0.1786499,-0.0625,-1.21875,-0.375,67
38,1696251572593,0.0012207031,-0.9758911,0.17279053,0.640625,-0.1875,0.09375,68
39,1696251572633,0.009033203,-0.9819946,0.18841553,1.25,0.5,0.203125,69
40,1696251572673,0.0107421875,-0.98638916,0.1774292,0.6875,0.0,-0.34375,70
41,1696251572713,0.0087890625,-0.9751587,0.17059326,0.328125,0.03125,-0.453125,71
42,1696251572753,0.0043945312,-0.9776001,0.1774292,0.5,0.765625,0.046875,72
43,1696251572793,0.00390625,-0.97613525,0.17938232,0.265625,0.1875,0.421875,73
44,1696251572833,0.013427734,-0.97735596,0.184021,0.5625,0.953125,-0.484375,74
45,1696251572873,0.013916016,-0.9758911,0.1671753,-0.484375,0.34375,-0.3125,75
46,1696251572913,0.008544922,-0.9902954,0.17474365,0.03125,-0.53125,0.015625,76
47,1696251572953,0.0073242188,-0.96881104,0.18499756,-0.703125,-0.46875,-0.171875,77
48,1696251572993,-0.007080078,-0.97052,0.17547607,-1.625,-0.53125,-0.140625,78
49,1696251573033,-0.0034179688,-0.98394775,0.18597412,-1.328125,0.53125,-0.046875,79
50,1696251573073,0.007080078,-0.98150635,0.19281006,-0.84375,0.84375,-0.0625,80
51,1696251573113,0.009277344,-0.973938,0.18743896,-0.921875,-0.484375,-0.078125,81
52,1696251573153,-0.004638672,-0.97491455,0.18328857,-2.328125,-0.734375,0.484375,82
53,1696251573193,-0.007080078,-0.98516846,0.20355225,-1.953125,0.15625,0.546875,83
54,1696251573233,0.0063476562,-0.9729614,0.18817139,-1.953125,1.03125,0.375,84
55,1696251573273,0.009521484,-0.9734497,0.18304443,-0.171875,-1.0,1.265625,85
56,1696251573313,0.0014648438,-0.97613525,0.20550537,-1.46875,-1.0,1.921875,86
57,1696251573353,0.00390625,-0.98223877,0.20574951,-0.140625,-0.21875,0.5625,87
58,1696251573393,0.0014648438,-0.97784424,0.19500732,-3.140625,-0.8125,0.875,88
59,1696251573433,0.020019531,-0.96539307,0.19696045,-2.78125,0.484375,0.28125,89
60,1696251573473,0.0026855469,-0.98321533,0.20159912,0.0,-0.6875,0.640625,90
61,1696251573513,0.0078125,-0.9859009,0.20257568,-1.875,-1.640625,0.65625,91
62,1696251573553,0.009765625,-0.96832275,0.21014404,-2.5,-0.9375,0.140625,92
63,1696251573593,0.0009765625,-0.9639282,0.20648193,-0.609375,-0.265625,0.53125,93
64,1696251573633,0.018554688,-0.9849243,0.20843506,0.328125,-1.453125,0.75,94
65,1696251573673,0.012451172,-0.9741821,0.21380615,-1.0,-2.234375,0.46875,95
66,1696251573713,0.0061035156,-0.97003174,0.2074585,0.5,-0.921875,0.015625,96
67,1696251573753,0.0041503906,-0.9734497,0.20526123,1.5625,-0.6875,0.859375,97
68,1696251573793,0.015136719,-0.9841919,0.20965576,1.4375,0.046875,0.46875,98
69,1696251573833,0.0073242188,-0.9746704,0.20697021,-1.046875,-0.671875,0.71875,99
70,1696251573873,0.010986328,-0.9668579,0.21014404,1.78125,-0.015625,0.46875,100
71,1696251573913,0.018798828,-0.9819946,0.20184326,2.375,-0.265625,0.53125,101
72,1696251573953,0.0234375,-0.97442627,0.20281982,1.484375,-0.390625,0.703125,102
73,1696251573993,0.020751953,-0.9697876,0.19891357,1.28125,-0.6875,0.390625,103
74,1696251574033,0.018310547,-0.9727173,0.19891357,2.46875,-1.1875,0.6875,104
75,1696251574073,0.007080078,-0.99053955,0.19915771,1.96875,-1.09375,1.203125,105
76,1696251574113,0.016601562,-0.9685669,0.19110107,1.84375,-1.03125,0.5625,106
77,1696251574153,0.018554688,-0.9829712,0.1876831,1.34375,-0.796875,1.03125,107
78,1696251574193,0.020507812,-0.9751587,0.18865967,0.703125,-1.203125,1.078125,108
79,1696251574233,0.021728516,-0.9758911,0.18572998,1.421875,-0.640625,0.34375,109
80,1696251574273,0.020263672,-0.9692993,0.17181396,1.234375,-1.40625,0.0625,110
81,1696251574313,0.029296875,-0.9741821,0.1786499,1.78125,-1.078125,0.109375,111
82,1696251574353,0.016357422,-0.98443604,0.18426514,0.65625,-0.328125,-0.296875,112
83,1696251574393,0.018798828,-0.9951782,0.17938232,1.15625,-0.78125,-0.40625,113
84,1696251574433,0.017822266,-0.9663696,0.17523193,0.703125,-0.328125,-0.5,114
85,1696251574473,0.009277344,-0.97613525,0.17327881,0.40625,-0.6875,-0.34375,115
86,1696251574513,0.013183594,-0.986145,0.17254639,-0.15625,-0.28125,0.046875,116
87,1696251574553,0.024658203,-0.98101807,0.18255615,-0.546875,-0.609375,-0.046875,117
88,1696251574593,0.016357422,-0.97784424,0.17352295,0.0625,-0.53125,-0.59375,118
89,1696251574633,0.017578125,-0.975647,0.17547607,0.0625,-0.671875,-0.0625,119
90,1696251574673,0.010498047,-0.97613525,0.1749878,-0.3125,-1.015625,0.046875,120
91,1696251574713,0.017089844,-0.9883423,0.17767334,-0.40625,-0.78125,-0.34375,121
92,1696251574753,0.02368164,-0.9717407,0.17840576,-0.640625,0.09375,-1.40625,122
93,1696251574793,-0.009521484,-0.98321533,0.17474365,-2.21875,-0.546875,-0.359375,123
94,1696251574833,0.013916016,-0.98028564,0.184021,-0.390625,0.765625,-0.40625,124
95,1696251574873,0.011962891,-0.986145,0.17889404,-0.890625,0.90625,-0.515625,125
96,1696251574913,0.01977539,-0.9795532,0.1774292,-1.03125,0.265625,-0.875,126
97,1696251574953,0.010009766,-0.98223877,0.19525146,-0.265625,0.90625,0.15625,127
98,1696251574993,0.0031738281,-0.98028564,0.18743896,-1.234375,-0.515625,0.328125,128
99,1696251575033,0.011962891,-0.97540283,0.18719482,-0.390625,-0.34375,-0.109375,129
100,1696251575073,0.005126953,-0.97540283,0.18475342,-1.3125,-0.84375,0.15625,130
101,1696251575113,-0.0024414062,-0.98565674,0.18719482,-0.90625,-0.21875,0.421875,131
102,1696251575153,0.009033203,-0.9824829,0.18743896,-0.796875,0.71875,0.03125,132
103,1696251575193,0.0075683594,-0.97442627,0.18890381,-0.09375,-0.359375,-0.0625,133
104,1696251575233,0.0075683594,-0.9758911,0.18792725,0.03125,-0.90625,-0.21875,134
105,1696251575273,0.012451172,-0.9817505,0.1852417,-0.828125,-0.234375,0.53125,135
106,1696251575313,0.014892578,-0.9727173,0.19525146,0.40625,-0.53125,-0.078125,136
107,1696251575353,0.008300781,-0.9751587,0.18743896,-0.203125,-0.453125,0.078125,137
108,1696251575393,0.0012207031,-0.97906494,0.19354248,0.15625,-0.34375,0.328125,138
109,1696251575433,-0.0031738281,-0.98321533,0.1918335,-0.390625,-0.125,-0.125,139
110,1696251575473,0.010009766,-0.98321533,0.1930542,-0.453125,-0.015625,-0.40625,140
111,1696251575513,0.005126953,-0.9780884,0.18304443,-0.421875,-0.921875,-0.109375,141
112,1696251575553,0.01586914,-0.9776001,0.20379639,-0.421875,-0.03125,-0.390625,142
113,1696251575593,0.018066406,-0.98272705,0.18817139,-0.125,0.15625,-0.40625,143
114,1696251575633,0.008544922,-0.97198486,0.18939209,0.046875,-1.015625,-0.296875,144
115,1696251575673,0.0061035156,-0.9834595,0.19403076,-0.671875,-1.0625,0.078125,145
116,1696251575713,0.0026855469,-0.9758911,0.19085693,-2.203125,-0.1875,-0.4375,146
117,1696251575753,0.009521484,-0.9639282,0.20184326,-1.40625,0.375,0.0625,147
118,1696251575793,0.001953125,-0.97857666,0.20550537,-1.453125,0.46875,0.453125,148
119,1696251575833,0.011962891,-0.98687744,0.21478271,-0.546875,0.328125,0.265625,149
120,1696251575873,-0.007080078,-0.987854,0.19158936,-1.25,-0.109375,0.359375,150
121,1696251575913,0.0126953125,-0.9714966,0.19720459,0.453125,0.125,0.953125,151
122,1696251575953,0.008300781,-0.9692993,0.20819092,0.375,-1.15625,1.609375,152
123,1696251575993,0.0063476562,-0.98516846,0.20233154,0.25,-0.59375,1.40625,153
124,1696251576033,-0.00024414062,-0.9795532,0.19891357,1.25,-0.125,0.625,154
125,1696251576073,0.00024414062,-0.9702759,0.184021,2.703125,1.0625,0.953125,155
126,1696251576113,0.024414062,-0.9871216,0.1930542,6.0,1.9375,0.25,156
127,1696251576153,0.012451172,-0.975647,0.18963623,3.796875,-0.578125,0.46875,157
128,1696251576193,-0.0041503906,-0.9758911,0.17962646,1.328125,0.3125,0.71875,158
129,1696251576233,0.0048828125,-0.9717407,0.18597412,0.328125,0.5625,0.109375,159
130,1696251576273,0.017089844,-0.99298096,0.17230225,-0.078125,-0.234375,0.078125,160
131,1696251576313,0.022949219,-0.9768677,0.18035889,0.578125,-0.1875,0.203125,161
132,1696251576353,0.011474609,-0.975647,0.17840576,0.71875,-0.140625,0.65625,162
133,1696251576393,0.018310547,-0.9800415,0.17767334,0.21875,-0.765625,-0.28125,163
134,1696251576433,0.0126953125,-0.9846802,0.18060303,-0.015625,-0.828125,0.53125,164
135,1696251576473,0.0126953125,-0.9898071,0.17816162,-0.21875,-0.984375,0.96875,165
136,1696251576513,0.012939453,-0.9741821,0.17913818,-1.140625,-1.09375,0.625,166
137,1696251576553,0.016357422,-0.98931885,0.184021,-2.234375,-0.625,1.078125,167
138,1696251576593,-0.00390625,-0.98883057,0.18231201,-2.65625,-0.90625,0.8125,168
139,1696251576633,0.024658203,-0.975647,0.18597412,-1.453125,-0.015625,0.609375,169
140,1696251576673,0.04296875,-0.96295166,0.18621826,-1.890625,0.609375,0.21875,170
141,1696251576713,0.034423828,-0.97540283,0.19525146,-0.46875,-0.421875,-0.34375,171
142,1696251576753,0.017822266,-0.98223877,0.19500732,-0.640625,-2.53125,0.015625,172
143,1696251576793,0.0031738281,-0.9871216,0.18743896,-1.03125,-2.15625,0.515625,173
144,1696251576833,0.017822266,-0.9651489,0.18719482,-1.203125,-1.46875,0.375,174
145,1696251576873,0.013427734,-0.9824829,0.18499756,0.625,-0.859375,0.96875,175
146,1696251576913,0.033447266,-0.9800415,0.2008667,0.28125,-1.046875,-0.015625,176
147,1696251576953,0.0126953125,-0.97906494,0.19671631,0.5625,-1.21875,-0.171875,177
148,1696251576993,0.006591797,-0.97247314,0.19940186,1.421875,-0.734375,-0.203125,178
149,1696251577033,0.009765625,-0.9734497,0.1954956,0.6875,-0.421875,0.0,179
150,1696251577073,0.024658203,-0.98760986,0.18890381,0.9375,-0.53125,-0.1875,180
151,1696251577113,0.029296875,-0.98272705,0.1864624,0.78125,-1.8125,-0.34375,181
152,1696251577153,0.007080078,-0.9758911,0.19110107,1.171875,-1.71875,0.359375,182
153,1696251577193,0.0026855469,-0.972229,0.1828003,0.75,-1.59375,0.421875,183
154,1696251577233,-0.008544922,-0.9805298,0.1786499,0.21875,-0.796875,0.546875,184
155,1696251577273,0.015380859,-0.9812622,0.1906128,1.484375,0.921875,0.171875,185
156,1696251577313,0.020263672,-0.97247314,0.1786499,0.15625,0.015625,-0.140625,186
157,1696251577353,0.018066406,-0.9795532,0.1942749,0.71875,0.765625,-0.21875,187
158,1696251577393,-0.0048828125,-0.98809814,0.1786499,-1.34375,-0.203125,0.40625,188
159,1696251577433,0.01953125,-0.98223877,0.18890381,0.53125,1.25,-0.5,189
160,1696251577473,0.025390625,-0.9741821,0.17913818,-0.796875,-0.203125,-0.46875,190
161,1696251577513,0.011230469,-0.9776001,0.17694092,-0.828125,-0.296875,-0.203125,191
162,1696251577553,0.009033203,-0.9783325,0.19281006,-1.671875,-0.015625,-0.40625,192
163,1696251577593,0.0043945312,-0.9871216,0.18963623,-0.703125,-0.125,-0.296875,193
164,1696251577633,0.032226562,-0.97125244,0.18157959,-0.796875,-0.71875,-0.28125,194
165,1696251577673,0.016601562,-0.97125244,0.1954956,0.625,-0.046875,-0.8125,195
166,1696251577713,0.0017089844,-0.98443604,0.18792725,0.171875,-0.984375,0.1875,196
167,1696251577753,0.0,-0.9907837,0.1828003,0.515625,-0.75,0.359375,197
168,1696251577793,0.008300781,-0.98101807,0.18206787,-1.140625,-0.953125,-0.203125,198
169,1696251577833,0.013183594,-0.96881104,0.19158936,0.265625,0.015625,-0.0625,199
170,1696251577873,0.023925781,-0.9746704,0.19378662,0.03125,0.3125,-0.234375,200
171,1696251577913,0.0026855469,-0.9871216,0.18988037,-1.203125,-1.640625,0.015625,201
172,1696251577953,-0.0017089844,-0.9771118,0.19793701,-0.140625,-1.0625,-0.03125,202
173,1696251577993,0.008300781,-0.9780884,0.18963623,-0.390625,0.703125,-0.171875,203
174,1696251578033,0.0026855469,-0.98687744,0.19110107,0.203125,-0.28125,-0.015625,204
175,1696251578073,0.0031738281,-0.97735596,0.1930542,-0.703125,-0.6875,0.0625,205
176,1696251578113,0.001953125,-0.9817505,0.19232178,-0.484375,0.109375,0.015625,206
177,1696251578153,0.0078125,-0.96759033,0.18939209,-1.578125,0.125,-0.4375,207
178,1696251578193,0.0041503906,-0.9837036,0.19281006,-2.515625,-0.890625,-0.296875,208
179,1696251578233,0.009521484,-0.986145,0.21453857,-1.53125,0.71875,0.03125,209
180,1696251578273,0.004638672,-0.9697876,0.1918335,-2.03125,-0.84375,0.25,210
181,1696251578313,-0.0021972656,-0.9751587,0.1984253,-3.234375,-1.109375,0.609375,211
182,1696251578353,0.0026855469,-0.9768677,0.22039795,-7.828125,-1.703125,1.3125,212
183,1696251578393,0.0043945312,-0.956604,0.2255249,-2.546875,0.859375,1.65625,213
184,1696251578433,0.018310547,-1.0056763,0.2267456,0.859375,-0.296875,0.140625,214
185,1696251578473,0.0078125,-0.9768677,0.21234131,-0.359375,1.625,0.515625,215
186,1696251578513,-0.0026855469,-0.9573364,0.21209717,1.90625,0.015625,1.109375,216
187,1696251578553,0.016601562,-0.96343994,0.2267456,1.09375,-0.4375,0.828125,217
188,1696251578593,0.0075683594,-0.9829712,0.2218628,-0.34375,-0.25,0.75,218
189,1696251578633,0.005859375,-0.99591064,0.21282959,-0.453125,0.4375,0.5625,219
190,1696251578673,0.00048828125,-0.96343994,0.21356201,0.890625,0.046875,0.046875,220
191,1696251578713,0.020751953,-0.9627075,0.20452881,0.046875,-0.734375,0.5625,221
192,1696251578753,0.026367188,-0.9800415,0.22625732,-0.734375,-0.359375,0.515625,222
193,1696251578793,0.0048828125,-0.9898071,0.21234131,-0.59375,-0.875,0.609375,223
194,1696251578833,0.008056641,-0.975647,0.21380615,0.21875,-0.6875,-0.015625,224
195,1696251578873,0.021972656,-0.9607544,0.20892334,1.5625,-0.5,0.390625,225
196,1696251578913,0.01586914,-0.973938,0.21575928,0.03125,-0.953125,0.765625,226
197,1696251578953,0.020751953,-0.9751587,0.21722412,-0.375,-0.484375,0.53125,227
198,1696251578993,-0.0017089844,-0.9854126,0.20526123,0.53125,-1.546875,0.359375,228
199,1696251579033,0.020507812,-0.98101807,0.20941162,1.078125,-0.078125,0.265625,229
200,1696251579073,0.013671875,-0.97003174,0.2098999,0.921875,-0.890625,0.5625,230
201,1696251579113,0.022460938,-0.9751587,0.20599365,1.390625,-0.5625,0.21875,231
202,1696251579153,0.017822266,-0.972229,0.20721436,0.125,-0.578125,0.21875,232
203,1696251579193,0.019042969,-0.97491455,0.21087646,0.78125,-1.21875,0.125,233
204,1696251579233,0.009521484,-0.9714966,0.20111084,0.0625,-0.40625,0.34375,234
205,1696251579273,0.029541016,-0.9758911,0.19989014,1.765625,-1.40625,0.546875,235
206,1696251579313,0.029541016,-0.97491455,0.21160889,0.8125,-1.21875,0.328125,236
207,1696251579353,0.011962891,-0.9829712,0.20404053,0.953125,-0.90625,-0.34375,237
208,1696251579393,-0.0026855469,-0.973938,0.2020874,0.5,-1.234375,-0.171875,238
209,1696251579433,0.015136719,-0.96881104,0.20452881,-0.03125,-0.125,0.046875,239
210,1696251579473,0.024658203,-0.972229,0.19622803,0.4375,-0.21875,-0.03125,240
211,1696251579513,0.018066406,-0.975647,0.20355225,-0.046875,-1.640625,-0.0625,241
212,1696251579553,0.00048828125,-0.97906494,0.19598389,-0.1875,-0.75,-0.015625,242
213,1696251579593,0.010986328,-0.9714966,0.20281982,0.34375,-0.28125,0.109375,243
214,1696251579633,0.017822266,-0.97125244,0.19403076,0.796875,-0.125,-0.640625,244
215,1696251579673,0.0078125,-0.9734497,0.19671631,0.90625,-0.625,0.0625,245
216,1696251579713,0.0056152344,-0.9846802,0.19500732,0.0625,-0.890625,0.046875,246
217,1696251579753,0.004638672,-0.9793091,0.2062378,-0.296875,-0.71875,-0.21875,247
218,1696251579793,0.0036621094,-0.9692993,0.20428467,-0.8125,-0.03125,0.0,248
219,1696251579833,0.006591797,-0.98321533,0.20013428,0.046875,-0.5,-0.390625,249
220,1696251579873,0.008300781,-0.97540283,0.20111084,-0.859375,-0.125,-0.234375,250
221,1696251579913,0.0021972656,-0.97857666,0.20111084,0.3125,0.109375,-0.328125,251
222,1696251579953,0.020996094,-0.9758911,0.20526123,-0.5,-0.1875,-0.34375,252
223,1696251579993,0.008300781,-0.9812622,0.19354248,-0.859375,-0.40625,-0.40625,253
224,1696251580033,-0.0012207031,-0.97613525,0.19671631,0.484375,-0.484375,0.0625,254
225,1696251580073,-0.0021972656,-0.9871216,0.20281982,-0.640625,-0.984375,0.15625,255
226,1696251580113,0.006591797,-0.97320557,0.19696045,0.09375,0.421875,-0.265625,256
227,1696251580153,0.0048828125,-0.9771118,0.20281982,-0.546875,-0.171875,0.046875,257
228,1696251580193,0.008056641,-0.9819946,0.20599365,0.96875,-0.390625,0.375,258
229,1696251580233,-0.00048828125,-0.9824829,0.19720459,-0.578125,-1.453125,1.1875,259
230,1696251580273,0.012451172,-0.96710205,0.19915771,0.109375,-0.125,-0.296875,260
231,1696251580313,0.010498047,-0.96661377,0.2008667,0.125,0.421875,-0.09375,261
232,1696251580353,0.011474609,-0.9807739,0.1930542,-0.171875,-0.875,0.84375,262
233,1696251580393,0.012939453,-0.97979736,0.20404053,-1.21875,-0.28125,0.59375,263
234,1696251580433,-0.006591797,-0.9771118,0.19769287,-0.765625,-0.46875,-0.09375,264
235,1696251580473,0.004638672,-0.96661377,0.20526123,-0.078125,0.328125,0.328125,265
236,1696251580513,0.010498047,-0.9776001,0.2062378,-0.203125,-0.875,0.65625,266
237,1696251580553,0.009765625,-0.98223877,0.20501709,0.0,-1.09375,0.640625,267
238,1696251580593,0.0087890625,-0.9717407,0.21453857,0.09375,-0.15625,0.234375,268
239,1696251580633,0.0026855469,-0.97613525,0.20697021,1.234375,-0.578125,0.28125,269
240,1696251580673,0.0053710938,-0.9668579,0.19793701,-0.5625,-0.71875,0.390625,270
241,1696251580713,0.011962891,-0.9717407,0.20599365,0.875,0.0625,0.3125,271
242,1696251580753,0.010498047,-0.9783325,0.20428467,0.0625,-1.4375,0.6875,272
243,1696251580793,0.018066406,-0.9714966,0.20037842,-0.4375,-0.796875,0.09375,273
244,1696251580833,-0.0078125,-0.9678345,0.19696045,-0.109375,0.359375,-0.453125,274
245,1696251580873,0.005859375,-0.98883057,0.20111084,0.84375,0.484375,0.046875,275
246,1696251580913,0.019042969,-0.9727173,0.21234131,0.609375,-0.296875,-0.171875,276
247,1696251580953,0.0012207031,-0.9663696,0.19525146,0.5625,-0.75,-0.25,277
248,1696251580993,0.006591797,-0.9746704,0.19598389,1.609375,0.109375,-0.3125,278
249,1696251581033,-0.0009765625,-0.98760986,0.19500732,0.453125,-0.78125,0.296875,279
250,1696251581073,0.009033203,-0.9859009,0.19476318,-0.546875,-1.140625,0.046875,280
251,1696251581113,0.013916016,-0.9714966,0.2062378,0.15625,0.296875,-0.28125,281
252,1696251581153,0.0126953125,-0.98516846,0.19378662,-0.171875,-0.59375,-0.015625,282
253,1696251581193,-0.0026855469,-0.96539307,0.19989014,-1.125,-0.96875,0.375,283
254,1696251581233,-0.0036621094,-0.97979736,0.20037842,-0.5625,-0.015625,-0.25,284
255,1696251581273,0.016113281,-0.9758911,0.19500732,0.0625,1.0625,-0.640625,285
256,1696251581313,0.008056641,-0.9849243,0.19696045,-0.21875,-0.046875,-0.140625,286
257,1696251581353,0.0031738281,-0.9729614,0.20135498,0.109375,-0.140625,-0.53125,287
258,1696251581393,-0.0012207031,-0.9751587,0.19647217,0.390625,-0.234375,-0.296875,288
259,1696251581433,-0.001953125,-0.973938,0.2020874,0.0625,-0.1875,0.46875,289
260,1696251581473,-0.0007324219,-0.9854126,0.19793701,0.125,0.21875,-0.1875,290
261,1696251581513,0.00024414062,-0.9837036,0.20257568,-1.390625,-0.078125,0.109375,291
262,1696251581553,0.0053710938,-0.96099854,0.20159912,-0.65625,0.90625,0.796875,292
263,1696251581593,0.0146484375,-0.9807739,0.21038818,-1.09375,0.25,0.53125,293
264,1696251581633,0.0048828125,-0.9968872,0.19866943,-0.28125,-0.703125,0.703125,294
265,1696251581673,0.0017089844,-0.96759033,0.2020874,0.609375,0.125,1.03125,295
266,1696251581713,0.0043945312,-0.9644165,0.1984253,-0.296875,-0.203125,0.359375,296
267,1696251581753,0.01171875,-0.9793091,0.21185303,-0.59375,-0.015625,1.015625,297
268,1696251581793,0.006591797,-1.0042114,0.20159912,-1.25,-0.78125,1.421875,298
269,1696251581833,0.011230469,-0.972229,0.199646,-0.125,-0.75,0.078125,299
270,1696251581873,0.009033203,-0.9546509,0.20697021,-0.453125,-1.109375,0.75,300
271,1696251581913,0.0034179688,-0.9758911,0.2062378,0.34375,-0.234375,1.421875,301
272,1696251581953,0.017822266,-0.98883057,0.20770264,-0.484375,-0.6875,0.234375,302
273,1696251581993,0.0073242188,-0.96832275,0.19671631,1.0625,-0.8125,0.484375,303
274,1696251582033,0.013916016,-0.9627075,0.19720459,1.0,-1.390625,1.03125,304
275,1696251582073,0.016113281,-0.9717407,0.20477295,0.34375,-0.9375,0.84375,305
276,1696251582113,0.010498047,-0.98321533,0.20379639,0.71875,-1.109375,0.734375,306
277,1696251582153,0.012451172,-0.98150635,0.2008667,0.328125,-0.984375,0.078125,307
278,1696251582193,0.017333984,-0.9817505,0.1954956,-0.015625,-0.515625,0.578125,308
279,1696251582233,0.01586914,-0.98516846,0.19891357,1.359375,-0.78125,0.484375,309
280,1696251582273,0.0146484375,-0.9817505,0.19622803,0.9375,-0.984375,0.21875,310
281,1696251582313,0.020019531,-0.9788208,0.19598389,0.359375,-0.421875,0.203125,311
282,1696251582353,0.014404297,-0.9741821,0.1828003,0.15625,-1.390625,0.421875,312
283,1696251582393,0.021240234,-0.97442627,0.19207764,0.96875,-0.921875,0.234375,313
284,1696251582433,0.020019531,-0.97125244,0.18743896,0.734375,-1.734375,0.21875,314
285,1696251582473,0.011474609,-0.97857666,0.18328857,-0.390625,-1.1875,0.21875,315
286,1696251582513,0.017333984,-0.9819946,0.1906128,0.28125,-1.078125,-0.1875,316
287,1696251582553,0.012207031,-0.97979736,0.20501709,-0.5,-1.046875,0.078125,317
288,1696251582593,0.011474609,-0.9729614,0.1906128,0.078125,-0.71875,-0.3125,318
289,1696251582633,0.010253906,-0.972229,0.18841553,-0.046875,-0.90625,-0.03125,319
290,1696251582673,0.013671875,-0.9819946,0.19012451,-0.1875,-0.609375,-0.125,320
291,1696251582713,0.015625,-0.9873657,0.19354248,-0.015625,-0.734375,0.015625,321
292,1696251582753,0.016845703,-0.97735596,0.199646,0.59375,-0.625,-0.46875,322
293,1696251582793,0.0075683594,-0.973938,0.19036865,-0.546875,-1.40625,-0.375,323
294,1696251582833,-0.0073242188,-0.9780884,0.19354248,-0.046875,-0.3125,-0.03125,324
295,1696251582873,0.01171875,-0.9834595,0.19622803,-0.03125,0.15625,0.109375,325
296,1696251582913,0.016113281,-0.97052,0.19036865,-0.375,-0.328125,-0.515625,326
297,1696251582953,0.013183594,-0.9729614,0.1918335,-0.53125,-0.25,-0.296875,327
298,1696251582993,0.0075683594,-0.98272705,0.1876831,-1.21875,-0.984375,-0.375,328
299,1696251583033,0.0034179688,-0.96661377,0.20404053,0.015625,0.203125,-0.21875,329
300,1696251583073,-0.004638672,-0.9692993,0.20257568,-0.6875,-0.796875,0.28125,330
301,1696251583113,0.009033203,-0.9788208,0.19915771,-0.109375,-0.4375,0.0,331
302,1696251583153,0.024169922,-0.97784424,0.19622803,0.359375,0.03125,-0.09375,332
303,1696251583193,0.0041503906,-0.9788208,0.18963623,-0.1875,-0.859375,-0.109375,333
304,1696251583233,0.0009765625,-0.96832275,0.18817139,0.1875,-1.03125,0.203125,334
305,1696251583273,0.0043945312,-0.97857666,0.20257568,-0.25,-0.234375,0.359375,335
306,1696251583313,0.0021972656,-0.9859009,0.20697021,-0.796875,0.3125,0.21875,336
307,1696251583353,0.0053710938,-0.972229,0.1930542,-0.828125,-0.671875,-0.15625,337
308,1696251583393,0.010009766,-0.97052,0.19696045,-0.890625,-0.234375,-0.15625,338
309,1696251583433,0.0041503906,-0.9829712,0.2074585,-0.796875,0.40625,0.234375,339
310,1696251583473,0.01171875,-0.9758911,0.20355225,-0.640625,-0.203125,-0.46875,340
311,1696251583513,-0.0009765625,-0.97052,0.19647217,-1.40625,-0.890625,-0.234375,341
312,1696251583553,-0.0078125,-0.97613525,0.2086792,-0.171875,0.34375,0.171875,342
313,1696251583593,0.0107421875,-0.9890747,0.2086792,-1.03125,0.78125,0.203125,343
314,1696251583633,0.014404297,-0.97076416,0.20574951,-0.515625,-0.234375,-0.515625,344
315,1696251583673,0.00024414062,-0.9727173,0.20941162,-1.109375,-0.234375,0.09375,345
316,1696251583713,-0.007080078,-0.9824829,0.20477295,-1.984375,0.40625,0.1875,346
317,1696251583753,-0.00390625,-0.98321533,0.21453857,0.546875,1.625,0.84375,347
318,1696251583793,0.008300781,-0.97125244,0.20184326,-0.390625,-0.6875,0.921875,348
319,1696251583833,0.011230469,-0.9656372,0.20648193,0.8125,0.734375,0.578125,349
320,1696251583873,0.013427734,-0.97491455,0.2074585,0.203125,0.40625,0.84375,350
321,1696251583913,0.0063476562,-0.9871216,0.20941162,-0.328125,-0.546875,0.5625,351
322,1696251583953,0.0063476562,-0.97198486,0.21087646,-1.96875,0.03125,0.640625,352
323,1696251583993,0.014404297,-0.96295166,0.20233154,0.171875,0.421875,0.96875,353
324,1696251584033,0.00390625,-0.9824829,0.21063232,-0.34375,-2.15625,1.140625,354
325,1696251584073,0.014404297,-0.9807739,0.21307373,0.375,-1.578125,0.515625,355
326,1696251584113,0.006591797,-0.9727173,0.20794678,-0.5,-1.1875,0.453125,356
327,1696251584153,0.006591797,-0.9661255,0.20819092,-0.765625,-1.484375,0.40625,357
328,1696251584193,0.010986328,-0.96954346,0.21258545,-0.640625,-0.796875,0.453125,358
329,1696251584233,0.013427734,-0.9819946,0.21795654,-0.203125,-0.609375,0.5625,359
330,1696251584273,0.014160156,-0.9768677,0.21038818,-0.046875,-0.859375,-0.234375,360
331,1696251584313,0.011474609,-0.96661377,0.20550537,0.625,-0.21875,-0.234375,361
332,1696251584353,0.009521484,-0.97662354,0.20672607,1.3125,0.09375,0.125,362
333,1696251584393,0.015136719,-0.9788208,0.20965576,-0.171875,0.359375,-0.40625,363
334,1696251584433,0.0126953125,-0.9758911,0.2098999,0.65625,-0.390625,-0.6875,364
335,1696251584473,-0.00024414062,-0.9788208,0.2074585,-0.03125,-0.28125,-0.140625,365
336,1696251584513,0.015625,-0.96588135,0.20648193,0.671875,-0.09375,0.109375,366
337,1696251584553,0.0048828125,-0.9751587,0.20281982,1.359375,-0.921875,0.40625,367
338,1696251584593,0.005126953,-0.9837036,0.19476318,1.375,-1.15625,0.21875,368
339,1696251584633,0.0061035156,-0.98150635,0.20843506,0.515625,-0.296875,-0.1875,369
340,1696251584673,0.007080078,-0.9668579,0.20526123,1.015625,-1.203125,-0.0625,370
341,1696251584713,0.020019531,-0.975647,0.2020874,0.359375,-1.484375,-0.03125,371
342,1696251584753,0.0053710938,-0.9795532,0.20062256,0.21875,-2.5625,0.34375,372
343,1696251584793,0.00390625,-0.9834595,0.20770264,-0.265625,-1.1875,-0.359375,373
344,1696251584833,0.0017089844,-0.9758911,0.20184326,0.734375,-1.1875,-0.40625,374
345,1696251584873,-0.0146484375,-0.9812622,0.19769287,0.5,-1.28125,0.109375,375
346,1696251584913,-0.010986328,-0.9776001,0.19622803,-1.4375,-0.34375,0.59375,376
347,1696251584953,0.01953125,-0.973938,0.20794678,-0.765625,0.125,-0.359375,377
348,1696251584993,0.017089844,-0.9751587,0.20526123,-0.28125,-0.671875,-0.46875,378
349,1696251585033,-0.0026855469,-0.9758911,0.20599365,-0.890625,-1.203125,0.140625,379
350,1696251585073,-0.0031738281,-0.9817505,0.20184326,-0.140625,-0.734375,-0.296875,380
351,1696251585113,0.004638672,-0.9763794,0.20452881,0.0,0.0,-0.234375,381
352,1696251585153,0.01171875,-0.9717407,0.20037842,-1.0625,-0.734375,-0.71875,382
353,1696251585193,-0.0041503906,-0.9678345,0.21014404,-0.390625,0.171875,-0.140625,383
354,1696251585233,-0.010009766,-0.98883057,0.20306396,-0.75,-0.15625,0.25,384
355,1696251585273,0.0078125,-0.973938,0.21478271,-0.28125,0.859375,-0.484375,385
356,1696251585313,0.007080078,-0.97613525,0.20013428,-1.234375,0.375,0.296875,386
357,1696251585353,0.0043945312,-0.9807739,0.2177124,-0.125,-0.296875,0.53125,387
358,1696251585393,0.0024414062,-0.98687744,0.21356201,-0.5,-0.984375,0.625,388
359,1696251585433,-0.010498047,-0.97198486,0.20550537,-1.46875,-0.640625,0.1875,389
360,1696251585473,0.0014648438,-0.96539307,0.21868896,0.453125,0.25,0.203125,390
361,1696251585513,0.0026855469,-0.97320557,0.21063232,-1.03125,0.28125,0.484375,391
362,1696251585553,-0.0075683594,-0.97369385,0.20404053,-1.171875,0.0625,0.46875,392
363,1696251585593,-0.00024414062,-0.9741821,0.21600342,0.375,-0.21875,0.15625,393
364,1696251585633,0.0048828125,-0.96832275,0.21356201,-0.4375,0.578125,0.171875,394
365,1696251585673,0.00048828125,-0.98028564,0.21307373,-0.15625,-0.453125,0.421875,395
366,1696251585713,-0.0012207031,-0.975647,0.22161865,-0.203125,-0.109375,0.28125,396
367,1696251585753,0.0031738281,-0.97247314,0.21234131,0.328125,-0.59375,0.375,397
368,1696251585793,0.010498047,-0.97125244,0.2111206,0.53125,-1.46875,0.15625,398
369,1696251585833,0.0031738281,-0.97662354,0.20892334,0.296875,-0.5625,0.625,399
370,1696251585873,0.0056152344,-0.973938,0.22283936,-0.859375,-1.125,-0.015625,400
371,1696251585913,-0.0009765625,-0.9829712,0.21624756,1.296875,0.125,-0.421875,401
372,1696251585953,-0.0009765625,-0.96881104,0.21087646,0.015625,-0.703125,0.375,402
373,1696251585993,-0.0048828125,-0.9680786,0.20916748,0.0,-0.375,-0.078125,403
374,1696251586033,0.0007324219,-0.98638916,0.21258545,-0.046875,0.21875,0.328125,404
375,1696251586073,0.0068359375,-0.9837036,0.21160889,0.125,-1.578125,0.25,405
376,1696251586113,0.013183594,-0.9673462,0.21453857,0.265625,-0.78125,-0.5625,406
377,1696251586153,-0.014404297,-0.9776001,0.20965576,0.15625,-0.96875,0.109375,407
378,1696251586193,-0.0021972656,-0.9834595,0.2098999,0.046875,-0.828125,0.171875,408
379,1696251586233,0.0031738281,-0.9795532,0.20648193,-0.046875,-0.84375,-0.484375,409
380,1696251586273,-0.0068359375,-0.97735596,0.20428467,0.0,-0.734375,-0.140625,410
381,1696251586313,-0.00048828125,-0.96417236,0.21185303,-0.34375,-0.78125,0.0,411
382,1696251586353,-0.00048828125,-0.9746704,0.2177124,-0.328125,-0.828125,0.046875,412
383,1696251586393,-0.0078125,-0.97906494,0.21429443,-0.625,-1.0,-0.109375,413
384,1696251586433,-0.005859375,-0.9780884,0.21063232,-0.28125,-0.734375,-0.421875,414
385,1696251586473,-0.005126953,-0.97784424,0.22210693,0.21875,0.109375,0.203125,415
386,1696251586513,0.0034179688,-0.97003174,0.21038818,-0.109375,-0.53125,-0.53125,416
387,1696251586553,-0.008056641,-0.9783325,0.21136475,-0.5,-0.34375,-0.21875,417
388,1696251586593,-0.008544922,-0.9702759,0.20794678,-1.109375,-0.546875,-0.21875,418
389,1696251586633,-0.0087890625,-0.9817505,0.21868896,-0.171875,0.515625,0.078125,419
390,1696251586673,0.00024414062,-0.9771118,0.21917725,-0.625,-0.421875,-0.390625,420
391,1696251586713,0.00024414062,-0.9727173,0.2164917,-0.046875,-0.125,0.125,421
392,1696251586753,-0.0053710938,-0.9727173,0.22161865,0.34375,-0.03125,-0.03125,422
393,1696251586793,-0.0041503906,-0.98760986,0.2177124,-0.953125,-0.078125,-0.125,423
394,1696251586833,-0.006591797,-0.9727173,0.22113037,-0.546875,-0.3125,-0.171875,424
395,1696251586873,-0.009277344,-0.97320557,0.21624756,-0.5,-0.6875,-0.015625,425
396,1696251586913,-0.008544922,-0.9746704,0.22064209,-1.09375,0.1875,0.703125,426
397,1696251586953,-0.0053710938,-0.9788208,0.21697998,-1.125,-0.25,0.5,427
398,1696251586993,-0.010253906,-0.9727173,0.22137451,-0.609375,-0.703125,0.640625,428
399,1696251587033,-0.0078125,-0.9702759,0.21917725,-0.734375,-0.015625,1.59375,429
400,1696251587073,-0.00048828125,-0.97052,0.22113037,0.46875,0.59375,1.46875,430
401,1696251587113,-0.001953125,-0.9788208,0.2255249,0.046875,-0.046875,0.875,431
402,1696251587153,-0.020996094,-0.9780884,0.23114014,-0.21875,0.4375,1.28125,432
403,1696251587193,0.00048828125,-0.9780884,0.21722412,0.359375,1.890625,1.0625,433
404,1696251587233,0.03540039,-0.9656372,0.2177124,0.46875,2.671875,0.5,434
405,1696251587273,0.020019531,-0.9639282,0.20892334,0.78125,-0.375,0.09375,435
406,1696251587313,-0.001953125,-0.97735596,0.22381592,0.5625,-1.109375,1.09375,436
407,1696251587353,0.0034179688,-0.97857666,0.23822021,0.421875,-0.359375,0.78125,437
408,1696251587393,0.0021972656,-0.97247314,0.20819092,-0.703125,-1.796875,0.828125,438
409,1696251587433,0.0021972656,-0.96466064,0.21966553,-0.5,-1.484375,0.9375,439
410,1696251587473,0.021240234,-0.9788208,0.2267456,0.0625,-0.546875,0.671875,440
411,1696251587513,0.00024414062,-0.96710205,0.21673584,-0.953125,-1.09375,0.296875,441
412,1696251587553,-0.0043945312,-0.97540283,0.22137451,0.375,-0.359375,0.21875,442
413,1696251587593,-0.0014648438,-0.98565674,0.21795654,0.5,-0.8125,0.578125,443
414,1696251587633,0.014892578,-0.9607544,0.22039795,0.75,-0.421875,0.296875,444
415,1696251587673,0.018798828,-0.9656372,0.22137451,1.234375,-1.0625,0.453125,445
416,1696251587713,0.0061035156,-0.98883057,0.2189331,1.03125,-2.0,0.640625,446
417,1696251587753,0.00024414062,-0.9746704,0.22015381,0.671875,-0.84375,0.421875,447
418,1696251587793,0.0078125,-0.9656372,0.19866943,1.640625,-0.859375,-0.1875,448
419,1696251587833,0.009277344,-0.9824829,0.20111084,1.046875,-1.234375,0.375,449
420,1696251587873,-0.0048828125,-0.9890747,0.21551514,0.0625,-0.40625,0.359375,450
421,1696251587913,0.023925781,-0.9624634,0.20697021,0.9375,0.609375,-0.21875,451
422,1696251587953,0.010986328,-0.96759033,0.20526123,0.046875,-0.046875,0.125,452
423,1696251587993,0.006591797,-0.97906494,0.20819092,-0.328125,-0.671875,0.546875,453
424,1696251588033,0.0031738281,-0.98028564,0.21722412,0.15625,-0.03125,0.0625,454
425,1696251588073,-0.0009765625,-0.9812622,0.21063232,-0.890625,-1.390625,0.453125,455
426,1696251588113,0.020263672,-0.96832275,0.21844482,0.609375,0.078125,0.015625,456
427,1696251588153,0.0048828125,-0.9758911,0.21038818,0.953125,0.15625,0.328125,457
428,1696251588193,-0.0056152344,-0.9907837,0.21282959,-1.078125,-1.109375,0.5625,458
429,1696251588233,0.011474609,-0.9614868,0.21453857,0.203125,0.921875,-0.90625,459
430,1696251588273,-0.0012207031,-0.975647,0.19989014,-0.21875,0.203125,0.5625,460
431,1696251588313,0.0014648438,-0.9741821,0.20550537,-0.6875,0.140625,0.6875,461
432,1696251588353,0.025878906,-0.9763794,0.2020874,-0.21875,0.71875,0.234375,462
433,1696251588393,0.041992188,-0.96661377,0.21331787,0.359375,0.203125,-0.09375,463
434,1696251588433,0.016113281,-0.97076416,0.20111084,0.4375,-2.515625,0.390625,464
435,1696251588473,-0.010009766,-0.9920044,0.20599365,0.09375,-3.71875,0.84375,465
436,1696251588513,-0.00390625,-0.9788208,0.2074585,-0.203125,-1.234375,0.375,466
437,1696251588553,0.012207031,-0.96466064,0.20574951,0.234375,-1.09375,0.328125,467
438,1696251588593,0.018554688,-0.96759033,0.19915771,0.0,-1.25,-0.21875,468
439,1696251588633,0.005859375,-0.9924927,0.21160889,-0.078125,-1.125,0.09375,469
440,1696251588673,-0.006591797,-0.9854126,0.19500732,-0.796875,-0.25,-0.421875,470
441,1696251588713,-0.010253906,-0.96759033,0.20819092,-0.6875,-0.078125,-0.515625,471
442,1696251588753,0.021484375,-0.9651489,0.21087646,0.09375,1.296875,-0.53125,472
443,1696251588793,0.01977539,-0.9805298,0.20452881,-0.640625,-0.515625,0.203125,473
444,1696251588833,0.007080078,-0.9837036,0.21966553,-0.40625,-0.25,-0.53125,474
445,1696251588873,-0.0021972656,-0.9746704,0.21429443,0.109375,-0.375,-0.15625,475
446,1696251588913,0.0068359375,-0.97613525,0.21014404,0.125,-0.34375,0.0625,476
447,1696251588953,0.010253906,-0.9729614,0.2189331,-0.4375,-0.625,-0.109375,477
448,1696251588993,0.010498047,-0.9807739,0.21429443,0.1875,-0.390625,0.328125,478
449,1696251589033,0.0,-0.97320557,0.21234131,0.3125,-0.875,-0.0625,479
450,1696251589073,-0.0026855469,-0.97491455,0.21746826,-0.03125,-0.3125,-0.296875,480
451,1696251589113,0.0014648438,-0.97052,0.21234131,0.265625,0.296875,0.0,481
452,1696251589153,0.0073242188,-0.97784424,0.21136475,0.84375,-0.375,0.1875,482
453,1696251589193,-0.0012207031,-0.972229,0.21673584,-0.515625,-0.640625,-0.140625,483
454,1696251589233,-0.008300781,-0.98028564,0.20770264,0.28125,-0.5625,-0.0625,484
455,1696251589273,-0.00390625,-0.9829712,0.21502686,0.0,0.0625,-0.140625,485
456,1696251589313,0.0056152344,-0.9734497,0.20599365,0.5,0.625,-0.640625,486
457,1696251589353,0.009033203,-0.9663696,0.21746826,-0.5,0.125,-0.703125,487
458,1696251589393,-0.009033203,-0.9734497,0.19989014,-1.703125,-0.53125,-0.484375,488
459,1696251589433,-0.0087890625,-0.9849243,0.2164917,-0.296875,0.328125,0.140625,489
460,1696251589473,0.0007324219,-0.97540283,0.20843506,-0.09375,-0.53125,-0.59375,490
461,1696251589513,-0.005126953,-0.97662354,0.20843506,-0.828125,-0.6875,-0.25,491
462,1696251589553,-0.00024414062,-0.9763794,0.22283936,-0.671875,0.234375,-0.1875,492
463,1696251589593,-0.009033203,-0.9793091,0.2255249,-1.453125,-0.28125,0.0,493
464,1696251589633,-0.0043945312,-0.9795532,0.22235107,-1.109375,0.109375,-0.46875,494
465,1696251589673,-0.019042969,-0.99176025,0.21453857,-2.4375,-0.296875,0.390625,495
466,1696251589713,-0.0073242188,-0.9663696,0.20721436,0.140625,0.59375,1.03125,496
467,1696251589753,-0.0026855469,-0.97442627,0.22332764,0.90625,-0.125,1.171875,497
468,1696251589793,-0.0048828125,-0.9751587,0.22650146,-0.046875,1.859375,0.703125,498
469,1696251589833,0.0007324219,-0.9780884,0.21697998,1.15625,0.640625,0.796875,499
470,1696251589873,0.014160156,-0.97442627,0.2218628,1.328125,-1.03125,0.734375,500
471,1696251589913,-0.001953125,-0.97540283,0.21966553,0.28125,-0.40625,0.84375,501
472,1696251589953,0.0014648438,-0.973938,0.22015381,-1.109375,-0.109375,0.71875,502
473,1696251589993,0.008300781,-0.97735596,0.21234131,1.140625,-0.734375,0.125,503
474,1696251590033,0.009765625,-0.97076416,0.21600342,-0.71875,-1.921875,0.796875,504
475,1696251590073,-0.011962891,-0.97662354,0.21722412,-0.890625,-1.421875,0.265625,505
476,1696251590113,-0.0087890625,-0.975647,0.22283936,-0.828125,0.28125,0.515625,506
477,1696251590153,0.015380859,-0.9690552,0.21356201,-0.25,-0.1875,-0.03125,507
478,1696251590193,0.010253906,-0.97247314,0.21673584,-0.421875,-0.625,0.328125,508
479,1696251590233,-0.007080078,-0.973938,0.21746826,0.015625,-1.203125,0.6875,509
480,1696251590273,0.009277344,-0.9729614,0.22357178,0.34375,-0.9375,0.328125,510
481,1696251590313,0.009033203,-0.9690552,0.2177124,-0.015625,-1.5625,0.046875,511
482,1696251590353,-0.0026855469,-0.9751587,0.20843506,0.21875,-1.640625,0.546875,512
483,1696251590393,0.0017089844,-0.98028564,0.22039795,0.84375,-1.75,0.3125,513
484,1696251590433,0.005126953,-0.96759033,0.21746826,-0.265625,-0.890625,-0.203125,514
485,1696251590473,0.0029296875,-0.9656372,0.21990967,-0.140625,-0.421875,-0.0625,515
486,1696251590513,0.0034179688,-0.99420166,0.22235107,-0.03125,-1.21875,0.4375,516
487,1696251590553,-0.0007324219,-0.98272705,0.2255249,-0.28125,-1.03125,0.671875,517
488,1696251590593,0.0036621094,-0.9624634,0.21820068,-0.5625,-0.171875,0.390625,518
489,1696251590633,0.011962891,-0.96173096,0.21380615,-0.4375,-0.421875,0.046875,519
490,1696251590673,-0.00024414062,-0.97784424,0.21722412,-1.09375,-0.65625,0.6875,520
491,1696251590713,-0.004638672,-0.97906494,0.22454834,-1.78125,-1.265625,0.1875,521
492,1696251590753,0.0029296875,-0.97320557,0.23114014,-0.828125,-0.3125,0.28125,522
493,1696251590793,0.010009766,-0.9763794,0.22601318,-0.75,-0.25,0.015625,523
494,1696251590833,0.0017089844,-0.9741821,0.22503662,0.234375,-0.921875,-0.140625,524
495,1696251590873,-0.0014648438,-0.9776001,0.2321167,0.40625,-0.671875,-0.015625,525
496,1696251590913,-0.00048828125,-0.97613525,0.23284912,0.6875,-0.53125,0.15625,526
497,1696251590953,0.010253906,-0.9690552,0.22381592,0.296875,-0.859375,-0.234375,527
498,1696251590993,-0.0017089844,-0.97540283,0.21795654,0.0625,-0.5625,0.578125,528
499,1696251591033,0.0007324219,-0.98516846,0.22406006,-0.3125,-0.953125,0.75,529
500,1696251591073,0.010986328,-0.9595337,0.22332764,-0.703125,0.109375,-0.453125,530
501,1696251591113,0.0126953125,-0.9685669,0.21746826,0.203125,-0.046875,-0.046875,531
502,1696251591153,-0.0087890625,-0.9729614,0.22161865,-0.25,-0.90625,0.578125,532
503,1696251591193,-0.00390625,-0.9768677,0.21722412,0.078125,-0.75,-0.1875,533
504,1696251591233,0.0068359375,-0.97662354,0.23236084,0.0,-0.109375,0.03125,534
505,1696251591273,0.008056641,-0.9788208,0.22332764,1.4375,0.46875,-0.1875,535
506,1696251591313,0.00390625,-0.9714966,0.22381592,0.375,-0.359375,-0.453125,536
507,1696251591353,0.0026855469,-0.97540283,0.21282959,0.375,-0.96875,-0.25,537
508,1696251591393,0.0056152344,-0.97662354,0.230896,0.765625,-1.34375,-0.15625,538
509,1696251591433,-0.0021972656,-0.9776001,0.23236084,-0.578125,-1.484375,0.21875,539
510,1696251591473,-0.0036621094,-0.9639282,0.21014404,1.796875,-0.9375,-0.078125,540
511,1696251591513,-0.0031738281,-0.9824829,0.21600342,1.296875,-0.578125,0.328125,541
512,1696251591553,0.0043945312,-0.9751587,0.22747803,1.109375,0.328125,-0.1875,542
513,1696251591593,-0.013916016,-0.96759033,0.21673584,-0.4375,0.078125,-0.109375,543
514,1696251591633,-0.011230469,-0.9746704,0.21234131,0.21875,-0.34375,0.671875,544
515,1696251591673,0.00024414062,-0.9800415,0.22650146,-0.25,0.5625,0.359375,545
516,1696251591713,0.017333984,-0.9717407,0.22479248,1.0625,0.671875,-0.34375,546
517,1696251591753,0.0017089844,-0.9776001,0.21575928,0.484375,-0.03125,0.1875,547
518,1696251591793,-0.012207031,-0.9663696,0.21478271,1.546875,-0.28125,0.421875,548
519,1696251591833,-0.010009766,-0.98028564,0.21966553,0.78125,0.40625,0.40625,549
520,1696251591873,0.0107421875,-0.97857666,0.21746826,1.3125,0.671875,0.046875,550
521,1696251591913,-0.010498047,-0.9776001,0.19915771,0.078125,-0.546875,0.40625,551
522,1696251591953,-0.008056641,-0.97735596,0.20013428,-0.953125,-0.234375,0.03125,552
523,1696251591993,-0.0031738281,-0.97369385,0.21673584,-0.6875,0.625,-0.015625,553
524,1696251592033,-0.001953125,-0.9771118,0.21478271,-0.546875,0.328125,-0.046875,554
525,1696251592073,0.0036621094,-0.9697876,0.21209717,-0.625,-0.03125,-0.078125,555
526,1696251592113,-0.005859375,-0.9834595,0.22137451,-0.734375,0.390625,-0.046875,556
527,1696251592153,0.0031738281,-0.9793091,0.2074585,0.125,0.28125,0.03125,557
528,1696251592193,0.008300781,-0.9678345,0.21087646,-0.328125,0.25,0.03125,558
529,1696251592233,0.0031738281,-0.9651489,0.21575928,4.453125,2.171875,0.734375,559
530,1696251592273,0.007080078,-1.0083618,0.19500732,7.625,3.71875,1.1875,560
531,1696251592313,0.017578125,-0.96759033,0.18817139,3.15625,0.515625,1.28125,561
532,1696251592353,-0.007080078,-0.9541626,0.19403076,1.6875,-1.171875,1.515625,562
533,1696251592393,-0.011962891,-0.9717407,0.19476318,-1.0625,-1.140625,0.34375,563
534,1696251592433,0.0041503906,-1.0054321,0.20037842,-2.609375,-0.921875,0.421875,564
535,1696251592473,0.011474609,-0.9866333,0.20233154,-3.09375,-0.1875,0.21875,565
536,1696251592513,0.0,-0.9807739,0.20184326,-5.453125,-1.3125,-0.078125,566
537,1696251592553,0.0031738281,-0.9590454,0.20672607,-6.5,-0.171875,-0.203125,567
538,1696251592593,0.0009765625,-0.9734497,0.2243042,-2.140625,0.859375,0.46875,568
539,1696251592633,0.01171875,-0.987854,0.22772217,-0.09375,-1.5,0.359375,569
540,1696251592673,0.009765625,-0.9727173,0.2098999,-1.34375,-1.703125,0.21875,570
541,1696251592713,-0.0036621094,-0.95635986,0.22235107,0.078125,-0.609375,0.765625,571
542,1696251592753,0.017333984,-0.9837036,0.22650146,-0.265625,-0.921875,0.4375,572
543,1696251592793,0.0078125,-0.9849243,0.22723389,-2.484375,-1.6875,0.84375,573
544,1696251592833,-0.005126953,-0.96661377,0.2243042,-2.453125,-1.875,0.609375,574
545,1696251592873,0.00048828125,-0.96099854,0.22601318,-1.375,-0.171875,0.609375,575
546,1696251592913,0.014160156,-0.9780884,0.22845459,-1.1875,-0.328125,0.953125,576
547,1696251592953,0.023925781,-0.96661377,0.22943115,0.484375,-1.09375,0.5,577
548,1696251592993,0.005859375,-0.96539307,0.2243042,0.8125,-2.546875,0.328125,578
549,1696251593033,-0.0024414062,-0.9678345,0.23260498,1.53125,-1.796875,0.671875,579
550,1696251593073,0.0012207031,-0.9866333,0.22747803,1.890625,-0.828125,1.203125,580
551,1696251593113,0.015136719,-0.9758911,0.22454834,1.9375,-0.734375,0.703125,581
552,1696251593153,0.016357422,-0.9727173,0.21356201,2.296875,-0.015625,0.609375,582
553,1696251593193,-0.0009765625,-0.9624634,0.21209717,1.078125,-0.640625,0.671875,583
554,1696251593233,-0.007080078,-0.97198486,0.21990967,0.828125,0.171875,0.5625,584
555,1696251593273,0.017333984,-0.9746704,0.20037842,2.28125,-0.125,0.078125,585
556,1696251593313,0.029052734,-0.9780884,0.21014404,1.328125,-1.203125,-0.46875,586
557,1696251593353,0.01977539,-0.9661255,0.21429443,1.625,-0.078125,-0.421875,587
558,1696251593393,0.0021972656,-0.9859009,0.21453857,0.625,-1.578125,0.40625,588
559,1696251593433,-0.00048828125,-0.97125244,0.20916748,-0.375,-1.046875,0.109375,589
560,1696251593473,0.007080078,-0.9717407,0.20721436,0.234375,-0.546875,0.359375,590
561,1696251593513,0.021972656,-0.97125244,0.21282959,0.828125,0.703125,0.03125,591
562,1696251593553,0.014892578,-0.9788208,0.20599365,0.75,-0.328125,0.078125,592
563,1696251593593,0.010986328,-0.97735596,0.20721436,0.421875,-0.75,-0.140625,593
564,1696251593633,0.012451172,-0.9849243,0.20526123,1.171875,0.140625,0.265625,594
565,1696251593673,-0.0017089844,-0.9898071,0.20184326,0.296875,-0.578125,1.0625,595
566,1696251593713,0.016845703,-0.9751587,0.19476318,1.8125,0.203125,0.34375,596
567,1696251593753,0.015625,-0.9734497,0.1954956,0.5625,-0.40625,0.828125,597
568,1696251593793,0.01928711,-0.97906494,0.19915771,1.171875,-0.28125,0.265625,598
569,1696251593833,0.0053710938,-0.97857666,0.19744873,0.9375,0.171875,-0.109375,599
570,1696251593873,0.0036621094,-0.9680786,0.19281006,1.171875,-0.796875,0.328125,600
571,1696251593913,0.0073242188,-0.97613525,0.18988037,0.0625,-0.03125,0.03125,601
572,1696251593953,0.0234375,-0.9771118,0.20184326,0.796875,1.125,-0.28125,602
573,1696251593993,0.012207031,-0.9841919,0.19354248,-0.0625,-0.921875,0.203125,603
574,1696251594033,0.0031738281,-0.96173096,0.1930542,-0.34375,-0.46875,-0.203125,604
575,1696251594073,0.011474609,-0.98101807,0.19989014,-0.921875,0.546875,-0.109375,605
576,1696251594113,0.018554688,-0.9902954,0.19891357,0.140625,-0.28125,0.109375,606
577,1696251594153,0.01586914,-0.97320557,0.19720459,-0.296875,-0.4375,-0.140625,607
578,1696251594193,0.0053710938,-0.9768677,0.19671631,-1.015625,-1.453125,0.03125,608
579,1696251594233,0.0026855469,-0.9819946,0.20135498,-0.671875,-0.3125,0.234375,609
580,1696251594273,0.010986328,-0.9776001,0.20184326,-0.5625,0.046875,-0.5,610
581,1696251594313,0.008056641,-0.9834595,0.19769287,-0.5625,-0.578125,0.359375,611
582,1696251594353,0.013183594,-0.9758911,0.20843506,-0.28125,0.734375,0.0625,612
583,1696251594393,-0.00048828125,-0.97369385,0.20111084,0.609375,-0.125,0.171875,613
584,1696251594433,0.013916016,-0.97613525,0.19354248,-1.28125,-1.078125,0.171875,614
585,1696251594473,0.015625,-0.97784424,0.21014404,-0.296875,0.125,0.015625,615
586,1696251594513,-0.001953125,-0.9741821,0.2164917,-0.5625,-0.109375,0.421875,616
587,1696251594553,0.004638672,-0.98565674,0.19378662,-1.859375,-0.03125,0.171875,617
588,1696251594593,-0.0041503906,-0.97979736,0.19696045,-1.0,0.78125,0.390625,618
589,1696251594633,0.021240234,-0.97735596,0.20965576,0.34375,0.84375,0.015625,619
590,1696251594673,0.014160156,-0.96832275,0.20477295,-0.609375,-0.296875,0.25,620
591,1696251594713,0.0041503906,-0.98150635,0.20916748,-0.25,-0.390625,0.0,621
592,1696251594753,-0.0036621094,-0.97906494,0.20184326,0.453125,-0.421875,0.34375,622
593,1696251594793,0.008300781,-0.9741821,0.20404053,0.15625,-0.546875,0.578125,623
594,1696251594833,0.010253906,-0.97857666,0.2086792,-0.015625,-0.78125,0.171875,624
595,1696251594873,0.010253906,-0.9819946,0.21478271,0.78125,-0.328125,0.03125,625
596,1696251594913,0.0041503906,-0.97198486,0.19720459,-0.28125,-0.890625,0.125,626
597,1696251594953,-0.0034179688,-0.9741821,0.20184326,0.5625,-0.75,0.28125,627
598,1696251594993,0.0073242188,-0.9859009,0.2074585,0.234375,0.328125,0.109375,628
599,1696251595033,0.014892578,-0.9734497,0.20526123,-0.34375,-0.46875,-0.171875,629
600,1696251595073,0.008300781,-0.9627075,0.2020874,0.53125,0.21875,-0.046875,630
601,1696251595113,0.0017089844,-0.9898071,0.20452881,0.171875,-1.296875,0.65625,631
602,1696251595153,0.005859375,-0.9866333,0.2111206,0.65625,0.34375,-0.015625,632
603,1696251595193,0.010253906,-0.97003174,0.1954956,0.375,-0.6875,-0.578125,633
604,1696251595233,0.0056152344,-0.97784424,0.19256592,0.390625,-1.03125,-0.109375,634
605,1696251595273,0.004638672,-0.9866333,0.21063232,-0.25,-0.375,0.140625,635
606,1696251595313,0.01586914,-0.98101807,0.20672607,0.78125,0.375,-0.453125,636
607,1696251595353,0.0053710938,-0.97003174,0.19573975,-0.015625,-0.28125,-0.171875,637
608,1696251595393,0.013916016,-0.9834595,0.20819092,0.859375,-0.453125,-0.125,638
609,1696251595433,0.0075683594,-0.9788208,0.19940186,-0.109375,-0.5,-0.140625,639
610,1696251595473,-0.0053710938,-0.975647,0.20404053,0.484375,-0.21875,0.109375,640
611,1696251595513,0.0009765625,-0.97857666,0.1942749,0.5625,-0.265625,-0.09375,641
612,1696251595553,0.0053710938,-0.98150635,0.20184326,-0.28125,-0.03125,0.171875,642
613,1696251595593,0.0068359375,-0.9746704,0.20013428,0.453125,-0.96875,0.078125,643
614,1696251595633,0.0024414062,-0.97662354,0.20135498,0.171875,-0.078125,-0.0625,644
615,1696251595673,-0.0007324219,-0.9793091,0.20452881,-0.453125,-0.171875,0.375,645
616,1696251595713,0.021484375,-0.97857666,0.19525146,-0.140625,-0.3125,-0.359375,646
617,1696251595753,-0.014404297,-0.9829712,0.20770264,-1.125,-1.296875,-0.03125,647
618,1696251595793,-0.004638672,-0.9697876,0.21844482,-1.828125,0.4375,0.375,648
619,1696251595833,-0.0034179688,-0.97369385,0.19866943,-2.125,-0.234375,-0.125,649
620,1696251595873,0.0053710938,-0.98638916,0.2111206,-2.03125,0.578125,0.359375,650
621,1696251595913,0.0036621094,-0.9819946,0.20306396,-1.609375,-0.484375,1.453125,651
622,1696251595953,0.0029296875,-0.9746704,0.21014404,-0.53125,-0.640625,0.890625,652
623,1696251595993,0.008300781,-0.97247314,0.22210693,0.453125,0.203125,0.015625,653
624,1696251596033,-0.0029296875,-0.97735596,0.22406006,3.6875,0.609375,1.0,654
625,1696251596073,-0.01953125,-1.0007935,0.18841553,3.875,-1.453125,2.6875,655
626,1696251596113,0.016601562,-0.96881104,0.17156982,2.578125,0.265625,0.15625,656
627,1696251596153,0.045898438,-0.9585571,0.2074585,1.859375,-0.1875,-0.640625,657
628,1696251596193,0.0146484375,-0.9783325,0.19622803,0.515625,-0.484375,0.40625,658
629,1696251596233,-0.013916016,-0.99224854,0.19354248,-0.09375,-1.78125,0.28125,659
630,1696251596273,-0.016601562,-0.9871216,0.18939209,-1.34375,-0.5,0.421875,660
631,1696251596313,0.01171875,-0.9800415,0.19696045,-1.96875,2.421875,0.0625,661
632,1696251596353,0.034179688,-0.9746704,0.19818115,-4.1875,0.5625,0.0,662
633,1696251596393,0.021240234,-0.9807739,0.20648193,-3.8125,-2.40625,0.109375,663
634,1696251596433,-0.010009766,-0.9741821,0.20501709,-1.40625,-1.203125,0.078125,664
635,1696251596473,-0.001953125,-0.98443604,0.20526123,0.8125,0.078125,-0.578125,665
636,1696251596513,0.012451172,-0.9614868,0.20135498,0.0,-0.5,0.109375,666
637,1696251596553,0.022216797,-0.9692993,0.21136475,0.640625,-1.0625,1.203125,667
638,1696251596593,0.015625,-0.97442627,0.21551514,0.3125,-2.609375,0.96875,668
639,1696251596633,0.0007324219,-0.97125244,0.1984253,0.25,-3.0625,0.671875,669
640,1696251596673,0.0009765625,-0.98638916,0.20404053,1.0,-1.484375,0.453125,670
641,1696251596713,0.008056641,-0.9710083,0.20184326,0.734375,-1.453125,0.890625,671
642,1696251596753,0.001953125,-0.9639282,0.1930542,1.25,-1.71875,0.890625,672
643,1696251596793,0.001953125,-0.9800415,0.20892334,1.09375,-1.0625,0.390625,673
644,1696251596833,0.016845703,-0.97198486,0.19256592,1.15625,-1.390625,0.234375,674
645,1696251596873,0.012451172,-0.97442627,0.19793701,1.09375,-2.34375,0.4375,675
646,1696251596913,0.0068359375,-0.9714966,0.20281982,0.640625,-0.796875,-0.109375,676
647,1696251596953,0.0,-0.9807739,0.20355225,1.40625,-1.21875,0.53125,677
648,1696251596993,0.0087890625,-0.97784424,0.18817139,0.8125,-1.296875,0.078125,678
649,1696251597033,0.009765625,-0.9849243,0.19451904,1.34375,-0.90625,0.078125,679
650,1696251597073,0.0087890625,-0.9837036,0.19818115,0.125,-1.703125,-0.15625,680
651,1696251597113,-0.0041503906,-0.97613525,0.20574951,-0.53125,0.109375,-0.09375,681
652,1696251597153,-0.004638672,-0.986145,0.19085693,-1.046875,0.03125,-0.578125,682
653,1696251597193,0.016845703,-0.98394775,0.20159912,0.09375,-0.25,-0.78125,683
654,1696251597233,0.01171875,-0.97540283,0.1930542,-0.390625,-1.140625,0.046875,684
655,1696251597273,-0.004638672,-0.97003174,0.19085693,0.125,-0.59375,0.15625,685
656,1696251597313,-0.0012207031,-0.9776001,0.19818115,0.015625,0.234375,-0.125,686
657,1696251597353,0.0,-0.97735596,0.19085693,-0.296875,-0.34375,0.203125,687
658,1696251597393,0.005126953,-0.9776001,0.19476318,0.046875,-0.625,0.390625,688
659,1696251597433,0.0029296875,-0.9776001,0.20037842,0.578125,0.796875,0.484375,689
660,1696251597473,0.009277344,-0.9680786,0.18743896,-0.03125,0.28125,-0.125,690
661,1696251597513,0.020019531,-0.9763794,0.19085693,0.546875,-0.203125,0.25,691
662,1696251597553,0.011230469,-0.9915161,0.19354248,0.53125,-0.390625,0.46875,692
663,1696251597593,-0.0036621094,-0.9866333,0.19256592,-0.84375,-0.46875,0.109375,693
664,1696251597633,-0.012451172,-0.97369385,0.19354248,-0.4375,0.328125,-0.03125,694
665,1696251597673,0.00024414062,-0.98223877,0.1954956,0.109375,1.046875,-0.359375,695
666,1696251597713,0.017822266,-0.9817505,0.19451904,-0.4375,0.765625,0.40625,696
667,1696251597753,0.021240234,-0.97125244,0.19476318,-0.8125,-0.53125,0.203125,697
668,1696251597793,0.009765625,-0.97857666,0.19012451,-0.921875,-1.046875,0.5625,698
669,1696251597833,0.0053710938,-0.9783325,0.19671631,-0.53125,-0.3125,0.84375,699
670,1696251597873,0.0078125,-0.97491455,0.19158936,-0.359375,-0.515625,0.125,700
671,1696251597913,0.01586914,-0.9741821,0.1930542,-0.421875,0.15625,0.21875,701
672,1696251597953,0.014404297,-0.9776001,0.19134521,-0.6875,-0.84375,0.390625,702
673,1696251597993,0.0061035156,-0.9751587,0.20233154,-0.65625,-0.453125,-0.171875,703
674,1696251598033,0.0014648438,-0.975647,0.19647217,-1.203125,0.40625,-0.078125,704
675,1696251598073,0.017089844,-0.9727173,0.2020874,-0.5625,-0.09375,0.0625,705
676,1696251598113,0.0146484375,-0.98516846,0.19891357,-0.515625,-0.125,0.171875,706
677,1696251598153,0.0029296875,-0.97979736,0.20477295,-0.09375,-0.296875,0.046875,707
678,1696251598193,0.014160156,-0.97052,0.21063232,-0.453125,0.625,-0.984375,708
679,1696251598233,0.00048828125,-0.9776001,0.20306396,-0.34375,0.234375,-0.5625,709
680,1696251598273,0.0036621094,-0.9883423,0.20941162,-0.390625,-0.890625,-0.234375,710
681,1696251598313,0.009765625,-0.9819946,0.20672607,-0.09375,-0.328125,-0.296875,711
682,1696251598353,0.0043945312,-0.9746704,0.20965576,0.1875,-0.25,-0.0625,712
683,1696251598393,-0.0075683594,-0.972229,0.21160889,-0.59375,-0.34375,0.140625,713
684,1696251598433,0.006591797,-0.98101807,0.20404053,0.3125,-0.6875,0.109375,714
685,1696251598473,0.0024414062,-0.9780884,0.20452881,-1.5625,-1.15625,0.5,715
686,1696251598513,0.001953125,-0.96051025,0.20013428,-1.953125,-1.375,-1.0625,716
687,1696251598553,-0.0034179688,-0.97613525,0.21453857,-0.6875,1.0625,-0.296875,717
688,1696251598593,0.008544922,-0.973938,0.21868896,-0.09375,1.84375,0.078125,718
689,1696251598633,0.0075683594,-0.9702759,0.21429443,-0.453125,-0.234375,-0.125,719
690,1696251598673,-0.00048828125,-0.9751587,0.21258545,-0.09375,-0.125,-0.109375,720
691,1696251598713,-0.00390625,-0.9824829,0.22015381,-0.71875,-1.015625,0.734375,721
692,1696251598753,0.0014648438,-0.98028564,0.20599365,-1.703125,-1.328125,0.203125,722
693,1696251598793,-0.009521484,-0.97857666,0.2074585,-2.640625,-1.796875,0.09375,723
694,1696251598833,-0.004638672,-0.9668579,0.23187256,-1.375,0.046875,-0.375,724
695,1696251598873,0.0029296875,-0.9668579,0.22064209,-2.203125,0.890625,-0.296875,725
696,1696251598913,-0.0014648438,-0.97857666,0.22406006,-1.015625,0.453125,0.546875,726
697,1696251598953,-0.0036621094,-0.96881104,0.22454834,1.296875,0.25,0.84375,727
698,1696251598993,0.0061035156,-0.98101807,0.22796631,0.296875,-0.15625,0.90625,728
699,1696251599033,0.0043945312,-0.9631958,0.21551514,-0.140625,-1.953125,1.03125,729
700,1696251599073,0.008300781,-0.9697876,0.22332764,0.515625,-1.875,1.96875,730
701,1696251599113,0.018310547,-0.9692993,0.22406006,0.578125,-2.109375,1.15625,731
702,1696251599153,0.004638672,-0.97906494,0.2345581,-0.078125,-0.21875,0.515625,732
703,1696251599193,-0.010498047,-0.9702759,0.21942139,-0.703125,-0.8125,0.546875,733
704,1696251599233,-0.0068359375,-0.9812622,0.21087646,-0.890625,-1.875,1.421875,734
705,1696251599273,0.009277344,-0.973938,0.22113037,0.375,1.875,-0.03125,735
706,1696251599313,0.029541016,-0.9729614,0.23406982,-0.234375,0.78125,0.828125,736
707,1696251599353,0.018310547,-0.96539307,0.21160889,0.984375,-0.71875,0.859375,737
708,1696251599393,0.013671875,-0.9751587,0.2189331,0.96875,-1.53125,0.359375,738
709,1696251599433,0.0048828125,-0.97662354,0.22479248,0.46875,-0.40625,0.859375,739
710,1696251599473,0.0021972656,-0.97735596,0.22088623,0.109375,-0.28125,0.859375,740
711,1696251599513,0.018310547,-0.9788208,0.21185303,1.0625,-1.171875,0.484375,741
712,1696251599553,0.010009766,-0.96881104,0.21380615,1.1875,-1.0,0.875,742
713,1696251599593,0.0073242188,-0.97613525,0.22015381,0.453125,-0.15625,0.859375,743
714,1696251599633,0.023925781,-0.96954346,0.21478271,1.390625,-0.046875,0.078125,744
715,1696251599673,0.005859375,-0.97491455,0.21282959,0.640625,-0.671875,0.0625,745
716,1696251599713,0.015625,-0.9837036,0.22210693,1.046875,0.40625,0.375,746
717,1696251599753,-0.0021972656,-0.9805298,0.19866943,-0.4375,-0.375,0.46875,747
718,1696251599793,0.028320312,-0.97662354,0.20648193,1.453125,1.453125,0.28125,748
719,1696251599833,0.016601562,-0.98272705,0.21331787,0.859375,0.125,0.53125,749
720,1696251599873,0.022216797,-0.9751587,0.20916748,0.25,-0.375,0.296875,750
721,1696251599913,0.010986328,-0.9859009,0.20452881,0.359375,-1.375,0.421875,751
722,1696251599953,0.026367188,-0.972229,0.20281982,1.328125,-0.765625,0.125,752
723,1696251599993,0.026123047,-0.9751587,0.20501709,0.4375,-0.75,-0.09375,753
724,1696251600033,0.00024414062,-0.9793091,0.20062256,0.15625,-1.96875,0.375,754
725,1696251600073,0.0014648438,-0.9817505,0.20574951,-0.34375,-0.953125,-0.125,755
726,1696251600113,0.016357422,-0.9644165,0.20721436,0.640625,0.6875,-0.703125,756
727,1696251600153,0.021240234,-0.96759033,0.19915771,-0.1875,0.421875,0.203125,757
728,1696251600193,0.0126953125,-0.9871216,0.20428467,-0.03125,-0.96875,0.15625,758
729,1696251600233,0.024414062,-0.9873657,0.21722412,0.234375,-0.4375,-0.171875,759
730,1696251600273,0.013671875,-0.958313,0.19378662,0.359375,-0.34375,-0.125,760
731,1696251600313,0.008544922,-0.9697876,0.19744873,0.53125,-1.203125,0.765625,761
732,1696251600353,0.0056152344,-0.9866333,0.20843506,-0.046875,-0.84375,1.0625,762
733,1696251600393,0.022460938,-0.9788208,0.20648193,0.859375,0.109375,-0.3125,763
734,1696251600433,0.011474609,-0.9734497,0.19476318,0.625,-0.609375,-0.1875,764
735,1696251600473,0.010986328,-0.9727173,0.19281006,0.953125,-0.140625,0.734375,765
736,1696251600513,0.005859375,-0.99053955,0.19940186,0.6875,0.234375,0.453125,766
737,1696251600553,0.019042969,-0.97247314,0.19769287,0.3125,0.25,-0.40625,767
738,1696251600593,0.025146484,-0.9824829,0.18841553,0.515625,0.328125,0.078125,768
739,1696251600633,0.027832031,-0.9812622,0.19403076,1.03125,-0.828125,0.296875,769
740,1696251600673,0.010009766,-0.97198486,0.19403076,-0.21875,-0.953125,0.0625,770
741,1696251600713,0.009521484,-0.96295166,0.18719482,-0.140625,0.359375,-0.171875,771
742,1696251600753,0.009277344,-0.98565674,0.19012451,-0.90625,-0.703125,0.515625,772
743,1696251600793,0.03100586,-0.98101807,0.21160889,-0.671875,-0.109375,-0.140625,773
744,1696251600833,0.019042969,-0.9727173,0.19598389,-0.65625,-0.625,-0.140625,774
745,1696251600873,0.0063476562,-0.97613525,0.19915771,-0.84375,-0.546875,-0.21875,775
746,1696251600913,0.010009766,-0.9834595,0.20306396,-0.875,-0.015625,-0.015625,776
747,1696251600953,0.013916016,-0.97247314,0.20428467,-0.671875,-0.3125,-0.1875,777
748,1696251600993,0.010009766,-0.96661377,0.20477295,-1.171875,-0.296875,-0.265625,778
749,1696251601033,0.025390625,-0.97906494,0.20306396,-0.421875,-0.796875,0.21875,779
750,1696251601073,0.0146484375,-0.98638916,0.21136475,-0.265625,-0.75,0.15625,780
751,1696251601113,0.0034179688,-0.9812622,0.20843506,-0.359375,-0.734375,-0.140625,781
752,1696251601153,0.0068359375,-0.97198486,0.21209717,-0.484375,-0.21875,-0.0625,782
753,1696251601193,0.010253906,-0.9692993,0.20428467,0.21875,0.265625,0.3125,783
754,1696251601233,0.018310547,-0.9837036,0.20794678,-0.375,-1.03125,0.40625,784
755,1696251601273,0.0009765625,-0.9763794,0.19940186,-0.328125,-0.640625,-0.140625,785
756,1696251601313,0.0029296875,-0.97198486,0.2140503,-0.84375,0.421875,-0.109375,786
757,1696251601353,0.010986328,-0.9734497,0.19744873,-0.3125,-0.671875,0.0625,787
758,1696251601393,0.017822266,-0.97857666,0.21038818,-1.28125,-0.90625,0.203125,788
759,1696251601433,0.005859375,-0.98150635,0.20843506,-0.34375,-0.109375,-0.546875,789
