,timestamp,accel_x,accel_y,accel_z,gyro_x,gyro_y,gyro_z,ind
0,1696255036686,0.29663086,-0.92755127,-0.13238525,4.34375,-9.6875,5.734375,0
1,1696255036726,0.3803711,-0.91729736,-0.1404419,5.375,-6.796875,7.0,1
2,1696255036766,0.4272461,-0.85235596,-0.073791504,4.5625,-6.046875,11.53125,2
3,1696255036806,0.3869629,-0.8838501,-0.074523926,1.21875,-6.421875,9.3125,3
4,1696255036846,0.33666992,-1.0025024,-0.06329346,-2.0625,-8.90625,4.609375,4
5,1696255036886,0.35546875,-0.9990845,-0.09844971,-2.21875,-6.78125,1.8125,5
6,1696255036926,0.4074707,-0.880188,-0.10308838,-2.328125,-3.640625,1.6875,6
7,1696255036966,0.42407227,-0.8242798,-0.053527832,-3.078125,-3.875,1.75,7
8,1696255037006,0.37841797,-0.8374634,-0.026916504,-1.671875,-4.859375,1.28125,8
9,1696255037046,0.35131836,-0.87994385,-0.05328369,-3.109375,-2.734375,0.765625,9
10,1696255037086,0.37719727,-0.9014282,-0.023010254,-2.375,2.4375,-0.796875,10
11,1696255037126,0.36645508,-0.87945557,-0.0335083,0.953125,7.203125,-1.671875,11
12,1696255037166,0.41430664,-0.866272,-0.039367676,-3.03125,4.90625,2.234375,12
13,1696255037206,0.4650879,-0.8648071,-0.030090332,-1.78125,5.5,4.265625,13
14,1696255037246,0.46142578,-0.8928833,-0.026916504,-3.9375,0.46875,3.515625,14
15,1696255037286,0.42919922,-0.9002075,-0.007385254,-8.109375,-2.25,1.3125,15
16,1696255037326,0.38745117,-0.87164307,0.004333496,-5.375,3.1875,-2.34375,16
17,1696255037366,0.35986328,-0.89508057,-0.031799316,-0.390625,4.078125,-4.3125,17
18,1696255037406,0.35351562,-0.9216919,-0.035461426,0.390625,6.328125,-3.9375,18
19,1696255037446,0.40551758,-0.9331665,-0.025939941,2.9375,6.140625,-0.953125,19
20,1696255037486,0.43823242,-0.8858032,-0.012268066,4.265625,4.6875,-1.140625,20
21,1696255037526,0.42749023,-0.83673096,0.010437012,6.234375,2.484375,-1.484375,21
22,1696255037566,0.3310547,-0.8274536,-0.0115356445,1.578125,-2.015625,-1.9375,22
23,1696255037606,0.30395508,-0.8557739,-0.032287598,-0.890625,2.625,-2.59375,23
24,1696255037646,0.31201172,-0.9483032,-0.025939941,4.1875,9.34375,-2.671875,24
25,1696255037686,0.3684082,-1.0369263,-0.054260254,3.6875,4.1875,-2.90625,25
26,1696255037726,0.39501953,-1.0154419,-0.06500244,0.765625,1.328125,-1.234375,26
27,1696255037766,0.3708496,-0.9143677,-0.0413208,-3.078125,1.609375,-2.46875,27
28,1696255037806,0.31103516,-0.8604126,-0.04449463,-0.796875,-0.375,-4.140625,28
29,1696255037846,0.29516602,-0.87042236,-0.043762207,2.171875,2.671875,-2.40625,29
30,1696255037886,0.28222656,-0.9146118,-0.093322754,3.140625,10.171875,-0.875,30
31,1696255037926,0.2849121,-0.9265747,-0.11456299,2.109375,12.03125,-4.4375,31
32,1696255037966,0.29907227,-0.9282837,-0.12213135,3.71875,11.09375,-4.78125,32
33,1696255038006,0.29907227,-0.8845825,-0.13458252,4.5625,11.03125,-3.75,33
34,1696255038046,0.29223633,-0.8777466,-0.19244385,2.40625,7.609375,-3.109375,34
35,1696255038086,0.2734375,-0.90997314,-0.19805908,1.5625,5.203125,-0.1875,35
36,1696255038126,0.2536621,-0.94488525,-0.19415283,4.09375,8.21875,-1.109375,36
37,1696255038166,0.23486328,-0.9678345,-0.21783447,2.0625,6.328125,-2.890625,37
38,1696255038206,0.26000977,-0.9741821,-0.20123291,1.3125,5.5625,-3.09375,38
39,1696255038246,0.29174805,-0.9209595,-0.21807861,3.59375,2.921875,-4.359375,39
40,1696255038286,0.2734375,-0.8999634,-0.2288208,1.4375,-2.234375,-4.203125,40
41,1696255038326,0.20996094,-0.8821411,-0.22247314,-0.96875,-7.59375,-2.484375,41
42,1696255038366,0.18017578,-0.9221802,-0.1921997,1.515625,-6.359375,-1.984375,42
43,1696255038406,0.17163086,-0.9673462,-0.2029419,-0.390625,-3.984375,-3.34375,43
44,1696255038446,0.21875,-0.9402466,-0.18682861,0.328125,-5.625,-2.203125,44
45,1696255038486,0.26464844,-0.9089966,-0.19439697,-1.0,-11.640625,0.84375,45
46,1696255038526,0.26904297,-0.90045166,-0.16436768,-3.375,-16.609375,2.4375,46
47,1696255038566,0.21850586,-0.92071533,-0.14239502,-2.09375,-15.0625,2.21875,47
48,1696255038606,0.10253906,-0.96759033,-0.1560669,-1.203125,-9.8125,0.265625,48
49,1696255038646,0.13427734,-0.991272,-0.17242432,1.84375,-0.1875,-0.265625,49
50,1696255038686,0.20800781,-0.9920044,-0.1428833,1.828125,-0.71875,0.703125,50
51,1696255038726,0.24658203,-0.95758057,-0.17022705,-2.046875,-6.515625,-0.046875,51
52,1696255038766,0.22192383,-1.0083618,-0.17071533,-8.21875,-7.078125,2.578125,52
53,1696255038806,0.25170898,-0.9846802,-0.124572754,-0.40625,-1.984375,4.53125,53
54,1696255038846,0.26757812,-0.9273071,-0.11431885,-0.5,-9.53125,1.125,54
55,1696255038886,0.28979492,-0.9055786,-0.11260986,-7.984375,-9.890625,0.0625,55
56,1696255038926,0.31762695,-0.8604126,-0.108947754,-4.625,-7.28125,-0.5625,56
57,1696255038966,0.31030273,-0.9072876,-0.09063721,-3.40625,-9.90625,2.484375,57
58,1696255039006,0.30688477,-0.93536377,-0.05230713,-7.6875,-9.84375,1.859375,58
59,1696255039046,0.26660156,-0.9038696,-0.037902832,-12.484375,-4.9375,-3.78125,59
60,1696255039086,0.26733398,-0.88946533,-0.054260254,-8.375,5.09375,-6.59375,60
61,1696255039126,0.30249023,-0.92755127,-0.026916504,-3.453125,7.640625,-3.203125,61
62,1696255039166,0.35913086,-0.95977783,0.007019043,-5.609375,4.5625,-1.265625,62
63,1696255039206,0.3955078,-0.9365845,-0.007385254,-5.953125,2.546875,-2.359375,63
64,1696255039246,0.4008789,-0.91851807,0.007507324,-9.890625,-6.015625,-2.1875,64
65,1696255039286,0.33007812,-0.9143677,0.05657959,-7.5625,-5.75,-2.59375,65
66,1696255039326,0.234375,-0.9192505,0.04534912,-6.328125,-2.578125,-2.703125,66
67,1696255039366,0.15673828,-0.96466064,0.00970459,-7.21875,2.140625,-4.40625,67
68,1696255039406,0.20751953,-0.9212036,0.008483887,-0.28125,9.125,-5.28125,68
69,1696255039446,0.2800293,-0.86187744,0.028015137,4.296875,10.671875,-3.171875,69
70,1696255039486,0.36083984,-0.862854,0.05267334,3.515625,6.421875,0.359375,70
71,1696255039526,0.34106445,-0.8777466,0.042419434,-0.71875,-1.890625,2.921875,71
72,1696255039566,0.29223633,-0.9273071,0.0211792,-3.21875,-6.671875,5.203125,72
73,1696255039606,0.23876953,-0.97735596,0.048034668,1.703125,-2.515625,5.296875,73
74,1696255039646,0.17358398,-0.9451294,0.04437256,1.5625,5.875,0.6875,74
75,1696255039686,0.15478516,-1.0176392,-0.008850098,7.796875,12.53125,1.1875,75
76,1696255039726,0.36987305,-1.0327759,-0.0051879883,8.59375,7.6875,5.765625,76
77,1696255039766,0.47094727,-0.9146118,0.013366699,4.4375,0.09375,6.71875,77
78,1696255039806,0.36914062,-0.8479614,-0.023498535,-4.078125,-7.796875,5.28125,78
79,1696255039846,0.22216797,-0.90460205,-0.0032348633,-0.921875,-2.59375,1.03125,79
80,1696255039886,0.14550781,-0.99835205,-0.043273926,5.140625,4.515625,-0.171875,80
81,1696255039926,0.22851562,-0.96173096,-0.07110596,5.953125,11.015625,-3.90625,81
82,1696255039966,0.33251953,-0.87628174,-0.05279541,5.796875,12.234375,-5.734375,82
83,1696255040006,0.3449707,-0.8953247,-0.066711426,4.671875,7.859375,-3.015625,83
84,1696255040046,0.28393555,-0.92510986,-0.08746338,-0.046875,6.78125,-2.109375,84
85,1696255040086,0.23168945,-0.97003174,-0.11529541,1.84375,4.578125,-4.796875,85
86,1696255040126,0.23950195,-1.003479,-0.13970947,0.734375,2.71875,-5.0625,86
87,1696255040166,0.2602539,-0.9365845,-0.12896729,1.65625,3.859375,-6.265625,87
88,1696255040206,0.2290039,-0.8796997,-0.11383057,3.84375,-2.265625,-7.140625,88
89,1696255040246,0.1508789,-0.94659424,-0.14483643,-0.25,-3.34375,-6.609375,89
90,1696255040286,0.11376953,-1.0247192,-0.15435791,-0.53125,-2.078125,-5.28125,90
91,1696255040326,0.16040039,-1.0108032,-0.13677979,3.015625,-1.75,-3.453125,91
92,1696255040366,0.20385742,-0.96295166,-0.10235596,0.15625,-2.5625,-3.734375,92
93,1696255040406,0.20385742,-0.9439087,-0.10235596,-2.0625,-8.015625,-2.859375,93
94,1696255040446,0.15893555,-0.9331665,-0.08746338,-1.984375,-11.5625,-2.0625,94
95,1696255040486,0.09716797,-0.93634033,-0.10211182,-0.59375,-12.0,-1.59375,95
96,1696255040526,0.079589844,-0.9314575,-0.10015869,-1.25,-9.03125,0.609375,96
97,1696255040566,0.12597656,-0.9439087,-0.09844971,-0.296875,-6.6875,2.84375,97
98,1696255040606,0.14208984,-0.9553833,-0.09991455,0.390625,-10.328125,4.09375,98
99,1696255040646,0.17529297,-0.97198486,-0.08746338,-1.859375,-14.828125,7.84375,99
100,1696255040686,0.19873047,-0.9685669,-0.09161377,-2.5625,-17.734375,10.296875,100
101,1696255040726,0.22851562,-0.98565674,-0.128479,1.140625,-20.609375,12.4375,101
102,1696255040766,0.19946289,-1.0015259,-0.034484863,3.796875,-8.609375,12.25,102
103,1696255040806,0.16308594,-0.940979,-0.019836426,4.75,-7.125,7.640625,103
104,1696255040846,0.21313477,-0.9961548,-0.050354004,3.546875,-8.109375,8.625,104
105,1696255040886,0.29638672,-0.93292236,-0.093322754,2.6875,-4.109375,6.765625,105
106,1696255040926,0.3552246,-0.8867798,-0.07305908,4.234375,-3.375,7.890625,106
107,1696255040966,0.35546875,-0.913147,-0.043273926,-2.328125,-5.234375,8.3125,107
108,1696255041006,0.33691406,-0.96710205,-0.0071411133,-3.59375,-6.765625,5.75,108
109,1696255041046,0.32299805,-0.96539307,-0.047180176,-6.78125,-10.296875,1.9375,109
110,1696255041086,0.3395996,-0.86431885,-0.04815674,-5.21875,-3.515625,-0.171875,110
111,1696255041126,0.39013672,-0.8130493,-0.013977051,-2.25,-0.328125,2.03125,111
112,1696255041166,0.4489746,-0.86431885,0.006286621,0.375,0.546875,4.640625,112
113,1696255041206,0.42797852,-0.927063,0.0072631836,-4.09375,0.015625,3.078125,113
114,1696255041246,0.39233398,-0.9807739,0.01727295,-5.15625,-2.828125,-0.625,114
115,1696255041286,0.34057617,-0.92755127,0.027770996,-2.921875,0.71875,-4.359375,115
116,1696255041326,0.35327148,-0.88116455,0.02142334,-1.65625,2.5625,-2.8125,116
117,1696255041366,0.39208984,-0.8845825,0.03265381,-3.796875,2.359375,-1.875,117
118,1696255041406,0.39111328,-0.9089966,0.05267334,-2.03125,4.703125,-3.0,118
119,1696255041446,0.30639648,-0.90631104,0.038024902,-2.921875,3.125,-4.59375,119
120,1696255041486,0.28442383,-0.8555298,0.031188965,-3.40625,2.046875,-3.859375,120
121,1696255041526,0.29174805,-0.83795166,0.04119873,-1.796875,9.5,-2.109375,121
122,1696255041566,0.31079102,-0.894104,0.06048584,-0.25,12.53125,-0.71875,122
123,1696255041606,0.28686523,-0.94659424,0.054626465,0.765625,11.078125,-2.34375,123
124,1696255041646,0.27807617,-1.0044556,0.016540527,1.1875,9.359375,-4.328125,124
125,1696255041686,0.3503418,-0.9627075,0.0072631836,4.265625,9.375,-1.46875,125
126,1696255041726,0.30200195,-0.8948364,-0.0051879883,2.765625,9.140625,-0.5,126
127,1696255041766,0.30664062,-0.9163208,-0.010314941,2.25,5.171875,0.75,127
128,1696255041806,0.33203125,-0.93927,-0.003967285,6.140625,5.453125,2.609375,128
129,1696255041846,0.35205078,-0.9229126,-0.038146973,2.0625,4.328125,2.09375,129
130,1696255041886,0.3503418,-0.9072876,-0.04473877,1.375,2.3125,-4.359375,130
131,1696255041926,0.29614258,-0.9348755,-0.03741455,6.703125,5.59375,-8.140625,131
132,1696255041966,0.22607422,-0.98883057,-0.05645752,6.359375,8.5,-7.0,132
133,1696255042006,0.2529297,-0.9924927,-0.09625244,5.625,7.109375,-7.15625,133
134,1696255042046,0.2915039,-0.958313,-0.105041504,-1.640625,1.59375,-7.5625,134
135,1696255042086,0.25561523,-0.9019165,-0.11968994,-2.890625,-2.515625,-7.8125,135
136,1696255042126,0.17675781,-0.88360596,-0.12017822,-5.1875,-4.421875,-6.0,136
137,1696255042166,0.19482422,-0.9133911,-0.11407471,-4.03125,2.0625,-5.328125,137
138,1696255042206,0.19995117,-0.98565674,-0.15045166,-1.328125,4.40625,-4.609375,138
139,1696255042246,0.17895508,-1.0606079,-0.14752197,-1.6875,0.9375,-4.203125,139
140,1696255042286,0.1784668,-0.9668579,-0.13702393,-3.125,-2.109375,-6.125,140
141,1696255042326,0.12719727,-0.9299927,-0.1182251,-1.8125,-3.171875,-3.765625,141
142,1696255042366,0.13232422,-0.9763794,-0.11187744,-1.9375,-1.328125,0.078125,142
143,1696255042406,0.1508789,-0.9949341,-0.14019775,1.3125,-4.390625,0.875,143
144,1696255042446,0.13183594,-0.95928955,-0.14581299,2.328125,-6.234375,-0.34375,144
145,1696255042486,0.10473633,-0.9158325,-0.12506104,0.78125,-4.453125,-0.234375,145
146,1696255042526,0.08300781,-0.93048096,-0.109436035,2.890625,-1.84375,0.734375,146
147,1696255042566,0.09741211,-0.9524536,-0.13360596,3.515625,0.796875,1.84375,147
148,1696255042606,0.16381836,-0.93585205,-0.1296997,3.28125,0.015625,5.28125,148
149,1696255042646,0.20385742,-0.9229126,-0.1506958,4.28125,-4.0,8.828125,149
150,1696255042686,0.19702148,-0.9817505,-0.1482544,0.78125,-7.671875,9.90625,150
151,1696255042726,0.2409668,-0.9602661,-0.08428955,3.4375,-2.859375,9.40625,151
152,1696255042766,0.13769531,-0.8635864,-0.054992676,7.140625,0.375,4.375,152
153,1696255042806,0.19677734,-0.9402466,-0.09552002,2.578125,2.328125,3.859375,153
154,1696255042846,0.31567383,-1.0361938,-0.108947754,5.859375,3.75,7.421875,154
155,1696255042886,0.36669922,-1.0003052,-0.1104126,-0.59375,-4.34375,5.203125,155
156,1696255042926,0.35668945,-0.9212036,-0.097717285,-6.09375,-7.90625,1.15625,156
157,1696255042966,0.29248047,-0.93341064,-0.08013916,-7.140625,-9.53125,2.984375,157
158,1696255043006,0.2902832,-0.97052,-0.03717041,-7.421875,-8.640625,5.203125,158
159,1696255043046,0.31298828,-0.95147705,-0.033996582,-9.75,-7.09375,0.84375,159
160,1696255043086,0.3347168,-0.9109497,-0.01763916,-6.40625,-1.5625,-3.796875,160
161,1696255043126,0.3112793,-0.89141846,-0.004699707,-4.046875,4.171875,-4.0625,161
162,1696255043166,0.29541016,-0.91485596,-0.0029907227,-4.90625,1.03125,-3.046875,162
163,1696255043206,0.30737305,-0.97442627,0.0072631836,-8.53125,-4.40625,-1.015625,163
164,1696255043246,0.33447266,-0.9614868,0.024353027,-11.375,-5.09375,-1.0625,164
165,1696255043286,0.33129883,-0.9351196,0.06585693,-11.375,-7.875,-1.65625,165
166,1696255043326,0.2565918,-0.92926025,0.06707764,-8.296875,-6.109375,-0.609375,166
167,1696255043366,0.23388672,-0.9067993,0.040222168,-6.0625,-4.515625,-2.609375,167
168,1696255043406,0.23388672,-0.88775635,0.050720215,-1.984375,2.8125,-3.609375,168
169,1696255043446,0.23120117,-0.8616333,0.062927246,-1.25,9.25,-3.65625,169
170,1696255043486,0.25195312,-0.88067627,0.054870605,1.75,9.34375,-2.125,170
171,1696255043526,0.27172852,-0.9360962,0.04168701,1.9375,6.953125,2.359375,171
172,1696255043566,0.32006836,-0.98150635,0.041931152,0.703125,2.796875,3.515625,172
173,1696255043606,0.32910156,-0.9529419,0.058532715,5.34375,3.171875,1.421875,173
174,1696255043646,0.2084961,-0.9234009,0.049743652,4.828125,6.046875,2.515625,174
175,1696255043686,0.20776367,-0.90875244,0.03778076,3.953125,6.75,1.703125,175
176,1696255043726,0.27685547,-0.911438,0.04827881,7.21875,9.234375,0.671875,176
177,1696255043766,0.3388672,-0.97442627,0.006286621,5.5625,7.46875,1.40625,177
178,1696255043806,0.3857422,-0.9834595,-0.0154418945,5.078125,0.390625,1.828125,178
179,1696255043846,0.32177734,-0.94488525,-0.018371582,4.09375,-1.4375,0.390625,179
180,1696255043886,0.24023438,-0.944397,-0.025939941,2.734375,0.765625,-2.875,180
181,1696255043926,0.1821289,-0.9434204,-0.02935791,2.828125,3.390625,-5.140625,181
182,1696255043966,0.21435547,-0.95440674,-0.043518066,2.703125,7.6875,-3.984375,182
183,1696255044006,0.2607422,-0.9290161,-0.046447754,0.984375,10.71875,-2.734375,183
184,1696255044046,0.29833984,-0.95196533,-0.05670166,1.109375,9.53125,-4.0,184
185,1696255044086,0.2692871,-0.98809814,-0.08282471,-1.90625,7.625,-2.765625,185
186,1696255044126,0.23510742,-0.9570923,-0.10211182,-0.765625,8.171875,-2.390625,186
187,1696255044166,0.20947266,-0.9470825,-0.09869385,3.3125,8.015625,-3.0,187
188,1696255044206,0.15771484,-0.9336548,-0.12554932,2.6875,8.15625,-2.1875,188
189,1696255044246,0.11621094,-0.8977661,-0.14434814,4.1875,14.796875,-0.78125,189
190,1696255044286,0.14672852,-0.9138794,-0.16949463,9.453125,21.125,-1.3125,190
191,1696255044326,0.19384766,-0.97003174,-0.18682861,5.578125,16.875,-0.9375,191
192,1696255044366,0.19458008,-0.9937134,-0.19903564,0.0,7.828125,-0.390625,192
193,1696255044406,0.17895508,-1.0169067,-0.1807251,-1.921875,4.140625,-1.359375,193
194,1696255044446,0.14550781,-0.9751587,-0.16607666,-0.953125,0.84375,-2.328125,194
195,1696255044486,0.1262207,-0.93463135,-0.16265869,-1.46875,-4.234375,-0.34375,195
196,1696255044526,0.15771484,-0.9216919,-0.17364502,-2.53125,-5.75,1.609375,196
197,1696255044566,0.20019531,-0.96539307,-0.15557861,2.875,-3.359375,1.578125,197
198,1696255044606,0.16210938,-0.96710205,-0.15264893,1.109375,-9.0,1.234375,198
199,1696255044646,0.15527344,-0.90582275,-0.16412354,-3.828125,-15.015625,2.578125,199
200,1696255044686,0.20019531,-0.88165283,-0.15899658,-3.6875,-19.921875,4.84375,200
201,1696255044726,0.22387695,-0.9277954,-0.1531372,-5.8125,-25.859375,7.109375,201
202,1696255044766,0.24926758,-1.0388794,-0.16143799,-4.453125,-22.390625,10.296875,202
203,1696255044806,0.23779297,-1.0691528,-0.020324707,4.609375,-13.375,7.453125,203
204,1696255044846,0.13745117,-0.9595337,-0.04937744,2.625,-21.640625,1.140625,204
205,1696255044886,0.11791992,-0.928772,-0.1338501,-2.046875,-13.484375,1.28125,205
206,1696255044926,0.19799805,-0.87335205,-0.14556885,8.1875,-3.828125,2.234375,206
207,1696255044966,0.31054688,-0.9168091,-0.051818848,9.71875,-4.3125,6.453125,207
208,1696255045006,0.27685547,-0.96539307,-0.023010254,0.71875,-7.5,5.65625,208
209,1696255045046,0.22094727,-1.0025024,-0.06085205,-6.21875,-8.390625,-1.40625,209
210,1696255045086,0.19873047,-0.9710083,-0.10333252,-5.265625,-1.0625,-4.3125,210
211,1696255045126,0.23803711,-0.90997314,-0.090148926,-0.625,5.453125,-0.265625,211
212,1696255045166,0.3154297,-0.87506104,-0.01739502,-5.375,2.09375,2.71875,212
213,1696255045206,0.34545898,-0.90753174,-0.031311035,-10.703125,-1.9375,-0.234375,213
214,1696255045246,0.33154297,-0.9973755,-0.024230957,-6.46875,3.84375,-1.359375,214
215,1696255045286,0.2734375,-1.005188,-0.031799316,-5.828125,6.765625,-1.390625,215
216,1696255045326,0.27124023,-0.88897705,-0.0020141602,-4.234375,9.265625,-3.453125,216
217,1696255045366,0.3071289,-0.86138916,0.0018920898,-2.03125,9.515625,-3.171875,217
218,1696255045406,0.35473633,-0.91973877,0.016052246,-2.421875,6.828125,-0.890625,218
219,1696255045446,0.33691406,-0.96417236,0.013366699,-4.875,1.015625,-0.640625,219
220,1696255045486,0.31884766,-0.9434204,0.028503418,-7.234375,-1.25,-1.515625,220
221,1696255045526,0.3017578,-0.958313,0.061462402,-1.90625,1.78125,-2.140625,221
222,1696255045566,0.26342773,-0.9475708,0.047546387,-0.890625,3.59375,-3.359375,222
223,1696255045606,0.23999023,-0.9067993,0.0289917,-1.734375,2.75,-4.625,223
224,1696255045646,0.25268555,-0.8591919,0.05706787,2.5,4.578125,-2.484375,224
225,1696255045686,0.25341797,-0.8648071,0.04949951,4.71875,6.09375,-1.296875,225
226,1696255045726,0.2368164,-0.92852783,0.024597168,2.9375,7.609375,-0.484375,226
227,1696255045766,0.20898438,-0.97613525,0.02142334,3.3125,11.96875,-3.125,227
228,1696255045806,0.17163086,-1.0281372,-0.044006348,2.921875,9.203125,-6.3125,228
229,1696255045846,0.25732422,-1.0564575,-0.0869751,6.015625,5.65625,-0.46875,229
230,1696255045886,0.30395508,-0.8982544,-0.09112549,2.65625,6.640625,3.03125,230
231,1696255045926,0.2319336,-0.85723877,-0.10992432,0.625,3.265625,-1.046875,231
232,1696255045966,0.1875,-0.9168091,-0.085510254,5.5625,5.390625,-2.09375,232
233,1696255046006,0.17944336,-1.0288696,-0.105285645,5.3125,8.1875,0.828125,233
234,1696255046046,0.2253418,-1.0383911,-0.14605713,2.0,6.953125,-4.625,234
235,1696255046086,0.22265625,-0.9837036,-0.14215088,3.109375,4.015625,-7.84375,235
236,1696255046126,0.16552734,-0.9163208,-0.14752197,2.625,2.21875,-4.390625,236
237,1696255046166,0.16455078,-0.862854,-0.14752197,3.03125,2.890625,-0.53125,237
238,1696255046206,0.15209961,-0.94488525,-0.1675415,-1.109375,-2.234375,-0.015625,238
239,1696255046246,0.12817383,-1.0427856,-0.1663208,-7.03125,-2.671875,-0.421875,239
240,1696255046286,0.12988281,-1.0266724,-0.14654541,-6.609375,-2.625,-2.4375,240
241,1696255046326,0.16601562,-0.9451294,-0.11431885,-0.890625,-3.734375,-3.796875,241
242,1696255046366,0.17138672,-0.9458618,-0.113586426,0.609375,-6.734375,-4.1875,242
243,1696255046406,0.123046875,-0.925354,-0.13433838,-0.078125,-9.1875,-2.609375,243
244,1696255046446,0.107421875,-0.93536377,-0.13995361,0.9375,-7.890625,0.546875,244
245,1696255046486,0.09692383,-0.94732666,-0.109680176,5.96875,-0.4375,1.4375,245
246,1696255046526,0.09082031,-0.9668579,-0.11871338,2.21875,-1.046875,1.59375,246
247,1696255046566,0.13085938,-0.9663696,-0.11846924,0.203125,-2.46875,0.953125,247
248,1696255046606,0.17504883,-0.98565674,-0.1350708,-1.15625,-4.609375,0.09375,248
249,1696255046646,0.13891602,-0.9924927,-0.105285645,-4.3125,-8.28125,1.171875,249
250,1696255046686,0.10839844,-0.97735596,-0.10650635,-3.453125,-11.53125,2.03125,250
251,1696255046726,0.10546875,-0.9314575,-0.10211182,-1.125,-14.625,1.375,251
252,1696255046766,0.12060547,-0.91192627,-0.120666504,-1.984375,-14.046875,3.890625,252
253,1696255046806,0.14160156,-0.9290161,-0.1506958,-5.34375,-16.609375,7.5625,253
254,1696255046846,0.20703125,-1.0569458,-0.16827393,-6.375,-16.171875,13.046875,254
255,1696255046886,0.27001953,-1.0481567,0.04168701,11.5,-2.640625,5.890625,255
256,1696255046926,0.21850586,-0.9915161,-0.0076293945,7.546875,-18.953125,0.734375,256
257,1696255046966,0.18139648,-0.9483032,-0.10845947,-1.796875,-12.59375,4.46875,257
258,1696255047006,0.23022461,-0.8665161,-0.10797119,3.28125,-6.96875,3.53125,258
259,1696255047046,0.32714844,-0.87335205,-0.047668457,7.78125,-9.609375,7.984375,259
260,1696255047086,0.31713867,-0.9649048,-0.032287598,-0.8125,-10.46875,7.703125,260
261,1696255047126,0.2705078,-1.0344849,-0.039611816,-9.0625,-12.21875,-0.84375,261
262,1696255047166,0.21508789,-0.97979736,-0.054748535,-8.25,-14.515625,-5.484375,262
263,1696255047206,0.27441406,-0.86383057,0.018981934,-2.859375,-8.53125,-5.359375,263
264,1696255047246,0.30126953,-0.85479736,0.047546387,-1.8125,-2.546875,-5.265625,264
265,1696255047286,0.26635742,-0.9397583,0.0079956055,-5.3125,-0.890625,-6.59375,265
266,1696255047326,0.25610352,-1.0088501,0.032409668,-2.84375,-4.484375,-2.953125,266
267,1696255047366,0.29663086,-0.9846802,0.0692749,-1.296875,-3.0,1.1875,267
268,1696255047406,0.29833984,-0.9331665,0.10736084,-4.71875,3.375,0.34375,268
269,1696255047446,0.2434082,-0.9104614,0.08441162,-5.28125,3.1875,-2.515625,269
270,1696255047486,0.22998047,-0.93096924,0.059509277,-3.9375,-0.3125,0.1875,270
271,1696255047526,0.25805664,-0.89434814,0.06317139,-0.3125,6.453125,1.015625,271
272,1696255047566,0.23876953,-0.8740845,0.08856201,1.328125,8.703125,-1.4375,272
273,1696255047606,0.18701172,-0.89141846,0.08319092,0.578125,11.75,-1.109375,273
274,1696255047646,0.16674805,-0.91363525,0.058044434,1.515625,18.046875,0.640625,274
275,1696255047686,0.20410156,-0.97662354,0.030212402,1.0625,15.59375,0.03125,275
276,1696255047726,0.31567383,-1.0056763,0.030456543,4.28125,12.859375,-0.265625,276
277,1696255047766,0.26416016,-1.005188,-0.0015258789,3.28125,14.484375,0.15625,277
278,1696255047806,0.2607422,-0.97247314,-0.014953613,1.390625,9.65625,0.46875,278
279,1696255047846,0.26538086,-0.8735962,-0.015930176,1.28125,7.390625,2.765625,279
280,1696255047886,0.2800293,-0.864563,-0.03692627,3.0,9.09375,4.25,280
281,1696255047926,0.31689453,-0.972229,-0.077697754,2.453125,8.78125,2.0625,281
282,1696255047966,0.27075195,-1.0440063,-0.07330322,6.515625,10.59375,-0.734375,282
283,1696255048006,0.23242188,-0.9939575,-0.10870361,0.484375,3.875,-6.0625,283
284,1696255048046,0.24511719,-0.93878174,-0.11553955,1.078125,4.265625,-6.359375,284
285,1696255048086,0.25,-0.9031372,-0.09185791,-0.03125,3.0625,-5.15625,285
286,1696255048126,0.19995117,-0.9199829,-0.10601807,0.265625,2.53125,-4.421875,286
287,1696255048166,0.16088867,-0.9463501,-0.12017822,0.0,4.4375,-4.890625,287
288,1696255048206,0.12988281,-1.0012817,-0.12164307,4.203125,8.9375,-4.4375,288
289,1696255048246,0.1694336,-0.9702759,-0.13580322,1.84375,8.984375,-4.953125,289
290,1696255048286,0.19580078,-0.90338135,-0.14508057,3.625,6.796875,-6.140625,290
291,1696255048326,0.16137695,-0.93048096,-0.14605713,4.25,2.640625,-4.125,291
292,1696255048366,0.111572266,-0.97613525,-0.14141846,-0.625,-0.984375,-2.609375,292
293,1696255048406,0.09472656,-1.0283813,-0.1494751,-1.65625,-4.3125,-2.6875,293
294,1696255048446,0.12060547,-1.0003052,-0.10772705,-0.796875,-5.4375,-2.984375,294
295,1696255048486,0.09765625,-0.9981079,-0.113586426,-3.859375,-5.59375,-3.96875,295
296,1696255048526,0.08691406,-0.96173096,-0.11553955,-5.03125,-6.546875,-4.5625,296
297,1696255048566,0.06591797,-0.95318604,-0.10455322,-6.625,-6.515625,-2.875,297
298,1696255048606,0.042236328,-0.9685669,-0.113586426,-3.9375,-4.875,-3.578125,298
299,1696255048646,0.091308594,-0.956604,-0.10772705,-2.46875,-2.75,-3.59375,299
300,1696255048686,0.09692383,-0.93048096,-0.09893799,-2.046875,-4.671875,-0.75,300
301,1696255048726,0.09057617,-0.9290161,-0.09234619,-1.203125,-7.9375,1.25,301
302,1696255048766,0.032470703,-0.95880127,-0.09967041,-0.953125,-8.015625,4.296875,302
303,1696255048806,0.040039062,-0.9932251,-0.117004395,-2.03125,-4.453125,6.765625,303
304,1696255048846,0.0949707,-1.0757446,-0.117004395,0.125,-8.015625,8.515625,304
305,1696255048886,0.18676758,-1.0440063,-0.042785645,1.03125,-8.125,9.140625,305
306,1696255048926,0.20410156,-0.9644165,-0.038391113,-4.328125,-7.375,3.203125,306
307,1696255048966,0.13598633,-0.97003174,-0.081848145,-5.59375,-7.40625,2.109375,307
308,1696255049006,0.12451172,-0.93951416,-0.049621582,-2.96875,-5.75,4.046875,308
309,1696255049046,0.18261719,-0.91290283,-0.011779785,-1.78125,-4.421875,3.15625,309
310,1696255049086,0.2163086,-0.9221802,0.0014038086,-8.578125,-4.296875,0.8125,310
311,1696255049126,0.22387695,-0.98809814,-0.00030517578,-6.53125,-11.234375,0.6875,311
312,1696255049166,0.25024414,-0.9331665,0.0040893555,-5.140625,-14.25,2.8125,312
313,1696255049206,0.2590332,-0.89190674,0.01751709,-7.421875,-8.796875,3.8125,313
314,1696255049246,0.21557617,-0.9307251,0.019470215,-2.609375,-8.421875,4.46875,314
315,1696255049286,0.2133789,-0.99102783,0.10296631,-1.203125,-5.171875,5.125,315
316,1696255049326,0.16040039,-0.97247314,0.11053467,-5.046875,-3.015625,-0.34375,316
317,1696255049366,0.16235352,-0.9854126,0.1149292,-6.546875,0.96875,-3.5625,317
318,1696255049406,0.18603516,-1.0203247,0.12005615,-1.875,6.96875,-2.65625,318
319,1696255049446,0.24267578,-1.0117798,0.12054443,-4.796875,1.375,-2.171875,319
320,1696255049486,0.26879883,-0.93927,0.113708496,-6.15625,1.75,-3.3125,320
321,1696255049526,0.22070312,-0.90948486,0.094177246,-5.0625,0.921875,-3.703125,321
322,1696255049566,0.21191406,-0.89263916,0.109069824,-3.0,-1.40625,-3.234375,322
323,1696255049606,0.2055664,-0.85894775,0.15960693,-1.953125,3.234375,-3.359375,323
324,1696255049646,0.16210938,-0.911438,0.11151123,-2.34375,5.375,-2.796875,324
325,1696255049686,0.18310547,-0.98638916,0.094177246,0.8125,7.109375,-1.5625,325
326,1696255049726,0.21948242,-1.0010376,0.09881592,2.625,7.078125,-0.328125,326
327,1696255049766,0.25878906,-0.93878174,0.116882324,7.328125,5.078125,0.46875,327
328,1696255049806,0.13085938,-0.940979,0.0927124,0.1875,7.0625,-1.0,328
329,1696255049846,0.09790039,-0.9973755,0.10003662,3.625,9.765625,-1.3125,329
330,1696255049886,0.21313477,-1.0022583,0.03729248,5.8125,10.53125,0.71875,330
331,1696255049926,0.32373047,-0.92974854,0.038757324,5.34375,7.015625,2.625,331
332,1696255049966,0.24389648,-0.8843384,0.03314209,4.703125,2.203125,2.453125,332
333,1696255050006,0.15722656,-0.96759033,0.020202637,3.21875,2.734375,1.796875,333
334,1696255050046,0.12133789,-1.0061646,0.00970459,5.4375,6.90625,-0.15625,334
335,1696255050086,0.16577148,-1.0005493,-0.03692627,8.375,8.03125,-2.546875,335
336,1696255050126,0.22192383,-0.9902954,-0.03765869,5.03125,10.921875,-2.78125,336
337,1696255050166,0.21289062,-0.94317627,-0.027160645,2.046875,5.515625,-3.59375,337
338,1696255050206,0.17236328,-0.9500122,-0.03253174,1.203125,0.6875,-3.296875,338
339,1696255050246,0.15917969,-0.9951782,-0.06451416,-0.171875,3.421875,-3.125,339
340,1696255050286,0.14990234,-1.0122681,-0.06060791,-0.953125,3.203125,-2.9375,340
341,1696255050326,0.12402344,-0.97003174,-0.054016113,1.046875,4.875,-4.4375,341
342,1696255050366,0.099121094,-0.94781494,-0.07281494,2.21875,9.828125,-4.796875,342
343,1696255050406,0.08203125,-0.9546509,-0.09625244,-0.109375,10.703125,-4.15625,343
344,1696255050446,0.099121094,-0.96221924,-0.09527588,0.59375,8.515625,-2.28125,344
345,1696255050486,0.11279297,-1.0064087,-0.085510254,0.234375,7.609375,-2.28125,345
346,1696255050526,0.12548828,-1.0247192,-0.06695557,-0.90625,2.34375,-3.078125,346
347,1696255050566,0.10473633,-0.9729614,-0.074279785,0.328125,-3.09375,-3.96875,347
348,1696255050606,0.061279297,-0.95269775,-0.07476807,-0.875,-3.25,-3.625,348
349,1696255050646,0.015136719,-0.9717407,-0.06451416,-1.109375,-1.515625,-2.3125,349
350,1696255050686,-0.0029296875,-1.0100708,-0.06744385,-0.71875,1.5625,-1.078125,350
351,1696255050726,0.060546875,-1.0127563,-0.06866455,-0.25,3.25,-0.78125,351
352,1696255050766,0.12231445,-0.95196533,-0.05206299,-0.6875,-0.125,-0.390625,352
353,1696255050806,0.12109375,-0.93292236,-0.027648926,-0.953125,-6.53125,1.125,353
354,1696255050846,0.053222656,-0.95928955,-0.02178955,-1.859375,-8.484375,3.359375,354
355,1696255050886,-0.0024414062,-0.9771118,-0.030822754,-1.171875,-7.359375,3.109375,355
356,1696255050926,-0.022460938,-1.0305786,-0.04449463,-0.390625,-4.125,3.890625,356
357,1696255050966,0.04321289,-1.0144653,-0.059143066,0.625,-2.234375,4.375,357
358,1696255051006,0.10180664,-0.97662354,-0.040100098,-0.609375,-6.53125,6.21875,358
359,1696255051046,0.14013672,-0.9873657,-0.022033691,-1.25,-11.265625,7.046875,359
360,1696255051086,0.16088867,-1.0220337,-0.034973145,-0.640625,-16.390625,8.390625,360
361,1696255051126,0.13598633,-1.0003052,-6.1035156e-05,2.6875,-13.96875,5.515625,361
362,1696255051166,0.060302734,-0.9163208,-0.00592041,0.984375,-12.71875,2.09375,362
363,1696255051206,0.061035156,-0.95758057,-0.020324707,1.890625,-7.390625,3.453125,363
364,1696255051246,0.14575195,-0.9656372,-0.045715332,5.625,-3.453125,4.59375,364
365,1696255051286,0.2446289,-0.9780884,-0.002746582,3.375,-6.3125,4.796875,365
366,1696255051326,0.25268555,-0.9902954,0.005065918,-3.6875,-13.46875,2.890625,366
367,1696255051366,0.22680664,-0.97052,-6.1035156e-05,-6.265625,-18.8125,1.828125,367
368,1696255051406,0.1743164,-0.94317627,0.0072631836,-6.015625,-13.5625,1.609375,368
369,1696255051446,0.17480469,-0.9216919,0.034851074,-5.03125,-8.203125,0.765625,369
370,1696255051486,0.2055664,-0.9397583,0.057800293,-4.859375,-2.34375,-0.359375,370
371,1696255051526,0.22851562,-0.9998169,0.058288574,-4.546875,-1.421875,-0.53125,371
372,1696255051566,0.26049805,-1.0088501,0.07196045,-5.78125,-1.953125,0.140625,372
373,1696255051606,0.24267578,-0.96466064,0.08074951,-6.515625,-3.078125,0.9375,373
374,1696255051646,0.21850586,-0.9102173,0.093444824,-4.21875,-0.546875,1.078125,374
375,1696255051686,0.1730957,-0.9194946,0.11785889,-4.546875,1.265625,2.265625,375
376,1696255051726,0.18823242,-0.94537354,0.12786865,-3.6875,1.53125,1.0,376
377,1696255051766,0.21826172,-0.9368286,0.11029053,0.015625,3.0,-1.390625,377
378,1696255051806,0.25683594,-0.9265747,0.09442139,0.0,3.546875,1.125,378
379,1696255051846,0.27416992,-0.9053345,0.0993042,1.515625,3.640625,3.03125,379
380,1696255051886,0.24169922,-0.91412354,0.11663818,4.03125,2.484375,1.953125,380
381,1696255051926,0.22583008,-0.95635986,0.093688965,0.9375,1.515625,2.109375,381
382,1696255051966,0.23754883,-0.98760986,0.08026123,4.546875,4.203125,2.671875,382
383,1696255052006,0.19824219,-0.9649048,0.09857178,4.03125,6.09375,0.921875,383
384,1696255052046,0.14282227,-0.96710205,0.074157715,1.953125,8.890625,-2.546875,384
385,1696255052086,0.20263672,-0.99713135,0.04168701,5.3125,8.78125,-2.4375,385
386,1696255052126,0.296875,-0.97491455,0.016052246,4.109375,7.109375,2.5625,386
387,1696255052166,0.2944336,-0.92437744,-0.016174316,-2.71875,2.203125,1.734375,387
388,1696255052206,0.24291992,-0.9553833,0.01361084,1.21875,0.765625,-1.421875,388
389,1696255052246,0.15405273,-0.98687744,0.02142334,1.8125,2.109375,-1.828125,389
390,1696255052286,0.15600586,-0.9771118,-0.026428223,0.421875,2.53125,-2.78125,390
391,1696255052326,0.21069336,-0.96710205,-0.034973145,1.03125,5.78125,-3.5,391
392,1696255052366,0.2055664,-0.94976807,-0.009338379,1.859375,5.53125,-3.390625,392
393,1696255052406,0.17553711,-0.944397,-0.026428223,1.6875,2.5625,-4.0625,393
394,1696255052446,0.19091797,-0.9524536,-0.03692627,1.90625,1.96875,-3.21875,394
395,1696255052486,0.18774414,-1.0022583,-0.010559082,1.640625,1.0625,-3.40625,395
396,1696255052526,0.17773438,-0.98638916,-0.009094238,-1.453125,-0.734375,-4.375,396
397,1696255052566,0.16455078,-0.95562744,-0.015686035,-0.828125,-0.1875,-5.390625,397
398,1696255052606,0.13500977,-0.98223877,-0.028381348,-0.09375,4.609375,-5.5,398
399,1696255052646,0.095947266,-0.9902954,-0.03326416,-0.5,6.21875,-6.1875,399
400,1696255052686,0.0859375,-0.9573364,-0.04937744,-0.453125,4.890625,-5.953125,400
401,1696255052726,0.09326172,-0.95391846,-0.061584473,0.203125,5.453125,-4.75,401
402,1696255052766,0.103515625,-0.9673462,-0.05279541,0.890625,4.15625,-4.09375,402
403,1696255052806,0.10913086,-0.9800415,-0.035217285,0.546875,-0.71875,-3.0,403
404,1696255052846,0.08935547,-0.99176025,-0.040100098,-1.4375,-5.421875,-1.796875,404
405,1696255052886,0.042236328,-0.97540283,-0.041809082,-0.03125,-3.546875,-2.34375,405
406,1696255052926,0.005126953,-0.9656372,-0.047180176,-1.53125,-4.765625,-0.59375,406
407,1696255052966,0.0007324219,-0.9871216,-0.06060791,1.234375,-2.078125,1.625,407
408,1696255053006,0.09790039,-0.98443604,-0.038146973,1.5625,-1.296875,4.265625,408
409,1696255053046,0.13964844,-0.95513916,-0.0064086914,1.71875,-5.84375,5.21875,409
410,1696255053086,0.11230469,-0.98150635,-0.0154418945,-2.15625,-11.859375,5.125,410
411,1696255053126,0.064941406,-1.0005493,-0.023986816,-3.765625,-15.390625,5.0,411
412,1696255053166,0.03881836,-1.015686,-0.026184082,-3.90625,-15.609375,4.421875,412
413,1696255053206,0.04272461,-1.0403442,-0.04840088,-3.171875,-12.625,4.265625,413
414,1696255053246,0.111083984,-1.083313,0.017028809,-2.875,-7.515625,4.421875,414
415,1696255053286,0.14501953,-0.91729736,0.06390381,2.21875,-9.359375,-0.5625,415
416,1696255053326,0.10253906,-0.89678955,0.0028686523,1.21875,-12.34375,0.0,416
417,1696255053366,0.08496094,-0.958313,-0.062072754,2.59375,-3.859375,3.34375,417
418,1696255053406,0.14160156,-0.95684814,-0.038146973,5.828125,-5.390625,5.6875,418
419,1696255053446,0.19702148,-0.95806885,0.03363037,5.234375,-8.09375,7.015625,419
420,1696255053486,0.19555664,-0.96881104,0.030212402,-2.0625,-14.03125,4.921875,420
421,1696255053526,0.22021484,-0.9690552,0.0040893555,-4.671875,-17.40625,4.359375,421
422,1696255053566,0.25805664,-0.93585205,0.016784668,-1.015625,-10.171875,5.1875,422
423,1696255053606,0.20605469,-0.9492798,0.054626465,2.1875,-2.953125,4.28125,423
424,1696255053646,0.13183594,-0.9800415,0.07318115,-0.734375,-0.1875,1.609375,424
425,1696255053686,0.1586914,-0.9846802,0.04901123,-1.046875,0.734375,-1.171875,425
426,1696255053726,0.2746582,-0.9573364,0.050964355,1.15625,1.359375,0.890625,426
427,1696255053766,0.3330078,-0.93463135,0.06097412,-1.53125,-1.765625,4.578125,427
428,1696255053806,0.3125,-0.9378052,0.062194824,-1.890625,-5.421875,4.703125,428
429,1696255053846,0.21313477,-0.9627075,0.06317139,-4.1875,-6.671875,4.171875,429
430,1696255053886,0.17871094,-0.9829712,0.066101074,-5.046875,-2.84375,3.078125,430
431,1696255053926,0.21728516,-0.944397,0.07659912,-3.296875,4.0,0.5,431
432,1696255053966,0.23461914,-0.93536377,0.08758545,-3.078125,6.78125,-1.09375,432
433,1696255054006,0.25268555,-0.96832275,0.085876465,-3.703125,5.46875,-0.484375,433
434,1696255054046,0.2758789,-0.9475708,0.07879639,-3.890625,5.03125,-1.5,434
435,1696255054086,0.25976562,-0.92510986,0.06707764,-2.859375,3.21875,-1.390625,435
436,1696255054126,0.25585938,-0.9385376,0.08685303,0.15625,4.71875,0.1875,436
437,1696255054166,0.23388672,-0.95318604,0.082214355,0.96875,7.6875,0.328125,437
438,1696255054206,0.22485352,-0.94122314,0.06072998,-1.21875,4.328125,0.140625,438
439,1696255054246,0.21289062,-0.9417114,0.07342529,-0.046875,7.15625,0.21875,439
440,1696255054286,0.19018555,-0.9221802,0.09442139,3.640625,9.515625,-2.546875,440
441,1696255054326,0.1616211,-0.8965454,0.12054443,0.09375,8.515625,-4.75,441
442,1696255054366,0.17382812,-0.93096924,0.10858154,-1.15625,11.546875,-4.359375,442
443,1696255054406,0.21435547,-1.0352173,0.06365967,-1.9375,10.296875,-4.578125,443
444,1696255054446,0.27514648,-1.0532837,0.06341553,3.5,6.703125,-4.453125,444
445,1696255054486,0.21728516,-0.9937134,0.027038574,-0.421875,6.125,-3.515625,445
446,1696255054526,0.18530273,-0.94366455,0.012878418,3.328125,5.71875,-0.5,446
447,1696255054566,0.19384766,-0.8648071,0.03314209,0.078125,6.90625,1.21875,447
448,1696255054606,0.24389648,-0.9102173,0.021911621,3.5,5.28125,3.59375,448
449,1696255054646,0.2775879,-1.0022583,0.01776123,-0.1875,4.921875,5.703125,449
450,1696255054686,0.20874023,-0.99591064,0.00018310547,0.25,2.734375,0.265625,450
451,1696255054726,0.19506836,-0.96466064,-0.016662598,3.078125,0.09375,-0.828125,451
452,1696255054766,0.20361328,-0.9265747,0.013122559,5.484375,3.125,1.171875,452
453,1696255054806,0.23632812,-0.94122314,0.0033569336,5.65625,0.203125,1.421875,453
454,1696255054846,0.25024414,-0.9636841,-0.010803223,3.140625,-1.5,-0.484375,454
455,1696255054886,0.18066406,-0.9788208,-0.022033691,2.5,-1.609375,-2.1875,455
456,1696255054926,0.13647461,-0.96661377,-0.035949707,4.484375,0.609375,-3.5,456
457,1696255054966,0.1496582,-0.92755127,-0.04058838,4.828125,1.59375,-3.28125,457
458,1696255055006,0.203125,-0.9192505,-0.04034424,4.078125,1.875,-0.46875,458
459,1696255055046,0.20239258,-0.9590454,-0.026672363,2.03125,2.1875,-0.234375,459
460,1696255055086,0.16064453,-1.0437622,-0.04815674,1.484375,3.3125,-2.578125,460
461,1696255055126,0.12915039,-1.029602,-0.05206299,1.0,4.546875,-5.03125,461
462,1696255055166,0.111816406,-0.9463501,-0.074035645,3.21875,4.90625,-5.5625,462
463,1696255055206,0.13623047,-0.94000244,-0.105773926,-0.875,-0.578125,-3.234375,463
464,1696255055246,0.1743164,-0.97003174,-0.089904785,0.15625,-6.171875,-0.703125,464
465,1696255055286,0.14794922,-1.0093384,-0.046936035,-0.625,-9.0625,-1.046875,465
466,1696255055326,0.068603516,-1.0161743,-0.078430176,-1.25,-9.671875,-3.90625,466
467,1696255055366,0.018066406,-0.98321533,-0.10235596,-2.84375,-5.21875,-4.15625,467
468,1696255055406,0.06738281,-0.9404907,-0.089416504,-0.28125,-1.890625,-1.875,468
469,1696255055446,0.13110352,-0.925354,-0.066223145,4.78125,1.34375,1.515625,469
470,1696255055486,0.13378906,-0.975647,-0.07086182,2.328125,1.8125,0.84375,470
471,1696255055526,0.10644531,-0.98809814,-0.081604004,-0.828125,-3.78125,-1.125,471
472,1696255055566,0.08520508,-0.9421997,-0.09576416,-1.890625,-9.96875,-1.15625,472
473,1696255055606,0.087646484,-0.9758911,-0.07086182,-0.28125,-6.03125,1.0,473
474,1696255055646,0.0793457,-1.0393677,-0.057922363,-1.40625,-5.296875,1.640625,474
475,1696255055686,0.064941406,-1.0200806,-0.07623291,-2.84375,-8.484375,0.90625,475
476,1696255055726,0.11328125,-1.0007935,-0.07989502,-3.71875,-9.71875,3.046875,476
477,1696255055766,0.16601562,-0.97906494,-0.023986816,0.9375,-6.6875,5.390625,477
478,1696255055806,0.110839844,-0.9402466,-0.0032348633,0.75,-6.71875,4.140625,478
479,1696255055846,0.11035156,-0.97003174,-0.027893066,-2.875,-4.9375,5.28125,479
480,1696255055886,0.15405273,-0.95513916,-0.054260254,-0.34375,-3.109375,5.140625,480
481,1696255055926,0.2121582,-0.9414673,-6.1035156e-05,3.171875,-4.15625,5.78125,481
482,1696255055966,0.20996094,-0.9290161,0.0079956055,4.796875,-5.5625,5.71875,482
483,1696255056006,0.15649414,-0.96466064,-0.050354004,1.875,-9.75,5.5,483
484,1696255056046,0.17211914,-0.9639282,-0.046447754,-0.1875,-6.578125,5.53125,484
485,1696255056086,0.24414062,-0.9570923,-0.008850098,1.1875,-2.90625,5.25,485
486,1696255056126,0.2763672,-0.97076416,-0.0017700195,1.0625,-1.875,3.078125,486
487,1696255056166,0.27124023,-0.97784424,-0.007385254,-2.578125,-3.28125,0.46875,487
488,1696255056206,0.27539062,-0.975647,0.012145996,-3.84375,-6.46875,0.1875,488
489,1696255056246,0.2854004,-0.94415283,0.023376465,-3.234375,-6.78125,-0.28125,489
490,1696255056286,0.25146484,-0.92022705,0.034118652,-4.1875,-2.296875,-1.828125,490
491,1696255056326,0.2163086,-0.9536743,0.042663574,-3.796875,0.625,-2.640625,491
492,1696255056366,0.21728516,-0.9734497,0.05218506,-3.828125,2.328125,-4.359375,492
493,1696255056406,0.24511719,-0.9651489,0.06048584,-3.859375,1.171875,-3.71875,493
494,1696255056446,0.27954102,-0.9324341,0.04510498,-4.34375,0.703125,-2.03125,494
495,1696255056486,0.2788086,-0.90826416,0.06512451,-4.90625,-0.78125,0.296875,495
496,1696255056526,0.2006836,-0.9036255,0.06951904,-4.671875,0.671875,-0.640625,496
497,1696255056566,0.1743164,-0.9529419,0.08001709,-4.21875,0.78125,-0.6875,497
498,1696255056606,0.19799805,-0.95269775,0.089538574,0.140625,7.390625,-0.625,498
499,1696255056646,0.19506836,-0.9390259,0.08343506,-0.25,8.828125,-1.765625,499
500,1696255056686,0.20239258,-0.96417236,0.07977295,0.953125,8.3125,-2.0,500
501,1696255056726,0.20825195,-1.003479,0.07684326,0.859375,6.125,-0.296875,501
502,1696255056766,0.2265625,-0.99224854,0.08294678,-0.5,6.109375,0.609375,502
503,1696255056806,0.18896484,-0.98883057,0.036315918,-3.453125,5.78125,-2.421875,503
504,1696255056846,0.19067383,-1.0244751,-0.010314941,3.03125,5.765625,1.546875,504
505,1696255056886,0.23876953,-0.93756104,0.008239746,0.59375,8.984375,3.265625,505
506,1696255056926,0.23901367,-0.89923096,-0.018859863,0.3125,3.484375,0.0,506
507,1696255056966,0.25561523,-0.9456177,0.0099487305,-0.78125,4.171875,2.015625,507
508,1696255057006,0.21484375,-0.97906494,-0.008117676,-2.265625,3.5625,0.78125,508
509,1696255057046,0.1887207,-0.9873657,-0.037902832,-0.0625,2.140625,-2.140625,509
510,1696255057086,0.19580078,-0.9446411,-0.023742676,-0.296875,4.796875,-1.640625,510
511,1696255057126,0.21191406,-0.92926025,-0.00030517578,0.59375,3.375,-1.03125,511
512,1696255057166,0.21459961,-0.94000244,-0.0154418945,0.078125,0.65625,-1.328125,512
513,1696255057206,0.19067383,-0.97052,-0.00079345703,1.28125,2.84375,-0.8125,513
514,1696255057246,0.16918945,-0.99176025,-0.016418457,-0.171875,2.328125,-1.640625,514
515,1696255057286,0.15209961,-0.97052,-0.014953613,0.4375,2.515625,-2.828125,515
516,1696255057326,0.17138672,-0.9741821,0.003112793,1.859375,3.40625,-2.84375,516
517,1696255057366,0.1784668,-0.96051025,-0.002746582,1.171875,2.65625,-2.546875,517
518,1696255057406,0.18261719,-0.94732666,-0.02178955,0.8125,0.875,-3.296875,518
519,1696255057446,0.16967773,-0.9558716,-0.030578613,1.421875,-1.75,-3.546875,519
520,1696255057486,0.13745117,-0.9522095,-0.007385254,1.8125,0.21875,-2.546875,520
521,1696255057526,0.114990234,-0.960022,-0.016662598,0.75,1.65625,-3.0625,521
522,1696255057566,0.09082031,-0.9883423,-0.04888916,0.234375,2.421875,-3.3125,522
523,1696255057606,0.08203125,-1.0149536,-0.047424316,-0.25,2.875,-3.34375,523
524,1696255057646,0.13012695,-1.0037231,-0.02545166,1.859375,0.109375,-2.984375,524
525,1696255057686,0.09399414,-1.0007935,-0.019592285,1.671875,-4.25,-3.75,525
526,1696255057726,0.0769043,-0.97540283,-0.03668213,-0.1875,-4.59375,-3.0625,526
527,1696255057766,0.063964844,-0.95391846,-0.04058838,0.65625,-5.84375,-0.8125,527
528,1696255057806,0.05908203,-0.94976807,-0.045959473,2.421875,-3.8125,-0.453125,528
529,1696255057846,0.072753906,-0.9619751,-0.03326416,1.71875,-2.390625,1.484375,529
530,1696255057886,0.075927734,-0.96954346,-0.0413208,-0.453125,-4.390625,3.703125,530
531,1696255057926,0.0793457,-0.986145,-0.066711426,-3.03125,-8.125,5.875,531
532,1696255057966,0.15429688,-1.0059204,-0.054748535,-2.5,-9.234375,9.46875,532
533,1696255058006,0.19555664,-0.9834595,-0.0064086914,-2.328125,-15.1875,10.859375,533
534,1696255058046,0.18457031,-1.0178833,-0.012512207,-0.953125,-19.40625,9.09375,534
535,1696255058086,0.11743164,-1.0339966,0.008728027,-2.0,-15.359375,5.484375,535
536,1696255058126,0.072265625,-0.9495239,0.034362793,3.71875,-11.296875,2.40625,536
537,1696255058166,0.1184082,-0.9168091,-0.028381348,4.125,-8.671875,0.859375,537
538,1696255058206,0.20996094,-0.92803955,-0.049621582,5.640625,-2.421875,1.96875,538
539,1696255058246,0.2565918,-0.95098877,-0.020080566,6.5625,-4.375,3.28125,539
540,1696255058286,0.21948242,-0.9397583,-0.0020141602,-0.3125,-10.5625,2.203125,540
541,1696255058326,0.16992188,-0.96173096,-0.004699707,-4.609375,-12.328125,1.0,541
542,1696255058366,0.17651367,-0.95269775,-0.02130127,-1.484375,-6.6875,2.484375,542
543,1696255058406,0.20507812,-0.97369385,-0.0017700195,-0.078125,-2.46875,4.953125,543
544,1696255058446,0.25878906,-0.97662354,0.012878418,-0.546875,-3.25,3.359375,544
545,1696255058486,0.2685547,-0.9763794,0.039489746,-0.5625,-4.375,1.3125,545
546,1696255058526,0.23950195,-0.96099854,0.019470215,-1.234375,-6.09375,-0.109375,546
547,1696255058566,0.20947266,-0.92755127,0.029724121,0.5625,-4.53125,-1.28125,547
548,1696255058606,0.2006836,-0.9343872,0.026062012,-0.515625,-2.65625,-2.0,548
549,1696255058646,0.23608398,-0.96173096,0.047058105,-0.546875,-0.796875,-1.296875,549
550,1696255058686,0.26123047,-0.96661377,0.040222168,-1.40625,-0.203125,-3.109375,550
551,1696255058726,0.2409668,-0.956604,0.043640137,-2.328125,-1.203125,-3.09375,551
552,1696255058766,0.18896484,-0.9277954,0.04144287,1.34375,3.125,-1.140625,552
553,1696255058806,0.18383789,-0.9570923,0.038269043,-0.8125,8.015625,0.515625,553
554,1696255058846,0.21899414,-0.9326782,0.034118652,-1.34375,5.640625,1.734375,554
555,1696255058886,0.28588867,-0.95147705,0.06829834,-2.328125,5.953125,2.796875,555
556,1696255058926,0.30639648,-0.9924927,0.09442139,-5.953125,4.078125,2.34375,556
557,1696255058966,0.25146484,-1.0056763,0.0914917,-5.46875,1.046875,0.75,557
558,1696255059006,0.21704102,-0.9685669,0.11468506,-5.78125,2.203125,0.765625,558
559,1696255059046,0.22631836,-0.90948486,0.09564209,-4.84375,3.109375,0.4375,559
560,1696255059086,0.2536621,-0.892395,0.08099365,-4.125,4.1875,0.53125,560
561,1696255059126,0.27246094,-0.9138794,0.10369873,-1.6875,4.171875,0.0,561
562,1696255059166,0.23388672,-0.9590454,0.11224365,-3.625,2.765625,-1.765625,562
563,1696255059206,0.20288086,-0.94903564,0.10467529,-5.640625,4.625,-4.0625,563
564,1696255059246,0.23095703,-1.0125122,0.08734131,-4.234375,4.953125,-2.703125,564
565,1696255059286,0.23608398,-0.9819946,0.08148193,-0.03125,6.609375,-1.625,565
566,1696255059326,0.18896484,-1.0032349,0.059753418,-1.578125,4.546875,-2.390625,566
567,1696255059366,0.23608398,-0.93170166,0.07171631,4.5625,4.15625,-1.203125,567
568,1696255059406,0.24291992,-0.8867798,0.050476074,-0.15625,5.78125,-0.34375,568
569,1696255059446,0.28027344,-0.89385986,0.042175293,0.453125,2.0,0.6875,569
570,1696255059486,0.23242188,-0.956604,0.070495605,-0.515625,4.25,0.4375,570
571,1696255059526,0.17797852,-0.97442627,0.04876709,0.578125,3.5625,-2.421875,571
572,1696255059566,0.19482422,-0.98687744,0.044128418,3.96875,6.890625,-1.796875,572
573,1696255059606,0.2211914,-0.97198486,0.06317139,1.578125,7.53125,-2.609375,573
574,1696255059646,0.19335938,-0.9819946,0.046813965,1.59375,4.671875,-5.140625,574
575,1696255059686,0.15771484,-0.97906494,0.035339355,1.125,4.875,-5.4375,575
576,1696255059726,0.14038086,-0.9663696,0.029968262,-1.28125,7.4375,-5.03125,576
577,1696255059766,0.15478516,-0.94537354,0.03338623,0.234375,5.15625,-5.984375,577
578,1696255059806,0.16064453,-0.94366455,0.010925293,2.015625,1.4375,-7.078125,578
579,1696255059846,0.12402344,-0.9187622,-0.007873535,-1.515625,3.125,-4.796875,579
580,1696255059886,0.119140625,-0.97735596,-0.04449463,-4.53125,8.90625,2.375,580
581,1696255059926,0.1628418,-1.0046997,0.001159668,4.5625,5.453125,1.8125,581
582,1696255059966,0.099609375,-1.0339966,0.070739746,8.265625,4.625,1.421875,582
583,1696255060006,0.07543945,-1.0176392,0.011169434,-1.578125,1.765625,-4.078125,583
584,1696255060046,0.08569336,-0.98150635,-0.046447754,1.71875,1.984375,-7.0625,584
585,1696255060086,0.09033203,-0.9734497,-0.04034424,4.703125,2.0,-3.5,585
586,1696255060126,0.099609375,-0.99102783,-0.017150879,2.375,4.5,-0.5625,586
587,1696255060166,0.0925293,-1.0132446,-0.025939941,0.765625,1.125,-3.96875,587
588,1696255060206,0.06616211,-0.9849243,-0.0413208,2.234375,-3.96875,-5.0,588
589,1696255060246,0.06933594,-0.91900635,-0.08355713,10.375,-6.328125,-1.859375,589
590,1696255060286,0.0847168,-0.91192627,-0.0647583,7.84375,-3.28125,1.671875,590
591,1696255060326,0.0859375,-0.9470825,-0.039367676,6.3125,3.328125,4.40625,591
592,1696255060366,0.08618164,-0.99664307,-0.058654785,3.453125,0.25,3.859375,592
593,1696255060406,0.10473633,-1.0247192,-0.066711426,-1.90625,-2.71875,1.640625,593
594,1696255060446,0.12207031,-1.0061646,-0.07110596,-1.71875,-4.46875,1.734375,594
595,1696255060486,0.12573242,-0.9692993,-0.062316895,-1.65625,-9.203125,3.28125,595
596,1696255060526,0.08642578,-0.9854126,-0.046447754,-1.75,-10.15625,3.296875,596
597,1696255060566,0.088134766,-1.0159302,-0.05255127,-2.015625,-7.078125,2.53125,597
598,1696255060606,0.09301758,-0.9898071,-0.05328369,2.9375,-6.625,0.96875,598
599,1696255060646,0.10424805,-0.9678345,-0.059143066,3.828125,-5.375,0.65625,599
600,1696255060686,0.119628906,-0.9451294,-0.070129395,3.34375,-1.578125,1.71875,600
601,1696255060726,0.14355469,-0.94195557,-0.057922363,2.03125,-3.640625,3.5625,601
602,1696255060766,0.14526367,-0.9685669,-0.055480957,1.90625,-4.703125,5.078125,602
603,1696255060806,0.15063477,-1.0083618,-0.045715332,-1.46875,-6.75,3.8125,603
604,1696255060846,0.13012695,-0.99468994,-0.016662598,1.546875,-5.53125,3.328125,604
605,1696255060886,0.099365234,-1.0379028,-0.07867432,4.609375,-5.328125,4.6875,605
606,1696255060926,0.14746094,-0.9380493,-0.113098145,-0.25,-6.984375,3.203125,606
607,1696255060966,0.19433594,-0.87164307,-0.024719238,1.4375,-3.921875,3.078125,607
608,1696255061006,0.16601562,-0.8945923,-0.0154418945,1.09375,-0.859375,2.890625,608
609,1696255061046,0.1784668,-1.0484009,-0.07159424,-0.390625,-1.84375,4.34375,609
610,1696255061086,0.22290039,-1.048645,-0.062805176,-1.4375,-3.640625,3.65625,610
611,1696255061126,0.22143555,-0.9536743,-0.023742676,-3.796875,-6.9375,-0.203125,611
612,1696255061166,0.19335938,-0.88360596,0.005554199,-5.578125,-5.296875,-2.234375,612
613,1696255061206,0.1953125,-0.90582275,0.011169434,-4.40625,-0.546875,-1.375,613
614,1696255061246,0.23144531,-1.0125122,-0.004211426,-2.390625,-4.046875,-0.0625,614
615,1696255061286,0.27807617,-1.0149536,0.008483887,-4.1875,-5.671875,-1.4375,615
616,1696255061326,0.27416992,-0.9126587,0.023620605,-6.515625,-4.765625,-3.828125,616
617,1696255061366,0.20605469,-0.89849854,0.032165527,-4.375,-2.59375,-2.484375,617
618,1696255061406,0.18139648,-0.97076416,0.058532715,-2.59375,-0.21875,-0.15625,618
619,1696255061446,0.22192383,-0.99884033,0.058776855,-2.796875,0.15625,0.40625,619
620,1696255061486,0.24853516,-0.9487915,0.06732178,-4.984375,1.0625,-0.734375,620
621,1696255061526,0.23657227,-0.94244385,0.0836792,-1.75,2.671875,0.3125,621
622,1696255061566,0.21582031,-0.9348755,0.09564209,-1.6875,0.671875,1.328125,622
623,1696255061606,0.21508789,-0.9295044,0.08929443,-0.859375,0.75,0.75,623
624,1696255061646,0.21948242,-0.911438,0.09222412,0.46875,2.84375,-0.53125,624
625,1696255061686,0.19433594,-0.93341064,0.10076904,-1.03125,6.078125,-1.140625,625
626,1696255061726,0.19848633,-0.9937134,0.06121826,-2.25,3.71875,-3.5,626
627,1696255061766,0.27246094,-1.0549927,0.046325684,3.28125,4.0,-0.515625,627
628,1696255061806,0.16235352,-0.9990845,0.027526855,-3.90625,6.5625,-1.1875,628
629,1696255061846,0.18115234,-0.9458618,0.022888184,-2.109375,2.640625,-2.125,629
630,1696255061886,0.19946289,-0.88165283,0.04876709,0.734375,7.046875,-0.515625,630
631,1696255061926,0.22070312,-0.94195557,0.038513184,1.46875,4.125,1.6875,631
632,1696255061966,0.21582031,-1.0098267,0.019958496,-3.59375,4.734375,0.984375,632
633,1696255062006,0.14160156,-1.0061646,0.022888184,-0.578125,5.328125,-3.796875,633
634,1696255062046,0.1015625,-0.9800415,-0.0017700195,1.75,5.59375,-3.9375,634
635,1696255062086,0.16918945,-0.93292236,0.015563965,-0.328125,7.421875,-1.109375,635
636,1696255062126,0.2199707,-0.9495239,0.0289917,-0.109375,1.21875,-0.40625,636
637,1696255062166,0.19091797,-0.95196533,0.00970459,-2.640625,-5.3125,-1.1875,637
638,1696255062206,0.13110352,-0.98760986,0.015563965,-2.078125,-3.53125,0.40625,638
639,1696255062246,0.10913086,-0.99591064,0.0211792,-1.375,2.375,-0.9375,639
640,1696255062286,0.119384766,-0.98101807,0.022644043,2.640625,4.46875,-2.796875,640
641,1696255062326,0.119628906,-0.9524536,0.0211792,1.359375,5.734375,-3.734375,641
642,1696255062366,0.10644531,-0.9492798,-0.0056762695,-3.140625,6.8125,-3.953125,642
643,1696255062406,0.09277344,-0.9651489,-0.028137207,-3.984375,5.5,-4.40625,643
644,1696255062446,0.0949707,-0.9944458,-0.026428223,-0.765625,5.859375,-4.203125,644
645,1696255062486,0.1027832,-1.0110474,-0.01763916,1.9375,5.046875,-3.125,645
646,1696255062526,0.092285156,-0.9937134,-0.011047363,2.78125,3.5625,-4.28125,646
647,1696255062566,0.0546875,-0.9976196,0.005554199,1.375,0.15625,-3.65625,647
648,1696255062606,0.03955078,-0.9981079,-0.015197754,0.78125,-1.46875,-2.671875,648
649,1696255062646,0.040771484,-0.98687744,-0.023010254,1.984375,-1.53125,-0.609375,649
650,1696255062686,0.079833984,-0.9854126,-0.0178833,3.296875,-3.546875,1.234375,650
651,1696255062726,0.083740234,-0.9741821,-0.014709473,1.671875,-6.25,1.34375,651
652,1696255062766,0.055419922,-0.96343994,-0.038391113,1.046875,-8.078125,1.03125,652
653,1696255062806,0.03564453,-0.9553833,-0.047424316,1.765625,-6.28125,2.859375,653
654,1696255062846,0.052734375,-0.96881104,-0.033996582,2.0625,-5.09375,5.5625,654
655,1696255062886,0.08959961,-0.98223877,-0.026672363,-0.890625,-7.375,6.625,655
656,1696255062926,0.115722656,-1.0325317,-0.04522705,-0.515625,-11.015625,6.09375,656
657,1696255062966,0.12133789,-1.0291138,-0.022277832,2.6875,-8.984375,5.546875,657
658,1696255063006,0.09838867,-0.9561157,0.0048217773,5.78125,-6.671875,3.53125,658
659,1696255063046,0.07470703,-0.911438,-0.030822754,1.625,-5.921875,2.734375,659
660,1696255063086,0.1171875,-0.92266846,-0.062316895,2.640625,-0.9375,5.0,660
661,1696255063126,0.19799805,-0.9307251,-0.051818848,5.984375,0.859375,6.296875,661
662,1696255063166,0.23413086,-0.97320557,-0.020080566,4.953125,-1.21875,6.59375,662
663,1696255063206,0.19921875,-1.0183716,-0.0154418945,-0.3125,-4.609375,4.953125,663
664,1696255063246,0.16821289,-1.0227661,-0.039123535,-1.203125,-5.265625,2.84375,664
665,1696255063286,0.18261719,-0.96417236,-0.041809082,-0.421875,-4.046875,2.046875,665
666,1696255063326,0.22509766,-0.9546509,-0.016662598,0.40625,-2.5,2.9375,666
667,1696255063366,0.24121094,-0.9619751,-0.0095825195,-1.296875,-4.890625,1.828125,667
668,1696255063406,0.21533203,-0.9561157,0.007751465,-2.78125,-6.015625,-0.578125,668
669,1696255063446,0.18188477,-0.92852783,0.010925293,-3.875,-6.5,-3.484375,669
670,1696255063486,0.18823242,-0.9077759,0.043640137,-1.34375,-2.328125,-4.515625,670
671,1696255063526,0.21362305,-0.94366455,0.029968262,-1.25,-2.671875,-4.515625,671
672,1696255063566,0.23486328,-0.99102783,0.007019043,0.5,-3.46875,-3.09375,672
673,1696255063606,0.21606445,-0.9751587,0.0368042,-1.1875,-1.390625,-1.953125,673
674,1696255063646,0.15966797,-0.9702759,0.01751709,-2.015625,1.796875,-1.90625,674
675,1696255063686,0.14746094,-1.0061646,0.031677246,-2.890625,3.984375,-0.609375,675
676,1696255063726,0.19750977,-0.9956665,0.07562256,-3.453125,5.765625,1.140625,676
677,1696255063766,0.25390625,-0.96051025,0.08026123,-5.015625,1.875,0.578125,677
678,1696255063806,0.2734375,-0.9356079,0.09588623,-8.59375,-1.65625,1.09375,678
679,1696255063846,0.21386719,-0.9595337,0.10614014,-6.640625,-0.765625,1.640625,679
680,1696255063886,0.18041992,-0.9834595,0.081726074,-3.765625,-1.03125,1.515625,680
681,1696255063926,0.2133789,-0.94122314,0.09051514,0.828125,3.78125,0.34375,681
682,1696255063966,0.21557617,-0.89190674,0.089782715,3.375,5.921875,-0.375,682
683,1696255064006,0.21362305,-0.9182739,0.10028076,3.296875,5.078125,0.40625,683
684,1696255064046,0.22827148,-0.9644165,0.09564209,3.453125,5.484375,1.015625,684
685,1696255064086,0.16430664,-1.0088501,0.09906006,-1.03125,9.0,-2.09375,685
686,1696255064126,0.123291016,-1.0530396,0.054138184,0.984375,11.5,-5.25,686
687,1696255064166,0.05883789,-1.0484009,-0.0049438477,-4.578125,9.84375,-6.875,687
688,1696255064206,0.1743164,-0.97735596,-0.03277588,2.984375,8.765625,-3.109375,688
689,1696255064246,0.23657227,-0.8569946,-0.038879395,1.109375,7.59375,0.28125,689
690,1696255064286,0.27148438,-0.8340454,-0.012268066,3.703125,0.625,0.03125,690
691,1696255064326,0.23242188,-0.92974854,0.023376465,0.796875,-2.921875,2.640625,691
692,1696255064366,0.13256836,-1.0591431,-0.0049438477,-4.046875,-0.265625,-0.671875,692
693,1696255064406,0.0859375,-1.0718384,-0.014709473,-0.109375,2.46875,-6.3125,693
694,1696255064446,0.1003418,-0.9692993,0.007751465,0.25,6.3125,-5.40625,694
695,1696255064486,0.15649414,-0.92926025,0.010681152,-0.296875,6.09375,-4.625,695
696,1696255064526,0.18945312,-0.94000244,0.020446777,0.96875,0.75,-4.078125,696
697,1696255064566,0.15307617,-1.0042114,0.010681152,-2.71875,0.59375,-2.484375,697
698,1696255064606,0.10424805,-0.9898071,-0.009338379,-6.1875,0.828125,-3.21875,698
699,1696255064646,0.075683594,-0.94488525,-0.019592285,-3.9375,-0.34375,-4.21875,699
700,1696255064686,0.045654297,-0.93707275,-0.015197754,-1.875,2.484375,-2.375,700
701,1696255064726,0.044189453,-0.97052,-0.004699707,-1.328125,4.640625,-0.265625,701
702,1696255064766,0.040527344,-0.99224854,-0.011291504,-2.78125,1.015625,0.46875,702
703,1696255064806,0.040039062,-1.0166626,0.0045776367,-1.21875,0.046875,0.328125,703
704,1696255064846,0.06713867,-1.0147095,0.008972168,3.890625,2.9375,-0.25,704
705,1696255064886,0.07739258,-1.0188599,-0.0022583008,6.0,1.46875,-1.390625,705
706,1696255064926,0.07128906,-0.99224854,-0.02520752,1.984375,-4.421875,-0.375,706
707,1696255064966,0.045166016,-0.9656372,-0.035949707,0.78125,-5.921875,0.875,707
708,1696255065006,0.03491211,-0.9624634,-0.030822754,0.390625,-5.046875,2.40625,708
709,1696255065046,0.02368164,-0.9624634,-0.025939941,-0.25,-6.484375,4.734375,709
710,1696255065086,0.053222656,-0.989563,-0.009338379,1.4375,-3.640625,6.375,710
711,1696255065126,0.078125,-1.0027466,-0.0025024414,0.84375,-5.15625,5.921875,711
712,1696255065166,0.07080078,-1.0108032,-0.003967285,1.03125,-7.0625,4.9375,712
713,1696255065206,0.061279297,-0.9883423,0.0014038086,0.84375,-9.125,4.390625,713
714,1696255065246,0.06933594,-0.97247314,-0.014465332,-1.953125,-11.578125,5.734375,714
715,1696255065286,0.119384766,-1.0396118,-0.041809082,-5.015625,-12.15625,8.671875,715
716,1696255065326,0.14648438,-1.0098267,0.059020996,5.90625,-4.4375,6.25,716
717,1696255065366,0.09399414,-0.93463135,0.032165527,4.625,-9.65625,3.140625,717
718,1696255065406,0.12841797,-0.93170166,-0.02178955,-1.25,-5.53125,3.640625,718
719,1696255065446,0.19897461,-0.91729736,-0.06451416,4.90625,-5.09375,5.75,719
720,1696255065486,0.27514648,-0.9380493,0.0138549805,8.046875,-9.328125,9.15625,720
721,1696255065526,0.26171875,-1.0039673,0.03289795,2.125,-12.75,7.046875,721
722,1696255065566,0.20239258,-1.0305786,0.024597168,-4.0625,-13.65625,3.359375,722
723,1696255065606,0.16821289,-0.9783325,0.005065918,-2.890625,-9.421875,1.09375,723
724,1696255065646,0.20092773,-0.9402466,0.015075684,1.0625,-3.640625,2.796875,724
725,1696255065686,0.23950195,-0.9314575,0.038024902,0.21875,-0.140625,2.875,725
726,1696255065726,0.24047852,-0.9429321,0.03289795,-1.453125,-4.1875,1.515625,726
727,1696255065766,0.23217773,-0.9522095,0.039978027,-2.5625,-4.4375,1.359375,727
728,1696255065806,0.26953125,-0.9336548,0.050231934,-0.71875,-0.359375,3.296875,728
729,1696255065846,0.27905273,-0.93707275,0.054382324,-0.140625,0.609375,4.75,729
730,1696255065886,0.2734375,-0.9656372,0.022399902,-0.390625,-1.71875,5.6875,730
731,1696255065926,0.27734375,-0.9771118,0.034606934,-1.609375,-3.171875,5.046875,731
732,1696255065966,0.27905273,-0.9522095,0.07318115,0.484375,1.578125,3.640625,732
733,1696255066006,0.25610352,-0.92803955,0.061462402,2.28125,1.734375,3.9375,733
734,1696255066046,0.26220703,-0.9146118,0.043151855,0.265625,-0.890625,1.59375,734
735,1696255066086,0.30322266,-0.93292236,0.10614014,-0.9375,4.96875,-1.84375,735
736,1696255066126,0.26220703,-0.9812622,0.08343506,-2.015625,4.328125,-4.953125,736
737,1696255066166,0.25976562,-0.97247314,0.0680542,-5.265625,3.0625,-7.0,737
738,1696255066206,0.28320312,-0.9307251,0.059265137,-2.21875,3.65625,-6.53125,738
739,1696255066246,0.33007812,-0.909729,0.07122803,-2.984375,1.125,-4.5625,739
740,1696255066286,0.29516602,-0.90216064,0.0770874,-3.40625,-0.359375,-3.4375,740
741,1696255066326,0.25341797,-0.93756104,0.0914917,-3.140625,0.734375,-5.265625,741
742,1696255066366,0.18798828,-0.95196533,0.11199951,-1.390625,2.765625,-7.328125,742
743,1696255066406,0.16430664,-0.9517212,0.11004639,0.78125,6.0625,-7.65625,743
744,1696255066446,0.18164062,-0.92315674,0.101745605,0.1875,8.140625,-7.890625,744
745,1696255066486,0.23071289,-0.9776001,0.051696777,3.09375,7.25,-5.640625,745
746,1696255066526,0.1887207,-0.9627075,0.06072998,2.515625,8.96875,-5.46875,746
747,1696255066566,0.14135742,-1.0095825,-0.0044555664,0.03125,5.671875,-3.609375,747
748,1696255066606,0.22070312,-0.9529419,0.034362793,4.765625,7.0,0.46875,748
749,1696255066646,0.21899414,-0.8970337,0.009216309,-0.40625,2.234375,-0.125,749
750,1696255066686,0.19750977,-0.9546509,0.0006713867,1.421875,1.203125,0.328125,750
751,1696255066726,0.12646484,-1.0178833,-0.0022583008,2.640625,6.28125,-0.34375,751
752,1696255066766,0.07714844,-1.0171509,-0.009094238,2.921875,7.203125,-5.171875,752
753,1696255066806,0.13891602,-0.9734497,-0.032287598,4.53125,9.8125,-4.546875,753
754,1696255066846,0.19873047,-0.9627075,-0.002746582,2.171875,8.578125,-2.90625,754
755,1696255066886,0.18798828,-0.94659424,-0.0076293945,-1.59375,2.078125,-3.03125,755
756,1696255066926,0.123535156,-0.96466064,-0.02911377,-4.984375,0.421875,-1.6875,756
757,1696255066966,0.115722656,-1.0012817,-0.0051879883,-4.84375,3.171875,-1.109375,757
758,1696255067006,0.115234375,-0.98638916,-0.015686035,-3.5625,3.3125,-1.484375,758
759,1696255067046,0.111572266,-0.98760986,-0.0032348633,-2.09375,4.171875,-1.421875,759
