,timestamp,accel_x,accel_y,accel_z,gyro_x,gyro_y,gyro_z,ind
0,1696254693815,-0.3203125,-0.84454346,0.4779663,0.0,-0.28125,0.265625,0
1,1696254693855,-0.3215332,-0.84942627,0.4743042,-0.53125,-0.6875,0.328125,1
2,1696254693895,-0.32641602,-0.8386841,0.4718628,-0.90625,-0.40625,-0.015625,2
3,1696254693935,-0.3256836,-0.84625244,0.47357178,-0.515625,-0.65625,0.0,3
4,1696254693975,-0.3203125,-0.8501587,0.4821167,0.390625,-0.5625,0.515625,4
5,1696254694015,-0.31958008,-0.8406372,0.4730835,0.078125,-0.34375,0.0625,5
6,1696254694055,-0.32128906,-0.8477173,0.47698975,-0.265625,-0.390625,0.140625,6
7,1696254694095,-0.32617188,-0.8447876,0.4779663,0.125,-0.59375,0.234375,7
8,1696254694135,-0.32495117,-0.8447876,0.4767456,-0.09375,-0.671875,0.171875,8
9,1696254694175,-0.3154297,-0.8345337,0.47698975,0.1875,-0.71875,0.109375,9
10,1696254694215,-0.3227539,-0.84210205,0.47625732,-0.375,-0.328125,0.15625,10
11,1696254694255,-0.3215332,-0.8464966,0.47528076,-0.421875,-0.28125,0.015625,11
12,1696254694295,-0.3244629,-0.84454346,0.48114014,0.375,-0.609375,0.15625,12
13,1696254694335,-0.3239746,-0.8508911,0.47625732,0.96875,-0.59375,0.15625,13
14,1696254694375,-0.328125,-0.85040283,0.48138428,1.359375,-0.890625,0.15625,14
15,1696254694415,-0.3256836,-0.84942627,0.46868896,1.6875,-0.796875,0.234375,15
16,1696254694455,-0.3190918,-0.84991455,0.47528076,0.875,-1.09375,0.734375,16
17,1696254694495,-0.31201172,-0.85357666,0.47381592,0.78125,-1.140625,0.90625,17
18,1696254694535,-0.32226562,-0.8389282,0.47528076,0.15625,-1.328125,0.390625,18
19,1696254694575,-0.32006836,-0.8452759,0.46551514,0.46875,-0.59375,0.390625,19
20,1696254694615,-0.3239746,-0.8521118,0.4713745,0.609375,-0.59375,0.5,20
21,1696254694655,-0.32104492,-0.84869385,0.46990967,1.4375,-0.34375,0.875,21
22,1696254694695,-0.31347656,-0.85406494,0.46820068,1.3125,-0.3125,0.796875,22
23,1696254694735,-0.3203125,-0.850647,0.46551514,0.984375,-0.328125,0.484375,23
24,1696254694775,-0.3166504,-0.84942627,0.45965576,1.4375,-0.375,0.65625,24
25,1696254694815,-0.32080078,-0.85357666,0.45965576,1.65625,-0.5625,1.265625,25
26,1696254694855,-0.31054688,-0.8604126,0.45843506,1.3125,-0.96875,0.8125,26
27,1696254694895,-0.32373047,-0.8584595,0.45184326,0.546875,-0.734375,0.703125,27
28,1696254694935,-0.31396484,-0.85601807,0.45526123,1.265625,-0.625,0.984375,28
29,1696254694975,-0.3100586,-0.85528564,0.4533081,0.171875,-0.890625,0.578125,29
30,1696254695015,-0.31835938,-0.86260986,0.4508667,0.09375,-1.09375,0.359375,30
31,1696254695055,-0.31982422,-0.8579712,0.45794678,0.296875,-0.953125,0.546875,31
32,1696254695095,-0.31835938,-0.85723877,0.4537964,0.53125,-0.171875,0.375,32
33,1696254695135,-0.31713867,-0.8579712,0.4491577,0.390625,-0.59375,0.40625,33
34,1696254695175,-0.31396484,-0.85723877,0.45135498,1.078125,-0.359375,0.578125,34
35,1696254695215,-0.3100586,-0.85943604,0.45428467,1.3125,-0.375,0.5625,35
36,1696254695255,-0.31274414,-0.8640747,0.45013428,0.921875,-0.46875,0.578125,36
37,1696254695295,-0.30932617,-0.85723877,0.447937,0.9375,-0.421875,0.484375,37
38,1696254695335,-0.3154297,-0.861145,0.44476318,0.59375,-0.40625,0.375,38
39,1696254695375,-0.31958008,-0.86724854,0.44744873,0.703125,-0.5,0.5625,39
40,1696254695415,-0.31811523,-0.8521118,0.44525146,-0.5,-0.671875,0.125,40
41,1696254695455,-0.3137207,-0.8591919,0.45013428,0.71875,-0.46875,0.359375,41
42,1696254695495,-0.3178711,-0.87091064,0.4442749,0.109375,-0.96875,0.234375,42
43,1696254695535,-0.32006836,-0.8657837,0.44744873,-0.796875,-0.765625,0.28125,43
44,1696254695575,-0.31420898,-0.8623657,0.44085693,-0.359375,-0.6875,0.5625,44
45,1696254695615,-0.31152344,-0.8567505,0.44769287,-0.34375,-0.375,0.171875,45
46,1696254695655,-0.31347656,-0.8599243,0.44256592,-0.734375,-0.71875,0.140625,46
47,1696254695695,-0.3125,-0.86553955,0.4442749,0.0625,-0.859375,0.453125,47
48,1696254695735,-0.30664062,-0.86309814,0.4472046,-0.09375,-0.6875,0.328125,48
49,1696254695775,-0.31347656,-0.8599243,0.4418335,-1.03125,-0.65625,-0.078125,49
50,1696254695815,-0.3125,-0.8616333,0.44891357,-0.65625,-0.421875,0.296875,50
51,1696254695855,-0.30786133,-0.86431885,0.4467163,-1.390625,-0.515625,0.03125,51
52,1696254695895,-0.31201172,-0.86016846,0.44769287,-1.75,-0.859375,-0.234375,52
53,1696254695935,-0.32348633,-0.8562622,0.45013428,-1.34375,-0.875,-0.078125,53
54,1696254695975,-0.31030273,-0.8623657,0.4520874,1.296875,-0.46875,-0.171875,54
55,1696254696015,-0.2998047,-0.861145,0.45892334,2.03125,0.09375,0.078125,55
56,1696254696055,-0.3203125,-0.86676025,0.45037842,0.890625,0.53125,0.234375,56
57,1696254696095,-0.31811523,-0.87213135,0.45013428,-0.359375,0.015625,0.03125,57
58,1696254696135,-0.30786133,-0.8609009,0.44525146,-0.546875,-0.21875,-0.296875,58
59,1696254696175,-0.3166504,-0.85479736,0.44818115,-0.46875,-0.046875,-0.3125,59
60,1696254696215,-0.31396484,-0.8543091,0.45062256,-1.59375,-0.171875,-0.390625,60
61,1696254696255,-0.3244629,-0.8557739,0.45721436,-1.65625,-0.5,-0.328125,61
62,1696254696295,-0.31469727,-0.8579712,0.45013428,-2.046875,-0.859375,-0.734375,62
63,1696254696335,-0.3256836,-0.8518677,0.4689331,-1.265625,-0.375,-0.421875,63
64,1696254696375,-0.31201172,-0.86016846,0.4545288,-1.6875,-0.875,-0.484375,64
65,1696254696415,-0.32226562,-0.8587036,0.46185303,-2.9375,-0.703125,-0.5625,65
66,1696254696455,-0.32495117,-0.8513794,0.46697998,-1.5,-0.4375,-0.03125,66
67,1696254696495,-0.32299805,-0.84991455,0.46600342,-0.765625,-0.734375,0.0,67
68,1696254696535,-0.31762695,-0.8496704,0.4689331,-0.515625,-0.15625,-0.359375,68
69,1696254696575,-0.32421875,-0.85162354,0.4694214,-0.953125,-0.625,-0.203125,69
70,1696254696615,-0.3293457,-0.85357666,0.46575928,-0.46875,-0.34375,0.171875,70
71,1696254696655,-0.31298828,-0.8530884,0.465271,-1.109375,-0.609375,-0.265625,71
72,1696254696695,-0.32080078,-0.84576416,0.4706421,-0.9375,-0.421875,0.0625,72
73,1696254696735,-0.3227539,-0.8533325,0.47039795,0.0,-0.328125,0.28125,73
74,1696254696775,-0.32177734,-0.8467407,0.4713745,-0.6875,-0.484375,0.015625,74
75,1696254696815,-0.32739258,-0.8435669,0.47113037,-0.140625,-0.671875,-0.171875,75
76,1696254696855,-0.32617188,-0.84576416,0.4689331,-0.1875,-0.390625,0.03125,76
77,1696254696895,-0.32348633,-0.8435669,0.47113037,-0.421875,-0.578125,0.03125,77
78,1696254696935,-0.32226562,-0.8477173,0.4718628,-0.234375,-0.328125,0.15625,78
79,1696254696975,-0.32470703,-0.8496704,0.4706421,-0.265625,-0.359375,0.125,79
80,1696254697015,-0.3251953,-0.84869385,0.47210693,-0.71875,-0.203125,0.109375,80
81,1696254697055,-0.32226562,-0.84942627,0.47406006,-0.5,-0.625,0.078125,81
82,1696254697095,-0.32348633,-0.8460083,0.47601318,-0.421875,-0.484375,0.140625,82
83,1696254697135,-0.31762695,-0.8501587,0.47357178,-0.453125,-0.46875,0.21875,83
84,1696254697175,-0.32373047,-0.84381104,0.47357178,-0.625,-0.46875,0.140625,84
85,1696254697215,-0.33081055,-0.8479614,0.47381592,0.921875,-0.5,0.4375,85
86,1696254697255,-0.32055664,-0.8411255,0.4779663,-0.328125,-0.546875,0.25,86
87,1696254697295,-0.3203125,-0.85162354,0.47601318,0.09375,-0.328125,0.0625,87
88,1696254697335,-0.3232422,-0.84161377,0.47332764,-0.953125,-0.71875,-0.125,88
89,1696254697375,-0.32666016,-0.8435669,0.4779663,-0.84375,-0.390625,-0.046875,89
90,1696254697415,-0.32739258,-0.84747314,0.47235107,0.375,-0.234375,0.453125,90
91,1696254697455,-0.33276367,-0.8423462,0.47406006,-0.1875,-0.65625,0.265625,91
92,1696254697495,-0.3251953,-0.8440552,0.4718628,-0.46875,-0.34375,0.015625,92
93,1696254697535,-0.32958984,-0.8467407,0.47601318,-0.5625,-0.84375,0.015625,93
94,1696254697575,-0.32910156,-0.84747314,0.47650146,-0.609375,-0.34375,0.421875,94
95,1696254697615,-0.32739258,-0.8411255,0.47528076,-0.953125,-0.78125,0.046875,95
96,1696254697655,-0.32128906,-0.84625244,0.4821167,0.265625,-0.515625,0.25,96
97,1696254697695,-0.32836914,-0.8533325,0.480896,0.578125,-0.15625,0.6875,97
98,1696254697735,-0.3244629,-0.8452759,0.4772339,-0.625,-0.53125,0.234375,98
99,1696254697775,-0.32763672,-0.8447876,0.47503662,-0.28125,-0.859375,0.109375,99
100,1696254697815,-0.3239746,-0.8430786,0.47479248,-1.09375,-0.5625,0.359375,100
101,1696254697855,-0.32666016,-0.84454346,0.47747803,-0.90625,-0.53125,0.4375,101
102,1696254697895,-0.32421875,-0.8447876,0.479187,0.703125,0.078125,0.578125,102
103,1696254697935,-0.328125,-0.84552,0.48065186,1.5625,-0.125,0.765625,103
104,1696254697975,-0.32080078,-0.84625244,0.47479248,1.5,-0.203125,0.640625,104
105,1696254698015,-0.30932617,-0.87457275,0.4232788,-0.78125,-0.125,0.078125,141
106,1696254698055,-0.30395508,-0.87384033,0.41522217,-0.65625,-0.46875,0.265625,142
107,1696254698095,-0.3017578,-0.86505127,0.41888428,-0.296875,-0.125,-0.296875,143
108,1696254698135,-0.30029297,-0.8731079,0.41888428,0.859375,0.109375,-0.40625,144
109,1696254698175,-0.3149414,-0.88116455,0.41766357,-0.40625,-0.234375,-0.09375,145
110,1696254698215,-0.31079102,-0.8731079,0.41741943,-0.859375,-0.15625,-0.125,146
111,1696254698255,-0.30517578,-0.8689575,0.42474365,-0.375,-0.25,-0.046875,147
112,1696254698295,-0.30566406,-0.8753052,0.4249878,-0.390625,-0.5,-0.09375,148
113,1696254698335,-0.30859375,-0.87994385,0.42279053,-1.703125,-0.4375,-0.140625,149
114,1696254698375,-0.3137207,-0.8748169,0.4257202,-2.1875,-0.5625,-0.375,150
115,1696254698415,-0.3112793,-0.8772583,0.42303467,-3.4375,-1.0,-0.484375,151
116,1696254698455,-0.31811523,-0.8648071,0.44500732,-3.671875,-1.140625,-0.734375,152
117,1696254698495,-0.30273438,-0.86968994,0.44403076,-1.71875,-0.25,-0.546875,153
118,1696254698535,-0.31225586,-0.880188,0.43499756,-0.703125,-0.40625,-0.046875,154
119,1696254698575,-0.32128906,-0.86138916,0.4376831,-2.453125,-0.765625,-0.546875,155
120,1696254698615,-0.31640625,-0.861145,0.449646,-1.625,-0.15625,-0.390625,156
121,1696254698655,-0.3190918,-0.8682251,0.44354248,0.34375,-0.65625,0.203125,157
122,1696254698695,-0.31445312,-0.85894775,0.4406128,-0.703125,-0.34375,-0.34375,158
123,1696254698735,-0.31323242,-0.8591919,0.4491577,-1.703125,-0.4375,-0.53125,159
124,1696254698775,-0.3166504,-0.864563,0.45037842,-2.34375,-1.078125,-0.34375,160
125,1696254698815,-0.32080078,-0.8623657,0.4520874,-1.125,-0.625,-0.03125,161
126,1696254698855,-0.3166504,-0.8574829,0.4467163,-1.015625,-0.75,-0.625,162
127,1696254698895,-0.32202148,-0.8545532,0.44940186,-1.0,-0.546875,-0.234375,163
128,1696254698935,-0.3154297,-0.8616333,0.44940186,-0.796875,-0.609375,-0.078125,164
129,1696254698975,-0.32788086,-0.8545532,0.45404053,-1.421875,-0.609375,-0.109375,165
130,1696254699015,-0.3239746,-0.861145,0.45599365,-1.375,-1.078125,-0.078125,166
131,1696254699055,-0.3203125,-0.85113525,0.45941162,-2.28125,-0.8125,-0.4375,167
132,1696254699095,-0.32714844,-0.85406494,0.4545288,-1.296875,-0.609375,-0.125,168
133,1696254699135,-0.32666016,-0.84942627,0.46014404,-0.421875,-0.609375,-0.015625,169
134,1696254699175,-0.31811523,-0.85406494,0.46380615,0.21875,-0.328125,0.28125,170
135,1696254699215,-0.31884766,-0.8562622,0.45428467,-0.15625,-0.40625,0.109375,171
136,1696254699255,-0.32714844,-0.8467407,0.4611206,-0.484375,-0.578125,0.078125,172
137,1696254699295,-0.3244629,-0.85235596,0.46087646,-0.9375,-0.390625,0.0,173
138,1696254699335,-0.32421875,-0.8557739,0.46331787,-0.1875,-0.359375,0.15625,174
139,1696254699375,-0.32226562,-0.8545532,0.45965576,-0.25,-0.546875,0.203125,175
140,1696254699415,-0.31591797,-0.8538208,0.46063232,0.75,-0.21875,0.21875,176
141,1696254699455,-0.32348633,-0.8569946,0.45672607,-0.421875,-0.5,0.078125,177
142,1696254699495,-0.32495117,-0.86016846,0.4623413,-0.734375,-0.28125,0.015625,178
143,1696254699535,-0.3178711,-0.8567505,0.4664917,0.359375,-0.171875,0.5,179
144,1696254699575,-0.3256836,-0.8508911,0.46575928,-0.515625,-0.609375,0.171875,180
145,1696254699615,-0.32885742,-0.84625244,0.46209717,-0.4375,-0.171875,0.078125,181
146,1696254699655,-0.33276367,-0.8521118,0.46624756,-0.25,-0.4375,0.3125,182
147,1696254699695,-0.32714844,-0.8543091,0.46575928,-0.171875,-0.5,0.34375,183
148,1696254699735,-0.3239746,-0.850647,0.4616089,-0.234375,-0.421875,0.1875,184
149,1696254699775,-0.32299805,-0.8496704,0.4569702,0.0,-0.296875,-0.171875,185
150,1696254699815,-0.31958008,-0.8557739,0.46673584,0.625,-0.40625,0.453125,186
151,1696254699855,-0.32641602,-0.85894775,0.4628296,-0.171875,-0.5,0.34375,187
152,1696254699895,-0.32055664,-0.8545532,0.46380615,0.0625,-0.65625,0.03125,188
153,1696254699935,-0.32373047,-0.8508911,0.45965576,-0.21875,-0.21875,0.375,189
154,1696254699975,-0.32617188,-0.8521118,0.4647827,-0.40625,-0.390625,0.28125,190
155,1696254700015,-0.3256836,-0.86065674,0.4647827,-0.03125,-0.53125,0.09375,191
156,1696254700055,-0.32202148,-0.8496704,0.46429443,0.265625,-0.484375,0.234375,192
157,1696254700095,-0.32250977,-0.84747314,0.46209717,-0.046875,-0.328125,0.25,193
158,1696254700135,-0.32495117,-0.850647,0.46820068,-0.1875,-0.359375,0.25,194
159,1696254700175,-0.32128906,-0.85113525,0.46429443,-0.171875,-0.5625,0.34375,195
160,1696254700215,-0.32104492,-0.8513794,0.46575928,-0.234375,-0.28125,0.265625,196
161,1696254700255,-0.3239746,-0.8550415,0.46575928,-0.8125,-0.53125,0.1875,197
162,1696254700295,-0.3178711,-0.85235596,0.46380615,-0.375,-0.046875,0.1875,198
163,1696254700335,-0.31835938,-0.848938,0.4640503,-1.390625,-0.296875,0.140625,199
164,1696254700375,-0.31982422,-0.850647,0.46551514,-2.234375,-0.3125,-0.28125,200
165,1696254700415,-0.32226562,-0.8562622,0.47454834,-0.21875,-0.03125,0.5625,201
166,1696254700455,-0.32763672,-0.8508911,0.4706421,0.265625,0.078125,0.65625,202
167,1696254700495,-0.32714844,-0.84552,0.46844482,-0.265625,-0.125,0.4375,203
168,1696254700535,-0.31762695,-0.8513794,0.47088623,-0.109375,-0.484375,0.546875,204
169,1696254700575,-0.30737305,-0.8633423,0.42010498,-0.96875,-0.8125,-0.265625,241
170,1696254700615,-0.31054688,-0.87628174,0.432312,-0.015625,-0.625,-0.34375,242
171,1696254700655,-0.30859375,-0.87628174,0.4262085,-1.125,-0.5625,-0.4375,243
172,1696254700695,-0.31201172,-0.86553955,0.432312,-1.890625,-0.484375,-0.703125,244
173,1696254700735,-0.3100586,-0.8743286,0.43426514,-0.75,-0.203125,-0.0625,245
174,1696254700775,-0.31079102,-0.86676025,0.42645264,-0.265625,-0.015625,0.234375,246
175,1696254700815,-0.31958008,-0.87286377,0.432312,-0.5625,-0.15625,-0.203125,247
176,1696254700855,-0.31396484,-0.8674927,0.4364624,0.109375,-0.421875,-0.21875,248
177,1696254700895,-0.31054688,-0.8735962,0.43548584,-0.296875,-0.03125,0.15625,249
178,1696254700935,-0.31152344,-0.86602783,0.4328003,-0.875,-0.484375,0.015625,250
179,1696254700975,-0.31103516,-0.86383057,0.43792725,-0.875,-0.40625,-0.46875,251
180,1696254701015,-0.30786133,-0.8731079,0.43695068,0.0625,-0.46875,-0.046875,252
181,1696254701055,-0.3149414,-0.8635864,0.4364624,-1.34375,-0.515625,-0.09375,253
182,1696254701095,-0.31689453,-0.8616333,0.4413452,-0.609375,-0.90625,-0.265625,254
183,1696254701135,-0.31518555,-0.8713989,0.43621826,-0.140625,-0.4375,0.109375,255
184,1696254701175,-0.3137207,-0.8648071,0.43426514,-0.703125,-0.203125,-0.015625,256
185,1696254701215,-0.32006836,-0.8652954,0.44256592,-0.9375,-0.609375,-0.171875,257
186,1696254701255,-0.31689453,-0.8665161,0.4418335,0.34375,-0.21875,0.109375,258
187,1696254701295,-0.3178711,-0.8726196,0.43792725,-0.234375,-0.28125,0.234375,259
188,1696254701335,-0.31201172,-0.85821533,0.4376831,-0.9375,-0.453125,-0.015625,260
189,1696254701375,-0.31201172,-0.8599243,0.44525146,-0.1875,-0.25,0.328125,261
190,1696254701415,-0.31835938,-0.8760376,0.44207764,0.359375,-0.234375,0.140625,262
191,1696254701455,-0.3161621,-0.86260986,0.4364624,-0.671875,-0.59375,-0.03125,263
192,1696254701495,-0.31274414,-0.8689575,0.4328003,0.4375,-0.21875,0.109375,264
193,1696254701535,-0.31811523,-0.8623657,0.43963623,-0.515625,-0.453125,0.015625,265
194,1696254701575,-0.3166504,-0.86724854,0.4491577,-1.015625,0.015625,-0.0625,266
195,1696254701615,-0.31518555,-0.861145,0.44281006,-0.34375,-0.46875,0.21875,267
196,1696254701655,-0.31640625,-0.86431885,0.43841553,-0.921875,-0.421875,0.09375,268
197,1696254701695,-0.31835938,-0.8621216,0.43670654,-0.890625,-0.390625,-0.015625,269
198,1696254701735,-0.31396484,-0.85650635,0.44891357,-0.4375,-0.515625,0.234375,270
199,1696254701775,-0.3232422,-0.8665161,0.44769287,0.484375,-0.171875,0.59375,271
200,1696254701815,-0.31567383,-0.86187744,0.43792725,-0.28125,-0.578125,0.421875,272
201,1696254701855,-0.31713867,-0.8604126,0.44256592,-0.59375,-0.4375,-0.140625,273
202,1696254701895,-0.32104492,-0.86920166,0.44622803,0.25,-0.625,0.21875,274
203,1696254701935,-0.31958008,-0.8587036,0.44769287,0.078125,-0.328125,0.328125,275
204,1696254701975,-0.31347656,-0.8587036,0.44451904,0.125,-0.46875,0.375,276
205,1696254702015,-0.32226562,-0.86431885,0.44256592,0.03125,-0.484375,0.28125,277
206,1696254702055,-0.3166504,-0.8670044,0.4442749,-0.375,-0.375,0.3125,278
207,1696254702095,-0.31396484,-0.86724854,0.4454956,-0.078125,-0.59375,0.1875,279
208,1696254702135,-0.31640625,-0.86187744,0.44403076,0.25,-0.421875,0.296875,280
209,1696254702175,-0.31445312,-0.8557739,0.4430542,-0.15625,-0.4375,0.375,281
210,1696254702215,-0.31689453,-0.8616333,0.44647217,-0.15625,-0.40625,0.125,282
211,1696254702255,-0.3178711,-0.86260986,0.4430542,0.140625,-0.4375,0.40625,283
212,1696254702295,-0.32006836,-0.86602783,0.44500732,0.203125,-0.265625,0.21875,284
213,1696254702335,-0.3173828,-0.8623657,0.44281006,-0.078125,-0.3125,0.21875,285
214,1696254702375,-0.3190918,-0.86431885,0.4393921,0.375,-0.40625,0.328125,286
215,1696254702415,-0.3166504,-0.86260986,0.43963623,-0.5625,-0.28125,0.15625,287
216,1696254702455,-0.31445312,-0.86431885,0.44940186,-1.1875,-0.421875,-0.15625,288
217,1696254702495,-0.3173828,-0.8621216,0.4550171,-1.0,-0.140625,0.125,289
218,1696254702535,-0.32080078,-0.86065674,0.4520874,-1.71875,-0.453125,0.296875,290
219,1696254702575,-0.31713867,-0.8591919,0.4508667,-1.296875,-0.296875,0.125,291
220,1696254702615,-0.31591797,-0.85723877,0.4557495,-1.046875,-0.203125,0.140625,292
221,1696254702655,-0.31884766,-0.86920166,0.4508667,-0.875,-0.125,0.5625,293
222,1696254702695,-0.3095703,-0.8591919,0.45794678,-0.890625,-0.4375,0.4375,294
223,1696254702735,-0.31762695,-0.85357666,0.4598999,-0.703125,-0.03125,0.359375,295
224,1696254702775,-0.31469727,-0.85821533,0.4562378,0.140625,-0.140625,0.828125,296
225,1696254702815,-0.31103516,-0.8543091,0.45404053,-0.46875,-0.578125,0.59375,297
226,1696254702855,-0.3161621,-0.8574829,0.45306396,-0.125,-0.734375,0.359375,298
227,1696254702895,-0.30541992,-0.86016846,0.46063232,0.125,-0.71875,0.703125,299
228,1696254702935,-0.31323242,-0.8596802,0.4562378,0.484375,-0.359375,0.765625,300
229,1696254702975,-0.3076172,-0.86138916,0.45257568,1.03125,-0.515625,0.625,301
230,1696254703015,-0.31347656,-0.86187744,0.45062256,1.328125,-0.703125,0.609375,302
231,1696254703055,-0.31518555,-0.866272,0.45135498,0.921875,-0.890625,0.609375,303
232,1696254703095,-0.30517578,-0.86553955,0.45184326,-0.078125,-0.90625,0.453125,304
233,1696254703135,-0.31176758,-0.86431885,0.44281006,-1.25,-1.0625,0.0625,305
234,1696254703175,-0.31030273,-0.85284424,0.4574585,-1.296875,-1.046875,-0.078125,306
235,1696254703215,-0.30859375,-0.85894775,0.45233154,0.15625,-0.109375,0.546875,307
236,1696254703255,-0.30639648,-0.8623657,0.44110107,0.09375,-0.75,0.671875,308
237,1696254703295,-0.31713867,-0.85723877,0.45184326,0.5625,-1.03125,0.203125,309
238,1696254703335,-0.3173828,-0.8609009,0.4533081,0.71875,-0.859375,0.296875,310
239,1696254703375,-0.31298828,-0.8677368,0.4459839,-0.640625,-0.953125,0.09375,311
240,1696254703415,-0.31347656,-0.86187744,0.44622803,-0.53125,-0.953125,0.34375,312
241,1696254703455,-0.3088379,-0.86187744,0.44573975,0.3125,-0.8125,0.53125,313
242,1696254703495,-0.30981445,-0.8562622,0.44525146,0.421875,-0.53125,0.328125,314
243,1696254703535,-0.3076172,-0.8640747,0.44451904,-0.25,-0.6875,0.125,315
244,1696254703575,-0.31762695,-0.85894775,0.44744873,0.078125,-0.734375,0.40625,316
245,1696254703615,-0.30419922,-0.8635864,0.45526123,-0.203125,-0.734375,0.328125,317
246,1696254703655,-0.30566406,-0.8596802,0.44573975,-0.484375,-0.171875,-0.375,318
247,1696254703695,-0.31054688,-0.8591919,0.45355225,0.3125,-0.484375,0.4375,319
248,1696254703735,-0.3100586,-0.85357666,0.4484253,-0.140625,-0.484375,0.03125,320
249,1696254703775,-0.31518555,-0.85650635,0.44866943,0.0,-0.421875,-0.171875,321
250,1696254703815,-0.3100586,-0.8652954,0.44769287,0.40625,-0.390625,0.046875,322
251,1696254703855,-0.3071289,-0.8640747,0.44696045,0.890625,-0.078125,0.046875,323
252,1696254703895,-0.3178711,-0.86309814,0.44403076,1.09375,-0.140625,0.15625,324
253,1696254703935,-0.31420898,-0.8706665,0.44573975,0.78125,-0.109375,0.234375,325
254,1696254703975,-0.31323242,-0.86431885,0.4418335,0.125,-0.359375,0.0625,326
255,1696254704015,-0.31152344,-0.86138916,0.44158936,-0.125,-0.3125,0.15625,327
256,1696254704055,-0.31030273,-0.85723877,0.4406128,-0.171875,-0.28125,0.109375,328
257,1696254704095,-0.3059082,-0.8677368,0.4418335,-0.71875,-0.390625,-0.1875,329
258,1696254704135,-0.31103516,-0.86676025,0.45062256,-1.125,-0.75,-0.265625,330
259,1696254704175,-0.3112793,-0.85723877,0.449646,-0.9375,-0.28125,-0.46875,331
260,1696254704215,-0.3215332,-0.85894775,0.45062256,0.703125,0.328125,0.28125,332
261,1696254704255,-0.31713867,-0.85772705,0.44378662,-0.8125,-0.421875,-0.09375,333
262,1696254704295,-0.31835938,-0.85821533,0.45159912,-1.875,-0.78125,-0.421875,334
263,1696254704335,-0.31420898,-0.8604126,0.4508667,-0.65625,-0.140625,0.234375,335
264,1696254704375,-0.3112793,-0.8543091,0.45257568,-0.953125,-0.296875,-0.359375,336
265,1696254704415,-0.31860352,-0.8599243,0.46014404,-1.328125,-0.5625,-0.390625,337
266,1696254704455,-0.31958008,-0.8491821,0.45477295,-0.828125,-0.34375,-0.265625,338
267,1696254704495,-0.32202148,-0.8579712,0.45892334,0.078125,-0.171875,0.515625,339
268,1696254704535,-0.31274414,-0.85821533,0.45721436,-1.296875,-0.703125,-0.234375,340
269,1696254704575,-0.31713867,-0.85357666,0.4574585,-0.859375,-0.359375,-0.234375,341
270,1696254704615,-0.31835938,-0.8557739,0.45355225,-0.828125,-0.65625,0.03125,342
271,1696254704655,-0.31689453,-0.84942627,0.4533081,-0.8125,-0.578125,-0.09375,343
272,1696254704695,-0.31835938,-0.8538208,0.4616089,0.609375,-0.40625,0.125,344
273,1696254704735,-0.32299805,-0.8557739,0.4598999,-0.09375,-0.5,0.15625,345
274,1696254704775,-0.32543945,-0.85162354,0.46258545,-0.21875,-0.359375,0.03125,346
275,1696254704815,-0.31835938,-0.8496704,0.46307373,0.28125,-0.609375,0.140625,347
276,1696254704855,-0.32666016,-0.85821533,0.4569702,0.640625,-0.421875,0.140625,348
277,1696254704895,-0.32128906,-0.8579712,0.45916748,0.328125,-0.328125,0.09375,349
278,1696254704935,-0.3173828,-0.8501587,0.4623413,-0.125,-0.296875,0.140625,350
279,1696254704975,-0.3232422,-0.85406494,0.4562378,-0.40625,-0.734375,0.203125,351
280,1696254705015,-0.31713867,-0.8569946,0.46063232,-0.546875,-0.6875,-0.03125,352
281,1696254705055,-0.32202148,-0.8569946,0.45672607,-1.0,-0.546875,-0.25,353
282,1696254705095,-0.32250977,-0.85723877,0.45672607,-0.46875,-0.8125,0.078125,354
283,1696254705135,-0.31835938,-0.85235596,0.46087646,-0.46875,-0.9375,-0.078125,355
284,1696254705175,-0.32641602,-0.85284424,0.46624756,0.25,-0.234375,0.21875,356
285,1696254705215,-0.31469727,-0.8569946,0.46209717,-0.375,-0.3125,0.234375,357
286,1696254705255,-0.3178711,-0.85357666,0.45794678,-0.890625,-0.421875,0.015625,358
287,1696254705295,-0.3190918,-0.8491821,0.4640503,0.078125,-0.109375,0.3125,359
288,1696254705335,-0.3239746,-0.8513794,0.46063232,-0.109375,-0.4375,0.40625,360
289,1696254705375,-0.32617188,-0.85162354,0.4706421,-0.515625,-0.265625,-0.125,361
290,1696254705415,-0.3232422,-0.8508911,0.45965576,-0.234375,-0.21875,0.140625,362
291,1696254705455,-0.32348633,-0.84942627,0.46429443,-0.046875,-0.3125,0.390625,363
292,1696254705495,-0.3203125,-0.8579712,0.46868896,0.125,-0.484375,0.5,364
293,1696254705535,-0.31445312,-0.84381104,0.46136475,-0.78125,-0.296875,-0.046875,365
294,1696254705575,-0.3310547,-0.8555298,0.46990967,0.640625,-0.5,0.609375,366
295,1696254705615,-0.3227539,-0.8557739,0.46038818,1.3125,-0.703125,0.703125,367
296,1696254705655,-0.32202148,-0.8518677,0.45672607,0.9375,-0.625,0.484375,368
297,1696254705695,-0.31884766,-0.85943604,0.45648193,0.84375,-0.5,0.765625,369
298,1696254705735,-0.31567383,-0.8567505,0.45916748,0.0,-0.4375,0.5625,370
299,1696254705775,-0.3215332,-0.8623657,0.4562378,0.375,-0.28125,0.40625,371
300,1696254705815,-0.3166504,-0.85406494,0.45599365,0.46875,-0.328125,0.765625,372
301,1696254705855,-0.32080078,-0.86065674,0.45672607,1.28125,-0.578125,0.859375,373
302,1696254705895,-0.31958008,-0.864563,0.44989014,1.28125,-0.46875,1.28125,374
303,1696254705935,-0.31835938,-0.85113525,0.4537964,-0.015625,-0.53125,0.765625,375
304,1696254705975,-0.31323242,-0.847229,0.45770264,1.671875,-0.546875,0.59375,376
305,1696254706015,-0.3100586,-0.8677368,0.45013428,1.640625,-0.609375,0.90625,377
306,1696254706055,-0.3137207,-0.8604126,0.45111084,-0.390625,-0.734375,0.328125,378
307,1696254706095,-0.31469727,-0.8569946,0.45233154,0.640625,-0.578125,0.203125,379
308,1696254706135,-0.30688477,-0.8579712,0.45428467,1.421875,-0.859375,0.421875,380
309,1696254706175,-0.31103516,-0.866272,0.4418335,0.546875,-1.125,0.453125,381
310,1696254706215,-0.3137207,-0.87091064,0.44525146,0.234375,-0.6875,0.5,382
311,1696254706255,-0.31152344,-0.8670044,0.44158936,0.328125,-0.875,0.359375,383
312,1696254706295,-0.31762695,-0.8521118,0.4393921,0.078125,-0.84375,0.28125,384
313,1696254706335,-0.31420898,-0.87457275,0.44525146,-0.265625,-0.8125,0.359375,385
314,1696254706375,-0.3154297,-0.8633423,0.44940186,0.609375,-0.84375,0.625,386
315,1696254706415,-0.30664062,-0.86309814,0.44158936,0.078125,-0.953125,0.21875,387
316,1696254706455,-0.32128906,-0.85821533,0.44158936,-0.390625,-1.046875,-0.015625,388
317,1696254706495,-0.3076172,-0.8670044,0.4472046,0.390625,-0.953125,0.71875,389
318,1696254706535,-0.30541992,-0.864563,0.44354248,-0.484375,-1.140625,0.015625,390
319,1696254706575,-0.31347656,-0.85943604,0.44281006,-0.015625,-1.140625,0.296875,391
320,1696254706615,-0.30932617,-0.862854,0.43621826,-0.53125,-0.828125,0.28125,392
321,1696254706655,-0.31152344,-0.86920166,0.43963623,-0.5,-0.625,0.03125,393
322,1696254706695,-0.31420898,-0.86016846,0.44476318,-0.4375,-0.609375,0.03125,394
323,1696254706735,-0.31982422,-0.8682251,0.44500732,-0.25,-0.34375,0.125,395
324,1696254706775,-0.31103516,-0.8689575,0.44573975,-0.40625,-0.59375,0.03125,396
325,1696254706815,-0.31860352,-0.86065674,0.4454956,-0.421875,-0.546875,0.1875,397
326,1696254706855,-0.3112793,-0.86065674,0.447937,-0.109375,-0.421875,0.15625,398
327,1696254706895,-0.31591797,-0.8699341,0.4430542,-0.09375,-0.328125,0.28125,399
328,1696254706935,-0.31762695,-0.864563,0.45037842,-0.6875,-0.515625,0.203125,400
329,1696254706975,-0.31396484,-0.84747314,0.44085693,-0.640625,-0.484375,-0.25,401
330,1696254707015,-0.30615234,-0.8596802,0.44940186,0.6875,0.203125,0.203125,402
331,1696254707055,-0.31982422,-0.8701782,0.44207764,-0.5625,-0.234375,0.03125,403
332,1696254707095,-0.31982422,-0.8652954,0.44281006,-1.28125,-0.78125,-0.328125,404
333,1696254707135,-0.30932617,-0.86016846,0.4454956,-0.34375,-0.09375,0.015625,405
334,1696254707175,-0.3161621,-0.8557739,0.44818115,-0.28125,-0.0625,0.15625,406
335,1696254707215,-0.31152344,-0.8587036,0.44696045,-0.359375,-0.21875,-0.3125,407
336,1696254707255,-0.32617188,-0.86187744,0.45233154,-0.3125,-0.15625,-0.09375,408
337,1696254707295,-0.31835938,-0.86260986,0.44622803,0.359375,0.03125,0.328125,409
338,1696254707335,-0.31054688,-0.8555298,0.4484253,-0.296875,-0.34375,-0.140625,410
339,1696254707375,-0.31958008,-0.8579712,0.4520874,-0.25,-0.078125,0.015625,411
340,1696254707415,-0.31713867,-0.862854,0.447937,-0.734375,-0.375,0.109375,412
341,1696254707455,-0.31982422,-0.8557739,0.449646,-1.28125,-0.40625,-0.25,413
342,1696254707495,-0.3190918,-0.8587036,0.4533081,-0.328125,-0.703125,0.0,414
343,1696254707535,-0.31567383,-0.86187744,0.45355225,-1.46875,-0.546875,0.0,415
344,1696254707575,-0.3251953,-0.86138916,0.4537964,-1.828125,-0.625,-0.203125,416
345,1696254707615,-0.32080078,-0.8533325,0.4628296,-0.75,-0.4375,-0.015625,417
346,1696254707655,-0.31835938,-0.85528564,0.4550171,-0.171875,-0.25,0.15625,418
347,1696254707695,-0.32470703,-0.86065674,0.45794678,-0.15625,-0.5,0.078125,419
348,1696254707735,-0.32055664,-0.85650635,0.4520874,-0.578125,-0.359375,0.3125,420
349,1696254707775,-0.31689453,-0.8521118,0.46185303,0.015625,-0.34375,0.125,421
350,1696254707815,-0.3178711,-0.85479736,0.46185303,-0.296875,-0.453125,-0.03125,422
351,1696254707855,-0.328125,-0.85479736,0.45526123,-1.671875,-0.78125,-0.375,423
352,1696254707895,-0.3227539,-0.8521118,0.46307373,-0.28125,-0.265625,-0.234375,424
353,1696254707935,-0.31347656,-0.8609009,0.45892334,-1.140625,-0.546875,-0.0625,425
354,1696254707975,-0.3227539,-0.85723877,0.4677124,-2.21875,-0.609375,-0.296875,426
355,1696254708015,-0.32495117,-0.85357666,0.46502686,-0.828125,-0.25,0.21875,427
356,1696254708055,-0.32177734,-0.8562622,0.46722412,0.0625,-0.0625,0.25,428
357,1696254708095,-0.32104492,-0.85162354,0.46307373,-0.234375,-0.265625,0.125,429
358,1696254708135,-0.32348633,-0.8464966,0.46380615,-0.03125,-0.71875,0.171875,430
359,1696254708175,-0.3227539,-0.85479736,0.46551514,0.140625,-0.34375,0.265625,431
360,1696254708215,-0.32177734,-0.8550415,0.4677124,-0.078125,-0.4375,0.171875,432
361,1696254708255,-0.31567383,-0.84820557,0.46868896,-0.4375,-0.640625,-0.046875,433
362,1696254708295,-0.32226562,-0.85284424,0.4628296,0.484375,-0.21875,0.28125,434
363,1696254708335,-0.32128906,-0.84942627,0.4557495,-0.203125,-0.515625,0.28125,435
364,1696254708375,-0.32177734,-0.8496704,0.46575928,0.234375,-0.671875,0.109375,436
365,1696254708415,-0.32495117,-0.8550415,0.463562,-0.125,-0.40625,0.234375,437
366,1696254708455,-0.32055664,-0.8526001,0.4664917,-0.390625,-0.390625,0.21875,438
367,1696254708495,-0.3227539,-0.8521118,0.4664917,0.28125,-0.53125,0.359375,439
368,1696254708535,-0.32885742,-0.86016846,0.46331787,0.296875,-0.53125,0.34375,440
369,1696254708575,-0.31591797,-0.8530884,0.4640503,0.09375,-0.40625,0.34375,441
370,1696254708615,-0.32299805,-0.8479614,0.4623413,-0.078125,-0.375,0.359375,442
371,1696254708655,-0.32421875,-0.8518677,0.4664917,-0.3125,-0.328125,0.1875,443
372,1696254708695,-0.31518555,-0.85357666,0.47235107,-0.109375,-0.40625,-0.03125,444
373,1696254708735,-0.32055664,-0.85479736,0.46746826,0.15625,-0.390625,0.171875,445
374,1696254708775,-0.31884766,-0.848938,0.46600342,0.21875,-0.59375,0.0625,446
375,1696254708815,-0.32104492,-0.848938,0.4616089,-0.203125,-0.296875,0.078125,447
376,1696254708855,-0.31567383,-0.84552,0.46014404,-1.1875,-0.375,-0.09375,448
377,1696254708895,-0.31835938,-0.8513794,0.4706421,-1.0625,-0.078125,-0.125,449
378,1696254708935,-0.33007812,-0.8545532,0.46380615,-0.09375,0.171875,0.5,450
379,1696254708975,-0.32080078,-0.8491821,0.47039795,-0.59375,-0.59375,0.296875,451
380,1696254709015,-0.32495117,-0.8579712,0.46868896,-0.015625,-0.84375,0.203125,452
381,1696254709055,-0.3244629,-0.84820557,0.47821045,0.078125,-0.421875,0.5625,453
382,1696254709095,-0.31689453,-0.8604126,0.47235107,0.15625,-0.21875,0.875,454
383,1696254709135,-0.31518555,-0.8479614,0.4616089,-0.34375,-0.796875,0.25,455
384,1696254709175,-0.32128906,-0.8477173,0.47479248,1.609375,-0.28125,0.65625,456
385,1696254709215,-0.30615234,-0.8640747,0.4328003,0.90625,-0.453125,0.4375,473
386,1696254709255,-0.31176758,-0.86383057,0.42791748,0.96875,-0.5,0.546875,474
387,1696254709295,-0.30859375,-0.866272,0.4274292,0.4375,-0.609375,0.28125,475
388,1696254709335,-0.30737305,-0.87701416,0.43206787,0.15625,-0.578125,0.734375,476
389,1696254709375,-0.30981445,-0.8713989,0.4249878,-0.125,-0.625,0.203125,477
390,1696254709415,-0.3112793,-0.8753052,0.42938232,0.25,-0.65625,0.40625,478
391,1696254709455,-0.30517578,-0.878479,0.4315796,-0.28125,-1.03125,0.25,479
392,1696254709495,-0.31396484,-0.86505127,0.42913818,-0.296875,-0.75,-0.125,480
393,1696254709535,-0.3095703,-0.8674927,0.42645264,-0.140625,-0.515625,0.21875,481
394,1696254709575,-0.31274414,-0.87457275,0.42816162,-0.765625,-0.359375,0.140625,482
395,1696254709615,-0.31079102,-0.8674927,0.43255615,-0.703125,-0.40625,0.1875,483
396,1696254709655,-0.30322266,-0.8699341,0.42913818,-0.546875,-0.515625,-0.140625,484
397,1696254709695,-0.30688477,-0.87335205,0.4335327,-0.453125,-0.3125,0.140625,485
398,1696254709735,-0.31079102,-0.8635864,0.43475342,-0.578125,-0.359375,-0.03125,486
399,1696254709775,-0.30639648,-0.87335205,0.43597412,-0.203125,-0.296875,0.171875,487
400,1696254709815,-0.30444336,-0.8682251,0.43084717,-0.796875,-0.625,0.171875,488
401,1696254709855,-0.31030273,-0.8587036,0.43499756,-0.6875,-0.21875,-0.203125,489
402,1696254709895,-0.30786133,-0.8789673,0.43572998,0.078125,-0.265625,0.203125,490
403,1696254709935,-0.31152344,-0.8677368,0.43426514,-1.171875,-0.578125,-0.078125,491
404,1696254709975,-0.31225586,-0.86846924,0.43914795,-0.515625,-0.5,-0.296875,492
405,1696254710015,-0.3137207,-0.8616333,0.434021,0.1875,-0.234375,0.09375,493
406,1696254710055,-0.31445312,-0.8621216,0.42767334,0.390625,-0.25,-0.0625,494
407,1696254710095,-0.29907227,-0.87457275,0.4298706,0.75,-0.21875,-0.0625,495
408,1696254710135,-0.31762695,-0.8670044,0.4381714,-1.265625,-0.875,-0.0625,496
409,1696254710175,-0.31201172,-0.86016846,0.4442749,-1.796875,-1.015625,-0.265625,497
410,1696254710215,-0.30786133,-0.86968994,0.44866943,0.796875,0.515625,-0.109375,498
411,1696254710255,-0.30737305,-0.8826294,0.4315796,1.078125,0.453125,1.171875,499
412,1696254710295,-0.31176758,-0.8731079,0.43548584,-0.5,-0.234375,0.3125,500
413,1696254710335,-0.31103516,-0.8682251,0.42938232,-0.234375,-0.125,-0.234375,501
414,1696254710375,-0.3088379,-0.8609009,0.44036865,-0.125,-0.53125,-0.078125,502
415,1696254710415,-0.30932617,-0.8694458,0.43548584,-1.09375,-0.203125,0.03125,503
416,1696254710455,-0.31445312,-0.8652954,0.44281006,-0.734375,-0.15625,0.109375,504
417,1696254710495,-0.31396484,-0.86676025,0.4413452,0.484375,-0.46875,0.078125,505
418,1696254710535,-0.31054688,-0.87286377,0.44476318,0.265625,-0.59375,-0.0625,506
419,1696254710575,-0.31152344,-0.8665161,0.44207764,-0.09375,-0.21875,0.1875,507
420,1696254710615,-0.31811523,-0.8687134,0.43841553,-0.0625,-0.375,0.109375,508
421,1696254710655,-0.31225586,-0.8689575,0.43426514,-1.078125,-0.640625,-0.140625,509
422,1696254710695,-0.3137207,-0.8726196,0.44207764,-0.890625,-0.625,-0.328125,510
423,1696254710735,-0.3178711,-0.86065674,0.43841553,-1.84375,-0.546875,-0.53125,511
424,1696254710775,-0.3154297,-0.8674927,0.4430542,-1.078125,0.015625,-0.125,512
425,1696254710815,-0.31958008,-0.86260986,0.4467163,-0.40625,-0.484375,0.40625,513
426,1696254710855,-0.31689453,-0.861145,0.44769287,-0.5,-0.578125,0.15625,514
427,1696254710895,-0.31030273,-0.861145,0.4442749,-1.125,-0.421875,-0.3125,515
428,1696254710935,-0.31274414,-0.85723877,0.44866943,-0.953125,-0.5625,-0.234375,516
429,1696254710975,-0.31958008,-0.86187744,0.44476318,0.53125,-0.4375,0.46875,517
430,1696254711015,-0.31030273,-0.86505127,0.44525146,-0.046875,-0.59375,0.296875,518
431,1696254711055,-0.31469727,-0.866272,0.45184326,-0.8125,-0.359375,-0.09375,519
432,1696254711095,-0.31103516,-0.8587036,0.44622803,-0.046875,-0.453125,0.234375,520
433,1696254711135,-0.31469727,-0.85772705,0.44622803,-0.890625,-0.734375,0.03125,521
434,1696254711175,-0.32373047,-0.8599243,0.447937,-0.671875,-0.515625,0.0,522
435,1696254711215,-0.31396484,-0.8567505,0.44818115,-0.859375,-0.34375,0.203125,523
436,1696254711255,-0.32202148,-0.8682251,0.4491577,-0.734375,-0.4375,0.28125,524
437,1696254711295,-0.32226562,-0.86431885,0.45159912,-0.421875,-0.40625,0.265625,525
438,1696254711335,-0.31860352,-0.85821533,0.45428467,-0.265625,-0.484375,0.171875,526
439,1696254711375,-0.31884766,-0.85723877,0.4550171,-0.125,-0.546875,0.203125,527
440,1696254711415,-0.3256836,-0.8604126,0.44940186,-0.859375,-0.4375,0.09375,528
441,1696254711455,-0.32006836,-0.8518677,0.4520874,-0.5,-0.46875,0.15625,529
442,1696254711495,-0.31298828,-0.861145,0.45672607,-0.34375,-0.265625,0.046875,530
443,1696254711535,-0.31323242,-0.85357666,0.45892334,-0.890625,-0.703125,-0.109375,531
444,1696254711575,-0.31811523,-0.86016846,0.45404053,0.0,-1.03125,0.265625,532
445,1696254711615,-0.31347656,-0.86431885,0.45526123,-0.53125,-0.546875,0.0625,533
446,1696254711655,-0.31689453,-0.86065674,0.4647827,-0.734375,-0.578125,-0.3125,534
447,1696254711695,-0.3166504,-0.85821533,0.4611206,-0.359375,-0.890625,-0.125,535
448,1696254711735,-0.3215332,-0.84991455,0.4586792,-0.484375,-0.671875,0.03125,536
449,1696254711775,-0.3232422,-0.84869385,0.45404053,0.15625,-0.59375,0.25,537
450,1696254711815,-0.3178711,-0.86431885,0.45916748,-0.140625,-0.671875,0.109375,538
451,1696254711855,-0.31835938,-0.85772705,0.46038818,-0.078125,-0.5,0.390625,539
452,1696254711895,-0.31811523,-0.8574829,0.44866943,-0.328125,-0.484375,0.09375,540
453,1696254711935,-0.3166504,-0.85601807,0.45648193,0.1875,0.0,0.421875,541
454,1696254711975,-0.32373047,-0.861145,0.45648193,0.546875,0.109375,0.78125,542
455,1696254712015,-0.32299805,-0.8513794,0.4550171,-0.171875,-0.484375,0.171875,543
456,1696254712055,-0.31640625,-0.86383057,0.4586792,-0.3125,-0.40625,0.109375,544
457,1696254712095,-0.32373047,-0.8584595,0.45843506,-0.96875,-0.265625,0.5,545
458,1696254712135,-0.31640625,-0.85723877,0.45941162,-1.1875,-0.25,0.40625,546
459,1696254712175,-0.32080078,-0.8574829,0.46820068,-0.625,-0.328125,0.109375,547
460,1696254712215,-0.32250977,-0.8567505,0.46087646,0.265625,-0.1875,0.453125,548
461,1696254712255,-0.32299805,-0.8569946,0.45721436,-0.484375,-0.6875,0.625,549
462,1696254712295,-0.31860352,-0.8557739,0.4628296,-1.203125,-0.484375,0.609375,550
463,1696254712335,-0.3125,-0.85943604,0.45648193,-0.828125,-0.171875,0.53125,551
464,1696254712375,-0.31713867,-0.8635864,0.45794678,-1.046875,-0.90625,0.671875,552
465,1696254712415,-0.31420898,-0.85235596,0.46307373,-0.1875,-0.84375,0.484375,553
466,1696254712455,-0.3178711,-0.85821533,0.46600342,1.09375,-0.46875,0.703125,554
467,1696254712495,-0.30737305,-0.85821533,0.45794678,1.078125,-0.921875,0.453125,555
468,1696254712535,-0.31347656,-0.84747314,0.45477295,0.09375,-1.25,0.28125,556
469,1696254712575,-0.3166504,-0.8567505,0.46185303,0.8125,-0.921875,0.390625,557
470,1696254712615,-0.3125,-0.86065674,0.45526123,0.40625,-0.75,0.296875,558
471,1696254712655,-0.31958008,-0.8640747,0.4569702,-0.21875,-0.875,0.4375,559
472,1696254712695,-0.3161621,-0.85479736,0.4562378,0.109375,-1.09375,0.34375,560
473,1696254712735,-0.31469727,-0.8533325,0.4562378,0.359375,-0.78125,0.28125,561
474,1696254712775,-0.31835938,-0.8543091,0.45550537,1.453125,-0.546875,0.59375,562
475,1696254712815,-0.3166504,-0.8587036,0.45281982,0.609375,-0.96875,0.75,563
476,1696254712855,-0.3095703,-0.8574829,0.45404053,0.3125,-1.21875,0.53125,564
477,1696254712895,-0.31274414,-0.85528564,0.45721436,0.703125,-0.734375,0.171875,565
478,1696254712935,-0.31591797,-0.8596802,0.45306396,1.296875,-0.296875,0.8125,566
479,1696254712975,-0.3215332,-0.8609009,0.44573975,0.625,-0.671875,0.609375,567
480,1696254713015,-0.31982422,-0.8587036,0.45526123,0.6875,-1.078125,0.3125,568
481,1696254713055,-0.31323242,-0.8652954,0.4491577,0.6875,-1.03125,0.546875,569
482,1696254713095,-0.3125,-0.86431885,0.4459839,0.3125,-0.65625,0.25,570
483,1696254713135,-0.31030273,-0.862854,0.44818115,0.578125,-0.984375,0.171875,571
484,1696254713175,-0.31420898,-0.86676025,0.44403076,0.171875,-0.90625,0.234375,572
485,1696254713215,-0.32080078,-0.8635864,0.44891357,-0.140625,-0.796875,0.0625,573
486,1696254713255,-0.3083496,-0.86187744,0.4454956,0.171875,-0.703125,0.25,574
487,1696254713295,-0.31054688,-0.8609009,0.44036865,-0.328125,-0.875,0.109375,575
488,1696254713335,-0.32055664,-0.87042236,0.4430542,-0.109375,-0.65625,0.328125,576
489,1696254713375,-0.3100586,-0.86798096,0.434021,-0.78125,-0.890625,0.171875,577
490,1696254713415,-0.3100586,-0.8530884,0.4459839,-0.40625,-0.625,-0.359375,578
491,1696254713455,-0.31469727,-0.866272,0.44818115,0.109375,0.0,0.1875,579
492,1696254713495,-0.32250977,-0.86431885,0.44769287,-1.15625,-0.46875,-0.078125,580
493,1696254713535,-0.31445312,-0.8616333,0.4459839,-0.671875,-0.5,0.046875,581
494,1696254713575,-0.3149414,-0.8567505,0.44207764,-0.046875,-0.09375,-0.046875,582
495,1696254713615,-0.31445312,-0.8545532,0.44989014,-0.046875,-0.140625,-0.015625,583
496,1696254713655,-0.3149414,-0.8635864,0.44647217,-0.65625,-0.171875,-0.28125,584
497,1696254713695,-0.32104492,-0.8555298,0.44696045,-0.3125,-0.234375,-0.0625,585
498,1696254713735,-0.31347656,-0.8579712,0.44818115,-0.03125,-0.453125,0.234375,586
499,1696254713775,-0.31420898,-0.86431885,0.4537964,-1.46875,-0.34375,-0.546875,587
500,1696254713815,-0.32104492,-0.86138916,0.44989014,-2.359375,-0.734375,-0.09375,588
501,1696254713855,-0.3190918,-0.86016846,0.46087646,-1.53125,-0.25,-0.34375,589
502,1696254713895,-0.3154297,-0.86065674,0.4598999,0.28125,0.3125,-0.03125,590
503,1696254713935,-0.3190918,-0.86553955,0.4533081,-0.09375,0.0,0.375,591
504,1696254713975,-0.32202148,-0.8569946,0.45941162,-0.875,0.0,-0.015625,592
505,1696254714015,-0.3203125,-0.85357666,0.45794678,-0.796875,-0.09375,-0.203125,593
506,1696254714055,-0.32226562,-0.85040283,0.45965576,-0.75,-0.46875,-0.28125,594
507,1696254714095,-0.3251953,-0.85772705,0.46307373,-0.640625,-0.515625,-0.1875,595
508,1696254714135,-0.32348633,-0.85235596,0.46209717,-1.65625,-0.3125,-0.140625,596
509,1696254714175,-0.3244629,-0.84991455,0.46209717,-0.859375,-0.265625,-0.078125,597
510,1696254714215,-0.32202148,-0.8550415,0.4611206,0.484375,0.078125,0.296875,598
511,1696254714255,-0.3215332,-0.8501587,0.46673584,-0.09375,-0.375,0.109375,599
512,1696254714295,-0.3244629,-0.8587036,0.463562,-0.578125,-0.25,-0.234375,600
513,1696254714335,-0.32421875,-0.84942627,0.46746826,0.0,-0.0625,0.140625,601
514,1696254714375,-0.31640625,-0.8555298,0.45648193,-1.40625,-0.59375,0.171875,602
515,1696254714415,-0.32055664,-0.85650635,0.47406006,-1.546875,-0.4375,-0.0625,603
516,1696254714455,-0.31640625,-0.84332275,0.4694214,1.03125,-0.34375,0.1875,604
517,1696254714495,-0.32788086,-0.8496704,0.4533081,0.5625,-0.40625,0.203125,605
518,1696254714535,-0.32592773,-0.8609009,0.46136475,-0.796875,-0.484375,0.53125,606
519,1696254714575,-0.31469727,-0.8521118,0.47357178,-0.09375,-0.34375,0.265625,607
520,1696254714615,-0.31713867,-0.8562622,0.463562,1.875,0.109375,0.515625,608
521,1696254714655,-0.31835938,-0.8521118,0.44989014,1.109375,-0.578125,0.5,609
522,1696254714695,-0.32788086,-0.8599243,0.46624756,0.09375,-0.890625,0.078125,610
523,1696254714735,-0.32202148,-0.86260986,0.46307373,-0.109375,-0.359375,0.140625,611
524,1696254714775,-0.3215332,-0.850647,0.45819092,0.3125,-0.484375,0.234375,612
525,1696254714815,-0.32006836,-0.8508911,0.46209717,1.328125,-0.515625,0.484375,613
526,1696254714855,-0.32128906,-0.85772705,0.45428467,0.625,-0.28125,0.34375,614
527,1696254714895,-0.31445312,-0.85479736,0.4598999,-1.078125,-0.75,0.15625,615
528,1696254714935,-0.31982422,-0.85943604,0.45721436,-0.734375,-0.328125,0.0625,616
529,1696254714975,-0.31811523,-0.8584595,0.4616089,-0.46875,-0.09375,0.171875,617
530,1696254715015,-0.31811523,-0.85894775,0.45599365,-0.234375,-0.078125,0.265625,618
531,1696254715055,-0.31835938,-0.8538208,0.4611206,0.234375,-0.359375,0.265625,619
532,1696254715095,-0.31762695,-0.85235596,0.46014404,-0.171875,-0.4375,0.28125,620
533,1696254715135,-0.3154297,-0.8530884,0.46307373,-0.921875,-0.515625,-0.046875,621
534,1696254715175,-0.3173828,-0.8428345,0.4611206,-0.265625,-0.546875,0.546875,622
535,1696254715215,-0.3203125,-0.8587036,0.46917725,0.75,-0.265625,0.3125,623
536,1696254715255,-0.32495117,-0.84552,0.46697998,0.109375,-0.828125,0.203125,624
537,1696254715295,-0.31689453,-0.86187744,0.45721436,0.875,-0.625,0.234375,625
538,1696254715335,-0.3178711,-0.8557739,0.45159912,-0.890625,-0.46875,-0.15625,626
539,1696254715375,-0.3190918,-0.8567505,0.4562378,-1.09375,-0.5625,-0.078125,627
540,1696254715415,-0.31274414,-0.85284424,0.46429443,0.265625,0.078125,0.53125,628
541,1696254715455,-0.31396484,-0.8533325,0.46014404,-0.1875,-0.21875,0.171875,629
542,1696254715495,-0.31958008,-0.85479736,0.4611206,-0.234375,-0.40625,0.03125,630
543,1696254715535,-0.3166504,-0.8479614,0.4557495,-0.03125,-0.484375,0.421875,631
544,1696254715575,-0.31518555,-0.8521118,0.46185303,0.09375,-0.484375,0.484375,632
545,1696254715615,-0.31982422,-0.8545532,0.4586792,0.109375,-0.640625,0.109375,633
546,1696254715655,-0.31835938,-0.850647,0.465271,0.25,-0.5,0.171875,634
547,1696254715695,-0.31591797,-0.8569946,0.4640503,0.578125,-0.34375,0.40625,635
548,1696254715735,-0.32128906,-0.8464966,0.45404053,-0.34375,-0.59375,0.03125,636
549,1696254715775,-0.31933594,-0.85406494,0.45916748,0.390625,-0.5,0.15625,637
550,1696254715815,-0.31762695,-0.8569946,0.46429443,-0.15625,-0.5,0.421875,638
551,1696254715855,-0.31713867,-0.8555298,0.46307373,-0.15625,-0.25,0.296875,639
552,1696254715895,-0.31811523,-0.85723877,0.4616089,0.375,-0.296875,0.234375,640
553,1696254715935,-0.31225586,-0.8508911,0.46624756,0.265625,-0.4375,0.203125,641
554,1696254715975,-0.32202148,-0.8569946,0.46087646,-0.296875,-0.5625,0.046875,642
555,1696254716015,-0.31591797,-0.85235596,0.45916748,0.15625,-0.40625,0.28125,643
556,1696254716055,-0.32250977,-0.8569946,0.46038818,-0.109375,-0.375,0.421875,644
557,1696254716095,-0.31811523,-0.8526001,0.46429443,-0.140625,-0.59375,0.234375,645
558,1696254716135,-0.3251953,-0.8569946,0.4598999,0.0625,-0.34375,0.53125,646
559,1696254716175,-0.31811523,-0.8591919,0.4647827,0.796875,-0.25,0.4375,647
560,1696254716215,-0.3166504,-0.84552,0.46429443,-0.09375,-0.59375,0.234375,648
561,1696254716255,-0.3215332,-0.84942627,0.4628296,0.546875,-0.171875,0.390625,649
562,1696254716295,-0.31347656,-0.8569946,0.45941162,0.296875,-0.40625,0.5,650
563,1696254716335,-0.31933594,-0.86016846,0.46453857,0.265625,-0.8125,0.328125,651
564,1696254716375,-0.31640625,-0.85650635,0.4574585,0.890625,-0.25,0.640625,652
565,1696254716415,-0.31713867,-0.8596802,0.45233154,0.921875,-0.578125,0.765625,653
566,1696254716455,-0.31518555,-0.8550415,0.45941162,0.609375,-0.671875,0.4375,654
567,1696254716495,-0.31323242,-0.85894775,0.45306396,0.421875,-0.921875,0.53125,655
568,1696254716535,-0.31762695,-0.86676025,0.4484253,1.359375,-0.40625,0.90625,656
569,1696254716575,-0.30615234,-0.8591919,0.45428467,1.03125,-0.28125,0.671875,657
570,1696254716615,-0.3083496,-0.85650635,0.45257568,0.578125,-0.328125,0.328125,658
571,1696254716655,-0.31762695,-0.86309814,0.4472046,1.625,-0.6875,0.71875,659
572,1696254716695,-0.30639648,-0.8587036,0.4484253,1.0,-0.546875,0.6875,660
573,1696254716735,-0.30737305,-0.8633423,0.4454956,1.0625,-0.71875,0.625,661
574,1696254716775,-0.30786133,-0.8635864,0.44866943,1.734375,-0.734375,0.734375,662
575,1696254716815,-0.31713867,-0.8674927,0.43548584,0.671875,-0.671875,0.71875,663
576,1696254716855,-0.31420898,-0.8694458,0.4364624,0.453125,-0.578125,0.421875,664
577,1696254716895,-0.3071289,-0.8640747,0.43865967,0.859375,-0.734375,0.609375,665
578,1696254716935,-0.3125,-0.8687134,0.44036865,0.375,-0.78125,0.546875,666
579,1696254716975,-0.3076172,-0.8689575,0.43499756,-0.21875,-0.796875,0.46875,667
580,1696254717015,-0.30688477,-0.86431885,0.4430542,-0.1875,-1.015625,0.3125,668
581,1696254717055,-0.31079102,-0.86968994,0.43548584,0.4375,-0.921875,0.1875,669
582,1696254717095,-0.30981445,-0.864563,0.4467163,-0.140625,-1.125,0.5625,670
583,1696254717135,-0.30664062,-0.85772705,0.44281006,-0.90625,-1.1875,-0.171875,671
584,1696254717175,-0.30444336,-0.87042236,0.434021,0.0,-0.71875,0.234375,672
585,1696254717215,-0.30908203,-0.8753052,0.4393921,-0.46875,-0.546875,0.046875,673
586,1696254717255,-0.31079102,-0.8657837,0.43695068,-1.0,-0.453125,-0.03125,674
587,1696254717295,-0.30810547,-0.8665161,0.4389038,-0.375,-0.125,0.203125,675
588,1696254717335,-0.31054688,-0.8623657,0.4381714,-0.5,-0.203125,-0.15625,676
589,1696254717375,-0.30786133,-0.85821533,0.4381714,-0.296875,-0.125,-0.28125,677
590,1696254717415,-0.31298828,-0.8640747,0.44891357,-0.640625,-0.71875,-0.109375,678
591,1696254717455,-0.32080078,-0.86920166,0.44378662,-0.703125,-0.734375,0.03125,679
592,1696254717495,-0.30444336,-0.861145,0.4467163,0.296875,-0.546875,-0.34375,680
593,1696254717535,-0.3154297,-0.8652954,0.4401245,-0.109375,-0.328125,-0.265625,681
594,1696254717575,-0.3203125,-0.87091064,0.43914795,-0.796875,-0.421875,0.109375,682
595,1696254717615,-0.31274414,-0.86016846,0.44207764,-2.15625,-0.25,-0.453125,683
596,1696254717655,-0.3190918,-0.85894775,0.44866943,-0.234375,-0.546875,-0.234375,684
597,1696254717695,-0.31689453,-0.86138916,0.44989014,-0.765625,-0.203125,-0.234375,685
598,1696254717735,-0.32202148,-0.86920166,0.45428467,-1.625,-0.015625,-0.296875,686
599,1696254717775,-0.31518555,-0.8518677,0.45184326,-1.015625,-0.265625,-0.125,687
600,1696254717815,-0.3244629,-0.85723877,0.45159912,-0.828125,-0.25,-0.25,688
601,1696254717855,-0.3161621,-0.85943604,0.4557495,-1.0,-0.359375,-0.09375,689
602,1696254717895,-0.31689453,-0.85772705,0.45477295,-1.09375,-0.40625,-0.015625,690
603,1696254717935,-0.31396484,-0.85821533,0.45062256,-1.21875,-0.28125,-0.21875,691
604,1696254717975,-0.3166504,-0.8616333,0.4611206,-0.90625,-0.5625,-0.0625,692
605,1696254718015,-0.3239746,-0.85601807,0.45770264,-1.28125,-0.65625,-0.046875,693
606,1696254718055,-0.3178711,-0.85235596,0.4640503,-0.265625,-0.484375,-0.046875,694
607,1696254718095,-0.3178711,-0.8584595,0.45526123,-1.21875,-0.015625,-0.078125,695
608,1696254718135,-0.3232422,-0.85162354,0.46331787,-2.375,-0.625,-0.5,696
609,1696254718175,-0.32128906,-0.85235596,0.4647827,-1.140625,-0.34375,-0.015625,697
610,1696254718215,-0.3178711,-0.8508911,0.4628296,-0.296875,-0.671875,0.171875,698
611,1696254718255,-0.32104492,-0.8496704,0.46673584,-0.484375,-0.40625,-0.203125,699
612,1696254718295,-0.32348633,-0.8538208,0.46624756,-0.609375,-0.5625,0.109375,700
613,1696254718335,-0.3239746,-0.847229,0.46673584,-0.203125,-0.609375,0.125,701
614,1696254718375,-0.31860352,-0.8574829,0.46820068,0.5625,-0.21875,0.515625,702
615,1696254718415,-0.31811523,-0.85406494,0.46307373,-0.828125,-0.171875,0.03125,703
616,1696254718455,-0.3251953,-0.8543091,0.46673584,-0.03125,-0.515625,0.28125,704
617,1696254718495,-0.32299805,-0.85943604,0.46673584,-0.3125,-0.375,0.421875,705
618,1696254718535,-0.31713867,-0.84625244,0.46795654,0.09375,-0.40625,0.265625,706
619,1696254718575,-0.32177734,-0.848938,0.463562,-0.09375,-0.578125,0.21875,707
620,1696254718615,-0.32666016,-0.8550415,0.46209717,-0.609375,-0.46875,0.03125,708
621,1696254718655,-0.32299805,-0.8518677,0.46551514,-0.125,-0.34375,0.203125,709
622,1696254718695,-0.32080078,-0.84820557,0.4623413,0.09375,-0.65625,0.203125,710
623,1696254718735,-0.32421875,-0.85040283,0.46600342,-0.0625,-0.34375,0.234375,711
624,1696254718775,-0.31811523,-0.85040283,0.46868896,-0.25,-0.21875,0.375,712
625,1696254718815,-0.3190918,-0.848938,0.465271,-0.15625,-0.359375,0.359375,713
626,1696254718855,-0.31176758,-0.8530884,0.46038818,-0.3125,-0.4375,0.171875,714
627,1696254718895,-0.3190918,-0.8533325,0.47088623,0.046875,-0.53125,0.328125,715
628,1696254718935,-0.32250977,-0.85894775,0.46722412,0.5,-0.640625,0.4375,716
629,1696254718975,-0.3161621,-0.8442993,0.4706421,0.015625,-0.84375,0.21875,717
630,1696254719015,-0.31811523,-0.8513794,0.46258545,0.46875,-0.46875,0.3125,718
631,1696254719055,-0.3149414,-0.8555298,0.45965576,-0.546875,-0.4375,0.265625,719
632,1696254719095,-0.32055664,-0.847229,0.4718628,-0.5625,-0.515625,0.078125,720
633,1696254719135,-0.31152344,-0.8513794,0.46990967,0.15625,-0.09375,0.421875,721
634,1696254719175,-0.32055664,-0.8484497,0.46722412,-0.296875,-0.4375,0.1875,722
635,1696254719215,-0.3203125,-0.8491821,0.4640503,-0.828125,-0.328125,0.015625,723
636,1696254719255,-0.3161621,-0.84747314,0.46868896,-0.21875,-0.4375,0.390625,724
637,1696254719295,-0.32080078,-0.8543091,0.4713745,0.359375,-0.21875,0.46875,725
638,1696254719335,-0.3095703,-0.85650635,0.4713745,0.234375,-0.390625,0.328125,726
639,1696254719375,-0.31835938,-0.8508911,0.4694214,-0.015625,-0.359375,0.265625,727
640,1696254719415,-0.3227539,-0.8538208,0.46868896,1.453125,-0.5,0.640625,728
641,1696254719455,-0.3166504,-0.8501587,0.46502686,0.515625,-0.796875,0.609375,729
642,1696254719495,-0.3161621,-0.84942627,0.4611206,1.28125,-0.4375,0.640625,730
643,1696254719535,-0.31323242,-0.8599243,0.45721436,0.734375,-0.625,0.59375,731
644,1696254719575,-0.31445312,-0.8538208,0.46209717,0.3125,-0.765625,0.40625,732
645,1696254719615,-0.31884766,-0.85357666,0.4628296,1.609375,-0.609375,0.703125,733
646,1696254719655,-0.31469727,-0.8569946,0.4640503,1.484375,-0.375,0.828125,734
647,1696254719695,-0.31640625,-0.86383057,0.45843506,1.09375,-0.40625,0.640625,735
648,1696254719735,-0.31176758,-0.85479736,0.44940186,1.5625,-0.859375,0.59375,736
649,1696254719775,-0.3071289,-0.8587036,0.44769287,0.96875,-0.46875,0.65625,737
650,1696254719815,-0.30737305,-0.8574829,0.45599365,1.359375,-0.6875,0.9375,738
651,1696254719855,-0.31298828,-0.8713989,0.45062256,1.65625,-0.53125,0.875,739
652,1696254719895,-0.30639648,-0.8550415,0.44232178,0.21875,-0.84375,0.328125,740
653,1696254719935,-0.30639648,-0.8567505,0.44354248,1.234375,-0.5625,0.5625,741
654,1696254719975,-0.31469727,-0.86846924,0.4418335,0.828125,-0.59375,0.53125,742
655,1696254720015,-0.3095703,-0.8599243,0.44573975,0.0625,-0.828125,0.28125,743
656,1696254720055,-0.30541992,-0.8640747,0.44573975,0.640625,-0.546875,0.578125,744
657,1696254720095,-0.31713867,-0.85772705,0.44281006,0.359375,-0.484375,0.578125,745
658,1696254720135,-0.3059082,-0.861145,0.43597412,-0.796875,-1.0,0.109375,746
659,1696254720175,-0.31152344,-0.8609009,0.4569702,0.21875,-0.75,0.203125,747
660,1696254720215,-0.3100586,-0.86602783,0.44232178,0.390625,-0.1875,0.359375,748
661,1696254720255,-0.3161621,-0.8670044,0.44525146,-0.046875,-0.46875,0.125,749
662,1696254720295,-0.31762695,-0.86383057,0.45037842,-0.109375,-0.9375,0.15625,750
663,1696254720335,-0.3059082,-0.8579712,0.44329834,-0.5,-0.65625,0.40625,751
664,1696254720375,-0.3125,-0.8623657,0.44866943,-0.109375,-0.484375,-0.03125,752
665,1696254720415,-0.31079102,-0.86676025,0.4381714,-0.0625,-0.75,0.203125,753
666,1696254720455,-0.3137207,-0.86383057,0.44036865,-1.09375,-0.453125,0.03125,754
667,1696254720495,-0.30639648,-0.86187744,0.44036865,-1.328125,-0.453125,-0.0625,755
668,1696254720535,-0.30615234,-0.86187744,0.4472046,-1.046875,-0.546875,-0.171875,756
669,1696254720575,-0.31323242,-0.86138916,0.4467163,-0.359375,-0.328125,-0.0625,757
670,1696254720615,-0.3161621,-0.86383057,0.44500732,-0.890625,-0.34375,-0.25,758
671,1696254720655,-0.3149414,-0.8596802,0.45721436,-0.359375,-0.3125,0.046875,759
672,1696254720695,-0.31054688,-0.8689575,0.45159912,-0.046875,-0.125,-0.234375,760
673,1696254720735,-0.30810547,-0.86065674,0.45159912,-0.8125,-0.46875,-0.359375,761
674,1696254720775,-0.31079102,-0.85894775,0.4508667,0.734375,0.171875,-0.03125,762
675,1696254720815,-0.31274414,-0.8621216,0.44451904,0.71875,0.609375,0.046875,763
676,1696254720855,-0.31811523,-0.86065674,0.44622803,-0.90625,-0.4375,-0.015625,764
677,1696254720895,-0.3178711,-0.86309814,0.45184326,-0.015625,0.203125,0.0,765
678,1696254720935,-0.3125,-0.86383057,0.45257568,0.90625,-0.09375,0.453125,766
679,1696254720975,-0.31469727,-0.85772705,0.4491577,0.828125,0.109375,0.234375,767
680,1696254721015,-0.30786133,-0.86431885,0.44769287,0.984375,0.375,0.3125,768
681,1696254721055,-0.31518555,-0.85943604,0.45062256,0.640625,-0.171875,0.265625,769
682,1696254721095,-0.3149414,-0.8635864,0.44573975,0.609375,-0.46875,0.390625,770
683,1696254721135,-0.31396484,-0.85821533,0.449646,-0.734375,-0.40625,-0.1875,771
684,1696254721175,-0.31835938,-0.86309814,0.4484253,-0.21875,-0.265625,0.25,772
685,1696254721215,-0.31298828,-0.8574829,0.4472046,-0.484375,-0.703125,0.21875,773
686,1696254721255,-0.31420898,-0.8623657,0.4491577,0.0,-0.5,0.140625,774
687,1696254721295,-0.31274414,-0.86309814,0.44696045,-0.65625,-0.65625,0.0625,775
688,1696254721335,-0.31176758,-0.8633423,0.44891357,-1.078125,-0.5625,0.109375,776
689,1696254721375,-0.31567383,-0.862854,0.4467163,-0.484375,-0.359375,0.21875,777
690,1696254721415,-0.3173828,-0.85943604,0.4454956,-0.46875,-0.390625,0.109375,778
691,1696254721455,-0.31567383,-0.8640747,0.4557495,-1.15625,-0.53125,0.046875,779
692,1696254721495,-0.31762695,-0.85943604,0.45404053,-0.921875,-0.65625,-0.109375,780
693,1696254721535,-0.31713867,-0.8587036,0.45037842,-0.609375,-0.625,0.109375,781
694,1696254721575,-0.31762695,-0.8567505,0.45916748,-0.03125,-0.421875,0.375,782
695,1696254721615,-0.31689453,-0.8591919,0.4537964,-0.421875,-0.578125,0.09375,783
696,1696254721655,-0.3239746,-0.8587036,0.45843506,-0.640625,-0.484375,0.03125,784
697,1696254721695,-0.3154297,-0.8567505,0.45013428,-0.59375,-0.53125,-0.078125,785
698,1696254721735,-0.3137207,-0.8562622,0.4550171,-1.53125,-0.546875,-0.15625,786
699,1696254721775,-0.32006836,-0.8574829,0.45916748,-0.53125,-0.21875,0.296875,787
700,1696254721815,-0.3154297,-0.8574829,0.45721436,-0.453125,-0.390625,0.09375,788
701,1696254721855,-0.3149414,-0.85162354,0.4562378,-0.46875,-0.515625,-0.03125,789
702,1696254721895,-0.3178711,-0.86065674,0.46258545,-0.328125,-0.421875,0.15625,790
703,1696254721935,-0.31933594,-0.85284424,0.46624756,-0.359375,-0.53125,0.1875,791
704,1696254721975,-0.3166504,-0.85821533,0.4623413,0.609375,-0.375,0.421875,792
705,1696254722015,-0.31323242,-0.85943604,0.4598999,-0.625,-0.390625,0.015625,793
706,1696254722055,-0.32202148,-0.8533325,0.46331787,-0.40625,-0.640625,0.0,794
707,1696254722095,-0.32006836,-0.85894775,0.46331787,0.078125,-0.234375,0.359375,795
708,1696254722135,-0.31860352,-0.85650635,0.4545288,-0.640625,-0.78125,0.21875,796
709,1696254722175,-0.3190918,-0.8557739,0.4598999,-1.0625,-0.953125,0.09375,797
710,1696254722215,-0.3166504,-0.8513794,0.46380615,-0.203125,-0.78125,0.59375,798
711,1696254722255,-0.31030273,-0.8591919,0.46063232,0.03125,-0.15625,0.46875,799
712,1696254722295,-0.32202148,-0.8518677,0.45794678,-0.03125,-0.578125,0.53125,800
713,1696254722335,-0.31518555,-0.85479736,0.46600342,0.796875,-0.609375,0.65625,801
714,1696254722375,-0.31347656,-0.8557739,0.46209717,1.078125,-0.53125,0.53125,802
715,1696254722415,-0.31030273,-0.8587036,0.4611206,0.25,-0.609375,0.578125,803
716,1696254722455,-0.31445312,-0.8521118,0.46038818,0.265625,-0.65625,0.390625,804
717,1696254722495,-0.31298828,-0.8562622,0.46014404,1.3125,-0.75,0.59375,805
718,1696254722535,-0.30859375,-0.86138916,0.4491577,0.9375,-0.734375,0.578125,806
719,1696254722575,-0.31298828,-0.85162354,0.45037842,0.53125,-0.421875,0.140625,807
720,1696254722615,-0.31030273,-0.85894775,0.45037842,0.96875,-0.546875,0.5,808
721,1696254722655,-0.31713867,-0.8623657,0.4574585,0.234375,-0.796875,0.375,809
722,1696254722695,-0.31176758,-0.8665161,0.4537964,0.71875,-0.625,0.65625,810
723,1696254722735,-0.3100586,-0.8640747,0.44622803,0.4375,-1.046875,0.296875,811
724,1696254722775,-0.31030273,-0.8599243,0.44769287,1.015625,-0.34375,0.328125,812
725,1696254722815,-0.31201172,-0.85943604,0.449646,0.78125,-0.78125,0.515625,813
726,1696254722855,-0.3112793,-0.8699341,0.44769287,1.453125,-0.765625,0.859375,814
727,1696254722895,-0.2993164,-0.86260986,0.4454956,0.75,-0.765625,0.5625,815
728,1696254722935,-0.3083496,-0.8599243,0.4484253,0.1875,-0.640625,0.125,816
729,1696254722975,-0.3149414,-0.86602783,0.43988037,1.671875,-0.625,1.046875,817
730,1696254723015,-0.30249023,-0.8652954,0.44085693,0.78125,-0.609375,0.4375,818
731,1696254723055,-0.31469727,-0.8665161,0.43865967,0.625,-1.0,0.203125,819
732,1696254723095,-0.31420898,-0.86724854,0.43597412,0.65625,-0.71875,0.515625,820
733,1696254723135,-0.31054688,-0.87164307,0.43743896,0.515625,-0.5625,0.359375,821
734,1696254723175,-0.30737305,-0.86138916,0.4381714,0.09375,-0.71875,0.234375,822
735,1696254723215,-0.3059082,-0.8735962,0.43621826,-0.046875,-0.546875,0.3125,823
736,1696254723255,-0.3088379,-0.8711548,0.44085693,0.03125,-0.609375,0.09375,824
737,1696254723295,-0.30908203,-0.8706665,0.43670654,-0.28125,-0.375,0.21875,825
738,1696254723335,-0.3083496,-0.8557739,0.4364624,-0.328125,-0.484375,0.171875,826
739,1696254723375,-0.3076172,-0.87042236,0.44036865,0.140625,-0.359375,0.125,827
740,1696254723415,-0.30810547,-0.87286377,0.432312,-0.3125,-0.609375,0.28125,828
741,1696254723455,-0.30737305,-0.8665161,0.4298706,0.234375,-0.15625,-0.125,829
742,1696254723495,-0.3100586,-0.8726196,0.43475342,0.828125,0.34375,0.5,830
743,1696254723535,-0.31079102,-0.86724854,0.43695068,-0.203125,-0.40625,-0.109375,831
744,1696254723575,-0.31030273,-0.87213135,0.44085693,-0.5,-0.1875,-0.203125,832
745,1696254723615,-0.31469727,-0.8652954,0.4401245,-0.421875,-0.28125,0.203125,833
746,1696254723655,-0.30981445,-0.86016846,0.4364624,-0.171875,-0.140625,0.03125,834
747,1696254723695,-0.30615234,-0.8623657,0.4401245,0.21875,-0.265625,-0.046875,835
748,1696254723735,-0.3154297,-0.8694458,0.43865967,0.875,-0.359375,0.234375,836
749,1696254723775,-0.30737305,-0.87042236,0.43621826,0.859375,0.03125,0.421875,837
750,1696254723815,-0.3071289,-0.85772705,0.43597412,0.21875,0.078125,-0.078125,838
751,1696254723855,-0.30737305,-0.8706665,0.43621826,1.4375,-0.171875,0.21875,839
752,1696254723895,-0.30566406,-0.87213135,0.43426514,1.21875,0.125,0.3125,840
753,1696254723935,-0.31323242,-0.8711548,0.4376831,1.390625,0.375,0.453125,841
754,1696254723975,-0.31176758,-0.8740845,0.43499756,0.734375,-0.25,0.203125,842
755,1696254724015,-0.3125,-0.8809204,0.4303589,0.953125,0.359375,0.296875,843
756,1696254724055,-0.30786133,-0.8677368,0.42889404,0.671875,0.078125,0.4375,844
757,1696254724095,-0.30297852,-0.86968994,0.42962646,0.953125,0.046875,0.328125,845
758,1696254724135,-0.30664062,-0.8772583,0.42425537,0.59375,-0.3125,0.28125,846
759,1696254724175,-0.30786133,-0.8765259,0.42718506,0.3125,-0.125,0.03125,847
