# Sensor type: Respeck
# Activity type: Sitting
# Activity subtype: Singing
# Subject id: s2106809
# Notes: unprocessed
timestamp,accel_x,accel_y,accel_z,gyro_x,gyro_y,gyro_z
1696250663582,-0.40527344,-0.802063,0.49432373,-1.53125,-1.03125,-0.4375
1696250663622,-0.41210938,-0.79473877,0.48065186,-1.234375,-1.75,-0.328125
1696250663664,-0.421875,-0.80670166,0.49334717,-0.953125,-1.203125,0.015625
1696250663704,-0.4074707,-0.80133057,0.48846436,-0.09375,-1.375,0.09375
1696250663744,-0.40820312,-0.80181885,0.4857788,0.015625,-0.9375,0.09375
1696250663784,-0.4116211,-0.8128052,0.4784546,-0.28125,-0.390625,-0.40625
1696250663823,-0.4189453,-0.80670166,0.4887085,-1.171875,-1.25,-0.125
1696250663864,-0.4177246,-0.8023071,0.4928589,0.09375,-1.015625,0.15625
1696250663903,-0.41308594,-0.80718994,0.49725342,0.59375,-1.09375,-0.078125
1696250663944,-0.41796875,-0.8010864,0.4882202,-0.390625,-1.875,-0.609375
1696250663983,-0.42016602,-0.79351807,0.47088623,-2.96875,-2.71875,-1.828125
1696250664023,-0.39331055,-0.800354,0.4869995,-1.359375,0.0625,-0.5
1696250664064,-0.4165039,-0.7966919,0.48138428,-2.734375,0.546875,-0.53125
1696250664104,-0.44970703,-0.79400635,0.51190186,0.984375,2.421875,1.109375
1696250664148,-0.43481445,-0.8045044,0.4887085,1.046875,0.859375,2.265625
1696250664184,-0.41503906,-0.78082275,0.48236084,-1.015625,-0.28125,1.4375
1696250664225,-0.38598633,-0.7859497,0.513855,-2.453125,1.0,-0.140625
1696250664265,-0.4008789,-0.81500244,0.50531006,-3.046875,0.109375,-0.421875
1696250664305,-0.42895508,-0.7954712,0.50335693,0.828125,0.734375,0.53125
1696250664344,-0.42089844,-0.7876587,0.5050659,1.03125,-0.578125,0.578125
1696250664385,-0.4189453,-0.79937744,0.49188232,-1.09375,-1.625,0.390625
1696250664424,-0.41357422,-0.80010986,0.4899292,0.015625,-1.0,-0.390625
1696250664464,-0.41357422,-0.80670166,0.5072632,1.9375,0.109375,-0.046875
1696250664506,-0.4025879,-0.80133057,0.5001831,2.03125,0.0625,0.0625
1696250664544,-0.4116211,-0.79815674,0.48773193,1.328125,-0.203125,-0.4375
1696250664585,-0.4169922,-0.79351807,0.4977417,1.078125,-0.890625,0.28125
1696250664624,-0.42138672,-0.8101196,0.47406006,-3.0,-1.296875,0.234375
1696250664664,-0.44726562,-0.79473877,0.48065186,-2.921875,-1.46875,0.09375
1696250664707,-0.42626953,-0.8081665,0.4857788,-1.015625,-1.28125,0.8125
1696250664743,-0.41455078,-0.8154907,0.5253296,-1.03125,-0.953125,0.609375
1696250664786,-0.4152832,-0.80352783,0.5140991,2.625,-1.734375,-0.25
1696250664825,-0.41210938,-0.7769165,0.49334717,-0.59375,-1.40625,-0.734375
1696250664845,-0.39404297,-0.7781372,0.5018921,-1.90625,-0.78125,-0.71875
1696250664885,-0.43164062,-0.80426025,0.5001831,-4.25,-0.640625,-0.703125
1696250664926,-0.42529297,-0.7932739,0.50164795,-1.46875,0.125,0.28125
1696250664964,-0.40576172,-0.78009033,0.51605225,-0.84375,1.0,0.0
1696250665024,-0.41455078,-0.79644775,0.51849365,1.046875,0.984375,0.03125
1696250665043,-0.4255371,-0.79766846,0.4977417,1.09375,-0.1875,-0.265625
1696250665084,-0.42871094,-0.78570557,0.49700928,1.03125,-0.828125,0.015625
1696250665148,-0.4248047,-0.7893677,0.4899292,-0.78125,-1.390625,0.21875
1696250665162,-0.42993164,-0.79888916,0.5084839,-2.046875,-0.75,-0.25
1696250665205,-0.42211914,-0.7996216,0.5165405,-0.265625,-0.4375,0.0625
1696250665244,-0.41455078,-0.78497314,0.5114136,1.296875,-0.390625,0.03125
1696250665284,-0.42163086,-0.7854614,0.5009155,0.671875,0.171875,0.390625
1696250665326,-0.421875,-0.7781372,0.50335693,-0.34375,-0.1875,0.1875
1696250665365,-0.421875,-0.78448486,0.49700928,-2.09375,-1.015625,-0.28125
1696250665406,-0.42504883,-0.7966919,0.51898193,-0.953125,-0.359375,-0.140625
1696250665467,-0.4177246,-0.7893677,0.524353,0.28125,-0.3125,0.15625
1696250665483,-0.43139648,-0.7839966,0.49627686,0.3125,-0.140625,-0.390625
1696250665544,-0.42407227,-0.78619385,0.50286865,-0.03125,-0.078125,-0.203125
1696250665563,-0.43139648,-0.7966919,0.5050659,-1.984375,-0.609375,0.015625
1696250665606,-0.4206543,-0.7925415,0.5126343,-0.90625,-0.234375,0.359375
1696250665664,-0.41259766,-0.7810669,0.5219116,-0.671875,0.03125,-0.40625
1696250665685,-0.42114258,-0.7827759,0.527771,0.015625,-0.109375,-0.078125
1696250665724,-0.4272461,-0.784729,0.5060425,-0.203125,-0.59375,0.390625
1696250665765,-0.4243164,-0.77667236,0.51849365,-0.140625,-0.21875,-0.015625
1696250665803,-0.4230957,-0.78326416,0.51239014,-0.046875,-0.46875,0.15625
1696250665845,-0.4387207,-0.7876587,0.51312256,1.828125,-0.46875,1.484375
1696250665885,-0.42260742,-0.8032837,0.5023804,2.90625,-0.875,2.3125
1696250665926,-0.4169922,-0.7918091,0.5084839,2.59375,-1.1875,1.875
1696250665965,-0.4128418,-0.7925415,0.5026245,2.09375,-0.9375,0.734375
1696250666004,-0.41992188,-0.79107666,0.5060425,1.40625,-0.78125,0.46875
1696250666043,-0.42333984,-0.7942505,0.5018921,0.40625,-0.96875,0.5
1696250666083,-0.41308594,-0.80792236,0.49847412,-0.375,-0.796875,0.0625
1696250666105,-0.40698242,-0.798645,0.49066162,0.1875,-0.359375,-0.234375
1696250666144,-0.41601562,-0.7893677,0.4977417,-0.28125,0.828125,-0.359375
1696250666184,-0.4387207,-0.7991333,0.5038452,-1.6875,-0.359375,0.125
1696250666226,-0.4309082,-0.7998657,0.5101929,-2.578125,-1.578125,-1.0625
1696250666263,-0.40795898,-0.7786255,0.49261475,-1.515625,-0.328125,-0.96875
1696250666304,-0.41967773,-0.7996216,0.49334717,-2.9375,0.265625,-0.6875
1696250666345,-0.42944336,-0.79522705,0.52020264,-2.109375,0.28125,-0.640625
1696250666384,-0.42163086,-0.7769165,0.51312256,-0.0625,0.71875,-0.125
1696250666425,-0.43701172,-0.7744751,0.51068115,-1.125,-0.03125,-0.046875
1696250666464,-0.42895508,-0.78790283,0.5114136,-0.953125,-0.78125,0.359375
1696250666507,-0.40893555,-0.7854614,0.5223999,-2.03125,-0.625,-0.3125
1696250666544,-0.41552734,-0.78448486,0.51434326,-0.765625,0.046875,-0.5625
1696250666584,-0.4326172,-0.7871704,0.51361084,-0.625,-0.46875,-0.453125
1696250666626,-0.43139648,-0.78741455,0.5140991,-0.78125,-0.96875,-0.1875
1696250666664,-0.42797852,-0.78692627,0.51556396,-0.84375,-0.703125,-0.359375
1696250666705,-0.42285156,-0.7798462,0.52264404,-0.484375,-0.3125,0.234375
1696250666744,-0.42700195,-0.77227783,0.5204468,-0.84375,-1.109375,-0.171875
1696250666786,-0.4326172,-0.7822876,0.52679443,-0.296875,-0.75,-0.484375
1696250666824,-0.4248047,-0.7793579,0.52459717,-0.859375,-0.515625,-0.0625
1696250666864,-0.42382812,-0.77667236,0.5216675,-0.640625,-0.578125,-0.125
1696250666903,-0.43115234,-0.76763916,0.51605225,-0.984375,0.296875,-0.484375
1696250666948,-0.43969727,-0.77911377,0.52386475,-0.6875,-0.65625,-0.015625
1696250666985,-0.43115234,-0.77545166,0.5192261,-0.28125,-0.1875,0.3125
1696250667025,-0.43530273,-0.7715454,0.52020264,-0.765625,-0.984375,-0.0625
1696250667064,-0.43481445,-0.77423096,0.52508545,-0.734375,-0.5,-0.0625
1696250667104,-0.43115234,-0.76763916,0.526062,-0.53125,-0.5,0.390625
1696250667145,-0.42944336,-0.7776489,0.5343628,0.265625,0.078125,-0.03125
1696250667184,-0.4321289,-0.7625122,0.5241089,0.109375,-0.140625,0.265625
1696250667227,-0.42700195,-0.7739868,0.5216675,-0.140625,-0.09375,-0.015625
1696250667265,-0.42797852,-0.7744751,0.52142334,-0.15625,-0.3125,0.375
1696250667305,-0.4345703,-0.77838135,0.52923584,-0.765625,-0.5,0.171875
1696250667346,-0.4338379,-0.7781372,0.526062,-1.125,-0.625,-0.03125
1696250667384,-0.4255371,-0.7786255,0.5343628,-0.375,-0.484375,-0.125
1696250667403,-0.43115234,-0.77423096,0.5343628,0.0,-0.34375,0.046875
1696250667444,-0.4362793,-0.770813,0.53533936,0.34375,-0.59375,0.265625
1696250667485,-0.42822266,-0.7698364,0.5302124,0.609375,-0.484375,0.5
1696250667524,-0.43017578,-0.7703247,0.53582764,-0.46875,-0.578125,0.234375
1696250667565,-0.42578125,-0.7695923,0.52630615,0.078125,-0.8125,-0.03125
1696250667605,-0.4326172,-0.7752075,0.52386475,0.125,-0.15625,0.046875
1696250667663,-0.42626953,-0.7737427,0.53045654,0.078125,-0.140625,-0.03125
1696250667682,-0.43115234,-0.77301025,0.53118896,0.203125,-0.21875,0.390625
1696250667725,-0.43432617,-0.7659302,0.5270386,-0.203125,-0.484375,0.328125
1696250667767,-0.4350586,-0.7761841,0.5282593,-0.796875,-0.375,-0.09375
1696250667804,-0.43579102,-0.7715454,0.5350952,-1.125,-0.09375,0.015625
1696250667844,-0.43139648,-0.7737427,0.5348511,-1.03125,-0.421875,0.21875
1696250667886,-0.4362793,-0.76568604,0.5355835,0.21875,-0.171875,0.21875
1696250667924,-0.43310547,-0.77545166,0.5375366,-0.640625,-0.296875,0.03125
1696250667965,-0.4321289,-0.7698364,0.53118896,-1.28125,-0.484375,0.390625
1696250668024,-0.4411621,-0.769104,0.5350952,-0.46875,-0.1875,0.28125
1696250668044,-0.42651367,-0.7720337,0.5492554,-2.484375,0.21875,0.015625
1696250668084,-0.42333984,-0.7595825,0.541687,-1.0,1.71875,0.09375
1696250668126,-0.4284668,-0.7752075,0.5372925,-1.984375,0.578125,0.203125
1696250668164,-0.44213867,-0.7769165,0.5385132,-1.703125,0.375,0.734375
1696250668204,-0.43115234,-0.76568604,0.54901123,-1.59375,-0.125,0.71875
1696250668245,-0.4152832,-0.7542114,0.5548706,-0.796875,0.046875,0.640625
1696250668283,-0.39575195,-0.74884033,0.5751343,0.453125,1.1875,0.625
1696250668325,-0.39819336,-0.7407837,0.5560913,-2.09375,-0.25,-0.625
1696250668364,-0.41992188,-0.73809814,0.5661011,1.015625,-0.1875,-2.109375
1696250668404,-0.44335938,-0.7703247,0.557312,3.765625,0.25,-0.484375
1696250668445,-0.44677734,-0.8008423,0.5441284,1.796875,-0.34375,-0.171875
1696250668485,-0.44677734,-0.7925415,0.508728,3.0,-0.046875,-0.0625
1696250668526,-0.4411621,-0.75860596,0.50164795,0.890625,0.515625,0.65625
1696250668565,-0.44433594,-0.75445557,0.5438843,-2.09375,-0.09375,1.171875
1696250668605,-0.41552734,-0.7686157,0.57196045,-2.125,-1.21875,0.90625
1696250668646,-0.39868164,-0.75860596,0.5775757,-0.59375,-0.5,0.375
1696250668704,-0.41455078,-0.7605591,0.55633545,1.984375,0.46875,1.0
1696250668723,-0.42797852,-0.76104736,0.52752686,1.078125,-0.5,1.15625
1696250668744,-0.43286133,-0.7661743,0.5338745,-0.359375,-0.71875,1.15625
1696250668787,-0.4350586,-0.7703247,0.54559326,0.09375,-0.3125,1.34375
1696250668827,-0.42163086,-0.7683716,0.5536499,0.734375,-0.265625,1.546875
1696250668864,-0.41967773,-0.76885986,0.54730225,0.984375,-0.296875,1.28125
1696250668905,-0.4086914,-0.7654419,0.55267334,1.984375,0.65625,1.234375
1696250668945,-0.41064453,-0.7720337,0.54022217,0.40625,0.953125,1.0
1696250668984,-0.4206543,-0.7678833,0.5453491,0.9375,1.46875,1.421875
1696250669026,-0.41796875,-0.77911377,0.5470581,2.90625,2.140625,1.90625
1696250669066,-0.40551758,-0.77593994,0.527771,4.59375,0.625,1.765625
1696250669104,-0.41186523,-0.77911377,0.5282593,4.84375,0.59375,1.53125
1696250669145,-0.39575195,-0.7827759,0.53045654,4.671875,1.484375,1.609375
1696250669183,-0.39916992,-0.7974243,0.51898193,4.34375,1.4375,1.5625
1696250669225,-0.40820312,-0.79351807,0.5265503,4.515625,0.875,1.296875
1696250669265,-0.4033203,-0.7944946,0.52874756,6.9375,0.671875,2.671875
1696250669305,-0.39746094,-0.80548096,0.49969482,6.296875,0.625,2.078125
1696250669344,-0.39697266,-0.8015747,0.51068115,9.375,0.5,2.921875
1696250669385,-0.3881836,-0.81329346,0.48895264,11.375,-2.328125,2.84375
1696250669426,-0.3696289,-0.82647705,0.48284912,12.953125,-1.140625,1.953125
1696250669465,-0.37280273,-0.8267212,0.45721436,11.796875,-2.765625,3.8125
1696250669504,-0.38549805,-0.83380127,0.43963623,8.515625,-2.53125,1.546875
1696250669546,-0.3713379,-0.8496704,0.42279053,6.78125,-1.328125,0.34375
1696250669585,-0.36035156,-0.85943604,0.37493896,0.84375,-5.984375,1.28125
1696250669627,-0.39624023,-0.8257446,0.44451904,1.15625,-4.046875,-1.3125
1696250669664,-0.36083984,-0.84991455,0.42425537,2.8125,-0.5,0.8125
1696250669705,-0.37426758,-0.83306885,0.39154053,-1.84375,-0.90625,1.25
1696250669746,-0.3959961,-0.83599854,0.41033936,-5.21875,-3.75,0.203125
1696250669787,-0.41210938,-0.8491821,0.43426514,-10.671875,-5.953125,-0.390625
1696250669825,-0.39892578,-0.85943604,0.48284912,-6.359375,-5.953125,-0.03125
1696250669864,-0.37036133,-0.8340454,0.45062256,-2.453125,-2.28125,-0.765625
1696250669904,-0.3708496,-0.8394165,0.43841553,-0.421875,1.671875,0.125
1696250669945,-0.39770508,-0.84576416,0.44622803,-0.765625,1.265625,0.484375
1696250669984,-0.40185547,-0.83258057,0.4533081,2.78125,0.90625,1.1875
1696250670025,-0.38549805,-0.8250122,0.43597412,2.0,0.328125,0.59375
1696250670044,-0.40063477,-0.8413696,0.43548584,-2.0625,-0.390625,0.234375
1696250670085,-0.39282227,-0.8423462,0.46087646,-2.515625,-0.546875,0.15625
1696250670144,-0.3852539,-0.833313,0.4520874,-1.65625,-0.703125,0.390625
1696250670165,-0.37817383,-0.8286743,0.44403076,-0.859375,-0.96875,-0.234375
1696250670205,-0.39819336,-0.83966064,0.44256592,-2.921875,-1.53125,-0.765625
1696250670244,-0.39868164,-0.82940674,0.46307373,-2.421875,-2.328125,-0.40625
1696250670284,-0.39282227,-0.82281494,0.44647217,-0.125,-1.40625,0.234375
1696250670325,-0.39697266,-0.8262329,0.45159912,-1.40625,-1.546875,-0.359375
1696250670364,-0.3918457,-0.82476807,0.46014404,-2.109375,-0.828125,-0.671875
1696250670402,-0.39453125,-0.82232666,0.45892334,-0.609375,0.671875,0.265625
1696250670446,-0.39257812,-0.83721924,0.45721436,0.40625,-0.5625,0.71875
1696250670486,-0.3935547,-0.83477783,0.465271,0.1875,0.296875,0.125
1696250670525,-0.40576172,-0.82940674,0.45599365,-1.375,-0.890625,0.0625
1696250670587,-0.40014648,-0.8308716,0.44744873,-2.015625,-1.453125,-0.15625
1696250670602,-0.39526367,-0.8220825,0.46600342,-2.34375,-2.328125,-1.296875
1696250670665,-0.3930664,-0.8201294,0.48016357,-2.078125,-0.125,-0.5625
1696250670684,-0.39526367,-0.8242798,0.47601318,0.421875,-0.640625,0.546875
1696250670726,-0.40063477,-0.8303833,0.44256592,-0.5625,-2.140625,-0.046875
1696250670766,-0.39672852,-0.82232666,0.4862671,-0.9375,-1.828125,-0.9375
1696250670804,-0.38842773,-0.8167114,0.4623413,-1.28125,-2.40625,-1.1875
1696250670846,-0.39892578,-0.8225708,0.45111084,-2.890625,0.328125,-1.921875
1696250670903,-0.4350586,-0.8323364,0.45355225,-1.984375,-1.734375,-0.984375
1696250670945,-0.41479492,-0.81988525,0.4784546,-1.671875,-1.375,-0.890625
1696250670965,-0.39453125,-0.8049927,0.47991943,-1.390625,-0.375,-0.75
1696250671005,-0.40795898,-0.8040161,0.46697998,-2.015625,0.359375,-0.109375
1696250671046,-0.41186523,-0.8171997,0.4862671,-0.8125,-0.71875,0.1875
1696250671085,-0.40454102,-0.80841064,0.4796753,0.109375,0.421875,0.40625
1696250671126,-0.41259766,-0.8088989,0.4701538,-0.875,0.25,0.34375
1696250671165,-0.41503906,-0.81695557,0.48187256,-1.078125,-0.6875,-0.125
1696250671206,-0.4099121,-0.80792236,0.48529053,-0.796875,-0.125,-0.03125
1696250671245,-0.40820312,-0.803772,0.4784546,-0.328125,-0.28125,0.21875
1696250671286,-0.40673828,-0.8123169,0.48236084,-0.703125,-0.890625,-0.21875
1696250671345,-0.41455078,-0.80792236,0.48846436,-1.0,-0.109375,-0.140625
1696250671365,-0.40722656,-0.7974243,0.4887085,0.09375,-0.71875,0.0
1696250671385,-0.41259766,-0.80841064,0.4857788,-0.09375,-0.640625,0.03125
1696250671425,-0.40771484,-0.8101196,0.480896,-0.390625,-0.515625,-0.6875
1696250671464,-0.41552734,-0.8069458,0.47821045,-1.53125,-0.09375,-0.515625
1696250671503,-0.4230957,-0.8069458,0.4845581,-0.328125,-0.390625,0.140625
1696250671544,-0.4128418,-0.8130493,0.48675537,-0.5625,-0.25,0.109375
1696250671583,-0.40429688,-0.80352783,0.48382568,-1.375,-0.203125,0.09375
1696250671624,-0.41748047,-0.80596924,0.49871826,-1.328125,-0.765625,-0.1875
1696250671665,-0.4128418,-0.8098755,0.48236084,-0.5,-0.609375,-0.421875
1696250671705,-0.40649414,-0.7998657,0.48529053,-0.921875,-0.046875,-0.734375
1696250671745,-0.4182129,-0.7942505,0.49945068,-1.046875,0.28125,-0.390625
1696250671790,-0.42333984,-0.80474854,0.48944092,-1.4375,-0.640625,-0.640625
1696250671824,-0.41918945,-0.79278564,0.49871826,-0.265625,0.0625,-0.21875
1696250671865,-0.40673828,-0.79693604,0.5026245,-0.328125,0.09375,0.171875
1696250671906,-0.41430664,-0.79351807,0.49212646,-0.171875,-0.421875,-0.09375
1696250671945,-0.42456055,-0.8098755,0.4923706,0.015625,-0.171875,-0.140625
1696250671985,-0.421875,-0.7979126,0.4862671,-0.4375,-0.59375,0.0
1696250672024,-0.41479492,-0.800354,0.4928589,-0.296875,-0.71875,-0.25
1696250672068,-0.42504883,-0.8052368,0.4928589,-0.65625,-1.0,-0.390625
1696250672106,-0.41455078,-0.81256104,0.48846436,-0.375,-0.390625,-0.421875
1696250672145,-0.4272461,-0.78375244,0.4953003,-1.484375,-0.375,0.0
1696250672186,-0.41357422,-0.7954712,0.50213623,-1.140625,-0.0625,0.0625
1696250672223,-0.4091797,-0.7896118,0.5075073,0.421875,0.703125,0.5
1696250672268,-0.41625977,-0.79156494,0.496521,0.390625,1.15625,0.5625
1696250672306,-0.42114258,-0.8032837,0.48944092,-0.5,-1.09375,1.03125
1696250672345,-0.41967773,-0.8015747,0.496521,0.03125,-0.65625,0.15625
1696250672385,-0.40625,-0.7966919,0.5060425,0.265625,-0.21875,0.03125
1696250672427,-0.41625977,-0.7971802,0.49676514,0.40625,-0.265625,0.015625
1696250672465,-0.4243164,-0.8010864,0.50286865,0.484375,-0.03125,-0.109375
1696250672504,-0.41796875,-0.7925415,0.49993896,-1.578125,-0.1875,0.140625
1696250672544,-0.40283203,-0.79351807,0.49969482,-1.234375,-0.875,-0.171875
1696250672585,-0.42138672,-0.7942505,0.49920654,-0.296875,-1.140625,-0.21875
1696250672646,-0.4206543,-0.79815674,0.5158081,0.3125,-0.96875,-0.125
1696250672665,-0.4177246,-0.7984009,0.5055542,0.484375,-0.046875,-0.25
1696250672686,-0.4260254,-0.7974243,0.50164795,0.40625,-0.359375,0.046875
1696250672725,-0.40844727,-0.7937622,0.49261475,-0.515625,-0.1875,-0.234375
1696250672765,-0.42163086,-0.79522705,0.49139404,-2.140625,-0.078125,-0.1875
1696250672825,-0.4177246,-0.7996216,0.50994873,-1.328125,-0.96875,0.328125
1696250672843,-0.42358398,-0.7962036,0.51898193,0.03125,-0.296875,0.109375
1696250672908,-0.41552734,-0.7822876,0.5036011,0.234375,-0.453125,-0.359375
1696250672926,-0.42260742,-0.78131104,0.5092163,-0.484375,-0.484375,-0.21875
1696250672985,-0.42138672,-0.80010986,0.50653076,-0.3125,-0.359375,0.296875
1696250673003,-0.42333984,-0.7918091,0.49139404,-0.84375,-1.0,-0.296875
1696250673045,-0.42797852,-0.7959595,0.5153198,-0.09375,-0.40625,0.09375
1696250673086,-0.41748047,-0.7883911,0.5062866,-1.0625,-0.546875,0.15625
1696250673145,-0.42236328,-0.7896118,0.50897217,-0.453125,-0.4375,-0.1875
1696250673163,-0.41967773,-0.7913208,0.5067749,-0.09375,-0.390625,0.03125
1696250673205,-0.41796875,-0.7954712,0.5079956,-1.1875,-0.5625,0.109375
1696250673244,-0.41796875,-0.7944946,0.51605225,-0.140625,-0.375,-0.046875
1696250673284,-0.41992188,-0.7966919,0.50823975,0.234375,-0.671875,0.3125
1696250673325,-0.4260254,-0.77960205,0.5075073,-0.03125,-0.203125,0.03125
1696250673364,-0.42407227,-0.79034424,0.49847412,-0.34375,0.015625,0.140625
1696250673405,-0.4230957,-0.7974243,0.49847412,-1.140625,-0.40625,0.375
1696250673446,-0.42578125,-0.78326416,0.5116577,-0.78125,-0.703125,0.25
1696250673485,-0.40844727,-0.78863525,0.51556396,-0.875,-0.421875,0.0625
1696250673525,-0.4177246,-0.7671509,0.5126343,-0.6875,0.078125,-0.25
1696250673564,-0.43066406,-0.7839966,0.512146,-0.765625,-0.59375,-0.03125
1696250673603,-0.4230957,-0.80352783,0.50823975,-0.671875,-0.734375,0.4375
1696250673644,-0.42700195,-0.7962036,0.510437,-0.59375,-1.078125,0.1875
1696250673683,-0.42578125,-0.7781372,0.5194702,-1.21875,-1.671875,-0.65625
1696250673726,-0.4169922,-0.7822876,0.5228882,-0.515625,-0.640625,-0.125
1696250673765,-0.40673828,-0.77667236,0.52679443,0.25,-0.484375,-0.75
1696250673827,-0.4440918,-0.7896118,0.50946045,0.625,0.125,0.203125
1696250673845,-0.4362793,-0.78375244,0.513855,0.21875,-0.625,0.203125
1696250673886,-0.4152832,-0.7774048,0.51776123,-1.4375,-0.5625,-0.015625
1696250673927,-0.42285156,-0.7798462,0.5165405,0.171875,-0.34375,-0.15625
1696250673966,-0.43066406,-0.7908325,0.52215576,0.890625,-0.71875,0.53125
1696250673983,-0.4243164,-0.7822876,0.50994873,-0.65625,-0.703125,0.09375
1696250674025,-0.42700195,-0.7793579,0.512146,-1.59375,-0.65625,-0.625
1696250674064,-0.42895508,-0.7827759,0.5219116,-1.25,0.453125,-0.296875
1696250674105,-0.41723633,-0.78692627,0.52557373,-1.109375,0.0625,0.125
1696250674144,-0.43579102,-0.7715454,0.5206909,0.28125,-0.203125,0.078125
1696250674186,-0.43017578,-0.7671509,0.51849365,-0.5625,-0.21875,0.4375
1696250674226,-0.42626953,-0.78253174,0.51898193,-1.328125,-0.640625,0.21875
1696250674264,-0.42407227,-0.77789307,0.53533936,1.15625,0.609375,0.3125
1696250674305,-0.42016602,-0.7703247,0.51849365,1.359375,-0.890625,1.421875
1696250674345,-0.4260254,-0.77789307,0.52630615,1.875,-0.859375,0.796875
1696250674385,-0.42895508,-0.7942505,0.5270386,2.671875,-0.578125,0.25
1696250674425,-0.42211914,-0.79278564,0.50213623,1.46875,-0.828125,0.65625
1696250674464,-0.42919922,-0.77911377,0.48675537,-0.484375,-0.609375,0.8125
1696250674504,-0.44848633,-0.7854614,0.5170288,-2.875,-0.578125,-0.0625
1696250674545,-0.41088867,-0.78375244,0.5258179,-3.1875,-0.4375,0.203125
1696250674585,-0.40795898,-0.7727661,0.52337646,-0.6875,0.390625,0.421875
1696250674626,-0.41967773,-0.76812744,0.5282593,0.5625,-0.34375,-0.09375
1696250674666,-0.41967773,-0.78912354,0.51898193,-0.46875,-0.40625,0.171875
1696250674703,-0.42285156,-0.77911377,0.50994873,-0.890625,-0.390625,0.109375
1696250674744,-0.42822266,-0.7871704,0.524353,-0.53125,0.265625,-0.640625
1696250674785,-0.4309082,-0.77008057,0.53045654,-0.9375,-0.078125,-0.90625
1696250674826,-0.4321289,-0.77471924,0.5162964,-1.328125,-0.359375,0.09375
1696250674864,-0.42919922,-0.7805786,0.52508545,-1.5625,-0.90625,0.0625
1696250674907,-0.4194336,-0.7683716,0.5360718,-0.71875,0.03125,0.15625
1696250674944,-0.42895508,-0.78204346,0.51727295,-0.203125,0.078125,0.15625
1696250674987,-0.43579102,-0.7749634,0.5241089,-0.515625,-0.328125,0.203125
1696250675024,-0.43139648,-0.77911377,0.5241089,-0.609375,-0.5,0.234375
1696250675065,-0.42797852,-0.77593994,0.53045654,-0.859375,-0.890625,-0.171875
1696250675104,-0.4230957,-0.7732544,0.539978,-0.9375,-0.640625,-0.1875
1696250675145,-0.42578125,-0.7649536,0.5387573,-0.078125,-0.796875,-0.25
1696250675186,-0.42529297,-0.770813,0.53460693,0.609375,-0.625,0.046875
1696250675226,-0.4272461,-0.7727661,0.52923584,-0.515625,-0.125,0.015625
1696250675287,-0.42407227,-0.767395,0.5285034,-0.078125,-0.09375,0.265625
1696250675294,-0.42626953,-0.7703247,0.5216675,-0.984375,-0.15625,0.046875
1696250675345,-0.43359375,-0.7776489,0.5302124,-1.421875,-0.171875,-0.046875
1696250675363,-0.42578125,-0.7703247,0.53948975,-1.296875,-0.625,0.109375
1696250675404,-0.42944336,-0.76397705,0.5309448,-1.484375,-1.265625,0.109375
1696250675444,-0.42749023,-0.75787354,0.5414429,-1.28125,-0.265625,0.359375
1696250675484,-0.42333984,-0.7727661,0.55584717,-0.875,-0.15625,0.703125
1696250675526,-0.42529297,-0.7764282,0.55218506,-0.0625,-0.34375,0.9375
1696250675565,-0.4345703,-0.7695923,0.53289795,0.15625,-0.28125,0.671875
1696250675606,-0.42260742,-0.7671509,0.53533936,0.265625,-0.140625,1.0625
1696250675665,-0.4230957,-0.7720337,0.53656006,0.375,-1.5,0.8125
1696250675684,-0.4260254,-0.77349854,0.5446167,0.21875,-0.71875,-0.203125
1696250675745,-0.4296875,-0.7737427,0.5404663,0.5625,-0.09375,0.484375
1696250675764,-0.43164062,-0.7695923,0.54730225,1.140625,-0.3125,1.078125
1696250675828,-0.41918945,-0.7732544,0.52801514,0.78125,-0.90625,0.859375
1696250675844,-0.42016602,-0.770813,0.53338623,0.109375,-0.578125,0.453125
1696250675907,-0.4206543,-0.77056885,0.53289795,1.484375,0.015625,0.484375
1696250675924,-0.43188477,-0.7788696,0.52508545,1.15625,0.0625,0.390625
1696250675965,-0.43115234,-0.78082275,0.53582764,0.5625,-0.625,0.859375
1696250676024,-0.42089844,-0.767395,0.5272827,0.359375,-0.296875,0.53125
1696250676044,-0.42163086,-0.7715454,0.5319214,0.578125,-0.453125,0.296875
1696250676084,-0.42333984,-0.77716064,0.5321655,0.640625,-0.171875,0.828125
1696250676126,-0.4140625,-0.7774048,0.53240967,0.90625,0.0625,0.84375
1696250676164,-0.42456055,-0.78009033,0.52752686,1.671875,0.078125,0.96875
1696250676206,-0.41308594,-0.7827759,0.524353,1.21875,-0.03125,0.65625
1696250676245,-0.42163086,-0.7739868,0.52923584,0.421875,0.4375,0.578125
1696250676285,-0.41625977,-0.7815552,0.52386475,0.484375,0.140625,0.21875
1696250676324,-0.41552734,-0.7793579,0.52801514,0.21875,0.21875,0.171875
1696250676365,-0.41625977,-0.7883911,0.524353,1.0625,0.84375,0.390625
1696250676406,-0.42773438,-0.77838135,0.53045654,2.8125,0.65625,0.71875
1696250676467,-0.40771484,-0.7937622,0.52679443,4.75,1.0625,1.25
1696250676484,-0.4091797,-0.79278564,0.5109253,2.390625,1.875,0.953125
1696250676547,-0.40405273,-0.786438,0.5219116,4.640625,2.046875,1.265625
1696250676565,-0.41064453,-0.80059814,0.5192261,5.796875,1.875,1.96875
1696250676583,-0.3955078,-0.8074341,0.49212646,6.40625,2.015625,2.21875
1696250676625,-0.40185547,-0.7996216,0.48016357,5.984375,-0.4375,2.15625
1696250676665,-0.4013672,-0.8093872,0.5101929,5.953125,-0.53125,1.5625
1696250676705,-0.39379883,-0.80914307,0.4940796,4.28125,0.65625,1.78125
1696250676744,-0.39282227,-0.8115845,0.4887085,5.875,1.078125,1.96875
1696250676782,-0.39892578,-0.83843994,0.47601318,10.0625,-0.25,2.3125
1696250676828,-0.3955078,-0.8323364,0.44476318,9.671875,-3.59375,2.65625
1696250676864,-0.36450195,-0.84552,0.43572998,13.625,-4.375,4.5625
1696250676906,-0.34326172,-0.85113525,0.4147339,9.453125,0.5,1.890625
1696250676945,-0.39770508,-0.8274536,0.41986084,4.53125,-1.6875,1.078125
1696250676984,-0.38427734,-0.8491821,0.4274292,2.984375,-0.84375,0.328125
1696250677025,-0.37597656,-0.84991455,0.40374756,-0.40625,-0.03125,0.15625
1696250677064,-0.35083008,-0.8340454,0.4093628,-1.6875,-0.984375,-1.296875
1696250677106,-0.37939453,-0.8464966,0.4310913,-0.671875,-0.21875,0.359375
1696250677144,-0.39990234,-0.85772705,0.41644287,-3.765625,-3.828125,1.296875
1696250677185,-0.40820312,-0.85601807,0.42156982,-7.78125,-6.53125,-0.953125
1696250677226,-0.40454102,-0.84039307,0.4418335,-7.328125,-8.015625,-1.890625
1696250677266,-0.3635254,-0.8411255,0.44696045,-4.234375,-3.390625,-2.0
1696250677305,-0.37426758,-0.84088135,0.432312,-4.421875,0.6875,-1.359375
1696250677347,-0.4260254,-0.84332275,0.43328857,0.296875,0.609375,1.515625
1696250677383,-0.39624023,-0.82037354,0.44744873,1.046875,-0.828125,0.84375
1696250677425,-0.3894043,-0.817688,0.4491577,-0.6875,-0.1875,-0.0625
1696250677464,-0.39624023,-0.8308716,0.43865967,-2.59375,-2.296875,-0.109375
1696250677505,-0.39453125,-0.84454346,0.45062256,-0.875,-0.234375,0.40625
1696250677545,-0.40551758,-0.83599854,0.44158936,-0.234375,-0.53125,0.359375
1696250677585,-0.3881836,-0.835022,0.43377686,0.265625,0.265625,0.125
1696250677626,-0.39770508,-0.8328247,0.44403076,0.078125,-0.984375,0.1875
1696250677664,-0.39648438,-0.8272095,0.447937,-1.21875,-0.640625,-0.046875
1696250677704,-0.40283203,-0.833313,0.44207764,-1.28125,-0.921875,0.0
1696250677745,-0.38964844,-0.8369751,0.43963623,-0.75,-1.625,-0.609375
1696250677785,-0.39941406,-0.8345337,0.44769287,-3.53125,-1.234375,-1.984375
1696250677825,-0.4140625,-0.8206177,0.45794678,-2.265625,-0.796875,-0.5
1696250677864,-0.4050293,-0.8250122,0.4623413,0.296875,-0.765625,0.5625
1696250677904,-0.39746094,-0.8220825,0.447937,-0.96875,-0.25,0.109375
1696250677924,-0.40795898,-0.82403564,0.4586792,-2.125,-0.40625,-0.46875
1696250677966,-0.40844727,-0.82525635,0.4713745,-0.484375,-0.765625,0.46875
1696250678005,-0.39282227,-0.8208618,0.45184326,-0.671875,0.3125,0.03125
1696250678045,-0.40112305,-0.8250122,0.44940186,0.0,0.046875,-0.34375
1696250678106,-0.4116211,-0.829895,0.45770264,-0.59375,-0.75,-0.015625
1696250678124,-0.4104004,-0.8189087,0.4689331,-1.328125,-0.046875,0.015625
1696250678167,-0.41015625,-0.81451416,0.4623413,-0.25,-0.3125,0.4375
1696250678204,-0.40283203,-0.829895,0.46185303,-1.265625,-0.484375,0.546875
1696250678246,-0.40063477,-0.81988525,0.46990967,-1.1875,-1.484375,-0.40625
1696250678307,-0.38891602,-0.817688,0.46966553,0.125,0.125,-1.015625
1696250678325,-0.41333008,-0.8237915,0.4628296,0.265625,0.609375,0.15625
1696250678365,-0.40893555,-0.81427,0.46063232,0.203125,0.109375,0.265625
1696250678404,-0.41064453,-0.81744385,0.449646,-1.296875,0.09375,-0.265625
1696250678444,-0.4152832,-0.81622314,0.46795654,-2.015625,-1.09375,0.234375
1696250678486,-0.40429688,-0.8237915,0.47698975,-1.484375,-0.359375,-0.078125
1696250678525,-0.40307617,-0.8201294,0.46966553,0.484375,0.109375,-0.078125
1696250678586,-0.40551758,-0.81573486,0.46502686,-0.484375,-0.703125,0.234375
1696250678604,-0.41088867,-0.8196411,0.46990967,-0.59375,-0.71875,0.015625
1696250678666,-0.4033203,-0.81817627,0.4706421,-0.203125,-0.703125,0.109375
1696250678686,-0.4111328,-0.81573486,0.4694214,-1.140625,-0.9375,-0.4375
1696250678747,-0.41479492,-0.81866455,0.4598999,-0.734375,-1.234375,-0.09375
1696250678762,-0.40820312,-0.81378174,0.47576904,-0.84375,-0.859375,-1.171875
1696250678826,-0.4020996,-0.815979,0.47357178,0.28125,-0.34375,0.078125
1696250678843,-0.4086914,-0.80010986,0.4779663,-0.53125,-0.203125,-0.078125
1696250678885,-0.41625977,-0.82159424,0.4725952,0.296875,-0.53125,-0.234375
1696250678925,-0.4050293,-0.81817627,0.4640503,-0.4375,-1.015625,0.015625
1696250678966,-0.4177246,-0.80596924,0.47625732,-1.015625,-0.25,-0.21875
1696250679006,-0.40649414,-0.81378174,0.47088623,-0.0625,-0.25,0.40625
1696250679046,-0.41088867,-0.81988525,0.479187,-1.34375,-0.40625,0.15625
1696250679088,-0.41308594,-0.81036377,0.47650146,0.234375,0.265625,-0.171875
1696250679127,-0.4165039,-0.81329346,0.46502686,-0.046875,-0.4375,0.28125
1696250679166,-0.4152832,-0.8064575,0.47161865,0.015625,-0.59375,-0.421875
1696250679206,-0.41577148,-0.8130493,0.4713745,-2.03125,-0.375,-0.609375
1696250679224,-0.42089844,-0.81378174,0.4845581,-1.625,-1.203125,-0.5
1696250679265,-0.42138672,-0.8049927,0.4845581,-0.09375,-0.328125,-0.328125
1696250679305,-0.42773438,-0.8032837,0.47698975,-0.75,-0.578125,-0.09375
1696250679345,-0.4104004,-0.8076782,0.47235107,-1.1875,-0.703125,0.125
1696250679384,-0.41015625,-0.8040161,0.48114014,-1.53125,-0.890625,-0.046875
1696250679424,-0.41381836,-0.8023071,0.48406982,-0.84375,-1.265625,-0.421875
1696250679466,-0.4169922,-0.8049927,0.48431396,-0.96875,-2.046875,-0.796875
1696250679505,-0.42822266,-0.81134033,0.48236084,-1.59375,-1.8125,-0.9375
1696250679545,-0.42236328,-0.7949829,0.48773193,-1.328125,-0.765625,-0.90625
1696250679585,-0.42407227,-0.7979126,0.48431396,-0.3125,0.171875,-0.15625
1696250679624,-0.43066406,-0.79522705,0.48406982,-0.671875,0.015625,0.421875
1696250679667,-0.42114258,-0.800354,0.49505615,-1.5625,0.578125,0.65625
1696250679705,-0.4111328,-0.79400635,0.48773193,0.796875,0.78125,0.96875
1696250679745,-0.40942383,-0.7920532,0.49432373,2.375,1.25,0.890625
1696250679785,-0.41918945,-0.80792236,0.48944092,1.71875,0.046875,1.765625
1696250679824,-0.43579102,-0.80792236,0.48675537,0.375,-0.8125,0.140625
1696250679864,-0.4248047,-0.81134033,0.47601318,-0.15625,-1.078125,0.140625
1696250679905,-0.4111328,-0.7925415,0.4845581,-1.4375,-0.3125,-0.09375
1696250679944,-0.4230957,-0.81207275,0.49188232,0.15625,-0.78125,0.328125
1696250679988,-0.4099121,-0.8076782,0.48138428,-0.3125,-0.546875,-0.046875
1696250680024,-0.42260742,-0.8015747,0.4821167,-1.234375,0.046875,0.03125
1696250680067,-0.41186523,-0.80670166,0.4960327,-0.828125,-0.5,0.078125
1696250680103,-0.4128418,-0.798645,0.49505615,-0.421875,-0.53125,-0.34375
1696250680144,-0.42382812,-0.7979126,0.48309326,-1.296875,-0.859375,-0.421875
1696250680186,-0.41992188,-0.8040161,0.48895264,-1.15625,-0.484375,0.078125
1696250680224,-0.42163086,-0.8135376,0.49627686,-0.75,-0.484375,-0.125
1696250680265,-0.41967773,-0.7962036,0.48480225,-0.40625,-0.421875,-0.296875
1696250680306,-0.42260742,-0.7984009,0.49139404,-1.0,0.0,-0.078125
1696250680345,-0.42138672,-0.7998657,0.49261475,-1.515625,-0.75,0.0
1696250680386,-0.4169922,-0.7944946,0.49163818,0.0,-0.265625,-0.109375
1696250680426,-0.41748047,-0.7944946,0.49505615,0.1875,-0.265625,0.65625
1696250680465,-0.42211914,-0.8064575,0.4977417,-0.921875,-0.84375,-0.171875
1696250680527,-0.41357422,-0.803772,0.4935913,-0.515625,-0.21875,-0.171875
1696250680542,-0.41577148,-0.79156494,0.496521,-0.09375,-0.703125,0.0625
1696250680565,-0.43017578,-0.798645,0.49945068,-0.1875,-0.5,-0.0625
1696250680605,-0.4206543,-0.7984009,0.5006714,-0.21875,-0.234375,0.234375
1696250680644,-0.42211914,-0.79473877,0.480896,-0.484375,-0.171875,0.78125
1696250680686,-0.42358398,-0.7932739,0.50531006,-0.5625,-0.390625,0.09375
1696250680724,-0.41430664,-0.8076782,0.50775146,-0.46875,-0.1875,-0.5
1696250680766,-0.41503906,-0.7871704,0.4928589,0.203125,-0.484375,-0.328125
1696250680806,-0.4177246,-0.79351807,0.4713745,-0.1875,-0.484375,-0.609375
1696250680843,-0.4284668,-0.78497314,0.5109253,1.375,-0.78125,0.28125
1696250680885,-0.40722656,-0.8027954,0.5055542,-0.0625,-0.921875,0.671875
1696250680926,-0.4230957,-0.79888916,0.49627686,-0.5,0.5,-0.765625
1696250680966,-0.44335938,-0.8184204,0.48919678,0.3125,0.34375,0.40625
1696250681028,-0.4321289,-0.79351807,0.49066162,-3.3125,-1.4375,-0.546875
1696250681065,-0.40356445,-0.786438,0.50946045,-2.234375,-1.0,-0.6875
1696250681104,-0.4189453,-0.77349854,0.50701904,-3.296875,-0.375,-0.953125
1696250681122,-0.44311523,-0.7930298,0.50946045,-1.90625,0.21875,-0.40625
1696250681184,-0.42944336,-0.788147,0.51239014,-0.140625,-0.703125,0.03125
1696250681205,-0.43359375,-0.7835083,0.50823975,-0.40625,0.0625,0.34375
1696250681246,-0.42382812,-0.78912354,0.50775146,0.359375,0.03125,0.296875
1696250681286,-0.41992188,-0.7822876,0.5158081,-1.125,-1.0625,0.171875
1696250681325,-0.4338379,-0.7876587,0.5116577,0.53125,-0.359375,-0.171875
1696250681366,-0.4362793,-0.78570557,0.50531006,0.65625,-0.421875,0.71875
1696250681407,-0.42041016,-0.79034424,0.5038452,-0.328125,-0.5,0.6875
1696250681444,-0.42700195,-0.7913208,0.5072632,-0.203125,0.03125,0.421875
1696250681487,-0.42749023,-0.78863525,0.50946045,-0.53125,-0.09375,-0.15625
1696250681526,-0.43286133,-0.7776489,0.5153198,-1.625,-0.578125,-0.265625
1696250681566,-0.4177246,-0.78692627,0.5097046,-0.296875,0.109375,0.046875
1696250681604,-0.41967773,-0.79400635,0.5128784,-0.65625,0.328125,0.140625
1696250681644,-0.43017578,-0.77471924,0.52215576,-0.1875,0.546875,-0.015625
1696250681685,-0.42504883,-0.7842407,0.50579834,-1.28125,0.015625,0.921875
1696250681725,-0.42041016,-0.7810669,0.5150757,-1.09375,-0.9375,0.828125
1696250681765,-0.42822266,-0.7896118,0.52801514,0.0625,-0.859375,0.421875
1696250681845,-0.42871094,-0.788147,0.51361084,-1.75,-0.109375,0.078125
1696250681848,-0.41601562,-0.7786255,0.5150757,-0.453125,-0.28125,0.171875
1696250681864,-0.42163086,-0.7805786,0.52142334,0.265625,0.53125,-0.328125
1696250681904,-0.43286133,-0.7913208,0.51556396,-1.015625,0.296875,0.15625
1696250681947,-0.421875,-0.7798462,0.5219116,-1.390625,-0.453125,0.203125
1696250681985,-0.4116211,-0.7727661,0.52679443,-1.25,-0.765625,0.28125
1696250682026,-0.42651367,-0.77911377,0.52142334,-0.359375,-0.40625,0.078125
1696250682069,-0.43188477,-0.7744751,0.52801514,-0.296875,-0.234375,-0.09375
1696250682105,-0.4206543,-0.77471924,0.5248413,-0.78125,-0.390625,0.140625
1696250682144,-0.4260254,-0.7805786,0.5175171,-0.234375,0.3125,0.15625
1696250682186,-0.43164062,-0.772522,0.5248413,0.21875,-0.078125,0.125
1696250682226,-0.42578125,-0.7769165,0.52752686,1.453125,-1.015625,0.59375
1696250682264,-0.41577148,-0.78741455,0.5216675,0.25,-1.0625,-0.265625
1696250682305,-0.4194336,-0.78131104,0.52557373,-0.359375,0.359375,-0.578125
1696250682344,-0.43603516,-0.7720337,0.5145874,-1.140625,-0.34375,-0.015625
1696250682386,-0.4206543,-0.7805786,0.53460693,-0.078125,-0.03125,0.015625
1696250682426,-0.4074707,-0.7781372,0.524353,-1.109375,0.625,-0.015625
1696250682465,-0.43432617,-0.7756958,0.524353,-1.078125,0.40625,-0.21875
1696250682504,-0.4326172,-0.7764282,0.5321655,-0.21875,0.71875,0.34375
1696250682544,-0.42651367,-0.76568604,0.5441284,2.171875,0.9375,1.609375
1696250682586,-0.42626953,-0.7835083,0.5289917,1.625,0.71875,2.75
1696250682625,-0.42260742,-0.78009033,0.5336304,0.9375,0.28125,1.140625
1696250682665,-0.4177246,-0.78692627,0.5187378,3.546875,1.34375,1.78125
1696250682706,-0.41015625,-0.786438,0.5079956,2.40625,-0.328125,1.53125
1696250682745,-0.41796875,-0.79278564,0.5145874,1.515625,-0.125,0.53125
1696250682785,-0.4182129,-0.7842407,0.5204468,0.515625,0.1875,0.75
1696250682825,-0.41333008,-0.7835083,0.5162964,-0.53125,0.53125,0.984375
1696250682864,-0.41064453,-0.7901001,0.51727295,0.125,-0.109375,1.046875
1696250682906,-0.39990234,-0.79278564,0.51776123,0.515625,-0.0625,0.890625
1696250682945,-0.38891602,-0.78741455,0.5258179,1.84375,0.203125,0.65625
1696250682984,-0.40722656,-0.79351807,0.5067749,0.828125,0.1875,0.484375
1696250683024,-0.4038086,-0.7954712,0.51849365,0.46875,0.0,0.546875
1696250683064,-0.40722656,-0.79229736,0.52679443,-0.125,0.75,0.140625
1696250683104,-0.40234375,-0.78790283,0.52996826,1.03125,1.78125,0.671875
1696250683143,-0.4008789,-0.7908325,0.5187378,0.859375,1.5625,0.875
1696250683186,-0.4074707,-0.7962036,0.48773193,-2.390625,-0.640625,-0.140625
1696250683206,-0.40625,-0.78570557,0.51971436,-1.65625,-0.8125,-0.203125
1696250683245,-0.39453125,-0.7876587,0.52874756,0.84375,-0.015625,0.984375
1696250683307,-0.39990234,-0.78692627,0.5192261,0.0,0.484375,0.875
1696250683323,-0.3972168,-0.79571533,0.51971436,-0.875,-0.5,0.59375
1696250683386,-0.38891602,-0.7918091,0.5289917,-0.609375,-0.921875,0.125
1696250683403,-0.39990234,-0.7918091,0.5231323,0.71875,-0.15625,-0.078125
1696250683445,-0.39916992,-0.798645,0.5219116,0.296875,-0.484375,0.28125
1696250683488,-0.4038086,-0.7998657,0.5199585,-0.140625,-0.484375,0.375
1696250683526,-0.40112305,-0.7966919,0.51361084,-0.6875,-0.46875,0.140625
1696250683565,-0.40112305,-0.7913208,0.52874756,0.125,-0.25,0.375
1696250683606,-0.39648438,-0.7942505,0.53118896,0.421875,-0.515625,0.25
1696250683646,-0.39501953,-0.7852173,0.5231323,-0.859375,0.078125,-0.421875
1696250683705,-0.3984375,-0.78985596,0.5272827,0.046875,-0.1875,0.203125
1696250683725,-0.40600586,-0.7979126,0.5228882,-1.6875,-0.65625,0.359375
1696250683786,-0.39575195,-0.79229736,0.5258179,-1.359375,-0.5,-0.328125
1696250683804,-0.39233398,-0.7842407,0.5319214,0.921875,0.359375,-0.171875
1696250683846,-0.40185547,-0.786438,0.52459717,1.859375,0.21875,0.359375
1696250683891,-0.41137695,-0.7966919,0.5231323,1.984375,-0.234375,1.109375
1696250683924,-0.39233398,-0.78985596,0.52459717,2.171875,-0.390625,0.890625
1696250683965,-0.38330078,-0.7925415,0.5216675,3.265625,0.921875,0.984375
1696250684029,-0.4025879,-0.79400635,0.5162964,3.84375,0.234375,1.078125
1696250684043,-0.40942383,-0.8130493,0.5101929,4.734375,-0.09375,1.59375
1696250684085,-0.3955078,-0.80303955,0.50286865,5.203125,-0.015625,1.453125
1696250684125,-0.39135742,-0.8027954,0.49432373,3.65625,-0.546875,1.28125
1696250684164,-0.39819336,-0.8152466,0.496521,5.625,-0.90625,2.140625
1696250684205,-0.38305664,-0.8164673,0.4857788,5.796875,-0.734375,1.171875
1696250684247,-0.390625,-0.82525635,0.46990967,4.671875,-1.34375,1.5625
1696250684286,-0.3815918,-0.81817627,0.4899292,6.28125,-1.640625,0.578125
1696250684325,-0.37890625,-0.83062744,0.4508667,8.28125,-1.78125,1.359375
1696250684363,-0.39868164,-0.83013916,0.44647217,6.578125,-2.453125,1.859375
1696250684406,-0.37646484,-0.8401489,0.4303589,2.078125,-3.640625,0.359375
1696250684464,-0.37890625,-0.82403564,0.4401245,3.65625,-1.640625,-2.125
1696250684506,-0.35498047,-0.82818604,0.44647217,1.9375,-1.484375,0.46875
1696250684509,-0.3762207,-0.8225708,0.40472412,-0.703125,0.015625,0.109375
1696250684545,-0.41674805,-0.84747314,0.43255615,-0.34375,-1.890625,1.65625
1696250684583,-0.42211914,-0.8374634,0.45062256,-4.9375,-5.96875,1.375
1696250684623,-0.39331055,-0.85162354,0.47991943,-4.40625,-6.8125,-1.03125
1696250684662,-0.36083984,-0.8464966,0.45013428,-2.5,-2.765625,-2.3125
1696250684706,-0.37353516,-0.80426025,0.44647217,-0.96875,0.390625,-0.625
1696250684745,-0.43725586,-0.83917236,0.4328003,-2.640625,-0.703125,0.375
1696250684784,-0.43017578,-0.86602783,0.4628296,-0.234375,-2.125,1.140625
1696250684824,-0.39941406,-0.8189087,0.44647217,-0.078125,-2.21875,-0.84375
1696250684863,-0.3696289,-0.80303955,0.4352417,-0.984375,-0.53125,-0.3125
1696250684907,-0.37548828,-0.7974243,0.4442749,-3.796875,2.03125,-2.1875
1696250684945,-0.44311523,-0.8477173,0.49432373,1.28125,1.78125,2.421875
1696250684985,-0.45214844,-0.8814087,0.46868896,3.578125,-2.1875,2.953125
1696250685025,-0.3762207,-0.7893677,0.46307373,6.15625,1.96875,0.140625
1696250685065,-0.33447266,-0.8098755,0.4171753,1.875,0.578125,2.484375
1696250685106,-0.40429688,-0.8364868,0.43182373,-3.234375,-1.375,-0.1875
1696250685148,-0.42041016,-0.8652954,0.43963623,0.40625,0.71875,-0.59375
1696250685183,-0.39770508,-0.84088135,0.4454956,-1.6875,0.03125,0.140625
1696250685225,-0.39404297,-0.82647705,0.4562378,-0.921875,0.234375,-0.40625
1696250685264,-0.39404297,-0.83062744,0.46575928,0.03125,-0.5,0.109375
1696250685306,-0.3857422,-0.8286743,0.4442749,-0.375,-0.9375,0.90625
1696250685345,-0.40039062,-0.82110596,0.4381714,-0.5,-0.296875,-0.28125
1696250685385,-0.39990234,-0.8340454,0.45648193,-1.546875,-0.796875,-0.234375
1696250685427,-0.39111328,-0.8340454,0.447937,-0.640625,-1.3125,-0.03125
1696250685465,-0.39257812,-0.83013916,0.4459839,0.671875,-1.625,-0.71875
1696250685506,-0.40307617,-0.83258057,0.449646,0.296875,-1.359375,-0.1875
1696250685546,-0.39892578,-0.83184814,0.45257568,-1.59375,-1.0625,-0.171875
1696250685585,-0.39038086,-0.8274536,0.43548584,-1.859375,-2.640625,-0.75
1696250685625,-0.37548828,-0.8206177,0.4574585,-1.734375,-0.5625,-2.328125
1696250685665,-0.40429688,-0.833313,0.4713745,1.5,1.515625,1.984375
1696250685706,-0.41723633,-0.8357544,0.45355225,-2.265625,-0.984375,0.28125
1696250685765,-0.39526367,-0.8064575,0.45770264,1.1875,0.171875,-1.890625
1696250685785,-0.39404297,-0.8274536,0.4616089,-1.328125,-1.125,0.0625
1696250685804,-0.4309082,-0.84747314,0.4640503,-1.578125,-1.109375,-0.328125
1696250685848,-0.40454102,-0.82891846,0.45355225,1.71875,-0.546875,-0.109375
1696250685885,-0.39160156,-0.80474854,0.4533081,-1.421875,-2.21875,0.109375
1696250685925,-0.40649414,-0.8164673,0.45819092,-1.53125,-0.46875,-0.28125
1696250685965,-0.40600586,-0.82525635,0.4689331,0.078125,-1.53125,-0.5
1696250686004,-0.40161133,-0.81134033,0.45037842,0.78125,-0.96875,0.90625
1696250686045,-0.4128418,-0.8213501,0.45404053,1.984375,-0.28125,0.984375
1696250686085,-0.40185547,-0.84991455,0.45477295,2.25,0.515625,0.5
1696250686146,-0.39672852,-0.8218384,0.44818115,0.0625,0.078125,-0.4375
1696250686164,-0.40673828,-0.8303833,0.44281006,0.34375,-0.515625,-0.3125
1696250686228,-0.40600586,-0.8303833,0.45648193,-0.03125,-0.34375,0.328125
1696250686246,-0.40722656,-0.82354736,0.447937,-1.03125,0.296875,-0.453125
1696250686308,-0.41088867,-0.82598877,0.4467163,-0.890625,0.109375,0.0625
1696250686323,-0.39501953,-0.8225708,0.46795654,-1.296875,-0.515625,0.015625
1696250686367,-0.4086914,-0.8201294,0.45916748,-0.28125,-0.0625,-0.546875
1696250686406,-0.41308594,-0.8291626,0.449646,-0.03125,-0.078125,0.203125
1696250686445,-0.41503906,-0.831604,0.4533081,-1.25,-1.0,-0.078125
1696250686486,-0.40820312,-0.8303833,0.45355225,-1.734375,-1.859375,-0.03125
1696250686528,-0.41015625,-0.8154907,0.46600342,-1.015625,-2.15625,-0.890625
1696250686566,-0.41064453,-0.8242798,0.46795654,-1.65625,-1.125,-0.75
1696250686605,-0.41503906,-0.82281494,0.4694214,-0.765625,0.171875,0.109375
1696250686646,-0.4020996,-0.815979,0.4664917,0.265625,0.78125,0.109375
1696250686707,-0.4050293,-0.8086548,0.45233154,0.125,-0.296875,0.234375
1696250686726,-0.42749023,-0.8201294,0.45843506,-0.40625,-0.984375,0.09375
1696250686786,-0.40722656,-0.8245239,0.45770264,-1.1875,-0.84375,-0.21875
1696250686825,-0.40942383,-0.8233032,0.46258545,-0.890625,-0.890625,-0.5
1696250686846,-0.41015625,-0.81695557,0.45819092,-0.296875,-0.5625,-0.609375
1696250686886,-0.41186523,-0.8123169,0.46258545,-0.578125,-0.40625,-0.421875
1696250686925,-0.41064453,-0.8040161,0.46380615,-2.15625,-0.984375,-0.671875
1696250686964,-0.4128418,-0.8101196,0.47869873,-1.421875,-0.28125,-0.34375
1696250687006,-0.40942383,-0.8218384,0.47161865,-0.578125,-0.203125,0.078125
1696250687066,-0.42651367,-0.8135376,0.4689331,-0.125,-0.03125,-0.0625
1696250687084,-0.45458984,-0.83917236,0.45111084,-0.8125,-0.53125,1.84375
1696250687105,-0.42382812,-0.8225708,0.4569702,-2.796875,-0.40625,0.6875
1696250687147,-0.35766602,-0.7822876,0.48406982,-0.40625,1.25,-0.1875
1696250687185,-0.40161133,-0.7971802,0.49945068,0.703125,-0.484375,-0.28125
1696250687226,-0.41577148,-0.8225708,0.4821167,0.59375,-0.1875,-0.828125
1696250687265,-0.40893555,-0.8023071,0.4730835,0.78125,0.4375,-0.1875
1696250687305,-0.41992188,-0.80181885,0.46014404,1.078125,-0.34375,-0.1875
1696250687345,-0.43725586,-0.8250122,0.46087646,0.5,-0.3125,0.484375
1696250687385,-0.43725586,-0.8369751,0.46136475,-0.796875,-0.375,1.1875
1696250687426,-0.4099121,-0.80670166,0.47161865,-1.890625,0.03125,0.328125
1696250687466,-0.39746094,-0.80133057,0.48675537,-0.421875,0.0625,-0.203125
1696250687503,-0.40844727,-0.8074341,0.48968506,-0.53125,-0.1875,-0.375
1696250687546,-0.40112305,-0.8123169,0.4725952,0.1875,-0.046875,-0.21875
1696250687585,-0.40576172,-0.8040161,0.46966553,-1.6875,-1.421875,-1.453125
1696250687626,-0.41455078,-0.8179321,0.4887085,1.046875,-0.046875,-0.90625
1696250687665,-0.4309082,-0.8106079,0.4857788,0.3125,0.46875,-0.8125
1696250687709,-0.44311523,-0.8023071,0.4730835,-0.34375,0.515625,-0.234375
1696250687746,-0.43603516,-0.80426025,0.45355225,-1.46875,-0.171875,0.84375
1696250687785,-0.40844727,-0.81256104,0.48431396,-2.78125,-0.421875,0.921875
1696250687825,-0.4013672,-0.80963135,0.48651123,-1.75,-0.3125,-0.328125
1696250687865,-0.41796875,-0.80059814,0.49920654,1.109375,-0.359375,-0.0625
1696250687904,-0.42504883,-0.80303955,0.48944092,0.4375,-0.625,0.421875
1696250687945,-0.41625977,-0.79815674,0.479187,-0.234375,-0.734375,-0.078125
1696250687986,-0.40722656,-0.80352783,0.47528076,0.359375,0.0,-0.40625
1696250688025,-0.42333984,-0.8154907,0.48260498,0.046875,-0.6875,0.046875
1696250688064,-0.43164062,-0.81329346,0.47821045,0.40625,-0.890625,0.140625
1696250688106,-0.41870117,-0.8040161,0.47991943,-0.1875,-0.875,0.609375
1696250688147,-0.42016602,-0.800354,0.48846436,0.203125,-1.0,-0.078125
1696250688187,-0.41308594,-0.8115845,0.4874878,-0.25,-0.171875,-0.046875
1696250688226,-0.41381836,-0.80718994,0.47528076,-0.890625,0.078125,-0.421875
1696250688265,-0.41796875,-0.80059814,0.45916748,-1.84375,-0.75,-0.671875
1696250688305,-0.4296875,-0.8101196,0.49969482,-1.34375,-0.828125,0.375
1696250688349,-0.4182129,-0.7984009,0.49627686,-0.734375,0.78125,-0.328125
1696250688387,-0.4321289,-0.7944946,0.47479248,-1.90625,1.21875,0.046875
1696250688404,-0.42529297,-0.7954712,0.49627686,-1.328125,-0.265625,0.953125
1696250688446,-0.41308594,-0.81378174,0.5009155,-0.4375,-0.4375,0.34375
1696250688525,-0.40527344,-0.798645,0.49749756,0.421875,0.09375,0.09375
1696250688528,-0.43701172,-0.7918091,0.48944092,0.046875,-1.109375,0.46875
1696250688564,-0.41259766,-0.79278564,0.5018921,0.328125,-1.046875,0.40625
1696250688603,-0.40405273,-0.7962036,0.48944092,0.1875,-1.0,0.03125
1696250688647,-0.41992188,-0.80548096,0.4772339,1.359375,-0.546875,0.140625
1696250688689,-0.4345703,-0.80963135,0.48773193,0.546875,-0.046875,0.078125
1696250688726,-0.41796875,-0.798645,0.48382568,-0.125,0.015625,0.578125
1696250688765,-0.4128418,-0.79522705,0.49090576,-0.640625,-0.609375,0.359375
1696250688804,-0.41430664,-0.81036377,0.496521,0.171875,-0.859375,0.3125
1696250688847,-0.42749023,-0.80010986,0.48919678,0.484375,-0.390625,0.3125
1696250688885,-0.4111328,-0.79522705,0.48846436,0.40625,0.0,0.03125
1696250688924,-0.42382812,-0.80255127,0.48480225,-1.046875,-0.1875,0.140625
1696250688987,-0.42919922,-0.81207275,0.48675537,-1.46875,-0.828125,0.203125
1696250689003,-0.4248047,-0.7966919,0.5026245,-0.1875,-0.6875,-0.21875
1696250689047,-0.41015625,-0.79937744,0.49749756,-0.28125,0.015625,-0.078125
1696250689106,-0.42871094,-0.8032837,0.49725342,-0.6875,0.703125,-0.046875
1696250689126,-0.41088867,-0.7996216,0.4928589,-1.359375,0.578125,-0.15625
1696250689166,-0.4177246,-0.7896118,0.48773193,-1.21875,0.359375,0.859375
1696250689227,-0.42016602,-0.8010864,0.49163818,-2.890625,-0.59375,0.5
1696250689246,-0.41455078,-0.7974243,0.5060425,-1.84375,-0.40625,-0.25
1696250689288,-0.41748047,-0.7974243,0.5079956,-0.03125,-0.140625,-0.265625
1696250689326,-0.4243164,-0.7842407,0.5048218,-0.640625,-0.203125,-0.0625
1696250689367,-0.4284668,-0.7918091,0.49383545,-0.53125,-0.734375,0.25
1696250689407,-0.41064453,-0.79473877,0.50579834,0.28125,-0.75,0.4375
1696250689447,-0.41503906,-0.79888916,0.50946045,1.15625,-0.421875,-0.078125
1696250689486,-0.42236328,-0.79571533,0.4953003,0.3125,0.453125,-0.1875
1696250689524,-0.41577148,-0.78082275,0.512146,-0.390625,-0.046875,0.609375
1696250689566,-0.4206543,-0.7737427,0.4977417,0.1875,0.1875,0.625
1696250689605,-0.41259766,-0.8164673,0.49627686,-1.625,-0.1875,0.96875
1696250689644,-0.42651367,-0.81207275,0.5048218,-0.203125,-0.15625,0.53125
1696250689708,-0.41601562,-0.7937622,0.50335693,0.8125,-0.5,-0.125
1696250689713,-0.43286133,-0.7913208,0.50579834,-0.25,-0.96875,1.3125
1696250689745,-0.4248047,-0.7998657,0.5092163,0.40625,-1.28125,-0.046875
1696250689784,-0.3959961,-0.78448486,0.5084839,1.859375,0.625,0.75
1696250689824,-0.39013672,-0.77911377,0.49676514,1.375,0.375,0.375
1696250689865,-0.4194336,-0.7949829,0.49090576,-0.390625,-0.59375,0.09375
1696250689905,-0.43774414,-0.7971802,0.49090576,-2.140625,-1.03125,0.640625
1696250689944,-0.41992188,-0.80133057,0.5079956,-0.609375,-0.0625,0.71875
1696250689988,-0.38330078,-0.79400635,0.50897217,-2.484375,-0.65625,-0.609375
1696250690025,-0.43237305,-0.7932739,0.4935913,0.53125,-1.203125,-0.015625
1696250690064,-0.43554688,-0.8135376,0.51361084,2.65625,0.71875,0.203125
1696250690106,-0.42529297,-0.79522705,0.5043335,-1.03125,-0.09375,0.09375
1696250690145,-0.4099121,-0.78302,0.48724365,1.15625,-0.671875,0.8125
1696250690185,-0.40820312,-0.8008423,0.49969482,0.265625,-0.453125,1.421875
1696250690228,-0.4230957,-0.80181885,0.5062866,-2.0625,-2.125,0.34375
1696250690265,-0.39746094,-0.78497314,0.5182495,0.0625,-1.015625,-0.359375
1696250690305,-0.41259766,-0.7937622,0.5055542,-0.421875,-0.8125,-0.265625
1696250690345,-0.41992188,-0.7925415,0.5140991,-0.1875,0.546875,-0.953125
1696250690385,-0.42211914,-0.8010864,0.49554443,-1.265625,-1.375,-0.125
1696250690425,-0.42089844,-0.7835083,0.49945068,0.0625,-1.0625,0.421875
1696250690465,-0.42163086,-0.7918091,0.510437,-0.40625,-0.25,0.140625
1696250690505,-0.41186523,-0.7888794,0.50457764,-0.46875,-1.0,0.375
1696250690545,-0.41064453,-0.7896118,0.50213623,0.0625,-0.765625,-0.015625
1696250690585,-0.4177246,-0.7908325,0.5158081,0.90625,-0.375,0.03125
1696250690624,-0.4152832,-0.7896118,0.50653076,-0.5625,-0.734375,0.453125
1696250690664,-0.42333984,-0.786438,0.50823975,-0.03125,0.15625,0.40625
1696250690704,-0.4116211,-0.79278564,0.5062866,-0.171875,-1.0,-0.078125
1696250690744,-0.42211914,-0.7996216,0.49969482,-0.15625,-0.28125,0.203125
1696250690787,-0.43237305,-0.79815674,0.49432373,-1.015625,-0.546875,0.40625
1696250690825,-0.42700195,-0.7998657,0.5165405,-0.125,-0.359375,0.03125
1696250690865,-0.42358398,-0.7925415,0.50994873,-0.96875,0.515625,0.03125
1696250690905,-0.41137695,-0.7888794,0.510437,-1.859375,-0.59375,0.234375
1696250690945,-0.41723633,-0.78375244,0.5241089,-0.765625,-0.03125,0.25
1696250690985,-0.4099121,-0.7925415,0.5128784,-0.578125,-1.0,0.125
1696250691026,-0.40551758,-0.80596924,0.5109253,0.09375,-0.578125,0.03125
1696250691046,-0.42919922,-0.77911377,0.50701904,1.359375,-0.171875,0.234375
1696250691085,-0.42382812,-0.78326416,0.5092163,1.015625,-0.40625,0.0
1696250691125,-0.41723633,-0.7852173,0.50164795,-1.1875,-0.34375,0.53125
1696250691189,-0.42041016,-0.7974243,0.5199585,-1.609375,-0.4375,0.21875
1696250691206,-0.42504883,-0.79571533,0.52630615,1.5,0.28125,0.265625
1696250691244,-0.4140625,-0.7932739,0.49554443,0.109375,-1.3125,0.59375
1696250691286,-0.40112305,-0.7920532,0.512146,1.125,-0.0625,0.265625
1696250691345,-0.41748047,-0.7871704,0.50335693,0.765625,0.125,-0.28125
1696250691365,-0.43286133,-0.77349854,0.49310303,-0.84375,-0.953125,-0.0625
1696250691407,-0.40625,-0.79766846,0.51605225,-1.15625,-0.375,0.09375
1696250691444,-0.4111328,-0.8093872,0.5192261,-0.3125,0.640625,-0.046875
1696250691484,-0.41845703,-0.79644775,0.5055542,-0.59375,-0.515625,-0.015625
1696250691526,-0.41064453,-0.77838135,0.5014038,0.46875,-0.140625,-0.171875
1696250691566,-0.41430664,-0.79156494,0.5153198,-0.421875,-0.46875,-0.53125
1696250691606,-0.42456055,-0.7944946,0.5128784,-0.1875,0.09375,0.3125
1696250691645,-0.42578125,-0.78692627,0.5133667,0.125,-0.09375,0.40625
1696250691683,-0.41186523,-0.7859497,0.5092163,-0.515625,-0.6875,0.109375
1696250691723,-0.4086914,-0.7959595,0.5140991,-1.046875,-0.3125,0.25
1696250691763,-0.41552734,-0.7930298,0.510437,-0.484375,0.015625,0.1875
1696250691803,-0.4272461,-0.7839966,0.52020264,-0.203125,-0.453125,-0.234375
1696250691843,-0.4116211,-0.786438,0.5165405,-0.734375,0.15625,-0.296875
1696250691883,-0.4165039,-0.78912354,0.51361084,-0.515625,0.640625,-0.0625
1696250691923,-0.41503906,-0.77911377,0.5307007,-0.21875,0.046875,0.078125
1696250691964,-0.41577148,-0.8032837,0.5031128,-1.890625,-1.0625,-0.484375
1696250692025,-0.43164062,-0.78497314,0.51239014,-0.90625,0.109375,-1.015625
1696250692043,-0.4116211,-0.77716064,0.5331421,-0.546875,-1.1875,-0.5
1696250692084,-0.41503906,-0.7859497,0.52679443,-1.484375,-1.015625,-0.703125
1696250692124,-0.43432617,-0.79644775,0.5206909,1.21875,0.84375,0.09375
1696250692185,-0.4284668,-0.77789307,0.51312256,0.703125,-0.484375,1.640625
1696250692204,-0.41967773,-0.77471924,0.51727295,-0.265625,-1.0,0.921875
1696250692243,-0.40771484,-0.7761841,0.5282593,1.109375,0.765625,0.90625
1696250692284,-0.4206543,-0.79156494,0.5219116,1.578125,-0.46875,2.28125
1696250692344,-0.4321289,-0.7932739,0.50897217,2.671875,-0.984375,1.984375
1696250692348,-0.39941406,-0.7920532,0.5062866,0.84375,-0.71875,0.375
1696250692384,-0.40478516,-0.7835083,0.5192261,2.109375,0.234375,0.359375
1696250692425,-0.42138672,-0.7954712,0.5048218,2.515625,-0.328125,0.703125
1696250692463,-0.41845703,-0.79693604,0.50701904,0.578125,-0.59375,1.359375
1696250692504,-0.40014648,-0.7893677,0.5050659,0.265625,-1.296875,1.0
1696250692544,-0.41015625,-0.7932739,0.5140991,1.5,-0.515625,0.0
1696250692585,-0.4086914,-0.7954712,0.5128784,1.515625,-0.328125,0.25
1696250692624,-0.41235352,-0.786438,0.5036011,0.640625,0.640625,0.25
1696250692672,-0.41210938,-0.7974243,0.49676514,-1.015625,0.3125,0.875
1696250692704,-0.40625,-0.7932739,0.51239014,-0.828125,0.46875,0.234375
1696250692744,-0.40014648,-0.79888916,0.5116577,2.34375,1.109375,0.78125
1696250692785,-0.40307617,-0.81207275,0.496521,2.34375,-0.5625,0.4375
1696250692824,-0.4272461,-0.79473877,0.49212646,1.296875,-0.34375,0.25
1696250692862,-0.40966797,-0.80181885,0.49066162,0.0625,-1.0,0.65625
1696250692904,-0.40576172,-0.80352783,0.5018921,0.484375,-0.6875,0.40625
1696250692944,-0.40405273,-0.80792236,0.5026245,2.4375,-0.828125,0.171875
1696250692985,-0.4091797,-0.80963135,0.49456787,1.171875,-0.953125,0.578125
1696250693025,-0.40307617,-0.79644775,0.49627686,1.046875,-0.765625,0.71875
1696250693064,-0.3947754,-0.7852173,0.49993896,0.953125,-0.21875,0.4375
1696250693105,-0.40161133,-0.79693604,0.4928589,-1.140625,-0.234375,0.578125
1696250693143,-0.41479492,-0.81036377,0.494812,-1.59375,-0.546875,0.796875
1696250693184,-0.4074707,-0.8115845,0.5038452,-0.75,0.109375,0.484375
1696250693226,-0.40063477,-0.8076782,0.49847412,-0.53125,-0.1875,0.21875
1696250693264,-0.41088867,-0.8074341,0.4923706,0.609375,-0.234375,0.390625
1696250693304,-0.40234375,-0.81378174,0.48895264,-0.28125,-0.65625,-0.015625
1696250693344,-0.41088867,-0.8076782,0.49969482,-0.296875,-0.890625,-0.046875
1696250693384,-0.39892578,-0.80255127,0.49578857,1.265625,-0.796875,-0.421875
1696250693425,-0.40673828,-0.79522705,0.5018921,0.984375,-0.625,-0.0625
1696250693463,-0.40039062,-0.79400635,0.50653076,0.5,0.109375,0.4375
1696250693504,-0.40039062,-0.7991333,0.50115967,-0.53125,0.03125,0.6875
1696250693544,-0.3984375,-0.79351807,0.50164795,-0.671875,-0.265625,0.1875
1696250693585,-0.40185547,-0.8135376,0.49163818,0.828125,-0.1875,0.90625
1696250693645,-0.39770508,-0.81134033,0.480896,-0.71875,0.03125,0.828125
1696250693663,-0.41992188,-0.8052368,0.48968506,-0.796875,-0.40625,0.515625
1696250693705,-0.40185547,-0.80914307,0.4928589,0.078125,-0.875,0.625
1696250693724,-0.39526367,-0.8115845,0.49945068,-0.078125,-0.515625,0.390625
1696250693764,-0.40942383,-0.80426025,0.50531006,1.40625,-0.515625,-0.046875
1696250693805,-0.40795898,-0.8052368,0.49749756,1.734375,-0.828125,0.375
1696250693844,-0.4025879,-0.80133057,0.49188232,0.578125,-0.984375,0.125
1696250693886,-0.39941406,-0.80352783,0.48797607,1.53125,-0.640625,0.109375
1696250693925,-0.4038086,-0.802063,0.48382568,-0.0625,-0.609375,0.0625
1696250693967,-0.40722656,-0.8118286,0.49334717,-0.09375,-0.3125,0.453125
1696250694005,-0.40112305,-0.80596924,0.4845581,-0.59375,-0.5,0.53125
1696250694045,-0.39916992,-0.7979126,0.48602295,-1.140625,-0.421875,0.015625
1696250694086,-0.39208984,-0.80792236,0.4953003,-1.25,0.015625,0.34375
1696250694127,-0.40576172,-0.8015747,0.50213623,-0.765625,-0.453125,0.828125
1696250694166,-0.40014648,-0.8086548,0.49920654,0.78125,-0.8125,0.046875
1696250694209,-0.40307617,-0.80596924,0.49578857,0.71875,-0.796875,0.125
1696250694245,-0.40600586,-0.8106079,0.49139404,0.171875,-0.796875,0.53125
1696250694309,-0.4038086,-0.8064575,0.4923706,0.9375,-0.703125,-0.125
1696250694329,-0.40283203,-0.8081665,0.4911499,0.5,-0.453125,0.234375
1696250694386,-0.40625,-0.80303955,0.5092163,0.71875,-0.265625,0.59375
1696250694404,-0.41235352,-0.8110962,0.49749756,2.140625,-1.28125,0.609375
1696250694446,-0.39501953,-0.8220825,0.47332764,0.546875,-1.765625,0.15625
1696250694491,-0.3894043,-0.80841064,0.49041748,0.78125,0.09375,0.296875
1696250694524,-0.4050293,-0.8218384,0.4928589,0.9375,0.265625,-0.1875
1696250694566,-0.4128418,-0.8179321,0.48724365,0.5625,0.078125,-0.28125
1696250694604,-0.40893555,-0.8076782,0.4779663,0.25,0.0,0.328125
1696250694646,-0.39331055,-0.80596924,0.48529053,-0.875,-0.46875,0.28125
1696250694685,-0.3984375,-0.81329346,0.48431396,-0.390625,-0.734375,0.484375
1696250694725,-0.40478516,-0.82037354,0.49017334,-0.359375,-0.484375,0.046875
1696250694766,-0.40234375,-0.8088989,0.48480225,0.453125,-0.109375,0.25
1696250694805,-0.4050293,-0.81329346,0.4850464,0.109375,-0.125,0.15625
1696250694847,-0.40014648,-0.80841064,0.4882202,0.421875,-0.1875,0.3125
1696250694888,-0.40429688,-0.8086548,0.4821167,0.125,-0.484375,0.171875
1696250694925,-0.39941406,-0.81256104,0.48773193,0.265625,-0.75,0.1875
1696250694987,-0.3984375,-0.8123169,0.48065186,-0.453125,-0.5625,0.359375
1696250694990,-0.40307617,-0.8115845,0.4845581,-0.140625,-0.34375,0.171875
1696250695024,-0.40527344,-0.80914307,0.48529053,-0.140625,-0.359375,0.390625
1696250695067,-0.4091797,-0.8152466,0.4911499,-0.015625,-0.34375,0.53125
1696250695108,-0.4025879,-0.8074341,0.4845581,-0.1875,0.09375,0.21875
1696250695145,-0.39941406,-0.81085205,0.49261475,0.796875,1.21875,0.21875
1696250695185,-0.39916992,-0.82110596,0.47869873,-1.265625,2.703125,0.0
1696250695226,-0.40698242,-0.8023071,0.49993896,-2.171875,0.484375,-0.359375
1696250695266,-0.40673828,-0.8064575,0.50213623,4.953125,1.265625,1.328125
1696250695306,-0.39208984,-0.82037354,0.4598999,6.515625,0.046875,2.671875
1696250695347,-0.3947754,-0.81866455,0.4701538,3.671875,-2.09375,1.046875
1696250695389,-0.37524414,-0.82891846,0.44696045,7.984375,-1.21875,0.765625
1696250695427,-0.35717773,-0.84625244,0.4701538,11.25,2.234375,2.15625
1696250695467,-0.43920898,-0.83966064,0.44940186,6.515625,-1.171875,2.46875
1696250695506,-0.41137695,-0.84039307,0.4664917,6.65625,-4.390625,0.15625
1696250695546,-0.3503418,-0.819397,0.4171753,5.484375,-2.28125,1.046875
1696250695584,-0.36157227,-0.8345337,0.402771,4.15625,0.015625,1.328125
1696250695625,-0.3828125,-0.8479614,0.38861084,-2.578125,-2.21875,-0.828125
1696250695663,-0.42163086,-0.85235596,0.41644287,-11.265625,-8.65625,-0.40625
1696250695706,-0.46289062,-0.8303833,0.47625732,-13.640625,-10.171875,-0.359375
1696250695746,-0.33398438,-0.8230591,0.4850464,-2.734375,0.578125,-3.65625
1696250695785,-0.36376953,-0.81988525,0.4303589,-1.984375,1.125,0.640625
1696250695825,-0.43164062,-0.8530884,0.46209717,1.71875,0.0625,2.4375
1696250695864,-0.41870117,-0.835022,0.45819092,0.546875,-0.65625,0.1875
1696250695904,-0.4025879,-0.81500244,0.44281006,-0.40625,-1.734375,0.140625
1696250695948,-0.39916992,-0.8135376,0.43621826,-0.5,-1.296875,0.265625
1696250695989,-0.41625977,-0.8386841,0.46624756,-4.84375,-1.890625,-0.96875
1696250696025,-0.3803711,-0.8496704,0.4562378,-2.796875,-1.0,0.109375
1696250696064,-0.3774414,-0.81036377,0.47332764,4.625,1.546875,0.0625
1696250696106,-0.421875,-0.8206177,0.44281006,-1.625,-0.84375,0.359375
1696250696145,-0.42138672,-0.81695557,0.45135498,-0.546875,-1.078125,0.40625
1696250696185,-0.3737793,-0.8242798,0.45550537,0.40625,-2.609375,-0.59375
1696250696228,-0.3864746,-0.819397,0.45111084,-1.234375,-0.375,-0.8125
1696250696266,-0.4260254,-0.8364868,0.4491577,-0.921875,-0.46875,-0.71875
1696250696284,-0.40771484,-0.8352661,0.4537964,0.484375,1.109375,-0.453125
1696250696327,-0.39624023,-0.7942505,0.47601318,-0.375,1.734375,-0.34375
1696250696374,-0.41601562,-0.83013916,0.44769287,-2.203125,-1.953125,0.171875
1696250696406,-0.41259766,-0.8250122,0.46136475,-1.25,-1.390625,-1.1875
1696250696447,-0.38623047,-0.81573486,0.48114014,-1.09375,-0.359375,-0.09375
1696250696485,-0.42163086,-0.83428955,0.46575928,0.3125,-1.0625,0.203125
1696250696548,-0.40527344,-0.8167114,0.46551514,2.296875,0.0625,-0.484375
1696250696587,-0.40039062,-0.8208618,0.44818115,-0.6875,-0.6875,-0.625
1696250696603,-0.42358398,-0.82110596,0.46063232,-1.171875,-1.5,0.125
1696250696646,-0.4033203,-0.81817627,0.45355225,-1.4375,-1.171875,-0.40625
1696250696686,-0.41479492,-0.8093872,0.45721436,-6.171875,-2.03125,-1.21875
1696250696725,-0.40966797,-0.80596924,0.48529053,-0.625,-0.15625,-0.15625
1696250696766,-0.40039062,-0.8164673,0.46917725,-1.0625,0.8125,-0.34375
1696250696805,-0.4248047,-0.80548096,0.46258545,0.734375,0.5625,-0.15625
1696250696848,-0.42578125,-0.8225708,0.46820068,-0.5,-0.75,-0.03125
1696250696887,-0.41210938,-0.8233032,0.47332764,-0.875,-1.21875,0.328125
1696250696925,-0.4033203,-0.80133057,0.46575928,-0.21875,-0.796875,-0.359375
1696250696966,-0.40014648,-0.80426025,0.4857788,-0.4375,0.046875,-0.515625
1696250697026,-0.4165039,-0.8128052,0.46038818,-2.109375,-0.90625,0.015625
1696250697045,-0.43041992,-0.8081665,0.47357178,-0.828125,-0.671875,-0.34375
1696250697087,-0.40844727,-0.81085205,0.48968506,-0.0625,-0.109375,0.140625
1696250697126,-0.40771484,-0.81085205,0.48016357,-0.28125,-0.1875,-0.21875
1696250697166,-0.4326172,-0.81622314,0.46868896,0.9375,-0.140625,-0.78125
1696250697227,-0.4267578,-0.8115845,0.47650146,-0.453125,0.015625,0.21875
1696250697269,-0.41870117,-0.80010986,0.4677124,-1.578125,-0.609375,0.46875
1696250697285,-0.4111328,-0.80255127,0.48065186,-1.234375,-0.625,0.53125
1696250697327,-0.41381836,-0.81207275,0.49822998,-1.203125,-0.515625,0.53125
1696250697367,-0.41455078,-0.81207275,0.4862671,0.375,0.015625,0.71875
1696250697405,-0.40405273,-0.80426025,0.479187,1.09375,0.1875,-0.234375
1696250697450,-0.41430664,-0.8032837,0.46917725,0.421875,-0.40625,-0.140625
1696250697485,-0.42016602,-0.8086548,0.47601318,1.46875,0.34375,0.0625
1696250697526,-0.42358398,-0.80841064,0.46673584,-0.734375,-0.796875,0.171875
1696250697565,-0.42333984,-0.81451416,0.47698975,-1.09375,-1.359375,0.375
1696250697584,-0.41308594,-0.81427,0.47625732,-1.578125,-2.015625,-0.59375
1696250697626,-0.40600586,-0.8049927,0.479187,-0.75,-0.8125,-0.546875
1696250697666,-0.41357422,-0.80474854,0.48602295,-0.359375,0.265625,0.46875
1696250697705,-0.4309082,-0.79888916,0.4850464,0.34375,0.453125,-0.078125
1696250697746,-0.41992188,-0.8110962,0.47747803,-0.375,-0.71875,0.6875
1696250697786,-0.41235352,-0.80792236,0.4718628,0.109375,-0.28125,0.4375
1696250697824,-0.41308594,-0.8069458,0.4887085,-0.359375,-0.890625,-0.078125
1696250697865,-0.4099121,-0.8088989,0.4804077,-0.96875,-0.53125,-0.390625
1696250697905,-0.42504883,-0.80010986,0.496521,-0.375,0.40625,-0.046875
1696250697945,-0.41748047,-0.798645,0.48431396,-0.015625,-0.25,0.46875
1696250697985,-0.41235352,-0.80303955,0.4755249,-1.03125,-0.125,0.140625
1696250698026,-0.41235352,-0.8135376,0.48260498,-0.015625,-0.6875,0.28125
1696250698065,-0.4182129,-0.80914307,0.48919678,-0.171875,0.0625,-0.234375
1696250698106,-0.42944336,-0.79937744,0.480896,-0.609375,-0.34375,-0.375
1696250698145,-0.42456055,-0.7896118,0.48675537,-1.28125,0.046875,-0.671875
1696250698187,-0.4189453,-0.7979126,0.50164795,-1.09375,-0.046875,-0.234375
1696250698228,-0.40673828,-0.8040161,0.49066162,-0.875,0.0625,0.421875
1696250698264,-0.42138672,-0.79351807,0.48773193,-0.34375,-0.84375,-0.453125
1696250698307,-0.42578125,-0.8023071,0.4923706,0.078125,0.15625,0.234375
1696250698344,-0.42407227,-0.79766846,0.49334717,-1.34375,-0.40625,0.34375
1696250698385,-0.42407227,-0.8062134,0.48602295,-0.53125,-0.109375,0.140625
1696250698425,-0.4074707,-0.802063,0.4940796,0.046875,0.671875,0.359375
1696250698465,-0.41455078,-0.800354,0.5001831,-0.5,-0.15625,-0.0625
1696250698505,-0.41430664,-0.79888916,0.4804077,0.140625,0.109375,0.296875
1696250698547,-0.42700195,-0.78375244,0.49212646,-0.421875,0.21875,0.125
1696250698586,-0.4333496,-0.8008423,0.49920654,-0.34375,-0.40625,0.34375
1696250698625,-0.42456055,-0.79815674,0.4953003,-0.0625,-0.109375,0.15625
1696250698666,-0.4128418,-0.7920532,0.49993896,-0.140625,0.125,0.109375
1696250698706,-0.41235352,-0.7974243,0.49505615,-0.28125,-0.09375,0.203125
1696250698745,-0.43017578,-0.7971802,0.4935913,1.375,-0.5,-0.0625
1696250698786,-0.40820312,-0.80792236,0.50335693,1.3125,0.203125,-0.453125
1696250698824,-0.42114258,-0.7942505,0.48602295,-0.484375,-0.140625,0.375
1696250698886,-0.40698242,-0.7925415,0.49310303,-0.296875,-0.171875,0.375
1696250698904,-0.40942383,-0.79571533,0.49749756,-0.90625,-0.765625,0.34375
1696250698926,-0.4182129,-0.80474854,0.50408936,1.671875,-0.390625,0.8125
1696250698965,-0.42358398,-0.80792236,0.48773193,2.765625,-0.296875,0.796875
1696250699008,-0.4128418,-0.80352783,0.49163818,1.46875,-0.375,0.859375
1696250699045,-0.4116211,-0.7944946,0.48919678,0.0,-0.5625,0.578125
1696250699086,-0.41137695,-0.79400635,0.4953003,-0.296875,-0.21875,0.21875
1696250699126,-0.4189453,-0.8106079,0.48382568,-0.765625,-0.46875,0.09375
1696250699167,-0.41601562,-0.80718994,0.51434326,0.015625,0.5625,-1.375
1696250699228,-0.42016602,-0.80181885,0.48944092,-1.15625,1.40625,-1.34375
1696250699244,-0.42749023,-0.7932739,0.47698975,1.40625,1.265625,0.53125
1696250699310,-0.38989258,-0.7896118,0.5009155,-2.53125,-1.640625,0.859375
1696250699324,-0.40942383,-0.79351807,0.5084839,-1.8125,-0.953125,0.28125
1696250699387,-0.42651367,-0.81451416,0.4887085,0.921875,-0.734375,-0.015625
1696250699427,-0.42211914,-0.80596924,0.50531006,0.40625,-1.4375,0.234375
1696250699448,-0.41381836,-0.8052368,0.48651123,-1.109375,-1.421875,-0.59375
1696250699485,-0.39990234,-0.77301025,0.49456787,0.578125,1.84375,-1.265625
1696250699525,-0.41577148,-0.81427,0.4899292,-1.78125,1.109375,1.109375
1696250699589,-0.45043945,-0.7942505,0.5079956,0.078125,-0.9375,-0.421875
1696250699628,-0.40942383,-0.80426025,0.49627686,1.046875,-0.140625,0.390625
1696250699643,-0.39819336,-0.7974243,0.5043335,-2.34375,-0.765625,1.03125
1696250699710,-0.41918945,-0.79693604,0.5050659,1.125,-0.265625,0.015625
1696250699723,-0.4074707,-0.79522705,0.4911499,0.890625,-0.671875,-0.296875
1696250699787,-0.42260742,-0.79571533,0.49676514,0.34375,-0.140625,0.328125
1696250699803,-0.41552734,-0.7998657,0.49969482,-0.5625,-0.0625,0.859375
1696250699866,-0.4116211,-0.80010986,0.5031128,-0.421875,-0.4375,0.703125
1696250699884,-0.4140625,-0.80059814,0.4928589,0.265625,-0.265625,0.8125
1696250699926,-0.42163086,-0.7998657,0.5018921,2.046875,-0.390625,0.640625
1696250699986,-0.40161133,-0.80670166,0.4953003,2.296875,-0.96875,1.265625
1696250700005,-0.4152832,-0.7932739,0.50823975,2.546875,-1.1875,1.921875
1696250700067,-0.39135742,-0.81207275,0.4706421,2.40625,-1.34375,0.984375
1696250700084,-0.44018555,-0.8184204,0.4845581,2.609375,-0.140625,0.59375
1696250700126,-0.4140625,-0.7979126,0.47698975,3.703125,-0.15625,1.375
1696250700166,-0.3828125,-0.8064575,0.46551514,-0.5,-0.625,0.40625
1696250700227,-0.38110352,-0.8147583,0.5055542,2.921875,2.71875,0.859375
1696250700230,-0.4423828,-0.8352661,0.46844482,-0.359375,0.21875,1.3125
1696250700267,-0.41308594,-0.79034424,0.4935913,0.453125,0.234375,-0.75
1696250700306,-0.36572266,-0.81427,0.47381592,-1.640625,0.140625,0.265625
1696250700344,-0.40454102,-0.80548096,0.4804077,-1.5625,-0.625,0.71875
1696250700385,-0.41723633,-0.8088989,0.48065186,1.234375,0.46875,-0.59375
1696250700424,-0.3942871,-0.81817627,0.48480225,4.046875,1.3125,2.3125
1696250700464,-0.39038086,-0.8147583,0.48065186,0.875,-1.046875,1.703125
1696250700505,-0.39746094,-0.8272095,0.47772217,3.453125,-0.875,0.9375
1696250700547,-0.41381836,-0.82281494,0.45794678,-1.21875,-0.921875,1.640625
1696250700586,-0.40576172,-0.8088989,0.46038818,0.609375,0.0625,0.328125
1696250700626,-0.3984375,-0.8189087,0.4743042,-0.140625,-0.203125,-0.375
1696250700664,-0.3864746,-0.8225708,0.47869873,-1.546875,-0.609375,-0.15625
1696250700708,-0.40234375,-0.8201294,0.48187256,-0.234375,-0.421875,-0.140625
1696250700746,-0.39916992,-0.8154907,0.48065186,3.09375,0.40625,0.03125
1696250700786,-0.39233398,-0.8242798,0.45672607,-0.59375,-0.5,-0.125
1696250700829,-0.39916992,-0.8164673,0.465271,-0.953125,-0.203125,0.25
1696250700866,-0.40820312,-0.81207275,0.4718628,-0.53125,-0.21875,0.09375
1696250700907,-0.38598633,-0.817688,0.48797607,0.03125,-0.1875,0.125
1696250700944,-0.3708496,-0.82598877,0.47381592,3.65625,0.21875,2.015625
1696250700984,-0.37231445,-0.8230591,0.4718628,1.328125,-2.234375,1.15625
1696250701025,-0.42138672,-0.83013916,0.46063232,-1.28125,-0.875,-0.78125
1696250701064,-0.42114258,-0.80914307,0.46087646,-1.53125,0.5,-0.6875
1696250701105,-0.37719727,-0.7984009,0.47039795,-2.0,-0.296875,0.859375
1696250701145,-0.37719727,-0.8345337,0.4874878,-1.765625,-0.84375,0.609375
1696250701184,-0.4104004,-0.8413696,0.48773193,0.171875,-0.484375,0.09375
1696250701224,-0.3869629,-0.8167114,0.46966553,1.625,-0.6875,0.953125
1696250701265,-0.38256836,-0.8086548,0.45721436,0.796875,-2.203125,0.625
1696250701305,-0.39526367,-0.8345337,0.4628296,-0.546875,-1.765625,-0.296875
1696250701346,-0.4091797,-0.80841064,0.47601318,-0.953125,-0.0625,-0.6875
1696250701391,-0.39501953,-0.8218384,0.4821167,0.59375,-0.21875,0.40625
1696250701429,-0.38110352,-0.82354736,0.46917725,-0.140625,-0.59375,0.40625
1696250701464,-0.40014648,-0.8164673,0.4598999,0.15625,-0.59375,-0.15625
1696250701526,-0.38867188,-0.8279419,0.47113037,-0.765625,-0.03125,-0.046875
1696250701529,-0.39794922,-0.8242798,0.47576904,-0.953125,-0.328125,0.125
1696250701565,-0.38500977,-0.8213501,0.47039795,-0.4375,-0.734375,-0.0625
1696250701668,-0.39916992,-0.80181885,0.47039795,-0.9375,-0.421875,-0.328125
1696250701672,-0.41308594,-0.81378174,0.4804077,-1.125,0.34375,-0.078125
1696250701685,-0.4099121,-0.83599854,0.480896,-0.75,0.171875,0.515625
1696250701724,-0.38671875,-0.815979,0.47357178,-0.296875,-0.453125,-0.0625
1696250701766,-0.39086914,-0.81695557,0.47210693,-0.078125,-0.203125,-0.25
1696250701806,-0.40478516,-0.817688,0.47454834,-1.265625,0.234375,-0.25
1696250701846,-0.4033203,-0.81134033,0.4857788,-2.234375,-0.65625,-0.09375
1696250701886,-0.38549805,-0.8257446,0.48016357,-0.65625,-0.015625,0.1875
1696250701928,-0.4050293,-0.82525635,0.47772217,-1.5625,-0.390625,0.125
1696250701966,-0.40893555,-0.7991333,0.49090576,-0.609375,0.296875,-0.25
1696250702029,-0.38085938,-0.8045044,0.4960327,-0.859375,-0.078125,-0.203125
1696250702044,-0.3828125,-0.815979,0.4869995,-0.328125,-0.234375,-0.203125
1696250702085,-0.3894043,-0.8152466,0.4821167,-0.4375,0.703125,-0.734375
1696250702125,-0.41577148,-0.8147583,0.47772217,-1.171875,-0.078125,-0.625
1696250702185,-0.41357422,-0.80596924,0.48773193,-1.9375,0.6875,-0.171875
1696250702226,-0.40649414,-0.8093872,0.49969482,-2.75,0.765625,0.125
1696250702244,-0.38549805,-0.80914307,0.50115967,-4.921875,-0.1875,-0.59375
1696250702309,-0.39697266,-0.803772,0.5258179,-5.15625,-0.21875,-1.515625
1696250702327,-0.39038086,-0.78790283,0.5565796,0.171875,1.1875,-1.078125
1696250702366,-0.43164062,-0.8049927,0.49456787,-1.46875,-2.6875,-0.1875
1696250702406,-0.46118164,-0.77716064,0.5192261,2.078125,-3.546875,1.390625
1696250702468,-0.38085938,-0.81695557,0.5114136,13.234375,-1.5,3.859375
1696250702486,-0.40039062,-0.8440552,0.45550537,10.625,0.640625,4.625
1696250702524,-0.42382812,-0.7998657,0.47747803,4.640625,2.84375,-0.65625
1696250702565,-0.3635254,-0.84552,0.47869873,11.671875,-0.296875,1.515625
1696250702606,-0.36132812,-0.87457275,0.36175537,-5.859375,-2.125,0.9375
1696250702666,-0.49536133,-0.7329712,0.4772339,-0.078125,3.65625,-3.6875
1696250702705,-0.34399414,-0.8394165,0.5145874,9.0625,-4.046875,7.171875
1696250702724,-0.2993164,-0.87457275,0.43670654,12.4375,2.140625,7.15625
1696250702768,-0.42651367,-0.8201294,0.43914795,13.640625,-0.453125,-0.5
1696250702805,-0.38012695,-0.83599854,0.39959717,2.453125,-3.28125,-0.515625
1696250702825,-0.3449707,-0.8152466,0.38397217,-4.265625,-1.859375,1.765625
1696250702867,-0.3876953,-0.83306885,0.4154663,-4.375,-1.359375,0.046875
1696250702905,-0.39941406,-0.8843384,0.44647217,-5.515625,-5.109375,-0.6875
1696250702946,-0.38891602,-0.84747314,0.45965576,-3.578125,-4.125,-0.109375
1696250702985,-0.39135742,-0.82403564,0.44085693,-0.90625,-3.140625,-1.15625
1696250703026,-0.39013672,-0.8411255,0.43695068,-4.265625,-2.90625,-0.953125
1696250703066,-0.40820312,-0.8411255,0.44891357,-3.390625,-3.453125,0.203125
1696250703105,-0.38891602,-0.83258057,0.43841553,-3.234375,-1.5625,-0.78125
1696250703146,-0.38720703,-0.833313,0.46209717,-4.140625,-0.953125,-0.96875
1696250703186,-0.39794922,-0.83721924,0.45794678,-0.625,0.28125,0.578125
1696250703225,-0.38891602,-0.8230591,0.45428467,2.015625,2.109375,-0.40625
1696250703266,-0.40649414,-0.82354736,0.44622803,0.921875,1.3125,0.703125
1696250703305,-0.4128418,-0.83477783,0.44573975,0.21875,-0.125,2.0
1696250703349,-0.3779297,-0.8320923,0.44696045,-1.078125,-0.421875,0.84375
1696250703388,-0.38110352,-0.83184814,0.44989014,-0.53125,-0.125,-0.140625
1696250703425,-0.39257812,-0.833313,0.4401245,-1.125,-1.78125,-0.40625
1696250703466,-0.4020996,-0.8296509,0.46429443,-0.453125,0.171875,-0.640625
1696250703505,-0.39892578,-0.83306885,0.45477295,-2.125,-1.4375,-0.34375
1696250703545,-0.39868164,-0.8179321,0.45281982,-1.25,-0.640625,-0.46875
1696250703584,-0.39331055,-0.8237915,0.45941162,-0.34375,-1.640625,0.890625
1696250703626,-0.39794922,-0.8389282,0.4586792,-1.8125,-1.515625,0.171875
1696250703665,-0.40551758,-0.81622314,0.46087646,-0.265625,-0.75,-0.765625
1696250703705,-0.38745117,-0.8286743,0.46966553,-0.1875,0.078125,0.890625
1696250703745,-0.3869629,-0.819397,0.45428467,0.265625,0.6875,-0.46875
1696250703785,-0.3959961,-0.8218384,0.45941162,-0.609375,-0.0625,-0.765625
1696250703826,-0.4128418,-0.8218384,0.43865967,-1.125,-0.4375,-0.265625
1696250703866,-0.40478516,-0.8320923,0.45111084,-2.109375,-0.484375,-0.5
1696250703905,-0.41845703,-0.8320923,0.47479248,-0.46875,-0.859375,0.203125
1696250703945,-0.3942871,-0.8196411,0.463562,-1.328125,0.1875,-0.125
1696250703987,-0.3984375,-0.81573486,0.46258545,-0.6875,-0.703125,-0.125
1696250704026,-0.3959961,-0.81573486,0.4574585,-1.15625,-2.421875,-0.171875
1696250704065,-0.3959961,-0.8140259,0.4874878,-1.5625,-2.71875,-0.828125
1696250704106,-0.40551758,-0.8196411,0.45916748,-3.484375,-1.0,-0.953125
1696250704146,-0.42578125,-0.8088989,0.50042725,-0.484375,-0.4375,-1.03125
1696250704164,-0.40454102,-0.8374634,0.4640503,1.734375,0.71875,1.4375
1696250704205,-0.4099121,-0.8115845,0.4520874,1.140625,1.4375,1.203125
1696250704245,-0.42114258,-0.8167114,0.46087646,-1.5,-1.65625,1.015625
1696250704305,-0.4104004,-0.83477783,0.479187,-1.78125,-0.390625,1.5625
1696250704324,-0.39111328,-0.8164673,0.47357178,-0.71875,-0.96875,0.296875
1696250704385,-0.39038086,-0.80548096,0.48284912,0.21875,0.125,-0.046875
1696250704404,-0.3959961,-0.80352783,0.48529053,-0.03125,-0.90625,-0.34375
1696250704445,-0.40893555,-0.819397,0.47113037,-0.34375,-0.859375,0.15625
1696250704486,-0.41137695,-0.8225708,0.4845581,-1.328125,-1.28125,-0.53125
1696250704525,-0.4104004,-0.8062134,0.4706421,-4.5625,-3.328125,-1.71875
1696250704566,-0.39990234,-0.8110962,0.4701538,-2.546875,-2.015625,-1.84375
1696250704607,-0.41064453,-0.81378174,0.46746826,-1.71875,0.328125,0.390625
1696250704645,-0.4050293,-0.81085205,0.49847412,-0.328125,-0.109375,-0.203125
1696250704686,-0.41210938,-0.79400635,0.48846436,2.125,-0.5,-0.578125
1696250704726,-0.39819336,-0.7949829,0.48846436,1.390625,0.453125,0.40625
1696250704767,-0.42529297,-0.8101196,0.46844482,-1.75,-1.09375,0.421875
1696250704828,-0.41210938,-0.80670166,0.46624756,-0.375,-0.46875,0.3125
1696250704845,-0.41088867,-0.8130493,0.48016357,-0.171875,0.046875,0.59375
1696250704908,-0.42236328,-0.8257446,0.47283936,0.421875,-1.21875,1.09375
1696250704923,-0.40673828,-0.81378174,0.46673584,1.171875,-2.171875,0.890625
1696250704967,-0.40283203,-0.8093872,0.4767456,-3.15625,-4.625,-0.921875
1696250705006,-0.3852539,-0.77716064,0.52923584,-1.796875,0.3125,-2.34375
1696250705046,-0.39746094,-0.77960205,0.48480225,-5.046875,0.796875,-2.0625
1696250705107,-0.45751953,-0.80059814,0.5048218,-0.65625,1.78125,0.09375
1696250705126,-0.42089844,-0.81622314,0.48773193,-0.171875,-0.328125,1.21875
1696250705168,-0.3996582,-0.8057251,0.48431396,-2.03125,0.46875,0.015625
1696250705206,-0.42993164,-0.8015747,0.47601318,0.046875,-0.296875,-0.046875
1696250705267,-0.4140625,-0.8101196,0.5060425,-1.421875,-1.09375,0.015625
1696250705285,-0.40527344,-0.79888916,0.49700928,-1.359375,-0.53125,-0.90625
1696250705348,-0.41186523,-0.79766846,0.50335693,-3.890625,-1.75,-2.90625
1696250705389,-0.4230957,-0.78375244,0.51776123,-3.546875,-0.859375,-3.125
1696250705405,-0.42626953,-0.7788696,0.5150757,-1.25,0.203125,-3.109375
1696250705445,-0.41064453,-0.7817993,0.5204468,3.515625,4.03125,-0.46875
1696250705464,-0.4621582,-0.7959595,0.47528076,-0.734375,-0.109375,0.90625
1696250705507,-0.47094727,-0.78912354,0.4833374,-3.53125,-1.046875,2.625
1696250705545,-0.41748047,-0.7918091,0.50286865,-3.15625,-0.375,1.1875
1696250705588,-0.40039062,-0.79522705,0.52923584,-0.890625,0.140625,0.296875
1696250705624,-0.39990234,-0.78302,0.54803467,0.59375,0.28125,0.6875
1696250705667,-0.40966797,-0.77838135,0.508728,0.5,-1.078125,0.28125
1696250705705,-0.4194336,-0.76934814,0.5043335,1.375,-1.25,0.0625
1696250705746,-0.4230957,-0.7744751,0.5392456,1.84375,0.234375,-1.375
1696250705787,-0.41259766,-0.7854614,0.5309448,-0.640625,0.609375,-1.234375
1696250705827,-0.42749023,-0.7901001,0.50213623,2.9375,0.921875,-0.21875
1696250705866,-0.44873047,-0.80548096,0.48431396,1.3125,-0.15625,0.921875
1696250705907,-0.45043945,-0.8115845,0.46697998,-2.28125,-0.5625,1.21875
1696250705946,-0.4272461,-0.798645,0.5001831,-2.328125,-0.078125,0.890625
1696250705986,-0.40673828,-0.77911377,0.5265503,-2.640625,-0.28125,1.0
1696250706032,-0.41235352,-0.78692627,0.53778076,-2.21875,-0.0625,0.5625
1696250706069,-0.41601562,-0.77130127,0.5385132,1.453125,0.03125,-0.15625
1696250706108,-0.40307617,-0.7822876,0.52215576,2.734375,-0.09375,0.109375
1696250706146,-0.41967773,-0.77667236,0.50701904,2.625,-0.296875,0.546875
1696250706186,-0.42456055,-0.7854614,0.49554443,1.03125,-0.671875,0.4375
1696250706229,-0.43481445,-0.7991333,0.5018921,-1.046875,-0.703125,0.390625
1696250706268,-0.42919922,-0.7984009,0.5097046,0.046875,-0.609375,0.53125
1696250706306,-0.40673828,-0.7908325,0.51434326,-0.015625,0.171875,0.015625
1696250706345,-0.42016602,-0.7827759,0.5175171,0.25,0.15625,0.015625
1696250706386,-0.40771484,-0.78326416,0.5101929,-1.34375,0.4375,-0.140625
1696250706426,-0.42236328,-0.7822876,0.52020264,-0.9375,0.296875,0.234375
1696250706466,-0.42529297,-0.78570557,0.51605225,-1.078125,-0.53125,0.546875
1696250706509,-0.4128418,-0.786438,0.5165405,-0.671875,-0.328125,0.203125
1696250706545,-0.42700195,-0.7954712,0.512146,-0.078125,-0.375,0.015625
1696250706586,-0.43017578,-0.7937622,0.5206909,0.828125,-0.5,0.09375
1696250706627,-0.4248047,-0.7901001,0.52020264,1.484375,0.453125,0.671875
1696250706669,-0.40820312,-0.77911377,0.5253296,3.140625,-2.03125,0.828125
1696250706709,-0.40161133,-0.7786255,0.49847412,0.25,-1.46875,0.296875
1696250706746,-0.42041016,-0.80181885,0.4960327,0.359375,-1.046875,1.0625
1696250706763,-0.4338379,-0.79522705,0.526062,0.6875,-0.5,0.328125
1696250706829,-0.40844727,-0.7942505,0.49188232,-1.453125,-0.875,-0.015625
1696250706845,-0.38891602,-0.75909424,0.5248413,0.0625,2.734375,-0.90625
1696250706906,-0.44091797,-0.81695557,0.5038452,-2.46875,-0.734375,1.625
1696250706924,-0.43823242,-0.7781372,0.5126343,-1.203125,-0.5625,-0.640625
1696250706988,-0.3881836,-0.7918091,0.5114136,0.578125,-1.171875,0.140625
1696250707004,-0.42138672,-0.8023071,0.50115967,-0.671875,-0.328125,0.390625
1696250707049,-0.4309082,-0.79351807,0.526062,1.359375,0.078125,-0.375
1696250707089,-0.42407227,-0.78253174,0.5072632,1.09375,-0.703125,-0.34375
1696250707146,-0.4165039,-0.7822876,0.5101929,0.234375,-0.15625,0.78125
1696250707164,-0.4116211,-0.7835083,0.51483154,-0.25,-0.5,0.046875
1696250707207,-0.41137695,-0.78912354,0.5092163,-1.015625,-0.96875,0.375
1696250707248,-0.4177246,-0.7979126,0.5116577,0.078125,-0.046875,0.625
1696250707289,-0.4177246,-0.7937622,0.5075073,0.0625,0.015625,0.34375
1696250707346,-0.41796875,-0.7720337,0.5079956,-1.484375,-0.15625,0.25
1696250707363,-0.4230957,-0.7998657,0.51068115,-1.140625,-0.8125,0.546875
1696250707405,-0.40527344,-0.7991333,0.50701904,-0.25,0.015625,0.484375
1696250707447,-0.4194336,-0.79571533,0.5206909,1.71875,-0.5625,0.078125
1696250707486,-0.41796875,-0.78619385,0.5175171,1.3125,-0.71875,0.078125
1696250707524,-0.40698242,-0.7793579,0.5092163,1.125,-0.0625,0.375
1696250707564,-0.41210938,-0.78204346,0.5180054,1.953125,1.171875,0.828125
1696250707604,-0.42358398,-0.7920532,0.51116943,2.359375,0.109375,1.84375
1696250707666,-0.41796875,-0.7984009,0.5043335,1.0625,-0.203125,0.046875
1696250707685,-0.39697266,-0.79571533,0.50164795,0.671875,-0.078125,0.921875
1696250707750,-0.40722656,-0.79107666,0.50701904,0.671875,-0.328125,0.578125
1696250707763,-0.41015625,-0.8086548,0.5092163,-0.34375,-0.140625,-0.03125
1696250707806,-0.40966797,-0.7954712,0.5116577,-0.46875,-0.234375,0.359375
1696250707845,-0.40014648,-0.7827759,0.5097046,-0.0625,0.40625,0.015625
1696250707886,-0.4194336,-0.80596924,0.4989624,-0.515625,-1.4375,0.921875
1696250707929,-0.4194336,-0.803772,0.50213623,0.640625,-0.171875,0.71875
1696250707965,-0.4111328,-0.800354,0.50457764,-0.171875,-0.21875,0.484375
1696250708029,-0.39794922,-0.7966919,0.5075073,0.1875,-0.234375,0.515625
1696250708044,-0.41503906,-0.7971802,0.50823975,0.0,-0.375,-0.140625
1696250708108,-0.4165039,-0.79473877,0.49969482,0.28125,-0.375,0.390625
1696250708113,-0.4033203,-0.78863525,0.51361084,0.59375,0.046875,0.71875
1696250708147,-0.39990234,-0.7962036,0.526062,3.3125,0.25,1.734375
1696250708186,-0.40356445,-0.81500244,0.4887085,0.921875,-2.78125,1.625
1696250708226,-0.4152832,-0.80352783,0.50579834,4.453125,0.65625,-0.09375
1696250708265,-0.39038086,-0.82281494,0.4899292,-0.015625,0.078125,0.609375
1696250708307,-0.4086914,-0.7854614,0.479187,-2.390625,-0.21875,0.609375
1696250708348,-0.41333008,-0.7888794,0.49627686,0.90625,0.46875,0.546875
1696250708386,-0.38891602,-0.8101196,0.52752686,1.296875,0.3125,1.578125
1696250708426,-0.3701172,-0.8106079,0.5153198,3.53125,0.734375,2.0625
1696250708464,-0.39770508,-0.79644775,0.4923706,2.953125,0.15625,0.4375
1696250708506,-0.4128418,-0.8164673,0.48382568,0.953125,-1.0,-0.0625
1696250708546,-0.3918457,-0.81036377,0.48016357,1.171875,-0.1875,0.265625
1696250708585,-0.40551758,-0.7991333,0.47698975,-1.46875,-0.453125,0.953125
1696250708625,-0.39916992,-0.81988525,0.5031128,-0.71875,-0.4375,1.21875
1696250708665,-0.38745117,-0.8406372,0.49188232,3.125,0.125,1.0625
1696250708706,-0.4008789,-0.8027954,0.47821045,1.859375,-0.03125,0.984375
1696250708747,-0.390625,-0.80181885,0.4804077,-3.03125,-0.984375,-0.0625
1696250708786,-0.39257812,-0.8110962,0.49627686,-0.78125,-0.109375,-0.171875
1696250708825,-0.3955078,-0.8179321,0.4862671,-1.125,-1.0,0.828125
1696250708866,-0.39404297,-0.8115845,0.4989624,-0.203125,-0.578125,0.078125
1696250708905,-0.38378906,-0.81915283,0.48968506,2.125,0.0625,0.46875
1696250708945,-0.38720703,-0.8171997,0.47894287,0.015625,-0.25,0.5
1696250708986,-0.40698242,-0.8088989,0.47894287,-0.578125,-0.453125,-0.234375
1696250709026,-0.40283203,-0.8110962,0.49090576,-0.90625,-0.578125,0.515625
1696250709066,-0.39257812,-0.81817627,0.4911499,-2.359375,-0.078125,0.421875
1696250709108,-0.3876953,-0.8106079,0.5014038,-1.3125,-0.953125,0.21875
1696250709146,-0.37817383,-0.79937744,0.50115967,-0.515625,-0.328125,-0.1875
1696250709186,-0.3881836,-0.8093872,0.5009155,-0.546875,0.265625,0.0
1696250709225,-0.39770508,-0.8015747,0.50164795,-0.0625,-0.9375,0.125
1696250709266,-0.3918457,-0.80474854,0.50115967,2.078125,-2.515625,0.78125
1696250709306,-0.3701172,-0.8164673,0.4784546,1.71875,-2.09375,-0.375
1696250709345,-0.41088867,-0.82940674,0.4730835,-0.6875,-1.109375,-0.296875
1696250709386,-0.453125,-0.7998657,0.4706421,-0.6875,0.046875,0.359375
1696250709406,-0.37329102,-0.79107666,0.49945068,-2.0625,-0.46875,0.984375
1696250709448,-0.36010742,-0.81378174,0.51312256,-2.296875,-1.96875,0.578125
1696250709485,-0.40820312,-0.81329346,0.5170288,2.390625,-1.640625,0.296875
1696250709550,-0.3984375,-0.8106079,0.48773193,5.859375,-0.5,-0.625
1696250709565,-0.38183594,-0.81817627,0.4730835,2.484375,-0.484375,-1.328125
1696250709606,-0.41845703,-0.80914307,0.4743042,0.15625,0.234375,-0.875
1696250709667,-0.42358398,-0.80303955,0.46990967,-1.671875,-0.1875,0.609375
1696250709684,-0.38867188,-0.8147583,0.48919678,-1.546875,-0.890625,0.40625
1696250709727,-0.3840332,-0.81988525,0.5006714,0.453125,-0.8125,0.390625
1696250709769,-0.41723633,-0.8123169,0.4869995,0.65625,-0.53125,-0.046875
1696250709806,-0.40112305,-0.8101196,0.48431396,0.21875,0.21875,0.046875
1696250709867,-0.38427734,-0.81256104,0.49090576,-1.515625,-0.40625,0.546875
1696250709885,-0.3972168,-0.81427,0.48260498,-0.03125,0.0,0.03125
1696250709929,-0.4020996,-0.81695557,0.4911499,-0.328125,-0.09375,0.171875
1696250709985,-0.3996582,-0.8201294,0.48406982,-1.109375,-0.90625,0.453125
1696250710006,-0.39868164,-0.8196411,0.47869873,-1.078125,-0.140625,-0.5
1696250710068,-0.40454102,-0.817688,0.49798584,-0.75,0.703125,-0.828125
1696250710108,-0.39892578,-0.80474854,0.5001831,-1.421875,0.5625,-0.453125
1696250710146,-0.40112305,-0.80718994,0.50164795,-2.75,0.546875,-0.25
1696250710188,-0.38354492,-0.8179321,0.5165405,-7.859375,0.21875,-1.125
1696250710204,-0.40966797,-0.7671509,0.5770874,-12.5,4.703125,-5.578125
1696250710246,-0.46655273,-0.7263794,0.6063843,6.828125,7.796875,1.265625
1696250710285,-0.38452148,-0.8491821,0.4389038,9.96875,-2.984375,10.515625
1696250710327,-0.42041016,-0.8357544,0.49261475,14.671875,-3.3125,5.453125
1696250710385,-0.4255371,-0.82525635,0.53778076,27.140625,5.171875,1.59375
1696250710405,-0.2993164,-0.86431885,0.37078857,11.390625,-0.3125,5.390625
1696250710468,-0.3425293,-0.7996216,0.3324585,6.09375,-9.5625,3.5
1696250710484,-0.33032227,-0.8435669,0.37225342,1.46875,-6.03125,-2.9375
1696250710547,-0.3725586,-0.84161377,0.47625732,-15.671875,-7.3125,-3.4375
1696250710565,-0.4489746,-0.85650635,0.49700928,-16.078125,-9.765625,-1.109375
1696250710607,-0.3894043,-0.7971802,0.46575928,1.65625,1.140625,-3.109375
1696250710668,-0.3527832,-0.81207275,0.43670654,3.03125,1.59375,2.546875
1696250710706,-0.4033203,-0.8579712,0.44866943,-1.359375,-4.546875,3.5
1696250710709,-0.41625977,-0.84991455,0.46307373,-0.140625,-0.296875,-1.09375
1696250710747,-0.3671875,-0.81573486,0.4459839,1.5,-1.015625,-0.96875
1696250710787,-0.38720703,-0.81573486,0.4467163,-0.453125,-0.125,0.3125
1696250710826,-0.40795898,-0.8340454,0.4598999,-0.25,-1.65625,-0.9375
1696250710866,-0.40600586,-0.8428345,0.4550171,-1.09375,-1.34375,-0.328125
1696250710905,-0.3857422,-0.8206177,0.44866943,0.015625,-0.609375,0.1875
1696250710947,-0.4074707,-0.8152466,0.4640503,0.046875,-0.84375,-0.6875
1696250710988,-0.40405273,-0.8369751,0.4459839,-1.578125,-1.515625,-0.265625
1696250711026,-0.41552734,-0.8311157,0.4574585,-2.921875,0.25,-0.328125
1696250711071,-0.41503906,-0.8374634,0.4569702,0.0625,0.421875,1.21875
1696250711106,-0.3984375,-0.8320923,0.4406128,-1.75,-1.34375,0.21875
1696250711148,-0.39233398,-0.8154907,0.44329834,-1.859375,-0.84375,0.265625
1696250711188,-0.4038086,-0.82159424,0.47528076,-3.984375,-1.296875,0.1875
1696250711228,-0.38964844,-0.8123169,0.4911499,-2.140625,-1.34375,0.28125
1696250711266,-0.3852539,-0.8213501,0.47235107,2.21875,-1.5,0.09375
1696250711305,-0.40112305,-0.8257446,0.46697998,3.34375,-0.171875,-0.140625
1696250711346,-0.4296875,-0.8320923,0.4562378,0.296875,-1.0625,0.203125
1696250711386,-0.40527344,-0.8267212,0.45794678,1.359375,-0.28125,-0.03125
1696250711426,-0.3942871,-0.84942627,0.40789795,-5.265625,-0.4375,-2.390625
1696250711466,-0.47607422,-0.7962036,0.4989624,-4.25,5.515625,-3.421875
1696250711505,-0.35473633,-0.7974243,0.48260498,-2.0,1.40625,1.015625
1696250711545,-0.35229492,-0.8184204,0.47698975,-0.03125,-0.3125,1.109375
1696250711586,-0.42382812,-0.8303833,0.48529053,2.9375,-0.765625,0.71875
1696250711626,-0.41357422,-0.8255005,0.4677124,-1.796875,-0.84375,-0.265625
1696250711665,-0.41381836,-0.8106079,0.465271,-0.75,0.375,0.390625
1696250711709,-0.40014648,-0.81622314,0.47772217,0.390625,0.25,-0.328125
1696250711747,-0.40893555,-0.8218384,0.47625732,-1.046875,-1.53125,0.3125
1696250711789,-0.41430664,-0.8167114,0.4586792,2.703125,-1.59375,1.65625
1696250711826,-0.3930664,-0.8230591,0.4784546,1.953125,-2.359375,2.109375
1696250711866,-0.41870117,-0.8179321,0.47113037,2.390625,-1.375,1.78125
1696250711904,-0.40844727,-0.83843994,0.45648193,-2.5,-1.625,0.296875
1696250711945,-0.37670898,-0.80474854,0.45965576,-2.078125,-0.0625,-0.59375
1696250712007,-0.39990234,-0.8110962,0.4694214,-1.859375,0.515625,-0.640625
1696250712026,-0.40820312,-0.82940674,0.4755249,-2.125,-0.40625,-0.0625
1696250712066,-0.3857422,-0.819397,0.48114014,-2.296875,-0.5,-0.265625
1696250712085,-0.38549805,-0.79693604,0.49627686,-0.3125,0.109375,-0.640625
1696250712125,-0.40234375,-0.81622314,0.46380615,-2.53125,-1.34375,-0.609375
1696250712169,-0.42822266,-0.8189087,0.47625732,-2.0,-1.3125,-0.84375
1696250712206,-0.4128418,-0.8272095,0.48553467,-2.921875,-0.296875,-1.296875
1696250712247,-0.40649414,-0.80914307,0.496521,-1.140625,-0.109375,-0.140625
1696250712307,-0.41015625,-0.8049927,0.47235107,2.3125,0.796875,0.046875
1696250712325,-0.41186523,-0.802063,0.48016357,-0.03125,-0.234375,0.171875
1696250712367,-0.4013672,-0.7949829,0.48309326,-2.84375,-0.875,0.3125
1696250712405,-0.4086914,-0.8052368,0.50115967,-1.15625,-0.875,0.5625
1696250712445,-0.4013672,-0.81451416,0.496521,-0.53125,0.15625,0.203125
1696250712486,-0.4140625,-0.81427,0.48602295,0.765625,0.109375,0.0625
1696250712547,-0.41625977,-0.82232666,0.4623413,0.09375,-0.796875,0.625
1696250712586,-0.4326172,-0.8154907,0.47503662,-1.78125,-1.1875,1.21875
1696250712605,-0.39746094,-0.80303955,0.49017334,-0.796875,-1.1875,0.578125
1696250712667,-0.3713379,-0.8076782,0.50164795,-0.28125,-0.875,-0.171875
1696250712707,-0.37695312,-0.78497314,0.49578857,0.171875,-0.59375,-1.640625
1696250712725,-0.4338379,-0.79571533,0.5140991,0.015625,-0.859375,-1.875
1696250712766,-0.42114258,-0.80474854,0.4887085,-0.4375,0.5625,-0.90625
1696250712824,-0.4169922,-0.8049927,0.48260498,-1.453125,0.53125,-0.578125
1696250712865,-0.41967773,-0.8074341,0.4869995,-0.46875,0.65625,0.21875
1696250712884,-0.41455078,-0.81817627,0.47869873,-3.109375,-0.296875,1.09375
1696250712924,-0.40185547,-0.80133057,0.49310303,0.21875,-0.859375,0.015625
1696250712967,-0.39990234,-0.79400635,0.49920654,0.234375,-0.390625,-0.34375
1696250713008,-0.41967773,-0.7949829,0.5062866,-1.46875,-0.640625,0.0625
1696250713047,-0.4248047,-0.78863525,0.52142334,-0.90625,-0.359375,0.390625
1696250713088,-0.41235352,-0.79693604,0.4977417,-0.515625,0.234375,1.234375
1696250713126,-0.39160156,-0.7930298,0.4989624,-0.09375,-0.46875,0.0625
1696250713189,-0.39746094,-0.81329346,0.508728,1.0,-0.078125,-0.78125
1696250713225,-0.41503906,-0.7944946,0.49749756,1.53125,0.6875,-0.640625
1696250713245,-0.4345703,-0.7971802,0.5001831,-0.40625,-0.3125,-0.640625
1696250713309,-0.42163086,-0.80474854,0.494812,-1.203125,-0.921875,1.03125
1696250713325,-0.39257812,-0.788147,0.5170288,-2.640625,0.5625,0.203125
1696250713345,-0.41430664,-0.803772,0.5001831,-1.015625,0.046875,-0.0625
1696250713387,-0.40673828,-0.8057251,0.49725342,-0.15625,0.046875,0.5
1696250713425,-0.4086914,-0.78082275,0.49993896,-0.875,-0.296875,0.46875
1696250713468,-0.4025879,-0.78375244,0.5236206,0.203125,-0.59375,-0.6875
1696250713507,-0.4086914,-0.79644775,0.5128784,-0.8125,-0.5625,0.03125
1696250713546,-0.4111328,-0.80010986,0.5128784,-0.953125,-0.0625,0.0
1696250713586,-0.40454102,-0.7954712,0.5060425,0.78125,-0.171875,-0.65625
1696250713626,-0.41210938,-0.8015747,0.49139404,-0.734375,0.4375,-0.484375
1696250713665,-0.42041016,-0.7954712,0.5101929,0.09375,1.03125,-0.296875
1696250713705,-0.40771484,-0.803772,0.5236206,-2.390625,1.65625,-1.109375
1696250713746,-0.45751953,-0.7451782,0.5722046,-1.609375,3.46875,-2.390625
1696250713785,-0.41674805,-0.79473877,0.5331421,9.90625,4.5625,0.609375
1696250713825,-0.41503906,-0.8098755,0.47113037,14.796875,1.546875,4.8125
1696250713866,-0.39086914,-0.8101196,0.46844482,11.984375,-5.421875,4.578125
1696250713906,-0.3737793,-0.85650635,0.42840576,8.03125,-2.46875,3.75
1696250713945,-0.33129883,-0.8796997,0.4557495,11.65625,-0.203125,1.0625
1696250713985,-0.42016602,-0.8399048,0.41278076,6.65625,-3.59375,-0.265625
1696250714026,-0.4482422,-0.7776489,0.43621826,3.09375,-3.171875,-1.953125
1696250714066,-0.34594727,-0.7971802,0.4454956,-6.609375,1.078125,-1.609375
1696250714109,-0.37890625,-0.82769775,0.4472046,-12.546875,-7.53125,-0.75
1696250714148,-0.48046875,-0.82232666,0.4845581,-5.484375,-5.609375,-0.796875
1696250714185,-0.39501953,-0.8242798,0.48138428,-3.90625,-1.40625,-1.484375
1696250714227,-0.37329102,-0.80841064,0.46844482,-4.40625,1.765625,0.25
1696250714269,-0.41796875,-0.8184204,0.46331787,1.59375,1.421875,0.15625
1696250714305,-0.4248047,-0.81256104,0.4640503,1.21875,-0.40625,0.359375
1696250714345,-0.42651367,-0.8115845,0.45819092,-2.46875,-0.03125,1.3125
1696250714386,-0.40405273,-0.81744385,0.48065186,-2.0,-0.484375,0.0
1696250714426,-0.4050293,-0.8411255,0.47991943,-2.640625,-1.078125,-0.515625
1696250714467,-0.41845703,-0.8128052,0.48895264,1.671875,-0.390625,-1.140625
1696250714505,-0.4177246,-0.79815674,0.47772217,2.375,0.53125,-0.484375
1696250714546,-0.41870117,-0.7905884,0.47869873,-0.421875,-0.125,-0.125
1696250714584,-0.41455078,-0.80133057,0.47357178,-1.71875,-0.484375,0.40625
1696250714625,-0.40844727,-0.8069458,0.47039795,-1.515625,-0.46875,0.109375
1696250714644,-0.4165039,-0.8062134,0.48944092,-0.78125,-0.5625,0.5625
1696250714709,-0.41503906,-0.8128052,0.47650146,-0.296875,0.0,0.921875
1696250714726,-0.41455078,-0.8128052,0.4706421,0.71875,0.015625,0.515625
1696250714766,-0.4099121,-0.8074341,0.47576904,0.171875,-0.1875,0.703125
1696250714808,-0.40966797,-0.81622314,0.47747803,-1.3125,-0.828125,0.515625
1696250714869,-0.40405273,-0.8045044,0.4784546,-0.046875,-0.125,-0.390625
1696250714885,-0.4116211,-0.8167114,0.4850464,0.578125,-0.5,-0.296875
1696250714945,-0.40698242,-0.81817627,0.48773193,1.078125,-0.75,-0.078125
1696250714965,-0.41870117,-0.8045044,0.46868896,0.640625,-0.15625,-0.015625
1696250715029,-0.4140625,-0.80181885,0.47088623,-0.96875,-0.765625,0.078125
1696250715046,-0.41430664,-0.8098755,0.48284912,-0.875,-0.890625,0.609375
1696250715107,-0.41577148,-0.8147583,0.48553467,-0.21875,-0.15625,0.4375
1696250715146,-0.41259766,-0.81427,0.48138428,0.234375,-0.625,0.578125
1696250715165,-0.4091797,-0.8069458,0.4725952,0.828125,-0.421875,0.4375
1696250715205,-0.40795898,-0.80474854,0.4725952,-0.5,-0.578125,0.0
1696250715246,-0.41186523,-0.8081665,0.47039795,-0.84375,-0.203125,0.03125
1696250715287,-0.42041016,-0.8167114,0.48358154,-0.53125,-0.953125,0.46875
1696250715329,-0.4116211,-0.81500244,0.480896,0.640625,-0.71875,-0.203125
1696250715369,-0.40722656,-0.8074341,0.47991943,1.40625,-0.34375,-0.46875
1696250715426,-0.41577148,-0.8069458,0.48284912,0.6875,-0.34375,0.1875
1696250715446,-0.42285156,-0.80841064,0.4862671,-0.1875,-0.71875,0.296875
1696250715488,-0.40795898,-0.8032837,0.49017334,0.203125,-0.109375,0.125
1696250715528,-0.40356445,-0.81036377,0.46917725,0.4375,-0.796875,0.71875
1696250715586,-0.40771484,-0.81427,0.47747803,0.453125,-0.828125,0.8125
1696250715607,-0.41845703,-0.8135376,0.4701538,0.359375,-0.171875,0.1875
1696250715667,-0.41992188,-0.80841064,0.4611206,-1.375,-0.5625,-0.046875
1696250715687,-0.41064453,-0.81134033,0.480896,-0.609375,-1.203125,0.125
1696250715727,-0.41015625,-0.81744385,0.49627686,-1.765625,-0.359375,0.09375
1696250715765,-0.4189453,-0.8106079,0.48529053,-1.0,-0.421875,-0.28125
1696250715810,-0.40771484,-0.8040161,0.46868896,0.0625,-1.046875,-0.3125
1696250715846,-0.39501953,-0.8128052,0.48187256,0.734375,0.484375,0.1875
1696250715887,-0.42651367,-0.8088989,0.48358154,0.625,-0.359375,0.0
1696250715926,-0.42333984,-0.81036377,0.47869873,2.078125,0.40625,0.9375
1696250715947,-0.4152832,-0.800354,0.49139404,3.8125,1.234375,1.125
1696250715986,-0.41918945,-0.815979,0.48406982,4.765625,0.296875,3.078125
1696250716026,-0.42895508,-0.83062744,0.46551514,4.671875,-1.140625,3.484375
1696250716065,-0.40161133,-0.81817627,0.45184326,7.234375,-0.984375,2.46875
1696250716107,-0.36791992,-0.81866455,0.43548584,2.140625,-2.21875,0.78125
1696250716146,-0.39794922,-0.8164673,0.4208374,0.265625,0.03125,0.921875
1696250716186,-0.3569336,-0.8584595,0.4467163,-1.40625,-0.15625,-0.453125
1696250716225,-0.41430664,-0.833313,0.4537964,-3.90625,-1.828125,0.765625
1696250716267,-0.43896484,-0.82232666,0.44451904,-1.03125,-3.96875,-0.859375
1696250716311,-0.3984375,-0.8255005,0.47991943,-4.0,-1.65625,-2.390625
1696250716345,-0.38256836,-0.8128052,0.47991943,-0.03125,0.984375,-0.625
1696250716386,-0.41601562,-0.8201294,0.44744873,0.828125,0.25,0.984375
1696250716425,-0.39526367,-0.83135986,0.4545288,-1.375,-0.78125,1.25
1696250716467,-0.39941406,-0.8106079,0.46014404,-0.265625,0.40625,-0.140625
1696250716506,-0.42163086,-0.8208618,0.44989014,-2.0,-1.328125,-0.09375
1696250716546,-0.40673828,-0.8237915,0.4557495,-0.53125,-0.65625,0.9375
1696250716584,-0.41796875,-0.83258057,0.47821045,-0.59375,-0.140625,-0.078125
1696250716627,-0.3972168,-0.8196411,0.45941162,0.3125,0.765625,0.109375
1696250716667,-0.38549805,-0.81622314,0.4647827,0.1875,-1.125,0.015625
1696250716706,-0.40234375,-0.81573486,0.47357178,1.25,-0.1875,-0.5
1696250716746,-0.42211914,-0.8242798,0.46087646,-1.203125,-1.078125,-0.40625
1696250716786,-0.40039062,-0.8167114,0.465271,-0.703125,-0.421875,-0.125
1696250716826,-0.4033203,-0.8233032,0.45648193,-0.203125,-0.1875,-0.46875
1696250716865,-0.42089844,-0.82110596,0.46966553,-0.46875,-0.140625,0.46875
1696250716905,-0.39941406,-0.82598877,0.45526123,-0.171875,-0.796875,0.1875
1696250716945,-0.39526367,-0.8118286,0.4628296,-0.53125,-0.5625,0.265625
1696250716988,-0.4111328,-0.82110596,0.46624756,-2.375,-1.15625,0.03125
1696250717028,-0.40795898,-0.8154907,0.47161865,-2.53125,-1.46875,-0.5625
1696250717068,-0.39282227,-0.8135376,0.46624756,-2.640625,-0.03125,-1.296875
1696250717109,-0.41235352,-0.80352783,0.4628296,-1.671875,-0.328125,-0.671875
1696250717146,-0.4230957,-0.8218384,0.4869995,-0.4375,-0.34375,-0.34375
1696250717184,-0.4169922,-0.8064575,0.48016357,1.515625,-0.34375,-0.359375
1696250717226,-0.40307617,-0.8081665,0.4647827,0.796875,-0.34375,0.0
1696250717269,-0.41381836,-0.81085205,0.47381592,0.125,0.03125,0.375
1696250717285,-0.40942383,-0.817688,0.47161865,-1.140625,-0.671875,0.203125
1696250717325,-0.4169922,-0.8045044,0.47650146,-0.15625,0.171875,0.25
1696250717366,-0.4182129,-0.8115845,0.47821045,-0.515625,-0.625,0.15625
1696250717406,-0.40771484,-0.81500244,0.4784546,-0.84375,-0.25,0.171875
1696250717446,-0.4050293,-0.8093872,0.47381592,-0.921875,-0.015625,0.15625
1696250717489,-0.41723633,-0.80841064,0.479187,-1.640625,-0.3125,-0.03125
1696250717526,-0.41601562,-0.815979,0.47503662,-1.890625,-0.75,-0.3125
1696250717565,-0.4104004,-0.815979,0.48187256,-0.765625,0.109375,-0.15625
1696250717606,-0.41918945,-0.8118286,0.480896,-1.28125,-0.84375,-1.078125
1696250717667,-0.42382812,-0.8023071,0.4784546,-0.9375,-0.28125,-0.796875
1696250717684,-0.40014648,-0.7949829,0.479187,-0.34375,0.0,-0.640625
1696250717746,-0.41723633,-0.7984009,0.4977417,-0.09375,-0.734375,-0.828125
1696250717787,-0.43188477,-0.81695557,0.47503662,1.015625,-0.0625,0.421875
1696250717804,-0.41088867,-0.8076782,0.48016357,-0.734375,-0.328125,0.46875
1696250717845,-0.41210938,-0.79156494,0.48162842,-0.671875,-0.3125,0.1875
1696250717885,-0.42529297,-0.8130493,0.4935913,-0.984375,-0.109375,-0.078125
1696250717947,-0.421875,-0.80596924,0.480896,-0.421875,-0.296875,0.34375
1696250717965,-0.4111328,-0.7888794,0.48480225,-1.0,-0.046875,-0.28125
1696250718027,-0.42407227,-0.8135376,0.49432373,-2.0625,-0.359375,0.5
1696250718045,-0.40698242,-0.8027954,0.5009155,-1.25,0.0625,-0.296875
1696250718088,-0.42358398,-0.8010864,0.48602295,-1.234375,-0.5,-0.890625
1696250718127,-0.42163086,-0.80841064,0.4953003,-1.078125,-0.5,-1.171875
1696250718189,-0.4255371,-0.7932739,0.5001831,-1.828125,-0.6875,-1.0625
1696250718226,-0.42651367,-0.7793579,0.49383545,-1.171875,-1.046875,-0.84375
1696250718247,-0.42529297,-0.7949829,0.49554443,-1.25,-0.84375,-0.46875
1696250718288,-0.42919922,-0.7925415,0.5109253,-0.359375,-0.234375,-0.25
1696250718324,-0.41796875,-0.78790283,0.49945068,-1.4375,0.5,0.03125
1696250718365,-0.41552734,-0.7859497,0.5055542,-0.921875,-0.6875,-0.328125
1696250718404,-0.41967773,-0.78741455,0.49261475,-1.28125,-1.015625,-0.359375
1696250718464,-0.42919922,-0.788147,0.49920654,-0.8125,0.0625,-0.546875
1696250718484,-0.4189453,-0.7827759,0.5060425,-2.171875,-0.15625,-0.125
1696250718527,-0.43774414,-0.79351807,0.5038452,-0.78125,0.28125,0.765625
1696250718588,-0.43896484,-0.7901001,0.5075073,-0.796875,-0.4375,0.234375
1696250718591,-0.42041016,-0.7854614,0.508728,-0.890625,-0.65625,0.5625
1696250718627,-0.42382812,-0.7966919,0.5109253,-0.546875,-0.734375,0.28125
1696250718666,-0.4321289,-0.79351807,0.52093506,2.015625,-0.28125,-0.234375
1696250718708,-0.42773438,-0.79156494,0.510437,2.0,0.125,0.09375
1696250718746,-0.42895508,-0.77227783,0.49798584,0.078125,-0.0625,0.171875
1696250718788,-0.4272461,-0.7842407,0.5031128,-0.40625,-0.234375,0.40625
1696250718828,-0.4194336,-0.7959595,0.5067749,-1.765625,-0.65625,0.484375
1696250718866,-0.41845703,-0.79034424,0.5109253,-1.796875,-0.75,0.125
1696250718905,-0.42285156,-0.7930298,0.50775146,-0.734375,-0.46875,-0.1875
1696250718946,-0.421875,-0.7883911,0.51556396,-0.609375,-0.140625,-0.71875
1696250718986,-0.43603516,-0.786438,0.5114136,-0.6875,-0.40625,-0.03125
1696250719026,-0.42504883,-0.7854614,0.5075073,-1.03125,-0.484375,0.09375
1696250719065,-0.4248047,-0.7896118,0.5140991,-1.078125,-0.578125,-0.328125
1696250719104,-0.42456055,-0.772522,0.5097046,-0.421875,-0.328125,-0.234375
1696250719147,-0.43554688,-0.78619385,0.5109253,-1.015625,-0.1875,0.375
1696250719185,-0.4230957,-0.786438,0.5248413,-0.578125,-0.4375,0.421875
1696250719225,-0.42773438,-0.76934814,0.51727295,-1.0,-0.34375,-0.09375
1696250719267,-0.42700195,-0.7732544,0.51776123,-1.171875,-0.390625,0.0
1696250719304,-0.42163086,-0.7883911,0.5272827,-1.046875,0.046875,-0.15625
1696250719347,-0.44311523,-0.7908325,0.50335693,0.078125,-1.578125,0.734375
1696250719385,-0.4326172,-0.7810669,0.512146,-0.328125,-0.671875,0.3125
1696250719428,-0.42138672,-0.78009033,0.52679443,-1.375,0.46875,0.09375
1696250719466,-0.43823242,-0.7744751,0.5272827,-1.265625,-0.09375,-0.890625
1696250719506,-0.42236328,-0.7764282,0.5297241,-1.0,0.140625,0.15625
1696250719547,-0.42944336,-0.7698364,0.54071045,0.21875,0.890625,0.65625
1696250719588,-0.44018555,-0.769104,0.5426636,3.1875,-1.171875,1.96875
1696250719627,-0.4489746,-0.78448486,0.52874756,8.625,-2.28125,2.546875
1696250719666,-0.45874023,-0.8086548,0.5153198,11.140625,-1.625,3.96875
1696250719706,-0.4050293,-0.81378174,0.5067749,10.96875,-1.984375,3.96875
1696250719746,-0.38891602,-0.7810669,0.44354248,9.328125,-1.390625,3.84375
1696250719785,-0.4152832,-0.80548096,0.43548584,9.953125,-0.8125,3.5625
1696250719827,-0.40307617,-0.8362427,0.4537964,3.5625,-3.640625,3.03125
1696250719866,-0.36743164,-0.80548096,0.45037842,-1.78125,-1.296875,0.171875
1696250719886,-0.3647461,-0.78253174,0.4430542,-2.46875,1.125,-1.609375
1696250719927,-0.43041992,-0.83062744,0.47283936,-6.875,-2.765625,0.28125
1696250719967,-0.4658203,-0.8320923,0.4940796,-6.5625,-4.40625,-0.6875
1696250720006,-0.4013672,-0.79571533,0.47894287,0.421875,1.171875,-2.125
1696250720049,-0.38623047,-0.7942505,0.4647827,-1.203125,0.640625,1.328125
1696250720088,-0.4230957,-0.8272095,0.4694214,-2.40625,-1.046875,1.53125
1696250720127,-0.42773438,-0.8218384,0.47698975,0.765625,-0.96875,-0.0625
1696250720166,-0.3942871,-0.80059814,0.48773193,0.65625,-0.921875,0.03125
1696250720225,-0.42407227,-0.80792236,0.49017334,-0.328125,-0.3125,-0.375
1696250720245,-0.4248047,-0.81988525,0.4845581,1.453125,-0.59375,-0.859375
1696250720287,-0.41723633,-0.8213501,0.46624756,1.203125,-0.234375,0.359375
1696250720328,-0.4177246,-0.8093872,0.4664917,-0.625,0.421875,0.59375
1696250720386,-0.4243164,-0.8069458,0.4694214,-1.28125,-1.078125,0.171875
1696250720425,-0.40795898,-0.80059814,0.47625732,-1.5625,-0.53125,0.1875
1696250720445,-0.4033203,-0.7908325,0.49139404,-1.671875,0.4375,-0.421875
1696250720488,-0.42895508,-0.8167114,0.49310303,-1.96875,0.03125,0.3125
1696250720524,-0.42163086,-0.8206177,0.48065186,0.609375,-0.328125,0.734375
1696250720568,-0.4111328,-0.78912354,0.4743042,0.515625,-0.734375,-0.546875
1696250720608,-0.41601562,-0.80718994,0.47381592,-0.671875,-0.703125,-0.25
1696250720646,-0.41845703,-0.7991333,0.48529053,-1.25,-0.46875,0.1875
1696250720710,-0.41674805,-0.81207275,0.48724365,-0.609375,-1.25,-0.140625
1696250720725,-0.41601562,-0.8081665,0.49139404,-1.515625,-1.296875,-0.359375
1696250720789,-0.40893555,-0.79522705,0.4862671,-0.875,0.0625,-0.484375
1696250720825,-0.41625977,-0.7998657,0.48797607,0.671875,0.546875,0.125
1696250720865,-0.43139648,-0.8027954,0.4755249,-0.78125,-0.6875,0.140625
1696250720906,-0.42163086,-0.8106079,0.4833374,-0.171875,-0.421875,0.078125
1696250720925,-0.4182129,-0.8045044,0.4911499,-0.46875,0.421875,0.140625
1696250720965,-0.42089844,-0.80133057,0.4887085,-0.1875,-0.5,0.1875
1696250721006,-0.40673828,-0.800354,0.48480225,0.296875,-0.140625,-0.109375
1696250721046,-0.4243164,-0.80255127,0.49212646,-1.28125,-0.390625,0.078125
1696250721108,-0.42285156,-0.79937744,0.48968506,-0.5,-0.84375,0.078125
1696250721124,-0.4104004,-0.803772,0.4911499,-0.375,0.109375,-0.390625
1696250721190,-0.42407227,-0.8010864,0.48846436,-0.984375,-0.375,0.140625
1696250721227,-0.4255371,-0.802063,0.5006714,-0.796875,-0.171875,-0.015625
1696250721230,-0.41625977,-0.8074341,0.48919678,-0.84375,-0.265625,0.0
1696250721266,-0.42407227,-0.78692627,0.49578857,0.40625,0.109375,-0.21875
1696250721307,-0.42016602,-0.79815674,0.49212646,-0.171875,-0.40625,0.734375
1696250721347,-0.4206543,-0.8040161,0.4821167,-1.0625,0.25,-0.265625
1696250721387,-0.41918945,-0.8027954,0.49334717,-0.34375,0.21875,0.296875
1696250721424,-0.42773438,-0.7991333,0.494812,-0.390625,-0.828125,0.0625
1696250721465,-0.41748047,-0.80792236,0.5018921,1.28125,-0.84375,0.203125
1696250721505,-0.42138672,-0.7774048,0.4960327,3.984375,-1.125,2.046875
1696250721545,-0.3876953,-0.802063,0.4887085,4.125,-0.375,5.234375
1696250721586,-0.41577148,-0.8225708,0.4796753,0.046875,-2.125,1.296875
1696250721625,-0.43286133,-0.8440552,0.50335693,1.828125,1.671875,-2.078125
1696250721666,-0.3972168,-0.8052368,0.48236084,-2.84375,0.15625,-0.90625
1696250721709,-0.41259766,-0.7815552,0.46307373,-0.5,1.0,-0.25
1696250721745,-0.44018555,-0.8154907,0.49017334,-1.5625,-1.609375,0.28125
1696250721787,-0.39648438,-0.8123169,0.50994873,-3.21875,-0.40625,0.421875
1696250721827,-0.4025879,-0.7737427,0.49554443,-2.171875,-0.28125,-0.40625
1696250721867,-0.40234375,-0.7786255,0.4953003,-0.046875,0.09375,0.109375
1696250721907,-0.42211914,-0.8233032,0.50457764,0.0,-0.015625,0.40625
1696250721947,-0.41625977,-0.8164673,0.4923706,-1.34375,-0.125,0.328125
1696250721988,-0.41088867,-0.78570557,0.48358154,0.0625,0.296875,0.15625
1696250722027,-0.4194336,-0.7979126,0.4923706,-0.890625,-0.140625,-0.234375
1696250722066,-0.4182129,-0.8184204,0.49578857,-0.71875,-0.4375,0.03125
1696250722106,-0.40698242,-0.8062134,0.5067749,-0.265625,-0.171875,0.28125
1696250722146,-0.41845703,-0.7896118,0.4977417,0.9375,0.34375,-0.015625
1696250722187,-0.41088867,-0.8052368,0.50115967,0.875,-0.015625,-0.375
1696250722226,-0.4111328,-0.78912354,0.49310303,-0.265625,-0.421875,-0.1875
1696250722266,-0.42333984,-0.79156494,0.49847412,-1.6875,-0.59375,-0.234375
1696250722306,-0.40844727,-0.8057251,0.50115967,-0.546875,-0.203125,0.53125
1696250722346,-0.4182129,-0.8049927,0.4977417,-0.328125,-0.484375,-0.265625
1696250722386,-0.41552734,-0.79644775,0.49676514,0.59375,0.296875,-0.34375
1696250722426,-0.4189453,-0.79229736,0.49945068,-0.1875,0.046875,0.15625
1696250722466,-0.41333008,-0.7971802,0.4911499,-0.53125,-0.109375,-0.109375
1696250722508,-0.41430664,-0.78985596,0.5001831,-0.78125,0.125,-0.21875
1696250722526,-0.42260742,-0.79766846,0.50701904,-1.25,-0.578125,0.125
1696250722565,-0.4074707,-0.80010986,0.49993896,-1.453125,-0.40625,-0.21875
1696250722607,-0.41357422,-0.7974243,0.5097046,-0.828125,-0.515625,-0.53125
1696250722669,-0.41992188,-0.78863525,0.51190186,-0.78125,-0.4375,-0.734375
1696250722707,-0.42138672,-0.7962036,0.5060425,-0.296875,0.265625,0.34375
1696250722724,-0.41552734,-0.786438,0.50213623,-0.578125,-0.84375,0.21875
1696250722766,-0.41210938,-0.79815674,0.50775146,-0.40625,-0.171875,0.046875
1696250722806,-0.41308594,-0.80352783,0.5067749,-1.4375,-0.578125,0.015625
1696250722846,-0.41333008,-0.7932739,0.5133667,-0.03125,-0.515625,0.109375
1696250722887,-0.4189453,-0.7905884,0.5128784,-0.171875,-0.546875,0.09375
1696250722927,-0.4169922,-0.79473877,0.5097046,-0.09375,-0.28125,0.265625
1696250722965,-0.40844727,-0.79644775,0.5133667,0.078125,-0.125,0.15625
1696250723007,-0.4182129,-0.7871704,0.5050659,-0.609375,-0.46875,-0.015625
1696250723067,-0.42016602,-0.79107666,0.50701904,-0.875,-0.109375,0.21875
1696250723085,-0.41333008,-0.7905884,0.51239014,-0.203125,0.265625,0.421875
1696250723150,-0.42578125,-0.79229736,0.5067749,0.015625,-0.40625,0.296875
1696250723165,-0.41381836,-0.788147,0.5206909,1.203125,-0.046875,0.5625
1696250723207,-0.40649414,-0.7815552,0.5153198,-0.046875,0.140625,0.171875
1696250723266,-0.41503906,-0.7888794,0.50531006,-0.28125,-0.734375,-0.34375
1696250723309,-0.42333984,-0.78790283,0.508728,-0.21875,0.453125,-0.078125
1696250723325,-0.4182129,-0.798645,0.5150757,-1.046875,0.40625,-0.0625
1696250723387,-0.4128418,-0.7876587,0.5206909,-1.296875,0.53125,-0.078125
1696250723405,-0.42089844,-0.77716064,0.53045654,1.5625,1.90625,0.46875
1696250723447,-0.43164062,-0.79888916,0.52215576,3.5,-0.171875,2.390625
1696250723486,-0.43017578,-0.7991333,0.50946045,3.71875,-1.390625,2.578125
1696250723545,-0.39282227,-0.7954712,0.5133667,2.921875,-1.40625,0.640625
1696250723565,-0.38549805,-0.800354,0.5009155,1.4375,-1.703125,1.125
