,timestamp,accel_x,accel_y,accel_z,gyro_x,gyro_y,gyro_z,ind
0,1696254238361,0.4975586,-0.26837158,-0.7559204,-1.03125,-0.25,-0.265625,0
1,1696254238401,0.4958496,-0.270813,-0.75909424,-0.78125,-0.6875,-0.1875,1
2,1696254238441,0.49853516,-0.269104,-0.76275635,-1.140625,-0.765625,-0.375,2
3,1696254238481,0.4963379,-0.27227783,-0.7617798,-1.546875,-1.21875,-0.34375,3
4,1696254238521,0.5046387,-0.27838135,-0.76397705,-1.5,-1.46875,-0.46875,4
5,1696254238561,0.50805664,-0.27667236,-0.7620239,-1.671875,-1.609375,-0.21875,5
6,1696254238601,0.50634766,-0.27764893,-0.76348877,-2.015625,-1.703125,-0.265625,6
7,1696254238641,0.5070801,-0.2810669,-0.7571411,-1.953125,-1.59375,-0.375,7
8,1696254238681,0.5046387,-0.28448486,-0.7522583,-1.796875,-2.0625,-0.25,8
9,1696254238721,0.5114746,-0.28375244,-0.7554321,-1.5,-1.96875,-0.09375,9
10,1696254238761,0.52197266,-0.28863525,-0.7593384,0.203125,-0.875,0.328125,10
11,1696254238801,0.4946289,-0.29229736,-0.737854,5.140625,0.53125,1.96875,11
12,1696254238841,0.41845703,-0.25079346,-0.7276001,5.125,-9.734375,3.390625,12
13,1696254238881,0.53222656,-0.2366333,-0.81207275,-3.1875,-29.015625,1.359375,13
14,1696254238921,0.80981445,-0.31085205,-0.8867798,-14.34375,-30.53125,-2.125,14
15,1696254238961,0.51660156,-0.30548096,-0.64727783,-6.859375,-14.875,-2.046875,15
16,1696254239001,0.5510254,-0.28619385,-0.5281372,-1.65625,1.453125,-0.296875,16
17,1696254239041,0.545166,-0.28424072,-0.6091919,0.40625,9.984375,-0.25,17
18,1696254239081,0.54174805,-0.30523682,-0.6890259,5.765625,9.328125,2.28125,18
19,1696254239121,0.53149414,-0.27227783,-0.70098877,3.171875,5.390625,1.21875,19
20,1696254239161,0.7026367,-0.32037354,-0.9194946,-11.484375,-20.734375,-0.34375,31
21,1696254239201,0.66064453,-0.38848877,-0.75909424,-10.25,-10.96875,-3.234375,32
22,1696254239241,0.60009766,-0.32330322,-0.44244385,-0.34375,-16.234375,1.015625,33
23,1696254239281,0.453125,-0.26324463,-0.5352173,5.578125,14.578125,0.984375,34
24,1696254239321,0.47338867,-0.2769165,-0.5630493,5.796875,15.25,2.09375,35
25,1696254239361,0.58251953,-0.30181885,-0.6851196,2.015625,7.765625,0.21875,36
26,1696254239401,0.5500488,-0.3184204,-0.71881104,4.4375,4.296875,0.90625,37
27,1696254239441,0.59814453,-0.31036377,-0.74542236,3.046875,1.8125,0.90625,38
28,1696254239481,0.6035156,-0.3196411,-0.78985596,2.28125,0.28125,1.09375,39
29,1696254239521,0.60961914,-0.31207275,-0.77593994,-0.546875,-1.875,0.125,40
30,1696254239561,0.5830078,-0.27667236,-0.85943604,-8.015625,-9.5625,-1.875,41
31,1696254239601,0.7766113,-0.36749268,-0.6621704,-21.828125,-10.515625,-7.34375,42
32,1696254239641,0.49682617,-0.27764893,-0.5967407,-10.25,-14.46875,-4.671875,43
33,1696254239681,0.48413086,-0.3418579,-0.522522,2.046875,14.578125,-0.9375,44
34,1696254239721,0.44458008,-0.30108643,-0.48394775,11.71875,13.09375,3.390625,45
35,1696254239761,0.5246582,-0.29815674,-0.66534424,5.578125,6.59375,3.0,46
36,1696254239801,0.56152344,-0.31988525,-0.7632446,5.875,1.15625,2.921875,47
37,1696254239841,0.6201172,-0.32525635,-0.79644775,3.109375,-2.78125,1.75,48
38,1696254239881,0.6323242,-0.3345337,-0.82647705,-0.234375,-8.609375,1.109375,49
39,1696254239921,0.6647949,-0.31207275,-0.90997314,-11.8125,-12.375,-2.296875,50
40,1696254239961,0.6074219,-0.3899536,-0.6255493,-13.734375,-12.8125,-3.84375,51
41,1696254240001,0.5229492,-0.32061768,-0.43804932,-2.109375,-10.71875,-0.875,52
42,1696254240041,0.46484375,-0.28253174,-0.5088501,12.3125,17.4375,4.59375,53
43,1696254240081,0.48706055,-0.27960205,-0.5745239,8.109375,14.921875,3.0,54
44,1696254240121,0.54467773,-0.30010986,-0.706604,7.59375,10.359375,2.078125,55
45,1696254240161,0.5695801,-0.31280518,-0.7151489,8.75,8.78125,2.34375,56
46,1696254240201,0.5629883,-0.30889893,-0.75201416,10.609375,12.796875,2.234375,57
47,1696254240241,0.5698242,-0.28424072,-0.83721924,9.046875,15.75,0.984375,58
48,1696254240281,0.56518555,-0.2835083,-0.87335205,7.109375,11.828125,-0.359375,59
49,1696254240321,0.51782227,-0.26715088,-0.83184814,3.609375,8.46875,-1.015625,60
50,1696254240361,0.47973633,-0.26226807,-0.77301025,2.0625,7.390625,-1.09375,61
51,1696254240401,0.45361328,-0.2522583,-0.7432251,1.21875,4.21875,-0.859375,62
52,1696254240441,0.43969727,-0.2510376,-0.72491455,-1.203125,0.109375,-0.625,63
53,1696254240481,0.46533203,-0.25933838,-0.7571411,-1.890625,-3.0625,-0.296875,64
54,1696254240521,0.48168945,-0.2588501,-0.77349854,-1.25,-3.828125,-0.171875,65
55,1696254240561,0.4970703,-0.2649536,-0.7888794,-1.234375,-3.578125,0.125,66
56,1696254240601,0.50683594,-0.2654419,-0.81134033,-1.578125,-3.59375,0.15625,67
57,1696254240641,0.52319336,-0.26861572,-0.8040161,0.796875,-3.609375,0.921875,68
58,1696254240681,0.4584961,-0.26763916,-0.7542114,3.78125,-6.3125,2.140625,69
59,1696254240721,0.4321289,-0.22125244,-0.7202759,-2.484375,-22.9375,2.28125,70
60,1696254240761,0.6113281,-0.30181885,-0.8377075,-13.4375,-32.171875,-1.28125,71
61,1696254240801,0.7089844,-0.28814697,-0.6692505,-16.578125,-25.46875,-4.09375,72
62,1696254240841,0.57666016,-0.29742432,-0.6409302,-5.078125,-15.453125,-1.484375,73
63,1696254240881,0.5432129,-0.2991333,-0.58477783,-3.515625,6.203125,-2.0,74
64,1696254240921,0.53881836,-0.30889893,-0.62945557,1.921875,10.90625,1.03125,75
65,1696254240961,0.5449219,-0.2798462,-0.6538696,8.859375,13.8125,3.140625,76
66,1696254241001,0.5541992,-0.2774048,-0.74053955,5.921875,8.78125,1.90625,77
67,1696254241041,0.58447266,-0.29205322,-0.7666626,1.984375,2.234375,0.625,78
68,1696254241081,0.54956055,-0.29058838,-0.7503052,1.3125,1.015625,0.375,79
69,1696254241121,0.5427246,-0.28668213,-0.83135986,-4.796875,-12.40625,0.125,80
70,1696254241161,0.888916,-0.31915283,-0.7217407,-25.71875,-25.90625,-5.9375,81
71,1696254241201,0.53100586,-0.27252197,-0.79351807,-7.328125,-15.75,-3.203125,82
72,1696254241241,0.5107422,-0.33599854,-0.5105591,-0.046875,12.015625,-1.828125,83
73,1696254241281,0.48657227,-0.29742432,-0.5491333,5.03125,14.921875,1.640625,84
74,1696254241321,0.5126953,-0.29888916,-0.61016846,7.890625,17.21875,2.515625,85
75,1696254241361,0.5102539,-0.28326416,-0.75128174,8.90625,10.28125,2.96875,86
76,1696254241401,0.5905762,-0.3045044,-0.8093872,3.59375,2.0,1.015625,87
77,1696254241441,0.59765625,-0.31939697,-0.87213135,-0.625,-5.609375,0.59375,88
78,1696254241481,0.5822754,-0.28912354,-0.84259033,-8.421875,-17.5625,-1.03125,89
79,1696254241521,0.7302246,-0.3821411,-0.68292236,-17.28125,-5.75,-5.21875,90
80,1696254241561,0.52563477,-0.28424072,-0.5471802,-11.28125,-14.75,-3.859375,91
81,1696254241601,0.50439453,-0.34039307,-0.57354736,4.171875,13.078125,0.609375,92
82,1696254241641,0.45263672,-0.27374268,-0.54644775,4.953125,10.671875,1.640625,93
83,1696254241681,0.5078125,-0.31207275,-0.6375122,4.78125,7.765625,1.171875,94
84,1696254241721,0.5300293,-0.30499268,-0.7571411,5.0,2.671875,2.328125,95
85,1696254241761,0.58496094,-0.32354736,-0.772522,2.421875,-1.65625,1.375,96
86,1696254241801,0.62353516,-0.33917236,-0.8479614,-1.109375,-8.03125,0.9375,97
87,1696254241841,0.7602539,-0.35430908,-0.95806885,-10.3125,-15.21875,-1.0625,98
88,1696254241881,0.564209,-0.3015747,-0.7439575,-3.484375,-2.5625,-0.21875,99
89,1696254241921,0.47680664,-0.30963135,-0.50787354,-3.671875,1.75,-2.125,100
90,1696254241961,0.52490234,-0.3015747,-0.62286377,2.640625,7.546875,0.53125,101
91,1696254242001,0.5041504,-0.29742432,-0.62457275,2.0625,5.921875,0.125,102
92,1696254242041,0.5163574,-0.30743408,-0.65093994,2.15625,4.09375,-0.109375,103
93,1696254242081,0.54589844,-0.3225708,-0.72979736,2.3125,0.1875,0.671875,104
94,1696254242121,0.46704102,-0.2859497,-0.6843872,0.765625,-3.859375,0.625,121
95,1696254242161,0.47265625,-0.29718018,-0.736145,3.5625,-5.90625,2.546875,122
96,1696254242201,0.45385742,-0.2539673,-0.7822876,-1.609375,-26.796875,3.609375,123
97,1696254242241,0.82910156,-0.3430786,-0.8623657,-20.140625,-32.765625,-3.078125,124
98,1696254242281,0.5444336,-0.33892822,-0.7803345,-4.859375,-5.453125,-1.90625,125
99,1696254242321,0.5527344,-0.32769775,-0.4776001,-4.0625,-1.921875,-2.75,126
100,1696254242361,0.52563477,-0.31207275,-0.6182251,2.875,13.0625,0.171875,127
101,1696254242401,0.5114746,-0.3008423,-0.64263916,5.8125,8.5,2.25,128
102,1696254242441,0.5048828,-0.29351807,-0.6934204,3.625,6.015625,1.03125,129
103,1696254242481,0.5698242,-0.31402588,-0.7300415,0.953125,-0.703125,0.5625,130
104,1696254242521,0.57470703,-0.31988525,-0.75323486,0.953125,-3.6875,1.03125,131
105,1696254242561,0.5966797,-0.32403564,-0.79522705,-1.203125,-7.90625,1.25,132
106,1696254242601,0.78759766,-0.33135986,-0.8587036,-19.75,-24.1875,-3.28125,133
107,1696254242641,0.51904297,-0.29937744,-0.8032837,-4.78125,-9.703125,-1.640625,134
108,1696254242681,0.5390625,-0.3394165,-0.43170166,0.3125,1.125,-1.515625,135
109,1696254242721,0.51708984,-0.32086182,-0.5630493,4.15625,15.625,0.40625,136
110,1696254242761,0.51782227,-0.29742432,-0.5886841,5.84375,13.0625,1.546875,137
111,1696254242801,0.5263672,-0.32061768,-0.66363525,6.65625,9.640625,1.6875,138
112,1696254242841,0.56030273,-0.31256104,-0.7732544,5.0,3.140625,1.890625,139
113,1696254242881,0.5979004,-0.33892822,-0.7835083,1.09375,-0.890625,0.90625,140
114,1696254242921,0.6191406,-0.33062744,-0.8245239,-1.578125,-6.921875,0.640625,141
115,1696254242961,0.6452637,-0.3340454,-0.79107666,-7.671875,-9.09375,-1.15625,142
116,1696254243001,0.6311035,-0.32769775,-0.73394775,-11.1875,-9.34375,-2.578125,143
117,1696254243041,0.5488281,-0.31573486,-0.59210205,-6.546875,-3.09375,-2.25,144
118,1696254243081,0.49926758,-0.3164673,-0.5376587,-2.140625,1.90625,-1.125,145
119,1696254243121,0.49926758,-0.3189087,-0.5745239,1.6875,4.796875,0.234375,146
120,1696254243161,0.5344238,-0.32867432,-0.6668091,3.53125,7.0,0.671875,147
121,1696254243201,0.5722656,-0.3460083,-0.71099854,3.34375,1.71875,1.46875,148
122,1696254243241,0.60375977,-0.35064697,-0.7842407,2.234375,-0.5625,1.234375,149
123,1696254243281,0.64746094,-0.36749268,-0.81915283,-2.78125,-2.390625,-0.4375,150
124,1696254243321,0.6218262,-0.33746338,-0.8245239,-9.890625,-10.890625,-1.546875,151
125,1696254243361,0.66381836,-0.37213135,-0.65289307,-16.859375,-17.921875,-2.125,152
126,1696254243401,0.50512695,-0.3213501,-0.5166626,-4.140625,-9.171875,-2.25,153
127,1696254243441,0.4963379,-0.33087158,-0.49664307,2.90625,10.03125,0.09375,154
128,1696254243481,0.52563477,-0.32843018,-0.6050415,2.890625,10.765625,-0.59375,155
129,1696254243521,0.54296875,-0.36798096,-0.6812134,4.015625,9.5625,0.328125,156
130,1696254243561,0.58251953,-0.36383057,-0.69488525,2.984375,0.296875,0.859375,157
131,1696254243601,0.60791016,-0.37017822,-0.7671509,2.453125,0.859375,0.8125,158
132,1696254243641,0.6269531,-0.37335205,-0.7842407,-0.171875,-1.515625,0.703125,159
133,1696254243681,0.62353516,-0.36236572,-0.8206177,-4.296875,-6.203125,0.359375,160
134,1696254243721,0.69262695,-0.37823486,-0.72540283,-17.90625,-19.890625,-1.703125,161
135,1696254243761,0.5358887,-0.32720947,-0.53375244,-6.296875,-13.515625,-2.03125,162
136,1696254243801,0.4777832,-0.35284424,-0.41412354,4.40625,4.8125,-0.328125,163
137,1696254243841,0.5168457,-0.3279419,-0.56744385,3.9375,16.15625,-0.59375,164
138,1696254243881,0.53466797,-0.34918213,-0.67974854,4.828125,16.109375,-0.546875,165
139,1696254243921,0.5671387,-0.37213135,-0.6663208,4.296875,7.484375,0.109375,166
140,1696254243961,0.5722656,-0.3867798,-0.68096924,13.578125,13.296875,2.296875,167
141,1696254244001,0.53759766,-0.35186768,-0.7334595,21.375,15.21875,5.515625,168
142,1696254244041,0.55322266,-0.30743408,-0.8335571,14.140625,6.84375,4.59375,169
143,1696254244081,0.5517578,-0.29571533,-0.79644775,8.515625,4.9375,2.5,170
144,1696254244121,0.53808594,-0.28814697,-0.7793579,4.609375,4.46875,0.90625,171
145,1696254244161,0.51049805,-0.2835083,-0.7451782,2.1875,4.703125,-0.34375,172
146,1696254244201,0.49731445,-0.28863525,-0.7451782,1.53125,4.203125,-0.671875,173
147,1696254244241,0.48779297,-0.28570557,-0.7527466,0.921875,2.234375,-0.3125,174
148,1696254244281,0.49487305,-0.28497314,-0.7593384,0.34375,0.09375,-0.25,175
149,1696254244321,0.5090332,-0.28570557,-0.772522,-0.390625,-1.15625,-0.0625,176
150,1696254244361,0.5114746,-0.28033447,-0.76397705,-0.78125,-1.609375,-0.171875,177
151,1696254244401,0.5058594,-0.28399658,-0.76812744,-0.53125,-2.484375,0.3125,178
152,1696254244441,0.4921875,-0.2942505,-0.7527466,1.0,-4.546875,1.234375,179
153,1696254244481,0.44970703,-0.2564087,-0.74957275,-2.890625,-19.859375,2.375,180
154,1696254244521,0.6125488,-0.3057251,-0.79644775,-16.65625,-33.09375,-1.328125,181
155,1696254244561,0.7285156,-0.33966064,-0.6795044,-12.4375,-18.03125,-3.21875,182
156,1696254244601,0.5229492,-0.28741455,-0.5942993,-6.359375,-12.5,-1.84375,183
157,1696254244641,0.5378418,-0.32281494,-0.6084595,-0.0625,8.671875,-0.515625,184
158,1696254244681,0.50634766,-0.2991333,-0.59552,4.671875,10.9375,1.359375,185
159,1696254244721,0.5432129,-0.29522705,-0.6565552,3.21875,7.015625,1.25,186
160,1696254244761,0.53759766,-0.3201294,-0.723938,1.734375,-0.390625,0.96875,187
161,1696254244801,0.6147461,-0.32281494,-0.76690674,-0.46875,-1.640625,0.078125,188
162,1696254244841,0.5925293,-0.32183838,-0.7385864,0.078125,-2.359375,0.515625,189
163,1696254244881,0.57666016,-0.31280518,-0.756897,-1.375,-4.390625,0.625,190
164,1696254244921,0.65722656,-0.33233643,-0.7893677,-11.28125,-16.5625,-2.09375,191
165,1696254244961,0.5444336,-0.3291626,-0.69122314,-4.28125,-3.375,-1.0625,192
166,1696254245001,0.53344727,-0.30889893,-0.47686768,-4.65625,-3.796875,-2.734375,193
167,1696254245041,0.529541,-0.32305908,-0.58135986,1.28125,9.90625,-1.1875,194
168,1696254245081,0.5,-0.31549072,-0.6218872,6.015625,12.265625,0.859375,195
169,1696254245121,0.53222656,-0.32989502,-0.67926025,9.5625,10.484375,3.15625,196
170,1696254245161,0.5866699,-0.31866455,-0.8008423,4.125,1.1875,1.84375,197
171,1696254245201,0.60791016,-0.34381104,-0.8128052,0.4375,-4.890625,1.078125,198
172,1696254245241,0.6245117,-0.31304932,-0.8088989,-5.0625,-12.234375,0.109375,199
173,1696254245281,0.67163086,-0.33599854,-0.81085205,-20.0,-19.578125,-4.765625,200
174,1696254245321,0.5390625,-0.32159424,-0.5906372,-12.59375,-12.25,-4.5625,201
175,1696254245361,0.54125977,-0.38189697,-0.4204712,0.8125,-0.421875,0.15625,202
176,1696254245401,0.50756836,-0.30767822,-0.58258057,4.15625,10.5,1.078125,203
177,1696254245441,0.52368164,-0.32891846,-0.5779419,4.4375,10.109375,0.703125,204
178,1696254245481,0.5666504,-0.35772705,-0.67681885,5.953125,7.625,1.875,205
179,1696254245521,0.6044922,-0.34942627,-0.7564087,3.734375,3.0,1.375,206
180,1696254245561,0.6188965,-0.35186768,-0.7788696,1.5625,-2.453125,1.28125,207
181,1696254245601,0.60913086,-0.34796143,-0.7649536,-0.53125,-3.046875,0.59375,208
182,1696254245641,0.6455078,-0.35211182,-0.7984009,-10.03125,-11.625,-1.21875,209
183,1696254245681,0.5625,-0.33917236,-0.6741333,-4.453125,-2.078125,-0.84375,210
184,1696254245721,0.51586914,-0.31573486,-0.5083618,-3.609375,-2.9375,-1.6875,211
185,1696254245761,0.5131836,-0.32891846,-0.5786743,3.4375,12.546875,-0.140625,212
186,1696254245801,0.4897461,-0.32159424,-0.61138916,6.0625,11.171875,0.953125,213
187,1696254245841,0.5456543,-0.34283447,-0.70196533,8.484375,5.625,2.296875,214
188,1696254245881,0.6062012,-0.34552002,-0.80914307,4.296875,0.96875,1.609375,215
189,1696254245921,0.6074219,-0.35235596,-0.7991333,0.828125,-4.0625,1.15625,216
190,1696254245961,0.61621094,-0.33306885,-0.83599854,-4.140625,-10.015625,0.3125,217
191,1696254246001,0.6765137,-0.39801025,-0.6838989,-14.09375,-11.9375,-2.765625,218
192,1696254246041,0.4892578,-0.30718994,-0.5586548,-10.203125,-12.796875,-2.78125,219
193,1696254246081,0.5349121,-0.331604,-0.52593994,2.59375,8.078125,0.3125,220
194,1696254246121,0.48046875,-0.32965088,-0.54644775,7.375,16.53125,1.28125,221
195,1696254246161,0.47924805,-0.31695557,-0.585022,14.796875,13.953125,3.3125,222
196,1696254246201,0.5349121,-0.31134033,-0.710022,17.828125,12.21875,4.59375,223
197,1696254246241,0.56347656,-0.30108643,-0.7839966,14.765625,9.234375,3.890625,224
198,1696254246281,0.58618164,-0.2913208,-0.86260986,8.90625,7.21875,1.96875,225
199,1696254246321,0.57910156,-0.29815674,-0.88726807,0.40625,3.5625,-0.453125,226
200,1696254246361,0.54711914,-0.29571533,-0.7937622,-0.625,3.046875,-0.8125,227
201,1696254246401,0.5078125,-0.284729,-0.74224854,-0.546875,3.3125,-0.8125,228
202,1696254246441,0.48120117,-0.26715088,-0.70928955,-0.375,1.875,-0.65625,229
203,1696254246481,0.4650879,-0.27008057,-0.7022095,-0.25,0.625,-0.359375,230
204,1696254246521,0.47753906,-0.27008057,-0.7180786,-0.140625,-1.28125,-0.125,231
205,1696254246561,0.50561523,-0.28448486,-0.7564087,0.015625,-1.671875,-0.140625,232
206,1696254246601,0.52978516,-0.28692627,-0.7815552,-0.140625,-1.6875,0.03125,233
207,1696254246641,0.53930664,-0.29327393,-0.79888916,0.03125,-2.078125,0.421875,234
208,1696254246681,0.5510254,-0.2930298,-0.8093872,1.328125,-1.578125,0.9375,235
209,1696254246721,0.4482422,-0.2876587,-0.7227173,4.0,-7.515625,2.625,236
210,1696254246761,0.47314453,-0.22735596,-0.80059814,-7.65625,-34.359375,1.703125,237
211,1696254246801,0.8154297,-0.33892822,-0.64923096,-24.453125,-34.03125,-5.03125,238
212,1696254246841,0.47485352,-0.2612915,-0.6177368,-4.328125,-18.015625,-1.4375,239
213,1696254246881,0.55737305,-0.31524658,-0.54400635,-0.21875,12.65625,-0.859375,240
214,1696254246921,0.5500488,-0.3015747,-0.6223755,2.765625,12.78125,1.015625,241
215,1696254246961,0.5493164,-0.3015747,-0.6824341,6.921875,9.515625,2.546875,242
216,1696254247001,0.5773926,-0.29327393,-0.725647,4.109375,7.53125,1.203125,243
217,1696254247041,0.5739746,-0.31573486,-0.7542114,1.359375,-1.078125,0.84375,244
218,1696254247081,0.5930176,-0.3093872,-0.7498169,-0.171875,-2.453125,0.390625,245
219,1696254247121,0.5666504,-0.30303955,-0.7559204,-1.828125,-7.046875,0.5,246
220,1696254247161,0.6359863,-0.3045044,-0.87213135,-11.5,-16.53125,-2.234375,247
221,1696254247201,0.61621094,-0.3555298,-0.62945557,-7.65625,-7.1875,-3.125,248
222,1696254247241,0.5378418,-0.30303955,-0.40875244,-2.375,-2.125,-1.4375,249
223,1696254247281,0.53686523,-0.30255127,-0.59625244,1.75,11.0,-0.46875,250
224,1696254247321,0.51171875,-0.31304932,-0.65875244,5.140625,10.15625,1.078125,251
225,1696254247361,0.57006836,-0.32159424,-0.6904907,5.96875,7.21875,2.171875,252
226,1696254247401,0.55078125,-0.30645752,-0.78326416,5.0625,2.890625,2.6875,253
227,1696254247441,0.6208496,-0.32110596,-0.77545166,-0.34375,-3.078125,0.328125,254
228,1696254247481,0.59521484,-0.3147583,-0.7654419,-1.84375,-5.046875,0.015625,255
229,1696254247521,0.5480957,-0.28082275,-0.7683716,-10.03125,-12.484375,-3.109375,256
230,1696254247561,0.69262695,-0.3880005,-0.61968994,-8.90625,-1.78125,-3.796875,257
231,1696254247601,0.52368164,-0.29937744,-0.5383911,-4.546875,-1.125,-2.09375,258
232,1696254247641,0.51708984,-0.3213501,-0.6096802,2.84375,5.875,1.171875,259
233,1696254247681,0.51049805,-0.31573486,-0.6231079,3.046875,5.140625,1.8125,260
234,1696254247721,0.5595703,-0.3201294,-0.6548462,5.859375,4.5,2.765625,261
235,1696254247761,0.5751953,-0.32110596,-0.7559204,4.390625,2.453125,2.046875,262
236,1696254247801,0.6125488,-0.3189087,-0.7815552,1.15625,-0.90625,0.703125,263
237,1696254247841,0.59399414,-0.3213501,-0.75128174,0.921875,-3.09375,0.59375,264
238,1696254247881,0.63183594,-0.3201294,-0.80596924,-4.140625,-5.75,-0.828125,265
239,1696254247921,0.6242676,-0.3267212,-0.7312622,-6.265625,-3.625,-2.09375,266
240,1696254247961,0.47680664,-0.2942505,-0.56622314,-3.578125,-0.4375,-1.65625,267
241,1696254248001,0.48632812,-0.30426025,-0.5742798,-0.421875,2.6875,-0.03125,268
242,1696254248041,0.5209961,-0.315979,-0.64068604,1.140625,3.71875,0.3125,269
243,1696254248081,0.5551758,-0.32061768,-0.694397,3.28125,2.890625,1.421875,270
244,1696254248121,0.5720215,-0.32965088,-0.74835205,3.578125,2.296875,1.828125,271
245,1696254248161,0.6062012,-0.33233643,-0.77178955,1.265625,-2.21875,1.203125,272
246,1696254248201,0.59375,-0.3196411,-0.75445557,-0.4375,-2.65625,0.203125,273
247,1696254248241,0.6142578,-0.32574463,-0.80059814,-4.53125,-7.625,-0.828125,274
248,1696254248281,0.59375,-0.32598877,-0.7012329,-6.96875,-5.40625,-2.03125,275
249,1696254248321,0.5004883,-0.31256104,-0.5586548,-3.03125,1.234375,-1.4375,276
250,1696254248361,0.51123047,-0.31573486,-0.59869385,0.0625,2.578125,-0.15625,277
251,1696254248401,0.5258789,-0.32061768,-0.66363525,0.296875,3.140625,0.015625,278
252,1696254248441,0.5515137,-0.3369751,-0.67071533,4.171875,6.234375,1.4375,279
253,1696254248481,0.5510254,-0.33087158,-0.71099854,9.65625,10.078125,3.328125,280
254,1696254248521,0.5517578,-0.30841064,-0.74786377,10.234375,8.109375,4.125,281
255,1696254248561,0.5546875,-0.2937622,-0.7671509,9.0625,5.65625,3.28125,282
256,1696254248601,0.54248047,-0.27618408,-0.7661743,6.75,4.203125,2.234375,283
257,1696254248641,0.5371094,-0.28497314,-0.74957275,5.359375,4.296875,1.015625,284
258,1696254248681,0.5214844,-0.27471924,-0.7600708,4.9375,4.59375,0.34375,285
259,1696254248721,0.4951172,-0.25933838,-0.7449341,4.015625,4.609375,-0.28125,286
260,1696254248761,0.4970703,-0.25933838,-0.74591064,2.03125,3.203125,-0.328125,287
261,1696254248801,0.5007324,-0.26202393,-0.767395,0.6875,2.0625,-0.28125,288
262,1696254248841,0.5061035,-0.2617798,-0.7600708,-0.265625,0.609375,-0.375,289
263,1696254248881,0.51049805,-0.25787354,-0.78302,-1.09375,-0.09375,-0.515625,290
264,1696254248921,0.50683594,-0.2588501,-0.76885986,-1.203125,-1.171875,-0.484375,291
265,1696254248961,0.50439453,-0.2630005,-0.7632446,-1.03125,-2.0,0.0,292
266,1696254249001,0.5119629,-0.26446533,-0.7774048,-0.140625,-3.859375,0.5625,293
267,1696254249041,0.4362793,-0.25445557,-0.7385864,2.203125,-12.0625,2.828125,294
268,1696254249081,0.55493164,-0.24249268,-0.7605591,-8.015625,-39.09375,3.421875,295
269,1696254249121,0.69506836,-0.29595947,-0.7798462,-12.75,-11.5625,-3.484375,296
270,1696254249161,0.5383301,-0.25836182,-0.62750244,-5.65625,-5.46875,-2.203125,297
271,1696254249201,0.5427246,-0.28863525,-0.6519165,-2.15625,4.015625,-1.5,298
272,1696254249241,0.5371094,-0.28692627,-0.66363525,1.109375,6.078125,0.203125,299
273,1696254249281,0.52612305,-0.28399658,-0.69073486,4.40625,3.546875,2.140625,300
274,1696254249321,0.5612793,-0.2769165,-0.7078247,0.953125,1.515625,0.5,301
275,1696254249361,0.56518555,-0.29571533,-0.7737427,0.875,-3.0625,0.8125,302
276,1696254249401,0.576416,-0.28009033,-0.73101807,-2.875,-7.359375,-0.140625,303
277,1696254249441,0.6743164,-0.3086548,-0.88116455,-12.90625,-16.5,-2.796875,304
278,1696254249481,0.5944824,-0.34136963,-0.78863525,-4.640625,-3.359375,-1.8125,305
279,1696254249521,0.55029297,-0.300354,-0.4710083,-1.15625,-0.265625,-1.25,306
280,1696254249561,0.5163574,-0.28912354,-0.5742798,1.953125,8.09375,0.171875,307
281,1696254249601,0.4963379,-0.29766846,-0.6140747,4.96875,8.078125,2.15625,308
282,1696254249641,0.5366211,-0.28814697,-0.66119385,6.453125,6.96875,3.03125,309
283,1696254249681,0.58154297,-0.28179932,-0.7620239,3.015625,-0.046875,1.90625,310
284,1696254249721,0.61157227,-0.30645752,-0.7901001,0.203125,-0.859375,0.5625,311
285,1696254249761,0.6191406,-0.30352783,-0.78448486,-1.5,-4.84375,0.28125,312
286,1696254249801,0.58496094,-0.2822876,-0.8484497,-8.234375,-11.125,-2.421875,313
287,1696254249841,0.72387695,-0.3970337,-0.6506958,-16.828125,-7.40625,-4.6875,314
288,1696254249881,0.53759766,-0.24835205,-0.538147,-8.078125,-14.671875,-3.875,315
289,1696254249921,0.50097656,-0.3196411,-0.5459595,2.703125,16.09375,-0.984375,316
290,1696254249961,0.47705078,-0.300354,-0.60357666,5.609375,13.046875,1.09375,317
291,1696254250001,0.5280762,-0.31134033,-0.6914673,6.03125,7.984375,1.78125,318
292,1696254250041,0.54345703,-0.315979,-0.74884033,3.546875,1.046875,2.21875,319
293,1696254250081,0.5961914,-0.32940674,-0.7835083,1.25,-1.5625,1.578125,320
294,1696254250121,0.61987305,-0.3189087,-0.7942505,0.0625,-4.1875,0.890625,321
295,1696254250161,0.6225586,-0.32891846,-0.8032837,-0.9375,-4.984375,0.5625,322
296,1696254250201,0.6555176,-0.3045044,-0.7937622,-10.515625,-11.4375,-1.890625,323
297,1696254250241,0.51049805,-0.29815674,-0.6746216,-3.109375,1.609375,-1.71875,324
298,1696254250281,0.50756836,-0.3184204,-0.57159424,1.0625,5.734375,-0.078125,325
299,1696254250321,0.48950195,-0.2942505,-0.60723877,2.859375,8.109375,0.921875,326
300,1696254250361,0.5280762,-0.30377197,-0.6433716,3.734375,1.765625,1.421875,327
301,1696254250401,0.5493164,-0.3147583,-0.74835205,4.90625,3.59375,2.28125,328
302,1696254250441,0.5983887,-0.32037354,-0.76275635,1.515625,-1.59375,1.1875,329
303,1696254250481,0.6203613,-0.32965088,-0.81085205,0.28125,-2.0625,0.46875,330
304,1696254250521,0.59521484,-0.32330322,-0.79522705,-0.765625,-3.0625,0.359375,331
305,1696254250561,0.6147461,-0.31134033,-0.8081665,-7.046875,-9.65625,-0.921875,332
306,1696254250601,0.595459,-0.33892822,-0.63604736,-8.640625,-2.953125,-3.546875,333
307,1696254250641,0.49316406,-0.30914307,-0.4968872,-1.078125,0.09375,-0.9375,334
308,1696254250681,0.49267578,-0.2979126,-0.61968994,2.0625,8.078125,-0.078125,335
309,1696254250721,0.5427246,-0.31549072,-0.6531372,3.921875,3.421875,1.484375,336
310,1696254250761,0.5505371,-0.32281494,-0.7185669,5.03125,4.90625,1.9375,337
311,1696254250801,0.58496094,-0.31866455,-0.7456665,5.15625,4.046875,2.140625,338
312,1696254250841,0.5866699,-0.32476807,-0.75128174,7.546875,6.390625,2.421875,339
313,1696254250881,0.55493164,-0.2991333,-0.7671509,8.65625,5.546875,2.78125,340
314,1696254250921,0.5517578,-0.28033447,-0.7564087,6.5625,5.546875,1.359375,341
315,1696254250961,0.53100586,-0.27618408,-0.7432251,3.875,4.265625,0.46875,342
316,1696254251001,0.50805664,-0.2666626,-0.6963501,4.390625,6.359375,-0.0625,343
317,1696254251041,0.50024414,-0.2630005,-0.71954346,5.921875,8.34375,0.140625,344
318,1696254251081,0.49804688,-0.25933838,-0.76763916,5.546875,8.140625,0.328125,345
319,1696254251121,0.49975586,-0.25811768,-0.8076782,3.421875,6.09375,-0.109375,346
320,1696254251161,0.5024414,-0.25787354,-0.8147583,0.4375,2.625,-0.328125,347
321,1696254251201,0.5048828,-0.25543213,-0.8093872,-2.265625,-1.03125,-0.78125,348
322,1696254251241,0.49072266,-0.25543213,-0.76031494,-2.296875,-2.65625,-0.421875,349
323,1696254251281,0.49121094,-0.25494385,-0.7695923,-1.875,-3.9375,0.0,350
324,1696254251321,0.501709,-0.26104736,-0.77423096,-0.25,-3.296875,0.59375,351
325,1696254251361,0.43603516,-0.25250244,-0.75201416,0.6875,-13.609375,2.53125,352
326,1696254251401,0.51464844,-0.21539307,-0.77789307,-12.234375,-36.953125,0.328125,353
327,1696254251441,0.78637695,-0.2991333,-0.67852783,-20.34375,-25.171875,-5.3125,354
328,1696254251481,0.49682617,-0.2564087,-0.6277466,-7.09375,-14.40625,-2.78125,355
329,1696254251521,0.53344727,-0.31573486,-0.6013794,1.0,12.71875,-0.75,356
330,1696254251561,0.5185547,-0.3008423,-0.62213135,4.3125,12.765625,1.328125,357
331,1696254251601,0.52783203,-0.2942505,-0.7178345,6.859375,6.875,2.1875,358
332,1696254251641,0.5266113,-0.28204346,-0.74664307,3.03125,2.015625,1.953125,359
333,1696254251681,0.5756836,-0.2954712,-0.75079346,-0.03125,-3.53125,0.546875,360
334,1696254251721,0.5649414,-0.2954712,-0.7720337,-1.25,-7.390625,0.765625,361
335,1696254251761,0.6921387,-0.27227783,-0.86016846,-16.0625,-21.9375,-4.140625,362
336,1696254251801,0.54833984,-0.33184814,-0.7788696,-7.984375,2.015625,-4.0625,363
337,1696254251841,0.58984375,-0.35968018,-0.43023682,-4.875,-1.9375,-1.859375,364
338,1696254251881,0.5124512,-0.3081665,-0.59942627,5.828125,12.53125,1.546875,365
339,1696254251921,0.4987793,-0.28936768,-0.6734009,4.484375,8.59375,1.765625,366
340,1696254251961,0.55249023,-0.31866455,-0.67388916,6.03125,3.96875,2.28125,367
341,1696254252001,0.5571289,-0.29644775,-0.7522583,3.484375,0.296875,1.921875,368
342,1696254252041,0.60375977,-0.32086182,-0.7925415,1.1875,-3.78125,1.203125,369
343,1696254252081,0.60546875,-0.28790283,-0.77911377,-3.84375,-10.734375,-0.046875,370
344,1696254252121,0.69433594,-0.3213501,-0.82354736,-13.265625,-12.078125,-4.890625,371
345,1696254252161,0.5463867,-0.34552002,-0.66778564,-6.6875,0.5625,-3.265625,372
346,1696254252201,0.5263672,-0.34576416,-0.6165161,2.546875,8.296875,0.09375,373
347,1696254252241,0.49194336,-0.29840088,-0.56817627,4.640625,6.96875,1.859375,374
348,1696254252281,0.5131836,-0.30303955,-0.663147,3.453125,3.796875,1.828125,375
349,1696254252321,0.5385742,-0.3123169,-0.67559814,6.203125,3.21875,2.78125,376
350,1696254252361,0.59472656,-0.31622314,-0.7744751,2.171875,-1.265625,1.734375,377
351,1696254252401,0.61499023,-0.32232666,-0.78570557,0.109375,-4.625,0.921875,378
352,1696254252441,0.6586914,-0.3093872,-0.8880005,-6.53125,-9.4375,-1.9375,379
353,1696254252481,0.66845703,-0.36383057,-0.72662354,-14.296875,-6.96875,-3.859375,380
354,1696254252521,0.5083008,-0.3135376,-0.50323486,-7.609375,-9.578125,-2.484375,381
355,1696254252561,0.47924805,-0.3110962,-0.5862427,4.78125,7.890625,1.15625,382
356,1696254252601,0.5109863,-0.3110962,-0.61676025,3.8125,8.625,1.359375,383
357,1696254252641,0.53125,-0.31817627,-0.6526489,3.046875,2.359375,0.953125,384
358,1696254252681,0.5720215,-0.32354736,-0.73394775,2.359375,0.234375,0.71875,385
359,1696254252721,0.6123047,-0.34918213,-0.7930298,0.765625,-1.828125,0.71875,386
360,1696254252761,0.65966797,-0.35772705,-0.8442993,-2.234375,-5.96875,0.375,387
361,1696254252801,0.6176758,-0.35211182,-0.7337036,-12.046875,-12.34375,-1.90625,388
362,1696254252841,0.5500488,-0.33233643,-0.5977173,-10.125,-14.203125,-1.5625,389
363,1696254252881,0.53222656,-0.31158447,-0.52178955,-1.5,-2.4375,-0.5,390
364,1696254252921,0.53564453,-0.33013916,-0.6116333,3.09375,12.25,0.140625,391
365,1696254252961,0.5307617,-0.33624268,-0.6199341,4.1875,6.59375,0.859375,392
366,1696254253001,0.5563965,-0.3423462,-0.6255493,6.90625,9.578125,1.421875,393
367,1696254253041,0.5708008,-0.3496704,-0.70684814,12.09375,10.71875,3.59375,394
368,1696254253081,0.56933594,-0.33062744,-0.72857666,16.390625,10.8125,5.53125,395
369,1696254253121,0.5583496,-0.284729,-0.753479,13.890625,9.328125,4.9375,396
370,1696254253161,0.5551758,-0.26446533,-0.7715454,9.40625,10.0,2.640625,397
371,1696254253201,0.5498047,-0.2744751,-0.80670166,5.546875,9.765625,0.53125,398
372,1696254253241,0.51220703,-0.2720337,-0.79107666,4.59375,7.390625,-0.65625,399
373,1696254253281,0.49951172,-0.26104736,-0.7481079,2.78125,5.296875,-0.78125,400
374,1696254253321,0.47436523,-0.25201416,-0.7366333,1.859375,2.75,-0.375,401
375,1696254253361,0.48535156,-0.25982666,-0.7913208,-2.375,-0.5,-0.59375,402
376,1696254253401,0.51464844,-0.26324463,-0.78570557,-3.921875,-3.859375,-0.609375,403
377,1696254253441,0.5239258,-0.2695923,-0.77667236,-2.75,-3.171875,-0.4375,404
378,1696254253481,0.513916,-0.26593018,-0.76812744,-2.515625,-2.765625,-0.328125,405
379,1696254253521,0.50927734,-0.27105713,-0.7608032,-1.0625,-2.9375,0.171875,406
380,1696254253561,0.513916,-0.27301025,-0.7625122,1.34375,-3.8125,1.078125,407
381,1696254253601,0.42700195,-0.26715088,-0.769104,1.59375,-13.765625,2.890625,408
382,1696254253641,0.5612793,-0.24786377,-0.72369385,-7.96875,-32.890625,1.515625,409
383,1696254253681,0.6958008,-0.29205322,-0.7493286,-16.484375,-23.984375,-4.046875,410
384,1696254253721,0.5163574,-0.3008423,-0.6802368,-8.484375,-7.0625,-2.71875,411
385,1696254253761,0.5720215,-0.3267212,-0.55181885,-2.734375,3.171875,-1.640625,412
386,1696254253801,0.54052734,-0.3027954,-0.65338135,1.515625,7.046875,0.171875,413
387,1696254253841,0.54052734,-0.2991333,-0.6548462,4.109375,6.796875,1.46875,414
388,1696254253881,0.53637695,-0.3032837,-0.6831665,3.921875,5.59375,1.65625,415
389,1696254253921,0.58813477,-0.29986572,-0.72979736,1.375,-2.765625,1.390625,416
390,1696254253961,0.592041,-0.31011963,-0.7420044,-0.109375,-3.8125,0.859375,417
391,1696254254001,0.5827637,-0.2901001,-0.8308716,-6.765625,-11.953125,-0.5625,418
392,1696254254041,0.7766113,-0.35845947,-0.7144165,-18.859375,-15.796875,-4.46875,419
393,1696254254081,0.54418945,-0.28326416,-0.68707275,-12.171875,-14.046875,-3.59375,420
394,1696254254121,0.52075195,-0.33721924,-0.54034424,3.8125,15.421875,-0.328125,421
395,1696254254161,0.5083008,-0.30523682,-0.57232666,2.140625,9.265625,0.03125,422
396,1696254254201,0.53881836,-0.31866455,-0.66485596,5.71875,8.984375,1.734375,423
397,1696254254241,0.54296875,-0.32305908,-0.66534424,6.9375,4.46875,3.234375,424
398,1696254254281,0.6064453,-0.30670166,-0.7588501,3.8125,-1.203125,2.34375,425
399,1696254254321,0.6208496,-0.34014893,-0.79400635,0.59375,-2.671875,1.015625,426
400,1696254254361,0.6359863,-0.31988525,-0.80718994,-2.859375,-6.46875,-0.21875,427
401,1696254254401,0.69311523,-0.3411255,-0.68951416,-13.90625,-13.296875,-2.84375,428
402,1696254254441,0.51586914,-0.29449463,-0.5444946,-8.015625,-8.71875,-2.703125,429
403,1696254254481,0.54003906,-0.31573486,-0.56695557,0.15625,7.296875,-0.546875,430
404,1696254254521,0.5305176,-0.31671143,-0.62286377,1.84375,5.546875,-0.0625,431
405,1696254254561,0.5422363,-0.333313,-0.6248169,3.671875,7.09375,0.8125,432
406,1696254254601,0.5554199,-0.32598877,-0.6897583,4.53125,3.5625,2.046875,433
407,1696254254641,0.60253906,-0.3357544,-0.75567627,2.765625,-0.09375,1.5,434
408,1696254254681,0.6269531,-0.34429932,-0.7605591,0.59375,-2.703125,1.078125,435
409,1696254254721,0.6032715,-0.33795166,-0.7510376,-0.734375,-3.5,0.9375,436
410,1696254254761,0.6875,-0.3399048,-0.7300415,-8.703125,-9.4375,-1.578125,437
411,1696254254801,0.5222168,-0.28985596,-0.6182251,-3.71875,-2.109375,-1.875,438
412,1696254254841,0.53344727,-0.31011963,-0.565979,-1.5625,1.53125,-0.921875,439
413,1696254254881,0.52441406,-0.32989502,-0.6226196,1.15625,3.9375,-0.078125,440
414,1696254254921,0.56030273,-0.3250122,-0.65582275,3.265625,3.71875,1.03125,441
415,1696254254961,0.5734863,-0.33428955,-0.7139282,2.9375,1.671875,1.78125,442
416,1696254255001,0.61572266,-0.34649658,-0.75079346,1.609375,-1.21875,1.1875,443
417,1696254255041,0.6010742,-0.3508911,-0.7305298,2.53125,-2.609375,1.921875,444
418,1696254255081,0.6291504,-0.32232666,-0.7515259,0.5625,-3.234375,2.171875,445
419,1696254255121,0.6159668,-0.3201294,-0.7107544,-8.40625,-7.53125,-1.90625,446
420,1696254255161,0.5307617,-0.3118286,-0.5654907,-1.265625,-1.328125,-0.609375,447
421,1696254255201,0.53100586,-0.31036377,-0.6226196,4.546875,5.546875,0.8125,448
422,1696254255241,0.51782227,-0.3118286,-0.6428833,4.390625,6.125,0.734375,449
423,1696254255281,0.57836914,-0.32720947,-0.70147705,4.171875,4.65625,1.015625,450
424,1696254255321,0.5859375,-0.32281494,-0.73101807,4.5,3.65625,1.328125,451
425,1696254255361,0.59350586,-0.3303833,-0.7263794,6.4375,5.984375,1.890625,452
426,1696254255401,0.5612793,-0.3040161,-0.71466064,7.875,8.8125,2.484375,453
427,1696254255441,0.54711914,-0.2822876,-0.7293091,5.796875,7.765625,1.84375,454
428,1696254255481,0.54345703,-0.2793579,-0.753479,4.328125,6.078125,0.875,455
429,1696254255521,0.529541,-0.27471924,-0.7334595,3.453125,3.359375,0.625,456
430,1696254255561,0.5239258,-0.27593994,-0.71881104,3.765625,3.140625,0.203125,457
431,1696254255601,0.5358887,-0.2695923,-0.7420044,4.78125,4.8125,0.171875,458
432,1696254255641,0.5258789,-0.26715088,-0.75909424,3.46875,4.515625,0.140625,459
433,1696254255681,0.5251465,-0.25787354,-0.7666626,1.53125,2.875,-0.0625,460
434,1696254255721,0.5214844,-0.2617798,-0.77227783,-0.21875,0.71875,-0.28125,461
435,1696254255761,0.5102539,-0.26812744,-0.7654419,-1.203125,-0.21875,-0.296875,462
436,1696254255801,0.5097656,-0.26397705,-0.7559204,-0.90625,-0.640625,-0.109375,463
437,1696254255841,0.5078125,-0.26080322,-0.75860596,-0.375,-1.515625,0.4375,464
438,1696254255881,0.47460938,-0.2637329,-0.7485962,0.53125,-7.375,1.515625,465
439,1696254255921,0.4831543,-0.24932861,-0.7149048,-4.671875,-23.09375,1.828125,466
440,1696254255961,0.66918945,-0.30841064,-0.8518677,-14.21875,-23.75,-1.625,467
441,1696254256001,0.64941406,-0.31500244,-0.70562744,-9.3125,-4.171875,-3.25,468
442,1696254256041,0.5493164,-0.2883911,-0.5996704,-5.484375,-2.625,-2.609375,469
443,1696254256081,0.5539551,-0.29766846,-0.66412354,0.0625,5.78125,-0.65625,470
444,1696254256121,0.5175781,-0.3057251,-0.673645,2.4375,3.203125,0.75,471
445,1696254256161,0.5332031,-0.29840088,-0.6790161,2.03125,2.59375,1.328125,472
446,1696254256201,0.55810547,-0.2925415,-0.71295166,1.546875,-0.125,1.203125,473
447,1696254256241,0.5930176,-0.29986572,-0.74957275,-0.265625,-3.6875,0.578125,474
448,1696254256281,0.5944824,-0.31304932,-0.7564087,-0.65625,-2.34375,0.3125,475
449,1696254256321,0.57299805,-0.30548096,-0.75665283,-2.0625,-6.75,0.515625,476
450,1696254256361,0.62475586,-0.29864502,-0.70098877,-4.78125,-5.28125,-1.328125,477
451,1696254256401,0.5419922,-0.2913208,-0.62750244,-1.21875,1.78125,-0.1875,478
452,1696254256441,0.56225586,-0.29742432,-0.68170166,-1.0625,3.375,-0.734375,479
453,1696254256481,0.54418945,-0.3086548,-0.6873169,1.046875,3.171875,0.1875,480
454,1696254256521,0.5593262,-0.2966919,-0.68634033,1.828125,1.4375,0.875,481
455,1696254256561,0.560791,-0.30523682,-0.7151489,1.0,0.046875,1.0,482
456,1696254256601,0.6003418,-0.29937744,-0.7424927,0.859375,-1.9375,0.8125,483
457,1696254256641,0.61083984,-0.30474854,-0.7539673,0.5625,-0.6875,0.78125,484
458,1696254256681,0.5817871,-0.29205322,-0.7144165,0.0625,-0.734375,0.3125,485
459,1696254256721,0.57714844,-0.28985596,-0.7710571,-4.6875,-5.671875,-1.203125,486
460,1696254256761,0.6286621,-0.3123169,-0.7085571,-9.21875,-4.40625,-2.5,487
461,1696254256801,0.5217285,-0.29473877,-0.57891846,-4.03125,-3.0625,-1.390625,488
462,1696254256841,0.53759766,-0.32330322,-0.6338501,0.28125,2.078125,0.03125,489
463,1696254256881,0.5539551,-0.31036377,-0.6543579,3.03125,2.65625,1.296875,490
464,1696254256921,0.5708008,-0.3057251,-0.70513916,3.171875,2.03125,1.421875,491
465,1696254256961,0.57543945,-0.31451416,-0.72540283,3.40625,1.6875,1.34375,492
466,1696254257001,0.59765625,-0.30963135,-0.74005127,0.46875,-0.8125,0.375,493
467,1696254257041,0.5871582,-0.31549072,-0.7439575,-0.828125,-1.953125,-0.09375,494
468,1696254257081,0.60961914,-0.31304932,-0.7749634,-4.75,-6.0625,-0.65625,495
469,1696254257121,0.6057129,-0.3250122,-0.67559814,-11.28125,-12.359375,-2.5625,496
470,1696254257161,0.532959,-0.31036377,-0.51519775,-2.8125,-4.359375,-0.6875,497
471,1696254257201,0.55444336,-0.3098755,-0.6321411,2.359375,4.25,0.59375,498
472,1696254257241,0.56469727,-0.31988525,-0.6824341,1.703125,4.625,0.171875,499
473,1696254257281,0.58862305,-0.32232666,-0.68634033,2.125,3.4375,0.4375,500
474,1696254257321,0.5744629,-0.3201294,-0.7061157,2.71875,4.015625,1.03125,501
475,1696254257361,0.5859375,-0.32086182,-0.7070923,1.75,1.203125,0.9375,502
476,1696254257401,0.5822754,-0.3147583,-0.74420166,1.03125,-0.09375,0.9375,503
477,1696254257441,0.5932617,-0.30718994,-0.7559204,-2.109375,-2.15625,-0.453125,504
478,1696254257481,0.6586914,-0.31378174,-0.74298096,-10.359375,-8.828125,-2.671875,505
479,1696254257521,0.5358887,-0.3320923,-0.6062622,-4.171875,-5.4375,-1.390625,506
480,1696254257561,0.49731445,-0.31256104,-0.5967407,5.34375,6.90625,1.640625,507
481,1696254257601,0.52197266,-0.29962158,-0.642395,6.0625,6.5625,2.34375,508
482,1696254257641,0.5656738,-0.30426025,-0.6880493,6.09375,3.609375,2.5625,509
483,1696254257681,0.58154297,-0.31451416,-0.70806885,6.75,4.234375,2.171875,510
484,1696254257721,0.5751953,-0.31036377,-0.72076416,10.5,7.0625,3.390625,511
485,1696254257761,0.5822754,-0.28277588,-0.75494385,7.828125,5.953125,2.84375,512
486,1696254257801,0.56762695,-0.27349854,-0.7632446,4.90625,5.75,1.765625,513
487,1696254257841,0.5529785,-0.26861572,-0.75738525,3.796875,5.6875,0.84375,514
488,1696254257881,0.546875,-0.26397705,-0.75079346,2.40625,5.296875,-0.34375,515
489,1696254257921,0.5332031,-0.26885986,-0.74957275,1.171875,6.65625,-1.21875,516
490,1696254257961,0.50683594,-0.2715454,-0.71832275,2.734375,9.125,-1.421875,517
491,1696254258001,0.49145508,-0.2588501,-0.7593384,2.8125,9.578125,-1.171875,518
492,1696254258041,0.49682617,-0.2637329,-0.76812744,1.59375,5.953125,-0.828125,519
493,1696254258081,0.49926758,-0.2564087,-0.79888916,0.25,2.78125,-0.6875,520
494,1696254258121,0.5012207,-0.2625122,-0.7876587,-0.640625,-0.34375,-0.34375,521
495,1696254258161,0.49072266,-0.25665283,-0.7737427,-1.609375,-2.5,-0.078125,522
496,1696254258201,0.4921875,-0.2630005,-0.7739868,-0.484375,-3.75,0.625,523
497,1696254258241,0.47460938,-0.26837158,-0.76031494,1.390625,-7.40625,1.75,524
498,1696254258281,0.42944336,-0.22930908,-0.80426025,-7.84375,-33.59375,1.890625,525
499,1696254258321,0.80249023,-0.3743286,-0.9607544,-24.140625,-28.296875,-5.1875,526
500,1696254258361,0.56225586,-0.2810669,-0.6121216,-9.21875,-18.75,-3.9375,527
501,1696254258401,0.5683594,-0.33892822,-0.49517822,-4.109375,3.921875,-2.421875,528
502,1696254258441,0.52563477,-0.28912354,-0.6116333,2.78125,12.609375,0.359375,529
503,1696254258481,0.5136719,-0.29229736,-0.6572876,6.390625,12.875,2.390625,530
504,1696254258521,0.5241699,-0.28692627,-0.6856079,3.84375,4.984375,2.15625,531
505,1696254258561,0.5593262,-0.2883911,-0.76397705,1.703125,-5.828125,2.0625,532
506,1696254258601,0.6213379,-0.315979,-0.7942505,-2.390625,-6.09375,0.0,533
507,1696254258641,0.66064453,-0.31280518,-0.8743286,-4.59375,-13.484375,0.59375,534
508,1696254258681,0.66259766,-0.34747314,-0.75201416,-10.296875,-3.78125,-3.640625,535
509,1696254258721,0.56274414,-0.29986572,-0.54766846,-5.03125,-4.8125,-1.90625,536
510,1696254258761,0.5097656,-0.3069458,-0.57281494,0.5,4.9375,-0.375,537
511,1696254258801,0.5234375,-0.31280518,-0.64190674,2.40625,10.015625,0.171875,538
512,1696254258841,0.5371094,-0.30596924,-0.67803955,3.890625,6.515625,1.046875,539
513,1696254258881,0.5419922,-0.31085205,-0.6934204,5.015625,2.046875,2.3125,540
514,1696254258921,0.5957031,-0.3027954,-0.76519775,1.078125,-3.015625,1.109375,541
515,1696254258961,0.6171875,-0.31744385,-0.7966919,-1.8125,-5.34375,0.015625,542
516,1696254259001,0.6784668,-0.3184204,-0.8106079,-9.34375,-10.640625,-2.609375,543
517,1696254259041,0.60717773,-0.33868408,-0.70318604,-8.234375,-2.921875,-3.453125,544
518,1696254259081,0.53466797,-0.33746338,-0.53985596,-7.609375,-5.265625,-3.203125,545
519,1696254259121,0.49902344,-0.31304932,-0.57647705,2.734375,7.3125,0.640625,546
520,1696254259161,0.49975586,-0.3045044,-0.6170044,2.484375,5.75,0.640625,547
521,1696254259201,0.53686523,-0.32696533,-0.68096924,2.765625,2.265625,1.1875,548
522,1696254259241,0.5866699,-0.3320923,-0.72198486,1.640625,-1.21875,0.9375,549
523,1696254259281,0.61279297,-0.3430786,-0.7600708,0.625,-2.65625,0.9375,550
524,1696254259321,0.6296387,-0.34747314,-0.7744751,-0.65625,-4.296875,0.78125,551
525,1696254259361,0.67993164,-0.34869385,-0.7893677,-6.5,-6.109375,-0.9375,552
526,1696254259401,0.54418945,-0.30621338,-0.616272,-4.984375,-7.75,-1.5,553
527,1696254259441,0.5126953,-0.3242798,-0.5552368,-1.546875,4.546875,-1.296875,554
528,1696254259481,0.5239258,-0.31549072,-0.6223755,1.859375,6.828125,-0.265625,555
529,1696254259521,0.5463867,-0.32891846,-0.6526489,1.6875,3.9375,0.171875,556
530,1696254259561,0.5629883,-0.3418579,-0.68829346,1.921875,2.265625,0.8125,557
531,1696254259601,0.592041,-0.33892822,-0.72369385,1.25,0.125,0.78125,558
532,1696254259641,0.6086426,-0.3501587,-0.76226807,0.90625,-1.40625,0.921875,559
533,1696254259681,0.6057129,-0.34503174,-0.7642212,-0.8125,-2.5625,0.453125,560
534,1696254259721,0.62060547,-0.34991455,-0.7542114,-4.890625,-6.90625,-0.40625,561
535,1696254259761,0.54541016,-0.32720947,-0.65167236,-5.984375,-3.609375,-1.734375,562
536,1696254259801,0.5361328,-0.3320923,-0.58721924,0.265625,1.328125,-0.21875,563
537,1696254259841,0.5397949,-0.3423462,-0.6248169,1.234375,3.609375,-0.140625,564
538,1696254259881,0.5546875,-0.32989502,-0.6445923,1.5625,2.234375,0.5,565
539,1696254259921,0.5649414,-0.3430786,-0.6658325,2.59375,3.953125,0.75,566
540,1696254259961,0.58569336,-0.36114502,-0.7241821,4.171875,5.703125,1.328125,567
541,1696254260001,0.5773926,-0.347229,-0.7371216,5.703125,7.171875,2.265625,568
542,1696254260041,0.5500488,-0.32403564,-0.6958618,8.125,8.109375,3.046875,569
543,1696254260081,0.5336914,-0.31793213,-0.7258911,7.015625,6.515625,2.5,570
544,1696254260121,0.53125,-0.2937622,-0.7156372,5.0625,3.84375,1.6875,571
545,1696254260161,0.529541,-0.29058838,-0.7246704,3.859375,3.71875,0.703125,572
546,1696254260201,0.5202637,-0.2962036,-0.74420166,3.96875,3.765625,0.234375,573
547,1696254260241,0.52685547,-0.3015747,-0.74664307,3.671875,3.640625,0.3125,574
548,1696254260281,0.5246582,-0.29718018,-0.74468994,3.734375,4.484375,0.140625,575
549,1696254260321,0.5214844,-0.2930298,-0.7720337,1.578125,3.140625,-0.40625,576
550,1696254260361,0.51293945,-0.284729,-0.755188,0.578125,1.8125,-0.390625,577
551,1696254260401,0.50878906,-0.28448486,-0.7505493,-0.53125,0.53125,-0.609375,578
552,1696254260441,0.5007324,-0.28814697,-0.7468872,-0.609375,-0.609375,-0.296875,579
553,1696254260481,0.50439453,-0.28399658,-0.7503052,-0.25,-2.078125,0.140625,580
554,1696254260521,0.5131836,-0.29205322,-0.75665283,1.203125,-3.703125,0.90625,581
555,1696254260561,0.48388672,-0.28179932,-0.75006104,2.46875,-8.453125,2.234375,582
556,1696254260601,0.51782227,-0.24249268,-0.74053955,-5.0,-29.984375,2.203125,583
557,1696254260641,0.7121582,-0.34161377,-0.84259033,-14.71875,-20.34375,-3.75,584
558,1696254260681,0.5422363,-0.31549072,-0.62994385,-5.703125,-5.6875,-2.53125,585
559,1696254260721,0.53808594,-0.31256104,-0.58477783,-0.578125,4.421875,-0.125,586
560,1696254260761,0.5505371,-0.29156494,-0.6487427,3.0,7.0625,1.15625,587
561,1696254260801,0.5246582,-0.29693604,-0.6865845,3.421875,2.890625,1.515625,588
562,1696254260841,0.56152344,-0.29718018,-0.73223877,1.25,1.90625,0.734375,589
563,1696254260881,0.5744629,-0.3093872,-0.7354126,0.03125,-5.640625,0.96875,590
564,1696254260921,0.61621094,-0.3201294,-0.76934814,-2.59375,-3.671875,-0.625,591
565,1696254260961,0.62768555,-0.3255005,-0.7612915,-3.59375,-5.203125,-1.34375,592
566,1696254261001,0.6201172,-0.30718994,-0.8052368,-8.171875,-9.34375,-2.5,593
567,1696254261041,0.5498047,-0.33184814,-0.64556885,-5.0625,0.734375,-1.84375,594
568,1696254261081,0.545166,-0.32598877,-0.54400635,-1.9375,-0.09375,-0.125,595
569,1696254261121,0.501709,-0.29034424,-0.6021118,2.671875,7.734375,1.140625,596
570,1696254261161,0.54541016,-0.3081665,-0.6824341,3.828125,4.578125,1.390625,597
571,1696254261201,0.5546875,-0.32403564,-0.6880493,4.109375,2.171875,2.015625,598
572,1696254261241,0.61694336,-0.32354736,-0.7703247,-0.40625,-3.25,0.4375,599
573,1696254261281,0.6164551,-0.33477783,-0.7612915,-0.265625,-3.15625,0.46875,600
574,1696254261321,0.61621094,-0.31939697,-0.73516846,-2.328125,-4.828125,-0.0625,601
575,1696254261361,0.623291,-0.31988525,-0.6987915,-8.359375,-9.0625,-2.671875,602
576,1696254261401,0.5114746,-0.30670166,-0.6109009,-2.734375,1.484375,-1.96875,603
577,1696254261441,0.5344238,-0.3110962,-0.5964966,1.109375,6.015625,-0.671875,604
578,1696254261481,0.52319336,-0.32354736,-0.64141846,2.046875,5.125,0.828125,605
579,1696254261521,0.5583496,-0.3189087,-0.6843872,3.4375,2.359375,1.765625,606
580,1696254261561,0.5744629,-0.31988525,-0.7263794,2.90625,1.765625,1.5,607
581,1696254261601,0.6052246,-0.3320923,-0.7407837,0.484375,-1.765625,0.734375,608
582,1696254261641,0.60595703,-0.33087158,-0.73443604,0.265625,-1.296875,0.5,609
583,1696254261681,0.5720215,-0.32208252,-0.70684814,0.25,-0.78125,0.328125,610
584,1696254261721,0.6279297,-0.3267212,-0.7390747,-2.125,-3.4375,-0.265625,611
585,1696254261761,0.5136719,-0.2913208,-0.68170166,-2.40625,0.8125,-1.390625,612
586,1696254261801,0.5344238,-0.31817627,-0.6506958,-1.0,2.078125,-0.75,613
587,1696254261841,0.5270996,-0.31866455,-0.6602173,0.890625,2.390625,0.234375,614
588,1696254261881,0.5395508,-0.32110596,-0.67144775,2.4375,1.0,1.3125,615
589,1696254261921,0.57958984,-0.32037354,-0.7337036,1.953125,0.71875,1.21875,616
590,1696254261961,0.5817871,-0.33135986,-0.74224854,0.9375,-1.65625,1.03125,617
591,1696254262001,0.5969238,-0.32891846,-0.7625122,-0.6875,-2.375,0.140625,618
592,1696254262041,0.61621094,-0.3352661,-0.75177,-1.984375,-3.296875,-0.03125,619
593,1696254262081,0.5800781,-0.3123169,-0.6975708,-4.375,-4.921875,-0.9375,620
594,1696254262121,0.5292969,-0.32110596,-0.60894775,-0.90625,1.265625,0.171875,621
595,1696254262161,0.5251465,-0.29986572,-0.6538696,-0.40625,2.296875,-0.421875,622
596,1696254262201,0.5427246,-0.31915283,-0.6560669,0.921875,3.84375,-0.171875,623
597,1696254262241,0.54711914,-0.3237915,-0.6741333,2.453125,4.28125,0.765625,624
598,1696254262281,0.54663086,-0.3171997,-0.69317627,6.390625,6.796875,2.0625,625
599,1696254262321,0.55029297,-0.31939697,-0.72906494,7.9375,7.8125,2.671875,626
600,1696254262361,0.5415039,-0.3069458,-0.7312622,9.40625,6.359375,3.34375,627
601,1696254262401,0.548584,-0.28619385,-0.7859497,5.546875,3.78125,2.265625,628
602,1696254262441,0.54589844,-0.27398682,-0.76519775,3.40625,1.765625,1.140625,629
603,1696254262481,0.53515625,-0.2744751,-0.7510376,2.453125,2.484375,0.3125,630
604,1696254262521,0.5185547,-0.26470947,-0.7359009,2.265625,2.5625,-0.21875,631
605,1696254262561,0.5209961,-0.27716064,-0.741272,2.1875,2.890625,-0.296875,632
606,1696254262601,0.51342773,-0.2727661,-0.75201416,1.984375,3.53125,-0.390625,633
607,1696254262641,0.51538086,-0.27008057,-0.76934814,0.21875,1.875,-0.3125,634
608,1696254262681,0.513916,-0.26983643,-0.76226807,-0.0625,0.671875,-0.203125,635
609,1696254262721,0.51538086,-0.27471924,-0.76031494,-0.25,0.015625,-0.0625,636
610,1696254262761,0.5107422,-0.27252197,-0.75372314,-0.078125,-0.96875,0.53125,637
611,1696254262801,0.51049805,-0.26812744,-0.7859497,0.4375,-5.8125,1.234375,638
612,1696254262841,0.46850586,-0.2666626,-0.77960205,-1.546875,-18.25,2.640625,639
613,1696254262881,0.5900879,-0.25421143,-0.8015747,-12.140625,-28.375,-0.1875,640
614,1696254262921,0.7302246,-0.317688,-0.73565674,-17.0,-10.0,-5.921875,641
615,1696254262961,0.51220703,-0.30499268,-0.5713501,-10.328125,-11.296875,-4.28125,642
616,1696254263001,0.5437012,-0.331604,-0.6524048,-1.703125,10.71875,-2.171875,643
617,1696254263041,0.5180664,-0.3255005,-0.6609497,3.96875,4.53125,1.671875,644
618,1696254263081,0.548584,-0.2962036,-0.68218994,4.5,5.578125,2.171875,645
619,1696254263121,0.53393555,-0.29888916,-0.677063,4.75,2.515625,2.390625,646
620,1696254263161,0.60375977,-0.29888916,-0.7839966,1.859375,-0.296875,1.015625,647
621,1696254263201,0.57836914,-0.3093872,-0.7647095,-0.09375,-3.859375,0.5625,648
622,1696254263241,0.6047363,-0.29595947,-0.8311157,-7.5,-11.125,-1.90625,649
623,1696254263281,0.6958008,-0.36016846,-0.76812744,-18.6875,-9.5,-5.46875,650
624,1696254263321,0.52441406,-0.31304932,-0.5811157,-8.625,-9.6875,-2.703125,651
625,1696254263361,0.49731445,-0.32183838,-0.5877075,3.75,10.109375,0.765625,652
626,1696254263401,0.51586914,-0.3123169,-0.5906372,2.125,6.390625,0.375,653
627,1696254263441,0.5332031,-0.31939697,-0.64630127,3.71875,3.828125,1.296875,654
628,1696254263481,0.55126953,-0.3184204,-0.7119751,4.140625,1.15625,2.015625,655
629,1696254263521,0.6154785,-0.34918213,-0.77716064,1.34375,-0.4375,0.828125,656
630,1696254263561,0.6191406,-0.3340454,-0.77545166,0.265625,-4.28125,1.109375,657
631,1696254263601,0.6516113,-0.33380127,-0.7776489,-6.109375,-7.0625,-1.828125,658
632,1696254263641,0.5690918,-0.31402588,-0.7168579,-12.078125,-9.890625,-3.484375,659
633,1696254263681,0.60424805,-0.34649658,-0.5442505,-14.15625,-17.6875,-4.375,660
634,1696254263721,0.51708984,-0.37384033,-0.565979,1.546875,9.484375,-1.09375,661
635,1696254263761,0.50878906,-0.31793213,-0.54888916,4.484375,6.25,1.4375,662
636,1696254263801,0.5385742,-0.35113525,-0.62164307,4.890625,13.0625,1.078125,663
637,1696254263841,0.5671387,-0.3496704,-0.68585205,7.40625,8.984375,2.484375,664
638,1696254263881,0.57666016,-0.3526001,-0.6968384,12.234375,11.875,3.703125,665
639,1696254263921,0.5527344,-0.333313,-0.7329712,16.125,13.671875,5.0625,666
640,1696254263961,0.55810547,-0.2925415,-0.7835083,12.03125,9.3125,4.15625,667
641,1696254264001,0.5373535,-0.28570557,-0.81695557,5.296875,2.125,2.21875,668
642,1696254264041,0.53637695,-0.27471924,-0.7632446,1.25,-0.3125,0.671875,669
643,1696254264081,0.5109863,-0.28424072,-0.7139282,0.9375,0.828125,0.109375,670
644,1696254264121,0.50878906,-0.27716064,-0.72540283,1.046875,0.5625,0.234375,671
645,1696254264161,0.5266113,-0.2822876,-0.74224854,2.078125,0.75,0.453125,672
646,1696254264201,0.5280762,-0.2810669,-0.7424927,2.5625,0.6875,0.625,673
647,1696254264241,0.52685547,-0.27496338,-0.7564087,2.3125,1.4375,0.53125,674
648,1696254264281,0.50561523,-0.27130127,-0.73638916,2.53125,1.671875,0.515625,675
649,1696254264321,0.51293945,-0.25787354,-0.77056885,1.984375,2.484375,-0.09375,676
650,1696254264361,0.5449219,-0.2625122,-0.7979126,-2.359375,-2.03125,-1.09375,677
651,1696254264401,0.5187988,-0.2798462,-0.7527466,-1.65625,-0.078125,-0.796875,678
652,1696254264441,0.5078125,-0.27252197,-0.7515259,-0.53125,-1.453125,0.0,679
653,1696254264481,0.50024414,-0.26763916,-0.7737427,-0.1875,-6.921875,0.546875,680
654,1696254264521,0.55859375,-0.28326416,-0.7756958,-4.5,-16.90625,0.671875,681
655,1696254264561,0.53808594,-0.2612915,-0.7246704,-9.234375,-21.9375,-0.046875,682
656,1696254264601,0.6386719,-0.31695557,-0.7744751,-17.671875,-22.1875,-4.546875,683
657,1696254264641,0.54907227,-0.32354736,-0.6321411,-7.96875,-5.390625,-2.890625,684
658,1696254264681,0.53759766,-0.3250122,-0.51031494,-2.34375,3.28125,-1.734375,685
659,1696254264721,0.54956055,-0.30743408,-0.64971924,2.9375,8.5,0.78125,686
660,1696254264761,0.55908203,-0.31280518,-0.675354,6.109375,8.484375,2.234375,687
661,1696254264801,0.5366211,-0.29693604,-0.6995239,5.453125,5.546875,2.125,688
662,1696254264841,0.58447266,-0.30426025,-0.72076416,0.625,-4.0625,1.046875,689
663,1696254264881,0.59399414,-0.32232666,-0.7686157,0.1875,-6.390625,0.96875,690
664,1696254264921,0.5969238,-0.3015747,-0.7307739,-2.78125,-3.75,-0.8125,691
665,1696254264961,0.6401367,-0.33111572,-0.70025635,-5.640625,-2.796875,-2.140625,692
666,1696254265001,0.5842285,-0.31524658,-0.63775635,-1.5,-0.46875,-0.609375,693
667,1696254265041,0.5349121,-0.30548096,-0.642395,0.59375,3.140625,0.234375,694
668,1696254265081,0.5395508,-0.3057251,-0.64630127,1.8125,3.875,0.59375,695
669,1696254265121,0.5366211,-0.31671143,-0.68585205,3.734375,4.703125,1.328125,696
670,1696254265161,0.5678711,-0.2966919,-0.71051025,2.28125,-0.578125,1.59375,697
671,1696254265201,0.6074219,-0.32183838,-0.76104736,-0.0625,-1.453125,0.484375,698
672,1696254265241,0.60302734,-0.32452393,-0.7608032,-1.421875,-3.421875,0.078125,699
673,1696254265281,0.6242676,-0.31500244,-0.76641846,-3.9375,-6.0,-0.4375,700
674,1696254265321,0.61743164,-0.31378174,-0.6868286,-10.546875,-12.015625,-2.65625,701
675,1696254265361,0.5019531,-0.31915283,-0.5574341,-2.84375,-2.953125,-0.375,702
676,1696254265401,0.52368164,-0.3093872,-0.5706177,1.859375,5.078125,0.703125,703
677,1696254265441,0.5390625,-0.3081665,-0.66534424,2.734375,6.1875,0.5625,704
678,1696254265481,0.5629883,-0.31280518,-0.68414307,3.328125,6.0625,0.875,705
679,1696254265521,0.5822754,-0.3201294,-0.7564087,2.265625,1.171875,1.0625,706
680,1696254265561,0.5966797,-0.3418579,-0.75079346,0.484375,-0.125,0.546875,707
681,1696254265601,0.61083984,-0.32061768,-0.74420166,-0.390625,-1.6875,0.40625,708
682,1696254265641,0.5822754,-0.31793213,-0.75982666,-2.359375,-3.625,-0.171875,709
683,1696254265681,0.6164551,-0.32232666,-0.65582275,-6.109375,-6.59375,-1.078125,710
684,1696254265721,0.5119629,-0.29815674,-0.58477783,-2.28125,-1.296875,-0.765625,711
685,1696254265761,0.5324707,-0.31817627,-0.63482666,0.25,2.53125,-0.328125,712
686,1696254265801,0.5422363,-0.32281494,-0.68048096,2.859375,4.5,0.59375,713
687,1696254265841,0.546875,-0.32159424,-0.6795044,2.546875,2.8125,0.96875,714
688,1696254265881,0.58813477,-0.3279419,-0.7324829,1.296875,-0.4375,0.765625,715
689,1696254265921,0.609375,-0.33111572,-0.75738525,-0.109375,-1.078125,0.40625,716
690,1696254265961,0.59887695,-0.3357544,-0.7595825,-1.796875,-1.03125,-0.203125,717
691,1696254266001,0.5842285,-0.3345337,-0.7671509,-4.765625,-4.375,-0.6875,718
692,1696254266041,0.5678711,-0.31744385,-0.61383057,-6.21875,-5.515625,-1.140625,719
693,1696254266081,0.49853516,-0.32843018,-0.5742798,-0.578125,0.984375,-0.125,720
694,1696254266121,0.5493164,-0.32525635,-0.63726807,1.25,4.671875,0.0625,721
695,1696254266161,0.5427246,-0.32086182,-0.6421509,2.59375,5.9375,0.09375,722
696,1696254266201,0.5319824,-0.33306885,-0.65045166,9.921875,11.0,1.890625,723
697,1696254266241,0.54052734,-0.31427002,-0.7061157,14.515625,12.890625,3.796875,724
698,1696254266281,0.54296875,-0.29156494,-0.7476196,14.4375,10.859375,3.546875,725
699,1696254266321,0.5432129,-0.28375244,-0.8027954,11.859375,11.15625,2.140625,726
700,1696254266361,0.5292969,-0.26519775,-0.84942627,7.5,10.109375,0.4375,727
701,1696254266401,0.51782227,-0.269104,-0.7974243,1.75,5.65625,-0.875,728
702,1696254266441,0.4802246,-0.26593018,-0.7432251,1.40625,4.1875,-0.78125,729
703,1696254266481,0.47265625,-0.25201416,-0.78619385,-0.609375,0.921875,-0.359375,730
704,1696254266521,0.4885254,-0.2546997,-0.7576294,-0.8125,-1.625,-0.4375,731
705,1696254266561,0.48876953,-0.26226807,-0.75982666,-0.546875,-2.171875,0.140625,732
706,1696254266601,0.50024414,-0.26104736,-0.77667236,-0.53125,-2.8125,0.234375,733
707,1696254266641,0.50561523,-0.2703247,-0.79351807,-1.09375,-8.078125,0.609375,734
708,1696254266681,0.46655273,-0.2617798,-0.7871704,-3.640625,-20.375,1.8125,735
709,1696254266721,0.60131836,-0.2498169,-0.74591064,-12.359375,-29.359375,0.6875,736
710,1696254266761,0.66796875,-0.28448486,-0.7427368,-16.21875,-20.421875,-3.984375,737
711,1696254266801,0.48413086,-0.27716064,-0.5881958,-6.234375,-5.96875,-2.328125,738
712,1696254266841,0.54833984,-0.3027954,-0.6526489,0.453125,7.484375,-0.265625,739
713,1696254266881,0.5209961,-0.28985596,-0.659729,1.078125,8.625,-0.0625,740
714,1696254266921,0.5390625,-0.29473877,-0.67852783,5.796875,4.984375,1.9375,741
715,1696254266961,0.5563965,-0.28375244,-0.75323486,2.25,0.546875,1.21875,742
716,1696254267001,0.5979004,-0.3040161,-0.7764282,0.375,-5.234375,0.890625,743
717,1696254267041,0.5756836,-0.29815674,-0.78009033,-3.515625,-8.328125,0.0,744
718,1696254267081,0.6809082,-0.3242798,-0.71343994,-9.65625,-11.859375,-2.296875,745
719,1696254267121,0.5234375,-0.3015747,-0.6560669,-1.46875,-1.734375,-0.09375,746
720,1696254267161,0.5449219,-0.28961182,-0.6567993,0.6875,3.9375,0.25,747
721,1696254267201,0.5253906,-0.2979126,-0.64556885,1.59375,4.734375,0.484375,748
722,1696254267241,0.5300293,-0.29522705,-0.66778564,2.375,2.203125,1.0,749
723,1696254267281,0.56933594,-0.29473877,-0.73321533,1.15625,-0.40625,0.46875,750
724,1696254267321,0.60009766,-0.3045044,-0.76275635,-0.5,-3.53125,0.421875,751
725,1696254267361,0.6069336,-0.29864502,-0.7632446,-3.640625,-5.59375,-0.875,752
726,1696254267401,0.6855469,-0.34625244,-0.7041626,-9.734375,-6.578125,-2.640625,753
727,1696254267441,0.5288086,-0.31622314,-0.6096802,-4.078125,-2.078125,-1.21875,754
728,1696254267481,0.51660156,-0.32086182,-0.6343384,1.75,5.84375,0.734375,755
729,1696254267521,0.53222656,-0.2930298,-0.630188,1.6875,2.546875,1.09375,756
730,1696254267561,0.5473633,-0.30596924,-0.6663208,1.546875,0.953125,0.875,757
731,1696254267601,0.5571289,-0.30718994,-0.7046509,1.3125,-0.578125,1.171875,758
732,1696254267641,0.6047363,-0.3201294,-0.7529907,-0.03125,-1.53125,0.40625,759
733,1696254267681,0.60498047,-0.3255005,-0.7341919,-0.8125,-2.25,0.046875,760
734,1696254267721,0.60839844,-0.33477783,-0.78912354,-3.953125,-3.65625,-0.78125,761
735,1696254267761,0.6201172,-0.32965088,-0.70440674,-11.265625,-6.46875,-2.3125,762
736,1696254267801,0.54174805,-0.33673096,-0.55841064,-4.984375,-4.15625,-1.296875,763
737,1696254267841,0.52905273,-0.3118286,-0.6338501,3.03125,5.640625,0.859375,764
738,1696254267881,0.53637695,-0.32086182,-0.64141846,2.609375,3.984375,0.6875,765
739,1696254267921,0.56811523,-0.3201294,-0.6848755,2.046875,2.375,0.671875,766
740,1696254267961,0.5991211,-0.33111572,-0.73223877,0.359375,-0.828125,0.484375,767
741,1696254268001,0.59765625,-0.3369751,-0.7307739,-0.453125,-1.09375,0.234375,768
742,1696254268041,0.6081543,-0.3369751,-0.7810669,-4.515625,-3.984375,-0.78125,769
743,1696254268081,0.6101074,-0.34332275,-0.70440674,-7.5625,-7.546875,-0.796875,770
744,1696254268121,0.5539551,-0.331604,-0.5755005,-2.265625,-0.78125,-0.234375,771
745,1696254268161,0.5415039,-0.32574463,-0.6487427,1.46875,2.171875,0.5,772
746,1696254268201,0.5349121,-0.32110596,-0.62677,2.609375,3.90625,0.59375,773
747,1696254268241,0.5541992,-0.32989502,-0.66070557,2.265625,3.171875,0.609375,774
748,1696254268281,0.5957031,-0.33599854,-0.7119751,1.25,0.359375,0.296875,775
749,1696254268321,0.6179199,-0.34820557,-0.7529907,-1.03125,-0.859375,-0.046875,776
750,1696254268361,0.638916,-0.35308838,-0.84552,-4.265625,-2.203125,-0.6875,777
751,1696254268401,0.6044922,-0.3477173,-0.7505493,-9.875,-15.796875,-0.046875,778
752,1696254268441,0.5986328,-0.3418579,-0.5784302,-7.5625,-17.0,-0.90625,779
753,1696254268481,0.52368164,-0.34454346,-0.5042114,0.578125,4.328125,-0.265625,780
754,1696254268521,0.5263672,-0.31549072,-0.56378174,2.796875,7.796875,0.234375,781
755,1696254268561,0.56103516,-0.3423462,-0.663147,1.65625,9.84375,-0.796875,782
756,1696254268601,0.579834,-0.35601807,-0.6338501,3.875,9.703125,0.125,783
757,1696254268641,0.57543945,-0.35430908,-0.6980591,8.109375,11.46875,1.40625,784
758,1696254268681,0.55908203,-0.34381104,-0.72784424,11.734375,7.9375,3.265625,785
759,1696254268721,0.5612793,-0.31036377,-0.7625122,10.0,4.609375,3.359375,786
