# Sensor type: Thingy
# Activity type: Normal walking
# Activity subtype: Normal
# Subject id: s2106809
# Notes: unprocessed
timestamp,accel_x,accel_y,accel_z,gyro_x,gyro_y,gyro_z,mag_x,mag_y,mag_z
1696258028620,-0.5029297,-0.038085938,0.4609375,22.875,29.0625,1.25,0.0,0.0,0.0
1696258028664,-0.7451172,-0.041992188,0.8515625,-3.65625,59.53125,-3.59375,0.0,0.0,0.0
1696258028718,-1.1357422,-0.15234375,1.3300781,-26.375,14.5625,-3.8125,0.0,0.0,0.0
1696258028740,-0.6425781,-0.31347656,0.7480469,17.34375,-14.8125,-6.875,0.0,0.0,0.0
1696258028786,-0.4892578,-0.032226562,0.3955078,53.9375,43.125,-15.46875,0.0,0.0,0.0
1696258028819,-1.9755859,0.23339844,0.5185547,-35.34375,69.84375,22.0,0.0,0.0,0.0
1696258028865,-0.3701172,0.6044922,0.2421875,-51.28125,-2.78125,-26.21875,0.0,0.0,0.0
1696258028909,-0.15527344,0.1328125,-0.080078125,-74.65625,59.46875,38.15625,-16.625,46.0625,-222.375
1696258028943,-1.5644531,-0.2529297,-0.013671875,-71.28125,74.84375,78.28125,0.0,0.0,0.0
1696258028977,-0.9091797,-0.0068359375,0.3154297,-50.90625,100.125,16.6875,0.0,0.0,0.0
1696258029045,-0.7705078,0.072265625,0.14648438,-72.28125,101.78125,28.9375,0.0,0.0,0.0
1696258029067,-1.0683594,-0.19042969,-0.03125,-36.25,102.5,31.34375,0.0,0.0,0.0
1696258029101,-0.8457031,-0.060546875,0.043945312,-0.1875,85.84375,17.0625,0.0,0.0,0.0
1696258029146,-0.90527344,0.028320312,0.0546875,3.59375,80.15625,19.90625,0.0,0.0,0.0
1696258029179,-0.9589844,-9.765625E-4,0.0625,-18.625,77.09375,19.96875,0.0,0.0,0.0
1696258029226,-0.94140625,0.01953125,0.0078125,-14.78125,71.96875,31.09375,0.0,0.0,0.0
1696258029258,-1.046875,0.0234375,0.005859375,-17.28125,74.78125,34.8125,0.0,0.0,0.0
1696258029303,-1.1826172,-0.12011719,0.08886719,-18.625,44.15625,17.78125,0.0,0.0,0.0
1696258029337,-1.1484375,-0.0146484375,0.06542969,-18.6875,21.625,3.0,0.0,0.0,0.0
1696258029382,-1.2607422,-0.07324219,0.12207031,-29.84375,-3.6875,11.375,-202.1875,60.0625,147.6875
1696258029427,-1.3789062,-0.1484375,-0.016601562,-30.46875,-49.84375,-2.1875,0.0,0.0,0.0
1696258029461,-1.1308594,-0.0087890625,-0.0546875,20.875,-126.1875,-32.75,0.0,0.0,0.0
1696258029506,-1.2441406,0.3251953,0.29296875,85.4375,-205.96875,-43.125,0.0,0.0,0.0
1696258029540,-1.6152344,0.5097656,-0.026367188,-13.125,-150.625,-25.90625,0.0,0.0,0.0
1696258029585,-1.1816406,0.2265625,0.20117188,-129.03125,-114.59375,-67.1875,0.0,0.0,0.0
1696258029619,-1.2666016,0.16113281,0.080078125,-2.8125,-170.28125,-84.15625,0.0,0.0,0.0
1696258029663,-0.859375,-0.13671875,0.09667969,66.34375,-143.65625,-66.03125,0.0,0.0,0.0
1696258029697,-0.50683594,0.08496094,0.18457031,54.0,-108.25,-44.53125,0.0,0.0,0.0
1696258029742,-0.2919922,0.23339844,0.27929688,41.1875,-77.25,-14.75,0.0,0.0,0.0
1696258029798,-0.21777344,0.19042969,0.19238281,68.28125,-26.40625,0.15625,0.0,0.0,0.0
1696258029832,-0.3701172,0.00390625,0.24707031,51.25,21.4375,37.5625,0.0,0.0,0.0
1696258029866,-0.6845703,-0.046875,0.7714844,-5.6875,91.9375,9.65625,0.0,0.0,0.0
1696258029900,-1.3398438,-0.15234375,1.2207031,-19.78125,34.6875,-7.1875,-7.1875,60.5,-228.8125
1696258029945,-0.91015625,-0.171875,0.9394531,-6.65625,-47.84375,1.125,0.0,0.0,0.0
1696258029979,-0.13964844,0.03515625,0.5048828,45.34375,44.15625,-6.15625,0.0,0.0,0.0
1696258030024,-1.7402344,0.13769531,0.60839844,-12.09375,94.375,20.28125,0.0,0.0,0.0
1696258030057,-1.5273438,0.36621094,0.43359375,-34.84375,-23.34375,25.78125,0.0,0.0,0.0
1696258030102,-0.024414062,0.43066406,0.20898438,-26.8125,20.90625,6.4375,0.0,0.0,0.0
1696258030147,-1.25,-0.33691406,-0.23632812,-107.3125,91.28125,57.15625,0.0,0.0,0.0
1696258030181,-1.2705078,-0.20117188,0.20117188,-26.8125,109.6875,20.84375,0.0,0.0,0.0
1696258030226,-0.6855469,0.15820312,0.36132812,-32.71875,108.71875,20.09375,0.0,0.0,0.0
1696258030271,-0.87890625,9.765625E-4,0.029296875,-33.5,98.40625,29.1875,0.0,0.0,0.0
1696258030316,-0.93359375,-0.10839844,0.0048828125,-19.0625,95.84375,18.15625,0.0,0.0,0.0
1696258030338,-0.8154297,-0.052734375,-0.0107421875,2.625,94.8125,17.40625,0.0,0.0,0.0
1696258030384,-0.8935547,-0.0146484375,-0.026367188,4.8125,99.4375,21.5,-5.875,181.8125,-0.1875
1696258030417,-0.9404297,0.103515625,-0.001953125,9.6875,95.40625,27.78125,0.0,0.0,0.0
1696258030462,-1.0839844,0.1796875,0.13671875,-10.875,84.125,30.28125,0.0,0.0,0.0
1696258030507,-1.1826172,-0.13574219,0.0146484375,-14.65625,41.78125,19.3125,0.0,0.0,0.0
1696258030564,-1.1572266,-0.03515625,0.068359375,-24.25,19.3125,3.5625,0.0,0.0,0.0
1696258030586,-1.2265625,-0.15917969,0.0146484375,-17.53125,3.625,4.59375,0.0,0.0,0.0
1696258030621,-1.4501953,-0.11230469,0.034179688,-22.03125,-34.03125,-0.65625,0.0,0.0,0.0
1696258030665,-1.3867188,-0.041015625,-0.10839844,-30.21875,-149.09375,-13.15625,0.0,0.0,0.0
1696258030698,-1.0458984,0.24414062,0.27441406,78.25,-196.21875,-39.28125,0.0,0.0,0.0
1696258030743,-1.5615234,0.63378906,-0.052734375,52.25,-158.65625,-38.125,0.0,0.0,0.0
1696258030777,-1.2666016,0.052734375,0.08496094,-111.21875,-108.0625,-65.53125,0.0,0.0,0.0
1696258030822,-1.2734375,0.22070312,0.047851562,43.9375,-175.46875,-85.5625,0.0,0.0,0.0
1696258030867,-0.9003906,-0.21289062,0.11035156,77.8125,-150.75,-68.46875,0.0,0.0,0.0
1696258030901,-0.39160156,-0.00390625,0.18164062,65.0,-109.84375,-52.46875,129.875,139.8125,-139.6875
1696258030946,-0.25976562,0.17089844,0.19628906,46.875,-87.6875,-38.6875,0.0,0.0,0.0
1696258030980,-0.16503906,0.17871094,0.13867188,75.8125,-37.15625,-33.0,0.0,0.0,0.0
1696258031025,-0.19433594,0.13574219,0.15429688,49.8125,30.0625,2.46875,0.0,0.0,0.0
1696258031058,-0.66796875,-0.10839844,0.55078125,-33.34375,97.90625,7.90625,0.0,0.0,0.0
1696258031103,-1.4121094,-0.09472656,1.3964844,-5.3125,62.46875,-12.4375,0.0,0.0,0.0
1696258031137,-1.1669922,-0.3310547,1.3222656,26.65625,-24.625,1.78125,0.0,0.0,0.0
1696258031182,-0.33496094,-0.026367188,0.4423828,51.3125,35.65625,-19.5625,0.0,0.0,0.0
1696258031227,-1.8769531,0.17773438,0.49902344,7.1875,75.71875,27.375,0.0,0.0,0.0
1696258031261,-0.703125,0.85253906,-0.07714844,-73.0,-25.84375,-4.5,0.0,0.0,0.0
1696258031329,-0.041015625,0.42871094,0.26757812,-14.90625,32.3125,37.96875,0.0,0.0,0.0
1696258031339,-1.5214844,-0.5449219,-0.46679688,-135.6875,119.21875,57.40625,0.0,0.0,0.0
1696258031385,-1.0712891,-0.0029296875,0.36914062,-28.6875,98.78125,37.625,13.5,74.125,-228.8125
1696258031418,-0.6230469,0.083984375,0.15625,-51.59375,124.46875,20.71875,0.0,0.0,0.0
1696258031464,-1.0009766,-0.107421875,-0.01953125,-47.0625,116.46875,26.875,0.0,0.0,0.0
1696258031508,-0.88964844,-0.13183594,0.09667969,-13.1875,95.96875,14.0,0.0,0.0,0.0
1696258031542,-0.8457031,-0.040039062,-0.013671875,3.21875,93.40625,20.53125,0.0,0.0,0.0
1696258031587,-0.8691406,-0.0107421875,0.12109375,-11.0,93.53125,25.59375,0.0,0.0,0.0
1696258031621,-0.9765625,0.07324219,-0.0234375,0.65625,91.875,42.625,0.0,0.0,0.0
1696258031666,-1.0683594,0.12402344,0.091796875,-23.9375,69.25,37.8125,0.0,0.0,0.0
1696258031699,-1.1269531,-0.07910156,0.0126953125,-33.8125,32.375,23.09375,0.0,0.0,0.0
1696258031745,-1.2089844,-0.1875,-0.02734375,-17.59375,17.71875,4.53125,0.0,0.0,0.0
1696258031779,-1.5703125,-0.12695312,-0.056640625,-0.3125,-9.8125,-2.3125,0.0,0.0,0.0
1696258031823,-1.6982422,-0.0546875,-0.059570312,1.53125,-81.21875,-22.0,0.0,0.0,0.0
1696258031868,-1.0595703,0.2763672,0.16699219,49.8125,-170.875,-37.40625,0.0,0.0,0.0
1696258031902,-1.4423828,0.5078125,0.12890625,66.78125,-198.34375,-26.21875,-342.125,47.5625,275.0
1696258031947,-1.2021484,0.099609375,-0.07714844,-84.78125,-114.40625,-46.25,0.0,0.0,0.0
1696258031981,-1.3867188,0.026367188,-0.07128906,-41.8125,-134.375,-78.78125,0.0,0.0,0.0
1696258032026,-0.88964844,-0.0107421875,0.1484375,90.5,-204.5625,-68.84375,0.0,0.0,0.0
1696258032071,-0.4951172,0.029296875,0.14648438,64.8125,-129.6875,-53.15625,0.0,0.0,0.0
1696258032105,-0.3935547,0.13183594,0.2109375,28.0625,-95.6875,-44.0625,0.0,0.0,0.0
1696258032139,-0.25097656,0.16015625,0.1171875,46.75,-49.125,-43.1875,0.0,0.0,0.0
1696258032184,-0.24121094,0.09667969,0.12890625,51.03125,5.21875,-14.75,0.0,0.0,0.0
1696258032228,-0.4658203,-0.15234375,0.33007812,-10.75,69.0625,15.59375,0.0,0.0,0.0
1696258032262,-0.9716797,-0.0625,1.0634766,-25.53125,107.8125,-15.25,0.0,0.0,0.0
1696258032341,-1.703125,-0.4375,1.4404297,34.125,-3.03125,3.5625,0.0,0.0,0.0
1696258032343,-0.7783203,-0.2841797,0.6269531,22.03125,-50.8125,0.4375,0.0,0.0,0.0
1696258032386,-1.7197266,-0.04296875,0.50683594,88.1875,19.0,17.96875,-25.625,46.6875,-232.5625
1696258032420,-0.17675781,0.875,-0.068359375,-20.34375,-37.5625,-12.75,0.0,0.0,0.0
1696258032465,-0.3046875,0.43554688,0.43164062,-1.59375,23.40625,57.21875,0.0,0.0,0.0
1696258032499,-1.6308594,-0.4169922,-0.29882812,-133.4375,117.34375,33.28125,0.0,0.0,0.0
1696258032543,-0.8388672,-0.072265625,0.29492188,-28.1875,82.71875,31.03125,0.0,0.0,0.0
1696258032588,-0.7207031,0.10253906,0.37109375,-37.65625,132.53125,23.21875,0.0,0.0,0.0
1696258032622,-0.9326172,-0.07519531,-0.059570312,-63.96875,142.65625,25.59375,0.0,0.0,0.0
1696258032667,-0.9716797,-0.06542969,-0.01171875,-18.8125,108.53125,8.75,0.0,0.0,0.0
1696258032701,-0.83691406,0.076171875,0.09082031,3.90625,90.53125,19.125,0.0,0.0,0.0
1696258032746,-0.82421875,-0.00390625,-0.0146484375,-3.96875,87.0,26.09375,0.0,0.0,0.0
1696258032780,-0.9580078,0.048828125,0.0068359375,-24.96875,87.65625,32.0,0.0,0.0,0.0
1696258032836,-1.0214844,0.12109375,0.04296875,-20.375,93.71875,45.375,0.0,0.0,0.0
1696258032858,-1.1474609,0.0107421875,0.044921875,-40.34375,53.84375,30.40625,0.0,0.0,0.0
1696258032904,-1.1533203,-0.19140625,0.111328125,-41.875,27.78125,5.9375,-159.125,62.5625,65.625
1696258032949,-1.28125,-0.21386719,0.07421875,-17.59375,9.46875,2.21875,0.0,0.0,0.0
1696258032982,-1.5722656,-0.15820312,-0.10839844,-32.28125,-36.28125,-1.3125,0.0,0.0,0.0
1696258033027,-1.3818359,0.07324219,-0.051757812,13.5,-101.0,-28.65625,0.0,0.0,0.0
1696258033061,-1.0078125,0.15429688,0.15820312,76.34375,-190.28125,-38.1875,0.0,0.0,0.0
1696258033106,-1.4697266,0.47753906,-0.09472656,81.125,-186.0625,-18.96875,0.0,0.0,0.0
1696258033140,-1.2148438,0.107421875,0.14746094,-94.25,-117.15625,-45.4375,0.0,0.0,0.0
1696258033185,-1.4091797,0.17480469,-0.06933594,-52.0625,-128.65625,-89.03125,0.0,0.0,0.0
1696258033218,-0.8642578,-0.12207031,0.059570312,77.5,-187.65625,-76.6875,0.0,0.0,0.0
1696258033263,-0.47460938,-0.07128906,0.20996094,74.9375,-122.40625,-55.21875,0.0,0.0,0.0
1696258033308,-0.30859375,0.06738281,0.24023438,45.21875,-87.9375,-40.15625,0.0,0.0,0.0
1696258033342,-0.14941406,0.18164062,0.16601562,50.65625,-43.5625,-37.28125,0.0,0.0,0.0
1696258033387,-0.12011719,0.09667969,0.14941406,61.09375,14.65625,-3.65625,7.625,63.9375,-228.9375
1696258033421,-0.5078125,-0.10839844,0.5683594,-4.09375,81.1875,15.65625,0.0,0.0,0.0
1696258033466,-1.3535156,-0.11816406,1.4589844,-6.71875,69.28125,-7.3125,0.0,0.0,0.0
1696258033511,-1.4394531,-0.38867188,1.2666016,7.125,-28.84375,6.0625,0.0,0.0,0.0
1696258033545,-0.09863281,0.037109375,0.48339844,85.875,22.65625,-14.09375,0.0,0.0,0.0
1696258033589,-1.8349609,0.31347656,0.5527344,-27.96875,89.125,29.4375,0.0,0.0,0.0
1696258033623,-0.94628906,0.5019531,0.11621094,-37.46875,-30.1875,-3.09375,0.0,0.0,0.0
1696258033668,0.12402344,0.2763672,0.13574219,-39.5625,48.90625,22.0,0.0,0.0,0.0
1696258033702,-1.5,-0.44726562,-0.234375,-104.125,100.5,69.84375,0.0,0.0,0.0
1696258033747,-1.0966797,-0.07324219,0.37890625,-21.4375,123.75,29.75,0.0,0.0,0.0
1696258033781,-0.6855469,0.032226562,0.16992188,-31.0,116.53125,17.40625,0.0,0.0,0.0
1696258033826,-0.89941406,0.02734375,0.013671875,-22.28125,113.375,24.375,0.0,0.0,0.0
1696258033860,-0.87890625,-0.064453125,0.07519531,-13.0625,99.03125,17.65625,0.0,0.0,0.0
1696258033905,-0.8378906,-0.041015625,-0.001953125,-15.625,93.65625,23.40625,33.0,223.8125,21.6875
1696258033984,-0.84375,0.0048828125,0.1015625,-7.5,92.84375,31.5,0.0,0.0,0.0
1696258033985,-1.0205078,0.03515625,0.0107421875,-11.0,100.3125,48.90625,0.0,0.0,0.0
1696258034029,-1.1777344,0.076171875,0.07519531,-30.34375,59.34375,26.5,0.0,0.0,0.0
1696258034062,-1.2070312,-0.06738281,0.07714844,-33.21875,31.28125,7.59375,0.0,0.0,0.0
1696258034107,-1.3046875,-0.24414062,0.056640625,-19.46875,10.40625,8.8125,0.0,0.0,0.0
1696258034140,-1.5507812,-0.19824219,-0.029296875,-6.28125,-20.5625,-1.9375,0.0,0.0,0.0
1696258034186,-1.4931641,-0.01171875,-0.17382812,9.625,-108.0625,-25.90625,0.0,0.0,0.0
1696258034220,-1.0917969,0.26757812,0.18457031,87.65625,-196.09375,-46.375,0.0,0.0,0.0
1696258034265,-1.546875,0.65625,-0.11621094,95.34375,-177.71875,-25.125,0.0,0.0,0.0
1696258034299,-1.2236328,-0.087890625,0.109375,-84.84375,-128.53125,-44.15625,0.0,0.0,0.0
1696258034355,-1.3193359,0.23242188,-0.07519531,-48.78125,-148.125,-73.21875,0.0,0.0,0.0
1696258034388,-0.74316406,-0.14746094,0.087890625,89.65625,-211.90625,-63.59375,95.6875,-25.4375,110.625
1696258034422,-0.3935547,0.041015625,0.20800781,59.6875,-116.375,-57.96875,0.0,0.0,0.0
1696258034467,-0.2783203,0.2109375,0.2109375,42.125,-78.78125,-43.5,0.0,0.0,0.0
1696258034501,-0.14648438,0.2109375,0.08203125,78.5625,-28.90625,-37.34375,0.0,0.0,0.0
1696258034546,-0.20117188,0.04296875,0.14453125,58.15625,34.75,-1.75,0.0,0.0,0.0
1696258034580,-0.6123047,-0.107421875,0.61035156,-33.5,98.71875,2.59375,0.0,0.0,0.0
1696258034625,-1.4667969,-0.052734375,1.5166016,-16.53125,46.59375,-23.40625,0.0,0.0,0.0
1696258034658,-1.1289062,-0.16015625,1.2382812,32.03125,-51.125,1.0,0.0,0.0,0.0
1696258034703,-0.22070312,-0.11816406,0.32617188,29.21875,28.65625,-17.8125,0.0,0.0,0.0
1696258034749,-1.765625,0.12695312,0.53222656,8.59375,89.125,23.34375,0.0,0.0,0.0
1696258034782,-1.2109375,0.9482422,-0.11425781,-55.125,-28.96875,1.53125,0.0,0.0,0.0
1696258034827,0.27246094,0.421875,0.30566406,0.59375,8.25,25.71875,0.0,0.0,0.0
1696258034861,-1.4521484,-0.5126953,-0.5283203,-152.65625,138.6875,64.28125,0.0,0.0,0.0
1696258034906,-1.1914062,-0.0078125,0.3720703,-38.28125,118.3125,38.96875,7.8125,75.1875,-216.0625
1696258034940,-0.5888672,0.064453125,0.19140625,-48.40625,124.09375,15.21875,0.0,0.0,0.0
1696258034985,-0.8857422,-0.053710938,0.016601562,-42.90625,114.71875,22.0625,0.0,0.0,0.0
1696258035018,-0.8886719,-0.12792969,9.765625E-4,-28.03125,107.125,10.5625,0.0,0.0,0.0
1696258035064,-0.82910156,-0.034179688,0.08300781,-18.625,98.15625,16.0625,0.0,0.0,0.0
1696258035109,-0.9248047,-0.01953125,0.18261719,-6.03125,93.15625,28.15625,0.0,0.0,0.0
1696258035142,-1.0673828,0.005859375,-0.0107421875,-14.21875,88.03125,35.59375,0.0,0.0,0.0
1696258035187,-1.0585938,0.09277344,0.046875,-24.28125,47.03125,24.3125,0.0,0.0,0.0
1696258035221,-1.1298828,-0.0390625,0.1328125,-32.65625,25.53125,9.90625,0.0,0.0,0.0
1696258035266,-1.2373047,-0.17773438,0.043945312,-25.5625,12.34375,6.71875,0.0,0.0,0.0
1696258035299,-1.5439453,-0.17675781,0.045898438,-14.21875,-20.375,3.6875,0.0,0.0,0.0
1696258035345,-1.4755859,-0.048828125,-0.12890625,5.71875,-107.875,-20.625,0.0,0.0,0.0
1696258035390,-1.0332031,0.2705078,0.22753906,85.03125,-202.125,-37.09375,-436.0625,109.6875,378.25
1696258035423,-1.5996094,0.6269531,-0.07910156,76.53125,-186.75,-15.125,0.0,0.0,0.0
1696258035468,-1.2138672,-0.018554688,0.15136719,-93.375,-133.46875,-33.90625,0.0,0.0,0.0
1696258035502,-1.4599609,0.171875,-0.15234375,-117.3125,-147.0,-69.25,0.0,0.0,0.0
1696258035547,-0.79785156,-0.072265625,0.13183594,78.71875,-200.53125,-69.0625,0.0,0.0,0.0
1696258035580,-0.46679688,0.034179688,0.123046875,68.0625,-110.625,-63.46875,0.0,0.0,0.0
1696258035626,-0.26660156,0.09375,0.2265625,46.375,-77.1875,-40.875,0.0,0.0,0.0
1696258035660,-0.20019531,0.12597656,0.16503906,49.75,-18.78125,-37.75,0.0,0.0,0.0
1696258035705,-0.140625,0.0625,0.123046875,67.875,44.5,-25.3125,0.0,0.0,0.0
1696258035738,-0.5214844,-0.02734375,0.41015625,-8.5,102.1875,1.53125,0.0,0.0,0.0
1696258035783,-1.5166016,-0.08691406,1.2763672,-9.84375,82.78125,-13.09375,0.0,0.0,0.0
1696258035828,-1.4482422,-0.22851562,1.4960938,-11.90625,-35.8125,1.84375,0.0,0.0,0.0
1696258035873,-0.041015625,0.018554688,0.4033203,80.3125,11.8125,-11.5625,0.0,0.0,0.0
1696258035907,-1.8203125,-0.11035156,0.5410156,40.40625,86.03125,27.375,-24.75,49.375,-228.1875
1696258035941,-1.3896484,0.57421875,0.07519531,-70.9375,-37.34375,-15.53125,0.0,0.0,0.0
1696258035986,0.23046875,0.6826172,0.28710938,32.15625,27.84375,16.3125,0.0,0.0,0.0
1696258036019,-1.3896484,-0.43359375,-0.52246094,-139.78125,129.28125,59.40625,0.0,0.0,0.0
1696258036064,-1.2919922,-0.12597656,0.265625,-41.3125,104.40625,53.0,0.0,0.0,0.0
1696258036109,-0.5996094,0.14648438,0.32128906,-47.3125,118.5625,12.53125,0.0,0.0,0.0
1696258036143,-1.0029297,-0.107421875,-0.01953125,-38.6875,110.875,32.3125,0.0,0.0,0.0
1696258036188,-0.86328125,-0.09375,0.01953125,-21.84375,103.71875,8.5625,0.0,0.0,0.0
1696258036222,-0.8691406,0.009765625,-0.028320312,-6.96875,96.15625,15.71875,0.0,0.0,0.0
1696258036267,-0.88964844,0.0029296875,0.16113281,-16.25,87.0,20.46875,0.0,0.0,0.0
1696258036301,-1.0058594,0.005859375,-0.0087890625,-9.59375,89.625,35.25,0.0,0.0,0.0
1696258036346,-1.0576172,0.06933594,0.103515625,-41.9375,77.09375,27.4375,0.0,0.0,0.0
1696258036391,-1.1669922,-0.0546875,0.11230469,-26.0625,31.09375,22.84375,-120.875,74.3125,94.875
1696258036425,-1.1826172,-0.10644531,0.09472656,-31.625,11.375,4.84375,0.0,0.0,0.0
1696258036470,-1.5996094,-0.25,-0.041992188,-35.46875,-42.09375,6.25,0.0,0.0,0.0
1696258036503,-1.6025391,-0.045898438,-0.11230469,15.9375,-78.96875,-24.59375,0.0,0.0,0.0
1696258036548,-1.0986328,0.28222656,0.103515625,67.5625,-174.78125,-41.125,0.0,0.0,0.0
1696258036582,-1.5146484,0.5908203,-0.14160156,108.40625,-203.46875,-19.09375,0.0,0.0,0.0
1696258036627,-1.1503906,-0.056640625,0.03515625,-49.5,-141.9375,-16.03125,0.0,0.0,0.0
1696258036661,-1.3554688,0.296875,0.03125,-113.84375,-132.5625,-54.4375,0.0,0.0,0.0
1696258036706,-0.9042969,0.013671875,0.18847656,58.03125,-194.9375,-48.5,0.0,0.0,0.0
1696258036740,-0.5292969,-0.034179688,0.11816406,56.40625,-113.8125,-44.34375,0.0,0.0,0.0
1696258036785,-0.2919922,0.053710938,0.2109375,47.46875,-97.28125,-23.53125,0.0,0.0,0.0
1696258036830,-0.16894531,0.10449219,0.22363281,27.875,-30.6875,-25.90625,0.0,0.0,0.0
1696258036863,-0.23925781,0.076171875,0.140625,57.75,39.875,-23.34375,0.0,0.0,0.0
1696258036943,-0.4794922,-0.07421875,0.45214844,15.1875,83.6875,-7.65625,48.875,96.8125,-220.375
1696258036953,-1.2753906,0.01171875,1.1875,-21.90625,87.3125,-25.0,0.0,0.0,0.0
1696258036987,-1.6533203,-0.32421875,1.2246094,-64.53125,25.71875,-18.96875,0.0,0.0,0.0
1696258037021,-0.34277344,-0.07714844,0.7597656,127.6875,-40.5625,-3.9375,0.0,0.0,0.0
1696258037067,-1.109375,-0.5019531,0.5449219,113.65625,20.59375,16.25,0.0,0.0,0.0
1696258037100,-1.9755859,0.45996094,0.27441406,-68.25,20.09375,12.71875,0.0,0.0,0.0
1696258037145,-0.115234375,1.0195312,0.38964844,59.625,-0.59375,3.375,0.0,0.0,0.0
1696258037189,-0.9003906,-0.17773438,-0.26464844,-129.75,105.6875,52.5,0.0,0.0,0.0
1696258037223,-1.4101562,-0.4091797,-0.005859375,-73.0,106.59375,54.71875,0.0,0.0,0.0
1696258037269,-0.78027344,0.115234375,0.43554688,-32.53125,111.59375,10.625,0.0,0.0,0.0
1696258037302,-0.7783203,-0.0625,0.08105469,-39.875,120.4375,21.9375,0.0,0.0,0.0
1696258037347,-1.0126953,-0.140625,0.0068359375,-15.6875,113.4375,12.28125,0.0,0.0,0.0
1696258037392,-0.81347656,-0.045898438,0.111328125,-9.28125,99.8125,8.625,-2.5625,159.1875,-104.125
1696258037426,-0.9316406,-0.08691406,0.037109375,-15.03125,95.53125,17.53125,0.0,0.0,0.0
1696258037460,-0.9160156,0.1015625,0.10058594,0.1875,81.25,17.34375,0.0,0.0,0.0
1696258037505,-1.0351562,0.1640625,0.087890625,-17.59375,80.65625,35.40625,0.0,0.0,0.0
1696258037549,-1.1289062,-0.0390625,-0.099609375,-31.0625,48.25,27.3125,0.0,0.0,0.0
1696258037583,-1.2060547,-0.033203125,0.017578125,-25.6875,27.25,4.84375,0.0,0.0,0.0
1696258037628,-1.5791016,-0.26757812,-0.10839844,0.59375,4.125,2.40625,0.0,0.0,0.0
1696258037662,-1.7255859,0.0078125,0.16992188,-1.53125,-27.3125,-18.09375,0.0,0.0,0.0
1696258037707,-1.3046875,-0.001953125,-0.059570312,-5.875,-138.09375,-19.8125,0.0,0.0,0.0
1696258037741,-1.1269531,0.13769531,0.265625,52.3125,-203.40625,-28.5,0.0,0.0,0.0
1696258037786,-1.3847656,0.8251953,0.020507812,74.6875,-147.5,-40.03125,0.0,0.0,0.0
1696258037820,-1.2490234,-0.20898438,0.037109375,-46.15625,-110.34375,-57.96875,0.0,0.0,0.0
1696258037865,-1.0488281,0.056640625,0.103515625,19.71875,-174.40625,-40.5,0.0,0.0,0.0
1696258037910,-0.7705078,-0.078125,0.10253906,39.84375,-159.40625,-38.125,168.3125,37.25,65.9375
1696258037943,-0.4423828,0.061523438,0.22070312,13.71875,-104.59375,-46.1875,0.0,0.0,0.0
1696258037989,-0.3017578,0.10449219,0.16992188,26.1875,-75.59375,-40.8125,0.0,0.0,0.0
1696258038022,-0.13769531,0.09082031,0.18554688,80.25,-15.1875,-26.09375,0.0,0.0,0.0
1696258038067,-0.1640625,-0.0625,0.28320312,48.6875,48.125,-2.59375,0.0,0.0,0.0
1696258038101,-0.7265625,-0.13964844,0.8105469,-24.34375,127.21875,-8.21875,0.0,0.0,0.0
1696258038157,-1.8632812,-0.0146484375,1.4775391,2.3125,7.03125,-5.34375,0.0,0.0,0.0
1696258038180,-0.55371094,0.049804688,0.9003906,114.1875,-103.4375,-7.0,0.0,0.0,0.0
1696258038225,-0.87890625,-0.45898438,0.19921875,20.5,24.3125,-0.09375,0.0,0.0,0.0
1696258038269,-1.9755859,0.2685547,0.7480469,-36.625,29.8125,14.53125,0.0,0.0,0.0
1696258038303,-0.21386719,0.7919922,0.15429688,10.875,-15.3125,-14.375,0.0,0.0,0.0
1696258038348,-0.5107422,-0.15234375,-0.18945312,-106.15625,118.4375,32.125,0.0,0.0,0.0
1696258038382,-1.5292969,-0.32617188,0.0234375,-58.40625,106.71875,52.75,-29.5625,54.8125,-221.875
1696258038427,-0.76171875,0.16796875,0.48046875,-40.21875,121.96875,17.0,0.0,0.0,0.0
1696258038461,-0.80859375,-0.13183594,0.095703125,-33.21875,124.46875,26.6875,0.0,0.0,0.0
1696258038506,-0.9326172,-0.076171875,-0.028320312,-21.125,119.71875,7.15625,0.0,0.0,0.0
1696258038540,-0.796875,-0.00390625,0.11035156,-0.75,98.15625,7.96875,0.0,0.0,0.0
1696258038585,-0.8955078,-0.033203125,0.057617188,-14.28125,96.8125,23.59375,0.0,0.0,0.0
1696258038630,-0.86035156,-0.005859375,0.06933594,-10.125,92.78125,27.4375,0.0,0.0,0.0
1696258038663,-1.0439453,0.08300781,0.043945312,-15.625,104.75,40.71875,0.0,0.0,0.0
1696258038708,-1.1503906,-0.07128906,0.04296875,-24.59375,47.5625,23.40625,0.0,0.0,0.0
1696258038742,-1.1572266,-0.057617188,0.12890625,-22.46875,23.46875,4.90625,0.0,0.0,0.0
1696258038788,-1.3291016,-0.23046875,0.033203125,-9.65625,7.34375,11.90625,0.0,0.0,0.0
1696258038821,-1.5888672,-0.064453125,-0.036132812,-20.9375,-33.78125,-2.4375,0.0,0.0,0.0
1696258038866,-1.2988281,0.083984375,0.015625,6.46875,-132.0625,-27.4375,0.0,0.0,0.0
1696258038911,-1.1044922,0.29882812,0.35351562,92.84375,-222.9375,-41.3125,-636.0,-77.9375,396.8125
1696258038944,-1.6298828,0.6542969,-0.09082031,32.40625,-166.0,-15.59375,0.0,0.0,0.0
1696258038990,-1.1152344,-0.07519531,0.23632812,-104.0,-136.6875,-40.8125,0.0,0.0,0.0
1696258039023,-1.3330078,0.23828125,0.001953125,-36.0625,-123.875,-64.6875,0.0,0.0,0.0
1696258039068,-0.6738281,-0.16210938,0.10839844,96.84375,-199.0625,-60.15625,0.0,0.0,0.0
1696258039102,-0.38378906,0.0146484375,0.1171875,65.4375,-109.96875,-53.875,0.0,0.0,0.0
1696258039147,-0.25097656,0.119140625,0.22070312,43.03125,-68.8125,-33.78125,0.0,0.0,0.0
1696258039180,-0.15332031,0.15527344,0.22558594,57.0625,-5.40625,-33.4375,0.0,0.0,0.0
1696258039226,-0.119140625,0.053710938,0.24804688,50.34375,55.5,-24.34375,0.0,0.0,0.0
1696258039259,-0.55859375,0.015625,0.68359375,-55.375,115.6875,-9.875,0.0,0.0,0.0
1696258039305,-1.84375,0.0087890625,1.4033203,-34.5,51.21875,0.375,0.0,0.0,0.0
1696258039349,-0.68066406,-0.078125,1.0332031,89.53125,-93.5,-8.46875,0.0,0.0,0.0
1696258039383,-0.14941406,-0.16210938,0.2705078,-22.59375,39.3125,-5.71875,-42.75,39.9375,-222.1875
1696258039428,-1.7324219,-0.1328125,0.68652344,-6.34375,115.25,5.5625,0.0,0.0,0.0
1696258039462,-1.3701172,0.671875,-0.049804688,-87.15625,-34.09375,-16.71875,0.0,0.0,0.0
1696258039507,0.46484375,0.5703125,0.34570312,25.3125,27.0625,28.875,0.0,0.0,0.0
1696258039541,-1.5507812,-0.42578125,-0.5107422,-153.375,125.6875,58.0,0.0,0.0,0.0
1696258039586,-1.1953125,-0.059570312,0.43554688,-31.9375,108.71875,34.625,0.0,0.0,0.0
1696258039620,-0.65625,0.037109375,0.18066406,-40.96875,112.25,33.78125,0.0,0.0,0.0
1696258039676,-0.8847656,-0.0107421875,-0.01953125,-22.84375,108.125,23.625,0.0,0.0,0.0
1696258039710,-0.9189453,-0.076171875,0.06738281,-8.71875,95.0,9.46875,0.0,0.0,0.0
1696258039743,-0.85546875,0.028320312,0.09277344,-6.09375,88.8125,16.25,0.0,0.0,0.0
1696258039788,-0.8486328,-0.0029296875,0.07324219,-15.4375,84.5,28.78125,0.0,0.0,0.0
1696258039822,-0.99902344,-0.041992188,0.02734375,-8.90625,95.28125,43.65625,0.0,0.0,0.0
1696258039867,-1.015625,0.022460938,0.10253906,-26.25,72.40625,33.96875,0.0,0.0,0.0
1696258039912,-1.2197266,-0.16210938,-0.005859375,-6.0,35.40625,19.84375,-121.1875,122.875,-49.875
1696258039946,-1.1816406,-0.009765625,0.111328125,-9.15625,17.96875,7.46875,0.0,0.0,0.0
1696258039979,-1.40625,-0.14453125,0.103515625,-19.90625,-8.84375,11.8125,0.0,0.0,0.0
1696258040024,-1.4277344,-0.06738281,-0.07910156,-40.96875,-68.78125,6.71875,0.0,0.0,0.0
1696258040070,-1.1367188,0.018554688,-0.036132812,47.96875,-155.875,-31.15625,0.0,0.0,0.0
1696258040103,-1.4902344,0.5332031,0.21386719,97.03125,-205.84375,-42.40625,0.0,0.0,0.0
1696258040148,-1.4394531,0.13183594,-0.16210938,-62.125,-132.4375,-29.71875,0.0,0.0,0.0
1696258040182,-1.2109375,0.14941406,0.22753906,-95.78125,-138.40625,-68.46875,0.0,0.0,0.0
1696258040227,-1.0732422,-0.056640625,0.14355469,37.78125,-179.96875,-71.875,0.0,0.0,0.0
1696258040261,-0.6123047,-0.12402344,0.07128906,96.5625,-130.46875,-71.5,0.0,0.0,0.0
1696258040306,-0.33398438,0.01171875,0.21875,68.1875,-101.125,-59.0625,0.0,0.0,0.0
1696258040351,-0.24023438,0.11328125,0.26757812,65.5,-53.75,-49.0625,0.0,0.0,0.0
1696258040384,-0.2421875,0.13085938,0.18652344,82.15625,12.71875,-49.53125,-5.25,66.8125,-216.625
1696258040430,-0.23925781,0.034179688,0.24414062,21.59375,85.21875,-32.09375,0.0,0.0,0.0
1696258040463,-0.6855469,-0.06933594,0.71484375,-37.71875,154.6875,-3.9375,0.0,0.0,0.0
1696258040520,-1.9755859,-0.22753906,1.5703125,22.875,4.21875,23.28125,0.0,0.0,0.0
1696258040542,-0.3857422,0.5078125,0.94628906,86.78125,-124.4375,-1.6875,0.0,0.0,0.0
1696258040587,-0.6660156,-0.01953125,0.3310547,37.21875,22.25,11.875,0.0,0.0,0.0
1696258040621,-1.9755859,0.18652344,1.0029297,-29.46875,15.78125,48.65625,0.0,0.0,0.0
1696258040666,0.009765625,0.8203125,0.07128906,-11.84375,-25.25,-38.375,0.0,0.0,0.0
1696258040711,-0.3955078,-0.064453125,-0.052734375,-79.71875,108.1875,45.125,0.0,0.0,0.0
1696258040744,-1.6650391,-0.31152344,-0.14746094,-69.59375,113.90625,71.75,0.0,0.0,0.0
1696258040790,-0.7919922,0.078125,0.4453125,-28.8125,131.96875,16.4375,0.0,0.0,0.0
1696258040823,-0.7910156,-0.03125,0.08496094,-31.4375,134.0,19.3125,0.0,0.0,0.0
1696258040868,-0.8808594,0.01171875,-0.016601562,-22.53125,120.03125,9.0,0.0,0.0,0.0
1696258040913,-0.77246094,-0.051757812,0.043945312,-19.0625,95.65625,9.78125,-39.4375,87.8125,-143.4375
1696258040947,-0.8408203,-0.11035156,0.12695312,-25.5625,101.15625,13.375,0.0,0.0,0.0
1696258040981,-1.0263672,0.01171875,0.08984375,-18.4375,112.3125,39.9375,0.0,0.0,0.0
1696258041027,-1.0185547,0.04296875,0.038085938,-32.21875,79.5625,38.90625,0.0,0.0,0.0
1696258041071,-1.2539062,-0.040039062,0.032226562,-22.28125,34.6875,26.8125,0.0,0.0,0.0
1696258041105,-1.2617188,-0.11816406,0.103515625,-16.25,19.0,6.0,0.0,0.0,0.0
1696258041195,-1.5761719,-0.24414062,0.015625,-12.40625,-10.34375,8.1875,0.0,0.0,0.0
1696258041198,-1.5234375,0.12890625,0.16308594,-73.125,-105.15625,-5.21875,0.0,0.0,0.0
1696258041228,-1.0673828,0.0107421875,0.022460938,93.625,-167.875,-43.5,0.0,0.0,0.0
1696258041263,-1.4140625,0.42382812,0.009765625,130.625,-218.71875,-31.84375,0.0,0.0,0.0
1696258041308,-1.4521484,0.125,-0.041015625,-45.96875,-145.125,-21.15625,0.0,0.0,0.0
1696258041341,-1.3251953,0.20019531,0.053710938,-74.34375,-156.28125,-64.875,0.0,0.0,0.0
1696258041409,-0.9785156,-0.024414062,0.078125,36.1875,-199.75,-71.75,55.375,1.5625,84.8125
1696258041430,-0.49609375,0.078125,0.11425781,77.625,-129.125,-76.8125,0.0,0.0,0.0
1696258041465,-0.20019531,0.08886719,0.29101562,67.8125,-90.90625,-56.9375,0.0,0.0,0.0
1696258041509,-0.14746094,0.12207031,0.119140625,73.96875,-21.9375,-52.34375,0.0,0.0,0.0
1696258041543,-0.15527344,0.064453125,0.103515625,81.65625,36.46875,-32.5,0.0,0.0,0.0
1696258041588,-0.40039062,0.029296875,0.33007812,-3.25,99.4375,-5.0625,0.0,0.0,0.0
1696258041622,-1.2792969,-0.203125,1.0791016,-67.8125,134.46875,-19.15625,0.0,0.0,0.0
1696258041667,-1.9755859,-0.4658203,1.4912109,35.03125,-23.53125,18.28125,0.0,0.0,0.0
1696258041701,0.19628906,0.047851562,0.6328125,149.71875,-84.03125,-1.03125,0.0,0.0,0.0
1696258041746,-1.1796875,-0.6191406,0.25683594,-11.71875,78.09375,11.90625,0.0,0.0,0.0
1696258041791,-1.9755859,0.2783203,0.3125,-43.8125,8.5625,-16.9375,0.0,0.0,0.0
1696258041824,0.22949219,0.9580078,0.36035156,89.96875,-6.21875,-0.59375,0.0,0.0,0.0
1696258041869,-1.2373047,-0.34960938,-0.6894531,-179.21875,169.9375,50.96875,0.0,0.0,0.0
1696258041903,-1.5966797,-0.22753906,0.16308594,-48.71875,100.53125,63.8125,-29.125,54.3125,-228.625
1696258041948,-0.6113281,0.119140625,0.45507812,-23.6875,124.46875,3.75,0.0,0.0,0.0
1696258041982,-0.8339844,-0.15234375,0.060546875,-18.25,110.25,28.59375,0.0,0.0,0.0
1696258042027,-0.9628906,-0.06347656,0.016601562,-2.875,105.96875,9.59375,0.0,0.0,0.0
1696258042060,-0.734375,0.029296875,0.0390625,-11.90625,96.28125,3.75,0.0,0.0,0.0
1696258042106,-0.8876953,-0.0859375,0.11230469,-7.34375,96.03125,14.25,0.0,0.0,0.0
1696258042151,-0.90234375,0.07910156,-0.0126953125,8.0625,96.9375,35.40625,0.0,0.0,0.0
1696258042184,-1.0175781,0.19042969,0.09277344,-34.5625,98.15625,43.46875,0.0,0.0,0.0
1696258042229,-1.2460938,-0.072265625,0.0029296875,-19.90625,52.3125,28.03125,0.0,0.0,0.0
1696258042263,-1.1845703,-0.22265625,0.038085938,-16.53125,24.875,10.34375,0.0,0.0,0.0
1696258042308,-1.5390625,-0.25390625,-0.021484375,1.9375,-1.3125,4.96875,0.0,0.0,0.0
1696258042342,-1.7861328,-0.005859375,0.14453125,-120.78125,-138.78125,1.125,0.0,0.0,0.0
1696258042387,-1.1435547,0.015625,-0.020507812,97.09375,-132.5625,-57.71875,-666.4375,250.6875,501.6875
1696258042421,-1.3867188,0.328125,0.25,79.28125,-213.3125,-54.375,0.0,0.0,0.0
1696258042466,-1.3720703,0.296875,-0.1796875,4.75,-145.5,-37.625,0.0,0.0,0.0
1696258042511,-1.3193359,-0.055664062,0.09472656,-40.71875,-142.375,-77.8125,0.0,0.0,0.0
1696258042544,-1.2089844,-9.765625E-4,-0.0234375,59.03125,-189.125,-75.65625,0.0,0.0,0.0
1696258042589,-0.6689453,0.04296875,0.11621094,98.9375,-142.1875,-64.625,0.0,0.0,0.0
1696258042623,-0.3984375,0.20800781,0.36914062,39.375,-81.34375,-47.90625,0.0,0.0,0.0
1696258042669,-0.296875,0.20996094,0.15039062,55.59375,-47.84375,-34.28125,0.0,0.0,0.0
1696258042714,-0.19726562,0.044921875,0.01953125,63.28125,-4.375,-6.875,0.0,0.0,0.0
1696258042747,-0.31054688,-0.07128906,0.14257812,32.15625,47.125,27.59375,0.0,0.0,0.0
1696258042781,-0.8300781,9.765625E-4,0.8046875,-18.6875,117.40625,-1.15625,0.0,0.0,0.0
1696258042837,-1.6708984,0.14941406,1.3623047,22.03125,3.9375,0.9375,0.0,0.0,0.0
1696258042871,-0.8408203,-0.48632812,0.72753906,-29.78125,-77.5625,-16.15625,0.0,0.0,0.0
1696258042905,-0.31445312,-0.078125,0.45214844,115.21875,29.5625,-14.4375,-20.6875,56.0,-230.875
1696258042949,-1.6972656,0.32226562,0.4609375,-17.21875,66.25,30.0,0.0,0.0,0.0
1696258042983,-0.8486328,0.30078125,0.16894531,-22.34375,-46.5,-12.625,0.0,0.0,0.0
1696258043028,-0.20117188,0.24121094,0.1015625,-27.65625,44.625,4.46875,0.0,0.0,0.0
1696258043062,-1.3486328,-0.296875,-0.12207031,-61.34375,76.625,55.25,0.0,0.0,0.0
1696258043107,-0.9824219,0.17578125,0.35742188,-23.6875,94.5,24.875,0.0,0.0,0.0
1696258043141,-0.8232422,0.056640625,0.28125,-55.375,105.4375,17.34375,0.0,0.0,0.0
1696258043197,-0.8408203,-0.11035156,0.14648438,-51.8125,101.28125,12.34375,0.0,0.0,0.0
1696258043231,-0.8251953,-0.140625,0.2109375,-32.78125,71.84375,-3.46875,0.0,0.0,0.0
1696258043264,-0.7324219,-0.13769531,0.22363281,-30.59375,69.96875,1.1875,0.0,0.0,0.0
1696258043309,-0.75878906,-0.07128906,0.07128906,-33.6875,58.5,11.0,0.0,0.0,0.0
1696258043343,-0.7578125,-0.0068359375,0.16113281,-11.125,63.75,21.6875,0.0,0.0,0.0
1696258043388,-0.8613281,0.040039062,0.11035156,-29.59375,66.0,45.625,20.25,281.75,65.1875
1696258043422,-0.9355469,0.10644531,0.022460938,-55.125,51.46875,55.25,0.0,0.0,0.0
1696258043467,-1.015625,-0.09375,0.072265625,-28.5625,46.09375,50.625,0.0,0.0,0.0
1696258043500,-1.1455078,-0.2529297,0.24511719,-20.28125,29.1875,57.5625,0.0,0.0,0.0
1696258043546,-1.9755859,-0.15429688,-0.09667969,5.1875,-17.625,61.65625,0.0,0.0,0.0
1696258043591,-1.6523438,-0.0234375,0.24902344,4.4375,-96.96875,-10.1875,0.0,0.0,0.0
1696258043624,-1.4785156,0.11621094,-0.07910156,46.0625,-96.65625,-78.59375,0.0,0.0,0.0
1696258043669,-1.5068359,0.4921875,0.14746094,-18.875,-83.46875,-75.53125,0.0,0.0,0.0
1696258043703,-1.2177734,0.46875,0.23730469,-39.25,-116.5,-78.59375,0.0,0.0,0.0
1696258043748,-1.2167969,0.123046875,-0.16015625,49.125,-142.25,-99.46875,0.0,0.0,0.0
1696258043782,-0.8769531,-0.12597656,-0.025390625,146.25,-174.34375,-81.65625,0.0,0.0,0.0
1696258043827,-0.56347656,0.28808594,0.21972656,87.34375,-144.9375,-53.75,0.0,0.0,0.0
1696258043860,-0.39941406,0.39648438,0.18847656,63.71875,-97.4375,-65.78125,0.0,0.0,0.0
1696258043906,-0.32421875,0.07324219,0.080078125,38.8125,-57.65625,-45.5625,67.375,138.625,-196.125
1696258043951,-0.27148438,-0.1796875,0.22363281,33.6875,-15.65625,-20.375,0.0,0.0,0.0
1696258043984,-0.41015625,-0.09082031,0.6142578,32.71875,51.34375,-8.78125,0.0,0.0,0.0
1696258044030,-0.87597656,-0.32714844,1.2109375,42.21875,97.25,-16.28125,0.0,0.0,0.0
1696258044063,-1.6611328,-0.4873047,1.1875,85.1875,0.9375,-7.125,0.0,0.0,0.0
1696258044108,-0.52246094,0.01171875,0.7207031,37.90625,-2.0,-28.4375,0.0,0.0,0.0
1696258044142,-1.9755859,0.42578125,-0.017578125,8.25,51.03125,43.15625,0.0,0.0,0.0
1696258044187,-0.26367188,0.86621094,-0.020507812,-7.6875,-41.46875,-6.875,0.0,0.0,0.0
1696258044232,0.21582031,0.23242188,-0.15917969,-93.6875,59.78125,30.78125,0.0,0.0,0.0
1696258044265,-1.8291016,-0.5214844,-0.265625,-123.125,131.25,81.1875,0.0,0.0,0.0
1696258044311,-0.9589844,-0.0546875,0.43652344,-42.65625,117.5,28.15625,0.0,0.0,0.0
1696258044344,-0.65527344,-0.10546875,0.19726562,-25.09375,135.09375,44.875,0.0,0.0,0.0
1696258044389,-0.8154297,0.0703125,-0.028320312,-24.25,118.96875,30.78125,-19.8125,96.0625,-155.4375
1696258044423,-0.87890625,-0.05859375,0.0234375,-6.21875,95.28125,11.625,0.0,0.0,0.0
1696258044468,-0.7919922,9.765625E-4,0.19335938,-42.0,100.4375,15.875,0.0,0.0,0.0
1696258044502,-0.92089844,0.041992188,-0.036132812,-16.90625,101.71875,37.625,0.0,0.0,0.0
1696258044547,-1.0712891,0.064453125,0.1015625,-32.0625,94.0,39.8125,0.0,0.0,0.0
1696258044581,-1.3271484,-0.17675781,0.12695312,-22.03125,47.75,29.6875,0.0,0.0,0.0
1696258044626,-1.3681641,-0.140625,0.15722656,-24.84375,16.8125,8.125,0.0,0.0,0.0
1696258044671,-1.6142578,-0.19824219,0.2783203,-33.21875,-35.125,-1.8125,0.0,0.0,0.0
1696258044704,-1.5009766,-0.11621094,-0.25097656,58.03125,-84.5625,-43.0625,0.0,0.0,0.0
1696258044749,-1.1962891,0.42089844,0.22265625,76.40625,-195.0625,-53.03125,0.0,0.0,0.0
1696258044783,-1.5488281,0.49414062,-0.18457031,67.875,-204.9375,-18.15625,0.0,0.0,0.0
1696258044829,-1.1933594,0.08886719,0.04296875,-97.71875,-120.34375,-45.625,0.0,0.0,0.0
1696258044862,-1.5136719,-0.05859375,0.072265625,-80.625,-131.5625,-109.59375,0.0,0.0,0.0
1696258044907,-0.83496094,-0.08886719,-0.052734375,92.9375,-152.1875,-85.90625,191.375,12.3125,130.875
1696258044940,-0.3173828,-0.0048828125,0.068359375,133.46875,-128.75,-65.84375,0.0,0.0,0.0
1696258044997,-0.2783203,0.18261719,0.1875,89.71875,-78.84375,-51.5625,0.0,0.0,0.0
1696258045031,-0.12597656,0.1484375,0.19433594,79.71875,-30.5,-49.3125,0.0,0.0,0.0
1696258045064,-0.07519531,0.13574219,0.15136719,63.15625,17.65625,-14.875,0.0,0.0,0.0
1696258045109,-0.44726562,0.09277344,0.5390625,-16.125,101.03125,1.65625,0.0,0.0,0.0
1696258045143,-1.6035156,-0.08984375,1.4882812,-7.6875,49.59375,-18.53125,0.0,0.0,0.0
1696258045188,-1.7529297,-0.20898438,1.4921875,21.0,-59.1875,1.96875,0.0,0.0,0.0
1696258045222,-0.0078125,-0.049804688,0.4033203,124.75,-3.15625,-16.53125,0.0,0.0,0.0
1696258045267,-1.3085938,0.14746094,0.7714844,-33.375,63.4375,-4.5,0.0,0.0,0.0
1696258045312,-0.64453125,0.86035156,0.049804688,-101.375,66.5,4.65625,0.0,0.0,0.0
1696258045345,-0.703125,0.19921875,0.41308594,-9.53125,25.28125,88.15625,0.0,0.0,0.0
1696258045391,-1.0791016,-0.43847656,-0.3232422,-126.15625,144.4375,32.375,-18.3125,40.8125,-221.0
1696258045424,-1.0527344,-0.12402344,0.3330078,-23.125,103.53125,41.8125,0.0,0.0,0.0
1696258045469,-0.57128906,0.19042969,0.35058594,-42.25,141.3125,12.28125,0.0,0.0,0.0
1696258045503,-0.74121094,-0.025390625,-0.005859375,-36.625,139.5625,16.25,0.0,0.0,0.0
1696258045548,-1.0410156,-0.18945312,0.11816406,10.875,115.4375,14.96875,0.0,0.0,0.0
1696258045582,-0.75097656,0.09863281,0.087890625,-3.71875,107.125,15.875,0.0,0.0,0.0
1696258045627,-0.8876953,0.051757812,-0.045898438,-1.40625,95.84375,30.59375,0.0,0.0,0.0
1696258045672,-1.0302734,0.13574219,0.046875,-18.9375,95.1875,39.21875,0.0,0.0,0.0
1696258045705,-1.1464844,0.09375,0.13085938,-27.40625,63.8125,27.4375,0.0,0.0,0.0
1696258045751,-1.2861328,-0.033203125,0.171875,-39.875,35.96875,6.5,0.0,0.0,0.0
1696258045784,-1.4541016,-0.3515625,0.041992188,-24.59375,-1.25,6.1875,0.0,0.0,0.0
1696258045829,-1.6503906,-0.22265625,-0.029296875,-14.71875,-54.46875,-24.34375,0.0,0.0,0.0
1696258045863,-1.2109375,-0.045898438,-0.018554688,37.21875,-166.3125,-44.0625,0.0,0.0,0.0
1696258045908,-1.4296875,0.46289062,0.076171875,126.28125,-236.78125,-34.90625,-382.3125,67.6875,394.125
1696258045942,-1.4072266,0.5332031,0.048828125,-15.375,-136.28125,-18.84375,0.0,0.0,0.0
1696258045987,-1.3056641,0.14160156,0.07421875,-99.125,-140.78125,-59.1875,0.0,0.0,0.0
1696258046032,-1.0351562,-0.009765625,0.12207031,45.03125,-229.15625,-64.0,0.0,0.0,0.0
1696258046066,-0.515625,-0.11816406,0.028320312,71.34375,-166.375,-59.0625,0.0,0.0,0.0
1696258046111,-0.20410156,0.0625,0.14453125,56.625,-115.65625,-51.25,0.0,0.0,0.0
1696258046144,-0.099609375,0.13476562,0.13671875,63.90625,-51.625,-42.59375,0.0,0.0,0.0
1696258046189,-0.03125,0.12109375,0.18164062,77.09375,14.84375,-34.78125,0.0,0.0,0.0
1696258046223,-0.35546875,0.053710938,0.44921875,22.15625,88.15625,-12.4375,0.0,0.0,0.0
1696258046268,-1.5068359,-0.17871094,1.1523438,-52.5625,106.21875,-33.5,0.0,0.0,0.0
1696258046302,-1.9755859,-0.3779297,1.5322266,31.125,-65.84375,8.875,0.0,0.0,0.0
1696258046347,0.040039062,-0.22265625,0.4921875,132.875,-48.125,22.28125,0.0,0.0,0.0
1696258046392,-1.3652344,-0.07128906,0.7470703,9.28125,117.75,-25.0625,-28.1875,37.6875,-207.1875
1696258046425,-1.6298828,0.75683594,-0.043945312,-109.125,31.8125,6.5625,0.0,0.0,0.0
1696258046471,0.07128906,0.58203125,0.5,31.4375,0.9375,52.4375,0.0,0.0,0.0
1696258046516,-1.4736328,-0.48339844,-0.4189453,-117.25,146.4375,66.5,0.0,0.0,0.0
1696258046561,-1.1259766,-0.016601562,0.1953125,-71.65625,126.59375,40.90625,0.0,0.0,0.0
1696258046583,-0.27929688,1.7753906,0.7207031,-9.65625,120.875,-78.34375,0.0,0.0,0.0
1696258046628,-0.7470703,-0.051757812,0.020507812,-70.25,131.1875,29.75,0.0,0.0,0.0
1696258046663,-1.0488281,-0.29003906,-0.037109375,-14.90625,125.03125,20.78125,0.0,0.0,0.0
1696258046707,-0.6826172,-9.765625E-4,0.026367188,-39.375,128.375,13.09375,0.0,0.0,0.0
1696258046752,-0.9189453,0.046875,0.03515625,-14.53125,108.46875,30.90625,0.0,0.0,0.0
1696258046786,-1.1347656,0.020507812,0.064453125,-27.21875,102.125,45.375,0.0,0.0,0.0
1696258046831,-1.2392578,-0.06738281,0.0390625,-24.84375,63.0625,30.65625,0.0,0.0,0.0
1696258046864,-1.3095703,-0.03125,0.051757812,-45.34375,27.59375,-0.09375,0.0,0.0,0.0
1696258046921,-1.3730469,-0.123046875,0.072265625,-35.96875,2.34375,-2.0625,-77.6875,71.5625,-91.6875
1696258046943,-1.6679688,-0.14453125,0.11328125,-24.90625,-33.84375,-0.96875,0.0,0.0,0.0
1696258046988,-1.3701172,-0.12011719,-0.21289062,-17.21875,-150.1875,-9.9375,0.0,0.0,0.0
1696258047022,-1.2617188,0.032226562,0.056640625,59.5,-218.65625,-35.5625,0.0,0.0,0.0
1696258047067,-1.546875,0.6201172,0.015625,141.46875,-155.5625,-36.78125,0.0,0.0,0.0
1696258047112,-1.1855469,0.05859375,0.1484375,-66.65625,-130.09375,-65.78125,0.0,0.0,0.0
1696258047145,-1.1425781,0.2578125,0.0029296875,-9.09375,-198.59375,-55.21875,0.0,0.0,0.0
1696258047191,-0.7841797,-0.20019531,0.0234375,60.96875,-176.90625,-72.84375,0.0,0.0,0.0
1696258047224,-0.37695312,0.07324219,0.19921875,43.03125,-147.9375,-61.03125,0.0,0.0,0.0
1696258047269,-0.20507812,0.16992188,0.1484375,60.65625,-91.40625,-45.5,0.0,0.0,0.0
1696258047303,-0.06640625,0.13769531,0.05859375,98.625,-27.8125,-15.25,0.0,0.0,0.0
1696258047348,-0.38476562,-0.095703125,0.34277344,57.5,44.6875,10.53125,0.0,0.0,0.0
1696258047393,-0.7890625,0.028320312,1.3251953,-20.6875,89.6875,-17.9375,-9.4375,47.875,-209.3125
1696258047427,-1.5878906,-0.57421875,1.5078125,-29.96875,21.25,-0.15625,0.0,0.0,0.0
1696258047472,-0.10546875,-0.29589844,0.56152344,89.09375,-36.34375,-18.84375,0.0,0.0,0.0
1696258047505,-0.4716797,0.14160156,0.30273438,5.5,133.125,-24.875,0.0,0.0,0.0
1696258047551,-1.9755859,1.3271484,0.73535156,-74.71875,34.375,108.71875,0.0,0.0,0.0
1696258047584,0.5751953,0.46875,0.3232422,23.90625,-68.21875,24.1875,0.0,0.0,0.0
1696258047629,-1.1044922,-0.6035156,-0.5986328,-148.1875,189.46875,53.84375,0.0,0.0,0.0
1696258047663,-1.8935547,-0.3544922,0.13867188,-38.40625,122.59375,46.53125,0.0,0.0,0.0
1696258047709,-0.53125,0.2705078,0.5361328,-9.21875,145.34375,-22.5625,0.0,0.0,0.0
1696258047742,-0.66015625,0.028320312,0.15136719,-24.28125,115.6875,9.28125,0.0,0.0,0.0
1696258047787,-0.875,-0.095703125,-0.040039062,-28.5625,133.1875,3.5625,0.0,0.0,0.0
1696258047832,-0.7285156,-0.01953125,-0.01171875,-28.9375,128.5,5.4375,0.0,0.0,0.0
1696258047865,-1.0224609,0.041992188,0.095703125,-5.75,116.78125,29.25,0.0,0.0,0.0
1696258047911,-0.97558594,0.20507812,0.08300781,-12.8125,98.46875,51.59375,2.6875,107.4375,150.375
1696258047944,-1.2070312,0.064453125,0.17773438,-33.21875,63.625,42.5,0.0,0.0,0.0
1696258047989,-1.2099609,-0.072265625,0.0859375,-38.8125,35.53125,10.75,0.0,0.0,0.0
1696258048034,-1.5351562,-0.21875,-0.03515625,-26.5,-12.90625,-0.21875,0.0,0.0,0.0
1696258048068,-1.6669922,-0.15429688,-0.047851562,4.625,-61.125,-25.875,0.0,0.0,0.0
1696258048102,-1.1367188,0.046875,0.0546875,44.6875,-188.03125,-42.03125,0.0,0.0,0.0
1696258048147,-1.5800781,0.59277344,0.16894531,103.28125,-220.25,-32.40625,0.0,0.0,0.0
1696258048192,-1.2207031,0.08984375,-0.23632812,-25.15625,-143.90625,-18.21875,0.0,0.0,0.0
1696258048226,-1.3212891,0.044921875,0.08496094,-106.3125,-153.96875,-63.34375,0.0,0.0,0.0
1696258048271,-0.96191406,0.08300781,0.07910156,62.0625,-221.90625,-78.84375,0.0,0.0,0.0
1696258048304,-0.4609375,0.009765625,0.06738281,81.28125,-147.0,-71.875,0.0,0.0,0.0
1696258048349,-0.20996094,0.09863281,0.14160156,69.03125,-101.46875,-58.75,0.0,0.0,0.0
1696258048394,-0.18359375,0.1875,0.13574219,61.59375,-41.84375,-48.3125,36.0,82.25,-215.4375
1696258048428,-0.10449219,0.11816406,0.17480469,57.5,21.125,-27.75,0.0,0.0,0.0
1696258048462,-0.3017578,0.03125,0.296875,-22.40625,91.75,4.0625,0.0,0.0,0.0
1696258048507,-1.1337891,-0.27929688,0.9628906,-71.0625,143.6875,-4.6875,0.0,0.0,0.0
1696258048552,-1.9755859,-0.61328125,1.5556641,30.21875,-32.375,32.3125,0.0,0.0,0.0
1696258048585,0.10644531,0.17773438,0.74316406,138.59375,-81.21875,13.375,0.0,0.0,0.0
1696258048631,-1.7392578,-0.11425781,0.01953125,-44.5,65.375,30.53125,0.0,0.0,0.0
1696258048664,-0.6230469,0.58691406,-0.14550781,-32.46875,-30.875,-37.9375,0.0,0.0,0.0
1696258048709,-0.037109375,0.32226562,0.3486328,22.59375,-12.3125,51.84375,0.0,0.0,0.0
1696258048743,-1.6923828,-0.49121094,-0.33984375,-134.09375,142.53125,56.84375,0.0,0.0,0.0
1696258048788,-1.0136719,-0.033203125,0.27441406,-43.59375,112.15625,18.28125,0.0,0.0,0.0
1696258048822,-0.69140625,0.17089844,0.30273438,-40.71875,141.25,14.125,0.0,0.0,0.0
1696258048878,-0.84472656,-0.026367188,0.018554688,-44.375,151.09375,24.8125,0.0,0.0,0.0
1696258048912,-0.8964844,-0.046875,-0.041992188,-11.84375,130.5625,14.1875,-19.1875,86.875,-153.625
1696258048945,-0.7783203,0.07519531,-0.017578125,-22.78125,112.9375,26.375,0.0,0.0,0.0
1696258048991,-0.82910156,0.068359375,0.095703125,-7.8125,101.8125,43.0625,0.0,0.0,0.0
1696258049024,-1.1113281,0.109375,0.03125,-34.6875,93.09375,51.28125,0.0,0.0,0.0
1696258049069,-1.1865234,0.080078125,0.005859375,-47.5625,61.25,27.1875,0.0,0.0,0.0
1696258049115,-1.1787109,-0.5126953,0.09667969,-152.15625,-75.90625,28.03125,0.0,0.0,0.0
1696258049148,-1.2900391,-0.20898438,0.3232422,20.625,15.9375,2.875,0.0,0.0,0.0
1696258049182,-1.7998047,-0.21875,-0.078125,13.375,-34.78125,-17.125,0.0,0.0,0.0
1696258049227,-1.234375,-0.07714844,-9.765625E-4,4.875,-174.90625,-43.1875,0.0,0.0,0.0
1696258049272,-1.7001953,0.35253906,0.44433594,69.5,-230.75,-44.0625,0.0,0.0,0.0
1696258049306,-1.3330078,0.2734375,-0.33203125,28.6875,-144.4375,-21.15625,0.0,0.0,0.0
1696258049351,-1.2695312,0.12597656,0.19726562,-115.65625,-139.3125,-69.1875,0.0,0.0,0.0
1696258049384,-0.921875,0.083984375,0.0546875,88.4375,-248.6875,-72.3125,57.0,-65.1875,50.3125
1696258049429,-0.6328125,-0.0078125,0.11816406,94.71875,-138.59375,-77.96875,0.0,0.0,0.0
1696258049463,-0.25585938,0.10546875,0.21289062,69.15625,-90.125,-70.96875,0.0,0.0,0.0
1696258049508,-0.29882812,0.12695312,0.20117188,80.4375,-63.40625,-66.5625,0.0,0.0,0.0
1696258049553,-0.18554688,-0.022460938,0.20410156,75.25,7.21875,-56.0,0.0,0.0,0.0
1696258049587,-0.24511719,0.0078125,0.10253906,14.28125,84.5,-21.71875,0.0,0.0,0.0
1696258049666,-0.6425781,0.07910156,0.70996094,-24.90625,137.21875,-2.1875,0.0,0.0,0.0
1696258049668,-1.8173828,-0.0068359375,1.5322266,28.4375,30.71875,14.25,0.0,0.0,0.0
1696258049710,-0.6230469,-0.16113281,0.9042969,79.59375,-96.78125,-10.84375,0.0,0.0,0.0
1696258049744,-0.25976562,-0.3173828,0.3642578,33.875,37.0,-24.09375,0.0,0.0,0.0
1696258049789,-1.9755859,0.24707031,0.4658203,-76.90625,115.5,1.96875,0.0,0.0,0.0
1696258049823,-0.42285156,0.7988281,0.09765625,29.0625,-65.96875,-35.375,0.0,0.0,0.0
1696258049869,0.5341797,0.3701172,0.07324219,-70.375,84.6875,46.21875,0.0,0.0,0.0
1696258049913,-1.8701172,-0.5253906,-0.29296875,-120.1875,106.65625,85.78125,-19.1875,42.8125,-219.5
1696258049947,-0.9892578,-0.078125,0.5292969,-23.25,127.71875,15.28125,0.0,0.0,0.0
1696258050003,-0.59765625,0.041992188,0.0234375,-31.875,111.84375,28.59375,0.0,0.0,0.0
1696258050025,-0.96972656,0.0078125,0.0,-11.78125,117.875,16.75,0.0,0.0,0.0
1696258050071,-0.8232422,-0.025390625,0.005859375,-7.6875,114.59375,7.96875,0.0,0.0,0.0
1696258050104,-0.8408203,0.056640625,0.09472656,-15.03125,97.0,18.375,0.0,0.0,0.0
1696258050149,-0.8623047,0.009765625,0.1015625,-8.0625,96.8125,42.6875,0.0,0.0,0.0
1696258050183,-1.0332031,0.06933594,0.017578125,-29.1875,92.5,51.46875,0.0,0.0,0.0
1696258050228,-1.1962891,-0.036132812,0.032226562,-29.3125,49.59375,33.65625,0.0,0.0,0.0
1696258050273,-1.2509766,-0.16210938,0.053710938,-27.28125,24.125,10.625,0.0,0.0,0.0
1696258050307,-1.3935547,-0.080078125,0.11425781,-59.28125,-24.5,8.6875,0.0,0.0,0.0
1696258050386,-1.5175781,-0.028320312,0.034179688,6.84375,-29.75,-12.1875,-403.3125,-82.0,591.0625
1696258050397,-1.2197266,-0.021484375,-0.043945312,-17.40625,-154.15625,-31.0625,0.0,0.0,0.0
1696258050431,-1.3007812,0.3251953,0.29492188,79.03125,-210.90625,-48.875,0.0,0.0,0.0
1696258050464,-1.6328125,0.36035156,-0.02734375,5.96875,-156.21875,-27.75,0.0,0.0,0.0
1696258050509,-1.1748047,0.103515625,0.1328125,-102.1875,-139.75,-86.28125,0.0,0.0,0.0
1696258050543,-1.2578125,-0.072265625,0.0234375,42.28125,-166.53125,-73.90625,0.0,0.0,0.0
1696258050588,-0.7451172,-0.14355469,0.125,89.71875,-148.40625,-69.25,0.0,0.0,0.0
1696258050633,-0.359375,0.13085938,0.18945312,52.0,-105.09375,-61.6875,0.0,0.0,0.0
1696258050667,-0.17871094,0.21875,0.18066406,45.59375,-67.0625,-44.96875,0.0,0.0,0.0
1696258050712,-0.03125,0.140625,0.083984375,63.09375,-7.5,-31.15625,0.0,0.0,0.0
1696258050746,-0.18652344,0.020507812,0.22753906,22.625,65.34375,-1.03125,0.0,0.0,0.0
1696258050791,-0.8935547,-0.27539062,0.88671875,-43.28125,127.59375,-3.15625,0.0,0.0,0.0
1696258050824,-1.9755859,-0.5751953,1.4628906,34.78125,-8.21875,14.65625,0.0,0.0,0.0
1696258050869,-0.16796875,-0.17578125,0.9033203,118.03125,-77.6875,-5.09375,0.0,0.0,0.0
1696258050914,-0.9863281,-0.234375,0.25878906,23.8125,88.71875,7.78125,-35.125,28.375,-200.75
1696258050948,-1.9755859,0.62597656,0.73339844,-101.75,48.0,21.875,0.0,0.0,0.0
1696258051004,0.31933594,0.7519531,0.30078125,54.5625,-34.59375,-34.71875,0.0,0.0,0.0
1696258051027,-1.0439453,-0.30566406,-0.6767578,-137.75,177.75,80.84375,0.0,0.0,0.0
1696258051072,-1.6425781,-0.22265625,0.12207031,-41.1875,107.25,61.34375,0.0,0.0,0.0
1696258051106,-0.5439453,0.07910156,0.35839844,-48.53125,140.53125,8.3125,0.0,0.0,0.0
1696258051151,-0.8847656,-0.028320312,-0.0390625,-35.46875,112.4375,30.53125,0.0,0.0,0.0
1696258051184,-0.91796875,-0.16113281,0.043945312,4.09375,109.21875,19.96875,0.0,0.0,0.0
1696258051229,-0.7294922,0.037109375,-0.0126953125,19.03125,104.5625,22.90625,0.0,0.0,0.0
1696258051263,-0.8769531,0.032226562,0.21386719,-21.90625,95.90625,21.25,0.0,0.0,0.0
1696258051308,-1.0517578,0.021484375,-0.0107421875,-21.4375,105.5625,38.09375,0.0,0.0,0.0
1696258051353,-1.0117188,0.057617188,0.059570312,-30.28125,54.03125,33.09375,0.0,0.0,0.0
1696258051387,-1.1376953,-0.12011719,0.034179688,-28.3125,25.78125,14.1875,-84.625,72.5,-95.0
1696258051432,-1.2695312,-0.19238281,-0.01171875,-9.46875,18.34375,-0.71875,0.0,0.0,0.0
1696258051466,-1.5595703,-0.07519531,-0.06738281,-9.09375,-16.875,-1.8125,0.0,0.0,0.0
1696258051511,-1.3115234,0.083984375,0.28320312,49.8125,-59.4375,-6.15625,0.0,0.0,0.0
1696258051544,-1.1367188,0.13769531,0.037109375,65.375,-192.90625,-45.03125,0.0,0.0,0.0
1696258051589,-1.5390625,0.7988281,-0.02734375,69.625,-172.28125,-34.59375,0.0,0.0,0.0
1696258051623,-1.2910156,-0.051757812,0.052734375,-87.96875,-132.3125,-25.5625,0.0,0.0,0.0
1696258051668,-1.0517578,0.28808594,-0.022460938,-40.34375,-164.34375,-65.28125,0.0,0.0,0.0
1696258051724,-1.0253906,-0.21191406,0.1875,52.65625,-170.5,-61.5,0.0,0.0,0.0
1696258051747,-0.54003906,0.06542969,0.1875,67.25,-127.46875,-67.96875,0.0,0.0,0.0
1696258051792,-0.2626953,0.12402344,0.24121094,35.8125,-95.4375,-44.78125,0.0,0.0,0.0
1696258051837,-0.109375,0.16210938,0.14550781,54.875,-26.53125,-44.0625,0.0,0.0,0.0
1696258051870,-0.0859375,0.08300781,0.13769531,55.90625,25.90625,-11.9375,0.0,0.0,0.0
1696258051916,-0.4296875,-0.05859375,0.4921875,-28.1875,100.78125,3.0625,-9.4375,57.5,-207.9375
1696258051949,-1.5068359,-0.31054688,1.4814453,-13.75,98.53125,-20.71875,0.0,0.0,0.0
1696258052028,-1.8320312,-0.42285156,1.3916016,32.28125,-49.90625,0.75,0.0,0.0,0.0
1696258052030,0.22167969,-0.009765625,0.49609375,110.65625,-7.125,-22.9375,0.0,0.0,0.0
1696258052073,-1.2197266,0.20605469,0.23046875,-62.4375,111.34375,16.1875,0.0,0.0,0.0
1696258052107,-1.9345703,0.46289062,0.32128906,-35.46875,-35.375,16.3125,0.0,0.0,0.0
1696258052152,9.765625E-4,0.4921875,0.3046875,-8.3125,25.65625,28.78125,0.0,0.0,0.0
1696258052186,-1.3457031,-0.40039062,-0.5732422,-143.6875,131.125,56.46875,0.0,0.0,0.0
1696258052231,-1.3046875,-0.115234375,0.3720703,-15.3125,115.1875,41.34375,0.0,0.0,0.0
1696258052264,-0.5625,0.115234375,0.2685547,-58.21875,134.84375,14.375,0.0,0.0,0.0
1696258052310,-0.94921875,-0.033203125,0.0078125,-26.96875,117.5,32.3125,0.0,0.0,0.0
1696258052343,-0.84765625,-0.072265625,0.078125,-15.875,104.75,9.28125,0.0,0.0,0.0
1696258052388,-0.78808594,0.0146484375,-0.037109375,-16.78125,103.84375,14.90625,-23.5625,111.1875,-109.25
1696258052433,-0.796875,-0.005859375,0.22265625,-19.78125,94.6875,22.65625,0.0,0.0,0.0
1696258052467,-1.0566406,-0.02734375,0.034179688,-12.75,88.28125,45.90625,0.0,0.0,0.0
1696258052512,-1.0556641,-0.0126953125,0.13476562,-36.0,56.125,31.8125,0.0,0.0,0.0
1696258052546,-1.1308594,-0.0859375,0.016601562,-25.03125,22.1875,15.875,0.0,0.0,0.0
1696258052591,-1.2832031,-0.18066406,-0.06542969,-2.6875,8.375,2.28125,0.0,0.0,0.0
1696258052624,-1.5175781,-0.033203125,-0.025390625,-1.96875,-25.75,-16.875,0.0,0.0,0.0
1696258052670,-1.4423828,-0.07519531,-0.020507812,6.15625,-126.5625,-28.375,0.0,0.0,0.0
1696258052703,-1.234375,0.24121094,0.3720703,57.625,-219.65625,-34.34375,0.0,0.0,0.0
1696258052748,-1.6035156,0.9472656,0.047851562,34.90625,-151.28125,-27.375,0.0,0.0,0.0
1696258052793,-1.171875,-0.07910156,0.14453125,-64.15625,-137.90625,-55.09375,0.0,0.0,0.0
1696258052827,-1.4121094,0.060546875,0.043945312,22.75,-152.8125,-41.96875,0.0,0.0,0.0
1696258052872,-0.6982422,-0.09082031,0.115234375,73.0625,-181.1875,-37.59375,0.0,0.0,0.0
1696258052906,-0.34179688,0.040039062,0.14453125,40.34375,-119.5,-49.46875,71.25,119.75,-131.625
1696258052951,-0.1953125,0.08203125,0.19140625,31.625,-86.28125,-40.375,0.0,0.0,0.0
1696258052984,-0.11230469,0.10058594,0.17675781,64.4375,-21.78125,-34.28125,0.0,0.0,0.0
1696258053029,-0.032226562,0.076171875,0.35253906,41.375,63.125,-24.40625,0.0,0.0,0.0
1696258053063,-0.55859375,-0.10058594,0.8017578,-58.90625,148.59375,-8.46875,0.0,0.0,0.0
1696258053108,-1.9345703,-0.14550781,1.3759766,0.71875,19.125,7.53125,0.0,0.0,0.0
1696258053153,-0.5546875,-0.080078125,1.0107422,125.90625,-102.34375,-16.65625,0.0,0.0,0.0
1696258053187,-0.8339844,-0.061523438,0.3720703,41.9375,40.90625,19.5,0.0,0.0,0.0
1696258053232,-1.9755859,0.43945312,0.6796875,-63.0625,16.375,19.0,0.0,0.0,0.0
1696258053266,-0.18066406,0.71484375,0.43164062,28.375,-21.90625,-14.9375,0.0,0.0,0.0
1696258053311,-1.109375,-0.19433594,-0.4482422,-139.71875,161.40625,54.03125,0.0,0.0,0.0
1696258053355,-1.3320312,-0.2626953,0.036132812,-33.6875,112.9375,48.84375,0.0,0.0,0.0
1696258053389,-0.6269531,0.20214844,0.51464844,-46.34375,125.875,19.0,-28.0625,54.625,-215.125
1696258053423,-0.85839844,-0.13769531,0.024414062,-56.65625,128.125,35.96875,0.0,0.0,0.0
1696258053468,-0.9707031,-0.24707031,-0.021484375,-4.8125,120.375,16.125,0.0,0.0,0.0
1696258053513,-0.7080078,-0.021484375,-0.08300781,-6.09375,118.375,8.8125,0.0,0.0,0.0
1696258053547,-0.8515625,0.018554688,0.18261719,-14.46875,99.5625,16.0625,0.0,0.0,0.0
1696258053592,-1.078125,-0.0146484375,0.078125,-13.25,97.875,36.46875,0.0,0.0,0.0
1696258053626,-0.953125,0.13476562,0.10253906,-38.875,76.8125,36.59375,0.0,0.0,0.0
1696258053670,-1.15625,-0.052734375,0.021484375,-29.71875,30.46875,29.125,0.0,0.0,0.0
1696258053704,-1.1484375,-0.16796875,0.020507812,-23.375,20.71875,2.9375,0.0,0.0,0.0
1696258053749,-1.7753906,-0.047851562,0.17382812,-174.5625,-129.875,24.96875,0.0,0.0,0.0
1696258053783,-1.6025391,-0.107421875,-0.06542969,67.1875,-22.25,-20.84375,0.0,0.0,0.0
1696258053828,-1.1806641,0.0546875,0.0078125,44.3125,-173.1875,-43.0,0.0,0.0,0.0
1696258053907,-1.5771484,0.7050781,0.0546875,111.5625,-199.25,-36.34375,-225.875,-18.5625,70.0
1696258053908,-1.3945312,0.12011719,-0.059570312,-52.5625,-146.65625,-12.4375,0.0,0.0,0.0
1696258053952,-1.1923828,0.23730469,0.13671875,-48.90625,-183.375,-50.53125,0.0,0.0,0.0
1696258053986,-1.0205078,-0.037109375,-0.0087890625,6.71875,-188.28125,-58.09375,0.0,0.0,0.0
1696258054030,-0.49804688,0.033203125,0.14648438,93.625,-139.375,-68.9375,0.0,0.0,0.0
1696258054064,-0.22363281,0.07324219,0.19238281,54.125,-107.28125,-42.21875,0.0,0.0,0.0
1696258054109,-0.15234375,0.13769531,0.22070312,53.03125,-33.4375,-33.84375,0.0,0.0,0.0
1696258054154,-0.10644531,0.11816406,0.14160156,57.75,50.3125,-30.25,0.0,0.0,0.0
1696258054188,-0.24414062,0.10644531,0.36523438,-13.75,118.71875,-8.28125,0.0,0.0,0.0
1696258054245,-1.2167969,-0.35546875,1.0585938,-32.0,150.46875,-10.1875,0.0,0.0,0.0
1696258054267,-1.9755859,-0.48632812,1.6054688,1.28125,-30.75,27.5,0.0,0.0,0.0
1696258054312,0.51171875,-0.30859375,0.7548828,106.625,-56.5625,-13.40625,0.0,0.0,0.0
1696258054346,-1.5625,0.1796875,0.3701172,-29.46875,81.4375,26.875,0.0,0.0,0.0
1696258054391,-1.0722656,0.27148438,-0.36621094,-54.4375,-53.09375,-40.875,-39.75,35.4375,-212.4375
1696258054424,0.41308594,0.5078125,0.049804688,26.0,45.90625,31.21875,0.0,0.0,0.0
1696258054469,-1.8583984,-0.30078125,-0.22363281,-108.28125,117.28125,74.375,0.0,0.0,0.0
1696258054514,-0.9667969,0.05078125,0.4453125,-68.3125,119.09375,32.5625,0.0,0.0,0.0
1696258054548,-0.7167969,-0.12695312,0.15625,-52.625,116.90625,22.84375,0.0,0.0,0.0
1696258054593,-0.9267578,-0.171875,0.0048828125,-19.65625,108.53125,23.34375,0.0,0.0,0.0
1696258054627,-0.83984375,-0.076171875,0.024414062,12.15625,96.28125,9.46875,0.0,0.0,0.0
1696258054672,-0.88964844,0.061523438,0.18261719,1.78125,91.03125,14.1875,0.0,0.0,0.0
1696258054705,-0.8515625,0.0126953125,0.060546875,-8.3125,88.78125,24.3125,0.0,0.0,0.0
1696258054751,-1.0068359,0.036132812,0.0107421875,-13.3125,93.21875,40.3125,0.0,0.0,0.0
1696258054784,-1.0732422,0.041015625,0.08984375,-29.1875,58.96875,37.375,0.0,0.0,0.0
1696258054829,-1.1396484,-0.099609375,0.087890625,-21.625,30.21875,17.40625,0.0,0.0,0.0
1696258054874,-1.2382812,-0.22070312,0.046875,-11.96875,7.03125,14.53125,0.0,0.0,0.0
1696258054908,-1.5302734,-0.18066406,-0.022460938,1.46875,-39.34375,-8.09375,-156.3125,109.5625,-0.6875
1696258054987,-1.4160156,0.08105469,-0.020507812,40.21875,-140.96875,-32.75,0.0,0.0,0.0
1696258054988,-1.3886719,0.3173828,0.26171875,94.78125,-229.65625,-39.28125,0.0,0.0,0.0
1696258055032,-1.7246094,0.63378906,0.08886719,-44.6875,-168.625,-35.3125,0.0,0.0,0.0
1696258055065,-1.1054688,-0.041015625,0.11425781,-97.21875,-135.0625,-54.84375,0.0,0.0,0.0
1696258055111,-1.390625,0.034179688,0.099609375,-24.65625,-106.5,-85.6875,0.0,0.0,0.0
1696258055144,-0.60839844,-0.21777344,0.034179688,151.25,-212.5,-66.5,0.0,0.0,0.0
1696258055189,-0.34375,0.0048828125,0.14257812,105.78125,-107.9375,-61.3125,0.0,0.0,0.0
1696258055234,-0.24316406,0.20800781,0.22265625,76.78125,-56.5,-54.96875,0.0,0.0,0.0
1696258055279,-0.12597656,0.14941406,0.18847656,93.9375,-10.28125,-43.5625,0.0,0.0,0.0
1696258055313,-0.171875,0.11621094,0.1328125,35.6875,36.21875,-16.03125,0.0,0.0,0.0
1696258055347,-0.51660156,0.107421875,0.5410156,-66.21875,105.1875,-14.6875,0.0,0.0,0.0
1696258055392,-1.7070312,-0.3701172,1.4736328,-12.28125,80.96875,-6.03125,-29.25,43.8125,-197.125
1696258055426,-1.4882812,-0.375,1.3515625,43.34375,-72.4375,15.34375,0.0,0.0,0.0
1696258055471,-0.15625,0.037109375,0.46679688,129.625,-5.28125,-5.53125,0.0,0.0,0.0
1696258055504,-1.6640625,-0.016601562,0.55371094,-95.875,97.4375,14.4375,0.0,0.0,0.0
1696258055549,-0.8642578,0.83691406,-0.25878906,-106.6875,-23.59375,-31.90625,0.0,0.0,0.0
1696258055594,-0.046875,0.44628906,0.33203125,20.75,20.65625,52.03125,0.0,0.0,0.0
1696258055640,-1.6259766,-0.47558594,-0.5625,-174.875,143.5,51.46875,0.0,0.0,0.0
1696258055674,-1.0556641,0.0126953125,0.390625,-55.78125,109.53125,36.6875,0.0,0.0,0.0
1696258055707,-0.5859375,0.125,0.26660156,-86.25,138.03125,11.25,0.0,0.0,0.0
1696258055752,-1.0292969,-0.24511719,-0.01171875,-60.78125,136.3125,43.15625,0.0,0.0,0.0
1696258055786,-0.90527344,-0.072265625,0.10058594,-22.34375,106.40625,16.8125,0.0,0.0,0.0
1696258055831,-0.72265625,0.09277344,0.057617188,-35.21875,92.5,16.5625,0.0,0.0,0.0
1696258055864,-0.9921875,-0.020507812,0.08105469,-25.8125,84.1875,20.21875,0.0,0.0,0.0
1696258055909,-0.91308594,0.1171875,0.14257812,-37.78125,89.0,39.5,-78.875,77.875,-51.0625
1696258055954,-1.0078125,-0.27148438,-0.055664062,-36.6875,71.1875,49.8125,0.0,0.0,0.0
1696258055988,-1.1396484,-0.15527344,0.0,-28.75,43.96875,13.03125,0.0,0.0,0.0
1696258056033,-1.3115234,-0.19628906,-0.19726562,-24.65625,4.46875,12.71875,0.0,0.0,0.0
1696258056067,-1.4677734,0.04296875,0.23828125,8.125,-1.625,2.9375,0.0,0.0,0.0
1696258056112,-1.6630859,-0.046875,0.0234375,-39.5,-87.8125,-15.46875,0.0,0.0,0.0
1696258056146,-1.2089844,0.0,-0.00390625,51.3125,-208.84375,-49.53125,0.0,0.0,0.0
1696258056191,-1.9277344,0.46484375,0.16992188,88.3125,-273.1875,-49.25,0.0,0.0,0.0
1696258056224,-1.3886719,0.26757812,0.16992188,-55.84375,-147.875,-70.46875,0.0,0.0,0.0
1696258056269,-1.5537109,0.06542969,0.10546875,-34.125,-228.96875,-69.875,0.0,0.0,0.0
1696258056314,-0.9453125,-0.07910156,0.083984375,88.5625,-265.46875,-66.9375,0.0,0.0,0.0
1696258056348,-0.28515625,0.0048828125,0.072265625,175.21875,-236.1875,-43.1875,0.0,0.0,0.0
1696258056393,-0.029296875,0.13085938,0.16210938,139.34375,-163.625,-34.03125,11.875,52.25,-226.5625
1696258056427,-0.009765625,0.1953125,0.3046875,103.75,-82.6875,-20.90625,0.0,0.0,0.0
1696258056472,-0.057617188,0.1640625,0.31347656,37.15625,-22.125,-20.5,0.0,0.0,0.0
1696258056506,-0.01171875,0.087890625,0.6953125,0.78125,99.625,-28.125,0.0,0.0,0.0
1696258056551,-0.47460938,0.18554688,1.5117188,-6.90625,105.84375,-24.46875,0.0,0.0,0.0
1696258056584,-0.9716797,-0.48632812,1.4433594,58.65625,-71.4375,-31.53125,0.0,0.0,0.0
1696258056630,0.38183594,0.3779297,0.14453125,43.75,114.09375,-61.625,0.0,0.0,0.0
1696258056686,-1.9755859,1.5019531,2.0146484,-9.78125,160.84375,79.5625,0.0,0.0,0.0
1696258056708,1.0488281,0.734375,0.43847656,-71.59375,32.625,-101.0,0.0,0.0,0.0
1696258056753,-0.2109375,-0.028320312,-0.20117188,-93.3125,105.90625,-26.21875,0.0,0.0,0.0
1696258056787,-1.8027344,-0.13574219,0.40429688,-85.15625,121.0,87.40625,0.0,0.0,0.0
1696258056832,-0.8076172,0.095703125,0.5107422,-34.6875,134.0625,-0.90625,0.0,0.0,0.0
1696258056866,-0.43652344,0.19726562,0.33691406,-119.15625,164.28125,42.5625,0.0,0.0,0.0
1696258056911,-0.8261719,-0.2998047,0.1484375,-86.0625,165.90625,43.53125,-17.125,54.5,-199.25
1696258056944,-1.0332031,-0.2685547,-0.057617188,-17.21875,130.4375,22.84375,0.0,0.0,0.0
1696258056989,-0.7324219,0.11035156,0.26660156,17.5625,119.15625,6.375,0.0,0.0,0.0
1696258057034,-0.75,0.22167969,0.2626953,-30.8125,115.125,18.6875,0.0,0.0,0.0
1696258057068,-0.8701172,-0.15332031,-0.23339844,-62.0625,122.28125,26.3125,0.0,0.0,0.0
1696258057113,-1.0830078,0.0068359375,0.12402344,-40.53125,104.9375,37.75,0.0,0.0,0.0
1696258057147,-1.2705078,-0.171875,0.109375,-12.5625,48.1875,38.65625,0.0,0.0,0.0
1696258057192,-1.2802734,-0.10839844,0.1953125,-21.0625,16.25,8.625,0.0,0.0,0.0
1696258057226,-1.5996094,-0.27441406,-0.045898438,20.625,-29.09375,15.09375,0.0,0.0,0.0
1696258057271,-1.5107422,-0.017578125,-0.140625,16.78125,-118.25,-21.34375,0.0,0.0,0.0
1696258057304,-1.3134766,0.22265625,0.22460938,91.84375,-210.625,-27.09375,0.0,0.0,0.0
1696258057349,-1.5195312,0.45703125,0.020507812,-16.25,-200.125,-49.0,0.0,0.0,0.0
1696258057394,-1.1777344,0.107421875,0.047851562,-66.28125,-130.90625,-63.75,-130.1875,-353.9375,325.875
1696258057428,-1.4306641,-0.10839844,0.10058594,7.5,-125.21875,-104.84375,0.0,0.0,0.0
1696258057473,-0.6142578,-0.13867188,-0.05078125,146.1875,-202.4375,-84.5625,0.0,0.0,0.0
1696258057507,-0.3544922,0.078125,0.12792969,117.625,-129.4375,-75.40625,0.0,0.0,0.0
1696258057552,-0.3046875,0.17578125,0.23144531,81.53125,-79.375,-71.75,0.0,0.0,0.0
1696258057585,-0.15722656,0.14648438,0.25,65.0625,-34.21875,-72.25,0.0,0.0,0.0
1696258057631,-0.109375,0.1484375,0.25195312,32.65625,30.46875,-38.6875,0.0,0.0,0.0
1696258057664,-0.39746094,-0.068359375,0.44335938,-32.15625,114.65625,7.34375,0.0,0.0,0.0
1696258057709,-1.4208984,-0.375,1.296875,29.90625,83.03125,19.96875,0.0,0.0,0.0
1696258057755,-1.9755859,-0.140625,1.8945312,35.40625,-46.4375,22.34375,0.0,0.0,0.0
1696258057788,0.034179688,-0.17480469,0.30371094,128.53125,-18.65625,-3.15625,0.0,0.0,0.0
1696258057833,-1.34375,0.0703125,0.5859375,-94.5,66.78125,-17.6875,0.0,0.0,0.0
1696258057867,-0.6933594,1.1679688,0.56640625,17.4375,18.6875,-16.71875,0.0,0.0,0.0
1696258057912,-0.7792969,0.022460938,0.095703125,-105.40625,117.9375,57.40625,-31.1875,32.3125,-201.5
1696258057946,-1.1826172,-0.4814453,-0.19140625,-95.03125,129.59375,60.5625,0.0,0.0,0.0
1696258057991,-0.89941406,0.06542969,0.44140625,-48.28125,136.6875,9.65625,0.0,0.0,0.0
1696258058024,-0.7421875,-0.17480469,0.07128906,-33.15625,148.28125,19.625,0.0,0.0,0.0
1696258058069,-0.9873047,-0.09667969,0.025390625,24.71875,122.875,27.5,0.0,0.0,0.0
1696258058114,-0.6894531,0.14941406,0.068359375,9.28125,105.25,18.5,0.0,0.0,0.0
1696258058148,-0.84765625,0.10449219,0.024414062,-36.875,101.9375,25.59375,0.0,0.0,0.0
1696258058193,-0.90625,0.059570312,0.07128906,-45.40625,110.875,47.03125,0.0,0.0,0.0
1696258058227,-1.15625,-0.0087890625,0.0107421875,-40.65625,73.15625,36.03125,0.0,0.0,0.0
1696258058272,-1.2910156,-0.07421875,0.087890625,-47.0625,41.84375,8.0625,0.0,0.0,0.0
1696258058305,-1.4082031,-0.22363281,0.07519531,-29.78125,3.375,5.8125,0.0,0.0,0.0
1696258058351,-1.8818359,-0.359375,-0.38964844,-20.5625,-43.6875,-1.375,0.0,0.0,0.0
1696258058395,-0.9716797,0.10839844,0.40820312,58.40625,-103.5625,-31.34375,-755.8125,325.8125,518.5
1696258058429,-1.3945312,0.09277344,0.07421875,133.53125,-214.6875,-57.28125,0.0,0.0,0.0
1696258058508,-1.7802734,0.5654297,-0.10839844,52.3125,-159.71875,-31.0625,0.0,0.0,0.0
1696258058510,-1.1621094,-0.091796875,0.37597656,-41.875,-159.53125,-57.21875,0.0,0.0,0.0
1696258058553,-1.1865234,0.19433594,-0.05859375,-36.0,-206.65625,-51.25,0.0,0.0,0.0
1696258058587,-0.62109375,-0.076171875,0.072265625,67.5,-158.25,-71.15625,0.0,0.0,0.0
1696258058632,-0.29003906,0.068359375,0.11035156,62.96875,-114.40625,-68.78125,0.0,0.0,0.0
1696258058665,-0.203125,0.15527344,0.18457031,57.96875,-73.71875,-55.09375,0.0,0.0,0.0
1696258058710,-0.037109375,0.18164062,0.11621094,68.0,-0.03125,-56.5,0.0,0.0,0.0
1696258058755,-0.08496094,0.13085938,0.26757812,37.15625,74.4375,-18.0,0.0,0.0,0.0
1696258058789,-0.8828125,-0.37695312,0.9902344,-39.8125,144.4375,0.03125,0.0,0.0,0.0
1696258058834,-1.9755859,-0.3935547,1.8837891,-12.75,15.9375,23.03125,0.0,0.0,0.0
1696258058868,0.045898438,-0.30371094,0.07324219,34.3125,-97.625,0.5625,0.0,0.0,0.0
1696258058913,-1.7978516,0.09375,0.4140625,37.71875,94.125,45.96875,-16.625,54.0625,-222.8125
1696258058947,-1.3828125,0.54589844,-0.3232422,-100.78125,-19.28125,-19.8125,0.0,0.0,0.0
1696258058992,0.44726562,0.44140625,0.35742188,19.65625,27.84375,24.125,0.0,0.0,0.0
1696258059025,-1.7568359,-0.53515625,-0.6171875,-148.75,167.0,77.40625,0.0,0.0,0.0
1696258059071,-1.0957031,-0.07324219,0.36328125,-54.8125,142.125,25.84375,0.0,0.0,0.0
1696258059116,-0.53515625,0.024414062,0.2265625,-40.53125,142.65625,7.15625,0.0,0.0,0.0
1696258059149,-0.9033203,-0.0625,-0.018554688,-38.40625,129.34375,23.875,0.0,0.0,0.0
1696258059194,-0.8203125,-0.049804688,0.0078125,-18.8125,110.25,12.21875,0.0,0.0,0.0
1696258059228,-0.8574219,-0.017578125,0.04296875,-33.5,103.21875,24.8125,0.0,0.0,0.0
1696258059273,-0.94921875,-9.765625E-4,0.1328125,-34.125,105.375,61.125,0.0,0.0,0.0
1696258059307,-1.1669922,-0.038085938,0.0546875,-36.5,74.4375,40.84375,0.0,0.0,0.0
1696258059352,-1.1884766,-0.06347656,0.1015625,-35.34375,46.71875,18.03125,0.0,0.0,0.0
1696258059397,-1.4091797,-0.22949219,0.09375,-29.59375,19.75,4.40625,-157.8125,35.3125,-36.5
1696258059430,-1.6796875,-0.13769531,-0.0068359375,-15.4375,-31.53125,-7.65625,0.0,0.0,0.0
1696258059476,-1.4326172,-0.04296875,-0.13378906,-29.0,-151.15625,-26.21875,0.0,0.0,0.0
1696258059509,-1.3105469,0.23828125,0.22753906,70.0,-236.375,-43.1875,0.0,0.0,0.0
1696258059554,-1.7636719,0.84375,0.032226562,54.125,-178.15625,-14.875,0.0,0.0,0.0
1696258059588,-1.1621094,0.024414062,0.24414062,-127.25,-172.9375,-58.5,0.0,0.0,0.0
1696258059633,-1.1103516,0.3359375,0.11816406,-67.9375,-160.125,-47.28125,0.0,0.0,0.0
1696258059667,-0.86035156,-0.36621094,0.09277344,78.1875,-145.0,-71.8125,0.0,0.0,0.0
1696258059712,-0.23242188,-0.016601562,0.02734375,50.84375,-148.21875,-54.84375,0.0,0.0,0.0
1696258059745,-0.13378906,0.12109375,0.17480469,78.5,-84.21875,-45.875,0.0,0.0,0.0
1696258059791,-0.033203125,0.15332031,0.25097656,83.5,-3.875,-48.75,0.0,0.0,0.0
1696258059836,-0.08496094,0.053710938,0.39453125,25.15625,86.03125,-27.9375,0.0,0.0,0.0
1696258059869,-0.9873047,-0.50878906,1.1132812,-65.375,147.125,-9.6875,0.0,0.0,0.0
1696258059914,-1.9755859,-0.5410156,1.6269531,25.9375,0.21875,22.25,-27.125,46.6875,-203.3125
1696258059948,0.4765625,0.123046875,0.40722656,186.46875,-76.875,14.59375,0.0,0.0,0.0
1696258059993,-1.1708984,0.17675781,0.060546875,-78.0625,127.65625,41.40625,0.0,0.0,0.0
1696258060027,-1.9755859,0.5,0.4326172,-68.4375,-22.0,20.84375,0.0,0.0,0.0
1696258060072,0.26660156,0.39160156,0.35253906,-10.8125,14.4375,33.34375,0.0,0.0,0.0
1696258060105,-1.5898438,-0.5205078,-0.5957031,-143.4375,159.75,70.34375,0.0,0.0,0.0
1696258060151,-1.1679688,-0.056640625,0.3203125,-54.9375,145.21875,24.1875,0.0,0.0,0.0
1696258060196,-0.5751953,0.12402344,0.28222656,-49.8125,144.78125,1.375,0.0,0.0,0.0
1696258060241,-0.8027344,-0.024414062,0.080078125,-44.125,133.03125,35.34375,0.0,0.0,0.0
1696258060274,-0.75390625,-0.08105469,-0.0859375,-17.21875,118.78125,16.0625,0.0,0.0,0.0
1696258060308,-0.7373047,0.021484375,-0.022460938,-46.6875,118.84375,17.59375,0.0,0.0,0.0
1696258060353,-1.0029297,0.08691406,0.21679688,-31.625,114.875,41.59375,0.0,0.0,0.0
1696258060398,-1.0292969,0.015625,-0.017578125,-43.65625,81.875,55.25,-89.5625,44.0,-121.375
1696258060432,-1.2353516,-0.02734375,0.109375,-54.375,44.625,28.28125,0.0,0.0,0.0
1696258060465,-1.3535156,-0.29492188,0.041015625,-24.125,12.59375,8.4375,0.0,0.0,0.0
1696258060511,-1.4335938,0.0703125,0.38964844,-81.71875,-67.0625,-9.0625,0.0,0.0,0.0
1696258060556,-1.6503906,-0.27246094,-0.29589844,89.65625,-67.0,-28.25,0.0,0.0,0.0
1696258060589,-1.1767578,0.30664062,0.12890625,67.9375,-202.1875,-50.8125,0.0,0.0,0.0
1696258060634,-1.6845703,0.65625,-0.16894531,124.375,-176.4375,-25.125,0.0,0.0,0.0
1696258060679,-1.2412109,-0.02734375,0.22949219,-86.3125,-143.28125,-35.6875,0.0,0.0,0.0
1696258060713,-1.2470703,0.31054688,-0.09667969,-53.84375,-221.0,-62.65625,0.0,0.0,0.0
1696258060747,-0.82421875,-0.2109375,0.12890625,56.34375,-162.875,-79.9375,0.0,0.0,0.0
1696258060792,-0.33691406,-0.0107421875,0.1953125,68.53125,-124.78125,-76.65625,0.0,0.0,0.0
1696258060825,-0.12207031,0.14160156,0.23925781,67.125,-82.125,-51.75,0.0,0.0,0.0
1696258060870,-0.08984375,0.1953125,0.06347656,79.40625,-0.65625,-54.3125,0.0,0.0,0.0
1696258060916,-0.13671875,0.028320312,0.12695312,65.0,47.9375,-28.125,8.375,56.4375,-221.75
1696258060949,-0.48046875,0.043945312,0.6923828,-34.6875,137.40625,-14.5,0.0,0.0,0.0
1696258060994,-1.7558594,-0.14355469,1.5585938,-10.25,75.65625,-19.8125,0.0,0.0,0.0
1696258061028,-1.3183594,-0.10253906,1.3447266,56.28125,-86.03125,2.875,0.0,0.0,0.0
1696258061073,-0.20117188,-0.24414062,0.2685547,78.4375,30.40625,-4.25,0.0,0.0,0.0
1696258061107,-1.9755859,0.47753906,0.59277344,-78.8125,70.5625,31.8125,0.0,0.0,0.0
1696258061152,-0.020507812,1.0927734,0.14648438,-8.1875,-38.75,-41.375,0.0,0.0,0.0
1696258061231,0.17675781,0.033203125,0.11230469,-85.8125,91.5,42.6875,0.0,0.0,0.0
1696258061232,-1.9755859,-0.5966797,-0.24804688,-107.4375,121.78125,82.78125,0.0,0.0,0.0
1696258061275,-0.7548828,0.07714844,0.578125,-44.75,131.125,1.0,0.0,0.0,0.0
1696258061321,-0.6699219,-0.022460938,0.0087890625,-51.875,131.90625,18.21875,0.0,0.0,0.0
1696258061355,-0.9404297,-0.034179688,-0.013671875,-30.40625,127.84375,19.375,0.0,0.0,0.0
1696258061388,-0.69140625,0.055664062,-0.040039062,-19.78125,112.5625,22.125,-26.375,135.0625,-79.375
1696258061433,-0.9433594,0.06738281,0.0625,-24.40625,92.78125,37.96875,0.0,0.0,0.0
1696258061467,-0.9394531,0.0,0.14257812,-32.40625,106.53125,60.0625,0.0,0.0,0.0
1696258061513,-1.0898438,0.024414062,0.055664062,-42.5,70.625,41.78125,0.0,0.0,0.0
1696258061545,-1.1875,-0.06542969,0.125,-47.90625,33.96875,12.65625,0.0,0.0,0.0
1696258061590,-1.3808594,-0.2529297,0.10253906,-30.53125,0.75,11.25,0.0,0.0,0.0
1696258061635,-1.8388672,-0.12011719,0.053710938,-116.09375,-121.8125,-5.0625,0.0,0.0,0.0
1696258061669,-1.1933594,0.078125,0.06738281,62.75,-135.96875,-36.96875,0.0,0.0,0.0
1696258061714,-1.5429688,0.38476562,0.12597656,77.09375,-225.6875,-26.21875,0.0,0.0,0.0
1696258061748,-1.5068359,0.5205078,0.005859375,-31.1875,-145.25,-17.375,0.0,0.0,0.0
1696258061793,-1.125,0.3076172,0.17773438,-116.40625,-155.125,-68.875,0.0,0.0,0.0
1696258061827,-1.2294922,-0.10839844,0.07714844,6.28125,-152.5,-61.3125,0.0,0.0,0.0
1696258061872,-0.53808594,-0.06542969,0.08496094,68.1875,-147.875,-67.4375,0.0,0.0,0.0
1696258061917,-0.22949219,0.10253906,0.09375,66.15625,-91.78125,-68.71875,67.5,111.3125,-105.0625
1696258061950,-0.22558594,0.17089844,0.15234375,62.75,-42.09375,-50.28125,0.0,0.0,0.0
1696258061996,-0.1640625,0.109375,0.17382812,47.90625,19.6875,-47.28125,0.0,0.0,0.0
1696258062030,-0.3095703,0.040039062,0.21875,6.65625,74.96875,-19.625,0.0,0.0,0.0
1696258062074,-0.94140625,-0.25195312,0.8183594,-42.96875,138.21875,-10.0625,0.0,0.0,0.0
1696258062108,-1.9755859,-0.36328125,1.4658203,58.84375,-22.75,10.40625,0.0,0.0,0.0
1696258062153,-0.4794922,-0.057617188,1.0634766,82.09375,-124.5,2.9375,0.0,0.0,0.0
1696258062187,-0.67089844,0.44628906,0.61816406,57.78125,77.78125,0.375,0.0,0.0,0.0
1696258062232,-1.9755859,0.41210938,0.71191406,-100.15625,44.75,14.65625,0.0,0.0,0.0
1696258062265,-0.2529297,0.8535156,0.26464844,32.59375,-24.46875,-26.90625,0.0,0.0,0.0
1696258062310,-0.5751953,0.03125,-0.107421875,-73.375,110.4375,46.96875,0.0,0.0,0.0
1696258062355,-1.3857422,-0.32714844,-0.026367188,-90.15625,108.84375,47.4375,0.0,0.0,0.0
1696258062389,-0.90722656,0.07714844,0.5029297,-74.53125,139.71875,15.40625,-28.9375,52.6875,-224.0
1696258062434,-0.7578125,-0.1171875,-0.026367188,-79.90625,142.84375,28.09375,0.0,0.0,0.0
1696258062468,-0.9589844,-0.16894531,0.005859375,-2.9375,124.03125,38.96875,0.0,0.0,0.0
1696258062513,-0.6767578,0.14941406,0.061523438,-6.84375,100.84375,25.96875,0.0,0.0,0.0
1696258062547,-0.8720703,0.00390625,0.036132812,-23.4375,95.0625,27.71875,0.0,0.0,0.0
1696258062592,-0.8701172,-0.013671875,0.19628906,-46.5625,102.0,31.75,0.0,0.0,0.0
1696258062625,-1.0185547,0.05078125,0.00390625,-45.21875,87.125,42.9375,0.0,0.0,0.0
1696258062670,-1.2285156,-0.13964844,0.051757812,-44.6875,45.84375,20.96875,0.0,0.0,0.0
1696258062715,-1.2744141,-0.44335938,-0.64453125,-50.3125,-10.28125,19.125,0.0,0.0,0.0
1696258062750,-1.3085938,-0.27929688,0.27441406,49.25,18.34375,9.34375,0.0,0.0,0.0
1696258062794,-1.6757812,-0.059570312,-0.14941406,-11.28125,-78.84375,-19.5,0.0,0.0,0.0
1696258062828,-1.1728516,0.22070312,0.11425781,64.28125,-191.1875,-51.25,0.0,0.0,0.0
1696258062873,-1.5712891,0.5263672,-0.11816406,123.90625,-198.21875,-37.03125,0.0,0.0,0.0
1696258062918,-1.3066406,-0.026367188,0.1484375,-86.96875,-142.5625,-37.03125,-199.0625,-67.9375,37.4375
1696258062952,-1.2890625,0.26757812,-0.123046875,-114.9375,-203.59375,-86.84375,0.0,0.0,0.0
1696258063008,-1.0654297,-0.3046875,0.15136719,21.0,-86.65625,-88.90625,0.0,0.0,0.0
1696258063031,-0.3828125,-0.072265625,0.10253906,118.90625,-146.59375,-75.53125,0.0,0.0,0.0
1696258063076,-0.21679688,0.17382812,0.21582031,65.125,-83.0,-48.3125,0.0,0.0,0.0
1696258063109,-0.24316406,0.19921875,0.1171875,72.6875,-28.90625,-41.53125,0.0,0.0,0.0
1696258063154,-0.17871094,0.07128906,0.078125,84.15625,11.0,-20.96875,0.0,0.0,0.0
1696258063188,-0.4091797,-0.026367188,0.484375,19.90625,94.6875,-10.65625,0.0,0.0,0.0
1696258063233,-1.2460938,-0.17285156,1.3164062,-21.0,105.96875,-23.46875,0.0,0.0,0.0
1696258063267,-1.9755859,-0.35742188,1.5898438,6.53125,-42.46875,7.96875,0.0,0.0,0.0
1696258063312,0.021484375,0.08886719,0.4921875,105.71875,-15.84375,-0.84375,0.0,0.0,0.0
1696258063357,-1.8583984,0.31347656,0.65234375,-24.34375,64.84375,23.625,0.0,0.0,0.0
1696258063402,-0.56152344,0.73828125,-0.005859375,-58.65625,-5.09375,-28.59375,-25.625,39.1875,-211.5625
1696258063436,-0.03515625,0.24707031,0.09082031,-44.125,61.59375,36.09375,0.0,0.0,0.0
1696258063470,-1.5537109,-0.5439453,-0.25976562,-101.75,136.6875,59.96875,0.0,0.0,0.0
1696258063514,-0.97558594,0.08886719,0.44433594,-38.15625,118.25,37.5625,0.0,0.0,0.0
1696258063548,-0.62402344,0.0087890625,0.203125,-51.53125,135.34375,23.8125,0.0,0.0,0.0
1696258063593,-0.9326172,-0.14453125,-0.0234375,-44.75,124.03125,22.28125,0.0,0.0,0.0
1696258063626,-0.875,-0.12109375,0.15625,-11.96875,104.75,11.3125,0.0,0.0,0.0
1696258063672,-0.79785156,-0.029296875,-0.030273438,-32.09375,109.34375,19.125,0.0,0.0,0.0
1696258063728,-0.8779297,0.0107421875,0.19042969,-13.84375,101.78125,32.3125,0.0,0.0,0.0
1696258063762,-0.99316406,-0.021484375,0.045898438,-20.75,99.9375,50.625,0.0,0.0,0.0
1696258063829,-1.1748047,-9.765625E-4,0.02734375,-32.71875,57.5625,28.875,0.0,0.0,0.0
1696258063831,-1.1835938,0.021484375,0.06347656,-36.5625,27.1875,6.96875,0.0,0.0,0.0
1696258063874,-1.4052734,-0.3173828,-0.040039062,-69.40625,-37.8125,15.34375,-115.1875,-48.25,336.25
1696258063908,-1.5439453,-0.1796875,0.10253906,1.59375,-28.84375,-7.1875,0.0,0.0,0.0
1696258063953,-1.3828125,-0.08203125,-0.018554688,22.53125,-137.5625,-37.34375,0.0,0.0,0.0
1696258063986,-1.3242188,0.45214844,0.28125,113.8125,-224.71875,-44.53125,0.0,0.0,0.0
1696258064032,-1.5732422,0.42285156,0.020507812,40.21875,-158.1875,-0.84375,0.0,0.0,0.0
1696258064076,-1.1660156,0.07910156,0.22558594,-69.40625,-175.75,-51.125,0.0,0.0,0.0
1696258064110,-1.3583984,-0.04296875,0.13378906,-19.0,-124.0625,-44.78125,0.0,0.0,0.0
1696258064156,-0.48046875,-0.08105469,0.05078125,57.125,-172.40625,-59.375,0.0,0.0,0.0
1696258064189,-0.30566406,0.022460938,0.10546875,28.875,-124.4375,-50.875,0.0,0.0,0.0
1696258064234,-0.123046875,0.09667969,0.21386719,39.53125,-84.5625,-36.65625,0.0,0.0,0.0
1696258064268,-0.07910156,0.10546875,0.171875,62.5,14.3125,-38.0625,0.0,0.0,0.0
1696258064313,-0.115234375,0.038085938,0.47070312,45.59375,94.3125,-21.53125,0.0,0.0,0.0
1696258064347,-1.2021484,-0.44335938,1.0429688,-36.1875,148.65625,-16.46875,0.0,0.0,0.0
1696258064392,-1.9755859,-0.6376953,1.6806641,0.25,-13.96875,13.3125,-20.6875,57.3125,-212.3125
1696258064437,0.4765625,0.0234375,0.5986328,126.78125,-60.71875,-3.875,0.0,0.0,0.0
1696258064470,-1.8300781,0.44726562,0.18652344,-50.84375,83.75,27.4375,0.0,0.0,0.0
1696258064515,-0.7685547,0.4765625,0.08105469,-3.375,-60.15625,-28.0,0.0,0.0,0.0
1696258064560,0.40039062,0.2607422,0.0859375,-50.90625,90.21875,21.5,0.0,0.0,0.0
1696258064594,-1.9755859,-0.46191406,-0.3017578,-103.9375,133.375,70.5,0.0,0.0,0.0
1696258064628,-0.81347656,0.025390625,0.49316406,-48.09375,143.34375,6.5625,0.0,0.0,0.0
1696258064673,-0.7011719,-0.14746094,0.125,-22.71875,134.71875,21.5625,0.0,0.0,0.0
1696258064707,-0.86816406,-0.001953125,0.0078125,-10.4375,134.34375,23.59375,0.0,0.0,0.0
1696258064752,-0.703125,-0.0087890625,0.0,5.0,102.3125,13.6875,0.0,0.0,0.0
1696258064797,-0.8466797,0.026367188,0.125,-22.03125,98.65625,22.46875,0.0,0.0,0.0
1696258064830,-0.9658203,0.07519531,0.16308594,-19.21875,100.375,46.34375,0.0,0.0,0.0
1696258064876,-0.9267578,0.10449219,0.06738281,-59.21875,83.21875,41.59375,-90.4375,51.625,-106.875
1696258064909,-1.1044922,-0.06640625,0.055664062,-35.03125,42.75,25.71875,0.0,0.0,0.0
1696258064954,-1.2509766,-0.31445312,-0.034179688,-19.84375,20.96875,11.3125,0.0,0.0,0.0
1696258064988,-1.7265625,-0.31835938,-0.07324219,-112.90625,-106.65625,9.59375,0.0,0.0,0.0
1696258065033,-1.5078125,-0.08691406,-0.036132812,73.71875,-63.46875,-27.1875,0.0,0.0,0.0
1696258065066,-1.1904297,0.27246094,0.13769531,66.09375,-206.40625,-46.4375,0.0,0.0,0.0
1696258065112,-1.6464844,0.78222656,-0.07421875,98.1875,-182.34375,-26.09375,0.0,0.0,0.0
1696258065157,-1.1933594,-0.18554688,0.125,-112.25,-145.0,-38.1875,0.0,0.0,0.0
1696258065190,-1.3417969,0.27539062,-0.07519531,-64.34375,-201.15625,-67.71875,0.0,0.0,0.0
1696258065235,-1.0263672,-0.33007812,0.15820312,50.96875,-105.09375,-69.6875,0.0,0.0,0.0
1696258065269,-0.4033203,-0.022460938,0.15136719,78.65625,-133.9375,-67.65625,0.0,0.0,0.0
1696258065314,-0.15625,0.16113281,0.2109375,51.6875,-91.46875,-48.1875,0.0,0.0,0.0
1696258065347,-0.13183594,0.19042969,0.21191406,47.125,-7.71875,-43.25,0.0,0.0,0.0
1696258065393,-0.08984375,0.064453125,0.13085938,60.78125,46.21875,-32.75,7.0625,62.75,-212.0
1696258065427,-0.43359375,0.009765625,0.5097656,-28.75,127.84375,-7.65625,0.0,0.0,0.0
1696258065472,-1.6298828,-0.26757812,1.3779297,-8.0,89.9375,-13.09375,0.0,0.0,0.0
1696258065517,-1.7177734,-0.1796875,1.4423828,38.75,-71.4375,-1.8125,0.0,0.0,0.0
1696258065550,0.2421875,-0.16699219,0.2841797,76.34375,-2.375,2.34375,0.0,0.0,0.0
1696258065596,-1.7275391,0.30078125,0.21484375,-25.9375,125.6875,23.09375,0.0,0.0,0.0
1696258065629,-1.6074219,0.7441406,0.11328125,-25.9375,-62.78125,-22.0,0.0,0.0,0.0
1696258065674,0.57128906,0.60253906,0.24609375,-2.8125,33.09375,22.90625,0.0,0.0,0.0
1696258065708,-1.5546875,-0.4140625,-0.47851562,-156.125,119.96875,81.9375,0.0,0.0,0.0
1696258065753,-1.3007812,-0.25390625,0.41503906,-59.03125,121.0625,41.59375,0.0,0.0,0.0
1696258065786,-0.6689453,-0.09472656,0.21777344,-43.40625,117.09375,16.8125,0.0,0.0,0.0
1696258065832,-0.71777344,0.028320312,0.040039062,-39.90625,112.3125,19.375,0.0,0.0,0.0
1696258065877,-0.8388672,-0.09277344,0.043945312,-20.9375,105.90625,14.53125,-20.6875,114.3125,-97.25
1696258065910,-0.81152344,-0.060546875,-0.009765625,-31.625,102.3125,14.0,0.0,0.0,0.0
1696258065955,-0.96875,0.022460938,0.23925781,-8.4375,99.09375,27.65625,0.0,0.0,0.0
1696258065990,-0.93359375,0.08886719,0.030273438,-28.09375,88.8125,50.3125,0.0,0.0,0.0
1696258066034,-1.1943359,-0.07519531,0.041015625,-39.3125,43.90625,38.40625,0.0,0.0,0.0
1696258066068,-1.1621094,-0.20507812,-0.0068359375,-32.53125,14.3125,12.78125,0.0,0.0,0.0
1696258066113,-1.1650391,-0.111328125,0.30078125,-32.53125,2.71875,2.34375,0.0,0.0,0.0
1696258066146,-1.5673828,-0.16210938,0.040039062,20.0625,-19.8125,-5.96875,0.0,0.0,0.0
1696258066191,-1.3720703,-0.0390625,-0.099609375,19.21875,-134.125,-21.53125,0.0,0.0,0.0
1696258066236,-1.2490234,0.4873047,0.24804688,120.90625,-224.90625,-46.1875,0.0,0.0,0.0
1696258066270,-1.7294922,0.6669922,0.061523438,9.8125,-180.75,-2.59375,0.0,0.0,0.0
1696258066315,-1.1240234,-0.19726562,0.22265625,-117.75,-153.125,-34.96875,0.0,0.0,0.0
1696258066349,-1.2548828,0.328125,-0.0048828125,-94.90625,-173.125,-76.65625,0.0,0.0,0.0
1696258066394,-0.57421875,0.037109375,0.13085938,157.65625,-208.28125,-80.71875,79.8125,-101.9375,103.3125
1696258066428,-0.44921875,-0.078125,0.10839844,89.59375,-95.5625,-64.375,0.0,0.0,0.0
1696258066473,-0.2578125,0.13867188,0.22753906,92.34375,-76.875,-49.53125,0.0,0.0,0.0
1696258066507,-0.1875,0.16015625,0.23339844,81.0,-12.5,-55.34375,0.0,0.0,0.0
1696258066551,-0.17871094,0.11328125,0.20605469,46.375,54.78125,-40.375,0.0,0.0,0.0
1696258066596,-0.42382812,0.1640625,0.54003906,-46.21875,140.78125,-15.96875,0.0,0.0,0.0
1696258066630,-1.7490234,-0.14746094,1.5,-11.28125,81.75,12.40625,0.0,0.0,0.0
1696258066675,-1.2626953,-0.16796875,1.25,69.6875,-98.125,20.78125,0.0,0.0,0.0
1696258066720,-0.4091797,-0.2998047,0.25097656,46.625,17.34375,9.0,0.0,0.0,0.0
1696258066754,-1.9755859,0.3359375,0.6826172,-50.25,72.71875,16.9375,0.0,0.0,0.0
1696258066788,-0.42578125,0.85253906,0.099609375,-31.875,-37.5625,-41.3125,0.0,0.0,0.0
1696258066833,0.15332031,0.18652344,0.27734375,-46.75,51.09375,26.75,0.0,0.0,0.0
1696258066878,-1.7568359,-0.48828125,-0.25878906,-94.96875,110.0,68.6875,-7.1875,53.75,-219.5
1696258066911,-0.9355469,0.029296875,0.4580078,-53.78125,128.3125,16.5625,0.0,0.0,0.0
1696258066957,-0.7060547,0.044921875,0.13085938,-62.1875,131.3125,7.53125,0.0,0.0,0.0
1696258066990,-0.81347656,-0.0068359375,-0.020507812,-41.5,116.15625,17.71875,0.0,0.0,0.0
1696258067035,-0.83984375,-0.083984375,-0.01953125,-24.28125,103.21875,13.1875,0.0,0.0,0.0
1696258067069,-0.96777344,-0.08984375,-0.028320312,-32.84375,95.1875,20.34375,0.0,0.0,0.0
1696258067114,-0.91308594,-0.041015625,0.20996094,-27.65625,94.875,27.375,0.0,0.0,0.0
1696258067148,-0.9589844,0.10449219,0.01171875,-29.90625,85.34375,42.75,0.0,0.0,0.0
1696258067193,-1.1386719,0.0068359375,-0.034179688,-38.75,44.28125,31.8125,0.0,0.0,0.0
1696258067226,-1.1542969,-0.08203125,0.013671875,-35.28125,21.8125,10.21875,0.0,0.0,0.0
1696258067272,-1.2021484,-0.07421875,-0.013671875,-25.03125,5.5625,7.96875,0.0,0.0,0.0
1696258067316,-1.5703125,0.06738281,0.15625,-56.59375,-36.78125,0.25,0.0,0.0,0.0
1696258067351,-1.5498047,-0.11621094,-0.11621094,-8.5625,-103.5625,-26.84375,0.0,0.0,0.0
1696258067395,-1.1298828,0.15332031,0.2734375,67.25,-197.125,-38.0625,-593.6875,-147.25,228.6875
1696258067429,-1.4238281,0.5292969,-0.14648438,81.78125,-169.90625,-14.75,0.0,0.0,0.0
1696258067475,-1.0820312,-0.12402344,0.2109375,-62.1875,-137.90625,-29.15625,0.0,0.0,0.0
1696258067508,-1.0800781,0.23730469,9.765625E-4,-13.5,-176.8125,-57.40625,0.0,0.0,0.0
1696258067553,-0.8466797,-0.11425781,0.24023438,100.15625,-177.78125,-55.875,0.0,0.0,0.0
1696258067589,-0.49902344,0.0087890625,0.26171875,57.0625,-119.96875,-60.46875,0.0,0.0,0.0
1696258067634,-0.32910156,0.13476562,0.2578125,35.46875,-95.125,-50.09375,0.0,0.0,0.0
1696258067684,-0.25390625,0.09277344,0.15625,64.28125,-33.71875,-46.71875,0.0,0.0,0.0
1696258067713,-0.2607422,0.0234375,0.28710938,29.84375,19.0625,-18.59375,0.0,0.0,0.0
1696258067756,-0.4140625,-0.0068359375,0.75,-11.125,89.5,-5.0625,0.0,0.0,0.0
1696258067790,-1.3935547,-0.34765625,1.5800781,-4.71875,56.21875,1.46875,0.0,0.0,0.0
1696258067838,-1.4121094,-0.3125,1.2138672,21.0,-31.0,-5.96875,0.0,0.0,0.0
1696258067880,0.0068359375,-9.765625E-4,0.34277344,107.34375,-10.65625,-23.84375,-28.0625,32.3125,-214.25
1696258067913,-1.7285156,0.32910156,0.67871094,-18.6875,92.1875,-3.75,0.0,0.0,0.0
1696258067953,-0.7832031,0.6279297,0.15332031,-46.21875,-16.40625,4.0,0.0,0.0,0.0
1696258067992,-0.06640625,0.3095703,0.107421875,-52.96875,68.0,41.65625,0.0,0.0,0.0
1696258068036,-1.4863281,-0.4013672,-0.21875,-95.78125,114.65625,64.46875,0.0,0.0,0.0
1696258068070,-1.0234375,-0.11816406,0.36914062,-18.1875,123.4375,24.75,0.0,0.0,0.0
1696258068115,-0.6484375,-0.009765625,0.26171875,-25.5625,128.875,27.53125,0.0,0.0,0.0
1696258068150,-0.8652344,-0.041015625,0.022460938,-19.96875,119.28125,17.65625,0.0,0.0,0.0
1696258068195,-0.8642578,-0.057617188,0.06738281,11.21875,105.71875,8.3125,0.0,0.0,0.0
1696258068231,-0.76953125,0.08886719,-0.005859375,-10.75,103.53125,13.4375,0.0,0.0,0.0
1696258068285,-0.921875,-9.765625E-4,0.12695312,-10.8125,93.21875,22.53125,0.0,0.0,0.0
1696258068321,-1.0810547,0.053710938,0.07421875,-21.90625,97.0,45.71875,0.0,0.0,0.0
1696258068353,-1.1181641,-0.01171875,-0.022460938,-36.9375,57.8125,39.25,0.0,0.0,0.0
1696258068397,-1.1396484,-0.0703125,0.068359375,-31.0,26.5,12.40625,-68.875,70.8125,43.4375
1696258068438,-1.3154297,-0.17089844,0.049804688,-4.21875,10.59375,6.71875,0.0,0.0,0.0
1696258068476,-1.5644531,0.015625,0.13476562,-81.90625,-64.0,4.46875,0.0,0.0,0.0
1696258068510,-1.4179688,-0.10253906,-0.0048828125,28.3125,-93.59375,-18.96875,0.0,0.0,0.0
1696258068554,-1.1484375,0.15917969,0.19921875,79.46875,-208.09375,-38.96875,0.0,0.0,0.0
1696258068588,-1.6035156,0.6748047,-0.1171875,125.3125,-167.03125,-28.78125,0.0,0.0,0.0
1696258068633,-1.1669922,-0.059570312,0.28515625,-57.5625,-135.34375,-48.5,0.0,0.0,0.0
1696258068678,-1.3154297,0.16601562,-0.06347656,-47.0,-160.375,-62.0625,0.0,0.0,0.0
1696258068712,-0.77246094,-0.10449219,0.16210938,71.65625,-181.25,-58.75,0.0,0.0,0.0
1696258068802,-0.41992188,-0.001953125,0.16210938,51.5,-121.4375,-70.84375,0.0,0.0,0.0
1696258068803,-0.16699219,0.125,0.20605469,26.78125,-87.75,-57.34375,0.0,0.0,0.0
1696258068838,-0.1171875,0.07714844,0.13671875,60.78125,-14.3125,-48.25,0.0,0.0,0.0
1696258068880,-0.15625,0.048828125,0.22265625,66.03125,54.03125,-37.9375,-1.0625,57.3125,-214.375
1696258068915,-0.51953125,0.03515625,0.8359375,-28.375,156.15625,-16.9375,0.0,0.0,0.0
1696258068951,-1.8251953,-0.10449219,1.3525391,-7.34375,45.4375,3.3125,0.0,0.0,0.0
1696258068993,-0.7470703,0.03125,0.9658203,97.53125,-95.3125,-9.125,0.0,0.0,0.0
1696258069038,-0.8720703,-0.1796875,0.06933594,19.03125,43.71875,15.78125,0.0,0.0,0.0
1696258069072,-1.9755859,0.37695312,0.72558594,-44.0625,16.375,39.875,0.0,0.0,0.0
1696258069116,0.34765625,0.75683594,0.359375,26.125,-28.40625,-36.78125,0.0,0.0,0.0
1696258069151,-1.1875,-0.26660156,-0.5078125,-111.625,175.3125,65.375,0.0,0.0,0.0
1696258069197,-1.7001953,-0.25683594,0.083984375,-42.78125,120.0625,48.3125,0.0,0.0,0.0
1696258069229,-0.625,0.048828125,0.4638672,-32.21875,129.59375,5.875,0.0,0.0,0.0
1696258069276,-0.8095703,-0.09863281,0.030273438,-34.78125,122.625,27.53125,0.0,0.0,0.0
1696258069308,-0.8466797,0.02734375,-0.072265625,-2.9375,103.46875,15.46875,0.0,0.0,0.0
1696258069353,-0.8183594,0.029296875,0.0146484375,-12.15625,95.0625,12.96875,0.0,0.0,0.0
1696258069399,-0.8183594,0.005859375,0.23828125,-25.9375,91.21875,15.875,-57.75,59.875,-148.6875
1696258069431,-0.9765625,-0.018554688,-0.024414062,-27.09375,97.75,33.28125,0.0,0.0,0.0
1696258069488,-1.0029297,0.08496094,0.16894531,-49.75,71.375,29.1875,0.0,0.0,0.0
1696258069513,-1.1103516,-0.10644531,-0.0029296875,-27.96875,36.34375,25.84375,0.0,0.0,0.0
1696258069555,-1.2324219,-0.2705078,0.001953125,-9.40625,23.875,12.78125,0.0,0.0,0.0
1696258069594,-1.8310547,-0.0390625,0.20019531,-141.125,-122.65625,19.5625,0.0,0.0,0.0
1696258069634,-1.5068359,-0.005859375,0.09082031,53.46875,-59.78125,-26.21875,0.0,0.0,0.0
1696258069668,-1.1435547,0.111328125,0.06542969,47.1875,-197.78125,-48.375,0.0,0.0,0.0
1696258069713,-1.6357422,0.7373047,-0.02734375,115.09375,-189.25,-35.4375,0.0,0.0,0.0
