# Sensor type: Thingy
# Activity type: Ascending stairs
# Activity subtype: Normal
# Subject id: s2106809
# Notes: unprocessed
timestamp,accel_x,accel_y,accel_z,gyro_x,gyro_y,gyro_z,mag_x,mag_y,mag_z
1696258324866,-0.7890625,0.08203125,0.3984375,-78.6875,96.40625,51.59375,0.0,0.0,0.0
1696258324902,-0.84277344,-0.17675781,0.37402344,-58.78125,95.125,72.03125,-14.875,63.625,-222.8125
1696258324940,-1.1142578,-0.09277344,0.3125,-32.09375,101.21875,55.625,0.0,0.0,0.0
1696258324974,-0.8964844,-0.0029296875,0.23535156,-37.71875,112.5625,12.84375,0.0,0.0,0.0
1696258325019,-0.8027344,-0.05859375,0.24023438,-3.0,98.96875,9.125,0.0,0.0,0.0
1696258325064,-0.9316406,0.07324219,0.22363281,32.03125,71.125,9.46875,0.0,0.0,0.0
1696258325097,-0.82421875,0.26953125,0.19042969,35.09375,50.1875,12.21875,0.0,0.0,0.0
1696258325142,-0.79003906,0.33007812,0.32128906,-12.21875,15.65625,23.875,0.0,0.0,0.0
1696258325176,-0.7910156,-0.028320312,0.36621094,-43.46875,-8.84375,14.65625,0.0,0.0,0.0
1696258325221,-0.9082031,-0.36328125,0.2685547,-77.46875,44.34375,11.25,0.0,0.0,0.0
1696258325255,-1.6962891,-0.14648438,0.21582031,16.40625,117.34375,55.8125,0.0,0.0,0.0
1696258325300,-1.4931641,0.12402344,0.39160156,47.0625,88.78125,32.90625,0.0,0.0,0.0
1696258325334,-1.6367188,0.3642578,0.15917969,-2.625,55.125,22.25,0.0,0.0,0.0
1696258325390,-1.4179688,0.54296875,0.4970703,42.28125,-16.59375,7.40625,-124.9375,-36.125,-16.4375
1696258325424,-1.0791016,0.01171875,0.45898438,30.5,-125.09375,-4.9375,0.0,0.0,0.0
1696258325457,-1.1708984,0.052734375,-0.001953125,-23.625,-206.09375,-33.4375,0.0,0.0,0.0
1696258325537,-1.3662109,0.07910156,0.6113281,0.84375,-238.1875,-99.78125,0.0,0.0,0.0
1696258325538,-1.4179688,0.1953125,-0.17675781,-294.6875,92.6875,-150.0625,0.0,0.0,0.0
1696258325581,-0.6113281,0.32910156,-0.09472656,123.28125,-156.34375,-117.0,0.0,0.0,0.0
1696258325615,-0.5107422,0.028320312,0.66015625,176.25,-266.28125,-23.65625,0.0,0.0,0.0
1696258325660,-0.1953125,0.01171875,0.19726562,222.96875,-419.34375,36.9375,0.0,0.0,0.0
1696258325694,-0.453125,-0.07421875,0.40625,46.8125,-130.90625,10.21875,0.0,0.0,0.0
1696258325739,-0.23339844,0.15039062,0.3017578,46.75,-115.8125,13.625,0.0,0.0,0.0
1696258325784,-0.056640625,0.24707031,0.38183594,36.1875,-52.53125,21.375,0.0,0.0,0.0
1696258325817,-0.15527344,0.14160156,0.42773438,9.28125,-6.4375,-5.28125,0.0,0.0,0.0
1696258325863,-0.07519531,0.17480469,0.6669922,-37.84375,81.1875,-16.46875,0.0,0.0,0.0
1696258325897,-0.095703125,0.09667969,0.9658203,-77.59375,128.0625,-19.15625,-20.375,62.3125,-197.625
1696258325941,-1.3994141,-0.12402344,1.5410156,-55.53125,71.0625,-20.125,0.0,0.0,0.0
1696258325975,-1.9755859,-0.07910156,0.85253906,-49.75,95.40625,12.71875,0.0,0.0,0.0
1696258326020,0.31445312,0.5234375,0.59277344,3.0,89.5625,8.625,0.0,0.0,0.0
1696258326054,-0.85058594,-0.072265625,0.5732422,-72.625,132.90625,6.96875,0.0,0.0,0.0
1696258326099,-1.3076172,0.10644531,0.55371094,-81.71875,141.0625,17.40625,0.0,0.0,0.0
1696258326144,-0.69140625,-0.14453125,0.27148438,-78.75,134.96875,26.625,0.0,0.0,0.0
1696258326177,-1.3427734,-0.75,0.12890625,-59.09375,105.78125,79.65625,0.0,0.0,0.0
1696258326223,-1.1865234,-0.044921875,0.19238281,-113.09375,110.96875,81.75,0.0,0.0,0.0
1696258326257,-1.1142578,-0.23730469,0.021484375,-66.84375,114.59375,23.03125,0.0,0.0,0.0
1696258326313,-1.0498047,-0.21191406,0.07421875,21.65625,75.75,14.46875,0.0,0.0,0.0
1696258326335,-0.89746094,0.3203125,0.30273438,57.96875,38.59375,11.1875,0.0,0.0,0.0
1696258326380,-0.8466797,0.5644531,0.38964844,-9.34375,-11.09375,20.03125,-49.5,74.125,-35.75
1696258326414,-0.75683594,0.3671875,0.5390625,-79.15625,-67.375,11.0,0.0,0.0,0.0
1696258326459,-0.5576172,-0.5751953,-0.53222656,-152.65625,15.65625,4.0625,0.0,0.0,0.0
1696258326504,-0.86816406,0.030273438,0.21777344,26.84375,35.375,53.65625,0.0,0.0,0.0
1696258326537,-1.2568359,-0.3466797,0.17089844,-12.40625,43.0,35.90625,0.0,0.0,0.0
1696258326583,-1.2197266,-0.234375,0.4189453,-14.21875,64.65625,37.75,0.0,0.0,0.0
1696258326617,-1.3896484,-0.041015625,0.28710938,11.71875,113.65625,49.8125,0.0,0.0,0.0
1696258326661,-1.8476562,0.7685547,0.32226562,-63.96875,99.3125,58.5625,0.0,0.0,0.0
1696258326695,-1.3847656,0.46289062,0.56640625,-48.40625,22.78125,32.0625,0.0,0.0,0.0
1696258326740,-1.0488281,0.032226562,0.34960938,-97.125,-117.96875,45.6875,0.0,0.0,0.0
1696258326774,-0.9326172,0.26464844,-0.0234375,-78.5625,-80.1875,-62.78125,0.0,0.0,0.0
1696258326819,-1.3466797,0.24511719,0.4404297,-78.4375,-158.0625,-93.125,0.0,0.0,0.0
1696258326864,-1.3847656,0.62402344,0.35742188,-59.03125,-67.4375,-67.65625,0.0,0.0,0.0
1696258326898,-0.91015625,1.1025391,0.12792969,8.25,-161.0,-0.65625,-299.8125,-361.0,-123.5
1696258326943,-1.0927734,0.30664062,0.5019531,-92.03125,-158.84375,67.34375,0.0,0.0,0.0
1696258326977,-1.2431641,-0.33203125,0.020507812,-81.4375,-164.34375,31.34375,0.0,0.0,0.0
1696258327021,-0.6152344,-0.14941406,0.2783203,-17.59375,-178.5,42.25,0.0,0.0,0.0
1696258327055,-0.9355469,-0.4892578,0.7548828,-28.6875,-115.03125,30.53125,0.0,0.0,0.0
1696258327111,0.28710938,0.06347656,0.26757812,47.84375,-153.125,55.0625,0.0,0.0,0.0
1696258327134,-0.022460938,0.17285156,0.47558594,35.03125,-58.5625,30.34375,0.0,0.0,0.0
1696258327179,0.03515625,0.15429688,0.47265625,11.15625,-16.28125,-0.15625,0.0,0.0,0.0
1696258327224,0.021484375,0.055664062,0.7089844,-23.75,38.78125,-12.875,0.0,0.0,0.0
1696258327258,-0.1640625,0.15820312,0.9316406,-63.59375,50.9375,11.875,0.0,0.0,0.0
1696258327304,-0.5097656,-0.0859375,1.3867188,-16.65625,24.9375,34.0625,0.0,0.0,0.0
1696258327337,-0.5029297,-0.4248047,1.4335938,56.09375,-14.09375,-45.8125,0.0,0.0,0.0
1696258327382,-1.2900391,0.7714844,1.6591797,18.125,19.125,-47.46875,-7.8125,58.0625,-185.4375
1696258327415,-0.20214844,0.5830078,0.453125,69.625,48.90625,-46.84375,0.0,0.0,0.0
1696258327472,-0.28125,0.625,0.60058594,-61.15625,80.84375,-18.0,0.0,0.0,0.0
1696258327494,-1.2353516,0.46777344,0.5517578,-109.4375,135.875,26.15625,0.0,0.0,0.0
1696258327539,-0.9902344,0.25390625,0.3623047,-91.8125,117.40625,52.9375,0.0,0.0,0.0
1696258327585,-0.71191406,-0.03515625,0.38964844,-110.96875,110.4375,25.15625,0.0,0.0,0.0
1696258327618,-0.9013672,-0.14453125,0.32226562,-112.8125,131.0625,20.21875,0.0,0.0,0.0
1696258327664,-1.0976562,0.001953125,0.3466797,-116.03125,136.5625,35.46875,0.0,0.0,0.0
1696258327697,-0.89160156,0.061523438,0.24511719,-97.53125,129.40625,36.625,0.0,0.0,0.0
1696258327743,-1.1533203,-0.25683594,0.033203125,-102.3125,95.84375,48.71875,0.0,0.0,0.0
1696258327776,-0.9326172,-0.034179688,0.10839844,-53.78125,78.625,44.4375,0.0,0.0,0.0
1696258327821,-0.8154297,0.0,0.43359375,-36.25,50.5625,34.75,0.0,0.0,0.0
1696258327854,-0.82714844,-0.076171875,0.3408203,-64.875,42.5625,40.53125,0.0,0.0,0.0
1696258327899,-0.8564453,-0.12597656,0.17089844,-34.5,39.03125,48.40625,168.0,114.1875,-77.875
1696258327944,-1.1455078,-0.12011719,0.12695312,-30.03125,70.28125,39.6875,0.0,0.0,0.0
1696258327978,-1.2226562,0.3203125,0.18847656,-30.40625,77.0625,44.09375,0.0,0.0,0.0
1696258328023,-1.2714844,0.41503906,0.34277344,-16.96875,69.46875,41.9375,0.0,0.0,0.0
1696258328057,-1.6738281,0.08984375,0.14160156,-21.4375,40.1875,27.78125,0.0,0.0,0.0
1696258328102,-1.3496094,0.26757812,0.15039062,-9.59375,-62.53125,13.9375,0.0,0.0,0.0
1696258328136,-1.2705078,0.43945312,0.27441406,-37.53125,-128.40625,6.375,0.0,0.0,0.0
1696258328181,-1.3125,0.015625,0.30664062,-95.84375,-178.75,-55.28125,0.0,0.0,0.0
1696258328214,-1.3056641,0.28125,0.46777344,-246.59375,-68.21875,-139.3125,0.0,0.0,0.0
1696258328260,-1.0117188,0.25390625,0.055664062,20.75,-51.84375,-94.09375,0.0,0.0,0.0
1696258328305,-0.7451172,0.33691406,0.24511719,106.875,-196.375,-22.875,0.0,0.0,0.0
1696258328338,-0.80859375,-0.07519531,0.35546875,122.3125,-295.21875,19.84375,0.0,0.0,0.0
1696258328395,-0.66308594,0.076171875,0.45898438,62.375,-191.09375,47.1875,84.625,78.1875,-230.0
1696258328417,-0.15625,0.080078125,0.3251953,39.1875,-157.5,28.34375,0.0,0.0,0.0
1696258328462,0.0146484375,0.13671875,0.39746094,35.46875,-105.375,36.09375,0.0,0.0,0.0
1696258328496,0.12890625,0.19042969,0.38378906,37.09375,-42.75,27.0,0.0,0.0,0.0
1696258328541,0.11425781,0.0048828125,0.5751953,11.34375,58.96875,27.65625,0.0,0.0,0.0
1696258328574,-0.15722656,0.17089844,1.2246094,-25.46875,133.5625,11.25,0.0,0.0,0.0
1696258328620,-0.29589844,-0.265625,0.90722656,-78.0,94.5,-104.96875,0.0,0.0,0.0
1696258328665,-1.9755859,-0.19921875,0.9785156,6.46875,64.90625,11.3125,0.0,0.0,0.0
1696258328698,0.38671875,0.60253906,0.5175781,20.5625,107.8125,-73.53125,0.0,0.0,0.0
1696258328744,-0.1796875,0.5371094,0.39453125,-36.0625,117.34375,-14.09375,0.0,0.0,0.0
1696258328777,-1.7890625,0.29003906,0.5761719,-60.25,90.28125,62.15625,0.0,0.0,0.0
1696258328822,-0.9550781,0.08984375,0.35253906,-85.6875,127.03125,54.40625,0.0,0.0,0.0
1696258328857,-0.5048828,-0.013671875,0.4296875,-79.40625,110.0625,79.25,0.0,0.0,0.0
1696258328900,-1.1005859,-0.061523438,0.28222656,-78.4375,130.625,64.40625,42.875,74.3125,-206.3125
1696258328934,-0.9667969,-0.0068359375,0.23730469,-87.21875,124.09375,10.625,0.0,0.0,0.0
1696258328979,-0.76464844,-0.07910156,0.29101562,-36.8125,103.21875,0.375,0.0,0.0,0.0
1696258329024,-0.9638672,-0.018554688,0.17578125,10.1875,74.53125,16.4375,0.0,0.0,0.0
1696258329057,-0.8613281,0.14257812,0.171875,35.9375,36.21875,20.15625,0.0,0.0,0.0
1696258329103,-0.82714844,0.24121094,0.4140625,-13.6875,8.3125,28.21875,0.0,0.0,0.0
1696258329137,-0.9472656,0.0546875,0.12207031,-32.65625,24.125,14.0625,0.0,0.0,0.0
1696258329181,-0.984375,-0.14257812,0.24414062,-7.34375,26.375,22.71875,0.0,0.0,0.0
1696258329215,-1.0732422,0.07714844,0.21875,16.78125,56.78125,27.59375,0.0,0.0,0.0
1696258329260,-1.1015625,0.30273438,0.26171875,0.65625,91.8125,21.875,0.0,0.0,0.0
1696258329294,-1.6542969,0.1796875,0.13574219,-2.09375,98.46875,24.375,0.0,0.0,0.0
1696258329339,-1.5029297,0.26757812,0.14355469,9.9375,22.90625,16.3125,0.0,0.0,0.0
1696258329384,-1.1962891,0.3564453,0.17675781,5.625,-56.6875,-0.09375,-166.5,-69.25,-87.1875
1696258329418,-1.2138672,0.20703125,0.23925781,39.5,-106.125,-2.3125,0.0,0.0,0.0
1696258329463,-1.3945312,-0.0068359375,0.24121094,-13.8125,-176.375,-54.5,0.0,0.0,0.0
1696258329496,-1.2353516,0.033203125,0.10546875,12.25,-209.875,-143.71875,0.0,0.0,0.0
1696258329541,-1.0488281,0.19335938,0.060546875,-138.75,-31.59375,-100.5625,0.0,0.0,0.0
1696258329575,-0.6699219,0.2734375,0.3125,47.0,-156.46875,-51.875,0.0,0.0,0.0
1696258329620,-0.6982422,0.08984375,0.34570312,135.5,-267.3125,-2.375,0.0,0.0,0.0
1696258329654,-0.8017578,0.18066406,0.5810547,164.78125,-289.09375,-7.90625,0.0,0.0,0.0
1696258329699,-0.44726562,0.03515625,0.29101562,55.71875,-151.21875,-6.5,0.0,0.0,0.0
1696258329744,-0.2685547,0.0087890625,0.3984375,67.6875,-120.28125,15.21875,0.0,0.0,0.0
1696258329777,-0.18945312,0.107421875,0.5058594,42.28125,-77.5,17.84375,0.0,0.0,0.0
1696258329823,-0.22460938,0.18652344,0.5966797,30.09375,-25.1875,-8.59375,0.0,0.0,0.0
1696258329856,-0.08496094,0.1953125,0.5732422,3.78125,21.3125,-29.53125,3.75,45.8125,-188.4375
1696258329901,-0.083984375,0.06933594,0.9482422,-53.28125,96.40625,-27.4375,0.0,0.0,0.0
1696258329935,-0.33984375,0.10546875,1.0107422,-55.0,94.9375,-51.75,0.0,0.0,0.0
1696258329980,-1.9755859,-0.5449219,1.0234375,-16.0625,4.46875,-8.46875,0.0,0.0,0.0
1696258330025,0.046875,0.43164062,0.5917969,47.53125,100.90625,-52.84375,0.0,0.0,0.0
1696258330059,-0.4453125,0.5185547,0.53515625,13.96875,112.5,-23.0,0.0,0.0,0.0
1696258330104,-0.9658203,0.3330078,0.4375,-51.03125,111.84375,42.8125,0.0,0.0,0.0
1696258330138,-0.9824219,0.18652344,0.31347656,-83.75,133.1875,87.78125,0.0,0.0,0.0
1696258330183,-0.734375,-0.08691406,0.32128906,-88.3125,141.0625,88.46875,0.0,0.0,0.0
1696258330216,-0.9042969,0.0048828125,0.33203125,-85.625,134.71875,52.375,0.0,0.0,0.0
1696258330261,-0.89941406,-0.009765625,0.21582031,-84.96875,121.59375,22.53125,0.0,0.0,0.0
1696258330295,-0.85058594,-0.10546875,0.19433594,-23.375,74.375,15.9375,0.0,0.0,0.0
1696258330340,-0.90722656,-0.025390625,0.17382812,54.5,16.0625,23.53125,0.0,0.0,0.0
1696258330385,-0.8613281,0.2529297,0.4921875,15.4375,-11.03125,20.15625,48.625,110.3125,-6.5
1696258330419,-0.75,0.21777344,0.3359375,-49.875,22.90625,14.125,0.0,0.0,0.0
1696258330497,-1.1279297,-0.10058594,0.25390625,-22.71875,38.40625,2.8125,0.0,0.0,0.0
1696258330499,-1.1142578,0.046875,0.16894531,0.96875,73.1875,28.9375,0.0,0.0,0.0
1696258330542,-1.1513672,0.23925781,0.37695312,34.34375,99.6875,10.53125,0.0,0.0,0.0
1696258330576,-1.5117188,0.38378906,0.25976562,-3.78125,93.21875,14.90625,0.0,0.0,0.0
1696258330621,-1.5976562,0.4189453,0.24023438,-27.34375,11.875,6.90625,0.0,0.0,0.0
1696258330655,-1.2119141,0.2607422,0.21679688,2.625,-102.21875,6.96875,0.0,0.0,0.0
1696258330700,-1.328125,0.20800781,0.18164062,3.90625,-176.5625,-29.875,0.0,0.0,0.0
1696258330745,-1.2792969,-0.087890625,0.55566406,-10.625,-236.0,-124.5,0.0,0.0,0.0
1696258330779,-1.1904297,0.27148438,0.19628906,-79.03125,22.3125,-117.40625,0.0,0.0,0.0
1696258330824,-0.92089844,0.3671875,-0.045898438,80.4375,-152.875,-77.8125,0.0,0.0,0.0
1696258330857,-0.77734375,0.13183594,0.4638672,137.8125,-216.15625,-46.4375,142.8125,225.75,-118.5625
1696258330903,-0.60253906,-0.022460938,0.3720703,84.03125,-228.0,-23.96875,0.0,0.0,0.0
1696258330936,-0.2919922,0.16503906,0.35253906,41.3125,-143.65625,-14.3125,0.0,0.0,0.0
1696258330981,-0.33398438,0.059570312,0.33789062,29.46875,-130.53125,1.1875,0.0,0.0,0.0
1696258331015,-0.09667969,0.111328125,0.38085938,32.15625,-92.25,12.90625,0.0,0.0,0.0
1696258331060,-0.01953125,0.07324219,0.57910156,23.75,-18.40625,5.625,0.0,0.0,0.0
1696258331105,-0.11230469,-0.0048828125,0.6357422,-3.4375,44.6875,-22.6875,0.0,0.0,0.0
1696258331139,-0.10644531,-0.02734375,0.7685547,-59.40625,130.75,-31.53125,0.0,0.0,0.0
1696258331184,-0.9609375,0.10546875,1.5019531,-40.84375,124.65625,-23.84375,0.0,0.0,0.0
1696258331217,-1.9755859,-0.38378906,0.9140625,-25.8125,85.09375,-9.875,0.0,0.0,0.0
1696258331274,0.18164062,0.48339844,0.46679688,12.5625,83.8125,-19.28125,0.0,0.0,0.0
1696258331297,-0.40527344,0.3046875,0.6113281,-31.625,105.96875,27.0,0.0,0.0,0.0
1696258331341,-1.1835938,0.26660156,0.51953125,-80.25,121.84375,61.40625,0.0,0.0,0.0
1696258331387,-0.95703125,-0.11621094,0.3046875,-59.21875,114.03125,69.125,0.75,46.25,-215.0
1696258331420,-0.421875,0.016601562,0.39453125,-92.78125,129.84375,85.53125,0.0,0.0,0.0
1696258331465,-1.1035156,0.040039062,0.20605469,-58.28125,122.625,74.25,0.0,0.0,0.0
1696258331499,-1.0576172,0.01953125,0.12597656,-48.78125,104.6875,45.25,0.0,0.0,0.0
1696258331544,-0.81640625,-0.033203125,0.072265625,5.0625,75.8125,14.65625,0.0,0.0,0.0
1696258331578,-0.86621094,0.13769531,0.23144531,42.21875,51.71875,16.5625,0.0,0.0,0.0
1696258331623,-0.7607422,0.3173828,0.38183594,-19.59375,38.71875,16.0625,0.0,0.0,0.0
1696258331656,-0.7626953,0.17285156,0.18652344,-33.03125,25.34375,20.34375,0.0,0.0,0.0
1696258331702,-0.89160156,-0.14160156,0.234375,-27.46875,28.09375,20.09375,0.0,0.0,0.0
1696258331735,-1.2988281,-0.064453125,0.047851562,-13.8125,79.0625,32.96875,0.0,0.0,0.0
1696258331780,-1.2548828,0.2685547,0.3671875,16.40625,69.28125,26.1875,0.0,0.0,0.0
1696258331825,-1.5166016,0.34765625,0.28320312,-7.375,76.5625,34.3125,0.0,0.0,0.0
1696258331859,-1.8857422,0.2626953,0.34277344,-14.03125,13.9375,12.46875,-150.5625,-79.625,-24.9375
1696258331904,-1.40625,0.41210938,0.4453125,-6.09375,-86.65625,-7.71875,0.0,0.0,0.0
1696258331937,-1.2197266,0.17773438,0.14257812,-30.875,-197.4375,-37.40625,0.0,0.0,0.0
1696258331983,-1.4501953,-0.049804688,0.5253906,-20.03125,-264.8125,-166.53125,0.0,0.0,0.0
1696258332016,-1.2773438,0.3701172,0.33007812,9.9375,51.90625,-90.0625,0.0,0.0,0.0
1696258332062,-0.39941406,0.55371094,-0.42089844,139.78125,-226.40625,-87.6875,0.0,0.0,0.0
1696258332095,-1.4160156,0.11328125,0.4033203,63.40625,-197.6875,6.71875,0.0,0.0,0.0
1696258332140,-0.4970703,-0.17285156,0.3251953,61.75,-241.4375,48.84375,0.0,0.0,0.0
1696258332185,-0.18066406,-0.034179688,0.052734375,63.71875,-259.4375,59.71875,0.0,0.0,0.0
1696258332219,-0.11425781,0.16015625,0.3154297,33.5,-145.3125,66.5,0.0,0.0,0.0
1696258332264,-0.04296875,0.31445312,0.27929688,8.84375,-131.625,58.5625,0.0,0.0,0.0
1696258332298,0.12207031,0.30566406,0.25,-12.5625,-65.28125,28.34375,0.0,0.0,0.0
1696258332343,0.20507812,-0.015625,0.7402344,-28.375,69.78125,20.59375,0.0,0.0,0.0
1696258332388,-0.087890625,0.3076172,1.3671875,-54.25,150.59375,21.3125,3.3125,42.1875,-180.5
1696258332421,-0.51464844,-0.22558594,1.8564453,-23.0,9.3125,-23.90625,0.0,0.0,0.0
1696258332455,0.115234375,-1.0986328,1.0224609,131.96875,-8.03125,-125.40625,0.0,0.0,0.0
1696258332500,-1.6142578,1.9130859,1.3945312,15.0,124.15625,-87.09375,0.0,0.0,0.0
1696258332557,0.6298828,1.4169922,0.6074219,133.40625,66.375,-4.25,0.0,0.0,0.0
1696258332579,0.009765625,0.38476562,0.30078125,-89.78125,61.1875,43.96875,0.0,0.0,0.0
1696258332624,-0.8691406,0.4580078,0.5751953,-203.6875,145.65625,62.59375,0.0,0.0,0.0
1696258332658,-1.2294922,-0.08691406,0.6484375,-68.65625,132.46875,11.875,0.0,0.0,0.0
1696258332703,-0.6923828,-0.064453125,0.4345703,-81.125,135.8125,-0.03125,0.0,0.0,0.0
1696258332736,-0.1875,0.20605469,0.5722656,-121.34375,196.84375,7.53125,0.0,0.0,0.0
1696258332781,-1.2724609,0.4638672,0.25097656,-161.8125,170.0625,-21.09375,0.0,0.0,0.0
1696258332815,-0.76464844,0.24414062,0.11621094,-185.375,154.5625,11.0,0.0,0.0,0.0
1696258332860,-0.5888672,0.15136719,-0.05078125,-151.125,134.3125,69.59375,173.375,257.875,-52.6875
1696258332905,-0.9482422,-0.20117188,0.00390625,-97.0,116.71875,44.34375,0.0,0.0,0.0
1696258332939,-0.953125,-0.18945312,0.09375,-68.4375,137.40625,14.78125,0.0,0.0,0.0
1696258332984,-0.82421875,0.13964844,0.22851562,-117.6875,105.84375,10.875,0.0,0.0,0.0
1696258333017,-0.89746094,-0.06347656,-0.028320312,-86.0625,63.625,16.4375,0.0,0.0,0.0
1696258333063,-1.0556641,-0.103515625,0.111328125,-50.3125,38.34375,31.9375,0.0,0.0,0.0
1696258333096,-0.92871094,-0.11328125,-0.025390625,-60.3125,35.71875,12.21875,0.0,0.0,0.0
1696258333141,-1.0595703,0.12988281,0.203125,-75.375,41.40625,13.625,0.0,0.0,0.0
1696258333175,-1.2207031,0.22363281,-0.091796875,-54.25,57.34375,35.96875,0.0,0.0,0.0
1696258333220,-1.6503906,0.19921875,-0.16113281,-71.46875,51.53125,41.21875,0.0,0.0,0.0
1696258333265,-1.90625,0.37109375,0.040039062,-68.0,-12.96875,-5.21875,0.0,0.0,0.0
1696258333299,-1.3720703,0.31640625,-0.0087890625,-99.6875,-92.8125,-8.96875,0.0,0.0,0.0
1696258333344,-1.2207031,0.13085938,0.06640625,-130.875,-151.96875,-22.4375,0.0,0.0,0.0
1696258333378,-1.3417969,0.21484375,0.19238281,-110.65625,-164.40625,-57.65625,-115.625,-64.625,-166.875
1696258333423,-1.2607422,0.375,0.13671875,-84.0,-199.125,-83.46875,0.0,0.0,0.0
1696258333456,-1.2412109,0.45703125,0.24414062,-119.15625,14.125,-46.84375,0.0,0.0,0.0
1696258333501,-1.4384766,-0.5732422,0.20996094,22.75,-107.59375,-45.4375,0.0,0.0,0.0
1696258333535,-0.63964844,0.013671875,0.27539062,-19.0625,-167.875,-18.96875,0.0,0.0,0.0
1696258333580,-0.57421875,0.055664062,0.34765625,18.5,-239.78125,-22.3125,0.0,0.0,0.0
1696258333625,-0.28222656,0.036132812,0.2861328,31.90625,-202.0,26.4375,0.0,0.0,0.0
1696258333659,-0.40039062,-0.13183594,0.39257812,39.3125,-135.96875,29.5,0.0,0.0,0.0
1696258333704,-0.1328125,0.016601562,0.4658203,49.25,-78.65625,36.625,0.0,0.0,0.0
1696258333738,-0.14746094,0.091796875,0.53222656,28.6875,-10.71875,22.53125,0.0,0.0,0.0
1696258333783,0.0078125,0.072265625,0.7529297,10.3125,70.28125,13.625,0.0,0.0,0.0
1696258333816,-0.047851562,-0.015625,0.88671875,-51.59375,131.125,12.40625,0.0,0.0,0.0
1696258333861,-1.9160156,0.09863281,2.0146484,-24.96875,-13.59375,30.65625,-20.375,27.5,-200.625
1696258333895,-0.8613281,0.083984375,0.86328125,55.71875,82.28125,-30.25,0.0,0.0,0.0
1696258333940,-0.24414062,0.25976562,0.5488281,1.03125,105.90625,-4.25,0.0,0.0,0.0
1696258333985,-1.1113281,0.34960938,0.59765625,-6.78125,103.71875,23.21875,0.0,0.0,0.0
1696258334019,-1.0185547,0.1015625,0.38183594,-58.78125,121.90625,24.5625,0.0,0.0,0.0
1696258334064,-0.63378906,0.07910156,0.29101562,-90.875,136.0,47.375,0.0,0.0,0.0
1696258334098,-1.0244141,-0.16210938,0.34179688,-51.46875,116.0,63.96875,0.0,0.0,0.0
1696258334143,-0.984375,0.043945312,0.25683594,-65.5,125.875,55.3125,0.0,0.0,0.0
1696258334176,-0.7841797,0.14941406,0.21484375,-58.46875,95.59375,51.21875,0.0,0.0,0.0
1696258334222,-0.96191406,-0.0029296875,0.15722656,-13.3125,76.0625,45.1875,0.0,0.0,0.0
1696258334255,-0.9746094,0.01171875,0.17480469,12.09375,62.53125,20.96875,0.0,0.0,0.0
1696258334300,-0.83691406,0.125,0.3515625,20.0625,35.78125,20.53125,0.0,0.0,0.0
1696258334345,-0.8964844,0.19335938,0.3642578,-8.65625,15.09375,22.65625,0.0,0.0,0.0
1696258334379,-0.91015625,0.029296875,0.26464844,-37.59375,5.5,21.125,47.5625,109.8125,-51.0625
1696258334424,-1.0791016,-0.22949219,0.14453125,-7.4375,17.53125,22.40625,0.0,0.0,0.0
1696258334458,-0.8769531,0.08984375,0.3623047,-7.4375,68.25,30.21875,0.0,0.0,0.0
1696258334503,-1.3886719,0.19824219,0.103515625,22.9375,101.46875,23.03125,0.0,0.0,0.0
1696258334536,-1.3701172,0.3935547,0.2734375,39.59375,73.875,27.59375,0.0,0.0,0.0
1696258334581,-1.4648438,0.5390625,0.15722656,10.90625,24.875,16.0,0.0,0.0,0.0
1696258334627,-1.2460938,0.43554688,0.29785156,-27.46875,-57.53125,9.40625,0.0,0.0,0.0
1696258334660,-1.4423828,0.125,0.45996094,-5.5625,-143.34375,-17.8125,0.0,0.0,0.0
1696258334739,-1.3291016,9.765625E-4,0.32617188,-72.8125,-199.625,-179.0625,0.0,0.0,0.0
1696258334741,-0.70703125,0.80859375,-1.3525391,8.1875,-205.4375,-183.9375,0.0,0.0,0.0
1696258334784,-0.061523438,0.5439453,-0.07910156,296.8125,-349.71875,-99.90625,0.0,0.0,0.0
1696258334818,-0.71972656,0.8144531,0.59375,175.90625,-173.8125,12.59375,0.0,0.0,0.0
1696258334862,-0.8261719,0.58496094,0.5107422,232.71875,-479.34375,86.1875,118.0625,134.125,-236.4375
1696258334896,-0.43945312,-0.07421875,0.40527344,12.15625,-197.71875,62.53125,0.0,0.0,0.0
1696258334941,-0.3017578,-0.03125,0.4375,22.75,-156.09375,57.8125,0.0,0.0,0.0
1696258334987,-0.072265625,0.103515625,0.43945312,37.21875,-128.59375,63.0625,0.0,0.0,0.0
1696258335021,-0.02734375,0.15625,0.56347656,23.25,-79.1875,23.21875,0.0,0.0,0.0
1696258335068,0.049804688,0.2919922,0.5390625,38.5,-40.5,-0.40625,0.0,0.0,0.0
1696258335099,0.19335938,0.0078125,0.6738281,24.03125,69.53125,-11.875,0.0,0.0,0.0
1696258335144,-0.07714844,0.051757812,1.2529297,-7.09375,155.125,-28.25,0.0,0.0,0.0
1696258335177,-0.7998047,0.2529297,2.0146484,-22.71875,46.15625,-35.125,0.0,0.0,0.0
1696258335223,-1.9746094,-0.11230469,0.63378906,22.21875,25.46875,-9.375,0.0,0.0,0.0
1696258335257,0.45117188,0.99121094,0.8935547,104.90625,50.0,8.5,0.0,0.0,0.0
1696258335301,-0.4111328,0.6015625,0.45410156,-57.375,114.78125,-13.78125,0.0,0.0,0.0
1696258335347,-1.0371094,0.6386719,0.25,-164.8125,181.28125,31.5,0.0,0.0,0.0
1696258335380,-0.91308594,-0.09863281,0.6376953,-100.28125,116.34375,-1.03125,-22.9375,30.8125,-200.4375
1696258335425,-0.9873047,-0.01953125,0.4658203,-89.0625,148.40625,-6.375,0.0,0.0,0.0
1696258335459,-0.7529297,0.5917969,0.38183594,-56.59375,49.15625,-50.9375,0.0,0.0,0.0
1696258335504,-1.6044922,-0.15136719,0.4033203,-156.75,207.125,-7.125,0.0,0.0,0.0
1696258335537,-0.5888672,0.2890625,0.390625,-204.96875,150.53125,30.96875,0.0,0.0,0.0
1696258335583,-0.88671875,-0.047851562,0.036132812,-152.28125,117.6875,66.90625,0.0,0.0,0.0
1696258335616,-1.3818359,-0.42773438,-0.21679688,-79.78125,98.40625,59.21875,0.0,0.0,0.0
1696258335661,-1.0595703,-0.14648438,0.171875,-94.59375,108.84375,38.71875,0.0,0.0,0.0
1696258335707,-0.8652344,0.08105469,0.3154297,-109.0,79.375,51.15625,0.0,0.0,0.0
1696258335741,-1.0957031,-0.18457031,-0.028320312,-85.875,67.78125,49.28125,0.0,0.0,0.0
1696258335819,-0.80078125,-0.08886719,0.10253906,-50.78125,48.46875,43.0,0.0,0.0,0.0
1696258335821,-1.0058594,-0.10058594,0.0068359375,-42.78125,52.5625,28.59375,0.0,0.0,0.0
1696258335864,-0.95996094,0.15820312,-0.00390625,-69.28125,40.0625,19.4375,-135.0,-31.3125,-128.875
1696258335898,-0.90625,0.14355469,0.068359375,-58.125,32.1875,38.34375,0.0,0.0,0.0
1696258335943,-1.0292969,0.045898438,-0.107421875,-84.46875,45.3125,12.90625,0.0,0.0,0.0
1696258335976,-1.5078125,0.17480469,-0.24804688,-70.1875,42.25,21.6875,0.0,0.0,0.0
1696258336021,-1.7519531,0.42382812,0.09863281,-41.625,-1.6875,20.90625,0.0,0.0,0.0
1696258336067,-1.5625,0.16992188,-0.016601562,-48.90625,-54.0,22.125,0.0,0.0,0.0
1696258336100,-1.2216797,0.4111328,-0.017578125,-116.9375,-114.0625,-6.375,0.0,0.0,0.0
1696258336145,-1.4736328,0.3798828,0.09765625,-90.59375,-165.8125,-46.0,0.0,0.0,0.0
1696258336179,-1.4326172,0.41503906,0.48828125,-61.84375,-184.0625,-81.71875,0.0,0.0,0.0
1696258336224,-1.0175781,0.3203125,-0.19140625,-96.3125,-172.53125,-129.3125,0.0,0.0,0.0
1696258336258,-0.75,0.06738281,0.21582031,-10.875,17.21875,-79.375,0.0,0.0,0.0
1696258336303,-0.5185547,0.04296875,0.3310547,13.5,-121.3125,5.15625,0.0,0.0,0.0
1696258336337,-0.76953125,0.2626953,0.34179688,71.84375,-294.46875,1.96875,0.0,0.0,0.0
1696258336382,-0.33789062,0.10839844,0.103515625,133.46875,-434.0625,2.75,130.5,125.875,-253.25
1696258336427,-0.3125,-0.099609375,0.31835938,14.8125,-100.625,10.46875,0.0,0.0,0.0
1696258336460,-0.044921875,0.15234375,0.4375,32.96875,-84.5,16.125,0.0,0.0,0.0
1696258336505,-0.17675781,-0.0048828125,0.6611328,40.15625,0.21875,11.5625,0.0,0.0,0.0
1696258336539,0.03125,-0.030273438,0.5517578,7.75,73.375,-14.6875,0.0,0.0,0.0
1696258336584,-0.14941406,0.1484375,0.87890625,-42.90625,156.03125,-7.90625,0.0,0.0,0.0
1696258336617,-1.9755859,0.14941406,1.5556641,13.3125,-55.65625,46.15625,0.0,0.0,0.0
1696258336663,-0.7324219,0.4794922,1.1826172,-9.53125,89.75,-13.78125,0.0,0.0,0.0
1696258336697,-0.41992188,0.35742188,0.7060547,-17.71875,93.03125,-1.75,0.0,0.0,0.0
1696258336741,-1.1572266,0.19726562,0.5888672,24.21875,75.9375,22.78125,0.0,0.0,0.0
1696258336786,-0.7089844,0.5566406,0.203125,-162.59375,150.96875,66.3125,0.0,0.0,0.0
1696258336823,-0.9277344,-0.24707031,0.34765625,-108.84375,105.78125,71.3125,0.0,0.0,0.0
1696258336865,-1.0576172,-0.13574219,0.20214844,-114.875,137.21875,86.375,10.625,84.8125,-242.4375
1696258336899,-0.9501953,0.0390625,0.2548828,-63.84375,95.78125,68.125,0.0,0.0,0.0
1696258336944,-0.88671875,-0.07910156,0.21679688,-31.3125,81.125,53.96875,0.0,0.0,0.0
1696258336978,-0.9140625,-0.026367188,0.15332031,27.9375,69.65625,31.34375,0.0,0.0,0.0
1696258337023,-0.8486328,0.16894531,0.23730469,18.1875,49.75,11.96875,0.0,0.0,0.0
1696258337056,-0.82128906,0.18945312,0.40820312,-10.5,50.9375,18.4375,0.0,0.0,0.0
1696258337101,-0.9550781,0.02734375,0.25097656,-33.03125,43.34375,25.78125,0.0,0.0,0.0
1696258337147,-1.0322266,-0.140625,0.13769531,1.53125,23.6875,32.375,0.0,0.0,0.0
1696258337181,-1.0576172,0.11621094,0.3330078,19.03125,41.09375,31.6875,0.0,0.0,0.0
1696258337225,-1.1396484,0.203125,0.20996094,0.3125,69.71875,9.25,0.0,0.0,0.0
1696258337259,-1.4951172,0.24804688,-0.03125,-13.5,28.875,17.0625,0.0,0.0,0.0
1696258337304,-1.4824219,0.6611328,0.08886719,11.09375,-13.96875,24.3125,0.0,0.0,0.0
1696258337338,-1.3046875,0.27246094,0.3876953,16.09375,-79.25,40.78125,0.0,0.0,0.0
1696258337384,-1.2431641,0.14648438,0.40039062,0.96875,-109.21875,7.96875,-108.0,-17.0625,-225.0625
1696258337417,-1.2792969,0.2890625,0.21484375,-27.15625,-177.03125,-80.71875,0.0,0.0,0.0
1696258337462,-1.1689453,0.25585938,0.1796875,-27.53125,-194.875,-114.71875,0.0,0.0,0.0
1696258337507,-1.1474609,0.09375,0.37695312,-89.46875,-0.59375,-107.71875,0.0,0.0,0.0
1696258337542,-0.5517578,0.7363281,0.20898438,289.1875,-334.21875,-113.625,0.0,0.0,0.0
1696258337586,-0.83496094,0.3095703,0.4951172,141.90625,-192.71875,-51.4375,0.0,0.0,0.0
1696258337619,-0.4951172,0.20996094,0.35742188,69.03125,-188.21875,-18.46875,0.0,0.0,0.0
1696258337664,-0.36914062,0.1171875,0.41601562,17.21875,-158.625,13.875,0.0,0.0,0.0
1696258337698,-0.31640625,0.05859375,0.50390625,10.375,-120.9375,33.34375,0.0,0.0,0.0
1696258337744,-0.13378906,0.07128906,0.51171875,19.15625,-79.4375,42.6875,0.0,0.0,0.0
1696258337777,0.00390625,0.064453125,0.4111328,35.8125,-12.625,26.03125,0.0,0.0,0.0
1696258337822,0.05078125,0.119140625,0.76953125,3.65625,98.59375,21.1875,0.0,0.0,0.0
1696258337867,-0.15527344,-0.14746094,1.2480469,-28.625,142.28125,-19.34375,-26.375,51.625,-205.6875
1696258337901,-1.9755859,-0.17871094,2.0146484,-70.3125,71.5625,-60.40625,0.0,0.0,0.0
1696258337945,0.049804688,0.52734375,0.40234375,47.34375,65.375,-55.84375,0.0,0.0,0.0
1696258337979,-0.16015625,-0.078125,0.5576172,-29.375,138.5,-27.875,0.0,0.0,0.0
1696258338024,-1.3720703,0.5078125,0.5859375,6.03125,92.5625,27.71875,0.0,0.0,0.0
1696258338057,-0.9140625,0.18652344,0.34179688,-56.78125,106.90625,40.65625,0.0,0.0,0.0
1696258338103,-0.6591797,0.043945312,0.38671875,-86.96875,124.09375,75.53125,0.0,0.0,0.0
1696258338136,-1.0693359,-0.09472656,0.296875,-68.125,122.875,63.9375,0.0,0.0,0.0
1696258338181,-0.92089844,0.0546875,0.24511719,-72.6875,118.4375,51.71875,0.0,0.0,0.0
1696258338226,-0.8417969,0.0078125,0.18164062,-36.1875,90.90625,40.0,0.0,0.0,0.0
1696258338260,-0.921875,9.765625E-4,0.18652344,19.90625,74.84375,30.96875,0.0,0.0,0.0
1696258338305,-0.9951172,0.14941406,0.23730469,33.3125,52.3125,38.40625,0.0,0.0,0.0
1696258338339,-0.8466797,0.21289062,0.36816406,1.46875,39.875,27.25,0.0,0.0,0.0
1696258338384,-0.9277344,0.09667969,0.24804688,-20.375,53.625,14.59375,-0.4375,94.6875,-34.4375
1696258338417,-0.8925781,-0.01171875,0.19433594,4.21875,46.28125,12.53125,0.0,0.0,0.0
1696258338463,-0.9423828,0.040039062,0.1640625,32.96875,31.5625,12.03125,0.0,0.0,0.0
1696258338496,-0.91308594,0.07128906,0.24023438,33.8125,58.5625,1.53125,0.0,0.0,0.0
1696258338541,-1.1728516,0.07324219,0.0703125,16.21875,52.28125,3.25,0.0,0.0,0.0
1696258338586,-0.88378906,0.17480469,0.00390625,5.71875,24.5625,9.0,0.0,0.0,0.0
1696258338620,-1.5322266,0.31933594,-0.13085938,-31.9375,38.65625,5.5625,0.0,0.0,0.0
1696258338665,-1.4667969,0.6064453,0.064453125,13.90625,-16.46875,-13.84375,0.0,0.0,0.0
1696258338699,-1.4980469,0.45507812,0.453125,-39.875,-56.4375,13.09375,0.0,0.0,0.0
1696258338744,-1.3046875,0.015625,0.45507812,-55.96875,-110.75,23.03125,0.0,0.0,0.0
1696258338777,-1.4208984,0.20996094,0.31347656,-61.96875,-192.1875,-64.0625,0.0,0.0,0.0
1696258338823,-1.0966797,0.17773438,0.115234375,14.78125,-201.8125,-111.75,0.0,0.0,0.0
1696258338868,-1.3740234,-0.12890625,0.31152344,-92.09375,106.84375,-82.4375,-165.4375,-188.1875,111.6875
1696258338901,-0.515625,0.49902344,-0.04296875,181.5,-313.46875,-110.03125,0.0,0.0,0.0
1696258338946,-0.59375,0.38476562,0.4609375,211.25,-245.53125,-25.3125,0.0,0.0,0.0
1696258338980,-0.50097656,0.17871094,0.23828125,118.15625,-307.0625,-13.71875,0.0,0.0,0.0
1696258339025,-0.4482422,0.10546875,0.2919922,21.40625,-131.15625,-2.59375,0.0,0.0,0.0
1696258339059,-0.22167969,0.01171875,0.3623047,12.4375,-119.78125,-2.4375,0.0,0.0,0.0
1696258339104,-0.06347656,0.099609375,0.5185547,18.6875,-72.71875,17.53125,0.0,0.0,0.0
1696258339137,-0.16601562,-0.037109375,0.5800781,27.21875,-9.5,22.40625,0.0,0.0,0.0
1696258339183,-0.0029296875,-0.17578125,0.6982422,-4.75,74.0,-6.21875,0.0,0.0,0.0
1696258339216,-0.18652344,0.11425781,1.0,-72.21875,164.6875,-39.21875,0.0,0.0,0.0
1696258339261,-1.9755859,-0.359375,1.1142578,-14.96875,-13.65625,7.09375,0.0,0.0,0.0
1696258339306,-0.038085938,0.31933594,0.6933594,21.84375,90.53125,-32.75,0.0,0.0,0.0
1696258339340,-0.8095703,0.4248047,0.6748047,17.03125,56.78125,22.90625,0.0,0.0,0.0
1696258339385,-1.0761719,0.3359375,0.4658203,-41.03125,92.71875,42.3125,-23.875,51.625,-223.25
1696258339419,-0.890625,0.047851562,0.41015625,-61.65625,124.03125,58.0,0.0,0.0,0.0
1696258339464,-0.88964844,-0.23535156,0.3310547,-56.21875,140.65625,57.9375,0.0,0.0,0.0
1696258339497,-0.9873047,0.044921875,0.3408203,-55.3125,122.8125,40.59375,0.0,0.0,0.0
1696258339543,-0.79785156,0.20019531,0.23925781,-57.4375,118.4375,49.03125,0.0,0.0,0.0
1696258339576,-0.83691406,0.052734375,0.15625,-22.28125,88.59375,38.90625,0.0,0.0,0.0
1696258339621,-0.9248047,0.026367188,0.1328125,7.375,80.78125,20.71875,0.0,0.0,0.0
1696258339666,-0.8417969,0.12011719,0.23730469,20.625,34.8125,19.4375,0.0,0.0,0.0
1696258339700,-0.8486328,0.18554688,0.4296875,-1.40625,5.34375,29.6875,0.0,0.0,0.0
1696258339745,-0.88671875,0.022460938,0.36328125,-30.34375,15.21875,16.25,0.0,0.0,0.0
1696258339779,-1.1103516,-0.107421875,0.3125,-3.46875,31.9375,25.78125,0.0,0.0,0.0
1696258339824,-1.1806641,0.08691406,0.17675781,15.0625,64.21875,30.21875,0.0,0.0,0.0
1696258339869,-1.0917969,0.578125,0.23925781,20.0625,69.1875,29.9375,46.8125,73.5625,29.625
1696258339902,-1.6748047,0.35058594,-0.043945312,-23.125,51.84375,28.28125,0.0,0.0,0.0
1696258339947,-1.2568359,0.4970703,0.2919922,-17.15625,0.09375,24.875,0.0,0.0,0.0
1696258339981,-1.34375,0.17285156,0.3251953,-23.4375,-97.15625,21.8125,0.0,0.0,0.0
1696258340026,-1.4277344,0.061523438,0.33203125,-12.875,-150.6875,-74.0625,0.0,0.0,0.0
1696258340060,-1.3222656,0.12988281,0.3095703,-67.21875,-197.4375,-153.4375,0.0,0.0,0.0
1696258340105,-1.6367188,0.059570312,0.25976562,33.375,94.625,-122.0,0.0,0.0,0.0
1696258340139,-0.3544922,0.3046875,0.23242188,146.96875,-282.28125,-77.4375,0.0,0.0,0.0
1696258340184,-1.2412109,0.328125,0.58984375,161.125,-248.28125,34.875,0.0,0.0,0.0
1696258340217,-0.8417969,0.20019531,0.52441406,64.9375,-212.5625,32.1875,0.0,0.0,0.0
1696258340263,-0.3623047,0.14453125,0.28320312,6.15625,-157.375,20.03125,0.0,0.0,0.0
1696258340308,-0.2265625,0.017578125,0.390625,31.71875,-150.375,21.25,0.0,0.0,0.0
1696258340341,-0.0048828125,0.11035156,0.33203125,29.96875,-111.25,14.3125,0.0,0.0,0.0
1696258340386,-0.06933594,0.140625,0.4736328,16.96875,-33.3125,-1.6875,-21.875,56.125,-201.8125
1696258340420,-9.765625E-4,0.107421875,0.6357422,-10.8125,49.03125,-20.0625,0.0,0.0,0.0
1696258340465,0.021484375,0.032226562,0.8515625,-66.21875,124.90625,-18.78125,0.0,0.0,0.0
1696258340499,-0.40429688,-0.017578125,1.6484375,-80.3125,130.625,-71.625,0.0,0.0,0.0
1696258340544,-1.9755859,-0.375,0.68359375,-7.03125,81.9375,-24.75,0.0,0.0,0.0
1696258340577,0.6845703,0.390625,0.41796875,33.75,36.8125,-19.875,0.0,0.0,0.0
1696258340623,-1.2451172,0.2890625,0.82421875,-18.375,124.90625,4.40625,0.0,0.0,0.0
1696258340668,-1.0927734,0.43652344,0.5722656,-94.71875,141.625,35.65625,0.0,0.0,0.0
1696258340701,-0.4765625,-0.044921875,0.3935547,-97.71875,114.71875,47.8125,0.0,0.0,0.0
1696258340780,-1.0117188,-0.25878906,0.38183594,-59.09375,121.1875,75.75,0.0,0.0,0.0
1696258340782,-1.9755859,-1.125,0.32128906,-50.59375,79.125,25.71875,0.0,0.0,0.0
1696258340825,-1.1650391,-0.061523438,0.20898438,-57.5625,143.6875,56.21875,0.0,0.0,0.0
1696258340870,-1.0185547,-0.12207031,0.125,-52.3125,109.53125,52.3125,80.6875,92.125,-248.4375
1696258340904,-0.9140625,-0.057617188,9.765625E-4,22.34375,112.03125,37.6875,0.0,0.0,0.0
1696258340937,-0.8076172,0.25585938,0.3330078,11.65625,82.125,36.28125,0.0,0.0,0.0
1696258340983,-0.7988281,0.23730469,0.34960938,-33.5625,110.125,31.40625,0.0,0.0,0.0
1696258341028,-0.82910156,-0.16894531,-0.0234375,-16.90625,106.78125,39.875,0.0,0.0,0.0
1696258341061,-0.8574219,-0.09277344,-0.17871094,37.65625,86.875,59.71875,0.0,0.0,0.0
1696258341106,-0.9863281,0.10644531,0.31445312,55.84375,81.625,18.375,0.0,0.0,0.0
1696258341140,-1.2695312,0.2783203,0.0625,4.5,35.90625,3.0,0.0,0.0,0.0
1696258341185,-0.96191406,0.19921875,-0.036132812,2.0625,10.21875,12.90625,0.0,0.0,0.0
1696258341219,-1.0673828,0.18164062,-0.22265625,-25.875,20.09375,-21.53125,0.0,0.0,0.0
1696258341264,-1.7324219,0.76953125,-0.17089844,-73.78125,21.03125,-3.8125,0.0,0.0,0.0
1696258341298,-1.7148438,0.4248047,0.07421875,-25.15625,-35.375,15.21875,0.0,0.0,0.0
1696258341343,-1.1845703,0.21582031,0.123046875,-7.03125,-52.46875,50.75,0.0,0.0,0.0
1696258341388,-1.1914062,0.4267578,0.11425781,-44.5625,-96.59375,12.46875,-94.625,-28.625,-269.125
1696258341421,-1.1318359,0.020507812,0.21875,-57.75,-159.65625,-72.125,0.0,0.0,0.0
1696258341466,-1.5664062,0.032226562,0.17382812,-96.9375,-227.09375,-169.21875,0.0,0.0,0.0
1696258341500,-1.2451172,0.59277344,0.08691406,12.75,-91.09375,-104.46875,0.0,0.0,0.0
1696258341545,-1.0244141,0.5,0.203125,98.875,-141.53125,-84.28125,0.0,0.0,0.0
1696258341579,-1.1054688,0.109375,0.17773438,-73.0625,-143.21875,5.6875,0.0,0.0,0.0
1696258341624,-0.31835938,0.18164062,0.27734375,-22.03125,-218.0625,51.28125,0.0,0.0,0.0
1696258341658,-0.43945312,0.234375,0.22851562,-73.125,-169.40625,67.03125,0.0,0.0,0.0
1696258341703,-0.5986328,-0.22753906,0.37109375,32.78125,-216.84375,62.28125,0.0,0.0,0.0
1696258341748,-0.1953125,-0.10546875,0.22265625,32.59375,-130.21875,83.8125,0.0,0.0,0.0
1696258341781,-0.059570312,0.064453125,0.234375,35.53125,-55.59375,44.9375,0.0,0.0,0.0
1696258341827,0.115234375,0.125,0.5419922,29.21875,-1.1875,11.75,0.0,0.0,0.0
1696258341860,0.036132812,0.12402344,1.1044922,-8.96875,124.40625,1.53125,-14.875,61.0625,-200.75
1696258341905,-0.44628906,0.051757812,1.5019531,-92.78125,75.21875,-24.9375,0.0,0.0,0.0
1696258341939,-1.1552734,0.0107421875,1.2089844,-37.90625,-74.125,-32.40625,0.0,0.0,0.0
1696258341984,-0.64746094,0.49316406,0.87109375,99.0625,39.8125,-13.53125,0.0,0.0,0.0
1696258342017,-0.04296875,0.6298828,0.4326172,-5.0625,72.71875,6.65625,0.0,0.0,0.0
1696258342063,-1.0097656,0.6308594,0.5410156,-112.96875,136.1875,23.46875,0.0,0.0,0.0
1696258342108,-1.1240234,0.08691406,0.5605469,-107.59375,127.84375,39.4375,0.0,0.0,0.0
1696258342141,-0.7734375,-0.12207031,0.37304688,-109.0,116.96875,15.78125,0.0,0.0,0.0
1696258342187,-0.83691406,-0.0087890625,0.37402344,-90.75,129.40625,19.96875,0.0,0.0,0.0
1696258342220,-1.1132812,0.032226562,0.50683594,-93.21875,112.21875,28.53125,0.0,0.0,0.0
1696258342266,0.8066406,1.4873047,0.52441406,-250.3125,234.6875,-21.71875,0.0,0.0,0.0
1696258342299,-0.8515625,0.087890625,0.020507812,-124.40625,100.375,69.53125,0.0,0.0,0.0
1696258342344,-1.3681641,-0.46777344,-0.01171875,-68.78125,106.59375,60.8125,0.0,0.0,0.0
1696258342389,-0.7636719,-0.16601562,0.27734375,-45.0,110.5625,46.40625,107.5625,136.8125,-184.125
1696258342423,-0.89746094,0.12402344,0.3466797,-19.59375,65.5625,56.21875,0.0,0.0,0.0
1696258342468,-0.76953125,0.03125,0.13671875,-29.125,50.9375,56.84375,0.0,0.0,0.0
1696258342505,-0.91015625,-0.005859375,0.055664062,-26.6875,38.0,52.875,0.0,0.0,0.0
1696258342547,-1.0429688,-0.051757812,0.103515625,-32.40625,49.8125,29.375,0.0,0.0,0.0
1696258342580,-1.1621094,0.037109375,0.13183594,-19.84375,60.625,22.53125,0.0,0.0,0.0
1696258342625,-1.703125,0.3095703,0.09277344,-49.8125,32.5625,23.53125,0.0,0.0,0.0
1696258342659,-1.3945312,0.8515625,0.09667969,-58.90625,-1.6875,-32.28125,0.0,0.0,0.0
1696258342704,-1.2783203,0.4404297,0.1171875,-71.59375,-32.6875,10.9375,0.0,0.0,0.0
1696258342783,-1.2480469,0.3515625,0.49609375,-79.65625,-116.625,4.15625,0.0,0.0,0.0
1696258342785,-1.5410156,-0.18359375,0.17089844,-56.15625,-206.03125,-123.34375,0.0,0.0,0.0
1696258342828,-1.1035156,9.765625E-4,0.19335938,-27.15625,-108.0625,-123.40625,0.0,0.0,0.0
1696258342861,-0.9501953,0.2919922,0.05078125,89.40625,-196.75,-77.5625,-229.8125,-39.25,347.3125
1696258342907,-0.99121094,0.22949219,0.36914062,129.09375,-169.46875,-31.21875,0.0,0.0,0.0
1696258342940,-0.7939453,0.17871094,0.48242188,87.9375,-228.875,25.65625,0.0,0.0,0.0
1696258342985,-0.40039062,0.28125,0.3359375,27.40625,-182.0,57.5625,0.0,0.0,0.0
1696258343019,-0.44335938,-0.01171875,0.39746094,-22.28125,-143.71875,48.0625,0.0,0.0,0.0
1696258343064,-0.20214844,0.0,0.4111328,-2.9375,-121.0,47.125,0.0,0.0,0.0
1696258343097,-0.043945312,-0.013671875,0.43945312,19.15625,-53.625,32.5,0.0,0.0,0.0
1696258343143,0.10058594,-0.107421875,0.60058594,24.03125,39.8125,10.15625,0.0,0.0,0.0
1696258343188,0.0546875,-0.0029296875,0.9453125,-11.34375,138.9375,-0.84375,0.0,0.0,0.0
1696258343221,-0.53808594,0.16992188,1.7441406,-49.1875,164.625,-18.15625,0.0,0.0,0.0
1696258343266,-1.9755859,-0.43066406,0.005859375,-22.90625,88.28125,11.875,0.0,0.0,0.0
1696258343300,0.71777344,0.4326172,0.00390625,-25.34375,58.1875,-42.65625,0.0,0.0,0.0
1696258343345,-1.1113281,0.30273438,0.7324219,-20.375,81.6875,16.0,0.0,0.0,0.0
1696258343390,-1.1347656,0.49414062,0.33984375,-92.34375,131.5,50.9375,-10.5,61.0625,-211.875
1696258343424,-0.625,0.038085938,0.2998047,-108.40625,127.59375,79.0,0.0,0.0,0.0
1696258343458,-1.0097656,-0.171875,0.3154297,-84.21875,129.0,93.53125,0.0,0.0,0.0
1696258343503,-0.96972656,0.12695312,0.34277344,-77.46875,119.90625,45.5,0.0,0.0,0.0
1696258343548,-0.859375,0.06640625,0.29589844,-84.71875,107.5,8.0,0.0,0.0,0.0
1696258343581,-0.85839844,-0.19238281,0.2734375,-43.78125,114.46875,1.46875,0.0,0.0,0.0
1696258343627,-0.96484375,-0.056640625,0.18066406,-5.9375,108.96875,-16.09375,0.0,0.0,0.0
1696258343660,-0.8261719,0.20117188,0.28515625,-30.65625,95.125,-5.96875,0.0,0.0,0.0
1696258343705,-0.8769531,0.17578125,0.2734375,-34.6875,53.375,2.03125,0.0,0.0,0.0
1696258343739,-0.83203125,0.022460938,0.09082031,-35.78125,-22.875,14.0,0.0,0.0,0.0
1696258343784,-0.7109375,-0.1484375,0.3203125,-38.75,-29.15625,4.21875,0.0,0.0,0.0
1696258343818,-0.8642578,-0.09375,0.14648438,-10.25,18.15625,11.96875,0.0,0.0,0.0
1696258343863,-1.2314453,0.048828125,0.12207031,5.84375,85.59375,39.5,71.25,187.6875,25.0
1696258343908,-1.1601562,0.2783203,0.33398438,-28.8125,88.34375,37.375,0.0,0.0,0.0
1696258343941,-1.7060547,0.52246094,0.42871094,-45.21875,93.15625,58.5,0.0,0.0,0.0
1696258343986,-1.8242188,-0.36523438,0.07421875,-31.25,45.5625,38.40625,0.0,0.0,0.0
1696258344020,-1.2246094,0.29003906,0.15332031,-8.78125,-18.40625,29.1875,0.0,0.0,0.0
1696258344065,-0.89160156,0.11425781,0.0087890625,-51.53125,-79.9375,-13.71875,0.0,0.0,0.0
1696258344099,-1.3525391,-0.115234375,0.18847656,-31.6875,-114.3125,-97.03125,0.0,0.0,0.0
1696258344144,-1.2900391,0.3876953,0.25195312,-14.65625,-101.40625,-109.1875,0.0,0.0,0.0
1696258344178,-1.1474609,0.6582031,-0.453125,33.0625,-127.3125,-80.125,0.0,0.0,0.0
1696258344223,-1.2431641,0.24804688,0.32128906,34.34375,-222.875,-48.625,0.0,0.0,0.0
1696258344268,-1.1308594,0.15527344,0.5439453,-66.59375,-97.9375,-21.40625,0.0,0.0,0.0
1696258344301,-0.59277344,0.14453125,0.22363281,-50.34375,-177.34375,42.3125,0.0,0.0,0.0
1696258344347,-0.4453125,0.08105469,0.2783203,5.96875,-234.53125,38.59375,0.0,0.0,0.0
1696258344380,-0.5205078,0.029296875,0.25390625,98.5625,-368.3125,30.0625,85.375,73.5625,-230.0
1696258344425,-0.0068359375,-0.10253906,0.16601562,56.03125,-103.0625,54.21875,0.0,0.0,0.0
1696258344459,0.025390625,-0.0625,0.3125,57.125,-54.96875,44.21875,0.0,0.0,0.0
1696258344504,0.08691406,0.0234375,0.56640625,46.5,0.09375,-14.4375,0.0,0.0,0.0
1696258344538,-0.0068359375,0.119140625,0.93847656,7.3125,61.78125,-25.3125,0.0,0.0,0.0
1696258344583,-0.49023438,0.123046875,1.1328125,-18.625,24.4375,-40.9375,0.0,0.0,0.0
1696258344628,-0.33398438,-0.20996094,1.0488281,40.9375,-35.0,-20.6875,0.0,0.0,0.0
1696258344661,-1.0527344,0.24316406,1.9150391,27.21875,5.8125,-14.75,0.0,0.0,0.0
1696258344706,-0.83984375,0.29785156,0.8232422,103.75,-48.375,-59.90625,0.0,0.0,0.0
1696258344740,0.26953125,0.50390625,0.55078125,50.59375,42.0,-39.59375,0.0,0.0,0.0
1696258344785,-0.74609375,0.62109375,0.5341797,-86.96875,141.625,-45.09375,0.0,0.0,0.0
1696258344819,-1.1865234,0.63671875,0.5107422,-96.9375,147.1875,6.65625,0.0,0.0,0.0
1696258344864,-0.72265625,0.13476562,0.43945312,-142.75,140.09375,34.3125,-3.4375,53.3125,-192.5
1696258344898,-1.0839844,-0.09863281,0.40527344,-115.40625,133.875,41.28125,0.0,0.0,0.0
1696258344943,-0.8359375,0.12109375,0.3076172,-74.71875,118.0625,53.78125,0.0,0.0,0.0
1696258344988,-0.7998047,0.18457031,0.19042969,-132.09375,148.34375,72.96875,0.0,0.0,0.0
1696258345021,-0.96972656,-0.08203125,0.10546875,-128.96875,127.9375,93.34375,0.0,0.0,0.0
1696258345066,-1.0458984,-0.26171875,-0.009765625,-77.21875,128.375,65.75,0.0,0.0,0.0
1696258345100,-0.9433594,-0.22265625,0.091796875,-25.46875,138.09375,13.4375,0.0,0.0,0.0
1696258345145,-0.69140625,0.26757812,0.2529297,-1.34375,107.25,24.8125,0.0,0.0,0.0
1696258345179,-0.8515625,0.2109375,0.22753906,-61.03125,90.78125,37.0625,0.0,0.0,0.0
1696258345224,-1.0253906,-0.14257812,0.060546875,-39.3125,54.65625,52.15625,0.0,0.0,0.0
1696258345269,-1.2421875,-0.20605469,0.25683594,-45.21875,22.0,37.125,0.0,0.0,0.0
1696258345303,-0.9394531,0.0146484375,-0.23535156,-107.90625,72.28125,-39.84375,0.0,0.0,0.0
1696258345348,-1.4423828,0.7871094,0.23828125,-39.375,58.6875,-20.78125,0.0,0.0,0.0
1696258345381,-1.9755859,0.28125,0.13574219,-71.84375,-3.03125,-5.96875,-131.875,-31.75,-56.75
1696258345426,-1.3408203,0.3173828,0.07519531,-60.0625,-114.3125,41.78125,0.0,0.0,0.0
1696258345460,-1.3027344,0.3623047,0.16210938,-134.78125,-129.1875,18.09375,0.0,0.0,0.0
1696258345505,-1.1015625,0.057617188,0.23632812,-114.75,-178.15625,-94.34375,0.0,0.0,0.0
1696258345539,-1.2548828,-0.051757812,0.46875,-51.15625,-21.90625,-51.9375,0.0,0.0,0.0
1696258345584,-1.0839844,-0.037109375,0.057617188,-17.59375,-51.4375,-66.09375,0.0,0.0,0.0
1696258345629,-1.3701172,-0.15527344,0.4326172,52.78125,-150.5,-67.0625,0.0,0.0,0.0
1696258345663,-0.8261719,0.037109375,0.36621094,0.90625,-138.15625,-38.4375,0.0,0.0,0.0
1696258345742,-0.48632812,0.203125,0.2783203,-3.59375,-168.5625,-11.75,0.0,0.0,0.0
1696258345743,-0.4453125,-0.00390625,0.4580078,31.5625,-144.03125,13.15625,0.0,0.0,0.0
1696258345786,-0.30371094,-0.07128906,0.4638672,33.03125,-113.03125,21.8125,0.0,0.0,0.0
1696258345820,-0.3408203,-0.0048828125,0.44921875,33.625,-52.09375,33.78125,0.0,0.0,0.0
1696258345865,-0.2861328,-0.001953125,0.5439453,21.0625,-13.28125,4.40625,1.9375,39.8125,-189.5
1696258345899,0.0107421875,0.032226562,0.76660156,15.9375,61.59375,-5.28125,0.0,0.0,0.0
1696258345944,-0.10058594,-0.16308594,0.8066406,-7.375,120.5,-3.09375,0.0,0.0,0.0
1696258345989,-1.4355469,0.23144531,2.0146484,-23.125,80.03125,-30.9375,0.0,0.0,0.0
1696258346023,-1.7041016,0.32421875,0.8798828,-42.375,138.3125,-44.78125,0.0,0.0,0.0
1696258346068,0.421875,0.21875,0.14746094,11.71875,50.0625,-25.625,0.0,0.0,0.0
1696258346101,-1.3183594,0.4248047,0.49804688,12.09375,77.84375,57.5625,0.0,0.0,0.0
1696258346146,-1.0087891,0.40234375,0.37890625,-89.40625,116.34375,60.25,0.0,0.0,0.0
1696258346180,-0.47265625,0.01953125,0.2705078,-91.9375,103.71875,67.21875,0.0,0.0,0.0
1696258346225,-1.5117188,-0.7109375,0.10058594,-89.53125,109.625,85.90625,0.0,0.0,0.0
1696258346259,-0.9394531,0.001953125,0.36621094,-55.3125,101.21875,44.875,0.0,0.0,0.0
1696258346304,-0.82421875,0.06640625,0.26464844,-27.09375,78.34375,44.5,0.0,0.0,0.0
1696258346349,-0.9794922,0.06347656,0.2421875,6.96875,71.5625,38.46875,0.0,0.0,0.0
1696258346383,-0.86816406,0.06542969,0.21679688,1.15625,64.84375,19.0,136.8125,130.6875,-195.0625
1696258346428,-0.92871094,0.055664062,0.31445312,4.5625,60.875,10.75,0.0,0.0,0.0
1696258346461,-0.91503906,0.15429688,0.27734375,-17.21875,61.96875,9.40625,0.0,0.0,0.0
1696258346507,-0.9375,0.12011719,0.19433594,-16.125,48.1875,11.0,0.0,0.0,0.0
1696258346540,-0.80566406,0.09082031,0.109375,-10.375,44.75,16.5625,0.0,0.0,0.0
1696258346585,-0.89160156,0.14746094,0.06640625,9.75,59.46875,6.125,0.0,0.0,0.0
1696258346619,-1.3447266,0.33398438,0.24804688,17.5625,55.0,1.25,0.0,0.0,0.0
1696258346664,-1.3544922,0.0,0.16601562,4.09375,-12.3125,6.375,0.0,0.0,0.0
1696258346709,-1.3496094,0.25390625,0.09863281,5.5,-28.46875,-14.5,0.0,0.0,0.0
1696258346742,-1.6152344,0.3935547,-0.055664062,-13.25,-30.3125,-4.25,0.0,0.0,0.0
1696258346787,-1.2353516,0.39941406,0.15625,-45.40625,-60.78125,5.875,0.0,0.0,0.0
1696258346821,-1.484375,0.26953125,0.6074219,-68.375,-117.15625,-25.1875,0.0,0.0,0.0
1696258346866,-1.3720703,0.034179688,0.109375,3.46875,-223.25,-96.21875,-124.5,-88.9375,-1.25
1696258346900,-0.9433594,-0.0703125,0.08203125,63.46875,-244.0,-113.25,0.0,0.0,0.0
1696258346945,-0.9628906,0.34960938,0.109375,74.53125,-130.90625,-72.1875,0.0,0.0,0.0
1696258346979,-0.9628906,0.21777344,0.64453125,122.6875,-123.34375,-25.0,0.0,0.0,0.0
1696258347024,-0.4580078,0.16992188,0.22070312,73.25,-225.25,24.625,0.0,0.0,0.0
1696258347069,-0.38964844,0.12597656,0.4013672,16.0625,-134.1875,33.40625,0.0,0.0,0.0
1696258347102,-0.34179688,-0.01953125,0.32421875,-2.8125,-125.46875,35.0625,0.0,0.0,0.0
1696258347148,-0.19335938,0.0,0.40234375,12.5625,-86.15625,38.34375,0.0,0.0,0.0
1696258347181,-0.026367188,0.022460938,0.4267578,8.28125,-27.125,13.15625,0.0,0.0,0.0
1696258347226,0.017578125,0.119140625,0.5859375,2.625,36.40625,-1.625,0.0,0.0,0.0
1696258347260,-0.14355469,-0.043945312,0.7861328,-34.625,103.65625,-8.90625,0.0,0.0,0.0
1696258347305,-0.74902344,0.055664062,1.4316406,-105.65625,112.03125,-60.78125,0.0,0.0,0.0
1696258347339,-1.5878906,-0.6699219,1.5654297,-31.5,16.8125,-24.21875,0.0,0.0,0.0
1696258347384,-0.00390625,0.040039062,1.0478516,66.46875,46.28125,-13.71875,-3.0,34.375,-190.875
1696258347429,-1.1044922,0.23730469,0.4580078,-11.90625,146.9375,14.53125,0.0,0.0,0.0
1696258347463,-0.9511719,0.44628906,0.63964844,28.0,74.78125,-4.875,0.0,0.0,0.0
1696258347508,-0.6123047,0.23632812,0.46875,-39.8125,111.65625,11.96875,0.0,0.0,0.0
1696258347541,-0.81933594,0.10253906,0.28320312,-79.46875,121.1875,59.59375,0.0,0.0,0.0
1696258347587,-1.2099609,-0.14550781,0.26660156,-67.8125,111.34375,76.0625,0.0,0.0,0.0
1696258347620,-0.92578125,0.04296875,0.2998047,-51.53125,108.0625,56.125,0.0,0.0,0.0
1696258347665,-0.7363281,0.08984375,0.32128906,-41.4375,95.90625,34.5625,0.0,0.0,0.0
1696258347699,-0.94140625,0.036132812,0.23828125,-11.84375,83.09375,32.84375,0.0,0.0,0.0
1696258347744,-0.984375,-0.013671875,0.15429688,26.125,59.53125,24.96875,0.0,0.0,0.0
1696258347789,-0.8564453,0.1171875,0.234375,51.6875,39.5625,14.53125,0.0,0.0,0.0
1696258347823,-0.88183594,0.24511719,0.3076172,29.0625,43.0625,5.4375,0.0,0.0,0.0
1696258347868,-0.92871094,0.19238281,0.23242188,-6.59375,28.34375,7.15625,27.4375,87.3125,-49.25
1696258347902,-0.89453125,0.046875,0.3095703,1.40625,16.5,10.40625,0.0,0.0,0.0
1696258347947,-1.1113281,0.005859375,0.31054688,0.25,39.5625,24.875,0.0,0.0,0.0
1696258347980,-1.0185547,0.21289062,0.20898438,-1.15625,67.09375,15.65625,0.0,0.0,0.0
1696258348026,-1.4238281,0.3095703,0.17871094,-8.3125,68.125,21.0,0.0,0.0,0.0
1696258348059,-1.3701172,0.60839844,0.11425781,4.5,36.46875,2.71875,0.0,0.0,0.0
1696258348104,-1.28125,0.33691406,0.2109375,22.09375,-32.5,23.09375,0.0,0.0,0.0
1696258348149,-1.2714844,0.28515625,0.37597656,13.96875,-95.5625,15.875,0.0,0.0,0.0
1696258348183,-1.3144531,0.2421875,0.28515625,-29.25,-133.21875,-58.625,0.0,0.0,0.0
1696258348228,-1.2304688,0.25976562,0.07421875,-55.78125,-179.0625,-106.5625,0.0,0.0,0.0
1696258348261,-0.99316406,0.48242188,0.20019531,-105.53125,-95.5625,-88.125,0.0,0.0,0.0
1696258348307,-0.9765625,0.19921875,0.31445312,-10.5625,-31.78125,-53.875,0.0,0.0,0.0
1696258348340,-0.75683594,0.5859375,0.31933594,129.34375,-244.59375,4.40625,0.0,0.0,0.0
1696258348385,-0.7363281,0.044921875,0.3486328,3.84375,-142.6875,14.96875,260.375,123.9375,189.8125
1696258348419,-0.16992188,0.09667969,0.24511719,26.4375,-186.5,17.59375,0.0,0.0,0.0
1696258348464,-0.2998047,0.061523438,0.37402344,93.875,-241.875,18.875,0.0,0.0,0.0
1696258348509,-0.17578125,0.119140625,0.46679688,34.3125,-94.46875,28.21875,0.0,0.0,0.0
1696258348543,-0.103515625,0.20800781,0.42871094,29.46875,-49.96875,32.1875,0.0,0.0,0.0
1696258348588,-0.17285156,0.059570312,0.6220703,-13.0,10.40625,18.03125,0.0,0.0,0.0
1696258348621,-0.203125,0.125,0.70703125,-11.96875,83.9375,5.8125,0.0,0.0,0.0
1696258348667,-0.89453125,0.5410156,1.9355469,-74.78125,74.78125,-20.625,0.0,0.0,0.0
1696258348700,-0.765625,-0.46972656,0.85546875,-87.46875,65.5625,-75.84375,0.0,0.0,0.0
1696258348745,-0.84472656,0.03125,1.109375,38.625,42.25,-22.125,0.0,0.0,0.0
1696258348779,-0.49804688,0.52246094,0.7285156,42.34375,119.84375,9.1875,0.0,0.0,0.0
1696258348824,-0.7109375,0.4951172,0.6425781,-5.75,92.5,-10.90625,0.0,0.0,0.0
1696258348869,-0.85839844,0.17773438,0.43066406,-71.59375,105.71875,25.53125,-4.625,36.625,-196.875
1696258348903,-0.7832031,0.08496094,0.34570312,-101.9375,129.28125,40.0,0.0,0.0,0.0
1696258348948,-1.1240234,-0.25,0.3544922,-58.71875,93.71875,46.59375,0.0,0.0,0.0
1696258348981,-0.9609375,-0.09765625,0.3388672,-38.03125,95.96875,58.78125,0.0,0.0,0.0
1696258349027,-0.7480469,0.20117188,0.3154297,-30.65625,79.375,69.96875,0.0,0.0,0.0
1696258349060,-0.82910156,0.22558594,0.2783203,-46.4375,90.53125,53.25,0.0,0.0,0.0
1696258349105,-1.0322266,0.13183594,0.22949219,-49.5625,91.34375,31.5,0.0,0.0,0.0
1696258349139,-0.9892578,0.0087890625,0.20410156,-27.03125,86.09375,14.0,0.0,0.0,0.0
1696258349184,-0.9003906,0.11230469,0.265625,-1.65625,63.6875,14.96875,0.0,0.0,0.0
1696258349229,-0.85546875,0.16601562,0.2890625,-22.09375,69.90625,11.3125,0.0,0.0,0.0
1696258349263,-0.7841797,0.12011719,0.40722656,-43.9375,54.9375,16.375,0.0,0.0,0.0
1696258349308,-0.9785156,-0.23242188,0.09863281,-39.625,65.4375,31.875,0.0,0.0,0.0
1696258349341,-1.0185547,-0.00390625,0.14355469,31.71875,65.03125,27.125,0.0,0.0,0.0
1696258349387,-0.96484375,0.16601562,0.2421875,32.21875,59.46875,17.40625,-85.5,32.75,85.75
1696258349420,-1.34375,0.22167969,0.0068359375,-7.09375,46.78125,12.34375,0.0,0.0,0.0
1696258349465,-1.4160156,0.32714844,-0.068359375,17.625,-2.40625,6.0,0.0,0.0,0.0
1696258349499,-1.515625,0.44140625,0.16210938,14.65625,-21.9375,29.375,0.0,0.0,0.0
1696258349544,-1.3955078,0.38378906,0.4658203,-16.96875,-60.71875,30.59375,0.0,0.0,0.0
1696258349589,-1.3447266,0.2626953,0.6074219,-61.96875,-144.03125,2.59375,0.0,0.0,0.0
1696258349623,-1.1386719,0.39257812,0.17382812,-111.6875,-259.5,-106.65625,0.0,0.0,0.0
1696258349668,-1.2246094,0.1328125,0.35058594,83.84375,-196.03125,-66.3125,0.0,0.0,0.0
1696258349701,-1.2792969,0.0703125,0.24511719,5.0,-78.59375,-84.5,0.0,0.0,0.0
1696258349746,-0.7626953,0.5595703,0.24023438,20.3125,-159.03125,-92.75,0.0,0.0,0.0
1696258349780,-0.9375,-0.16113281,0.08300781,108.6875,-172.90625,-5.28125,0.0,0.0,0.0
1696258349825,-0.6425781,0.31054688,0.23535156,32.09375,-106.1875,44.5625,0.0,0.0,0.0
1696258349870,-0.28710938,0.21386719,0.3466797,68.28125,-233.9375,48.46875,148.0625,71.75,-218.625
1696258349907,-0.24804688,0.16796875,0.25097656,20.6875,-158.84375,48.84375,0.0,0.0,0.0
1696258349949,0.044921875,0.21289062,0.2685547,-4.75,-90.125,26.9375,0.0,0.0,0.0
1696258349982,0.20507812,0.1328125,0.3544922,5.4375,-22.875,19.1875,0.0,0.0,0.0
1696258350028,-0.05859375,0.026367188,0.8017578,-38.75,76.0625,-12.4375,0.0,0.0,0.0
1696258350061,-0.15136719,0.25683594,1.2861328,-38.40625,100.53125,-56.5625,0.0,0.0,0.0
1696258350106,-0.6064453,-0.51660156,1.8339844,19.59375,61.1875,-97.9375,0.0,0.0,0.0
1696258350140,-0.22753906,-0.7294922,1.6923828,118.03125,-29.875,-187.71875,0.0,0.0,0.0
1696258350185,-1.4414062,1.0146484,0.43066406,110.34375,59.40625,-34.34375,0.0,0.0,0.0
1696258350230,0.091796875,0.7910156,0.29101562,-17.34375,39.4375,37.375,0.0,0.0,0.0
1696258350264,-0.9628906,0.484375,0.57128906,-179.3125,159.09375,9.84375,0.0,0.0,0.0
1696258350309,-0.8769531,0.059570312,0.60839844,-136.28125,121.0,8.375,0.0,0.0,0.0
1696258350343,-0.7675781,-0.17773438,0.4423828,-111.625,125.15625,-14.75,0.0,0.0,0.0
1696258350388,-0.68359375,0.111328125,0.453125,-86.75,111.78125,5.4375,-22.9375,26.125,-195.9375
1696258350421,-0.7705078,0.2626953,0.52246094,-89.1875,85.34375,48.125,0.0,0.0,0.0
1696258350467,-0.79003906,0.125,0.43652344,-132.4375,80.71875,72.21875,0.0,0.0,0.0
1696258350500,0.064453125,0.16210938,0.5019531,-223.5,122.15625,-90.1875,0.0,0.0,0.0
1696258350545,-1.4882812,-0.5136719,0.14550781,-105.53125,142.46875,51.40625,0.0,0.0,0.0
1696258350590,-1.1650391,-0.45117188,0.1640625,-81.65625,118.6875,26.8125,0.0,0.0,0.0
1696258350624,-0.9189453,-0.022460938,0.28125,-56.59375,111.03125,61.0625,0.0,0.0,0.0
1696258350703,-1.0117188,0.061523438,0.0703125,-71.96875,74.84375,74.84375,0.0,0.0,0.0
1696258350704,-0.9111328,-0.025390625,-0.017578125,-27.65625,88.21875,49.9375,0.0,0.0,0.0
1696258350748,-0.9199219,0.17382812,0.07519531,-17.65625,63.1875,49.28125,0.0,0.0,0.0
1696258350781,-0.9248047,0.17089844,0.009765625,-14.78125,61.90625,48.46875,0.0,0.0,0.0
1696258350826,-0.9609375,0.14746094,0.0126953125,-27.46875,55.6875,39.09375,0.0,0.0,0.0
1696258350871,-0.9453125,0.0546875,0.0,-26.96875,43.65625,35.34375,-89.375,56.0,-34.875
1696258350905,-1.1035156,0.08203125,-0.009765625,-24.46875,36.28125,32.1875,0.0,0.0,0.0
1696258350950,-1.21875,0.16015625,-0.12207031,-29.53125,27.59375,24.375,0.0,0.0,0.0
1696258350984,-1.4667969,0.08496094,-0.20019531,-45.09375,9.78125,-8.28125,0.0,0.0,0.0
1696258351029,-1.7792969,0.3876953,-0.07714844,-33.03125,-30.6875,-10.84375,0.0,0.0,0.0
1696258351062,-1.4150391,0.50878906,-0.032226562,-82.9375,-87.6875,-10.59375,0.0,0.0,0.0
1696258351108,-1.359375,0.32226562,0.0703125,-116.03125,-126.3125,-20.96875,0.0,0.0,0.0
1696258351141,-1.3447266,0.25976562,0.28222656,-84.59375,-143.71875,-41.90625,0.0,0.0,0.0
1696258351186,-1.2646484,0.41308594,-0.0029296875,-93.03125,-181.75,-92.6875,0.0,0.0,0.0
1696258351220,-0.95996094,0.3388672,-0.001953125,-29.90625,-129.96875,-91.59375,0.0,0.0,0.0
1696258351265,-1.3720703,-0.0390625,0.40039062,-9.59375,-15.53125,-62.59375,0.0,0.0,0.0
1696258351310,-0.65527344,0.033203125,0.40234375,20.0,-102.21875,-64.625,0.0,0.0,0.0
1696258351344,-0.6699219,0.09472656,0.35253906,46.875,-256.4375,-61.75,0.0,0.0,0.0
1696258351389,-0.58496094,0.13476562,0.23046875,142.09375,-384.25,-11.21875,139.1875,105.0625,-242.4375
1696258351423,-0.43164062,-0.10253906,0.3251953,39.125,-117.59375,-3.46875,0.0,0.0,0.0
1696258351469,-0.2783203,0.095703125,0.46972656,51.375,-98.0,15.03125,0.0,0.0,0.0
1696258351501,-0.2421875,0.115234375,0.4658203,42.84375,-54.96875,10.03125,0.0,0.0,0.0
1696258351547,-0.025390625,0.11035156,0.4794922,11.84375,10.75,6.5,0.0,0.0,0.0
1696258351581,-0.08984375,0.009765625,0.6669922,-32.40625,77.15625,17.59375,0.0,0.0,0.0
1696258351626,-0.28808594,-0.059570312,0.953125,-38.53125,105.0,27.78125,0.0,0.0,0.0
1696258351670,-1.9755859,0.41308594,1.9306641,-49.125,-43.5,38.71875,0.0,0.0,0.0
1696258351704,-0.22070312,0.23339844,0.68652344,37.71875,76.9375,-21.34375,0.0,0.0,0.0
1696258351749,-0.41601562,0.0078125,0.53027344,1.59375,45.125,23.28125,0.0,0.0,0.0
1696258351783,-1.0517578,0.43359375,0.7050781,-10.375,107.5625,13.09375,0.0,0.0,0.0
1696258351828,-0.9316406,0.38867188,0.5683594,-87.71875,100.53125,25.71875,0.0,0.0,0.0
1696258351874,-0.5957031,0.14941406,0.3076172,-95.09375,91.9375,68.8125,-22.625,24.8125,-208.6875
1696258351906,-0.97753906,0.0146484375,0.24316406,-91.5,101.9375,86.8125,0.0,0.0,0.0
1696258351940,0.25,0.87890625,0.43359375,-158.21875,147.3125,36.6875,0.0,0.0,0.0
1696258351985,-1.1542969,-0.00390625,0.19628906,-112.625,118.5,71.78125,0.0,0.0,0.0
1696258352030,-1.1738281,-0.06640625,0.10839844,-88.375,108.46875,60.5,0.0,0.0,0.0
1696258352064,-0.9189453,-0.053710938,0.125,-40.65625,83.28125,47.8125,0.0,0.0,0.0
1696258352109,-0.9482422,0.043945312,0.18261719,-7.34375,75.34375,35.65625,0.0,0.0,0.0
1696258352143,-0.85058594,0.18261719,0.18945312,-14.53125,75.75,28.15625,0.0,0.0,0.0
1696258352188,-0.8613281,0.234375,0.27148438,-46.5,56.1875,27.71875,0.0,0.0,0.0
1696258352221,-0.8378906,-0.025390625,0.18261719,-60.96875,53.25,24.75,0.0,0.0,0.0
1696258352266,-0.9042969,-0.13769531,0.19042969,-56.71875,42.375,19.84375,0.0,0.0,0.0
1696258352300,-1.1162109,-0.27441406,0.26367188,-18.75,63.875,3.875,0.0,0.0,0.0
1696258352345,-1.1953125,0.12695312,0.24609375,-4.46875,73.625,-16.875,0.0,0.0,0.0
1696258352390,-1.4345703,0.35253906,0.029296875,-35.46875,-6.625,-3.21875,-21.4375,49.5625,65.1875
1696258352424,-1.7587891,0.84277344,-0.01953125,22.09375,-35.0,1.46875,0.0,0.0,0.0
1696258352469,-1.3193359,0.15722656,0.27539062,38.09375,-42.46875,26.25,0.0,0.0,0.0
1696258352503,-1.5351562,-0.22265625,0.36328125,-33.4375,-130.34375,-3.8125,0.0,0.0,0.0
1696258352548,-1.4736328,0.15429688,0.17773438,-27.28125,-184.5625,-128.875,0.0,0.0,0.0
1696258352581,-0.8388672,0.54785156,-0.16601562,-2.3125,-196.4375,-125.65625,0.0,0.0,0.0
1696258352627,-0.7109375,0.18164062,-0.0048828125,171.5625,-289.84375,-83.84375,0.0,0.0,0.0
1696258352660,-0.8408203,0.12109375,0.62890625,112.46875,-160.125,25.46875,0.0,0.0,0.0
1696258352705,-0.8964844,0.13085938,0.43066406,49.0625,-176.3125,48.65625,0.0,0.0,0.0
1696258352750,-0.5175781,0.140625,0.3671875,13.0625,-239.78125,54.34375,0.0,0.0,0.0
1696258352785,-0.3955078,-0.09277344,0.3203125,35.28125,-176.6875,47.75,0.0,0.0,0.0
1696258352829,-0.057617188,0.03515625,0.375,27.8125,-157.3125,70.5,0.0,0.0,0.0
1696258352863,0.05859375,0.123046875,0.4111328,29.71875,-78.78125,60.03125,-16.8125,34.5625,-183.8125
1696258352908,0.091796875,0.17773438,0.48046875,12.4375,-17.1875,26.625,0.0,0.0,0.0
1696258352941,0.040039062,0.08984375,0.5830078,7.25,69.71875,7.03125,0.0,0.0,0.0
1696258352987,-0.13183594,0.24707031,1.1181641,-1.40625,114.53125,-31.21875,0.0,0.0,0.0
1696258353020,-0.16796875,0.07714844,1.4296875,-6.0,92.125,-63.8125,0.0,0.0,0.0
1696258353065,-1.2490234,-0.21875,2.0146484,-1.90625,-46.71875,-81.28125,0.0,0.0,0.0
1696258353110,-0.7109375,0.5029297,1.140625,144.09375,-15.125,-31.0625,0.0,0.0,0.0
1696258353144,0.17089844,0.4345703,0.7841797,91.1875,33.53125,-26.71875,0.0,0.0,0.0
1696258353189,-1.0507812,1.1503906,0.7636719,-81.78125,182.9375,-21.34375,0.0,0.0,0.0
1696258353223,-0.88964844,0.3076172,0.5126953,-106.6875,130.28125,1.84375,0.0,0.0,0.0
1696258353268,-0.45898438,0.056640625,0.31347656,-122.375,124.53125,-7.96875,0.0,0.0,0.0
1696258353301,-0.9423828,-0.14941406,0.54003906,-83.3125,123.96875,9.90625,0.0,0.0,0.0
1696258353347,-0.70996094,0.19335938,0.45898438,-79.96875,118.5625,-25.6875,0.0,0.0,0.0
1696258353391,-0.9248047,0.12109375,0.4892578,-118.28125,123.5,7.46875,-30.875,26.125,-210.8125
1696258353425,-1.5429688,-0.6464844,0.38183594,-213.9375,129.59375,-58.21875,0.0,0.0,0.0
1696258353470,-0.21777344,0.47070312,0.064453125,-18.3125,88.59375,-80.375,0.0,0.0,0.0
1696258353504,-1.8349609,-0.75878906,-0.27441406,-136.0,185.875,97.1875,0.0,0.0,0.0
1696258353549,-1.2705078,-0.3203125,0.27148438,-105.90625,60.375,64.78125,0.0,0.0,0.0
1696258353583,-0.8935547,0.024414062,0.07324219,-76.96875,98.40625,39.625,0.0,0.0,0.0
1696258353628,-0.91503906,-0.12695312,0.11816406,-89.46875,77.15625,52.3125,0.0,0.0,0.0
1696258353661,-0.859375,-0.0234375,0.009765625,-55.0625,76.375,38.03125,0.0,0.0,0.0
1696258353707,-0.8876953,-0.09375,0.01953125,-44.75,68.625,29.3125,0.0,0.0,0.0
1696258353740,-0.9453125,-0.016601562,0.032226562,-42.125,57.75,21.1875,0.0,0.0,0.0
1696258353785,-0.9482422,0.0068359375,0.04296875,-32.40625,41.78125,18.15625,0.0,0.0,0.0
1696258353830,-1.0195312,0.10253906,-0.078125,-35.65625,26.4375,19.125,0.0,0.0,0.0
1696258353864,-1.3476562,0.017578125,-0.29101562,-42.375,18.75,12.53125,-148.625,13.8125,-0.8125
1696258353909,-1.8261719,0.30664062,-0.18652344,-11.46875,20.53125,-7.3125,0.0,0.0,0.0
1696258353943,-1.6523438,0.22460938,-0.10644531,-60.78125,-15.46875,-8.78125,0.0,0.0,0.0
1696258353988,-1.2910156,0.25,-0.14941406,-68.3125,-67.4375,-4.5,0.0,0.0,0.0
1696258354021,-1.3115234,0.19628906,0.072265625,-80.5,-133.28125,-7.4375,0.0,0.0,0.0
1696258354066,-1.3173828,0.41015625,0.21972656,-104.3125,-138.96875,-30.0,0.0,0.0,0.0
1696258354100,-1.296875,0.3955078,0.068359375,-112.1875,-191.1875,-74.3125,0.0,0.0,0.0
1696258354146,-1.1572266,0.31640625,0.026367188,-300.53125,48.0,-63.875,0.0,0.0,0.0
1696258354190,-1.0439453,-0.1875,0.22070312,4.15625,-172.46875,-37.625,0.0,0.0,0.0
1696258354224,-1.0029297,-0.29589844,0.38476562,62.375,-249.0,-6.375,0.0,0.0,0.0
1696258354269,-0.31640625,0.0,0.2578125,34.46875,-280.25,-21.40625,0.0,0.0,0.0
1696258354303,0.044921875,0.078125,0.056640625,55.46875,-293.0625,27.53125,0.0,0.0,0.0
1696258354348,-0.091796875,0.045898438,0.31640625,25.09375,-116.5,30.0,0.0,0.0,0.0
1696258354393,0.08691406,-9.765625E-4,0.390625,24.28125,-33.0,29.1875,-15.875,49.375,-206.0
1696258354426,0.18457031,-0.028320312,0.5371094,-19.65625,105.96875,28.53125,0.0,0.0,0.0
1696258354460,-0.08300781,0.048828125,0.84375,-72.28125,129.84375,6.78125,0.0,0.0,0.0
1696258354505,-1.9755859,0.6220703,2.0146484,-22.65625,-39.71875,-25.5625,0.0,0.0,0.0
1696258354584,-0.5673828,0.25683594,0.8925781,26.53125,99.6875,-43.5625,0.0,0.0,0.0
1696258354586,-0.095703125,0.27246094,0.66503906,3.0,96.09375,-26.15625,0.0,0.0,0.0
1696258354629,-1.2324219,0.6035156,0.4873047,-6.0,106.03125,59.71875,0.0,0.0,0.0
1696258354663,-1.3076172,0.09667969,0.3623047,-66.34375,110.90625,59.40625,0.0,0.0,0.0
1696258354708,-0.53808594,0.0068359375,0.3515625,-111.5625,149.1875,80.15625,0.0,0.0,0.0
1696258354741,-1.0546875,-0.13378906,0.26953125,-69.875,132.65625,70.8125,0.0,0.0,0.0
1696258354787,-0.94628906,0.0068359375,0.203125,-64.15625,112.9375,60.0625,0.0,0.0,0.0
1696258354832,-0.796875,0.043945312,0.21289062,-36.5,79.71875,28.46875,0.0,0.0,0.0
1696258354865,-0.9550781,-0.08886719,0.09277344,7.4375,82.25,8.5625,95.875,177.75,-89.75
1696258354910,-0.8671875,0.115234375,0.18847656,30.03125,66.0,9.90625,0.0,0.0,0.0
1696258354944,-0.9042969,0.15625,0.41503906,13.25,57.53125,11.1875,0.0,0.0,0.0
1696258354989,-0.9345703,0.11328125,0.32128906,-29.0,46.90625,12.90625,0.0,0.0,0.0
1696258355023,-0.95703125,-0.016601562,0.234375,-12.875,13.03125,21.25,0.0,0.0,0.0
1696258355068,-0.93652344,-0.08203125,0.21777344,7.0,11.4375,22.0,0.0,0.0,0.0
1696258355101,-1.0673828,0.12402344,0.17382812,2.8125,43.65625,11.375,0.0,0.0,0.0
1696258355147,-1.0839844,0.1875,0.23632812,3.65625,60.125,7.21875,0.0,0.0,0.0
1696258355192,-1.6308594,0.15625,0.022460938,-9.9375,26.875,23.46875,0.0,0.0,0.0
1696258355225,-1.4970703,0.41796875,0.068359375,10.5625,-12.78125,15.65625,0.0,0.0,0.0
1696258355270,-1.3378906,0.3544922,0.25878906,10.1875,-75.0625,12.90625,0.0,0.0,0.0
1696258355304,-1.3232422,0.19433594,0.31152344,34.0625,-114.34375,-4.5,0.0,0.0,0.0
1696258355349,-1.1015625,0.083984375,0.38476562,3.90625,-171.4375,-92.625,0.0,0.0,0.0
1696258355394,-1.3964844,0.23828125,-0.018554688,-2.5,-187.59375,-94.15625,-109.0625,-69.875,-27.5
1696258355428,-0.9785156,0.28515625,-0.08984375,135.5,-218.0625,-99.40625,0.0,0.0,0.0
1696258355461,-0.7792969,0.27148438,0.3935547,95.28125,-152.5,-61.875,0.0,0.0,0.0
1696258355507,-0.7714844,-0.057617188,0.4267578,-0.84375,-76.9375,-7.78125,0.0,0.0,0.0
1696258355551,-0.3154297,0.13867188,0.265625,44.125,-224.78125,34.6875,0.0,0.0,0.0
1696258355585,-0.47851562,-0.041015625,0.46972656,-0.75,-141.34375,33.90625,0.0,0.0,0.0
1696258355664,-0.23828125,-0.048828125,0.39257812,20.1875,-124.125,28.21875,0.0,0.0,0.0
1696258355666,-0.12597656,0.032226562,0.42382812,27.875,-43.75,17.90625,0.0,0.0,0.0
1696258355709,-0.18554688,0.05859375,0.6142578,11.53125,13.375,-7.96875,0.0,0.0,0.0
1696258355743,0.029296875,0.0029296875,0.8535156,-22.65625,88.71875,-16.71875,0.0,0.0,0.0
1696258355788,-0.13671875,0.08984375,1.0253906,-76.53125,130.9375,-49.46875,0.0,0.0,0.0
1696258355821,-1.9755859,-0.12597656,1.5371094,-51.03125,66.625,7.96875,0.0,0.0,0.0
1696258355867,-0.2939453,0.31445312,0.68847656,9.28125,51.03125,-27.4375,-29.6875,45.5,-213.8125
1696258355912,-0.17382812,-0.07519531,0.65625,-2.03125,126.96875,-18.53125,0.0,0.0,0.0
1696258355945,-1.4296875,0.30566406,0.609375,-3.65625,98.84375,37.6875,0.0,0.0,0.0
1696258355990,-0.8886719,0.10449219,0.33203125,-26.90625,108.59375,19.96875,0.0,0.0,0.0
1696258356024,-1.7177734,-1.2792969,0.3515625,-69.53125,109.15625,56.84375,0.0,0.0,0.0
1696258356069,-1.7207031,-0.9238281,0.016601562,16.46875,149.5,79.90625,0.0,0.0,0.0
1696258356103,-0.93359375,-0.0126953125,0.12207031,-64.34375,107.3125,45.1875,0.0,0.0,0.0
1696258356148,-0.8496094,0.03515625,0.140625,-39.6875,101.21875,34.625,0.0,0.0,0.0
1696258356182,-0.9111328,0.0029296875,0.12011719,13.65625,91.03125,30.96875,0.0,0.0,0.0
1696258356227,-0.9355469,0.10253906,0.18261719,26.5,75.8125,22.96875,0.0,0.0,0.0
1696258356272,-0.93847656,0.13574219,0.27734375,-0.5,64.21875,18.6875,0.0,0.0,0.0
1696258356305,-0.96777344,0.10839844,0.21875,-20.5625,43.28125,7.59375,0.0,0.0,0.0
1696258356350,-0.89160156,0.01171875,0.15527344,-20.4375,14.1875,20.40625,0.0,0.0,0.0
1696258356384,-1.0390625,0.00390625,0.1171875,-3.25,12.03125,24.8125,8.6875,130.5625,24.375
1696258356429,-1.1826172,0.016601562,0.14160156,-9.53125,30.65625,2.09375,0.0,0.0,0.0
1696258356463,-1.1630859,0.13476562,0.08300781,-2.03125,50.4375,-1.75,0.0,0.0,0.0
1696258356508,-1.6914062,0.06640625,0.055664062,-20.21875,-4.125,14.90625,0.0,0.0,0.0
1696258356542,-1.4492188,0.57910156,0.15332031,2.0625,-35.4375,9.59375,0.0,0.0,0.0
1696258356587,-1.2011719,0.08496094,0.3466797,18.0,-100.03125,17.15625,0.0,0.0,0.0
1696258356631,-1.4521484,0.0107421875,0.25976562,-20.5625,-152.5,-18.21875,0.0,0.0,0.0
1696258356665,-1.34375,0.022460938,0.3544922,-10.375,-200.125,-95.875,0.0,0.0,0.0
1696258356710,-1.7080078,-0.5175781,0.09765625,-34.90625,-62.53125,-133.59375,0.0,0.0,0.0
1696258356744,-1.1962891,-0.040039062,-0.0126953125,134.625,-184.1875,-142.8125,0.0,0.0,0.0
1696258356800,-0.6044922,0.27929688,0.48339844,171.3125,-171.78125,-74.0625,0.0,0.0,0.0
1696258356822,-0.45214844,0.20410156,0.50097656,104.4375,-199.5,6.125,0.0,0.0,0.0
1696258356868,-0.34765625,0.19433594,0.42871094,42.90625,-150.0625,52.5625,-13.0625,55.375,-222.8125
1696258356901,-0.33789062,0.15917969,0.40625,-15.03125,-105.3125,51.46875,0.0,0.0,0.0
1696258356946,-0.22363281,0.052734375,0.38964844,11.09375,-80.71875,47.75,0.0,0.0,0.0
1696258356991,-0.08496094,0.07324219,0.41796875,29.34375,-34.03125,25.28125,0.0,0.0,0.0
1696258357025,-0.055664062,-0.0234375,0.64160156,0.375,33.65625,-5.84375,0.0,0.0,0.0
1696258357070,-0.06738281,-0.0087890625,0.8876953,-45.34375,97.4375,-21.84375,0.0,0.0,0.0
1696258357104,-0.359375,-0.030273438,1.0126953,-56.65625,121.96875,-61.8125,0.0,0.0,0.0
1696258357149,-1.9755859,0.036132812,1.5654297,-48.46875,14.59375,-5.53125,0.0,0.0,0.0
1696258357183,0.3798828,0.34570312,0.56152344,28.0,41.65625,-28.125,0.0,0.0,0.0
1696258357228,-0.47265625,-0.0107421875,0.5058594,-12.28125,128.6875,-6.625,0.0,0.0,0.0
1696258357307,-1.3994141,0.4013672,0.75,-36.0,96.21875,36.8125,0.0,0.0,0.0
1696258357308,-0.59472656,0.13085938,0.4013672,-66.15625,101.09375,35.78125,0.0,0.0,0.0
1696258357352,-0.8808594,-0.1640625,0.23925781,-74.15625,113.1875,62.9375,0.0,0.0,0.0
1696258357385,-1.2080078,-0.22558594,0.3720703,-36.5625,110.5,44.5625,-14.375,51.1875,-243.0625
1696258357430,-0.7558594,0.059570312,0.35351562,-44.25,112.4375,39.4375,0.0,0.0,0.0
1696258357464,-0.8154297,0.043945312,0.203125,-17.28125,91.8125,48.84375,0.0,0.0,0.0
1696258357509,-0.9921875,-0.07324219,0.1484375,21.90625,97.8125,22.65625,0.0,0.0,0.0
1696258357542,-0.84472656,0.044921875,0.18652344,39.90625,85.28125,7.90625,0.0,0.0,0.0
1696258357588,-0.8496094,0.18554688,0.29589844,16.71875,81.3125,18.5,0.0,0.0,0.0
1696258357621,-0.9189453,0.17285156,0.1796875,0.71875,66.25,23.875,0.0,0.0,0.0
1696258357666,-1.0419922,-0.07910156,0.12792969,15.3125,30.59375,34.0,0.0,0.0,0.0
1696258357711,-0.9111328,-0.083984375,0.20703125,7.5625,16.375,20.84375,0.0,0.0,0.0
1696258357745,-1.1337891,0.049804688,0.18164062,-11.90625,29.625,-1.3125,0.0,0.0,0.0
1696258357790,-1.1259766,0.17578125,0.14257812,4.5,44.03125,-15.0625,0.0,0.0,0.0
1696258357824,-1.453125,0.13574219,0.045898438,-39.0,10.6875,-2.90625,0.0,0.0,0.0
1696258357869,-1.5195312,0.5673828,-0.01953125,23.625,-33.5625,0.6875,-69.4375,49.0625,37.0
1696258357903,-1.4199219,0.27148438,0.3408203,-18.1875,-36.90625,34.625,0.0,0.0,0.0
1696258357948,-1.3896484,0.026367188,0.3779297,-17.53125,-89.34375,22.59375,0.0,0.0,0.0
1696258357982,-1.4472656,0.08984375,0.42382812,-53.71875,-172.21875,-66.09375,0.0,0.0,0.0
1696258358026,-1.2285156,0.022460938,0.17675781,-79.28125,7.96875,-80.96875,0.0,0.0,0.0
1696258358071,-0.7861328,0.119140625,0.045898438,126.28125,-233.6875,-129.9375,0.0,0.0,0.0
1696258358105,-0.89941406,0.32617188,0.0859375,153.875,-196.34375,-85.3125,0.0,0.0,0.0
1696258358150,-0.7080078,0.234375,0.48242188,166.4375,-217.6875,1.59375,0.0,0.0,0.0
1696258358184,-0.609375,0.14746094,0.38378906,74.75,-203.46875,35.65625,0.0,0.0,0.0
1696258358229,-0.3486328,0.115234375,0.421875,0.53125,-135.53125,29.625,0.0,0.0,0.0
1696258358262,-0.33203125,-0.0048828125,0.35546875,7.4375,-113.75,26.9375,0.0,0.0,0.0
1696258358308,-0.19726562,0.047851562,0.45117188,12.5,-67.4375,24.4375,0.0,0.0,0.0
1696258358342,-0.11621094,-0.032226562,0.54296875,2.9375,-11.5625,5.5625,0.0,0.0,0.0
1696258358386,0.06933594,0.076171875,0.6347656,-15.4375,77.90625,-5.28125,-26.5625,52.25,-201.1875
1696258358432,-0.052734375,0.12695312,0.9453125,-65.5,151.4375,-9.5625,0.0,0.0,0.0
1696258358476,-1.9755859,-0.09082031,1.9326172,-29.1875,-106.4375,41.8125,0.0,0.0,0.0
1696258358521,0.12109375,0.45703125,0.69140625,28.25,95.65625,-64.8125,0.0,0.0,0.0
1696258358544,-0.4013672,0.032226562,0.5390625,-13.625,103.40625,-13.03125,0.0,0.0,0.0
1696258358589,-1.2109375,0.5654297,0.71777344,-26.875,89.6875,29.375,0.0,0.0,0.0
1696258358623,-0.6611328,0.19042969,0.48828125,-75.75,98.96875,36.46875,0.0,0.0,0.0
1696258358668,-0.80371094,-0.13378906,0.31835938,-72.5625,105.84375,74.96875,0.0,0.0,0.0
1696258358702,-0.24121094,1.1816406,0.21289062,4.5,23.15625,11.5,0.0,0.0,0.0
1696258358747,-1.0732422,0.005859375,0.31054688,-74.53125,117.09375,42.375,0.0,0.0,0.0
1696258358791,-0.8642578,0.08984375,0.33398438,-107.125,112.5625,37.625,0.0,0.0,0.0
1696258358825,-0.9082031,-0.06738281,0.17773438,-51.46875,102.4375,42.1875,0.0,0.0,0.0
1696258358881,-1.0214844,-0.14257812,0.10644531,-9.09375,85.21875,21.9375,91.625,132.3125,-169.25
1696258358904,-0.8378906,-0.025390625,0.3203125,0.1875,79.71875,6.4375,0.0,0.0,0.0
1696258358949,-0.8046875,0.16308594,0.3935547,-25.03125,88.34375,13.75,0.0,0.0,0.0
1696258358983,-1.0947266,-0.12109375,0.09472656,-23.625,78.03125,29.125,0.0,0.0,0.0
1696258359028,-0.8339844,0.09082031,0.140625,22.53125,58.25,23.34375,0.0,0.0,0.0
1696258359061,-0.89746094,0.12695312,0.10058594,22.15625,66.1875,18.03125,0.0,0.0,0.0
1696258359106,-0.97753906,0.041992188,0.12890625,9.46875,72.21875,13.6875,0.0,0.0,0.0
1696258359151,-1.0029297,0.034179688,0.0390625,12.8125,59.71875,20.90625,0.0,0.0,0.0
1696258359185,-0.9736328,0.14941406,0.028320312,19.28125,46.78125,17.96875,0.0,0.0,0.0
1696258359230,-1.0732422,-0.15234375,0.107421875,-32.71875,-6.5,7.59375,0.0,0.0,0.0
1696258359264,-1.1787109,0.23632812,-0.14941406,-49.375,36.65625,-9.4375,0.0,0.0,0.0
1696258359309,-1.3046875,0.20996094,-0.21484375,-48.34375,16.25,-6.34375,0.0,0.0,0.0
1696258359342,-1.8818359,0.6816406,-0.01171875,-33.4375,-7.5625,5.9375,0.0,0.0,0.0
1696258359387,-1.4951172,0.29003906,0.072265625,-47.0625,-56.5625,47.875,-156.4375,-90.125,-241.125
1696258359422,-1.2548828,0.06933594,0.22363281,-73.25,-108.0625,27.1875,0.0,0.0,0.0
1696258359466,-0.9980469,0.068359375,0.10253906,-56.71875,-144.09375,-56.9375,0.0,0.0,0.0
1696258359511,-1.5166016,0.057617188,0.4296875,-35.78125,-230.9375,-136.5625,0.0,0.0,0.0
1696258359545,-1.0585938,0.47851562,-0.06738281,-60.5,-128.09375,-140.0,0.0,0.0,0.0
1696258359590,-0.9765625,0.6699219,0.12011719,64.625,-30.625,-126.09375,0.0,0.0,0.0
1696258359624,-1.0019531,0.15039062,0.50390625,3.0625,-73.53125,-25.125,0.0,0.0,0.0
1696258359669,-0.6923828,0.20214844,0.19824219,-64.53125,-41.53125,25.40625,0.0,0.0,0.0
1696258359703,-1.0429688,0.12011719,0.3623047,-19.21875,-192.1875,49.03125,0.0,0.0,0.0
1696258359748,-1.0517578,0.12792969,0.15625,-26.90625,-189.4375,47.3125,0.0,0.0,0.0
1696258359793,-0.66503906,-0.20800781,0.13671875,11.09375,-186.0625,54.71875,0.0,0.0,0.0
1696258359826,-0.1875,-0.14160156,0.3046875,49.25,-194.375,77.09375,0.0,0.0,0.0
1696258359871,-0.02734375,-0.13476562,0.3671875,66.875,-105.4375,36.59375,62.875,77.875,-245.75
1696258359905,0.21777344,-0.025390625,0.6855469,38.875,3.0625,17.65625,0.0,0.0,0.0
1696258359961,-0.12792969,0.18652344,1.1621094,-52.625,81.6875,17.40625,0.0,0.0,0.0
1696258359983,-0.21289062,0.22949219,1.1757812,-25.40625,-14.625,5.34375,0.0,0.0,0.0
1696258360029,-1.1601562,0.7783203,1.5195312,-17.71875,-18.59375,63.8125,0.0,0.0,0.0
1696258360062,-0.2685547,0.10644531,0.6923828,17.875,56.53125,-26.40625,0.0,0.0,0.0
1696258360119,-0.38867188,0.6816406,0.60253906,-29.84375,76.375,3.75,0.0,0.0,0.0
1696258360152,-0.98535156,0.375,0.5214844,-102.59375,133.25,3.25,0.0,0.0,0.0
1696258360186,-1.1855469,0.037109375,0.43066406,-91.125,125.6875,38.40625,0.0,0.0,0.0
1696258360265,-0.64746094,0.08886719,0.35742188,-102.125,125.9375,48.34375,0.0,0.0,0.0
1696258360267,-0.86328125,-0.06738281,0.3642578,-94.5,117.8125,66.96875,0.0,0.0,0.0
1696258360310,-0.8457031,0.15820312,0.30273438,-117.125,144.96875,76.1875,0.0,0.0,0.0
1696258360355,-0.98046875,-0.013671875,0.18554688,-123.125,123.5625,62.28125,0.0,0.0,0.0
1696258360388,-0.9902344,-0.12597656,0.18164062,-85.28125,105.375,55.4375,91.5,137.875,-210.625
1696258360422,-0.94921875,-0.08203125,0.16992188,-56.46875,98.71875,25.84375,0.0,0.0,0.0
1696258360468,-0.90234375,-0.018554688,0.2841797,-44.25,84.1875,26.6875,0.0,0.0,0.0
1696258360524,-0.8457031,0.107421875,0.2763672,-56.71875,66.125,32.6875,0.0,0.0,0.0
1696258360548,-0.83496094,0.068359375,0.109375,-55.3125,44.28125,26.3125,0.0,0.0,0.0
1696258360591,-0.87109375,-0.04296875,0.2607422,-78.0,55.5,14.0,0.0,0.0,0.0
1696258360625,-1.0751953,-0.119140625,0.24707031,-86.6875,91.03125,-14.1875,0.0,0.0,0.0
1696258360670,-1.2910156,0.2626953,0.30566406,-67.21875,80.65625,-0.28125,0.0,0.0,0.0
1696258360704,-1.7568359,0.47265625,0.27734375,-76.3125,16.875,22.90625,0.0,0.0,0.0
1696258360749,-1.59375,0.24609375,-0.0859375,-11.40625,-71.875,34.4375,0.0,0.0,0.0
1696258360794,-1.2451172,0.13769531,0.3408203,20.875,-116.8125,26.03125,0.0,0.0,0.0
1696258360828,-1.2910156,-0.25195312,0.10058594,-43.21875,-123.5,-48.4375,0.0,0.0,0.0
1696258360873,-1.5136719,-0.2529297,0.22558594,36.25,-191.3125,-115.65625,-188.5625,-170.625,-178.25
1696258360906,-0.9589844,0.23828125,-0.005859375,73.46875,-173.9375,-97.03125,0.0,0.0,0.0
1696258360951,-0.7675781,0.24707031,0.125,160.875,-162.9375,-50.28125,0.0,0.0,0.0
1696258360985,-1.0966797,0.07714844,0.63964844,100.09375,-202.96875,16.5,0.0,0.0,0.0
1696258361030,-0.3251953,0.38085938,0.23242188,55.90625,-202.125,50.4375,0.0,0.0,0.0
1696258361064,-0.43945312,0.23925781,0.4609375,-39.8125,-134.1875,50.6875,0.0,0.0,0.0
1696258361109,-0.36914062,-0.18164062,0.2783203,-35.90625,-120.71875,36.34375,0.0,0.0,0.0
1696258361142,-0.087890625,-0.030273438,0.45214844,37.28125,-95.8125,55.0,0.0,0.0,0.0
1696258361188,0.0126953125,-0.059570312,0.5488281,31.71875,-7.96875,16.0625,0.0,0.0,0.0
1696258361232,0.018554688,0.018554688,0.8486328,-21.5625,83.40625,-11.46875,0.0,0.0,0.0
1696258361266,-0.076171875,-0.016601562,0.9091797,-61.46875,96.9375,-57.65625,0.0,0.0,0.0
1696258361311,-1.9755859,0.20117188,1.828125,-41.25,61.3125,-49.3125,0.0,0.0,0.0
1696258361345,-0.4970703,0.31933594,0.8310547,10.96875,55.6875,-17.75,0.0,0.0,0.0
1696258361391,-0.20214844,0.00390625,0.6230469,-40.96875,107.8125,-6.6875,-16.375,57.625,-196.125
1696258361424,-1.2119141,0.15625,0.70214844,-31.5625,105.71875,24.5625,0.0,0.0,0.0
1696258361469,-0.7753906,0.08300781,0.49316406,-38.8125,99.1875,9.28125,0.0,0.0,0.0
1696258361502,-0.6816406,0.01171875,0.3623047,-57.75,107.4375,30.40625,0.0,0.0,0.0
1696258361548,0.7324219,1.5986328,0.7763672,-175.96875,188.8125,20.53125,0.0,0.0,0.0
1696258361593,-0.82714844,0.14941406,0.40820312,-92.71875,89.8125,85.28125,0.0,0.0,0.0
1696258361627,-1.1767578,-0.2734375,0.19335938,-68.90625,108.71875,73.6875,0.0,0.0,0.0
1696258361671,-0.96875,-0.25976562,0.13085938,-1.59375,99.875,29.25,0.0,0.0,0.0
1696258361705,-0.8955078,9.765625E-4,0.12890625,39.4375,85.96875,14.25,0.0,0.0,0.0
1696258361750,-0.88964844,0.21289062,0.2548828,31.625,85.78125,7.71875,0.0,0.0,0.0
1696258361784,-0.88183594,0.32617188,0.16699219,-23.375,77.21875,8.375,0.0,0.0,0.0
1696258361829,-0.9453125,0.15625,0.08496094,-26.6875,46.78125,4.15625,0.0,0.0,0.0
1696258361874,-0.92578125,-0.040039062,0.07714844,-13.75,25.21875,10.34375,-122.6875,-31.9375,-92.3125
1696258361908,-0.9296875,-0.049804688,0.041015625,-6.53125,20.34375,16.0625,0.0,0.0,0.0
1696258361952,-0.87890625,-0.14453125,0.095703125,-15.875,33.65625,13.9375,0.0,0.0,0.0
1696258361986,-0.96875,-0.119140625,0.15820312,-11.96875,50.8125,16.0625,0.0,0.0,0.0
1696258362031,-1.0009766,-0.033203125,-0.0029296875,48.65625,52.03125,30.59375,0.0,0.0,0.0
1696258362065,-1.0029297,0.5048828,-0.12402344,-27.28125,82.90625,41.59375,0.0,0.0,0.0
1696258362110,-1.5751953,0.22167969,-0.22460938,-60.84375,73.5,33.71875,0.0,0.0,0.0
1696258362144,-1.828125,0.56347656,0.052734375,-31.9375,23.65625,28.03125,0.0,0.0,0.0
1696258362189,-1.3173828,0.19921875,0.030273438,-89.125,-27.375,38.09375,0.0,0.0,0.0
1696258362222,-1.1914062,0.25097656,0.20605469,-77.59375,-97.875,-6.6875,0.0,0.0,0.0
1696258362268,-1.0673828,0.09277344,0.18164062,-77.15625,-136.15625,-72.375,0.0,0.0,0.0
1696258362312,-1.4042969,0.103515625,0.46484375,-76.71875,-182.59375,-158.96875,0.0,0.0,0.0
1696258362346,-1.1113281,0.4404297,-0.053710938,-60.6875,-86.84375,-129.0,0.0,0.0,0.0
1696258362391,-1.0097656,0.6035156,-0.0029296875,115.65625,-25.0,-104.53125,-105.0,-336.875,190.5625
1696258362425,-0.9765625,0.3173828,0.68652344,-33.8125,-114.0,-14.75,0.0,0.0,0.0
1696258362470,-0.87109375,0.18164062,0.19335938,-50.59375,-161.28125,32.96875,0.0,0.0,0.0
1696258362504,-0.7109375,0.1796875,0.51953125,-91.4375,-118.75,60.0625,0.0,0.0,0.0
1696258362549,-0.6767578,-0.024414062,0.39941406,-48.40625,-179.0,70.8125,0.0,0.0,0.0
1696258362582,-0.74121094,-0.28222656,0.3857422,17.09375,-189.75,103.09375,0.0,0.0,0.0
1696258362628,0.046875,-0.111328125,0.016601562,76.59375,-158.5,99.875,0.0,0.0,0.0
1696258362672,-0.09277344,0.07714844,0.37109375,65.25,-56.6875,61.84375,0.0,0.0,0.0
1696258362706,0.026367188,0.09863281,0.5673828,50.71875,-25.90625,36.625,0.0,0.0,0.0
1696258362751,0.083984375,0.29785156,0.7685547,-25.09375,64.15625,6.5625,0.0,0.0,0.0
1696258362796,-0.23828125,0.41601562,1.0771484,-122.75,84.90625,10.34375,0.0,0.0,0.0
1696258362830,-0.4013672,0.24316406,1.2226562,-60.0,13.8125,15.65625,0.0,0.0,0.0
1696258362875,-1.6181641,0.17285156,2.0146484,-15.875,-52.84375,-25.625,-1.5,55.25,-186.1875
1696258362908,0.10839844,0.5673828,0.5136719,96.75,38.09375,-44.71875,0.0,0.0,0.0
1696258362943,-0.11035156,0.6640625,0.48632812,-24.46875,95.28125,-17.0625,0.0,0.0,0.0
1696258362987,-1.2587891,0.6611328,0.5546875,-115.71875,139.96875,22.59375,0.0,0.0,0.0
1696258363032,-1.1035156,0.056640625,0.4794922,-122.8125,130.4375,32.125,0.0,0.0,0.0
1696258363066,-0.7158203,-0.13671875,0.39257812,-119.3125,129.34375,-1.875,0.0,0.0,0.0
1696258363111,-0.7861328,-0.022460938,0.3671875,-91.875,132.09375,1.78125,0.0,0.0,0.0
1696258363145,-0.9580078,0.11425781,0.3671875,-105.40625,129.78125,21.875,0.0,0.0,0.0
1696258363190,-0.87402344,0.08984375,0.2734375,-124.625,121.1875,50.625,0.0,0.0,0.0
1696258363224,-1.0947266,-0.25878906,-0.051757812,-103.9375,89.75,72.65625,0.0,0.0,0.0
1696258363269,-0.9501953,-0.15527344,0.078125,-43.03125,80.90625,53.125,0.0,0.0,0.0
1696258363303,-0.8486328,-0.21289062,0.2548828,-70.4375,94.8125,39.8125,0.0,0.0,0.0
1696258363348,-0.91503906,0.048828125,0.24804688,-66.46875,78.875,44.875,0.0,0.0,0.0
1696258363415,-0.8857422,0.040039062,0.040039062,-34.6875,54.15625,45.78125,94.9375,186.5,-59.3125
1696258363427,-0.9472656,-0.025390625,0.080078125,-49.875,48.0625,35.96875,0.0,0.0,0.0
1696258363471,-1.0878906,-0.040039062,0.25390625,-58.46875,45.90625,17.78125,0.0,0.0,0.0
1696258363505,-1.21875,0.07910156,0.30664062,-38.34375,63.375,2.9375,0.0,0.0,0.0
1696258363550,-1.4541016,0.30273438,-0.03515625,-104.8125,35.46875,2.75,0.0,0.0,0.0
1696258363584,-1.7226562,0.5058594,0.08300781,-58.0625,-33.125,-1.9375,0.0,0.0,0.0
1696258363629,-1.2958984,0.04296875,0.2734375,-12.03125,-71.6875,46.90625,0.0,0.0,0.0
1696258363662,-1.6005859,0.18261719,0.28808594,-45.40625,-119.375,5.5625,0.0,0.0,0.0
1696258363708,-1.1953125,-0.11425781,0.25976562,-34.5,-174.0625,-96.28125,0.0,0.0,0.0
1696258363752,-1.21875,-0.11035156,-0.11816406,-48.40625,-24.9375,-114.4375,0.0,0.0,0.0
1696258363797,-0.97753906,0.1328125,0.15039062,127.3125,-212.25,-79.6875,0.0,0.0,0.0
1696258363831,-0.69140625,0.3017578,0.4111328,139.53125,-160.1875,-7.375,0.0,0.0,0.0
1696258363865,-0.69921875,0.19726562,0.4189453,58.78125,-222.28125,60.1875,78.625,75.3125,-189.5
1696258363910,-0.51953125,0.17675781,0.38085938,6.28125,-158.71875,92.96875,0.0,0.0,0.0
1696258363944,-0.64160156,-0.123046875,0.44140625,-52.75,-117.53125,62.09375,0.0,0.0,0.0
1696258363989,-0.25390625,-0.0859375,0.4169922,31.96875,-126.5625,63.5,0.0,0.0,0.0
1696258364022,-0.09667969,0.044921875,0.45703125,47.0625,-50.46875,13.75,0.0,0.0,0.0
1696258364068,0.07714844,0.06738281,0.6298828,36.625,39.21875,-25.125,0.0,0.0,0.0
1696258364146,0.095703125,-0.0029296875,1.0205078,2.625,104.625,-35.75,0.0,0.0,0.0
1696258364148,-0.2890625,-0.091796875,1.1064453,-81.3125,85.34375,-98.75,0.0,0.0,0.0
1696258364191,-1.9755859,0.16113281,0.77734375,-7.375,39.75,-9.6875,0.0,0.0,0.0
1696258364225,0.3876953,0.28125,0.3544922,-7.9375,41.59375,-39.28125,0.0,0.0,0.0
1696258364270,-1.0410156,0.40429688,0.8203125,1.71875,87.46875,2.59375,0.0,0.0,0.0
1696258364304,-1.2451172,0.2705078,0.4951172,-35.65625,102.375,14.1875,0.0,0.0,0.0
1696258364349,-0.61816406,0.13476562,0.42285156,-81.0625,110.4375,35.78125,0.0,0.0,0.0
1696258364394,-1.0097656,-0.17382812,0.28710938,-74.78125,120.375,53.71875,-1.8125,46.25,-198.9375
1696258364439,-1.1689453,-0.20410156,0.22753906,-49.5,118.125,43.65625,0.0,0.0,0.0
1696258364473,-0.7792969,0.18261719,0.29785156,-52.96875,114.53125,35.78125,0.0,0.0,0.0
1696258364506,-0.7939453,0.20996094,0.2919922,-31.5,105.84375,49.15625,0.0,0.0,0.0
1696258364551,-0.94140625,0.052734375,0.111328125,-6.34375,90.28125,38.03125,0.0,0.0,0.0
1696258364585,-0.95214844,-0.080078125,0.051757812,40.71875,78.4375,7.46875,0.0,0.0,0.0
1696258364630,-0.83691406,0.064453125,0.3251953,38.09375,80.71875,-6.4375,0.0,0.0,0.0
1696258364664,-0.8027344,0.18945312,0.20898438,3.0625,92.71875,-3.28125,0.0,0.0,0.0
1696258364709,-0.8125,0.0126953125,-0.13964844,8.71875,82.78125,12.84375,0.0,0.0,0.0
1696258364765,-1.0546875,0.12890625,0.022460938,56.34375,66.0625,38.53125,0.0,0.0,0.0
1696258364787,-1.2792969,0.06347656,0.4013672,32.40625,35.25,17.15625,0.0,0.0,0.0
1696258364832,-1.1210938,0.07910156,0.11035156,-18.5,36.9375,-29.09375,0.0,0.0,0.0
1696258364866,-1.2744141,0.37402344,-0.19140625,-31.75,1.4375,-7.0625,-249.5625,-31.9375,79.0
1696258364911,-1.6914062,0.23046875,-0.19433594,-8.71875,-40.25,10.8125,0.0,0.0,0.0
1696258364945,-1.4208984,0.33007812,0.07421875,28.25,-50.03125,10.34375,0.0,0.0,0.0
1696258364990,-1.4179688,0.17285156,0.32910156,-19.96875,-119.84375,24.90625,0.0,0.0,0.0
1696258365024,-1.7275391,0.09277344,0.14941406,-66.53125,-194.1875,-46.1875,0.0,0.0,0.0
1696258365069,-1.4492188,-0.038085938,-0.02734375,23.0,-267.25,-108.75,0.0,0.0,0.0
1696258365125,-1.4384766,-0.06347656,-0.1953125,-41.625,-26.84375,-109.21875,0.0,0.0,0.0
1696258365147,-0.8847656,0.16113281,0.36914062,199.40625,-188.46875,-97.09375,0.0,0.0,0.0
1696258365226,-0.6201172,0.15332031,0.5253906,134.9375,-257.71875,4.09375,0.0,0.0,0.0
1696258365228,-0.36621094,0.08691406,0.27734375,68.78125,-174.40625,30.65625,0.0,0.0,0.0
1696258365271,-0.26660156,0.21191406,0.37304688,-27.03125,-116.0,17.0,0.0,0.0,0.0
1696258365305,-0.19238281,-0.0234375,0.28027344,7.0625,-89.21875,18.09375,0.0,0.0,0.0
1696258365350,0.111328125,0.080078125,0.5449219,18.5,-21.21875,14.375,0.0,0.0,0.0
1696258365395,0.045898438,-0.078125,0.6621094,-3.46875,93.09375,-13.03125,-2.875,42.8125,-184.5625
1696258365428,0.072265625,-0.049804688,0.7685547,-70.375,139.375,-37.46875,0.0,0.0,0.0
1696258365474,-1.9755859,0.23632812,1.0546875,-51.09375,-30.375,32.5625,0.0,0.0,0.0
1696258365507,-0.08984375,-0.076171875,0.37695312,-20.03125,81.0625,-16.8125,0.0,0.0,0.0
1696258365553,-0.86816406,0.10644531,0.86621094,28.75,61.25,-7.96875,0.0,0.0,0.0
1696258365586,-1.2109375,0.21582031,0.44921875,25.3125,89.9375,-7.65625,0.0,0.0,0.0
1696258365631,-1.9755859,-1.9794922,0.5419922,3.09375,72.84375,4.84375,0.0,0.0,0.0
1696258365665,-1.7275391,-0.6738281,0.22558594,-35.28125,127.875,69.28125,0.0,0.0,0.0
1696258365710,-1.1259766,-0.047851562,0.21875,-41.375,107.4375,73.5625,0.0,0.0,0.0
1696258365744,-0.85253906,-0.040039062,0.17675781,-35.21875,121.0,39.15625,0.0,0.0,0.0
1696258365788,-0.8564453,0.072265625,0.16113281,15.0625,103.59375,28.53125,0.0,0.0,0.0
1696258365834,-0.95703125,0.16894531,0.17382812,18.6875,85.09375,10.625,0.0,0.0,0.0
1696258365867,-0.8798828,0.15917969,0.1796875,39.25,72.53125,1.3125,-22.0625,43.8125,17.3125
1696258365913,-0.8828125,0.16796875,0.20996094,31.125,67.21875,4.65625,0.0,0.0,0.0
1696258365946,-0.9482422,0.21191406,0.21777344,4.15625,51.71875,10.9375,0.0,0.0,0.0
1696258365991,-0.9892578,0.07128906,0.22363281,-10.375,43.46875,11.8125,0.0,0.0,0.0
1696258366025,-0.9902344,-0.048828125,0.22851562,-6.34375,26.6875,9.90625,0.0,0.0,0.0
1696258366070,-1.0039062,0.0,0.15234375,6.53125,29.625,11.875,0.0,0.0,0.0
1696258366104,-0.9667969,0.2734375,0.056640625,0.125,58.0625,1.3125,0.0,0.0,0.0
1696258366149,-1.4179688,0.30664062,-0.0625,-17.53125,29.75,12.71875,0.0,0.0,0.0
1696258366194,-1.5195312,0.6152344,0.05078125,-20.21875,2.875,1.0,0.0,0.0,0.0
1696258366227,-1.3994141,0.42871094,0.16015625,-10.5,-38.3125,21.75,0.0,0.0,0.0
1696258366272,-1.4101562,0.3544922,0.50878906,-5.625,-97.15625,16.6875,0.0,0.0,0.0
1696258366307,-1.5498047,-0.030273438,0.36816406,-57.5,-177.09375,-58.15625,0.0,0.0,0.0
1696258366351,-1.1035156,0.11621094,0.22265625,-10.5,-235.15625,-127.90625,0.0,0.0,0.0
1696258366396,-1.2109375,-0.048828125,-0.18359375,0.4375,-46.25,-133.34375,-55.0625,-203.9375,243.5625
1696258366430,-0.7285156,0.32421875,0.13964844,228.28125,-205.53125,-99.15625,0.0,0.0,0.0
1696258366463,-0.7919922,0.17382812,0.56640625,121.53125,-210.90625,-14.6875,0.0,0.0,0.0
1696258366509,-0.39746094,0.2783203,0.25878906,65.3125,-206.28125,28.78125,0.0,0.0,0.0
1696258366554,-0.3876953,0.10449219,0.39160156,-25.8125,-137.125,26.3125,0.0,0.0,0.0
1696258366588,-0.21777344,-0.005859375,0.3408203,2.1875,-128.6875,27.71875,0.0,0.0,0.0
1696258366633,-0.0126953125,0.059570312,0.4189453,28.8125,-84.5625,32.5,0.0,0.0,0.0
1696258366666,-0.06933594,-0.036132812,0.42871094,13.65625,1.84375,2.21875,0.0,0.0,0.0
1696258366712,0.043945312,-0.04296875,0.7128906,-18.25,91.21875,-14.3125,0.0,0.0,0.0
1696258366745,-0.40625,-0.025390625,1.609375,-63.59375,123.125,-55.84375,0.0,0.0,0.0
1696258366790,-1.8359375,-0.3515625,1.3134766,-65.875,9.125,-7.0625,0.0,0.0,0.0
1696258366835,-0.12109375,-0.051757812,0.75390625,11.46875,68.875,-15.0625,0.0,0.0,0.0
1696258366869,-0.8935547,0.46875,0.8798828,38.3125,85.09375,16.25,-8.5625,41.0,-188.3125
1696258366925,-1.0058594,0.3984375,0.5986328,-6.59375,79.5,14.96875,0.0,0.0,0.0
1696258366947,-0.63378906,0.19238281,0.390625,-61.28125,120.25,39.5625,0.0,0.0,0.0
1696258366992,-0.85839844,-0.10546875,0.41210938,-64.6875,106.90625,55.5,0.0,0.0,0.0
1696258367026,-1.0058594,-0.10644531,0.42089844,-52.5,121.40625,49.21875,0.0,0.0,0.0
1696258367082,-0.9121094,0.04296875,0.31054688,-49.875,132.90625,45.4375,0.0,0.0,0.0
1696258367105,-0.7597656,0.16601562,0.2734375,-34.78125,110.875,38.15625,0.0,0.0,0.0
1696258367150,-1.03125,0.0087890625,0.14160156,2.9375,90.90625,25.03125,0.0,0.0,0.0
1696258367184,-0.95214844,0.026367188,0.16796875,28.125,69.65625,9.84375,0.0,0.0,0.0
1696258367229,-0.84277344,0.19238281,0.24511719,39.59375,52.4375,4.28125,0.0,0.0,0.0
1696258367274,-0.79785156,0.2890625,0.38671875,-8.90625,40.71875,9.53125,0.0,0.0,0.0
1696258367307,-0.9453125,0.06347656,0.23144531,-8.84375,20.15625,12.96875,0.0,0.0,0.0
1696258367352,-0.7988281,-0.20703125,0.33203125,-12.6875,27.0,11.4375,0.0,0.0,0.0
1696258367386,-1.2011719,-0.15722656,0.030273438,-0.75,69.0625,15.09375,102.75,146.5625,48.0625
1696258367431,-1.0302734,0.3515625,0.171875,48.875,82.25,26.03125,0.0,0.0,0.0
1696258367465,-1.4443359,0.60253906,0.32714844,-11.40625,90.21875,35.71875,0.0,0.0,0.0
1696258367510,-1.7441406,0.4873047,0.19140625,5.125,39.03125,-2.71875,0.0,0.0,0.0
1696258367544,-1.3095703,0.24902344,0.24609375,-11.1875,-57.40625,24.0625,0.0,0.0,0.0
1696258367589,-1.5273438,0.13964844,0.52734375,-8.4375,-154.15625,-1.6875,0.0,0.0,0.0
1696258367634,-1.3789062,0.045898438,0.25976562,-10.5,-239.0625,-129.6875,0.0,0.0,0.0
1696258367667,-1.2861328,0.24023438,-0.18652344,-12.28125,-221.78125,-130.34375,0.0,0.0,0.0
1696258367712,-1.0058594,0.38476562,0.018554688,-23.1875,-7.1875,-91.65625,0.0,0.0,0.0
1696258367746,-0.5439453,0.4482422,0.6611328,235.71875,-338.59375,16.375,0.0,0.0,0.0
1696258367791,-0.55371094,0.26953125,-0.0029296875,93.6875,-257.90625,82.40625,0.0,0.0,0.0
1696258367826,-1.1542969,-0.06933594,0.5107422,-59.5625,-128.8125,50.8125,0.0,0.0,0.0
1696258367870,-0.125,0.043945312,0.14453125,57.1875,-250.09375,67.84375,14.6875,56.875,-204.1875
1696258367904,-0.034179688,0.10644531,0.48046875,20.25,-114.59375,72.21875,0.0,0.0,0.0
1696258367949,0.17285156,0.1640625,0.46289062,3.28125,-67.65625,62.09375,0.0,0.0,0.0
1696258367994,0.22167969,-0.032226562,0.54296875,12.625,31.8125,34.4375,0.0,0.0,0.0
1696258368027,0.07910156,0.00390625,0.71875,-0.8125,165.125,5.28125,0.0,0.0,0.0
1696258368072,-0.3408203,0.11621094,1.4179688,-62.375,180.75,-9.9375,0.0,0.0,0.0
1696258368106,-0.4873047,-0.24511719,1.1953125,-2.125,127.09375,-20.96875,0.0,0.0,0.0
1696258368151,-1.9755859,1.65625,2.0146484,-56.09375,-67.84375,-61.9375,0.0,0.0,0.0
1696258368185,0.9970703,0.9404297,-0.115234375,63.53125,73.4375,15.9375,0.0,0.0,0.0
1696258368230,0.0087890625,0.7470703,0.3017578,-22.96875,34.375,63.3125,0.0,0.0,0.0
1696258368264,-1.2617188,0.6796875,0.7207031,-145.4375,115.875,36.40625,0.0,0.0,0.0
1696258368309,-1.5966797,0.2421875,0.47265625,-107.1875,113.65625,35.96875,0.0,0.0,0.0
1696258368354,-0.46289062,0.13671875,0.3076172,-109.5625,83.6875,21.0625,0.0,0.0,0.0
1696258368387,-0.8935547,0.09277344,0.41992188,-128.0,87.65625,38.03125,-17.125,28.5625,-194.4375
1696258368432,-1.9755859,-1.1669922,0.7089844,-139.46875,88.09375,44.6875,0.0,0.0,0.0
1696258368466,-1.2841797,-0.16210938,0.13476562,-152.03125,146.25,70.46875,0.0,0.0,0.0
1696258368511,-0.984375,-0.05078125,0.16601562,-178.46875,115.6875,59.71875,0.0,0.0,0.0
1696258368545,-1.3115234,-0.24121094,-0.005859375,-131.03125,118.6875,15.28125,0.0,0.0,0.0
1696258368590,-0.76464844,-0.08984375,0.11328125,-136.59375,127.46875,-14.15625,0.0,0.0,0.0
1696258368624,-0.97753906,-0.041015625,0.20800781,-94.3125,99.15625,33.71875,0.0,0.0,0.0
1696258368669,-0.8691406,0.06933594,0.2705078,-103.34375,76.3125,39.625,0.0,0.0,0.0
1696258368714,-0.8173828,-0.015625,0.01171875,-104.8125,62.15625,47.75,0.0,0.0,0.0
1696258368747,-0.5234375,-0.068359375,0.022460938,-91.5,69.96875,48.53125,0.0,0.0,0.0
1696258368793,-0.92089844,-0.3076172,-0.03125,-47.6875,118.125,51.40625,0.0,0.0,0.0
1696258368826,-1.1210938,-0.13183594,0.036132812,-48.59375,100.90625,35.1875,0.0,0.0,0.0
1696258368871,-1.4023438,0.28710938,0.30078125,-23.875,53.71875,31.8125,-90.0,35.75,-113.3125
1696258368906,-1.6425781,0.11621094,-0.08300781,-73.5625,1.1875,-20.25,0.0,0.0,0.0
1696258368950,-1.9677734,0.3984375,-0.03125,-53.90625,-37.21875,-12.875,0.0,0.0,0.0
1696258368995,-1.4150391,0.13085938,0.06933594,-93.625,-105.9375,-1.15625,0.0,0.0,0.0
1696258369029,-1.4326172,-0.0048828125,0.05078125,-80.25,-171.78125,-32.6875,0.0,0.0,0.0
1696258369073,-1.4814453,0.2529297,0.046875,-41.15625,-184.375,-64.375,0.0,0.0,0.0
1696258369107,-1.203125,0.3671875,0.052734375,-20.5625,-191.3125,-101.96875,0.0,0.0,0.0
1696258369152,-1.0742188,0.25585938,0.04296875,3.15625,-179.0,-97.5,0.0,0.0,0.0
1696258369186,-1.2871094,-0.0126953125,0.14648438,152.9375,-157.9375,-45.4375,0.0,0.0,0.0
1696258369231,-0.27929688,0.06640625,0.31933594,38.15625,-145.125,-4.0,0.0,0.0,0.0
1696258369265,-0.12207031,0.13476562,0.045898438,71.96875,-358.9375,20.78125,0.0,0.0,0.0
1696258369310,-0.52246094,-0.00390625,0.20117188,49.0625,-186.5625,60.1875,0.0,0.0,0.0
1696258369355,-0.29785156,-0.053710938,0.3310547,61.46875,-125.78125,74.3125,0.0,0.0,0.0
1696258369388,-0.048828125,0.06640625,0.3154297,52.5625,-51.90625,43.65625,-13.9375,32.4375,-192.625
1696258369434,-0.07128906,0.08496094,0.5205078,25.5,10.15625,7.40625,0.0,0.0,0.0
1696258369467,-0.07519531,0.2265625,0.6279297,-11.71875,70.53125,4.15625,0.0,0.0,0.0
1696258369512,-0.32226562,0.12890625,0.84277344,-53.46875,136.5,7.53125,0.0,0.0,0.0
1696258369546,-1.7207031,1.0332031,2.0146484,-78.875,-24.8125,24.75,0.0,0.0,0.0
1696258369591,-0.34960938,0.18261719,0.79296875,15.875,73.25,-79.75,0.0,0.0,0.0
1696258369626,0.056640625,-0.1015625,0.4892578,42.46875,51.84375,-5.59375,0.0,0.0,0.0
1696258369670,-1.4296875,0.61035156,0.8808594,41.0,121.90625,-3.65625,0.0,0.0,0.0
1696258369715,-0.7636719,0.453125,0.5283203,-3.25,83.75,0.4375,0.0,0.0,0.0
1696258369748,-0.49316406,0.26660156,0.20800781,-67.03125,107.0,30.96875,0.0,0.0,0.0
1696258369828,-0.98339844,-0.076171875,0.24707031,-74.28125,119.90625,49.28125,0.0,0.0,0.0
1696258369829,-1.0322266,-0.15820312,0.39941406,-67.5,115.625,42.5625,0.0,0.0,0.0
1696258369872,-0.7138672,0.07910156,0.3515625,-77.40625,104.9375,52.3125,10.1875,55.0625,-220.375
1696258369906,-0.8310547,0.10253906,0.29589844,-43.65625,89.875,54.21875,0.0,0.0,0.0
1696258369951,-1.1064453,0.03125,0.16601562,8.78125,79.375,38.90625,0.0,0.0,0.0
1696258369985,-0.93066406,0.005859375,0.23925781,22.46875,52.28125,16.8125,0.0,0.0,0.0
1696258370030,-0.9033203,0.14355469,0.36328125,25.6875,55.25,1.125,0.0,0.0,0.0
1696258370075,-0.90625,0.26367188,0.2998047,-11.59375,62.15625,0.9375,0.0,0.0,0.0
1696258370109,-0.8955078,0.16210938,0.15429688,1.34375,30.34375,19.78125,0.0,0.0,0.0
1696258370154,-0.9082031,0.026367188,0.2626953,-2.625,24.125,24.8125,0.0,0.0,0.0
1696258370187,-1.0585938,-0.1171875,0.31152344,-0.4375,52.28125,18.09375,0.0,0.0,0.0
1696258370255,-1.0878906,0.09277344,0.14648438,-14.84375,75.21875,7.03125,0.0,0.0,0.0
1696258370266,-1.4931641,0.2734375,0.01171875,-24.28125,56.34375,13.375,0.0,0.0,0.0
1696258370311,-1.7167969,0.93652344,0.041992188,23.4375,10.34375,12.09375,0.0,0.0,0.0
1696258370346,-1.3769531,0.24902344,0.38671875,2.0,-62.0,35.59375,0.0,0.0,0.0
1696258370390,-1.4140625,0.034179688,0.35839844,-7.75,-145.25,4.78125,-126.0,-60.6875,-201.5
1696258370435,-1.2773438,0.12988281,0.13671875,-43.65625,-210.5625,-126.5,0.0,0.0,0.0
1696258370469,-1.1806641,0.22460938,0.07519531,12.375,-195.0625,-134.625,0.0,0.0,0.0
1696258370514,-1.6044922,0.36523438,0.32128906,61.8125,-54.96875,-60.84375,0.0,0.0,0.0
1696258370547,-0.73535156,0.3544922,0.4169922,97.28125,-176.125,24.125,0.0,0.0,0.0
1696258370592,-0.44628906,0.2548828,0.20605469,61.46875,-220.25,76.75,0.0,0.0,0.0
1696258370626,-0.45214844,0.30273438,0.41796875,27.71875,-302.71875,80.21875,0.0,0.0,0.0
1696258370672,-0.40039062,-0.038085938,0.2578125,11.34375,-141.59375,63.375,0.0,0.0,0.0
1696258370706,-0.095703125,0.107421875,0.36914062,4.375,-135.53125,59.65625,0.0,0.0,0.0
1696258370751,0.13085938,0.17382812,0.3642578,-7.4375,-65.78125,44.5,0.0,0.0,0.0
1696258370796,0.0146484375,0.11425781,0.49316406,-5.9375,1.84375,28.53125,0.0,0.0,0.0
1696258370830,-0.14257812,0.17480469,0.7421875,-11.34375,51.90625,17.65625,0.0,0.0,0.0
1696258370874,-0.13476562,0.123046875,0.8828125,-23.5,101.15625,-4.0625,-12.625,31.25,-181.25
1696258370908,-0.29882812,0.033203125,1.1630859,-20.15625,144.0,-3.53125,0.0,0.0,0.0
1696258370953,-0.6640625,0.0107421875,1.6943359,-7.34375,80.78125,-2.96875,0.0,0.0,0.0
1696258370986,-1.0800781,0.73339844,1.96875,-26.0,-114.46875,-23.46875,0.0,0.0,0.0
1696258371032,0.095703125,0.53125,0.5996094,151.90625,0.875,8.1875,0.0,0.0,0.0
1696258371065,-0.26464844,0.63671875,0.89941406,37.53125,19.4375,-54.90625,0.0,0.0,0.0
1696258371110,-0.8173828,0.6933594,0.67871094,-56.53125,94.0,-61.6875,0.0,0.0,0.0
1696258371155,-0.8095703,0.48046875,0.43066406,-23.125,79.3125,3.8125,0.0,0.0,0.0
1696258371189,-0.5625,0.37597656,0.37402344,-89.0,85.53125,7.59375,0.0,0.0,0.0
1696258371234,-0.87890625,0.25097656,0.36914062,-106.9375,119.59375,-5.53125,0.0,0.0,0.0
1696258371267,-0.9785156,0.23632812,0.41503906,-128.53125,132.09375,13.15625,0.0,0.0,0.0
1696258371312,-0.9511719,0.033203125,0.43945312,-130.0625,109.28125,21.6875,0.0,0.0,0.0
1696258371346,0.9160156,1.0878906,0.36914062,-165.40625,110.125,-124.96875,0.0,0.0,0.0
1696258371391,-0.6826172,0.23144531,0.064453125,-174.75,162.625,25.59375,-0.125,15.5,-241.25
1696258371436,-0.9199219,0.06738281,0.25585938,-128.25,123.0625,34.8125,0.0,0.0,0.0
1696258371470,-1.0830078,-0.09667969,0.0126953125,-90.9375,127.9375,18.625,0.0,0.0,0.0
1696258371515,-0.6513672,0.20800781,0.080078125,-82.15625,123.3125,24.25,0.0,0.0,0.0
1696258371549,-0.8144531,-0.064453125,0.13085938,-53.84375,85.53125,38.15625,0.0,0.0,0.0
1696258371594,-0.9199219,-0.060546875,-0.115234375,-105.59375,102.8125,32.0,0.0,0.0,0.0
1696258371627,-1.0419922,-0.060546875,0.048828125,-36.875,91.03125,20.03125,0.0,0.0,0.0
1696258371672,-1.0205078,0.08105469,0.23535156,-41.25,53.4375,15.28125,0.0,0.0,0.0
1696258371706,-1.0185547,-0.045898438,-0.09765625,-65.0625,20.21875,0.75,0.0,0.0,0.0
1696258371751,-1.0859375,0.10644531,-0.18261719,-73.0,23.34375,3.125,0.0,0.0,0.0
1696258371785,-1.1162109,0.40039062,-0.025390625,-91.375,32.5,6.5,0.0,0.0,0.0
1696258371830,-1.5253906,0.3623047,-0.14648438,-130.625,3.0,20.34375,0.0,0.0,0.0
1696258371875,-1.5761719,0.2529297,0.055664062,-135.8125,-25.75,9.96875,-76.1875,7.8125,-130.25
1696258371909,-1.4453125,0.08300781,-0.017578125,-94.0,-60.15625,9.125,0.0,0.0,0.0
1696258371954,-1.2050781,0.046875,0.053710938,-117.3125,-118.8125,6.3125,0.0,0.0,0.0
1696258371987,-1.5166016,0.20214844,0.13085938,-120.125,-155.0,-23.46875,0.0,0.0,0.0
1696258372033,-1.3232422,0.23730469,0.083984375,-82.78125,-194.0,-59.84375,0.0,0.0,0.0
1696258372066,-0.9111328,0.6591797,-0.12597656,-92.46875,-140.25,-68.59375,0.0,0.0,0.0
1696258372111,-1.1035156,0.15039062,0.23535156,-54.6875,-71.6875,-81.40625,0.0,0.0,0.0
1696258372145,-1.1787109,-0.022460938,0.47558594,55.40625,-242.84375,-49.1875,0.0,0.0,0.0
1696258372190,-0.34570312,-0.030273438,0.22753906,27.40625,-220.25,-8.28125,0.0,0.0,0.0
1696258372235,-0.6748047,-0.053710938,0.40527344,111.375,-277.75,18.75,0.0,0.0,0.0
1696258372268,-0.26367188,0.025390625,0.25,64.875,-148.53125,28.59375,0.0,0.0,0.0
1696258372314,-0.080078125,0.08886719,0.46777344,36.625,-88.1875,23.875,0.0,0.0,0.0
1696258372347,-0.0068359375,-0.005859375,0.46972656,35.75,-18.28125,11.8125,0.0,0.0,0.0
1696258372392,0.087890625,0.0068359375,0.7285156,4.21875,89.125,-0.53125,-28.625,46.8125,-201.8125
1696258372426,-0.2783203,-0.08203125,1.1972656,-43.34375,123.125,-29.28125,0.0,0.0,0.0
1696258372471,-1.9755859,-0.17285156,1.4003906,-76.53125,-20.5625,5.75,0.0,0.0,0.0
1696258372516,-0.17285156,0.3203125,0.6611328,73.1875,47.8125,-12.75,0.0,0.0,0.0
1696258372550,-0.6503906,0.33203125,0.6669922,14.09375,110.25,7.84375,0.0,0.0,0.0
1696258372595,-1.1171875,0.43164062,0.5566406,-15.09375,102.6875,26.1875,0.0,0.0,0.0
1696258372629,-0.9121094,-0.06738281,0.4814453,-14.28125,64.46875,29.8125,0.0,0.0,0.0
1696258372674,-0.7080078,0.021484375,0.22558594,-73.0,137.90625,41.65625,0.0,0.0,0.0
1696258372707,-0.9941406,-0.017578125,0.3779297,-25.5625,104.09375,55.25,0.0,0.0,0.0
1696258372753,-0.92285156,0.20410156,0.265625,-80.5,113.25,52.9375,0.0,0.0,0.0
1696258372786,-0.765625,0.16699219,0.3779297,-24.0625,77.21875,46.84375,0.0,0.0,0.0
1696258372831,-0.9970703,0.022460938,0.17871094,-0.1875,78.875,27.53125,0.0,0.0,0.0
1696258372876,-1.0195312,0.12988281,0.21191406,40.46875,36.46875,12.90625,45.0,80.0,-244.125
1696258372910,-0.70214844,0.21191406,0.4638672,8.1875,33.15625,6.125,0.0,0.0,0.0
1696258372955,-0.9033203,0.1953125,0.29492188,-37.65625,42.125,17.53125,0.0,0.0,0.0
1696258372989,-0.98046875,0.052734375,0.19824219,-9.9375,37.0,13.9375,0.0,0.0,0.0
1696258373034,-1.0654297,-0.1015625,0.30566406,-0.5625,57.53125,29.0,0.0,0.0,0.0
1696258373067,-1.0664062,0.31445312,0.36523438,-16.25,80.71875,15.59375,0.0,0.0,0.0
1696258373112,-1.7197266,0.028320312,0.12890625,-10.375,66.4375,10.8125,0.0,0.0,0.0
1696258373146,-1.2939453,0.51464844,0.21972656,6.34375,37.375,8.6875,0.0,0.0,0.0
1696258373191,-1.2451172,0.2841797,0.3486328,10.6875,-25.375,30.96875,0.0,0.0,0.0
1696258373236,-1.3789062,0.22949219,0.4501953,32.40625,-78.65625,7.46875,0.0,0.0,0.0
1696258373270,-1.2958984,0.22851562,0.20507812,19.65625,-164.53125,-59.625,0.0,0.0,0.0
1696258373315,-1.0576172,0.24316406,0.091796875,51.09375,-189.1875,-98.4375,0.0,0.0,0.0
1696258373349,-0.8544922,0.23632812,-0.005859375,-57.0,-124.3125,-95.8125,0.0,0.0,0.0
1696258373394,-0.7089844,0.421875,0.16796875,25.4375,-128.34375,-41.0,78.0,99.0625,38.625
1696258373427,-0.8623047,0.10058594,0.52734375,-50.3125,-32.875,-19.5625,0.0,0.0,0.0
1696258373472,-0.71777344,-0.20410156,0.36914062,-28.75,-88.46875,-6.09375,0.0,0.0,0.0
1696258373506,-0.37109375,-0.07324219,0.34277344,110.40625,-284.65625,12.03125,0.0,0.0,0.0
1696258373551,-0.53808594,0.07128906,0.35546875,44.5,-123.9375,-8.53125,0.0,0.0,0.0
1696258373587,-0.1875,0.18652344,0.49121094,35.46875,-77.625,-7.5,0.0,0.0,0.0
1696258373630,-0.25097656,0.095703125,0.5996094,27.875,-20.375,-21.59375,0.0,0.0,0.0
1696258373675,-0.21679688,0.028320312,0.5292969,-9.65625,14.4375,-41.90625,0.0,0.0,0.0
1696258373708,-0.017578125,0.013671875,0.66796875,-47.375,94.125,-52.40625,0.0,0.0,0.0
1696258373753,-1.6337891,0.41796875,2.0146484,-95.40625,34.1875,-34.15625,0.0,0.0,0.0
1696258373787,-0.65722656,-0.119140625,0.6621094,1.9375,106.53125,-83.84375,0.0,0.0,0.0
1696258373832,-0.3857422,0.10058594,0.62890625,4.09375,1.78125,21.375,0.0,0.0,0.0
1696258373877,-1.0898438,0.076171875,0.7636719,71.28125,87.53125,8.25,-28.0625,43.6875,-218.3125
1696258373911,-0.6503906,0.62402344,0.70214844,4.75,78.6875,22.0,0.0,0.0,0.0
1696258373956,-0.74121094,0.13671875,0.4970703,-60.5,101.03125,44.34375,0.0,0.0,0.0
1696258373990,-0.984375,-0.15039062,0.35839844,-73.25,113.25,54.84375,0.0,0.0,0.0
1696258374035,-1.0947266,-0.2529297,0.29101562,-33.15625,96.46875,32.25,0.0,0.0,0.0
1696258374069,-0.47070312,-0.0029296875,0.38183594,-26.96875,140.40625,48.59375,0.0,0.0,0.0
1696258374113,-0.8574219,0.115234375,0.21582031,-20.21875,93.65625,43.96875,0.0,0.0,0.0
1696258374147,-1.0615234,0.2578125,0.18847656,-6.34375,80.46875,49.46875,0.0,0.0,0.0
1696258374192,-0.87890625,0.1796875,0.18847656,22.75,53.625,35.84375,0.0,0.0,0.0
1696258374226,-0.96777344,0.041992188,0.31640625,16.71875,54.90625,17.65625,0.0,0.0,0.0
1696258374271,-0.9501953,0.16601562,0.3359375,8.90625,49.875,1.78125,0.0,0.0,0.0
1696258374316,-0.86621094,0.19335938,0.26660156,-0.6875,37.125,6.3125,0.0,0.0,0.0
1696258374350,-0.9501953,0.032226562,0.21875,14.78125,23.03125,16.8125,0.0,0.0,0.0
1696258374395,-0.9003906,0.109375,0.18652344,12.5,36.09375,16.625,163.8125,207.3125,20.5
1696258374429,-1.1025391,0.29101562,0.20507812,1.78125,55.5,7.96875,0.0,0.0,0.0
1696258374473,-1.2490234,0.14160156,0.16015625,-3.0,51.84375,6.25,0.0,0.0,0.0
1696258374507,-1.2128906,0.38378906,0.13183594,-27.59375,26.8125,11.8125,0.0,0.0,0.0
1696258374552,-1.5517578,0.33691406,0.13476562,9.34375,-1.625,33.90625,0.0,0.0,0.0
1696258374586,-1.2275391,0.29589844,0.35546875,32.21875,-48.8125,24.1875,0.0,0.0,0.0
1696258374631,-1.4111328,0.35742188,0.5410156,0.4375,-103.96875,-3.46875,0.0,0.0,0.0
1696258374676,-1.1425781,0.1796875,0.4404297,-26.375,-141.8125,-70.40625,0.0,0.0,0.0
1696258374710,-0.5732422,0.61328125,-0.5390625,-58.34375,-113.6875,-106.5,0.0,0.0,0.0
1696258374789,-1.453125,-0.18554688,0.19140625,-47.3125,-52.84375,-97.6875,0.0,0.0,0.0
1696258374791,-0.6738281,0.7871094,0.17089844,110.71875,-205.96875,-80.0625,0.0,0.0,0.0
1696258374833,-0.95214844,0.11816406,0.6591797,87.40625,-156.40625,-4.0625,0.0,0.0,0.0
1696258374879,-0.66503906,0.11816406,0.38085938,48.46875,-233.625,45.125,159.4375,95.0,-246.0625
1696258374912,-0.98535156,0.10839844,0.5185547,23.75,-186.125,35.96875,0.0,0.0,0.0
1696258374946,-0.38183594,0.07519531,0.34765625,-1.46875,-157.5,9.59375,0.0,0.0,0.0
1696258374991,-0.3388672,0.103515625,0.46679688,24.46875,-100.3125,9.65625,0.0,0.0,0.0
1696258375036,-0.19921875,0.12597656,0.4111328,21.46875,-57.46875,-4.1875,0.0,0.0,0.0
1696258375070,-0.16894531,0.11621094,0.484375,-5.3125,3.8125,-28.25,0.0,0.0,0.0
1696258375115,0.11621094,-0.0078125,0.54003906,-29.78125,93.28125,-45.5,0.0,0.0,0.0
1696258375148,-0.31640625,0.12890625,1.5361328,-81.96875,111.15625,-15.71875,0.0,0.0,0.0
1696258375194,-1.3457031,-0.8457031,0.7167969,-94.0,-31.90625,-11.8125,0.0,0.0,0.0
1696258375227,-0.484375,0.0068359375,1.0400391,21.46875,26.3125,-25.625,0.0,0.0,0.0
1696258375272,-0.55371094,-0.28515625,0.75878906,34.46875,93.09375,-9.6875,0.0,0.0,0.0
1696258375306,-0.515625,0.5136719,0.86816406,40.59375,84.6875,-6.4375,0.0,0.0,0.0
1696258375351,-0.7060547,0.18261719,0.6503906,26.78125,86.625,-3.28125,0.0,0.0,0.0
1696258375396,-0.6982422,0.19433594,0.26367188,-12.34375,107.75,18.75,-27.625,47.125,-219.9375
1696258375430,-0.96777344,0.2578125,0.3486328,-30.40625,93.34375,42.4375,0.0,0.0,0.0
1696258375475,-1.0371094,-0.05078125,0.3466797,-38.28125,98.46875,32.1875,0.0,0.0,0.0
1696258375509,-0.80371094,0.021484375,0.30859375,-42.4375,113.5,32.84375,0.0,0.0,0.0
1696258375553,-0.7734375,0.16113281,0.28808594,-27.84375,103.90625,41.8125,0.0,0.0,0.0
1696258375587,-0.96972656,0.16601562,0.24511719,-13.8125,95.46875,40.0625,0.0,0.0,0.0
1696258375633,-0.97265625,0.0048828125,0.12597656,13.3125,90.96875,14.125,0.0,0.0,0.0
1696258375666,-0.9824219,0.12011719,0.16601562,56.6875,66.0,8.5,0.0,0.0,0.0
1696258375711,-0.8886719,0.30273438,0.28808594,42.53125,68.75,-4.3125,0.0,0.0,0.0
1696258375756,-0.79785156,0.3466797,0.29101562,-11.90625,64.0,4.09375,0.0,0.0,0.0
1696258375790,-0.97558594,0.07128906,0.103515625,-23.375,45.625,15.03125,0.0,0.0,0.0
1696258375835,-0.98339844,-0.076171875,0.125,-19.90625,28.9375,20.34375,0.0,0.0,0.0
1696258375869,-1.3027344,0.037109375,0.29492188,-7.625,25.21875,18.5,-6.125,87.9375,205.5625
1696258375913,-1.1005859,0.07910156,0.1171875,-18.3125,24.25,-10.90625,0.0,0.0,0.0
1696258375947,-1.5029297,0.44140625,-0.009765625,-34.96875,-12.1875,-23.78125,0.0,0.0,0.0
1696258375992,-1.4423828,0.3935547,0.0,-16.71875,-14.8125,6.84375,0.0,0.0,0.0
1696258376026,-1.2597656,0.2265625,0.41210938,58.53125,-59.1875,22.96875,0.0,0.0,0.0
1696258376071,-1.4082031,0.34277344,0.62109375,-50.78125,-111.125,-3.71875,0.0,0.0,0.0
1696258376116,-1.1425781,0.1875,0.22753906,-69.59375,-187.0,-67.1875,0.0,0.0,0.0
1696258376150,-1.3691406,-0.3251953,0.13964844,-100.03125,10.21875,-74.03125,0.0,0.0,0.0
1696258376195,-0.72753906,0.13085938,-0.14160156,137.5,-306.125,-129.0625,0.0,0.0,0.0
1696258376228,-0.703125,0.39257812,0.19335938,128.40625,-152.6875,-64.1875,0.0,0.0,0.0
1696258376274,-0.6621094,0.3564453,0.6386719,126.53125,-195.96875,32.6875,0.0,0.0,0.0
1696258376307,-0.66503906,0.20996094,0.49121094,34.78125,-176.90625,58.78125,0.0,0.0,0.0
1696258376352,-0.58496094,0.09765625,0.4375,-21.0,-128.6875,45.625,0.0,0.0,0.0
1696258376431,-0.42578125,0.08496094,0.49902344,-5.0625,-96.84375,24.5,-20.125,53.5625,-210.0625
1696258376433,-0.25390625,0.123046875,0.45898438,12.625,-63.5625,12.84375,0.0,0.0,0.0
1696258376476,-0.17578125,0.12109375,0.54589844,3.84375,-20.84375,-12.8125,0.0,0.0,0.0
1696258376510,-0.12402344,0.051757812,0.5996094,2.125,45.625,-29.34375,0.0,0.0,0.0
1696258376555,0.033203125,0.005859375,0.8857422,-38.6875,131.1875,-36.78125,0.0,0.0,0.0
1696258376589,-1.5869141,0.39160156,2.0146484,-82.09375,-29.21875,66.65625,0.0,0.0,0.0
1696258376633,-0.23925781,0.04296875,0.98828125,85.625,45.1875,8.1875,0.0,0.0,0.0
1696258376667,-0.4326172,-0.3408203,0.51171875,30.03125,27.5,-10.125,0.0,0.0,0.0
1696258376713,-0.8066406,0.38378906,0.8203125,46.9375,127.78125,-43.6875,0.0,0.0,0.0
1696258376746,-0.7236328,0.53027344,0.51171875,-6.53125,92.0,-42.59375,0.0,0.0,0.0
1696258376791,-0.75,0.15917969,0.32617188,-90.40625,118.0,0.4375,0.0,0.0,0.0
1696258376836,-0.98535156,0.10253906,0.32226562,-78.3125,104.21875,44.40625,0.0,0.0,0.0
1696258376870,-1.1035156,-0.11230469,0.36132812,-38.8125,91.875,37.1875,-9.0,57.625,-240.8125
1696258376915,-0.8105469,0.16796875,0.359375,-59.5,119.15625,30.21875,0.0,0.0,0.0
1696258376948,-0.65234375,0.30078125,0.3046875,-96.0,104.9375,48.84375,0.0,0.0,0.0
1696258376994,-1.0732422,-0.0087890625,0.18847656,-79.40625,75.71875,63.96875,0.0,0.0,0.0
1696258377038,-1.0478516,-0.26464844,0.0,-23.4375,76.4375,26.3125,0.0,0.0,0.0
1696258377072,-0.9501953,0.020507812,0.27441406,16.40625,60.5625,7.96875,0.0,0.0,0.0
1696258377106,-0.9345703,0.17871094,0.33789062,9.21875,70.8125,-4.9375,0.0,0.0,0.0
1696258377151,-0.9082031,0.19921875,0.1875,10.75,58.0,4.90625,0.0,0.0,0.0
1696258377196,-0.9785156,0.091796875,0.15136719,8.0,37.3125,13.4375,0.0,0.0,0.0
1696258377230,-0.9189453,0.026367188,0.13671875,5.0,41.40625,5.15625,0.0,0.0,0.0
1696258377286,-0.95996094,0.057617188,0.09375,6.46875,44.625,1.1875,0.0,0.0,0.0
1696258377308,-0.9296875,0.0234375,0.057617188,12.4375,50.8125,3.625,0.0,0.0,0.0
1696258377353,-0.84765625,0.095703125,-0.0029296875,11.71875,71.4375,11.625,0.0,0.0,0.0
1696258377398,-0.8691406,0.11230469,-0.12792969,19.84375,83.53125,17.96875,-104.6875,36.0625,-31.4375
1696258377432,-1.1347656,0.21777344,0.020507812,14.34375,65.375,22.125,0.0,0.0,0.0
1696258377466,-1.1494141,0.040039062,0.08203125,-12.625,30.71875,7.53125,0.0,0.0,0.0
1696258377511,-1.0078125,-0.02734375,-0.029296875,-35.15625,17.71875,5.4375,0.0,0.0,0.0
1696258377556,-1.3378906,0.20410156,-0.32128906,-45.84375,22.71875,15.03125,0.0,0.0,0.0
1696258377590,-1.5664062,0.484375,-0.17089844,16.09375,-5.78125,-16.9375,0.0,0.0,0.0
1696258377635,-1.2832031,0.38476562,0.09277344,-18.375,2.21875,17.78125,0.0,0.0,0.0
1696258377668,-1.3457031,0.10546875,-0.09863281,-77.09375,-20.4375,27.3125,0.0,0.0,0.0
1696258377713,-1.1611328,0.14453125,0.041015625,-72.03125,-60.84375,19.3125,0.0,0.0,0.0
1696258377747,-1.2773438,0.36523438,0.16894531,-68.96875,-108.75,-30.9375,0.0,0.0,0.0
1696258377792,-0.9472656,0.16992188,0.052734375,-86.3125,-133.34375,-107.59375,0.0,0.0,0.0
1696258377826,-1.4765625,0.08300781,0.11328125,-26.0625,-181.5625,-131.09375,0.0,0.0,0.0
1696258377871,-0.92871094,0.6621094,-0.38378906,118.71875,-149.21875,-78.96875,-78.625,-109.625,-92.0
1696258377916,-1.0068359,-0.064453125,0.46875,98.09375,-143.78125,-46.5,0.0,0.0,0.0
1696258377950,-0.921875,0.140625,0.359375,15.8125,-156.96875,-14.5,0.0,0.0,0.0
1696258377995,-0.7011719,0.25,0.22851562,4.09375,-110.75,-27.3125,0.0,0.0,0.0
1696258378029,-0.44335938,0.24609375,0.28320312,-26.75,-70.34375,-0.53125,0.0,0.0,0.0
1696258378074,-0.4580078,0.025390625,0.2763672,-50.40625,-41.78125,17.90625,0.0,0.0,0.0
1696258378107,-0.08984375,0.005859375,0.31445312,-46.8125,35.59375,45.0625,0.0,0.0,0.0
1696258378152,0.3720703,-0.09472656,0.24316406,-2.5,170.0,77.28125,0.0,0.0,0.0
1696258378186,-0.9560547,0.049804688,0.08300781,17.75,262.03125,91.21875,0.0,0.0,0.0
1696258378231,-1.9755859,0.11621094,-0.4736328,40.78125,-9.125,-115.03125,0.0,0.0,0.0
1696258378276,2.0234375,1.1357422,0.8251953,26.78125,186.65625,-49.84375,0.0,0.0,0.0
1696258378310,-1.9472656,-0.0390625,0.03125,-43.09375,-12.4375,112.3125,0.0,0.0,0.0
