# Sensor type: Thingy
# Activity type: Shuffle walking
# Activity subtype: Normal
# Subject id: s2106809
# Notes: unprocessed
timestamp,accel_x,accel_y,accel_z,gyro_x,gyro_y,gyro_z,mag_x,mag_y,mag_z
1696255033363,-0.98339844,-0.055664062,0.14648438,-13.875,1.15625,8.40625,0.0,0.0,0.0
1696255033399,-1.0117188,-0.046875,0.16113281,-20.78125,-8.40625,5.21875,0.0,0.0,0.0
1696255033442,-1.0195312,-0.0625,0.10253906,-19.6875,-18.4375,2.25,0.0,0.0,0.0
1696255033476,-0.984375,-0.11816406,0.07421875,-4.21875,-25.875,0.65625,0.0,0.0,0.0
1696255033521,-0.9628906,-0.07519531,0.11230469,10.34375,-29.46875,0.53125,-49.5,18.5,-233.875
1696255033577,-1.1044922,-0.07128906,0.21289062,14.875,-28.625,-4.90625,0.0,0.0,0.0
1696255033599,-1.1835938,-0.083984375,0.28320312,26.65625,-31.375,-16.375,0.0,0.0,0.0
1696255033644,-1.0410156,-0.08691406,0.2109375,31.96875,-43.46875,-31.59375,0.0,0.0,0.0
1696255033678,-0.95410156,-0.056640625,0.20605469,57.0,-51.03125,-33.65625,0.0,0.0,0.0
1696255033724,-0.8574219,-0.048828125,0.31933594,59.0,-40.21875,-21.625,0.0,0.0,0.0
1696255033757,-0.9091797,0.0068359375,0.26367188,41.53125,-24.09375,-12.0,0.0,0.0,0.0
1696255033802,-0.9199219,-0.055664062,0.2626953,26.65625,-17.09375,-13.5,0.0,0.0,0.0
1696255033836,-0.8984375,-0.036132812,0.32421875,5.40625,-5.78125,-18.28125,0.0,0.0,0.0
1696255033881,-0.8701172,-0.047851562,0.31835938,11.8125,1.34375,-14.78125,0.0,0.0,0.0
1696255033926,-0.8925781,-0.059570312,0.35058594,14.625,-0.4375,-10.34375,0.0,0.0,0.0
1696255033960,-0.86328125,-0.08105469,0.34960938,18.78125,0.25,-5.75,0.0,0.0,0.0
1696255034005,-0.86621094,-0.068359375,0.33691406,-4.78125,5.875,-6.125,0.0,0.0,0.0
1696255034041,-0.828125,-0.0068359375,0.3515625,-12.09375,14.21875,0.28125,-46.8125,14.4375,-219.375
1696255034106,-0.8388672,-0.053710938,0.4013672,2.84375,24.96875,8.21875,0.0,0.0,0.0
1696255034117,-1.0097656,-0.12695312,0.39648438,-2.78125,20.8125,15.40625,0.0,0.0,0.0
1696255034162,-1.5205078,-0.29003906,0.26464844,-2.65625,6.46875,17.625,0.0,0.0,0.0
1696255034196,-0.91503906,-0.12597656,0.23242188,-7.65625,6.59375,-17.78125,0.0,0.0,0.0
1696255034241,-0.6484375,0.005859375,0.24902344,-1.78125,26.96875,-17.71875,0.0,0.0,0.0
1696255034286,-1.0566406,-0.14160156,0.24804688,21.53125,24.46875,-1.1875,0.0,0.0,0.0
1696255034320,-1.0058594,-0.14746094,0.21875,5.90625,13.125,-0.75,0.0,0.0,0.0
1696255034365,-0.9169922,-0.14257812,0.19238281,6.15625,12.875,3.21875,0.0,0.0,0.0
1696255034399,-0.96777344,-0.15039062,0.22460938,6.5,19.34375,-4.78125,0.0,0.0,0.0
1696255034443,-0.9951172,-0.15722656,0.17285156,4.75,20.875,-6.84375,0.0,0.0,0.0
1696255034477,-0.96972656,-0.12890625,0.17382812,0.84375,17.8125,-4.53125,0.0,0.0,0.0
1696255034522,-0.9736328,-0.13964844,0.171875,-5.34375,14.46875,-2.9375,-46.8125,14.125,-226.25
1696255034556,-0.9765625,-0.13476562,0.16210938,-6.5625,9.53125,-1.84375,0.0,0.0,0.0
1696255034601,-0.99902344,-0.12109375,0.14746094,-9.53125,5.625,0.09375,0.0,0.0,0.0
1696255034646,-0.98046875,-0.11035156,0.11035156,-15.34375,2.1875,1.6875,0.0,0.0,0.0
1696255034680,-0.9814453,-0.14160156,0.103515625,-21.25,0.0625,3.34375,0.0,0.0,0.0
1696255034724,-0.9970703,-0.19433594,0.10644531,-24.0,-2.875,1.625,0.0,0.0,0.0
1696255034758,-0.9746094,-0.21679688,0.091796875,-20.65625,-5.1875,-0.6875,0.0,0.0,0.0
1696255034803,-0.95996094,-0.21875,0.16796875,-19.90625,-5.125,-2.46875,0.0,0.0,0.0
1696255034837,-0.98535156,-0.21386719,0.17871094,-18.46875,-4.03125,-0.625,0.0,0.0,0.0
1696255034882,-0.96777344,-0.16796875,0.14746094,-10.40625,-4.75,-0.28125,0.0,0.0,0.0
1696255034916,-0.9716797,-0.14746094,0.16113281,-15.59375,-5.25,0.46875,0.0,0.0,0.0
1696255034961,-1.0009766,-0.1796875,0.12402344,-18.40625,-5.5,4.125,0.0,0.0,0.0
1696255035006,-0.9863281,-0.18652344,0.111328125,-13.6875,-3.90625,6.5625,0.0,0.0,0.0
1696255035040,-1.0019531,-0.20605469,0.103515625,-12.09375,5.3125,9.9375,-46.8125,14.125,-228.1875
1696255035085,-1.0,-0.18261719,0.107421875,-12.15625,10.0,8.9375,0.0,0.0,0.0
1696255035118,-0.96875,-0.16503906,0.12890625,-10.15625,10.5625,8.53125,0.0,0.0,0.0
1696255035163,-0.9638672,-0.13574219,0.15136719,-7.09375,11.71875,12.1875,0.0,0.0,0.0
1696255035197,-0.98339844,-0.10546875,0.16992188,-16.4375,9.9375,16.21875,0.0,0.0,0.0
1696255035242,-0.99609375,-0.19140625,0.12792969,-23.40625,3.34375,15.90625,0.0,0.0,0.0
1696255035287,-0.95410156,-0.25976562,0.095703125,-17.0625,3.3125,9.75,0.0,0.0,0.0
1696255035321,-0.97265625,-0.18652344,0.0859375,-7.96875,10.0625,13.15625,0.0,0.0,0.0
1696255035366,-0.98339844,-0.103515625,0.140625,-2.71875,10.4375,13.71875,0.0,0.0,0.0
1696255035399,-0.9814453,-0.051757812,0.15332031,-8.875,6.03125,16.9375,0.0,0.0,0.0
1696255035445,-1.0175781,-0.051757812,0.1171875,-15.84375,-4.15625,16.15625,0.0,0.0,0.0
1696255035478,-1.0,-0.068359375,0.11816406,-14.25,-10.625,11.03125,0.0,0.0,0.0
1696255035524,-0.9814453,-0.095703125,0.125,-7.40625,-11.53125,7.71875,-48.3125,18.3125,-232.375
1696255035557,-0.9921875,-0.08105469,0.140625,-2.21875,-13.25,7.3125,0.0,0.0,0.0
1696255035624,-1.0429688,-0.05859375,0.16894531,9.375,-19.15625,4.0625,0.0,0.0,0.0
1696255035636,-1.09375,-0.0546875,0.2109375,20.84375,-21.3125,-2.71875,0.0,0.0,0.0
1696255035681,-1.0605469,-0.07421875,0.23632812,22.25,-30.21875,-10.75,0.0,0.0,0.0
1696255035728,-0.97558594,-0.045898438,0.20703125,20.65625,-37.46875,-19.0625,0.0,0.0,0.0
1696255035760,-0.9326172,0.009765625,0.23046875,24.9375,-29.28125,-17.40625,0.0,0.0,0.0
1696255035805,-0.93652344,0.038085938,0.23046875,22.25,-22.59375,-6.96875,0.0,0.0,0.0
1696255035838,-0.97265625,0.022460938,0.22460938,23.71875,-24.90625,-1.71875,0.0,0.0,0.0
1696255035884,-0.9736328,-0.09375,0.29101562,24.09375,-19.53125,-6.96875,0.0,0.0,0.0
1696255035917,-0.95996094,-0.109375,0.3017578,14.0625,-7.5625,-20.40625,0.0,0.0,0.0
1696255035962,-0.94140625,-0.0625,0.28320312,21.34375,-8.375,-22.25,0.0,0.0,0.0
1696255035996,-0.9375,-0.041015625,0.2998047,32.21875,-11.03125,-19.75,0.0,0.0,0.0
1696255036041,-0.9042969,-0.052734375,0.29785156,32.28125,-11.34375,-12.15625,-49.1875,13.8125,-222.625
1696255036086,-0.9091797,-0.017578125,0.2998047,21.65625,-11.03125,-9.25,0.0,0.0,0.0
1696255036120,-0.9013672,-0.043945312,0.32617188,19.6875,-3.71875,-8.5625,0.0,0.0,0.0
1696255036165,-0.8457031,-0.0390625,0.34277344,3.6875,7.4375,-7.09375,0.0,0.0,0.0
1696255036198,-0.89941406,-0.03515625,0.30664062,-8.875,18.5625,-3.3125,0.0,0.0,0.0
1696255036243,-0.9111328,-0.049804688,0.2705078,-6.1875,19.96875,-1.5,0.0,0.0,0.0
1696255036278,-1.0449219,-0.052734375,0.32910156,-12.21875,23.8125,1.4375,0.0,0.0,0.0
1696255036322,-1.3466797,-0.15722656,0.3388672,-15.15625,13.125,0.46875,0.0,0.0,0.0
1696255036356,-0.83203125,-0.03125,0.2607422,-15.53125,11.28125,-3.5625,0.0,0.0,0.0
1696255036401,-0.7910156,-0.13964844,0.31347656,4.8125,8.125,-0.875,0.0,0.0,0.0
1696255036447,-0.9316406,-0.21191406,0.22949219,2.34375,27.28125,3.53125,0.0,0.0,0.0
1696255036480,-1.0517578,-0.13476562,0.19238281,-0.8125,20.875,-1.25,0.0,0.0,0.0
1696255036525,-0.96972656,-0.045898438,0.17089844,-4.65625,18.9375,-5.5625,-48.125,15.3125,-225.625
1696255036558,-0.9433594,0.0029296875,0.17089844,-4.21875,19.59375,-0.5,0.0,0.0,0.0
1696255036607,-0.9980469,-0.11621094,0.1171875,-12.78125,16.3125,6.8125,0.0,0.0,0.0
1696255036637,-0.99121094,-0.12011719,0.10449219,-26.3125,10.9375,3.5625,0.0,0.0,0.0
1696255036683,-0.9785156,-0.18457031,0.109375,-26.8125,6.78125,0.03125,0.0,0.0,0.0
1696255036716,-0.96972656,-0.20703125,0.08984375,-19.5,7.21875,-3.4375,0.0,0.0,0.0
1696255036761,-0.9746094,-0.24121094,0.1171875,-13.375,9.15625,-2.28125,0.0,0.0,0.0
1696255036806,-0.9941406,-0.21777344,0.083984375,-10.40625,13.78125,3.40625,0.0,0.0,0.0
1696255036842,-1.0009766,-0.10058594,0.057617188,-9.375,14.71875,2.0,0.0,0.0,0.0
1696255036884,-1.0048828,-0.045898438,0.09277344,-18.03125,6.71875,2.125,0.0,0.0,0.0
1696255036918,-1.015625,-0.107421875,0.055664062,-26.28125,1.78125,4.90625,0.0,0.0,0.0
1696255036963,-0.9892578,-0.18847656,0.030273438,-21.5625,2.125,4.625,0.0,0.0,0.0
1696255036997,-0.9824219,-0.21679688,0.0048828125,-10.21875,8.0,1.5,0.0,0.0,0.0
1696255037042,-0.9902344,-0.12792969,0.0625,3.65625,6.34375,-0.03125,-49.0625,15.5,-232.6875
1696255037075,-1.0058594,-0.09375,0.09863281,-8.75,2.25,3.75,0.0,0.0,0.0
1696255037121,-1.0244141,-0.10253906,0.07128906,-16.3125,-3.1875,7.25,0.0,0.0,0.0
1696255037166,-0.95703125,-0.12597656,0.061523438,-14.96875,-1.21875,9.9375,0.0,0.0,0.0
1696255037200,-0.9921875,-0.20117188,0.059570312,-2.78125,2.8125,11.5,0.0,0.0,0.0
1696255037244,-1.0175781,-0.21582031,0.0703125,-4.53125,5.3125,7.96875,0.0,0.0,0.0
1696255037279,-0.984375,-0.15820312,0.05859375,-7.46875,2.625,9.9375,0.0,0.0,0.0
1696255037323,-1.0,-0.06542969,0.056640625,-0.9375,4.21875,13.09375,0.0,0.0,0.0
1696255037357,-0.9628906,-0.009765625,0.13671875,-1.125,3.40625,13.21875,0.0,0.0,0.0
1696255037402,-0.98828125,-0.09472656,0.09863281,-11.875,3.1875,11.375,0.0,0.0,0.0
1696255037447,-1.0205078,-0.09375,0.025390625,-12.84375,4.6875,10.21875,0.0,0.0,0.0
1696255037481,-1.0068359,-0.060546875,0.07421875,-3.25,-4.46875,9.5625,0.0,0.0,0.0
1696255037526,-1.0205078,-0.053710938,0.09863281,-3.25,-9.15625,8.53125,-51.4375,18.625,-234.0625
1696255037560,-1.0410156,-0.06738281,0.13378906,-2.03125,-18.4375,5.46875,0.0,0.0,0.0
1696255037605,-0.99121094,-0.09472656,0.18457031,12.90625,-38.09375,-0.75,0.0,0.0,0.0
1696255037638,-1.0966797,-0.14941406,0.24609375,26.28125,-56.625,-12.59375,0.0,0.0,0.0
1696255037683,-1.0537109,-0.08300781,0.28125,48.25,-47.53125,-19.5,0.0,0.0,0.0
1696255037718,-0.94140625,-0.017578125,0.16699219,73.21875,-49.0625,-22.3125,0.0,0.0,0.0
1696255037762,-0.921875,-0.12011719,0.18652344,67.53125,-32.84375,-30.84375,0.0,0.0,0.0
1696255037796,-0.8955078,-0.091796875,0.3046875,28.90625,-20.09375,-38.28125,0.0,0.0,0.0
1696255037841,-1.0039062,0.0029296875,0.23242188,30.9375,-14.03125,-28.71875,0.0,0.0,0.0
1696255037897,-0.9345703,-0.03515625,0.24609375,20.71875,-12.8125,-21.6875,0.0,0.0,0.0
1696255037919,-0.91503906,-0.030273438,0.26660156,3.03125,-4.28125,-14.96875,0.0,0.0,0.0
1696255037964,-0.88964844,-0.02734375,0.3251953,7.71875,-1.71875,-7.34375,0.0,0.0,0.0
1696255037999,-0.91015625,-0.07421875,0.32910156,14.8125,-1.28125,-1.625,-49.375,14.75,-218.3125
1696255038043,-0.88964844,-0.09765625,0.33691406,13.84375,2.5,-2.28125,0.0,0.0,0.0
1696255038077,-0.92285156,-0.049804688,0.2607422,38.1875,4.625,0.84375,0.0,0.0,0.0
1696255038122,-0.9013672,-0.12207031,0.4013672,3.28125,11.21875,-4.40625,0.0,0.0,0.0
1696255038156,-0.91308594,-0.06640625,0.2841797,-9.25,12.21875,-2.40625,0.0,0.0,0.0
1696255038201,-0.8730469,-0.0703125,0.25878906,10.71875,13.75,1.875,0.0,0.0,0.0
1696255038248,-1.0986328,-0.123046875,0.2626953,-7.71875,6.09375,5.65625,0.0,0.0,0.0
1696255038280,-1.2753906,-0.07910156,0.1640625,10.96875,18.375,-4.0625,0.0,0.0,0.0
1696255038324,-0.83203125,0.016601562,0.3330078,15.46875,23.0625,-12.09375,0.0,0.0,0.0
1696255038360,-0.87890625,-0.028320312,0.22851562,-2.34375,18.125,6.75,0.0,0.0,0.0
1696255038403,-1.0039062,-0.13378906,0.2607422,3.9375,16.84375,8.71875,0.0,0.0,0.0
1696255038437,-0.97265625,-0.21582031,0.21679688,-5.75,19.46875,2.59375,0.0,0.0,0.0
1696255038482,-0.984375,-0.17773438,0.19238281,-2.09375,13.96875,-4.46875,0.0,0.0,0.0
1696255038527,-0.9707031,-0.107421875,0.21484375,2.84375,17.8125,-7.34375,-49.9375,15.625,-225.0625
1696255038561,-0.9921875,-0.107421875,0.15039062,-3.25,17.28125,-4.71875,0.0,0.0,0.0
1696255038606,-0.9921875,-0.083984375,0.095703125,-6.0625,8.25,-1.0,0.0,0.0,0.0
1696255038640,-0.9560547,-0.13769531,0.17773438,-2.53125,0.84375,-2.09375,0.0,0.0,0.0
1696255038685,-0.9638672,-0.17382812,0.115234375,-12.15625,2.125,1.125,0.0,0.0,0.0
1696255038718,-0.9970703,-0.14648438,0.10253906,-11.625,5.96875,2.1875,0.0,0.0,0.0
1696255038764,-1.0068359,-0.13671875,0.12207031,-13.6875,2.6875,0.90625,0.0,0.0,0.0
1696255038797,-0.9589844,-0.12597656,0.13183594,-17.125,4.59375,0.96875,0.0,0.0,0.0
1696255038844,-1.0068359,-0.18359375,0.09082031,-25.46875,7.5625,5.09375,0.0,0.0,0.0
1696255038887,-0.98535156,-0.15625,0.10058594,-22.40625,11.59375,2.125,0.0,0.0,0.0
1696255038921,-1.0009766,-0.15722656,0.099609375,-17.59375,10.5625,2.34375,0.0,0.0,0.0
1696255038966,-1.0039062,-0.14746094,0.1171875,-16.0625,1.21875,1.125,0.0,0.0,0.0
1696255039000,-0.9873047,-0.13085938,0.049804688,-18.5,-1.9375,2.0625,-49.5,14.875,-228.8125
1696255039056,-0.9902344,-0.13476562,0.11230469,-18.9375,-4.46875,3.53125,0.0,0.0,0.0
1696255039079,-0.984375,-0.14160156,0.09667969,-19.5625,-1.78125,5.53125,0.0,0.0,0.0
1696255039124,-0.9814453,-0.13378906,0.07519531,-15.78125,3.78125,10.0,0.0,0.0,0.0
1696255039157,-1.0117188,-0.18652344,0.0703125,-15.65625,3.125,12.125,0.0,0.0,0.0
1696255039202,-0.96875,-0.16699219,0.09082031,-16.875,8.1875,7.375,0.0,0.0,0.0
1696255039247,-0.9794922,-0.16015625,0.083984375,-9.40625,7.25,11.09375,0.0,0.0,0.0
1696255039281,-0.98046875,-0.14550781,0.08105469,-9.90625,8.5,12.5,0.0,0.0,0.0
1696255039326,-1.0048828,-0.13476562,0.0859375,-13.8125,6.78125,12.5625,0.0,0.0,0.0
1696255039360,-1.0136719,-0.06347656,0.12695312,-10.75,6.65625,9.6875,0.0,0.0,0.0
1696255039416,-0.9667969,-0.0546875,0.13964844,-11.0625,4.46875,9.8125,0.0,0.0,0.0
1696255039438,-0.9785156,-0.1328125,0.12988281,-9.96875,4.40625,15.28125,0.0,0.0,0.0
1696255039484,-1.0068359,-0.12792969,0.06640625,-10.59375,4.9375,16.9375,0.0,0.0,0.0
1696255039517,-1.0039062,-0.09277344,0.055664062,-2.59375,2.9375,12.6875,-50.125,19.375,-233.0
1696255039562,-0.9902344,-0.07324219,0.099609375,-2.84375,-2.8125,7.78125,0.0,0.0,0.0
1696255039607,-0.9824219,-0.08105469,0.14453125,3.28125,-14.03125,5.40625,0.0,0.0,0.0
1696255039641,-0.9785156,-0.08300781,0.15136719,13.09375,-24.71875,-1.125,0.0,0.0,0.0
1696255039720,-1.0117188,-0.06347656,0.17871094,13.15625,-32.21875,-9.78125,0.0,0.0,0.0
1696255039722,-1.0488281,-0.049804688,0.15625,11.15625,-35.59375,-19.90625,0.0,0.0,0.0
1696255039764,-1.1416016,-0.041992188,0.12792969,16.8125,-37.46875,-27.96875,0.0,0.0,0.0
1696255039799,-1.1484375,0.041992188,0.171875,54.53125,-36.4375,-35.1875,0.0,0.0,0.0
1696255039843,-0.9638672,0.032226562,0.2529297,73.65625,-48.21875,-25.90625,0.0,0.0,0.0
1696255039877,-0.9560547,0.10644531,0.20605469,63.5625,-50.0,-7.40625,0.0,0.0,0.0
1696255039922,-0.9267578,0.020507812,0.23339844,34.34375,-32.21875,0.71875,0.0,0.0,0.0
1696255039967,-0.8984375,0.001953125,0.20214844,3.53125,-10.0,-6.375,0.0,0.0,0.0
1696255040001,-0.86035156,0.047851562,0.23828125,-2.15625,7.03125,-12.0625,-49.0625,17.3125,-218.625
1696255040046,-0.84472656,0.0078125,0.23242188,-4.96875,23.625,-8.625,0.0,0.0,0.0
1696255040080,-0.9140625,-0.060546875,0.21972656,-10.6875,39.625,-5.5625,0.0,0.0,0.0
1696255040125,-1.0224609,-0.080078125,0.26171875,-2.03125,23.875,-1.0625,0.0,0.0,0.0
1696255040158,-1.03125,-0.06347656,0.28808594,-2.71875,0.3125,0.65625,0.0,0.0,0.0
1696255040203,-1.1279297,-0.05078125,0.17285156,-19.0,7.3125,-4.84375,0.0,0.0,0.0
1696255040237,-0.9169922,0.080078125,0.22265625,-12.15625,17.46875,7.25,0.0,0.0,0.0
1696255040282,-0.95996094,-0.07324219,0.32421875,-13.21875,-2.4375,2.40625,0.0,0.0,0.0
1696255040327,-1.0019531,-0.24804688,0.23339844,-18.6875,7.375,-1.90625,0.0,0.0,0.0
1696255040364,-0.8925781,-0.24023438,0.19824219,-4.125,10.9375,-11.25,0.0,0.0,0.0
1696255040406,-0.9609375,-0.23144531,0.18457031,0.46875,13.125,-10.53125,0.0,0.0,0.0
1696255040440,-0.9970703,-0.12890625,0.2109375,0.59375,11.40625,-7.15625,0.0,0.0,0.0
1696255040485,-0.95214844,-0.09863281,0.1796875,-1.25,11.125,-3.3125,0.0,0.0,0.0
1696255040522,-0.9746094,-0.125,0.119140625,-8.8125,14.59375,2.59375,-47.5625,14.4375,-225.1875
1696255040563,-1.0058594,-0.14941406,0.13671875,-13.625,11.53125,3.75,0.0,0.0,0.0
1696255040597,-0.9707031,-0.16015625,0.14648438,-14.125,10.0625,1.5,0.0,0.0,0.0
1696255040642,-0.9824219,-0.18847656,0.13476562,-18.34375,12.6875,0.71875,0.0,0.0,0.0
1696255040687,-0.9873047,-0.21289062,0.1171875,-15.15625,9.78125,3.15625,0.0,0.0,0.0
1696255040721,-0.9716797,-0.203125,0.107421875,-12.03125,9.28125,4.625,0.0,0.0,0.0
1696255040766,-0.9814453,-0.23925781,0.13183594,-8.6875,12.8125,5.09375,0.0,0.0,0.0
1696255040800,-0.9824219,-0.15820312,0.0625,-5.75,18.5625,1.9375,0.0,0.0,0.0
1696255040845,-1.0068359,-0.1015625,0.095703125,-1.71875,13.3125,1.0,0.0,0.0,0.0
1696255040878,-1.0136719,-0.07714844,0.080078125,-9.46875,3.0,1.8125,0.0,0.0,0.0
1696255040934,-0.9892578,-0.10546875,0.059570312,-14.90625,-8.40625,2.34375,0.0,0.0,0.0
1696255040957,-0.99121094,-0.1328125,0.0703125,-19.78125,-12.4375,1.75,0.0,0.0,0.0
1696255041008,-0.99316406,-0.15039062,0.029296875,-18.40625,-7.625,0.40625,-48.625,15.8125,-231.625
1696255041048,-0.9970703,-0.16699219,0.0087890625,-6.125,-2.875,3.46875,0.0,0.0,0.0
1696255041082,-0.96972656,-0.13769531,0.076171875,-7.84375,2.6875,4.96875,0.0,0.0,0.0
1696255041126,-1.0185547,-0.10253906,0.07714844,-9.1875,3.1875,11.09375,0.0,0.0,0.0
1696255041160,-0.9765625,-0.11425781,0.099609375,-11.875,0.25,9.9375,0.0,0.0,0.0
1696255041205,-0.9765625,-0.19921875,0.0859375,-16.375,1.03125,10.40625,0.0,0.0,0.0
1696255041238,-1.0097656,-0.19921875,0.07421875,-3.625,3.40625,9.5,0.0,0.0,0.0
1696255041283,-0.9667969,-0.12109375,0.103515625,-5.625,6.15625,10.09375,0.0,0.0,0.0
1696255041317,-0.9970703,-0.07324219,0.09765625,-8.3125,5.25,14.625,0.0,0.0,0.0
1696255041362,-0.9765625,-0.091796875,0.07910156,-3.375,8.4375,15.71875,0.0,0.0,0.0
1696255041407,-1.0068359,-0.1171875,0.087890625,-9.65625,4.75,15.65625,0.0,0.0,0.0
1696255041441,-1.0107422,-0.076171875,0.078125,-11.5,-1.09375,12.0625,0.0,0.0,0.0
1696255041486,-0.97265625,-0.0625,0.032226562,-9.375,-1.59375,9.3125,0.0,0.0,0.0
1696255041520,-0.9892578,-0.056640625,0.01171875,-5.40625,-0.84375,12.1875,-50.375,21.1875,-232.375
1696255041564,-1.046875,-0.02734375,0.016601562,-4.40625,0.90625,15.28125,0.0,0.0,0.0
1696255041598,-1.0517578,0.01171875,0.072265625,-3.4375,4.625,14.6875,0.0,0.0,0.0
1696255041643,-1.0361328,0.0126953125,0.083984375,-3.375,2.9375,10.90625,0.0,0.0,0.0
1696255041680,-1.0332031,0.020507812,0.09863281,-1.90625,-6.78125,7.90625,0.0,0.0,0.0
1696255041722,-1.0361328,0.0234375,0.11425781,6.5,-21.0625,3.53125,0.0,0.0,0.0
1696255041767,-1.0097656,-0.0068359375,0.15332031,8.03125,-33.4375,-6.375,0.0,0.0,0.0
1696255041808,-1.0107422,-0.053710938,0.25878906,11.5625,-42.71875,-16.125,0.0,0.0,0.0
1696255041847,-1.0166016,-0.091796875,0.22558594,29.34375,-52.71875,-22.84375,0.0,0.0,0.0
1696255041879,-0.99121094,-0.068359375,0.22753906,51.125,-50.46875,-27.3125,0.0,0.0,0.0
1696255041925,-0.9423828,-0.0087890625,0.22753906,38.0,-43.40625,-22.59375,0.0,0.0,0.0
1696255041958,-0.93066406,0.0087890625,0.2529297,13.34375,-29.96875,-24.0,0.0,0.0,0.0
1696255042003,-0.92089844,-0.025390625,0.25585938,7.0625,-18.8125,-23.78125,-48.625,19.375,-222.8125
1696255042037,-0.89453125,-0.0078125,0.26660156,1.375,-6.59375,-24.75,0.0,0.0,0.0
1696255042082,-0.81640625,-0.01171875,0.21777344,10.96875,10.9375,-20.59375,0.0,0.0,0.0
1696255042127,-0.7597656,-0.051757812,0.23925781,20.25,20.875,-13.625,0.0,0.0,0.0
1696255042161,-0.7988281,-0.04296875,0.2783203,7.25,29.46875,-5.28125,0.0,0.0,0.0
1696255042206,-1.1210938,-0.11621094,0.31347656,-1.71875,23.8125,4.3125,0.0,0.0,0.0
1696255042240,-1.6005859,-0.27148438,0.22949219,11.15625,-4.9375,-1.84375,0.0,0.0,0.0
1696255042285,-0.76953125,0.115234375,0.080078125,14.6875,8.71875,-9.59375,0.0,0.0,0.0
1696255042318,-0.7265625,0.087890625,0.25390625,29.28125,12.28125,4.0625,0.0,0.0,0.0
1696255042364,-1.0839844,-0.20996094,0.28027344,26.96875,12.4375,3.34375,0.0,0.0,0.0
1696255042465,-1.0341797,-0.14941406,0.19726562,0.21875,26.625,-4.125,0.0,0.0,0.0
1696255042466,-0.9580078,-0.056640625,0.18847656,4.625,13.6875,-3.375,0.0,0.0,0.0
1696255042487,-0.984375,-0.045898438,0.20703125,9.25,14.71875,-1.5625,0.0,0.0,0.0
1696255042520,-0.9970703,-0.053710938,0.16796875,-3.9375,15.6875,-0.6875,-49.1875,17.125,-226.6875
1696255042566,-0.9951172,-0.08691406,0.12695312,-24.125,8.375,0.96875,0.0,0.0,0.0
1696255042599,-0.98828125,-0.12597656,0.15625,-25.09375,5.8125,0.65625,0.0,0.0,0.0
1696255042646,-0.9628906,-0.16894531,0.1328125,-23.6875,7.09375,2.65625,0.0,0.0,0.0
1696255042678,-0.99121094,-0.16210938,0.083984375,-26.15625,11.34375,-1.25,0.0,0.0,0.0
1696255042723,-0.9980469,-0.099609375,0.06640625,-25.03125,14.59375,-1.625,0.0,0.0,0.0
1696255042757,-0.99121094,-0.11425781,0.12597656,-24.125,5.4375,0.65625,0.0,0.0,0.0
1696255042802,-0.96972656,-0.18359375,0.12988281,-37.875,9.46875,2.46875,0.0,0.0,0.0
1696255042847,-0.99121094,-0.19726562,0.07714844,-24.875,1.28125,4.90625,0.0,0.0,0.0
1696255042881,-0.9873047,-0.16113281,0.0703125,-16.25,1.65625,5.78125,0.0,0.0,0.0
1696255042926,-0.984375,-0.16601562,0.095703125,-17.125,3.78125,9.4375,0.0,0.0,0.0
1696255042959,-0.9941406,-0.15722656,0.041015625,-17.59375,4.625,11.28125,0.0,0.0,0.0
1696255043005,-0.98535156,-0.16015625,0.034179688,-21.125,6.34375,9.1875,-47.5625,16.5625,-233.0
1696255043038,-0.9921875,-0.15332031,0.07910156,-20.84375,5.5625,10.0,0.0,0.0,0.0
1696255043083,-1.0068359,-0.14746094,0.046875,-10.34375,3.84375,11.28125,0.0,0.0,0.0
1696255043117,-1.0,-0.12207031,0.0390625,-6.1875,2.375,8.34375,0.0,0.0,0.0
1696255043162,-0.9970703,-0.1015625,0.072265625,-8.5625,0.625,9.0,0.0,0.0,0.0
1696255043218,-1.0117188,-0.047851562,0.099609375,-17.34375,-2.375,13.96875,0.0,0.0,0.0
1696255043241,-0.9941406,-0.1171875,0.08496094,-18.9375,-7.8125,15.0625,0.0,0.0,0.0
1696255043286,-0.9658203,-0.14941406,0.0234375,-18.75,-7.5,11.8125,0.0,0.0,0.0
1696255043323,-1.0107422,-0.040039062,0.038085938,-11.8125,1.96875,9.875,0.0,0.0,0.0
1696255043365,-0.98828125,0.018554688,0.049804688,1.0625,1.96875,11.875,0.0,0.0,0.0
1696255043403,-0.9892578,0.0029296875,0.11230469,-1.5625,-6.34375,16.09375,0.0,0.0,0.0
1696255043443,-1.0410156,-0.0126953125,0.15234375,-11.3125,-11.03125,17.1875,0.0,0.0,0.0
1696255043477,-1.03125,-0.0048828125,0.13085938,-11.625,-8.125,13.59375,0.0,0.0,0.0
1696255043522,-1.0,-0.028320312,0.087890625,-1.65625,-9.46875,8.46875,-49.5,23.875,-233.875
1696255043567,-1.0400391,-0.026367188,0.15332031,14.6875,-18.375,5.96875,0.0,0.0,0.0
1696255043601,-1.0361328,-0.0068359375,0.18847656,20.0625,-18.84375,-1.125,0.0,0.0,0.0
1696255043646,-1.0029297,-0.01953125,0.1875,21.875,-26.78125,-6.84375,0.0,0.0,0.0
1696255043680,-0.9589844,0.034179688,0.1875,13.46875,-30.5625,-15.34375,0.0,0.0,0.0
1696255043725,-0.9501953,-0.017578125,0.20214844,24.75,-19.96875,-19.625,0.0,0.0,0.0
1696255043758,-0.89160156,-0.005859375,0.21386719,24.34375,-4.5625,-20.03125,0.0,0.0,0.0
1696255043803,-1.0214844,0.017578125,0.15332031,18.71875,11.15625,-17.40625,0.0,0.0,0.0
1696255043837,-1.0820312,0.03515625,0.13378906,18.71875,8.375,-23.34375,0.0,0.0,0.0
1696255043882,-1.0410156,0.06933594,0.20507812,30.9375,-8.375,-19.90625,0.0,0.0,0.0
1696255043927,-1.0048828,0.049804688,0.2548828,29.15625,-17.28125,-18.46875,0.0,0.0,0.0
1696255043962,-0.9941406,-0.041015625,0.23339844,31.0,-24.84375,-16.375,0.0,0.0,0.0
1696255044006,-0.94921875,-0.055664062,0.25390625,19.3125,-24.65625,-16.125,-47.375,18.5,-227.75
1696255044040,-0.92578125,-0.030273438,0.25585938,25.4375,-21.53125,-9.90625,0.0,0.0,0.0
1696255044087,-0.8779297,-0.029296875,0.25195312,16.40625,-8.125,-7.09375,0.0,0.0,0.0
1696255044118,-0.84765625,-0.0390625,0.26953125,10.125,3.65625,-4.71875,0.0,0.0,0.0
1696255044163,-0.8457031,-0.00390625,0.19042969,6.25,15.6875,6.3125,0.0,0.0,0.0
1696255044197,-0.87597656,0.01171875,0.18847656,4.0625,12.28125,10.46875,0.0,0.0,0.0
1696255044242,-1.0556641,-0.05078125,0.33496094,8.34375,8.375,8.46875,0.0,0.0,0.0
1696255044292,-1.5400391,-0.18945312,0.21386719,9.3125,-3.40625,-5.09375,0.0,0.0,0.0
1696255044320,-0.66503906,0.095703125,0.06640625,-11.6875,27.34375,-21.6875,0.0,0.0,0.0
1696255044377,-0.90234375,-0.005859375,0.2421875,22.3125,11.34375,1.6875,0.0,0.0,0.0
1696255044399,-0.9921875,-0.17675781,0.24804688,31.71875,20.3125,2.34375,0.0,0.0,0.0
1696255044445,-1.0224609,-0.13964844,0.14746094,10.46875,22.84375,-11.25,0.0,0.0,0.0
1696255044479,-0.9824219,-0.08300781,0.17871094,10.71875,9.34375,-12.96875,0.0,0.0,0.0
1696255044523,-0.93359375,-0.0703125,0.19726562,20.59375,7.5625,-10.75,-49.375,18.0625,-227.875
1696255044557,-1.0039062,-0.060546875,0.15917969,8.21875,10.0,-6.75,0.0,0.0,0.0
1696255044602,-0.9746094,-0.059570312,0.140625,-5.28125,10.8125,1.75,0.0,0.0,0.0
1696255044647,-0.9970703,-0.06738281,0.099609375,-8.9375,13.3125,6.5625,0.0,0.0,0.0
1696255044683,-1.0009766,-0.11035156,0.11621094,-8.125,10.625,3.09375,0.0,0.0,0.0
1696255044737,-1.0,-0.1796875,0.06542969,-17.90625,2.625,-4.96875,0.0,0.0,0.0
1696255044759,-0.99316406,-0.17578125,0.036132812,-25.03125,-1.9375,-8.15625,0.0,0.0,0.0
1696255044804,-0.98535156,-0.17089844,0.08496094,-21.75,-1.59375,-3.8125,0.0,0.0,0.0
1696255044838,-0.99609375,-0.17773438,0.06738281,-23.34375,4.28125,2.125,0.0,0.0,0.0
1696255044883,-0.9873047,-0.15820312,0.060546875,-19.1875,9.59375,2.40625,0.0,0.0,0.0
1696255044917,-0.99316406,-0.13183594,0.07324219,-16.4375,12.6875,4.0625,0.0,0.0,0.0
1696255044962,-0.9794922,-0.12109375,0.06640625,-17.1875,11.0625,6.1875,0.0,0.0,0.0
1696255045007,-1.0175781,-0.12109375,0.06738281,-21.09375,4.6875,8.15625,-49.9375,17.4375,-231.8125
1696255045042,-0.9941406,-0.08691406,0.07910156,-23.34375,0.4375,6.4375,0.0,0.0,0.0
1696255045085,-1.0195312,-0.11621094,0.087890625,-26.28125,-4.6875,8.53125,0.0,0.0,0.0
1696255045119,-0.9746094,-0.14941406,0.055664062,-28.78125,-3.1875,9.5625,0.0,0.0,0.0
1696255045164,-1.015625,-0.13378906,0.029296875,-28.34375,6.34375,12.71875,0.0,0.0,0.0
1696255045198,-1.0029297,-0.13574219,0.043945312,-25.28125,2.5,14.375,0.0,0.0,0.0
1696255045243,-0.9707031,-0.13574219,0.07324219,-26.15625,1.34375,15.28125,0.0,0.0,0.0
1696255045277,-1.0234375,-0.083984375,0.08105469,-24.1875,3.125,13.15625,0.0,0.0,0.0
1696255045325,-0.97558594,-0.059570312,0.091796875,-16.75,3.84375,13.09375,0.0,0.0,0.0
1696255045367,-0.9970703,-0.051757812,0.10058594,-13.21875,0.6875,15.71875,0.0,0.0,0.0
1696255045401,-1.0107422,-0.06347656,0.08691406,-8.875,0.5,15.40625,0.0,0.0,0.0
1696255045446,-1.0224609,-0.045898438,0.07128906,-8.375,0.71875,12.96875,0.0,0.0,0.0
1696255045480,-0.9765625,-0.0087890625,0.0859375,-4.46875,-1.34375,12.71875,0.0,0.0,0.0
1696255045525,-1.0107422,0.0068359375,0.061523438,-0.5,-4.40625,8.59375,-49.1875,23.4375,-234.625
1696255045558,-1.0351562,0.036132812,0.041015625,3.8125,-9.65625,7.78125,0.0,0.0,0.0
1696255045603,-1.0195312,0.01953125,0.10058594,11.5,-19.03125,4.90625,0.0,0.0,0.0
1696255045637,-1.0742188,0.005859375,0.15527344,17.375,-24.65625,-3.625,0.0,0.0,0.0
1696255045682,-1.0869141,-0.0390625,0.19628906,32.625,-34.78125,-13.5625,0.0,0.0,0.0
1696255045727,-1.0244141,-0.078125,0.20507812,37.6875,-46.15625,-23.71875,0.0,0.0,0.0
1696255045760,-0.94921875,-0.045898438,0.19042969,22.1875,-44.0,-33.59375,0.0,0.0,0.0
1696255045806,-0.9736328,0.033203125,0.18359375,45.21875,-36.5625,-35.0,0.0,0.0,0.0
1696255045840,-0.92871094,-0.041992188,0.28222656,72.0625,-32.65625,-23.9375,0.0,0.0,0.0
1696255045884,-0.8808594,0.0029296875,0.21972656,32.15625,-18.5625,-14.1875,0.0,0.0,0.0
1696255045918,-0.9238281,0.025390625,0.20703125,7.375,-7.125,-12.96875,0.0,0.0,0.0
1696255045963,-0.9248047,0.0146484375,0.23535156,-4.71875,2.9375,-13.8125,0.0,0.0,0.0
1696255046008,-0.94433594,0.057617188,0.25,0.96875,6.96875,-10.875,-49.9375,20.3125,-222.9375
1696255046042,-0.96972656,-0.04296875,0.27734375,9.5625,10.125,-3.25,0.0,0.0,0.0
1696255046087,-0.9375,-0.060546875,0.20117188,-3.875,15.8125,-2.40625,0.0,0.0,0.0
1696255046121,-0.8955078,0.016601562,0.17382812,-7.71875,8.84375,-7.09375,0.0,0.0,0.0
1696255046165,-0.95703125,-0.0068359375,0.19140625,-7.84375,16.40625,-4.25,0.0,0.0,0.0
1696255046200,-1.1181641,-0.1171875,0.28027344,9.25,2.625,-3.8125,0.0,0.0,0.0
1696255046256,-1.0683594,-0.06738281,0.20996094,-0.8125,0.375,-2.53125,0.0,0.0,0.0
1696255046278,-0.95996094,-0.024414062,0.12988281,-10.75,16.96875,5.28125,0.0,0.0,0.0
1696255046323,-0.9453125,-0.041992188,0.2607422,2.71875,16.90625,-1.0,0.0,0.0,0.0
1696255046369,-0.9794922,-0.103515625,0.2109375,-8.75,25.75,0.46875,0.0,0.0,0.0
1696255046402,-0.9951172,-0.10839844,0.21582031,-6.125,21.3125,2.1875,0.0,0.0,0.0
1696255046447,-0.98339844,-0.13574219,0.19433594,2.3125,15.8125,-1.5,0.0,0.0,0.0
1696255046481,-0.98828125,-0.13769531,0.17773438,8.03125,9.78125,-6.5,0.0,0.0,0.0
1696255046525,-0.953125,-0.09667969,0.13476562,6.5,10.25,-8.8125,-49.375,18.625,-228.9375
1696255046559,-0.98339844,-0.12207031,0.06640625,9.6875,8.96875,-6.5,0.0,0.0,0.0
1696255046605,-1.0136719,-0.076171875,0.06640625,5.65625,4.8125,-4.90625,0.0,0.0,0.0
1696255046638,-0.9873047,-0.055664062,0.12597656,-1.84375,-2.25,-3.1875,0.0,0.0,0.0
1696255046683,-0.9716797,-0.14160156,0.11816406,-12.46875,-1.875,-1.96875,0.0,0.0,0.0
1696255046728,-0.96777344,-0.18359375,0.091796875,-13.15625,2.125,-1.0,0.0,0.0,0.0
1696255046762,-1.0029297,-0.1875,0.12402344,-13.375,3.78125,-1.65625,0.0,0.0,0.0
1696255046807,-1.0019531,-0.17089844,0.16015625,-10.46875,1.21875,-2.09375,0.0,0.0,0.0
1696255046841,-0.95410156,-0.20117188,0.13183594,-21.3125,3.71875,-0.15625,0.0,0.0,0.0
1696255046886,-0.9902344,-0.19140625,0.087890625,-22.90625,5.1875,1.0625,0.0,0.0,0.0
1696255046919,-0.984375,-0.18359375,0.07714844,-12.15625,9.78125,1.125,0.0,0.0,0.0
1696255046964,-1.0087891,-0.13867188,0.0625,-9.40625,8.96875,4.1875,0.0,0.0,0.0
1696255047021,-0.9941406,-0.11621094,0.0703125,-6.90625,2.125,6.09375,-48.625,19.0625,-232.375
1696255047043,-0.98339844,-0.09667969,0.07910156,-15.09375,1.28125,5.59375,0.0,0.0,0.0
1696255047088,-1.0166016,-0.17871094,0.001953125,-19.5,-3.59375,4.25,0.0,0.0,0.0
1696255047122,-0.9628906,-0.15332031,0.013671875,-10.59375,-1.71875,1.4375,0.0,0.0,0.0
1696255047201,-1.0117188,-0.10449219,0.0625,-11.6875,5.1875,7.90625,0.0,0.0,0.0
1696255047203,-0.9892578,-0.10546875,0.045898438,-10.40625,5.75,13.71875,0.0,0.0,0.0
1696255047246,-1.0048828,-0.16015625,0.064453125,-20.34375,2.4375,12.5625,0.0,0.0,0.0
1696255047280,-0.98828125,-0.18261719,0.015625,-15.40625,0.96875,8.78125,0.0,0.0,0.0
1696255047325,-0.98535156,-0.09472656,0.036132812,-12.90625,3.1875,10.09375,0.0,0.0,0.0
1696255047358,-0.9892578,-0.033203125,0.10546875,-11.5625,4.09375,12.78125,0.0,0.0,0.0
1696255047403,-1.0,-0.091796875,0.07910156,-10.46875,1.21875,17.25,0.0,0.0,0.0
1696255047448,-0.99609375,-0.0859375,0.099609375,-11.8125,-1.9375,16.40625,0.0,0.0,0.0
1696255047482,-1.0214844,-0.07421875,0.09472656,-13.3125,-3.40625,10.71875,0.0,0.0,0.0
1696255047527,-0.99609375,-0.09863281,0.10058594,-8.625,-4.75,9.3125,-49.9375,21.3125,-234.9375
1696255047561,-0.9794922,-0.07128906,0.044921875,-9.90625,-10.1875,8.9375,0.0,0.0,0.0
1696255047606,-0.9863281,0.0068359375,0.038085938,-0.875,-9.9375,8.9375,0.0,0.0,0.0
1696255047640,-1.0185547,0.0146484375,0.08203125,-2.09375,-7.6875,8.59375,0.0,0.0,0.0
1696255047685,-1.0439453,0.0,0.091796875,-2.875,-7.1875,6.6875,0.0,0.0,0.0
1696255047718,-1.0351562,0.016601562,0.107421875,2.34375,-11.40625,3.46875,0.0,0.0,0.0
1696255047774,-1.0322266,0.030273438,0.13476562,5.59375,-17.8125,-0.8125,0.0,0.0,0.0
1696255047808,-1.0673828,0.005859375,0.203125,17.4375,-32.65625,-6.90625,0.0,0.0,0.0
1696255047842,-1.015625,-0.056640625,0.28125,26.59375,-44.5625,-12.34375,0.0,0.0,0.0
1696255047890,-0.96484375,-0.041992188,0.21289062,30.9375,-49.6875,-14.71875,0.0,0.0,0.0
1696255047921,-0.94628906,-0.01171875,0.17871094,27.75,-31.90625,-9.0,0.0,0.0,0.0
1696255047966,-0.9355469,0.0029296875,0.20117188,19.5,-13.78125,-12.90625,0.0,0.0,0.0
1696255048011,-0.94140625,-0.015625,0.22070312,1.75,-6.53125,-20.90625,-49.1875,21.8125,-226.125
1696255048045,-0.9658203,0.01953125,0.24609375,-1.1875,-4.625,-21.4375,0.0,0.0,0.0
1696255048079,-0.9814453,-0.0048828125,0.2548828,10.84375,-7.6875,-17.90625,0.0,0.0,0.0
1696255048123,-0.95703125,-0.056640625,0.29882812,24.09375,-9.6875,-11.6875,0.0,0.0,0.0
1696255048169,-0.9082031,-0.0546875,0.2890625,16.65625,-6.53125,-10.03125,0.0,0.0,0.0
1696255048202,-0.9267578,-0.025390625,0.20898438,33.96875,-3.28125,-9.84375,0.0,0.0,0.0
1696255048247,-0.87109375,-0.07519531,0.3330078,8.46875,8.96875,-8.15625,0.0,0.0,0.0
1696255048281,-0.90527344,-0.038085938,0.28222656,-11.875,6.40625,-8.8125,0.0,0.0,0.0
1696255048326,-0.9501953,-0.08203125,0.22949219,-8.625,18.375,-12.34375,0.0,0.0,0.0
1696255048360,-0.95410156,-0.14550781,0.2783203,0.53125,17.34375,-11.75,0.0,0.0,0.0
1696255048410,-0.9238281,-0.11621094,0.33789062,-6.0,18.75,-4.1875,0.0,0.0,0.0
1696255048438,-1.1210938,-0.09472656,0.21191406,-7.40625,11.84375,-0.75,0.0,0.0,0.0
1696255048483,-1.0576172,-0.01171875,0.17578125,20.0625,21.96875,11.5,0.0,0.0,0.0
1696255048540,-0.92578125,-0.049804688,0.26367188,21.875,8.84375,-0.21875,-49.1875,18.9375,-226.375
1696255048562,-0.9423828,-0.109375,0.1953125,1.75,16.40625,-4.59375,0.0,0.0,0.0
1696255048607,-0.99316406,-0.13476562,0.17773438,3.53125,15.5625,-4.90625,0.0,0.0,0.0
1696255048640,-0.98046875,-0.16601562,0.19433594,14.25,10.875,-2.65625,0.0,0.0,0.0
1696255048686,-0.94628906,-0.119140625,0.16015625,9.875,15.5625,0.03125,0.0,0.0,0.0
1696255048719,-0.9707031,-0.11425781,0.15136719,10.21875,14.21875,-0.9375,0.0,0.0,0.0
1696255048764,-0.9951172,-0.12207031,0.13183594,6.5625,13.1875,-2.59375,0.0,0.0,0.0
1696255048798,-0.9814453,-0.10058594,0.11328125,2.96875,7.4375,-4.125,0.0,0.0,0.0
1696255048843,-0.9921875,-0.12597656,0.10839844,-0.375,4.625,-3.625,0.0,0.0,0.0
1696255048888,-0.99316406,-0.15332031,0.0703125,-4.28125,2.03125,-4.34375,0.0,0.0,0.0
1696255048922,-0.97265625,-0.15625,0.068359375,-8.75,1.53125,-6.90625,0.0,0.0,0.0
1696255048967,-0.9873047,-0.16503906,0.0859375,-11.75,1.90625,-4.0,0.0,0.0,0.0
1696255049001,-0.99902344,-0.15625,0.08886719,-13.5625,0.78125,-2.46875,-46.8125,17.5625,-230.3125
1696255049046,-0.98046875,-0.17480469,0.08984375,-12.40625,1.78125,-0.6875,0.0,0.0,0.0
1696255049079,-0.98828125,-0.15039062,0.09667969,-12.09375,1.53125,2.65625,0.0,0.0,0.0
1696255049124,-0.9892578,-0.17285156,0.06738281,-15.46875,2.3125,3.8125,0.0,0.0,0.0
1696255049159,-1.0009766,-0.19628906,0.07421875,-8.25,-0.71875,4.3125,0.0,0.0,0.0
1696255049203,-0.9902344,-0.18164062,0.07324219,-3.5625,0.6875,3.875,0.0,0.0,0.0
1696255049248,-0.99902344,-0.119140625,0.09667969,-6.4375,0.96875,5.34375,0.0,0.0,0.0
1696255049304,-1.0136719,-0.13183594,0.06640625,-6.625,-0.96875,8.65625,0.0,0.0,0.0
1696255049327,-0.9794922,-0.13183594,0.048828125,-9.71875,2.4375,8.09375,0.0,0.0,0.0
1696255049361,-1.0136719,-0.111328125,0.10839844,-14.90625,8.65625,12.3125,0.0,0.0,0.0
1696255049406,-0.9863281,-0.12109375,0.09765625,-14.84375,8.4375,15.84375,0.0,0.0,0.0
1696255049439,-0.9951172,-0.16699219,0.076171875,-20.40625,2.1875,16.21875,0.0,0.0,0.0
1696255049484,-0.98046875,-0.1796875,0.078125,-12.46875,2.75,13.21875,0.0,0.0,0.0
1696255049530,-1.0078125,-0.08691406,0.10449219,-6.4375,6.65625,7.71875,-49.5,20.0,-232.25
1696255049563,-0.9980469,-0.037109375,0.091796875,-10.40625,7.03125,10.0625,0.0,0.0,0.0
1696255049609,-1.0117188,-0.04296875,0.06542969,-10.15625,-0.0625,16.34375,0.0,0.0,0.0
1696255049642,-1.0029297,-0.02734375,0.060546875,-5.75,-2.9375,14.9375,0.0,0.0,0.0
1696255049687,-0.9921875,-0.029296875,0.08984375,-10.34375,-2.8125,11.03125,0.0,0.0,0.0
1696255049721,-1.0185547,-0.059570312,0.09667969,-8.75,-4.34375,8.03125,0.0,0.0,0.0
1696255049766,-1.0058594,-0.05078125,0.09375,-2.40625,-4.875,6.15625,0.0,0.0,0.0
1696255049800,-0.9970703,-0.037109375,0.08496094,-0.625,-7.625,6.1875,0.0,0.0,0.0
1696255049845,-1.0039062,-0.016601562,0.109375,0.03125,-10.25,7.25,0.0,0.0,0.0
1696255049923,-1.0341797,-0.033203125,0.1015625,1.375,-11.65625,7.0,0.0,0.0,0.0
1696255049925,-1.0302734,-0.016601562,0.12597656,7.5625,-15.0625,4.90625,0.0,0.0,0.0
1696255049969,-1.0283203,-0.0126953125,0.13867188,8.65625,-15.5625,1.25,0.0,0.0,0.0
1696255050002,-1.0664062,-0.024414062,0.17285156,14.25,-22.875,-7.28125,-50.875,21.5,-229.25
1696255050061,-1.0253906,-0.048828125,0.22167969,16.8125,-30.40625,-16.75,0.0,0.0,0.0
1696255050081,-1.0205078,-0.034179688,0.24023438,27.4375,-38.09375,-27.0625,0.0,0.0,0.0
1696255050126,-0.94433594,-0.005859375,0.22167969,52.09375,-46.4375,-28.21875,0.0,0.0,0.0
1696255050160,-0.8925781,0.016601562,0.19140625,49.125,-32.53125,-17.0,0.0,0.0,0.0
1696255050204,-0.9003906,0.01171875,0.20410156,22.875,-17.21875,-14.0,0.0,0.0,0.0
1696255050239,-0.9511719,-0.028320312,0.22167969,4.96875,-9.6875,-17.96875,0.0,0.0,0.0
1696255050283,-0.953125,-0.044921875,0.23535156,-1.96875,-2.0625,-25.84375,0.0,0.0,0.0
1696255050328,-0.96777344,-0.022460938,0.2548828,6.6875,3.34375,-23.65625,0.0,0.0,0.0
1696255050362,-0.92578125,-0.0234375,0.28808594,14.125,7.5,-15.03125,0.0,0.0,0.0
1696255050407,-0.87402344,-0.046875,0.3203125,10.40625,7.9375,-7.21875,0.0,0.0,0.0
1696255050441,-0.81152344,-0.05078125,0.32617188,-1.25,13.3125,-3.6875,0.0,0.0,0.0
1696255050486,-0.91308594,-0.10058594,0.265625,3.34375,18.75,-3.125,0.0,0.0,0.0
1696255050531,-1.0185547,-0.16699219,0.29882812,2.78125,20.3125,-0.9375,-48.625,17.3125,-222.375
1696255050565,-1.3554688,-0.14941406,0.21875,0.96875,16.3125,-1.375,0.0,0.0,0.0
1696255050599,-0.92285156,0.07714844,0.10839844,0.03125,26.5625,-2.28125,0.0,0.0,0.0
1696255050645,-0.8203125,0.07324219,0.26953125,19.15625,12.03125,0.40625,0.0,0.0,0.0
1696255050688,-0.984375,-0.12695312,0.21289062,9.375,17.75,4.875,0.0,0.0,0.0
1696255050722,-1.0117188,-0.16503906,0.12988281,0.90625,22.40625,2.25,0.0,0.0,0.0
1696255050767,-0.9873047,-0.1484375,0.16308594,7.1875,12.09375,-3.125,0.0,0.0,0.0
1696255050823,-0.95703125,-0.076171875,0.14355469,14.0625,15.4375,-3.125,0.0,0.0,0.0
1696255050847,-0.9814453,-0.07128906,0.15234375,13.90625,15.5,-1.3125,0.0,0.0,0.0
1696255050880,-0.99316406,-0.072265625,0.10546875,-0.3125,10.0625,1.9375,0.0,0.0,0.0
1696255050925,-0.98828125,-0.09375,0.09277344,-5.75,6.53125,-3.1875,0.0,0.0,0.0
1696255050959,-0.9736328,-0.15234375,0.072265625,-10.34375,4.28125,-12.65625,0.0,0.0,0.0
1696255051003,-0.99121094,-0.17773438,0.06640625,-3.0,1.84375,-12.34375,-49.375,16.25,-227.625
1696255051048,-0.9863281,-0.17285156,0.06542969,-1.4375,4.40625,-7.71875,0.0,0.0,0.0
1696255051082,-0.984375,-0.17675781,0.0703125,-1.0625,9.28125,-3.625,0.0,0.0,0.0
1696255051127,-0.98339844,-0.16308594,0.051757812,-1.78125,10.875,-1.1875,0.0,0.0,0.0
1696255051161,-0.9863281,-0.16210938,0.083984375,0.28125,10.5,-1.5625,0.0,0.0,0.0
1696255051206,-0.9863281,-0.14648438,0.06542969,-7.28125,10.4375,-2.71875,0.0,0.0,0.0
1696255051240,-0.99609375,-0.13671875,0.061523438,-11.375,8.96875,0.34375,0.0,0.0,0.0
1696255051285,-0.9951172,-0.13378906,0.06640625,-13.03125,6.65625,0.09375,0.0,0.0,0.0
1696255051318,-1.0126953,-0.15820312,0.052734375,-18.9375,4.40625,0.53125,0.0,0.0,0.0
1696255051363,-0.9785156,-0.15820312,0.030273438,-19.375,3.53125,-0.375,0.0,0.0,0.0
1696255051409,-1.0039062,-0.18164062,0.038085938,-15.875,2.875,0.90625,0.0,0.0,0.0
1696255051444,-0.9892578,-0.15429688,0.029296875,-15.21875,3.71875,1.4375,0.0,0.0,0.0
1696255051487,-0.9951172,-0.13476562,0.015625,-14.125,1.46875,0.40625,0.0,0.0,0.0
1696255051521,-1.0068359,-0.13867188,0.028320312,-19.6875,-0.5625,-0.375,-48.0,15.1875,-234.5
1696255051577,-1.0097656,-0.11816406,0.038085938,-24.3125,-3.65625,1.75,0.0,0.0,0.0
1696255051599,-0.9902344,-0.13671875,0.040039062,-25.40625,-5.125,5.09375,0.0,0.0,0.0
1696255051645,-0.98046875,-0.18652344,0.047851562,-22.71875,-1.03125,5.46875,0.0,0.0,0.0
1696255051679,-0.984375,-0.18164062,0.0703125,-21.03125,0.78125,8.09375,0.0,0.0,0.0
1696255051723,-1.0205078,-0.17480469,0.051757812,-21.75,-2.3125,8.9375,0.0,0.0,0.0
1696255051768,-0.98828125,-0.15234375,-0.0029296875,-22.3125,0.5,5.90625,0.0,0.0,0.0
1696255051802,-0.97558594,-0.17871094,-0.028320312,-13.375,-0.5,6.875,0.0,0.0,0.0
1696255051847,-0.9794922,-0.16503906,-0.009765625,-9.3125,1.65625,7.1875,0.0,0.0,0.0
1696255051880,-1.0166016,-0.09472656,-0.0087890625,-10.6875,1.65625,8.78125,0.0,0.0,0.0
1696255051926,-0.9873047,-0.07128906,0.029296875,-11.1875,-2.6875,9.3125,0.0,0.0,0.0
1696255051959,-1.0097656,-0.1171875,0.029296875,-7.65625,-6.65625,10.53125,0.0,0.0,0.0
1696255052005,-0.98339844,-0.13085938,0.030273438,-8.0625,-4.28125,9.8125,-49.1875,18.1875,-235.25
1696255052038,-0.9951172,-0.12402344,0.03125,-5.28125,-3.40625,10.40625,0.0,0.0,0.0
1696255052083,-1.0,-0.08691406,0.034179688,2.71875,-2.3125,10.09375,0.0,0.0,0.0
1696255052128,-0.9814453,-0.08691406,0.07324219,4.125,-0.96875,9.25,0.0,0.0,0.0
1696255052162,-0.984375,-0.0625,0.045898438,1.875,-3.28125,8.34375,0.0,0.0,0.0
1696255052207,-0.98828125,-0.0625,0.03125,3.53125,-8.0625,6.75,0.0,0.0,0.0
1696255052241,-0.9814453,-0.048828125,0.0546875,4.625,-8.78125,6.5625,0.0,0.0,0.0
1696255052286,-1.0566406,-0.056640625,0.095703125,6.5,-10.8125,5.84375,0.0,0.0,0.0
1696255052319,-1.0380859,-0.07128906,0.12695312,11.46875,-16.40625,-0.28125,0.0,0.0,0.0
1696255052366,-1.0244141,-0.061523438,0.12890625,1.8125,-22.65625,-4.25,0.0,0.0,0.0
1696255052398,-1.0537109,-0.08496094,0.15429688,12.625,-31.375,-9.375,0.0,0.0,0.0
1696255052443,-1.0341797,-0.12207031,0.18457031,35.8125,-39.625,-16.5,0.0,0.0,0.0
1696255052488,-1.0039062,-0.11621094,0.2548828,50.875,-48.8125,-23.875,0.0,0.0,0.0
1696255052522,-0.9189453,-0.041992188,0.3046875,47.28125,-50.34375,-14.375,-50.375,20.4375,-226.875
1696255052567,-0.9111328,0.01171875,0.19335938,41.0625,-37.78125,-4.78125,0.0,0.0,0.0
1696255052601,-0.92285156,-0.01171875,0.15429688,23.28125,-18.8125,-6.4375,0.0,0.0,0.0
1696255052645,-0.95214844,-0.02734375,0.20410156,10.0,-4.8125,-13.5625,0.0,0.0,0.0
1696255052680,-0.9667969,0.021484375,0.20214844,8.21875,3.3125,-14.71875,0.0,0.0,0.0
1696255052725,-1.0,0.0068359375,0.23828125,9.5,6.03125,-9.65625,0.0,0.0,0.0
1696255052758,-0.9628906,0.0,0.23242188,16.6875,1.09375,-3.125,0.0,0.0,0.0
1696255052803,-0.9267578,-0.016601562,0.359375,-3.0625,-1.71875,-1.90625,0.0,0.0,0.0
1696255052848,-0.94140625,-0.033203125,0.29296875,8.40625,-0.0625,2.71875,0.0,0.0,0.0
1696255052882,-0.86035156,-0.09863281,0.31054688,4.0,12.5,0.96875,0.0,0.0,0.0
1696255052927,-0.8779297,-0.078125,0.21191406,-3.875,23.5625,1.5625,0.0,0.0,0.0
1696255052961,-0.9638672,-0.044921875,0.23339844,-5.28125,21.96875,1.25,0.0,0.0,0.0
1696255053005,-1.109375,-0.080078125,0.21875,-2.84375,17.15625,4.6875,-48.875,17.75,-225.0625
1696255053039,-1.1337891,-0.01953125,0.15039062,-13.5,14.09375,2.28125,0.0,0.0,0.0
1696255053096,-0.93847656,-0.03515625,0.18652344,-6.375,15.5625,0.09375,0.0,0.0,0.0
1696255053118,-0.9394531,-0.103515625,0.21484375,-0.5625,12.40625,-1.125,0.0,0.0,0.0
1696255053163,-0.97558594,-0.12402344,0.16503906,1.25,16.65625,-2.15625,0.0,0.0,0.0
1696255053208,-0.9951172,-0.13769531,0.18261719,6.625,14.15625,-6.0625,0.0,0.0,0.0
1696255053242,-0.9716797,-0.12011719,0.16894531,8.40625,7.03125,-7.03125,0.0,0.0,0.0
1696255053289,-0.9941406,-0.06542969,0.14160156,12.96875,5.0,-10.34375,0.0,0.0,0.0
1696255053321,-0.9941406,-0.056640625,0.15820312,8.28125,5.25,-13.5,0.0,0.0,0.0
1696255053366,-0.9736328,-0.07519531,0.14453125,-1.125,3.25,-6.25,0.0,0.0,0.0
1696255053399,-0.9658203,-0.13964844,0.103515625,-5.625,8.53125,-1.5,0.0,0.0,0.0
1696255053444,-0.98339844,-0.14746094,0.12402344,-3.875,11.34375,-1.0625,0.0,0.0,0.0
1696255053489,-0.9980469,-0.1484375,0.1328125,-5.46875,9.78125,0.59375,0.0,0.0,0.0
1696255053523,-0.98046875,-0.14550781,0.09472656,-10.15625,9.71875,3.03125,-48.4375,16.6875,-230.125
1696255053569,-0.9824219,-0.15429688,0.061523438,-15.03125,10.4375,4.125,0.0,0.0,0.0
1696255053602,-0.99121094,-0.14941406,0.09375,-15.65625,9.03125,3.40625,0.0,0.0,0.0
1696255053647,-1.0078125,-0.15625,0.07324219,-16.0625,5.9375,1.0625,0.0,0.0,0.0
1696255053681,-0.9970703,-0.18261719,0.057617188,-14.96875,1.84375,-1.78125,0.0,0.0,0.0
1696255053726,-0.98339844,-0.19140625,0.029296875,-14.78125,-0.78125,-1.0,0.0,0.0,0.0
1696255053760,-0.9863281,-0.16210938,0.036132812,-9.96875,0.5,-2.40625,0.0,0.0,0.0
1696255053805,-0.98535156,-0.13964844,0.080078125,-3.25,0.71875,-5.21875,0.0,0.0,0.0
1696255053862,-0.984375,-0.13085938,0.0625,-5.5625,0.125,-1.25,0.0,0.0,0.0
1696255053883,-1.0107422,-0.12109375,0.0703125,-4.96875,-3.28125,3.46875,0.0,0.0,0.0
1696255053929,-0.99902344,-0.12988281,0.047851562,-9.84375,-4.21875,4.1875,0.0,0.0,0.0
1696255053962,-1.0039062,-0.18164062,0.048828125,-13.375,-1.34375,6.9375,0.0,0.0,0.0
1696255054007,-1.0029297,-0.18847656,0.07421875,-11.5,-1.65625,8.78125,-48.0,16.5625,-231.625
1696255054041,-0.99316406,-0.13769531,0.07714844,-12.59375,0.90625,10.09375,0.0,0.0,0.0
1696255054086,-0.99121094,-0.14453125,0.040039062,-12.96875,3.53125,9.3125,0.0,0.0,0.0
1696255054120,-0.9863281,-0.16992188,0.026367188,-13.21875,4.15625,8.53125,0.0,0.0,0.0
1696255054166,-1.0126953,-0.119140625,0.032226562,-10.40625,4.46875,9.6875,0.0,0.0,0.0
1696255054212,-0.9941406,-0.026367188,0.06933594,-8.4375,5.0,8.65625,0.0,0.0,0.0
1696255054243,-0.9658203,-0.036132812,0.072265625,-12.21875,2.125,12.90625,0.0,0.0,0.0
1696255054325,-1.0214844,-0.076171875,0.08105469,-11.9375,-2.4375,13.71875,0.0,0.0,0.0
1696255054326,-1.0,-0.078125,0.046875,-10.03125,-4.875,10.21875,0.0,0.0,0.0
1696255054367,-1.0019531,-0.05859375,0.044921875,-7.28125,-3.46875,7.1875,0.0,0.0,0.0
1696255054401,-0.9707031,-0.045898438,0.07910156,-5.8125,-2.375,6.1875,0.0,0.0,0.0
1696255054445,-1.0009766,-0.01171875,0.043945312,-4.46875,-2.3125,7.4375,0.0,0.0,0.0
1696255054479,-1.0126953,-0.01171875,0.046875,-2.28125,-3.0,9.25,0.0,0.0,0.0
1696255054526,-1.0117188,-0.043945312,0.08300781,-6.25,-4.21875,7.78125,-50.25,21.8125,-233.3125
1696255054570,-1.0107422,-0.0390625,0.076171875,-2.875,-5.90625,6.9375,0.0,0.0,0.0
1696255054614,-0.99902344,-0.051757812,0.1015625,-0.15625,-7.75,5.84375,0.0,0.0,0.0
1696255054682,-0.99316406,-0.0546875,0.140625,2.0625,-11.53125,4.75,0.0,0.0,0.0
1696255054683,-1.0097656,-0.07128906,0.14453125,8.28125,-13.90625,-0.8125,0.0,0.0,0.0
1696255054727,-1.0322266,-0.061523438,0.14941406,14.625,-18.125,-6.8125,0.0,0.0,0.0
1696255054760,-1.0234375,-0.05078125,0.19335938,22.3125,-27.40625,-11.1875,0.0,0.0,0.0
1696255054806,-1.0693359,-0.083984375,0.24511719,33.1875,-46.875,-17.90625,0.0,0.0,0.0
1696255054839,-1.0234375,-0.10644531,0.2578125,40.8125,-50.09375,-27.78125,0.0,0.0,0.0
1696255054885,-0.94140625,-0.005859375,0.2421875,42.71875,-49.5625,-35.0,0.0,0.0,0.0
1696255054929,-0.9453125,0.026367188,0.21191406,63.6875,-22.875,-22.25,0.0,0.0,0.0
1696255054963,-0.9003906,0.001953125,0.23828125,35.375,-17.8125,-16.625,0.0,0.0,0.0
1696255055008,-0.9355469,-0.016601562,0.265625,14.5,-6.21875,-11.375,-48.875,18.9375,-221.875
1696255055042,-0.9345703,-0.0234375,0.23144531,-2.03125,1.21875,-9.3125,0.0,0.0,0.0
1696255055087,-0.9003906,-0.01171875,0.24609375,-11.96875,8.78125,-8.03125,0.0,0.0,0.0
1696255055121,-0.89160156,-0.052734375,0.24609375,-10.40625,7.6875,-6.0625,0.0,0.0,0.0
1696255055166,-0.8779297,-0.04296875,0.25097656,-8.25,6.28125,-4.0625,0.0,0.0,0.0
1696255055199,-0.8642578,-0.048828125,0.26367188,6.4375,5.96875,3.53125,0.0,0.0,0.0
1696255055245,-0.9814453,-0.14257812,0.38476562,20.65625,3.46875,9.5625,0.0,0.0,0.0
1696255055289,-1.0869141,-0.14941406,0.44726562,5.21875,-3.96875,8.40625,0.0,0.0,0.0
1696255055323,-1.1328125,-0.12597656,0.24414062,-13.6875,-1.21875,2.71875,0.0,0.0,0.0
1696255055380,-0.93359375,0.040039062,0.09765625,-8.9375,33.5625,-8.6875,0.0,0.0,0.0
1696255055402,-0.9316406,0.016601562,0.22363281,18.46875,29.78125,-8.5625,0.0,0.0,0.0
1696255055447,-0.9609375,0.0048828125,0.3232422,24.46875,23.0,-1.84375,0.0,0.0,0.0
1696255055481,-1.0244141,-0.057617188,0.22558594,0.46875,15.1875,5.71875,0.0,0.0,0.0
1696255055528,-0.9970703,-0.091796875,0.15039062,-1.5,7.8125,6.6875,-49.5,17.125,-225.375
1696255055559,-0.9609375,-0.12792969,0.17773438,10.125,12.5625,0.15625,0.0,0.0,0.0
1696255055604,-0.9736328,-0.12011719,0.19042969,9.0,11.71875,-8.25,0.0,0.0,0.0
1696255055649,-0.984375,-0.09277344,0.16699219,0.28125,13.90625,-13.28125,0.0,0.0,0.0
1696255055683,-0.9628906,-0.115234375,0.14648438,0.71875,11.96875,-9.78125,0.0,0.0,0.0
1696255055728,-0.9658203,-0.10058594,0.12695312,3.8125,10.9375,-4.59375,0.0,0.0,0.0
1696255055762,-0.9863281,-0.087890625,0.12402344,6.5,12.34375,-2.59375,0.0,0.0,0.0
1696255055807,-0.9814453,-0.09375,0.12011719,2.34375,19.03125,-2.84375,0.0,0.0,0.0
1696255055841,-0.9765625,-0.099609375,0.09667969,-3.0625,21.25,-0.28125,0.0,0.0,0.0
1696255055886,-0.9863281,-0.08496094,0.09277344,-7.03125,20.3125,3.875,0.0,0.0,0.0
1696255055919,-1.0039062,-0.09765625,0.07714844,-11.625,16.40625,3.625,0.0,0.0,0.0
1696255055964,-1.0058594,-0.13476562,0.07128906,-17.46875,13.625,1.375,0.0,0.0,0.0
1696255056009,-1.0410156,-0.15820312,0.046875,-19.5625,10.5,-0.8125,-49.5,18.1875,-232.25
1696255056043,-0.99316406,-0.1796875,0.030273438,-17.125,3.84375,-5.46875,0.0,0.0,0.0
1696255056088,-0.9609375,-0.1328125,0.01171875,-17.65625,-1.78125,-4.40625,0.0,0.0,0.0
1696255056144,-1.0117188,-0.15917969,0.0107421875,-10.59375,-2.5,-1.78125,0.0,0.0,0.0
1696255056167,-0.96972656,-0.17871094,0.061523438,-15.9375,-4.15625,-1.71875,0.0,0.0,0.0
1696255056201,-0.9951172,-0.20117188,0.048828125,-22.46875,-4.15625,-1.1875,0.0,0.0,0.0
1696255056246,-0.9941406,-0.20996094,0.055664062,-18.34375,-5.0,0.53125,0.0,0.0,0.0
1696255056279,-0.99316406,-0.1875,0.061523438,-11.875,-7.625,1.6875,0.0,0.0,0.0
1696255056325,-0.9785156,-0.16601562,0.04296875,-7.96875,-4.5625,1.0,0.0,0.0,0.0
1696255056370,-0.9814453,-0.14257812,0.049804688,-5.8125,-2.875,1.125,0.0,0.0,0.0
1696255056403,-0.99902344,-0.13183594,0.056640625,-7.28125,-4.21875,4.875,0.0,0.0,0.0
1696255056448,-0.98828125,-0.1171875,0.048828125,-10.21875,-2.625,7.59375,0.0,0.0,0.0
1696255056482,-1.0410156,-0.14746094,0.03515625,-13.09375,-5.0625,9.75,0.0,0.0,0.0
1696255056527,-0.9765625,-0.10449219,0.052734375,-14.0,-0.375,8.21875,-48.125,17.75,-232.25
1696255056561,-0.99609375,-0.12597656,0.0,-8.75,4.53125,10.84375,0.0,0.0,0.0
1696255056605,-0.98828125,-0.15234375,0.020507812,-8.5625,6.46875,10.71875,0.0,0.0,0.0
1696255056639,-1.0273438,-0.07421875,0.038085938,-7.84375,3.34375,10.96875,0.0,0.0,0.0
1696255056684,-1.0039062,-0.026367188,0.0703125,-6.5625,1.03125,9.75,0.0,0.0,0.0
1696255056729,-0.98828125,-0.064453125,0.08105469,-11.3125,-5.125,10.84375,0.0,0.0,0.0
1696255056763,-1.0458984,-0.103515625,0.059570312,-0.875,-7.9375,11.9375,0.0,0.0,0.0
1696255056821,-0.9873047,-0.078125,0.05078125,-6.96875,-10.25,11.21875,0.0,0.0,0.0
1696255056842,-0.98339844,-0.052734375,0.07714844,-7.28125,-6.46875,9.6875,0.0,0.0,0.0
1696255056898,-0.9921875,-0.057617188,0.095703125,-8.625,-4.625,9.875,0.0,0.0,0.0
1696255056921,-0.98339844,-0.041992188,0.07714844,-9.0625,-8.0,9.875,0.0,0.0,0.0
1696255056966,-0.9951172,-0.032226562,0.09082031,-4.0,-9.75,9.4375,0.0,0.0,0.0
1696255057011,-0.9658203,-0.0087890625,0.12695312,-5.5625,-7.5625,8.53125,-50.125,20.125,-233.0
1696255057044,-0.9511719,-0.022460938,0.068359375,1.0625,-9.53125,4.8125,0.0,0.0,0.0
1696255057089,-0.94628906,-0.013671875,0.119140625,-10.34375,-14.15625,1.8125,0.0,0.0,0.0
1696255057123,-1.1308594,-0.05859375,0.17089844,-1.71875,-19.46875,2.25,0.0,0.0,0.0
1696255057168,-1.0556641,-0.036132812,0.23144531,7.125,-24.96875,5.71875,0.0,0.0,0.0
1696255057202,-1.0263672,-0.0029296875,0.21191406,11.40625,-25.9375,-0.75,0.0,0.0,0.0
1696255057247,-0.9863281,-0.0087890625,0.24121094,19.875,-20.5,-12.40625,0.0,0.0,0.0
1696255057281,-0.9736328,-0.016601562,0.24511719,22.1875,-21.375,-16.8125,0.0,0.0,0.0
1696255057326,-0.94433594,0.0234375,0.23925781,28.78125,-22.8125,-9.1875,0.0,0.0,0.0
1696255057404,-0.95703125,0.040039062,0.234375,23.78125,-16.96875,-0.75,0.0,0.0,0.0
1696255057406,-0.96972656,0.021484375,0.17773438,7.90625,-8.1875,-2.71875,0.0,0.0,0.0
1696255057449,-0.9765625,0.034179688,0.17382812,14.125,-4.09375,-5.34375,0.0,0.0,0.0
1696255057483,-0.95703125,0.034179688,0.25195312,5.90625,-1.78125,-7.15625,0.0,0.0,0.0
1696255057528,-0.96777344,-0.0048828125,0.25097656,-8.125,-3.21875,-10.53125,-49.1875,20.5625,-225.0625
1696255057562,-0.95214844,-0.021484375,0.21484375,-7.78125,-2.4375,-9.375,0.0,0.0,0.0
1696255057606,-0.9121094,-0.0390625,0.23925781,-4.65625,-3.46875,-4.65625,0.0,0.0,0.0
1696255057663,-0.87402344,-0.051757812,0.23730469,-0.5,-3.96875,-3.0625,0.0,0.0,0.0
1696255057686,-0.9355469,-0.04296875,0.26660156,-4.65625,7.625,-3.625,0.0,0.0,0.0
1696255057720,-0.9785156,-0.018554688,0.234375,2.40625,14.15625,-1.3125,0.0,0.0,0.0
1696255057764,-1.0009766,-0.0087890625,0.21875,-1.125,15.03125,-0.28125,0.0,0.0,0.0
1696255057809,-1.0429688,0.0546875,0.19628906,-10.65625,19.09375,3.8125,0.0,0.0,0.0
1696255057843,-1.0712891,0.037109375,0.18652344,-6.96875,18.0625,7.53125,0.0,0.0,0.0
1696255057888,-1.0224609,-0.0029296875,0.23925781,6.875,10.0,3.875,0.0,0.0,0.0
1696255057922,-0.9404297,-0.07714844,0.20019531,-1.65625,3.0,2.0,0.0,0.0,0.0
1696255057967,-0.94628906,-0.083984375,0.14648438,-4.15625,6.84375,-0.03125,0.0,0.0,0.0
1696255058012,-1.0253906,-0.068359375,0.1953125,9.0625,12.875,-3.9375,-49.1875,21.3125,-227.75
1696255058045,-0.98339844,-0.05078125,0.22851562,10.125,12.9375,-6.90625,0.0,0.0,0.0
1696255058079,-0.9970703,-0.049804688,0.16015625,5.15625,8.5,-8.4375,0.0,0.0,0.0
1696255058124,-0.98339844,-0.037109375,0.14550781,5.78125,6.59375,-9.53125,0.0,0.0,0.0
1696255058170,-0.98828125,-0.049804688,0.140625,8.09375,5.3125,-8.625,0.0,0.0,0.0
1696255058204,-0.99609375,-0.037109375,0.12792969,8.78125,6.96875,-8.09375,0.0,0.0,0.0
1696255058249,-0.98535156,-0.009765625,0.12109375,2.0625,9.28125,-7.90625,0.0,0.0,0.0
1696255058283,-0.9765625,-0.041015625,0.13671875,-2.28125,7.15625,-6.90625,0.0,0.0,0.0
1696255058328,-0.9667969,-0.09082031,0.12890625,-2.875,10.375,-3.0,0.0,0.0,0.0
1696255058361,-0.96484375,-0.11328125,0.103515625,-7.53125,13.75,-0.15625,0.0,0.0,0.0
1696255058417,-1.0019531,-0.111328125,0.11816406,-5.5625,17.15625,-2.21875,0.0,0.0,0.0
1696255058440,-1.015625,-0.09472656,0.107421875,-8.6875,15.3125,-6.5,0.0,0.0,0.0
1696255058484,-1.0,-0.11816406,0.059570312,-11.5625,7.25,-6.375,0.0,0.0,0.0
1696255058529,-0.98339844,-0.14160156,0.015625,-9.65625,4.625,-4.25,-48.3125,17.0,-233.0
1696255058564,-0.99609375,-0.12988281,0.033203125,-8.9375,4.15625,-3.5,0.0,0.0,0.0
1696255058620,-1.0039062,-0.13085938,0.020507812,-10.40625,3.0,-2.21875,0.0,0.0,0.0
1696255058642,-1.0117188,-0.16015625,0.022460938,-9.375,-0.90625,-0.75,0.0,0.0,0.0
1696255058687,-1.0058594,-0.15429688,0.0146484375,-8.5625,-3.78125,-1.65625,0.0,0.0,0.0
1696255058721,-0.9970703,-0.16113281,0.038085938,-9.40625,-5.78125,-2.34375,0.0,0.0,0.0
1696255058765,-0.9863281,-0.16308594,0.038085938,-10.28125,-3.96875,-1.4375,0.0,0.0,0.0
1696255058799,-0.99316406,-0.16503906,0.021484375,-4.90625,-0.5,0.84375,0.0,0.0,0.0
1696255058845,-0.9892578,-0.15722656,0.048828125,2.34375,5.0625,3.15625,0.0,0.0,0.0
1696255058889,-0.99121094,-0.123046875,0.07421875,-0.9375,6.53125,7.0625,0.0,0.0,0.0
1696255058923,-1.0498047,-0.119140625,0.06640625,-6.375,0.375,9.6875,0.0,0.0,0.0
1696255058968,-0.98339844,-0.11816406,0.043945312,-11.3125,-4.875,7.53125,0.0,0.0,0.0
1696255059005,-0.98535156,-0.13476562,-0.021484375,-6.78125,-0.65625,6.1875,-49.0625,20.125,-233.75
1696255059047,-0.9658203,-0.15136719,0.013671875,0.15625,7.375,9.3125,0.0,0.0,0.0
1696255059081,-1.0224609,-0.08691406,0.06347656,-5.625,7.4375,10.78125,0.0,0.0,0.0
1696255059125,-0.9951172,-0.0029296875,0.0625,-11.0625,2.75,10.71875,0.0,0.0,0.0
1696255059159,-0.99121094,-0.024414062,0.043945312,-10.53125,2.125,11.5625,0.0,0.0,0.0
1696255059205,-0.9970703,-0.09375,0.08203125,-7.71875,-2.0,12.78125,0.0,0.0,0.0
1696255059249,-0.9921875,-0.09863281,0.076171875,-9.3125,-5.3125,11.875,0.0,0.0,0.0
1696255059283,-1.0029297,-0.072265625,0.03125,-2.78125,-1.78125,10.53125,0.0,0.0,0.0
1696255059328,-0.99316406,-0.041992188,0.08691406,0.53125,-0.96875,9.25,0.0,0.0,0.0
1696255059362,-1.0175781,-0.026367188,0.08105469,0.84375,-6.53125,8.78125,0.0,0.0,0.0
1696255059407,-1.0126953,-0.0068359375,0.057617188,1.6875,-10.0625,9.25,0.0,0.0,0.0
1696255059440,-1.0185547,0.0,0.0625,1.6875,-8.53125,8.28125,0.0,0.0,0.0
1696255059486,-1.0068359,-0.0146484375,0.10839844,1.375,-8.53125,5.59375,0.0,0.0,0.0
1696255059531,-0.9902344,0.0,0.12597656,3.34375,-10.3125,2.125,-50.25,24.1875,-234.9375
1696255059564,-1.0087891,0.0048828125,0.15722656,5.46875,-15.5,-1.65625,0.0,0.0,0.0
1696255059610,-1.0576172,-0.01953125,0.16894531,10.96875,-24.96875,-7.34375,0.0,0.0,0.0
1696255059643,-1.1074219,-0.021484375,0.21289062,16.09375,-35.21875,-13.21875,0.0,0.0,0.0
1696255059688,-1.0644531,-0.037109375,0.24316406,25.625,-44.3125,-18.46875,0.0,0.0,0.0
1696255059722,-0.97558594,-0.037109375,0.234375,28.84375,-45.96875,-21.6875,0.0,0.0,0.0
1696255059767,-0.88671875,0.020507812,0.14160156,37.5,-39.90625,-22.96875,0.0,0.0,0.0
1696255059801,-0.9267578,0.013671875,0.22265625,34.59375,-25.75,-13.03125,0.0,0.0,0.0
1696255059846,-0.9082031,-0.00390625,0.2529297,20.78125,-13.96875,-9.0625,0.0,0.0,0.0
1696255059879,-0.8847656,0.0087890625,0.19140625,14.125,2.4375,-7.71875,0.0,0.0,0.0
1696255059935,-0.85839844,-0.0126953125,0.23144531,-2.28125,13.3125,-5.28125,0.0,0.0,0.0
1696255059973,-0.9345703,-0.001953125,0.26953125,-11.875,19.84375,-5.34375,0.0,0.0,0.0
1696255060003,-0.9375,-0.0068359375,0.25683594,1.875,19.78125,-2.03125,-48.3125,18.3125,-226.5625
1696255060048,-0.9589844,-0.04296875,0.26171875,8.34375,12.03125,1.6875,0.0,0.0,0.0
1696255060082,-0.9501953,-0.038085938,0.28125,-6.1875,5.125,5.59375,0.0,0.0,0.0
1696255060127,-1.0986328,-0.009765625,0.20214844,-23.8125,6.84375,10.34375,0.0,0.0,0.0
1696255060163,-1.1230469,0.024414062,0.13476562,-5.5625,21.65625,8.9375,0.0,0.0,0.0
1696255060205,-0.96484375,-0.018554688,0.15039062,7.5625,19.40625,-2.65625,0.0,0.0,0.0
1696255060239,-0.9267578,-0.03125,0.21679688,8.28125,14.53125,-6.75,0.0,0.0,0.0
1696255060284,-0.9951172,-0.07324219,0.15039062,3.34375,14.21875,-9.3125,0.0,0.0,0.0
1696255060363,-1.0332031,-0.047851562,0.14550781,2.71875,8.25,-7.28125,0.0,0.0,0.0
1696255060365,-0.9765625,-0.06542969,0.15136719,4.0,5.25,-6.8125,0.0,0.0,0.0
1696255060408,-0.9628906,-0.080078125,0.14355469,1.875,4.46875,-6.5625,0.0,0.0,0.0
1696255060442,-0.9921875,-0.08691406,0.14453125,4.0625,8.53125,-6.5,0.0,0.0,0.0
1696255060487,-0.99121094,-0.1171875,0.13867188,2.59375,11.53125,-7.09375,0.0,0.0,0.0
1696255060531,-0.95214844,-0.1171875,0.119140625,-1.78125,14.03125,-5.40625,-47.375,18.1875,-230.125
1696255060566,-0.98828125,-0.10644531,0.11425781,-0.25,16.25,-3.1875,0.0,0.0,0.0
1696255060611,-0.99902344,-0.09765625,0.11621094,3.46875,17.34375,-5.875,0.0,0.0,0.0
1696255060645,-1.0097656,-0.08496094,0.087890625,-3.5625,20.8125,-5.34375,0.0,0.0,0.0
1696255060701,-0.9824219,-0.053710938,0.061523438,-13.375,20.625,-0.21875,0.0,0.0,0.0
1696255060723,-1.015625,-0.07128906,0.029296875,-17.53125,16.96875,3.9375,0.0,0.0,0.0
1696255060768,-1.0166016,-0.12988281,0.020507812,-15.03125,9.875,3.8125,0.0,0.0,0.0
1696255060802,-1.0009766,-0.16992188,0.005859375,-18.34375,1.28125,-0.375,0.0,0.0,0.0
1696255060848,-1.0087891,-0.16992188,-9.765625E-4,-22.125,-0.3125,-4.59375,0.0,0.0,0.0
1696255060881,-0.9824219,-0.18457031,0.022460938,-15.65625,-3.71875,-4.71875,0.0,0.0,0.0
1696255060926,-0.9785156,-0.20800781,0.041015625,-14.65625,-4.8125,-0.4375,0.0,0.0,0.0
1696255060971,-0.98828125,-0.18457031,0.033203125,-11.3125,-3.96875,1.4375,0.0,0.0,0.0
1696255061004,-0.9941406,-0.16992188,0.040039062,-5.21875,-2.625,0.90625,-47.125,18.9375,-234.9375
1696255061049,-0.9921875,-0.14160156,0.0625,-3.4375,-5.6875,0.34375,0.0,0.0,0.0
1696255061083,-0.9863281,-0.14648438,0.001953125,-4.0,-5.375,0.96875,0.0,0.0,0.0
1696255061128,-0.98535156,-0.14257812,-0.0087890625,-0.8125,-2.875,2.84375,0.0,0.0,0.0
1696255061162,-1.0078125,-0.12109375,0.032226562,-1.0,-2.3125,6.25,0.0,0.0,0.0
1696255061207,-1.0166016,-0.09863281,0.052734375,-2.53125,-3.46875,8.34375,0.0,0.0,0.0
1696255061240,-0.9941406,-0.123046875,0.07910156,-12.40625,-3.84375,10.53125,0.0,0.0,0.0
1696255061286,-1.03125,-0.076171875,0.055664062,-28.46875,-2.9375,8.8125,0.0,0.0,0.0
1696255061331,-0.9863281,-0.09277344,0.030273438,-31.75,-0.25,6.4375,0.0,0.0,0.0
1696255061364,-0.94921875,-0.1328125,0.026367188,-11.1875,3.90625,5.03125,0.0,0.0,0.0
1696255061409,-1.0048828,-0.09472656,0.009765625,-5.46875,11.59375,11.625,0.0,0.0,0.0
1696255061454,-0.9902344,-0.015625,0.06640625,-0.21875,6.96875,14.0,0.0,0.0,0.0
1696255061489,-0.9902344,-0.02734375,0.115234375,-8.03125,-4.875,13.28125,0.0,0.0,0.0
1696255061533,-1.0498047,-0.05078125,0.11035156,-14.125,-9.34375,13.34375,-48.625,21.5,-235.375
1696255061567,-1.0097656,-0.046875,0.072265625,-6.25,-13.65625,9.125,0.0,0.0,0.0
1696255061601,-1.0048828,-0.061523438,0.015625,-0.5625,-11.28125,5.78125,0.0,0.0,0.0
1696255061646,-0.9794922,-0.041992188,0.05859375,1.9375,-5.1875,6.1875,0.0,0.0,0.0
1696255061691,-0.9863281,-0.0146484375,0.09082031,2.84375,-2.875,7.90625,0.0,0.0,0.0
1696255061725,-1.0078125,-0.0107421875,0.103515625,6.5625,-5.6875,7.78125,0.0,0.0,0.0
1696255061769,-1.0107422,-0.024414062,0.09667969,10.40625,-12.625,6.5,0.0,0.0,0.0
1696255061803,-1.0107422,-0.020507812,0.09472656,12.1875,-17.28125,4.875,0.0,0.0,0.0
1696255061849,-1.015625,-0.009765625,0.11035156,15.53125,-24.21875,1.0,0.0,0.0,0.0
1696255061883,-1.0634766,-0.0048828125,0.17480469,20.5625,-28.0,-8.25,0.0,0.0,0.0
1696255061927,-1.0449219,0.01953125,0.2109375,27.6875,-35.875,-16.375,0.0,0.0,0.0
1696255061960,-1.0224609,0.0,0.27246094,33.3125,-41.1875,-20.59375,0.0,0.0,0.0
1696255062005,-0.92871094,0.005859375,0.1953125,41.65625,-38.9375,-22.84375,-48.4375,22.0625,-226.125
1696255062050,-0.90625,0.016601562,0.20214844,41.375,-24.46875,-16.25,0.0,0.0,0.0
1696255062084,-0.9355469,-0.037109375,0.20800781,23.84375,-10.125,-11.9375,0.0,0.0,0.0
1696255062129,-0.9091797,-0.001953125,0.2265625,13.28125,3.0,-16.0625,0.0,0.0,0.0
1696255062163,-0.9345703,0.022460938,0.2265625,2.96875,7.4375,-13.34375,0.0,0.0,0.0
1696255062219,-0.97265625,0.030273438,0.2607422,5.09375,3.53125,-11.5625,0.0,0.0,0.0
1696255062242,-0.9472656,-0.013671875,0.27734375,10.15625,-0.5625,-8.3125,0.0,0.0,0.0
1696255062287,-0.88378906,-0.0087890625,0.28125,-0.15625,-0.3125,-6.5625,0.0,0.0,0.0
1696255062320,-0.8330078,-0.020507812,0.2607422,-2.875,7.03125,-1.3125,0.0,0.0,0.0
1696255062366,-0.9091797,-0.06640625,0.2841797,-12.15625,12.4375,2.59375,0.0,0.0,0.0
1696255062411,-1.0126953,-0.05078125,0.2861328,-8.9375,11.0,8.78125,0.0,0.0,0.0
1696255062449,-1.3261719,-0.07324219,0.2109375,-5.5,18.75,15.0,0.0,0.0,0.0
1696255062489,-0.99316406,0.009765625,0.13378906,-7.78125,26.25,-0.5,0.0,0.0,0.0
1696255062523,-0.8574219,-0.026367188,0.22070312,12.90625,7.9375,-9.0625,-49.1875,19.25,-226.6875
1696255062568,-0.95703125,-0.13964844,0.171875,9.1875,18.1875,-8.5,0.0,0.0,0.0
1696255062613,-1.0566406,-0.09667969,0.15136719,12.5,16.59375,-3.8125,0.0,0.0,0.0
1696255062647,-0.9716797,-0.08203125,0.15332031,18.09375,8.125,-3.875,0.0,0.0,0.0
1696255062680,-0.9433594,-0.080078125,0.12792969,3.9375,7.9375,-5.53125,0.0,0.0,0.0
1696255062726,-0.9941406,-0.0703125,0.12695312,7.5,15.1875,-6.84375,0.0,0.0,0.0
1696255062770,-0.9873047,-0.0859375,0.14648438,10.46875,12.34375,-6.6875,0.0,0.0,0.0
1696255062804,-0.97558594,-0.107421875,0.10058594,3.65625,9.65625,-4.59375,0.0,0.0,0.0
1696255062849,-1.0039062,-0.099609375,0.07714844,0.53125,10.0,-5.53125,0.0,0.0,0.0
1696255062883,-1.0029297,-0.1015625,0.06542969,1.03125,10.6875,-8.25,0.0,0.0,0.0
1696255062928,-0.9746094,-0.10644531,0.049804688,-2.28125,11.40625,-5.53125,0.0,0.0,0.0
1696255062984,-1.0039062,-0.0859375,0.016601562,-5.09375,12.09375,-1.1875,0.0,0.0,0.0
1696255063007,-1.0175781,-0.12207031,0.05078125,-3.625,9.84375,-1.71875,-46.5,18.3125,-232.125
1696255063041,-0.9814453,-0.1328125,0.06542969,-13.03125,7.875,-2.90625,0.0,0.0,0.0
1696255063088,-1.0,-0.14746094,0.05859375,-19.0,6.09375,-0.9375,0.0,0.0,0.0
1696255063131,-1.0039062,-0.14257812,0.08691406,-13.9375,4.15625,0.96875,0.0,0.0,0.0
1696255063164,-1.0009766,-0.14941406,0.103515625,-11.875,2.375,1.8125,0.0,0.0,0.0
1696255063209,-0.99609375,-0.13769531,0.07324219,-13.375,1.34375,1.5625,0.0,0.0,0.0
1696255063243,-0.99609375,-0.11230469,0.068359375,-14.0625,0.84375,0.90625,0.0,0.0,0.0
1696255063288,-0.99316406,-0.1328125,0.052734375,-18.34375,-0.125,1.1875,0.0,0.0,0.0
1696255063323,-0.99609375,-0.15820312,0.041015625,-19.125,-1.84375,2.1875,0.0,0.0,0.0
1696255063367,-0.98828125,-0.18164062,0.028320312,-18.03125,-0.4375,2.84375,0.0,0.0,0.0
1696255063400,-0.99609375,-0.16308594,-0.0068359375,-10.46875,2.0625,1.5625,0.0,0.0,0.0
1696255063445,-0.97753906,-0.13769531,0.020507812,-4.40625,5.375,2.46875,0.0,0.0,0.0
1696255063491,-0.99316406,-0.12109375,0.030273438,-10.21875,5.8125,6.5625,0.0,0.0,0.0
1696255063525,-1.0097656,-0.09863281,0.0234375,-13.5625,1.03125,7.59375,-47.5625,18.625,-235.375
1696255063569,-1.0,-0.11230469,0.021484375,-15.59375,-1.875,9.9375,0.0,0.0,0.0
1696255063603,-1.0263672,-0.1328125,0.005859375,-15.65625,-6.40625,8.15625,0.0,0.0,0.0
1696255063650,-0.9628906,-0.08886719,0.013671875,-14.4375,-3.65625,5.03125,0.0,0.0,0.0
1696255063682,-1.0,-0.14453125,-0.017578125,-3.875,-4.21875,6.9375,0.0,0.0,0.0
1696255063738,-0.9921875,-0.12402344,0.0048828125,0.21875,-5.84375,7.53125,0.0,0.0,0.0
1696255063760,-1.0087891,-0.03515625,0.048828125,-8.6875,-3.28125,7.84375,0.0,0.0,0.0
1696255063806,-0.9863281,0.018554688,0.046875,-9.0625,-2.4375,7.90625,0.0,0.0,0.0
1696255063850,-0.99316406,-0.0390625,0.07421875,-5.9375,-3.78125,10.65625,0.0,0.0,0.0
1696255063884,-1.0166016,-0.059570312,0.09375,-4.65625,-7.625,11.75,0.0,0.0,0.0
1696255063929,-1.0117188,-0.034179688,0.06542969,-10.15625,-6.34375,9.125,0.0,0.0,0.0
1696255063963,-0.96972656,-0.068359375,0.09765625,-9.125,-5.125,7.46875,0.0,0.0,0.0
1696255064008,-0.99316406,-0.046875,0.07910156,-3.0625,-5.78125,7.375,-47.6875,21.8125,-234.625
1696255064042,-0.99902344,-0.0078125,0.055664062,1.3125,-6.09375,7.25,0.0,0.0,0.0
1696255064087,-0.99609375,-0.0107421875,0.076171875,0.34375,-8.53125,8.9375,0.0,0.0,0.0
1696255064121,-1.0126953,-0.0107421875,0.09667969,-0.3125,-8.96875,9.5,0.0,0.0,0.0
1696255064165,-0.9970703,0.0,0.09472656,2.0625,-8.1875,7.71875,0.0,0.0,0.0
1696255064211,-1.0332031,0.017578125,0.13574219,1.03125,-8.84375,3.9375,0.0,0.0,0.0
1696255064245,-1.0136719,-0.001953125,0.15820312,0.34375,-13.84375,-1.5,0.0,0.0,0.0
1696255064289,-1.0634766,-0.005859375,0.17578125,10.21875,-22.59375,-7.71875,0.0,0.0,0.0
1696255064323,-1.0683594,0.00390625,0.25097656,21.40625,-29.1875,-11.9375,0.0,0.0,0.0
1696255064368,-1.0253906,-0.0107421875,0.21289062,31.40625,-39.5,-16.125,0.0,0.0,0.0
1696255064402,-0.91308594,-0.02734375,0.18261719,32.3125,-44.0,-20.46875,0.0,0.0,0.0
1696255064447,-0.94921875,0.022460938,0.20703125,45.9375,-32.09375,-13.03125,0.0,0.0,0.0
1696255064503,-0.83691406,0.016601562,0.18359375,29.28125,-13.65625,-6.0625,0.0,0.0,0.0
1696255064525,-0.9121094,0.020507812,0.21679688,-3.6875,5.875,-7.96875,-48.3125,22.6875,-227.3125
1696255064571,-0.9345703,0.07519531,0.16015625,7.59375,13.75,-5.34375,0.0,0.0,0.0
1696255064604,-0.9589844,0.046875,0.21484375,5.65625,15.625,-1.25,0.0,0.0,0.0
1696255064650,-0.9638672,-0.046875,0.2841797,-7.53125,13.78125,-6.8125,0.0,0.0,0.0
1696255064683,-0.9589844,-0.03125,0.30273438,-15.84375,6.90625,-11.75,0.0,0.0,0.0
1696255064728,-0.88671875,-0.046875,0.27734375,-2.53125,4.59375,-9.84375,0.0,0.0,0.0
1696255064762,-0.94433594,-0.1171875,0.31933594,-24.1875,2.4375,-5.40625,0.0,0.0,0.0
1696255064807,-1.1855469,-0.028320312,0.19433594,-2.40625,2.5,6.5625,0.0,0.0,0.0
1696255064840,-1.0800781,0.032226562,0.11621094,19.4375,21.0,2.25,0.0,0.0,0.0
1696255064886,-0.90234375,-0.00390625,0.21484375,23.84375,11.40625,-8.5,0.0,0.0,0.0
1696255064930,-0.9238281,-0.08300781,0.171875,5.21875,19.28125,-11.0625,0.0,0.0,0.0
1696255064967,-1.0253906,-0.05078125,0.111328125,1.5,19.03125,-4.78125,0.0,0.0,0.0
1696255065009,-1.0117188,-0.055664062,0.12988281,15.25,12.34375,-1.65625,-46.375,18.5,-230.125
1696255065043,-0.9667969,-0.09277344,0.13769531,6.6875,10.0,-5.15625,0.0,0.0,0.0
1696255065088,-0.9746094,-0.10449219,0.095703125,2.3125,12.875,-5.40625,0.0,0.0,0.0
1696255065122,-1.0117188,-0.09667969,0.09667969,4.0625,15.4375,-7.53125,0.0,0.0,0.0
1696255065167,-0.9902344,-0.11328125,0.095703125,2.71875,13.25,-7.65625,0.0,0.0,0.0
1696255065207,-0.9921875,-0.099609375,0.0703125,-1.96875,13.78125,-6.125,0.0,0.0,0.0
1696255065257,-0.9765625,-0.12207031,0.068359375,-3.875,12.9375,-4.71875,0.0,0.0,0.0
1696255065291,-0.98535156,-0.15527344,0.07519531,-1.375,10.25,-2.90625,0.0,0.0,0.0
1696255065324,-0.99609375,-0.14355469,0.026367188,-2.84375,11.59375,-1.1875,0.0,0.0,0.0
1696255065369,-0.99902344,-0.11328125,0.0126953125,-8.5,13.96875,-1.5625,0.0,0.0,0.0
1696255065403,-1.0185547,-0.10644531,0.018554688,-11.6875,8.125,-1.71875,0.0,0.0,0.0
1696255065448,-1.0107422,-0.09667969,0.015625,-12.15625,0.78125,-1.125,0.0,0.0,0.0
1696255065482,-1.0097656,-0.12402344,-9.765625E-4,-13.5,-4.21875,0.46875,0.0,0.0,0.0
1696255065527,-1.0068359,-0.13574219,0.029296875,-14.375,-7.25,-0.5,-46.375,19.5625,-234.625
1696255065560,-0.99121094,-0.15332031,0.034179688,-18.5,-6.21875,-1.78125,0.0,0.0,0.0
1696255065606,-0.9980469,-0.15820312,0.022460938,-16.1875,-5.25,1.625,0.0,0.0,0.0
1696255065651,-0.9863281,-0.20019531,0.0068359375,-4.78125,-4.75,2.96875,0.0,0.0,0.0
1696255065685,-0.9824219,-0.21191406,0.02734375,-3.0,1.53125,1.0625,0.0,0.0,0.0
1696255065730,-0.99609375,-0.16308594,0.037109375,-7.21875,3.84375,1.5625,0.0,0.0,0.0
1696255065763,-1.0205078,-0.11621094,0.038085938,0.21875,0.125,6.03125,0.0,0.0,0.0
1696255065809,-1.0078125,-0.095703125,0.032226562,-0.4375,-3.90625,9.6875,0.0,0.0,0.0
1696255065845,-1.0107422,-0.06640625,0.056640625,-11.0,-6.21875,9.5625,0.0,0.0,0.0
1696255065887,-0.9921875,-0.115234375,0.06542969,-15.15625,-3.71875,7.78125,0.0,0.0,0.0
1696255065921,-0.98339844,-0.17089844,0.021484375,-9.90625,-4.6875,9.75,0.0,0.0,0.0
1696255065966,-0.9794922,-0.17871094,0.0068359375,-1.5625,-2.625,8.59375,0.0,0.0,0.0
1696255066022,-0.98046875,-0.059570312,0.055664062,-1.0,5.75,5.84375,-46.625,21.0625,-234.625
1696255066045,-0.99902344,-0.005859375,0.07910156,-1.59375,7.5,7.53125,0.0,0.0,0.0
1696255066089,-0.99902344,-0.015625,0.109375,-6.78125,-0.65625,12.0,0.0,0.0,0.0
1696255066124,-1.0087891,-0.045898438,0.099609375,-6.125,-9.34375,15.0,0.0,0.0,0.0
1696255066169,-1.0048828,-0.07714844,0.07128906,-8.1875,-8.53125,11.875,0.0,0.0,0.0
1696255066202,-0.9824219,-0.08203125,0.09082031,-8.4375,-5.625,7.1875,0.0,0.0,0.0
1696255066247,-0.99121094,-0.052734375,0.0859375,-1.90625,-4.21875,6.3125,0.0,0.0,0.0
1696255066281,-0.9970703,-0.03515625,0.08886719,2.96875,-2.9375,7.96875,0.0,0.0,0.0
1696255066325,-1.0136719,-0.009765625,0.09375,-1.1875,-3.65625,9.375,0.0,0.0,0.0
1696255066370,-1.0068359,0.0087890625,0.087890625,-3.0,-5.0,8.53125,0.0,0.0,0.0
1696255066404,-1.0009766,-0.0048828125,0.08984375,-1.5625,-6.40625,7.1875,0.0,0.0,0.0
1696255066449,-1.0195312,0.00390625,0.109375,-0.625,-9.09375,5.28125,0.0,0.0,0.0
1696255066483,-0.99902344,-0.0029296875,0.10839844,0.15625,-11.34375,4.25,0.0,0.0,0.0
1696255066528,-1.0244141,0.0078125,0.13671875,3.53125,-14.90625,3.34375,-48.4375,24.1875,-233.625
1696255066562,-1.015625,0.0029296875,0.1328125,9.3125,-21.96875,-0.5,0.0,0.0,0.0
1696255066606,-1.0351562,0.0068359375,0.14941406,9.875,-24.0,-5.21875,0.0,0.0,0.0
1696255066641,-1.0810547,0.0087890625,0.20019531,18.21875,-28.5625,-12.78125,0.0,0.0,0.0
1696255066686,-1.0761719,-0.005859375,0.25,21.46875,-39.3125,-17.40625,0.0,0.0,0.0
1696255066731,-0.94433594,0.016601562,0.2529297,25.25,-39.5625,-25.09375,0.0,0.0,0.0
1696255066775,-0.90527344,0.03515625,0.203125,36.40625,-36.75,-22.0,0.0,0.0,0.0
1696255066811,-0.8457031,0.0087890625,0.19824219,26.15625,-22.09375,-9.3125,0.0,0.0,0.0
1696255066849,-0.9042969,-0.053710938,0.26464844,2.0,-7.375,-21.1875,0.0,0.0,0.0
1696255066888,-0.87597656,-0.048828125,0.2626953,-9.1875,9.28125,-23.9375,0.0,0.0,0.0
1696255066922,-0.8798828,0.022460938,0.2763672,-14.4375,18.9375,-17.90625,0.0,0.0,0.0
1696255066967,-0.8671875,0.0029296875,0.2265625,-6.4375,18.1875,-7.53125,0.0,0.0,0.0
1696255067022,-0.92871094,-0.030273438,0.27441406,2.59375,13.0,2.84375,-47.375,20.5625,-227.0
1696255067045,-1.1523438,-0.08691406,0.3076172,1.625,4.8125,11.28125,0.0,0.0,0.0
1696255067091,-1.1503906,-0.103515625,0.24316406,13.46875,0.96875,4.75,0.0,0.0,0.0
1696255067124,-0.93066406,-0.0126953125,0.15917969,1.4375,5.5,-1.625,0.0,0.0,0.0
1696255067169,-0.8779297,-0.0078125,0.16699219,3.6875,15.8125,-3.8125,0.0,0.0,0.0
1696255067203,-0.9765625,-0.05859375,0.22949219,12.5,26.96875,-3.625,0.0,0.0,0.0
1696255067248,-1.0322266,-0.07519531,0.21484375,1.6875,25.5,1.5625,0.0,0.0,0.0
1696255067282,-1.0068359,-0.06640625,0.203125,3.875,11.96875,3.15625,0.0,0.0,0.0
1696255067327,-0.9658203,-0.078125,0.1640625,5.90625,14.09375,-0.5,0.0,0.0,0.0
1696255067361,-1.0019531,-0.09082031,0.17089844,9.25,13.78125,-7.09375,0.0,0.0,0.0
1696255067406,-1.0087891,-0.12792969,0.1953125,12.90625,9.46875,-9.65625,0.0,0.0,0.0
1696255067450,-0.9667969,-0.10546875,0.15039062,2.40625,8.59375,-9.0,0.0,0.0,0.0
1696255067484,-0.9785156,-0.07714844,0.11425781,0.03125,8.1875,-6.5,0.0,0.0,0.0
1696255067540,-0.98535156,-0.076171875,0.11621094,2.78125,13.0625,-5.40625,-45.75,19.0625,-230.625
1696255067563,-0.9814453,-0.08984375,0.09375,-3.5625,13.1875,-2.9375,0.0,0.0,0.0
1696255067608,-0.9814453,-0.08886719,0.0625,-9.78125,12.75,-0.75,0.0,0.0,0.0
1696255067642,-0.99316406,-0.11035156,0.055664062,-9.71875,13.0,1.375,0.0,0.0,0.0
1696255067687,-1.0126953,-0.12792969,0.0390625,-13.625,11.53125,2.125,0.0,0.0,0.0
1696255067721,-1.0087891,-0.123046875,0.032226562,-16.3125,7.875,0.03125,0.0,0.0,0.0
1696255067766,-0.9902344,-0.13085938,0.029296875,-18.40625,3.71875,-0.625,0.0,0.0,0.0
1696255067811,-1.0175781,-0.14355469,0.030273438,-16.9375,-0.0625,-1.625,0.0,0.0,0.0
1696255067844,-0.9921875,-0.15820312,0.032226562,-15.53125,-1.34375,-2.9375,0.0,0.0,0.0
1696255067889,-0.9794922,-0.18164062,0.017578125,-16.625,1.40625,-0.6875,0.0,0.0,0.0
1696255067923,-0.99316406,-0.16796875,0.01171875,-10.21875,1.96875,1.0,0.0,0.0,0.0
1696255067968,-1.0039062,-0.13183594,0.0,-10.34375,6.40625,0.40625,0.0,0.0,0.0
1696255068002,-1.0029297,-0.125,0.01953125,-12.53125,5.5625,1.1875,-46.0625,19.5625,-234.1875
1696255068047,-1.0009766,-0.16992188,0.00390625,-12.46875,2.1875,3.09375,0.0,0.0,0.0
1696255068092,-0.99609375,-0.18261719,-0.020507812,-4.71875,2.125,5.15625,0.0,0.0,0.0
1696255068125,-0.99902344,-0.16601562,0.0078125,3.03125,3.25,7.78125,0.0,0.0,0.0
1696255068171,-1.0224609,-0.15527344,0.029296875,4.3125,0.3125,10.65625,0.0,0.0,0.0
1696255068204,-0.9951172,-0.080078125,0.052734375,-3.5625,-2.8125,9.375,0.0,0.0,0.0
1696255068249,-1.0,-0.068359375,0.0390625,-8.125,-2.0,8.78125,0.0,0.0,0.0
1696255068294,-0.9921875,-0.09375,0.021484375,-5.5,-0.90625,7.25,0.0,0.0,0.0
1696255068328,-0.99316406,-0.103515625,0.017578125,-8.8125,-1.34375,8.46875,0.0,0.0,0.0
1696255068362,-1.0029297,-0.044921875,0.043945312,-3.0625,-2.375,6.8125,0.0,0.0,0.0
1696255068407,-0.9873047,-0.024414062,0.06542969,-6.96875,-5.125,8.59375,0.0,0.0,0.0
1696255068452,-0.98046875,-0.046875,0.09863281,-12.34375,-8.0625,10.40625,0.0,0.0,0.0
1696255068486,-1.0107422,-0.07128906,0.07910156,-9.40625,-10.3125,10.65625,0.0,0.0,0.0
1696255068530,-1.0019531,-0.059570312,0.059570312,-5.15625,-6.90625,8.59375,-47.125,22.375,-236.3125
1696255068564,-0.98828125,-0.046875,0.056640625,-4.71875,-6.78125,6.9375,0.0,0.0,0.0
1696255068609,-0.98828125,-0.01953125,0.06542969,-3.0625,-5.1875,7.0625,0.0,0.0,0.0
1696255068643,-1.0029297,-0.0029296875,0.07421875,-7.09375,-4.46875,8.40625,0.0,0.0,0.0
1696255068722,-1.0097656,-0.00390625,0.06933594,-6.3125,-6.21875,9.75,0.0,0.0,0.0
1696255068734,-1.0048828,-0.018554688,0.09472656,-6.90625,-7.4375,8.9375,0.0,0.0,0.0
1696255068767,-1.0048828,-0.0078125,0.08300781,-5.5,-8.0625,7.59375,0.0,0.0,0.0
1696255068812,-1.0009766,-0.018554688,0.09667969,-0.75,-10.8125,7.125,0.0,0.0,0.0
1696255068846,-1.0136719,-0.0048828125,0.13085938,0.03125,-10.9375,6.5,0.0,0.0,0.0
1696255068924,-1.0664062,0.0390625,0.1015625,12.78125,-11.15625,2.0,0.0,0.0,0.0
1696255068926,-1.0244141,-0.0107421875,0.15039062,16.53125,-12.3125,-2.46875,0.0,0.0,0.0
1696255068970,-1.0556641,0.025390625,0.20117188,8.9375,-20.03125,-2.40625,0.0,0.0,0.0
1696255069014,-1.0546875,0.032226562,0.22363281,14.5625,-32.65625,-3.875,-47.375,23.875,-232.25
1696255069060,-0.95996094,0.0107421875,0.19726562,28.65625,-42.25,-9.3125,0.0,0.0,0.0
1696255069081,-0.90234375,0.024414062,0.1953125,36.96875,-40.03125,-9.84375,0.0,0.0,0.0
1696255069127,-0.88378906,-0.0068359375,0.23046875,25.125,-30.53125,-6.375,0.0,0.0,0.0
1696255069172,-0.9121094,0.049804688,0.22167969,9.25,-4.8125,-2.46875,0.0,0.0,0.0
1696255069205,-0.93066406,0.01953125,0.20605469,-2.9375,5.1875,-6.90625,0.0,0.0,0.0
1696255069285,-0.97558594,0.04296875,0.21484375,-11.875,10.75,-14.5625,0.0,0.0,0.0
1696255069296,-0.9824219,0.02734375,0.28027344,-2.03125,12.8125,-16.0625,0.0,0.0,0.0
1696255069330,-0.9355469,0.028320312,0.2705078,0.09375,2.9375,-13.03125,0.0,0.0,0.0
1696255069364,-0.8925781,0.021484375,0.2529297,5.21875,-1.875,-9.71875,0.0,0.0,0.0
1696255069408,-0.859375,-0.048828125,0.19238281,17.5625,6.40625,-3.625,0.0,0.0,0.0
1696255069442,-0.98535156,-0.08203125,0.29492188,6.875,7.15625,-6.5,0.0,0.0,0.0
1696255069487,-1.1962891,-0.08105469,0.2890625,15.59375,9.34375,-10.59375,0.0,0.0,0.0
1696255069532,-1.0224609,0.03515625,0.19433594,-0.875,10.0,-3.875,-46.625,22.375,-229.375
1696255069565,-0.86035156,0.078125,0.15625,-21.1875,0.84375,-3.8125,0.0,0.0,0.0
1696255069610,-1.0722656,0.001953125,0.1171875,25.5,4.625,-2.53125,0.0,0.0,0.0
1696255069644,-0.9902344,-0.083984375,0.22363281,30.875,22.28125,-6.125,0.0,0.0,0.0
1696255069690,-0.9814453,-0.08886719,0.26171875,6.6875,1.65625,-5.03125,0.0,0.0,0.0
1696255069723,-0.99609375,-0.06738281,0.13671875,5.59375,2.9375,-5.09375,0.0,0.0,0.0
1696255069768,-0.97558594,-0.044921875,0.14746094,14.5,7.375,-11.5,0.0,0.0,0.0
1696255069824,-0.97558594,-0.07519531,0.17675781,13.65625,8.3125,-9.84375,0.0,0.0,0.0
1696255069847,-1.0009766,-0.08691406,0.15039062,5.71875,8.125,-8.625,0.0,0.0,0.0
1696255069892,-0.9423828,-0.076171875,0.09765625,-3.625,15.5,-4.53125,0.0,0.0,0.0
1696255069926,-0.95214844,-0.060546875,0.06640625,-6.0625,26.4375,3.09375,0.0,0.0,0.0
1696255069971,-1.0,-0.064453125,0.09375,-3.6875,29.0,5.40625,0.0,0.0,0.0
1696255070008,-1.0009766,-0.11035156,0.12402344,-3.6875,22.84375,1.0,-45.75,20.875,-231.0625
1696255070049,-0.9892578,-0.125,0.103515625,-7.28125,15.8125,-2.53125,0.0,0.0,0.0
1696255070083,-1.0087891,-0.14453125,0.07714844,-5.09375,14.03125,-4.65625,0.0,0.0,0.0
1696255070128,-1.0058594,-0.10546875,0.057617188,-5.40625,12.15625,-5.15625,0.0,0.0,0.0
1696255070162,-1.0087891,-0.09375,0.06347656,-6.5,7.3125,-4.0,0.0,0.0,0.0
1696255070207,-1.0058594,-0.11035156,0.024414062,-10.46875,3.40625,-2.53125,0.0,0.0,0.0
1696255070252,-1.0048828,-0.111328125,0.041015625,-12.84375,-0.4375,-3.3125,0.0,0.0,0.0
1696255070286,-0.9921875,-0.140625,0.037109375,-17.84375,-0.96875,-3.75,0.0,0.0,0.0
1696255070330,-0.9951172,-0.15136719,0.0390625,-20.28125,-0.5625,-2.53125,0.0,0.0,0.0
1696255070368,-0.9921875,-0.16113281,0.03125,-19.5625,1.15625,0.03125,0.0,0.0,0.0
1696255070410,-1.0107422,-0.13769531,0.021484375,-17.65625,1.34375,0.21875,0.0,0.0,0.0
1696255070443,-1.0117188,-0.14648438,0.03515625,-17.46875,-1.59375,-1.0625,0.0,0.0,0.0
1696255070488,-0.99121094,-0.15527344,0.018554688,-17.1875,-5.0625,-0.375,0.0,0.0,0.0
1696255070533,-0.9902344,-0.17285156,0.013671875,-10.15625,-7.03125,2.53125,-46.8125,20.125,-234.0625
1696255070578,-1.0039062,-0.15234375,0.021484375,-4.125,-7.875,5.40625,0.0,0.0,0.0
1696255070612,-0.984375,-0.13769531,0.03125,-1.375,-3.0625,9.8125,0.0,0.0,0.0
1696255070645,-0.9716797,-0.16015625,0.017578125,6.5,-0.5,16.34375,0.0,0.0,0.0
1696255070690,-0.9746094,-0.1015625,0.040039062,7.71875,7.15625,13.28125,0.0,0.0,0.0
1696255070724,-1.0214844,-0.06347656,0.048828125,-4.53125,7.625,11.75,0.0,0.0,0.0
1696255070769,-1.0068359,-0.045898438,0.03515625,-5.9375,-0.65625,7.59375,0.0,0.0,0.0
1696255070803,-0.98339844,-0.107421875,0.06738281,-11.5625,-3.34375,5.84375,0.0,0.0,0.0
1696255070848,-1.0,-0.064453125,0.060546875,1.0625,-4.28125,2.84375,0.0,0.0,0.0
1696255070882,-0.99902344,-0.0390625,0.08691406,-2.53125,-5.1875,7.90625,0.0,0.0,0.0
1696255070927,-0.9921875,-0.0234375,0.099609375,-11.5,-5.25,10.84375,0.0,0.0,0.0
1696255070971,-1.0087891,-0.044921875,0.07324219,-9.96875,-5.78125,11.09375,0.0,0.0,0.0
1696255071006,-1.0117188,-0.036132812,0.044921875,-8.625,-4.9375,11.21875,-46.8125,21.5,-235.375
1696255071051,-1.0048828,-0.018554688,0.043945312,-5.6875,-6.59375,8.21875,0.0,0.0,0.0
1696255071084,-0.99316406,-9.765625E-4,0.043945312,-5.46875,-5.125,6.625,0.0,0.0,0.0
1696255071129,-1.0009766,0.01171875,0.05078125,-9.53125,-6.21875,6.75,0.0,0.0,0.0
1696255071163,-0.9873047,0.015625,0.064453125,-11.25,-8.65625,8.65625,0.0,0.0,0.0
1696255071208,-0.9970703,0.0,0.0625,-10.28125,-7.6875,10.21875,0.0,0.0,0.0
1696255071241,-1.0195312,0.001953125,0.087890625,-5.75,-5.90625,10.53125,0.0,0.0,0.0
1696255071287,-1.0224609,0.0048828125,0.11230469,-3.75,-5.90625,7.125,0.0,0.0,0.0
1696255071343,-1.0214844,9.765625E-4,0.15332031,-2.53125,-9.6875,3.9375,0.0,0.0,0.0
1696255071366,-1.0273438,-0.005859375,0.17285156,3.34375,-15.125,2.28125,0.0,0.0,0.0
1696255071411,-1.0351562,0.001953125,0.20117188,9.0,-19.21875,2.71875,0.0,0.0,0.0
1696255071444,-1.0048828,0.0126953125,0.20605469,10.90625,-23.0,0.34375,0.0,0.0,0.0
1696255071489,-1.0302734,0.0107421875,0.19042969,18.59375,-28.4375,-4.0,0.0,0.0,0.0
1696255071534,-0.9921875,0.0048828125,0.2421875,19.15625,-30.8125,-15.53125,-46.5,24.8125,-232.125
1696255071568,-0.8857422,0.044921875,0.22851562,29.09375,-34.3125,-23.53125,0.0,0.0,0.0
1696255071602,-0.94628906,0.091796875,0.203125,53.6875,-35.875,-18.15625,0.0,0.0,0.0
1696255071647,-0.9140625,0.024414062,0.21289062,23.90625,-28.8125,-4.90625,0.0,0.0,0.0
1696255071691,-0.9472656,0.041992188,0.23144531,5.96875,-11.71875,-7.28125,0.0,0.0,0.0
1696255071726,-0.9355469,0.061523438,0.19140625,11.09375,-0.84375,-14.625,0.0,0.0,0.0
1696255071770,-0.8808594,0.052734375,0.23828125,1.625,12.9375,-14.25,0.0,0.0,0.0
1696255071804,-0.9160156,0.055664062,0.25195312,-17.0,21.5,-13.875,0.0,0.0,0.0
1696255071850,-0.9042969,0.0625,0.26757812,-34.09375,25.9375,-12.90625,0.0,0.0,0.0
1696255071883,-0.92871094,0.033203125,0.22949219,-20.28125,17.59375,-5.21875,0.0,0.0,0.0
1696255071928,-1.0390625,-0.13183594,0.34472656,-10.8125,9.59375,-1.1875,0.0,0.0,0.0
1696255071962,-1.21875,-0.13964844,0.24609375,-2.03125,-3.0,10.34375,0.0,0.0,0.0
1696255072007,-0.94140625,0.08496094,0.095703125,2.46875,13.125,5.78125,-46.5,21.1875,-230.0
1696255072051,-0.91503906,-9.765625E-4,0.16503906,27.75,7.6875,0.34375,0.0,0.0,0.0
1696255072097,-0.9736328,-0.091796875,0.19726562,14.0625,29.0625,-10.65625,0.0,0.0,0.0
1696255072131,-1.0136719,-0.059570312,0.17871094,-3.875,26.84375,-10.21875,0.0,0.0,0.0
1696255072164,-1.0,-0.037109375,0.15917969,10.84375,5.8125,-0.9375,0.0,0.0,0.0
1696255072209,-0.99316406,-0.05859375,0.12011719,12.4375,11.46875,-1.71875,0.0,0.0,0.0
1696255072243,-0.9980469,-0.099609375,0.16796875,10.28125,9.28125,-6.5,0.0,0.0,0.0
1696255072289,-0.97558594,-0.11425781,0.13183594,4.4375,9.65625,-8.75,0.0,0.0,0.0
1696255072322,-0.9863281,-0.09277344,0.05078125,5.28125,14.40625,-7.03125,0.0,0.0,0.0
1696255072367,-0.9814453,-0.07324219,0.083984375,7.78125,15.8125,-5.53125,0.0,0.0,0.0
1696255072412,-0.9970703,-0.072265625,0.08300781,4.375,17.53125,-4.125,0.0,0.0,0.0
1696255072446,-0.9873047,-0.061523438,0.06738281,-0.875,14.96875,-3.5,0.0,0.0,0.0
1696255072491,-1.0087891,-0.08496094,0.07421875,-2.40625,11.71875,-4.0625,0.0,0.0,0.0
1696255072524,-0.99902344,-0.111328125,0.060546875,-2.71875,9.34375,-5.34375,-45.625,20.5625,-234.625
1696255072569,-0.99902344,-0.111328125,0.048828125,-3.25,7.25,-5.40625,0.0,0.0,0.0
1696255072605,-1.0039062,-0.10644531,0.033203125,-2.875,5.25,-6.1875,0.0,0.0,0.0
1696255072648,-0.9892578,-0.10644531,0.041015625,-6.25,4.6875,-6.0625,0.0,0.0,0.0
1696255072682,-1.0019531,-0.10449219,0.025390625,-9.1875,3.40625,-4.53125,0.0,0.0,0.0
1696255072727,-0.9980469,-0.11230469,0.024414062,-11.625,2.9375,-3.5625,0.0,0.0,0.0
1696255072772,-1.0078125,-0.1171875,0.025390625,-13.875,0.4375,-3.875,0.0,0.0,0.0
1696255072806,-1.0039062,-0.12109375,0.033203125,-15.03125,-0.375,-3.8125,0.0,0.0,0.0
1696255072864,-0.9970703,-0.1171875,0.0107421875,-17.21875,-1.15625,-3.5625,0.0,0.0,0.0
1696255072884,-1.0058594,-0.13769531,0.0,-22.0625,-2.875,-2.34375,0.0,0.0,0.0
1696255072929,-0.9892578,-0.115234375,-0.01171875,-25.59375,-1.34375,-1.3125,0.0,0.0,0.0
1696255072963,-0.9951172,-0.13769531,-0.0107421875,-31.6875,-1.53125,-0.5,0.0,0.0,0.0
1696255073008,-0.98828125,-0.13867188,-0.018554688,-36.9375,-1.15625,0.40625,-44.5625,20.3125,-237.625
1696255073042,-0.99316406,-0.14550781,-0.03515625,-37.5625,-2.4375,2.25,0.0,0.0,0.0
1696255073087,-1.0039062,-0.16308594,-0.013671875,-32.90625,-4.46875,3.09375,0.0,0.0,0.0
1696255073131,-1.0029297,-0.171875,0.029296875,-34.1875,-7.75,2.59375,0.0,0.0,0.0
1696255073166,-1.0058594,-0.15527344,0.032226562,-34.6875,-11.15625,3.875,0.0,0.0,0.0
1696255073211,-0.97753906,-0.16015625,0.038085938,-36.09375,-13.71875,5.59375,0.0,0.0,0.0
1696255073244,-0.9902344,-0.18945312,0.046875,-33.34375,-12.21875,5.96875,0.0,0.0,0.0
1696255073289,-0.9970703,-0.18945312,0.034179688,-36.46875,-10.25,5.65625,0.0,0.0,0.0
1696255073323,-0.99316406,-0.14746094,0.041015625,-42.1875,-11.65625,3.53125,0.0,0.0,0.0
1696255073367,-0.98828125,-0.14453125,0.03515625,-48.90625,-12.8125,4.90625,0.0,0.0,0.0
1696255073401,-0.9707031,-0.16601562,0.0,-40.0,-17.40625,11.375,0.0,0.0,0.0
1696255073446,-0.984375,-0.17089844,0.07324219,-34.375,-20.03125,16.28125,0.0,0.0,0.0
1696255073492,-1.0361328,-0.08691406,0.09082031,-38.78125,-19.34375,14.6875,0.0,0.0,0.0
1696255073526,-0.984375,-0.053710938,0.08105469,-43.46875,-19.21875,11.6875,-46.625,25.25,-237.0625
1696255073571,-1.0117188,-0.057617188,0.048828125,-50.3125,-21.25,13.53125,0.0,0.0,0.0
1696255073615,-1.0244141,-0.028320312,0.10058594,-51.0,-25.15625,16.40625,0.0,0.0,0.0
1696255073649,-1.0234375,-0.016601562,0.08496094,-53.25,-31.3125,16.53125,0.0,0.0,0.0
1696255073683,-1.0068359,-0.001953125,0.08691406,-51.46875,-32.59375,14.5,0.0,0.0,0.0
1696255073730,-1.0068359,-0.0048828125,0.15527344,-57.53125,-29.71875,9.625,0.0,0.0,0.0
1696255073773,-0.99902344,0.0078125,0.19238281,-55.5,-28.1875,3.09375,0.0,0.0,0.0
1696255073807,-0.9550781,-0.076171875,0.24707031,-53.84375,-23.5,-1.71875,0.0,0.0,0.0
1696255073852,-1.0078125,-0.045898438,0.23925781,-41.03125,-18.96875,1.875,0.0,0.0,0.0
1696255073889,-1.0039062,-0.1015625,0.265625,-27.25,-20.9375,0.40625,0.0,0.0,0.0
1696255073931,-0.9189453,-0.13574219,0.421875,-19.5625,-24.15625,0.78125,0.0,0.0,0.0
1696255073964,-0.8808594,-0.030273438,0.35253906,0.59375,-29.71875,8.8125,0.0,0.0,0.0
1696255074009,-0.8828125,-0.029296875,0.3310547,-5.6875,-23.1875,25.125,-48.875,30.9375,-231.8125
1696255074044,-0.89746094,0.033203125,0.33496094,-22.125,-14.59375,33.3125,0.0,0.0,0.0
1696255074088,-0.99316406,0.04296875,0.3310547,-37.25,-7.375,27.1875,0.0,0.0,0.0
1696255074121,-0.91015625,0.11328125,0.2998047,-31.03125,-5.6875,30.75,0.0,0.0,0.0
1696255074166,-0.8769531,0.051757812,0.31640625,-42.875,-11.53125,37.4375,0.0,0.0,0.0
1696255074211,-0.89941406,0.018554688,0.32617188,-51.21875,-2.75,42.625,0.0,0.0,0.0
1696255074245,-0.859375,0.0107421875,0.39160156,-46.53125,4.59375,35.9375,0.0,0.0,0.0
1696255074291,-0.9589844,-0.016601562,0.35253906,-37.6875,12.875,22.25,0.0,0.0,0.0
1696255074324,-0.9746094,-0.041992188,0.390625,-27.90625,16.90625,12.625,0.0,0.0,0.0
1696255074380,-0.92285156,-0.11621094,0.328125,-23.40625,10.0625,-5.21875,0.0,0.0,0.0
1696255074403,-0.99121094,0.013671875,0.33691406,-14.90625,14.46875,-17.1875,0.0,0.0,0.0
1696255074448,-0.92871094,0.057617188,0.3173828,5.28125,9.71875,-12.15625,0.0,0.0,0.0
1696255074482,-0.9345703,0.08300781,0.26464844,-6.78125,7.375,-7.28125,0.0,0.0,0.0
1696255074527,-0.9785156,0.06738281,0.29101562,-18.21875,9.15625,-9.25,-48.125,38.4375,-232.25
1696255074572,-1.21875,0.0087890625,0.26660156,-13.875,10.9375,-13.15625,0.0,0.0,0.0
1696255074606,-0.91503906,0.051757812,0.27539062,2.0625,9.875,-7.03125,0.0,0.0,0.0
1696255074650,-0.89941406,0.0146484375,0.29882812,-11.5,6.59375,-2.09375,0.0,0.0,0.0
1696255074684,-0.96972656,-0.064453125,0.23144531,-13.5625,21.125,-1.78125,0.0,0.0,0.0
1696255074729,-0.96191406,-0.05859375,0.18945312,-5.8125,18.25,-5.28125,0.0,0.0,0.0
1696255074763,-1.0292969,-0.061523438,0.22753906,-5.15625,10.75,-3.9375,0.0,0.0,0.0
1696255074808,-0.9638672,-0.020507812,0.16894531,-9.90625,9.21875,-5.875,0.0,0.0,0.0
1696255074843,-0.97265625,-0.08886719,0.14550781,-8.5625,11.15625,-7.59375,0.0,0.0,0.0
1696255074887,-0.9736328,-0.109375,0.15722656,-9.40625,12.4375,-8.625,0.0,0.0,0.0
1696255074965,-0.9609375,-0.10449219,0.14453125,-9.1875,19.78125,-9.25,0.0,0.0,0.0
1696255074967,-0.9902344,-0.07128906,0.13085938,-7.03125,21.0625,-7.71875,0.0,0.0,0.0
1696255075011,-0.99316406,-0.06347656,0.11816406,-7.40625,18.5625,-4.46875,-49.9375,32.4375,-235.6875
1696255075044,-0.99902344,-0.078125,0.08300781,-12.53125,17.09375,-4.59375,0.0,0.0,0.0
1696255075112,-1.0068359,-0.080078125,0.05078125,-21.125,19.40625,-6.75,0.0,0.0,0.0
1696255075134,-1.0,-0.08300781,0.040039062,-25.15625,16.3125,-6.96875,0.0,0.0,0.0
1696255075168,-1.0048828,-0.09277344,0.034179688,-26.75,9.65625,-6.625,0.0,0.0,0.0
1696255075213,-1.0107422,-0.11328125,0.015625,-31.21875,5.9375,-7.65625,0.0,0.0,0.0
1696255075247,-1.0078125,-0.125,-0.022460938,-38.71875,3.65625,-6.84375,0.0,0.0,0.0
1696255075292,-1.0,-0.099609375,0.018554688,-36.34375,2.0625,-4.34375,0.0,0.0,0.0
1696255075337,-0.99121094,-0.111328125,0.0146484375,-40.5625,5.0,-4.0,0.0,0.0,0.0
1696255075370,-1.0009766,-0.12597656,9.765625E-4,-43.65625,6.03125,0.21875,0.0,0.0,0.0
1696255075404,-0.99121094,-0.13378906,0.032226562,-40.78125,4.15625,1.125,0.0,0.0,0.0
1696255075449,-0.9951172,-0.15625,0.0078125,-42.375,3.59375,-0.375,0.0,0.0,0.0
1696255075483,-1.0019531,-0.16113281,0.013671875,-44.15625,3.1875,-1.0,0.0,0.0,0.0
1696255075528,-0.99609375,-0.16015625,-9.765625E-4,-44.21875,-3.84375,0.40625,-49.1875,35.5625,-241.5625
1696255075573,-0.99121094,-0.16503906,-0.025390625,-43.1875,-6.34375,0.03125,0.0,0.0,0.0
1696255075607,-0.99121094,-0.18066406,-0.00390625,-46.59375,-7.75,1.8125,0.0,0.0,0.0
1696255075652,-1.0058594,-0.17773438,0.00390625,-46.28125,-9.53125,2.78125,0.0,0.0,0.0
1696255075685,-0.98535156,-0.13183594,0.00390625,-46.59375,-8.0,2.125,0.0,0.0,0.0
1696255075730,-0.98828125,-0.13183594,0.0029296875,-47.9375,-7.875,4.375,0.0,0.0,0.0
1696255075764,-0.9863281,-0.13378906,0.033203125,-48.78125,-5.90625,8.46875,0.0,0.0,0.0
1696255075809,-0.99121094,-0.18554688,0.018554688,-43.71875,-4.6875,12.25,0.0,0.0,0.0
1696255075843,-0.9902344,-0.26757812,0.00390625,-31.03125,-7.03125,9.1875,0.0,0.0,0.0
1696255075899,-1.0117188,-0.14941406,-0.02734375,-26.375,-8.53125,2.34375,0.0,0.0,0.0
1696255075933,-1.0097656,-0.021484375,9.765625E-4,-23.65625,-9.34375,-1.3125,0.0,0.0,0.0
1696255075967,-0.9746094,-0.015625,0.041992188,-29.5625,-9.75,1.9375,0.0,0.0,0.0
1696255076012,-1.0087891,-0.047851562,0.055664062,-32.375,-16.71875,7.59375,-49.9375,40.5625,-238.125
1696255076045,-1.0019531,-0.080078125,0.024414062,-36.09375,-9.8125,5.40625,0.0,0.0,0.0
1696255076091,-1.0009766,-0.09472656,0.09082031,-38.09375,-7.375,2.65625,0.0,0.0,0.0
1696255076124,-0.9951172,-0.08496094,0.06640625,-31.5625,-8.40625,4.25,0.0,0.0,0.0
1696255076169,-0.98535156,-0.06933594,0.09765625,-26.28125,-5.90625,7.3125,0.0,0.0,0.0
1696255076203,-0.9892578,-0.07421875,0.07910156,-30.1875,-8.125,5.53125,0.0,0.0,0.0
1696255076248,-1.0126953,-0.080078125,0.06640625,-33.28125,-7.1875,1.4375,0.0,0.0,0.0
1696255076293,-1.0,-0.051757812,0.095703125,-32.375,-11.46875,0.65625,0.0,0.0,0.0
1696255076327,-0.9736328,-0.036132812,0.032226562,-36.15625,-12.875,0.34375,0.0,0.0,0.0
1696255076405,-1.0244141,-0.022460938,0.02734375,-41.9375,-12.375,2.40625,0.0,0.0,0.0
1696255076407,-1.0087891,-0.0390625,0.038085938,-36.53125,-12.03125,4.625,0.0,0.0,0.0
1696255076451,-0.9941406,-0.076171875,0.034179688,-35.65625,-9.75,4.875,0.0,0.0,0.0
1696255076484,-1.0019531,-0.043945312,0.049804688,-36.75,-4.75,4.6875,0.0,0.0,0.0
1696255076529,-1.0234375,0.0048828125,0.109375,-41.78125,-11.09375,10.28125,-49.375,44.75,-231.0625
1696255076563,-1.0117188,0.036132812,0.12207031,-50.6875,-24.59375,21.34375,0.0,0.0,0.0
1696255076608,-1.0136719,0.053710938,0.13671875,-54.71875,-39.375,33.25,0.0,0.0,0.0
1696255076667,-0.97265625,0.030273438,0.16015625,-59.84375,-42.90625,44.21875,0.0,0.0,0.0
1696255076687,-0.9501953,0.026367188,0.17773438,-62.8125,-36.6875,49.34375,0.0,0.0,0.0
1696255076734,-0.95703125,0.0087890625,0.12011719,-64.90625,-14.09375,53.25,0.0,0.0,0.0
1696255076765,-0.95410156,0.028320312,0.11816406,-57.40625,3.96875,46.0625,0.0,0.0,0.0
1696255076810,-0.9248047,0.10449219,0.14746094,-52.09375,23.3125,37.5625,0.0,0.0,0.0
1696255076845,-0.9423828,0.171875,0.18945312,-48.90625,30.53125,32.4375,0.0,0.0,0.0
1696255076892,-0.9951172,0.12109375,0.2109375,-57.875,28.125,13.96875,0.0,0.0,0.0
1696255076923,-0.99902344,-0.022460938,0.16699219,-65.5,25.75,-12.15625,0.0,0.0,0.0
1696255076969,-0.99609375,-0.046875,0.17089844,-58.625,21.65625,-30.96875,0.0,0.0,0.0
1696255077013,-1.0546875,-0.0703125,0.23339844,-24.875,17.875,-33.53125,-48.0,49.6875,-224.125
1696255077047,-1.0732422,0.052734375,0.099609375,-24.3125,15.375,-17.28125,0.0,0.0,0.0
1696255077092,-0.9511719,0.080078125,0.13964844,-8.03125,1.21875,-4.34375,0.0,0.0,0.0
1696255077125,-0.96191406,-0.060546875,0.10058594,-24.375,0.5,-7.09375,0.0,0.0,0.0
1696255077170,-1.0195312,-0.083984375,0.06933594,-31.6875,4.6875,-15.03125,0.0,0.0,0.0
1696255077204,-0.98339844,-0.08203125,0.0625,-23.15625,3.3125,-17.53125,0.0,0.0,0.0
1696255077249,-0.9746094,-0.053710938,0.051757812,-23.15625,3.84375,-12.46875,0.0,0.0,0.0
1696255077283,-1.0224609,-0.123046875,0.060546875,-21.5625,-3.78125,-8.9375,0.0,0.0,0.0
1696255077328,-0.9892578,-0.109375,0.0625,-29.3125,1.65625,-11.5625,0.0,0.0,0.0
1696255077373,-1.0009766,-0.12011719,0.030273438,-25.40625,-0.4375,-10.40625,0.0,0.0,0.0
1696255077419,-0.99316406,-0.13671875,0.03515625,-26.09375,-0.5,-11.4375,0.0,0.0,0.0
1696255077464,-1.0107422,-0.13671875,0.029296875,-28.46875,-1.03125,-12.65625,0.0,0.0,0.0
1696255077486,-0.9824219,-0.11816406,0.0126953125,-27.90625,6.09375,-10.15625,0.0,0.0,0.0
1696255077531,-0.99316406,-0.103515625,0.037109375,-27.5625,7.09375,-5.09375,-49.375,45.0625,-223.875
1696255077566,-0.99609375,-0.119140625,0.038085938,-32.8125,5.125,-2.40625,0.0,0.0,0.0
1696255077610,-1.0058594,-0.13378906,0.078125,-36.09375,0.3125,-2.21875,0.0,0.0,0.0
1696255077648,-0.9892578,-0.15332031,0.040039062,-35.3125,-2.25,-3.0625,0.0,0.0,0.0
1696255077688,-1.0019531,-0.19824219,0.022460938,-30.84375,-4.46875,-2.15625,0.0,0.0,0.0
1696255077733,-0.9941406,-0.15234375,0.030273438,-29.1875,-1.71875,-2.34375,0.0,0.0,0.0
1696255077767,-0.9941406,-0.15722656,0.041015625,-29.0625,0.78125,0.28125,0.0,0.0,0.0
1696255077812,-0.97558594,-0.1484375,0.041992188,-28.28125,3.78125,2.59375,0.0,0.0,0.0
1696255077845,-1.0,-0.20214844,0.06542969,-28.65625,3.125,4.75,0.0,0.0,0.0
1696255077892,-0.99316406,-0.20117188,0.06933594,-24.8125,3.90625,5.21875,0.0,0.0,0.0
1696255077924,-0.984375,-0.17773438,0.07421875,-21.9375,7.25,5.09375,0.0,0.0,0.0
1696255077969,-1.0009766,-0.111328125,0.107421875,-21.9375,4.75,8.65625,0.0,0.0,0.0
1696255078014,-1.0283203,-0.11425781,0.044921875,-14.5,-0.5,5.96875,-48.4375,43.0625,-222.9375
1696255078048,-0.9746094,-0.12695312,-0.059570312,-14.1875,2.03125,2.59375,0.0,0.0,0.0
1696255078093,-0.9794922,-0.009765625,-0.041992188,-9.96875,2.75,-1.5,0.0,0.0,0.0
1696255078127,-0.98046875,-0.05078125,-0.018554688,-12.78125,3.71875,3.40625,0.0,0.0,0.0
1696255078183,-0.9873047,-0.083984375,-0.016601562,-12.15625,3.0625,8.03125,0.0,0.0,0.0
1696255078205,-1.0332031,-0.09472656,9.765625E-4,-9.3125,0.625,6.9375,0.0,0.0,0.0
1696255078250,-1.0195312,-0.06933594,0.0390625,-14.5625,-3.1875,2.59375,0.0,0.0,0.0
1696255078284,-0.9980469,-0.07519531,0.017578125,-13.09375,-8.0,0.71875,0.0,0.0,0.0
1696255078329,-0.98535156,-0.09667969,0.028320312,-4.53125,-8.71875,1.9375,0.0,0.0,0.0
1696255078363,-0.9863281,-0.09082031,0.0146484375,-0.625,-6.53125,3.53125,0.0,0.0,0.0
1696255078408,-1.0048828,-0.078125,0.018554688,-0.5625,-3.125,2.0625,0.0,0.0,0.0
1696255078453,-1.0087891,-0.05078125,0.025390625,-0.9375,-2.125,0.71875,0.0,0.0,0.0
1696255078487,-1.0009766,-0.040039062,0.032226562,-0.9375,-3.46875,0.65625,0.0,0.0,0.0
1696255078531,-0.9980469,-0.06738281,0.0126953125,-2.34375,-4.03125,1.6875,-48.125,43.8125,-220.25
1696255078565,-0.9892578,-0.08105469,0.020507812,-1.65625,-2.875,1.9375,0.0,0.0,0.0
1696255078610,-0.99316406,-0.0859375,0.03515625,-0.375,-0.90625,1.4375,0.0,0.0,0.0
1696255078644,-0.98828125,-0.080078125,0.046875,0.78125,0.3125,1.125,0.0,0.0,0.0
1696255078689,-0.99902344,-0.076171875,0.047851562,1.03125,-0.1875,1.0625,0.0,0.0,0.0
1696255078723,-0.9980469,-0.08105469,0.049804688,0.59375,-1.21875,1.1875,0.0,0.0,0.0
1696255078768,-0.9970703,-0.064453125,0.052734375,0.59375,-1.40625,1.1875,0.0,0.0,0.0
1696255078813,-0.9941406,-0.07128906,0.044921875,-0.15625,-0.4375,0.78125,0.0,0.0,0.0
1696255078847,-1.0019531,-0.056640625,0.033203125,-0.15625,0.0,0.40625,0.0,0.0,0.0
1696255078892,-1.0009766,-0.06542969,0.047851562,-0.03125,-0.4375,0.40625,0.0,0.0,0.0
1696255078937,-0.99902344,-0.06542969,0.041992188,-0.4375,-0.25,0.59375,0.0,0.0,0.0
1696255078970,-0.9951172,-0.06542969,0.022460938,-1.125,0.625,0.59375,0.0,0.0,0.0
1696255079016,-1.0009766,-0.0703125,0.034179688,0.21875,1.21875,0.40625,-48.3125,43.6875,-219.375
1696255079049,-0.9951172,-0.068359375,0.040039062,0.34375,0.1875,0.28125,0.0,0.0,0.0
1696255079128,-0.99609375,-0.059570312,0.04296875,0.21875,0.375,-0.09375,0.0,0.0,0.0
1696255079129,-0.9892578,-0.07128906,0.030273438,1.4375,0.5,0.21875,0.0,0.0,0.0
1696255079173,-0.99902344,-0.07128906,0.026367188,1.375,0.96875,0.21875,0.0,0.0,0.0
1696255079207,-0.99902344,-0.06738281,0.03515625,1.125,1.40625,-0.09375,0.0,0.0,0.0
1696255079252,-1.0009766,-0.06640625,0.038085938,1.8125,0.84375,0.09375,0.0,0.0,0.0
1696255079285,-0.99609375,-0.053710938,0.034179688,1.4375,0.6875,-0.03125,0.0,0.0,0.0
1696255079331,-1.0087891,-0.061523438,0.020507812,0.71875,0.90625,-0.21875,0.0,0.0,0.0
1696255079364,-0.9970703,-0.057617188,0.03125,0.40625,1.03125,0.09375,0.0,0.0,0.0
1696255079409,-1.0019531,-0.064453125,0.017578125,-0.4375,0.78125,0.40625,0.0,0.0,0.0
1696255079443,-1.0009766,-0.07324219,0.037109375,-0.03125,1.03125,-0.03125,0.0,0.0,0.0
1696255079488,-0.9941406,-0.061523438,0.022460938,-0.3125,0.5,-0.375,0.0,0.0,0.0
1696255079533,-0.9980469,-0.072265625,0.01171875,-0.25,0.0,-0.15625,-49.0625,44.0,-220.375
1696255079567,-1.0039062,-0.06933594,0.02734375,0.71875,0.125,0.09375,0.0,0.0,0.0
1696255079612,-1.0087891,-0.06738281,0.0234375,0.59375,0.4375,-0.28125,0.0,0.0,0.0
1696255079648,-0.9921875,-0.059570312,0.015625,0.90625,0.5,-0.375,0.0,0.0,0.0
1696255079701,-1.0058594,-0.0625,0.013671875,0.90625,0.5,-0.21875,0.0,0.0,0.0
1696255079730,-1.0029297,-0.056640625,0.021484375,0.46875,0.375,0.34375,0.0,0.0,0.0
1696255079769,-0.99902344,-0.064453125,0.022460938,-0.25,-0.71875,0.34375,0.0,0.0,0.0
1696255079803,-0.9970703,-0.06542969,0.028320312,1.03125,-1.28125,-0.21875,0.0,0.0,0.0
1696255079848,-0.99902344,-0.06640625,0.01953125,-0.09375,-0.59375,-0.34375,0.0,0.0,0.0
1696255079893,-0.9951172,-0.06640625,0.02734375,-1.0,-0.65625,0.03125,0.0,0.0,0.0
1696255079927,-0.99902344,-0.06640625,0.032226562,-1.84375,0.0625,-0.09375,0.0,0.0,0.0
1696255079972,-0.9970703,-0.061523438,0.020507812,-2.40625,0.25,-0.28125,0.0,0.0,0.0
1696255080005,-0.9921875,-0.0703125,0.01953125,-2.53125,-0.0625,0.15625,-49.1875,43.8125,-220.5625
1696255080050,-1.0009766,-0.068359375,0.020507812,-1.96875,0.0625,0.34375,0.0,0.0,0.0
1696255080084,-0.9951172,-0.068359375,0.01171875,-0.8125,-0.5625,0.34375,0.0,0.0,0.0
1696255080129,-1.0117188,-0.068359375,0.016601562,-0.375,-1.71875,-0.15625,0.0,0.0,0.0
1696255080163,-0.9814453,-0.08203125,0.0146484375,-0.25,-1.34375,-0.34375,0.0,0.0,0.0
1696255080208,-0.9941406,-0.06640625,0.017578125,-0.03125,-0.65625,0.65625,0.0,0.0,0.0
1696255080252,-0.984375,-0.076171875,0.036132812,-0.375,-3.0,3.03125,0.0,0.0,0.0
1696255080287,-1.0029297,-0.07324219,0.0703125,-1.78125,-5.96875,3.8125,0.0,0.0,0.0
1696255080334,-1.015625,-0.12402344,0.10253906,4.9375,-7.625,6.3125,0.0,0.0,0.0
1696255080365,-0.9951172,-0.12890625,0.076171875,11.875,-10.125,6.625,0.0,0.0,0.0
1696255080411,-1.0029297,-0.15722656,0.036132812,15.375,-5.78125,1.5625,0.0,0.0,0.0
1696255080455,-0.9814453,-0.13085938,0.0126953125,13.40625,-2.0625,-4.25,0.0,0.0,0.0
1696255080489,-1.015625,-0.07324219,0.061523438,9.25,-5.84375,-4.71875,0.0,0.0,0.0
1696255080534,-1.0107422,-0.038085938,0.07910156,6.6875,-13.0625,-3.1875,-46.625,43.375,-219.1875
1696255080568,-1.0087891,-0.059570312,0.083984375,8.46875,-23.0625,-5.5625,0.0,0.0,0.0
1696255080612,-1.0126953,-0.068359375,0.09472656,12.375,-29.78125,-12.09375,0.0,0.0,0.0
1696255080646,-1.0791016,-0.087890625,0.16503906,19.09375,-34.0,-14.375,0.0,0.0,0.0
1696255080692,-1.0605469,-0.11816406,0.24707031,26.71875,-43.5625,-17.0,0.0,0.0,0.0
1696255080725,-1.0302734,-0.041992188,0.21582031,25.1875,-51.875,-20.03125,0.0,0.0,0.0
1696255080770,-0.9472656,0.017578125,0.27539062,47.84375,-51.4375,-13.09375,0.0,0.0,0.0
1696255080804,-0.9082031,0.0087890625,0.24804688,43.3125,-37.53125,3.5625,0.0,0.0,0.0
1696255080849,-0.9199219,-0.041015625,0.27539062,2.25,-22.40625,5.46875,0.0,0.0,0.0
1696255080883,-0.90234375,-0.025390625,0.265625,-8.75,-5.6875,0.15625,0.0,0.0,0.0
1696255080928,-0.88378906,-0.021484375,0.2841797,-6.5,2.9375,-2.28125,0.0,0.0,0.0
1696255080973,-0.8535156,-0.038085938,0.3154297,1.03125,9.03125,0.09375,0.0,0.0,0.0
1696255081015,-0.8720703,-0.017578125,0.32910156,0.34375,19.53125,3.53125,-44.875,42.3125,-211.5625
1696255081052,-0.9013672,-0.047851562,0.34570312,2.65625,23.75,8.65625,0.0,0.0,0.0
1696255081085,-0.93359375,-0.09277344,0.30273438,-13.09375,30.65625,6.375,0.0,0.0,0.0
1696255081130,-1.0429688,-0.059570312,0.26660156,-2.09375,15.625,0.09375,0.0,0.0,0.0
1696255081164,-1.3583984,-0.1171875,0.23144531,3.15625,6.46875,-9.84375,0.0,0.0,0.0
1696255081220,-0.8691406,0.021484375,0.15722656,-1.125,16.59375,-5.8125,0.0,0.0,0.0
1696255081243,-0.8671875,0.038085938,0.1875,-0.625,9.65625,-8.4375,0.0,0.0,0.0
1696255081288,-1.0234375,-0.13085938,0.15136719,1.0625,21.375,-1.3125,0.0,0.0,0.0
1696255081333,-0.97265625,-0.16503906,0.11230469,11.5625,16.53125,-2.15625,0.0,0.0,0.0
1696255081367,-0.9580078,-0.107421875,0.12695312,9.125,19.46875,-3.875,0.0,0.0,0.0
1696255081412,-0.9951172,-0.053710938,0.13769531,-0.5,22.53125,-3.1875,0.0,0.0,0.0
1696255081445,-0.99121094,-0.061523438,0.13574219,-0.625,21.65625,-1.0,0.0,0.0,0.0
1696255081490,-1.0009766,-0.09765625,0.11035156,-5.40625,17.09375,-3.75,0.0,0.0,0.0
1696255081524,-0.9863281,-0.140625,0.10449219,-3.625,10.5625,-7.03125,-50.125,44.0,-220.375
1696255081569,-0.97753906,-0.15625,0.09375,-4.71875,10.0,-8.03125,0.0,0.0,0.0
1696255081603,-0.9873047,-0.13574219,0.087890625,0.71875,8.0625,-7.15625,0.0,0.0,0.0
1696255081648,-0.99316406,-0.13964844,0.061523438,1.8125,8.71875,-3.875,0.0,0.0,0.0
1696255081693,-1.0097656,-0.16015625,0.057617188,-1.375,6.53125,-3.4375,0.0,0.0,0.0
1696255081727,-0.98828125,-0.15429688,0.0146484375,-5.21875,5.25,-4.0,0.0,0.0,0.0
1696255081772,-0.9951172,-0.140625,0.043945312,-6.3125,7.75,-2.9375,0.0,0.0,0.0
1696255081805,-1.0048828,-0.125,0.02734375,-15.46875,6.34375,0.28125,0.0,0.0,0.0
1696255081851,-1.0117188,-0.14746094,0.026367188,-19.375,6.09375,-1.125,0.0,0.0,0.0
1696255081884,-0.98046875,-0.16796875,-9.765625E-4,-21.625,7.8125,0.21875,0.0,0.0,0.0
1696255081929,-0.9980469,-0.17089844,0.043945312,-16.8125,7.15625,2.1875,0.0,0.0,0.0
1696255081974,-1.0009766,-0.15136719,0.029296875,-17.1875,9.9375,1.9375,0.0,0.0,0.0
1696255082008,-1.0039062,-0.14257812,0.04296875,-16.625,7.625,0.96875,-50.125,41.125,-221.0
1696255082087,-0.98535156,-0.12792969,0.013671875,-20.59375,4.15625,3.34375,0.0,0.0,0.0
1696255082088,-0.99609375,-0.17578125,-0.013671875,-22.1875,5.375,3.15625,0.0,0.0,0.0
1696255082132,-1.0048828,-0.1484375,-0.0087890625,-21.3125,5.125,3.40625,0.0,0.0,0.0
1696255082165,-0.9892578,-0.12792969,-0.018554688,-22.46875,3.90625,4.375,0.0,0.0,0.0
1696255082211,-1.0009766,-0.16015625,-0.046875,-22.40625,-1.78125,3.53125,0.0,0.0,0.0
1696255082244,-0.9824219,-0.14257812,-0.032226562,-15.21875,0.625,0.84375,0.0,0.0,0.0
1696255082289,-0.9863281,-0.10839844,-0.056640625,-11.8125,0.0625,3.28125,0.0,0.0,0.0
1696255082334,-0.9863281,-0.12988281,-0.01171875,-14.5625,1.53125,4.375,0.0,0.0,0.0
1696255082368,-0.9873047,-0.14257812,-0.037109375,-8.125,0.375,7.96875,0.0,0.0,0.0
1696255082413,-1.0039062,-0.12597656,-0.024414062,-5.75,-2.0,8.21875,0.0,0.0,0.0
1696255082447,-0.99902344,-0.10839844,0.0048828125,-11.96875,-3.84375,7.90625,0.0,0.0,0.0
1696255082491,-1.0,-0.09765625,-0.009765625,-8.75,-4.5,7.0625,0.0,0.0,0.0
1696255082525,-0.99316406,-0.119140625,0.0087890625,-3.875,-5.0625,7.71875,-51.875,44.0,-221.4375
1696255082570,-0.9921875,-0.1171875,0.0068359375,-4.53125,-5.4375,8.78125,0.0,0.0,0.0
1696255082604,-0.99609375,-0.10839844,-0.005859375,-3.375,-2.3125,8.53125,0.0,0.0,0.0
1696255082649,-0.9873047,-0.10058594,0.030273438,-3.125,0.0,8.40625,0.0,0.0,0.0
1696255082694,-0.9970703,-0.08496094,0.0146484375,-1.4375,-2.1875,8.03125,0.0,0.0,0.0
1696255082741,-1.0009766,-0.083984375,0.036132812,2.71875,-6.78125,9.0,0.0,0.0,0.0
1696255082773,-1.0078125,-0.08886719,0.025390625,4.625,-8.3125,7.59375,0.0,0.0,0.0
1696255082808,-1.0253906,-0.033203125,0.028320312,6.5,-9.15625,5.28125,0.0,0.0,0.0
1696255082852,-1.0361328,-0.00390625,0.040039062,9.3125,-16.59375,0.96875,0.0,0.0,0.0
1696255082885,-1.0673828,0.018554688,0.080078125,13.53125,-28.0,-4.90625,0.0,0.0,0.0
1696255082931,-1.0722656,-0.030273438,0.1640625,21.46875,-46.15625,-9.4375,0.0,0.0,0.0
1696255082964,-1.0390625,-0.09863281,0.21289062,26.90625,-68.71875,-14.4375,0.0,0.0,0.0
1696255083012,-0.9873047,-0.09863281,0.25976562,32.5625,-74.78125,-16.3125,-48.3125,45.5,-214.5625
1696255083054,-0.8876953,-0.018554688,0.23730469,32.3125,-55.59375,-8.09375,0.0,0.0,0.0
1696255083087,-0.8984375,-0.024414062,0.22363281,36.0625,-36.5,-5.5625,0.0,0.0,0.0
1696255083133,-0.8847656,-0.045898438,0.24023438,17.125,-13.90625,-6.125,0.0,0.0,0.0
1696255083167,-0.8955078,-9.765625E-4,0.26953125,4.125,-1.53125,-8.15625,0.0,0.0,0.0
1696255083223,-0.88964844,0.0029296875,0.25683594,-0.5625,10.5625,-10.9375,0.0,0.0,0.0
1696255083245,-0.88964844,0.01171875,0.25,-2.21875,16.84375,-9.46875,0.0,0.0,0.0
1696255083290,-0.8798828,0.005859375,0.27148438,3.40625,19.96875,-2.71875,0.0,0.0,0.0
1696255083324,-0.9169922,-0.024414062,0.2705078,5.65625,17.34375,4.75,0.0,0.0,0.0
1696255083369,-0.9609375,-0.0703125,0.2841797,-6.84375,15.5625,4.90625,0.0,0.0,0.0
1696255083414,-1.0244141,-0.080078125,0.30566406,-14.125,15.4375,2.1875,0.0,0.0,0.0
1696255083448,-1.3056641,-0.12988281,0.27148438,2.59375,6.21875,0.09375,0.0,0.0,0.0
1696255083492,-0.94140625,0.016601562,0.18652344,9.125,5.3125,-1.125,0.0,0.0,0.0
1696255083527,-0.83984375,-0.021484375,0.13867188,7.71875,6.46875,-5.5625,-48.875,44.875,-213.625
1696255083571,-0.96191406,-0.12695312,0.13964844,17.4375,19.65625,-6.96875,0.0,0.0,0.0
1696255083607,-1.0058594,-0.11328125,0.20117188,18.03125,22.65625,-5.15625,0.0,0.0,0.0
1696255083650,-1.0244141,-0.09472656,0.19335938,12.78125,9.21875,-1.4375,0.0,0.0,0.0
1696255083684,-0.9628906,-0.051757812,0.09765625,4.5625,13.625,-4.125,0.0,0.0,0.0
1696255083729,-0.99316406,-0.053710938,0.1328125,6.8125,14.53125,-7.53125,0.0,0.0,0.0
1696255083774,-0.9824219,-0.09277344,0.1640625,-0.25,11.125,-5.40625,0.0,0.0,0.0
1696255083808,-0.9824219,-0.09765625,0.125,-7.46875,8.78125,-3.625,0.0,0.0,0.0
1696255083864,-0.9707031,-0.11425781,0.09765625,-6.84375,10.9375,-2.84375,0.0,0.0,0.0
1696255083887,-0.9921875,-0.12011719,0.07714844,-5.5625,14.96875,-2.59375,0.0,0.0,0.0
1696255083931,-0.98535156,-0.111328125,0.044921875,-7.46875,19.28125,-2.84375,0.0,0.0,0.0
1696255083965,-1.0136719,-0.1015625,0.041992188,-10.09375,22.03125,-1.96875,0.0,0.0,0.0
1696255084010,-0.97558594,-0.10253906,0.033203125,-10.28125,19.21875,0.84375,-51.875,42.625,-219.9375
1696255084044,-1.0029297,-0.119140625,-0.03515625,-13.8125,16.1875,3.6875,0.0,0.0,0.0
1696255084089,-1.0292969,-0.15039062,0.00390625,-6.3125,11.0,-1.3125,0.0,0.0,0.0
1696255084134,-0.99609375,-0.15332031,0.052734375,-9.125,4.15625,-4.0,0.0,0.0,0.0
1696255084168,-1.0048828,-0.1484375,0.040039062,-9.125,0.625,-1.84375,0.0,0.0,0.0
1696255084213,-0.98828125,-0.12597656,0.02734375,-6.1875,1.03125,-0.5625,0.0,0.0,0.0
1696255084258,-1.0136719,-0.12011719,0.0068359375,-10.15625,0.90625,-0.75,0.0,0.0,0.0
1696255084292,-0.9941406,-0.15820312,0.030273438,-14.25,-0.84375,0.21875,0.0,0.0,0.0
1696255084328,-0.9970703,-0.16308594,0.028320312,-17.125,-2.4375,1.25,0.0,0.0,0.0
1696255084370,-1.0097656,-0.16503906,0.030273438,-14.0625,-3.78125,0.46875,0.0,0.0,0.0
1696255084404,-0.9941406,-0.16699219,0.0107421875,-12.53125,-6.78125,0.65625,0.0,0.0,0.0
1696255084449,-0.99121094,-0.14257812,-0.0048828125,-16.0,-6.46875,1.0625,0.0,0.0,0.0
1696255084494,-0.99121094,-0.12890625,0.0,-13.8125,-4.28125,2.1875,0.0,0.0,0.0
1696255084528,-0.98535156,-0.12890625,0.015625,-16.3125,-0.5625,4.25,-52.1875,43.25,-221.75
1696255084573,-0.9951172,-0.115234375,0.00390625,-18.75,3.71875,7.53125,0.0,0.0,0.0
1696255084607,-1.0166016,-0.11816406,-9.765625E-4,-17.21875,4.875,10.28125,0.0,0.0,0.0
1696255084652,-1.0029297,-0.083984375,-0.0107421875,-15.03125,2.9375,8.34375,0.0,0.0,0.0
1696255084685,-1.0146484,-0.076171875,-0.0234375,-17.0,1.46875,5.65625,0.0,0.0,0.0
1696255084732,-0.96875,-0.09667969,-0.040039062,-14.84375,-4.15625,7.25,0.0,0.0,0.0
1696255084764,-0.99316406,-0.09765625,-0.015625,-16.6875,-3.59375,10.46875,0.0,0.0,0.0
1696255084809,-1.0039062,-0.049804688,0.025390625,-7.40625,-4.03125,8.21875,0.0,0.0,0.0
1696255084854,-1.0087891,-0.05859375,0.07324219,-11.125,-9.15625,9.25,0.0,0.0,0.0
1696255084888,-0.9863281,-0.091796875,0.09765625,-7.03125,-14.71875,9.875,0.0,0.0,0.0
1696255084933,-0.9970703,-0.125,0.08496094,2.0625,-11.34375,8.65625,0.0,0.0,0.0
1696255084967,-0.9863281,-0.107421875,0.080078125,2.3125,-6.34375,7.90625,0.0,0.0,0.0
1696255085023,-0.98828125,-0.053710938,0.09765625,1.25,-4.625,6.09375,-49.625,44.3125,-217.5625
1696255085045,-0.9951172,-0.032226562,0.095703125,2.84375,-4.28125,5.21875,0.0,0.0,0.0
1696255085090,-1.0107422,-9.765625E-4,0.091796875,1.3125,-5.4375,6.03125,0.0,0.0,0.0
1696255085124,-1.0107422,-0.0029296875,0.07714844,-3.1875,-8.46875,6.3125,0.0,0.0,0.0
1696255085169,-0.98828125,-0.01953125,0.0859375,-6.96875,-7.5,6.1875,0.0,0.0,0.0
1696255085214,-0.9892578,-0.02734375,0.08984375,-4.78125,-4.9375,5.84375,0.0,0.0,0.0
1696255085251,-1.0019531,-0.0146484375,0.07910156,-1.5,-2.875,6.3125,0.0,0.0,0.0
1696255085293,-1.0371094,-0.0078125,0.123046875,-1.59375,-4.40625,6.09375,0.0,0.0,0.0
1696255085327,-1.0410156,-9.765625E-4,0.14160156,0.96875,-9.65625,1.4375,0.0,0.0,0.0
1696255085372,-1.0361328,-0.020507812,0.140625,14.25,-14.34375,-3.625,0.0,0.0,0.0
1696255085405,-1.0605469,-0.044921875,0.19335938,15.84375,-26.25,-10.34375,0.0,0.0,0.0
1696255085452,-1.0917969,-0.040039062,0.22949219,23.53125,-42.84375,-17.78125,0.0,0.0,0.0
1696255085484,-0.9892578,-0.0068359375,0.24902344,35.5,-48.15625,-23.09375,0.0,0.0,0.0
1696255085529,-0.97265625,-0.00390625,0.26464844,60.9375,-50.0625,-18.625,-47.5625,44.75,-212.75
1696255085574,-0.8671875,-0.07128906,0.17871094,55.59375,-39.3125,-12.90625,0.0,0.0,0.0
1696255085608,-0.87402344,-0.056640625,0.24121094,12.1875,-8.25,-19.125,0.0,0.0,0.0
1696255085653,-0.88964844,-0.026367188,0.2607422,-1.65625,8.59375,-24.9375,0.0,0.0,0.0
1696255085686,-0.859375,0.021484375,0.2607422,-11.8125,21.78125,-24.1875,0.0,0.0,0.0
1696255085732,-0.91015625,-0.029296875,0.234375,-18.5625,34.5,-17.65625,0.0,0.0,0.0
1696255085776,-0.88378906,-0.00390625,0.22460938,-7.53125,22.40625,-4.84375,0.0,0.0,0.0
1696255085810,-0.8964844,0.0146484375,0.22460938,3.65625,15.5,6.9375,0.0,0.0,0.0
1696255085844,-1.1474609,-0.18359375,0.26464844,-2.78125,5.0,8.875,0.0,0.0,0.0
1696255085889,-1.3085938,-0.16308594,0.17285156,-2.03125,4.625,-4.40625,0.0,0.0,0.0
1696255085934,-0.81640625,0.041015625,0.07519531,-2.59375,14.03125,0.53125,0.0,0.0,0.0
1696255085968,-0.9091797,-0.01171875,0.21875,14.875,10.625,1.1875,0.0,0.0,0.0
1696255086013,-1.0380859,-0.15332031,0.15234375,12.1875,22.28125,-3.875,-50.125,43.25,-215.125
1696255086047,-0.9482422,-0.06933594,0.13964844,5.40625,19.59375,-1.84375,0.0,0.0,0.0
1696255086091,-0.9824219,-0.14355469,0.15136719,9.1875,8.84375,5.15625,0.0,0.0,0.0
1696255086125,-0.97265625,-0.123046875,0.125,11.8125,18.375,0.03125,0.0,0.0,0.0
1696255086170,-1.0078125,-0.12890625,0.13964844,14.3125,15.9375,-4.65625,0.0,0.0,0.0
1696255086249,-0.9814453,-0.11425781,0.10253906,9.0,12.28125,-6.0,0.0,0.0,0.0
1696255086251,-0.98535156,-0.1171875,0.09765625,-0.03125,12.21875,-6.96875,0.0,0.0,0.0
1696255086294,-0.9902344,-0.10546875,0.083984375,-2.84375,11.34375,-4.65625,0.0,0.0,0.0
1696255086328,-0.984375,-0.11621094,0.038085938,-2.21875,10.8125,-2.34375,0.0,0.0,0.0
1696255086372,-0.9814453,-0.09863281,0.0234375,-5.625,16.65625,-1.0,0.0,0.0,0.0
1696255086406,-1.0009766,-0.1015625,-0.013671875,-7.78125,18.25,1.125,0.0,0.0,0.0
1696255086451,-0.98535156,-0.08886719,-0.03125,-7.53125,16.59375,2.25,0.0,0.0,0.0
1696255086485,-1.0068359,-0.10058594,-0.02734375,-5.9375,13.125,2.96875,0.0,0.0,0.0
1696255086541,-1.0126953,-0.13085938,0.001953125,-7.46875,11.53125,0.59375,-52.9375,44.0,-222.0625
1696255086564,-1.0205078,-0.15625,0.017578125,-9.65625,4.6875,-0.9375,0.0,0.0,0.0
1696255086609,-1.0078125,-0.14160156,0.018554688,-9.53125,1.59375,-2.9375,0.0,0.0,0.0
1696255086654,-0.9902344,-0.13964844,-0.0078125,-13.8125,2.375,-3.375,0.0,0.0,0.0
1696255086687,-0.9892578,-0.15527344,0.001953125,-15.40625,2.875,-2.53125,0.0,0.0,0.0
1696255086732,-0.9941406,-0.13378906,-0.022460938,-19.5,3.1875,0.09375,0.0,0.0,0.0
1696255086777,-0.9970703,-0.16308594,-0.024414062,-20.78125,3.96875,1.8125,0.0,0.0,0.0
1696255086811,-0.99902344,-0.14550781,-0.02734375,-18.09375,0.84375,1.875,0.0,0.0,0.0
1696255086845,-1.0136719,-0.13378906,-0.033203125,-19.0625,-2.4375,1.5625,0.0,0.0,0.0
1696255086890,-1.0126953,-0.119140625,-0.038085938,-17.0,-5.5625,0.34375,0.0,0.0,0.0
1696255086924,-0.99902344,-0.099609375,-0.022460938,-19.25,-8.46875,-1.1875,0.0,0.0,0.0
1696255086969,-0.9736328,-0.14746094,-0.03125,-16.625,-8.71875,-0.21875,0.0,0.0,0.0
1696255087014,-1.0078125,-0.17089844,-0.022460938,-14.25,-10.6875,2.1875,-51.4375,41.4375,-221.4375
1696255087048,-0.99316406,-0.08105469,-0.0068359375,-13.5625,-5.0,2.90625,0.0,0.0,0.0
1696255087092,-0.97753906,-0.109375,-0.018554688,-14.90625,-2.0625,12.25,0.0,0.0,0.0
1696255087126,-1.0039062,-0.16210938,-0.015625,-19.5,1.53125,12.4375,0.0,0.0,0.0
1696255087172,-0.9794922,-0.1484375,-0.01171875,-13.09375,2.03125,9.125,0.0,0.0,0.0
1696255087205,-1.0,-0.09277344,-0.018554688,-2.46875,3.90625,5.34375,0.0,0.0,0.0
1696255087250,-0.9892578,-0.0703125,0.015625,-0.6875,2.1875,8.15625,0.0,0.0,0.0
1696255087295,-1.0117188,-0.08105469,0.043945312,-5.46875,-5.625,10.0625,0.0,0.0,0.0
1696255087329,-1.0185547,-0.06347656,0.041015625,-4.125,-10.3125,9.1875,0.0,0.0,0.0
1696255087374,-0.99902344,-0.0703125,0.025390625,-6.75,-6.90625,7.4375,0.0,0.0,0.0
1696255087408,-0.9824219,-0.087890625,0.030273438,-2.78125,-3.53125,6.5625,0.0,0.0,0.0
1696255087453,-1.0068359,-0.051757812,0.044921875,1.25,-2.6875,9.625,0.0,0.0,0.0
1696255087497,-1.0117188,-0.028320312,0.045898438,-0.75,-4.03125,11.375,0.0,0.0,0.0
1696255087531,-1.0087891,-0.043945312,0.038085938,-3.75,-5.6875,9.0,-51.875,44.3125,-219.625
1696255087565,-0.9980469,-0.04296875,0.038085938,-3.875,-7.5,6.875,0.0,0.0,0.0
1696255087610,-0.99609375,-0.03125,0.02734375,0.59375,-7.09375,5.59375,0.0,0.0,0.0
1696255087644,-1.0048828,-0.030273438,0.040039062,2.96875,-6.84375,5.71875,0.0,0.0,0.0
1696255087689,-1.0175781,-0.015625,0.0546875,1.3125,-8.25,6.75,0.0,0.0,0.0
1696255087734,-1.0146484,0.0,0.053710938,0.59375,-7.8125,6.75,0.0,0.0,0.0
1696255087768,-1.0419922,0.015625,0.08496094,2.46875,-6.21875,5.96875,0.0,0.0,0.0
1696255087812,-1.0351562,0.0068359375,0.07910156,4.875,-10.125,4.5,0.0,0.0,0.0
1696255087846,-1.0166016,-0.00390625,0.14355469,7.96875,-17.28125,2.40625,0.0,0.0,0.0
1696255087891,-0.99902344,-0.03125,0.16992188,7.96875,-30.21875,-3.0625,0.0,0.0,0.0
1696255087927,-0.99609375,-0.044921875,0.20019531,14.9375,-44.0625,-11.75,0.0,0.0,0.0
1696255087970,-0.9824219,-0.056640625,0.18847656,27.625,-50.65625,-23.65625,0.0,0.0,0.0
1696255088015,-0.96875,-0.028320312,0.203125,37.875,-46.625,-24.6875,-49.9375,46.25,-212.625
1696255088060,-0.9267578,0.0234375,0.21289062,42.53125,-30.40625,-14.5,0.0,0.0,0.0
1696255088096,-0.9453125,-0.047851562,0.23242188,17.4375,-20.6875,-14.0625,0.0,0.0,0.0
1696255088128,-0.9345703,-9.765625E-4,0.22070312,9.5625,-5.6875,-16.375,0.0,0.0,0.0
1696255088172,-0.89941406,0.0126953125,0.22167969,10.40625,2.25,-15.71875,0.0,0.0,0.0
1696255088206,-0.9003906,0.013671875,0.23925781,11.15625,5.0,-13.09375,0.0,0.0,0.0
1696255088251,-0.8613281,0.036132812,0.23535156,10.46875,7.3125,-6.75,0.0,0.0,0.0
1696255088285,-0.9111328,0.0126953125,0.234375,5.59375,10.3125,-0.21875,0.0,0.0,0.0
1696255088330,-0.92089844,-0.029296875,0.25,-0.6875,11.96875,2.53125,0.0,0.0,0.0
1696255088364,-0.9980469,-0.08300781,0.2783203,-4.46875,9.53125,-1.1875,0.0,0.0,0.0
1696255088409,-1.3447266,-0.109375,0.29589844,2.78125,6.96875,-2.59375,0.0,0.0,0.0
1696255088454,-1.0263672,0.0087890625,0.21484375,4.125,9.09375,-1.0,0.0,0.0,0.0
1696255088487,-0.7626953,0.0029296875,0.103515625,10.125,4.28125,0.65625,0.0,0.0,0.0
1696255088537,-0.94628906,-0.12011719,0.13476562,16.34375,20.15625,-1.65625,-50.375,43.25,-214.25
1696255088567,-1.0527344,-0.087890625,0.21972656,17.25,32.96875,-1.5,0.0,0.0,0.0
1696255088611,-1.0175781,-0.07421875,0.19921875,14.375,14.15625,-1.4375,0.0,0.0,0.0
1696255088645,-0.9824219,-0.057617188,0.09667969,6.3125,7.25,-2.90625,0.0,0.0,0.0
1696255088690,-0.99121094,-0.061523438,0.10839844,10.71875,11.46875,-7.03125,0.0,0.0,0.0
1696255088724,-0.9794922,-0.072265625,0.18359375,13.78125,8.125,-6.96875,0.0,0.0,0.0
1696255088769,-0.9863281,-0.09667969,0.1484375,4.96875,4.53125,-6.5625,0.0,0.0,0.0
1696255088813,-0.97265625,-0.103515625,0.11425781,0.90625,5.5,-7.03125,0.0,0.0,0.0
1696255088848,-0.98535156,-0.099609375,0.091796875,2.3125,9.78125,-5.75,0.0,0.0,0.0
1696255088893,-0.9765625,-0.091796875,0.07519531,4.0,12.875,-4.1875,0.0,0.0,0.0
1696255088927,-0.9794922,-0.08496094,0.06933594,-1.59375,16.96875,-3.4375,0.0,0.0,0.0
1696255088972,-1.0097656,-0.076171875,0.06640625,-4.46875,19.21875,-2.09375,0.0,0.0,0.0
1696255089016,-0.99316406,-0.083984375,0.052734375,-2.46875,16.96875,-1.65625,-51.3125,45.1875,-219.5
1696255089050,-0.9951172,-0.11230469,0.05859375,-4.46875,12.9375,-1.78125,0.0,0.0,0.0
1696255089084,-1.0009766,-0.1171875,0.038085938,-7.71875,12.5,0.09375,0.0,0.0,0.0
1696255089129,-0.9892578,-0.109375,0.024414062,-9.0,13.625,0.09375,0.0,0.0,0.0
1696255089207,-1.015625,-0.12109375,0.028320312,-9.25,12.21875,-0.4375,0.0,0.0,0.0
1696255089209,-1.0214844,-0.13476562,0.021484375,-8.375,6.65625,-1.3125,0.0,0.0,0.0
1696255089253,-1.0029297,-0.16113281,0.041992188,-7.96875,-1.28125,-3.6875,0.0,0.0,0.0
1696255089287,-0.984375,-0.16308594,0.0234375,-12.53125,-1.03125,-5.28125,0.0,0.0,0.0
1696255089332,-0.9863281,-0.14941406,0.0146484375,-12.96875,1.40625,-2.15625,0.0,0.0,0.0
1696255089365,-0.9921875,-0.15527344,0.0390625,-8.4375,0.96875,0.21875,0.0,0.0,0.0
1696255089411,-0.99121094,-0.140625,0.0078125,-12.28125,3.3125,0.65625,0.0,0.0,0.0
1696255089455,-1.0078125,-0.1328125,-0.0087890625,-11.4375,1.59375,2.0625,0.0,0.0,0.0
1696255089489,-1.0283203,-0.13964844,-0.001953125,-8.1875,-4.5625,2.0625,0.0,0.0,0.0
1696255089534,-1.0078125,-0.12792969,0.005859375,-9.40625,-8.25,-0.34375,-51.75,43.8125,-220.875
1696255089579,-0.98828125,-0.11328125,0.024414062,-10.46875,-11.09375,0.59375,0.0,0.0,0.0
