# Sensor type: Thingy
# Activity type: Lying down back
# Activity subtype: Normal
# Subject id: s2106809
# Notes: unprocessed
timestamp,accel_x,accel_y,accel_z,gyro_x,gyro_y,gyro_z,mag_x,mag_y,mag_z
1696254914116,0.46191406,-0.18457031,0.8251953,0.09375,0.15625,0.28125,0.0,0.0,0.0
1696254914151,0.48046875,-0.18457031,0.8544922,0.09375,0.40625,0.34375,0.0,0.0,0.0
1696254914183,0.48046875,-0.19042969,0.85253906,-0.1875,0.34375,0.28125,0.0,0.0,0.0
1696254914228,0.47558594,-0.18652344,0.8388672,-0.4375,-0.21875,-0.03125,0.0,0.0,0.0
1696254914261,0.4716797,-0.18945312,0.8408203,-0.5625,-0.40625,-0.25,0.0,0.0,0.0
1696254914306,0.4765625,-0.18164062,0.83984375,-0.125,-0.28125,-0.375,0.0,0.0,0.0
1696254914340,0.48242188,-0.18847656,0.83984375,0.21875,-0.09375,-0.3125,0.0,0.0,0.0
1696254914385,0.47265625,-0.17871094,0.85253906,0.09375,0.09375,-0.25,0.0,0.0,0.0
1696254914419,0.48339844,-0.18066406,0.83496094,0.03125,0.15625,-0.09375,0.0,0.0,0.0
1696254914464,0.47558594,-0.18261719,0.8486328,0.09375,-0.09375,0.15625,0.0,0.0,0.0
1696254914509,0.47460938,-0.18066406,0.8466797,0.0,-0.09375,0.03125,0.0,0.0,0.0
1696254914542,0.47265625,-0.19433594,0.82910156,-0.0625,-0.09375,-0.09375,23.6875,28.375,-192.5
1696254914588,0.47460938,-0.17578125,0.84277344,-0.125,-0.03125,-0.09375,0.0,0.0,0.0
1696254914621,0.48242188,-0.18652344,0.83984375,0.21875,0.21875,-0.03125,0.0,0.0,0.0
1696254914666,0.4736328,-0.1875,0.84472656,0.34375,-0.03125,-0.15625,0.0,0.0,0.0
1696254914700,0.484375,-0.1875,0.8417969,-0.0625,-0.03125,-0.09375,0.0,0.0,0.0
1696254914745,0.4765625,-0.18066406,0.85058594,0.03125,0.03125,0.03125,0.0,0.0,0.0
1696254914789,0.47851562,-0.17480469,0.8515625,-0.25,-0.09375,-0.09375,0.0,0.0,0.0
1696254914823,0.46972656,-0.18261719,0.8378906,0.03125,0.09375,0.09375,0.0,0.0,0.0
1696254914868,0.47265625,-0.18066406,0.83691406,-0.1875,0.09375,0.03125,0.0,0.0,0.0
1696254914903,0.46972656,-0.18554688,0.8408203,-0.1875,-0.03125,-0.03125,0.0,0.0,0.0
1696254914947,0.4814453,-0.17871094,0.8388672,-0.0625,-0.09375,-0.09375,0.0,0.0,0.0
1696254914981,0.47070312,-0.1796875,0.8359375,-0.0625,-0.09375,-0.03125,0.0,0.0,0.0
1696254915026,0.47265625,-0.18652344,0.83203125,-0.0625,0.03125,0.09375,24.875,30.625,-193.125
1696254915060,0.47558594,-0.18554688,0.8408203,-0.0625,-0.03125,-0.09375,0.0,0.0,0.0
1696254915105,0.47851562,-0.1796875,0.8359375,0.15625,-0.28125,-0.1875,0.0,0.0,0.0
1696254915139,0.4736328,-0.18066406,0.84375,0.09375,0.03125,-0.25,0.0,0.0,0.0
1696254915184,0.47460938,-0.18261719,0.82910156,0.09375,0.03125,-0.15625,0.0,0.0,0.0
1696254915229,0.47753906,-0.18261719,0.8417969,0.09375,0.15625,-0.03125,0.0,0.0,0.0
1696254915262,0.46289062,-0.1875,0.85253906,-0.0625,-0.09375,0.03125,0.0,0.0,0.0
1696254915307,0.48632812,-0.18652344,0.8457031,0.09375,0.03125,-0.09375,0.0,0.0,0.0
1696254915341,0.47558594,-0.18652344,0.84472656,0.0,0.15625,-0.03125,0.0,0.0,0.0
1696254915386,0.46972656,-0.18945312,0.84375,-0.1875,-0.03125,0.03125,0.0,0.0,0.0
1696254915420,0.47558594,-0.1796875,0.8232422,0.09375,-0.15625,-0.03125,0.0,0.0,0.0
1696254915465,0.4765625,-0.18359375,0.83691406,0.0,0.03125,-0.03125,0.0,0.0,0.0
1696254915510,0.47070312,-0.18652344,0.85058594,0.0,0.09375,0.15625,0.0,0.0,0.0
1696254915544,0.47265625,-0.1796875,0.8417969,0.0,0.03125,0.15625,24.4375,29.4375,-193.25
1696254915589,0.47851562,-0.17871094,0.8417969,-0.0625,-0.03125,-0.03125,0.0,0.0,0.0
1696254915622,0.4736328,-0.17382812,0.8378906,-0.4375,-0.09375,0.03125,0.0,0.0,0.0
1696254915668,0.47753906,-0.19140625,0.8486328,0.09375,-0.03125,0.03125,0.0,0.0,0.0
1696254915701,0.47460938,-0.17675781,0.8466797,0.0,0.09375,0.03125,0.0,0.0,0.0
1696254915746,0.4716797,-0.1796875,0.83691406,0.09375,0.03125,0.03125,0.0,0.0,0.0
1696254915780,0.4736328,-0.1953125,0.8310547,0.03125,-0.15625,-0.09375,0.0,0.0,0.0
1696254915825,0.47460938,-0.17773438,0.8388672,-0.0625,-0.03125,-0.09375,0.0,0.0,0.0
1696254915859,0.4716797,-0.18457031,0.84765625,0.0,0.21875,-0.1875,0.0,0.0,0.0
1696254915905,0.46972656,-0.18554688,0.83984375,-0.0625,-0.03125,-0.03125,0.0,0.0,0.0
1696254915982,0.4794922,-0.17285156,0.8378906,0.09375,0.09375,-0.15625,0.0,0.0,0.0
1696254915984,0.47070312,-0.18066406,0.8388672,0.15625,0.03125,0.03125,0.0,0.0,0.0
1696254916027,0.47265625,-0.17675781,0.85253906,-0.125,0.15625,-0.15625,24.125,28.5625,-191.3125
1696254916061,0.47265625,-0.18554688,0.8330078,0.0,-0.03125,-0.03125,0.0,0.0,0.0
1696254916106,0.47265625,-0.18554688,0.84375,-0.0625,-0.03125,-0.15625,0.0,0.0,0.0
1696254916140,0.4765625,-0.18652344,0.83691406,0.03125,0.09375,0.03125,0.0,0.0,0.0
1696254916185,0.47460938,-0.18066406,0.8466797,0.0,0.28125,-0.03125,0.0,0.0,0.0
1696254916229,0.4765625,-0.19140625,0.82421875,0.0,-0.03125,-0.15625,0.0,0.0,0.0
1696254916264,0.4765625,-0.18652344,0.84375,-0.125,-0.21875,-0.1875,0.0,0.0,0.0
1696254916309,0.4794922,-0.18066406,0.8515625,-0.0625,0.03125,-0.3125,0.0,0.0,0.0
1696254916346,0.46679688,-0.18359375,0.83496094,0.15625,0.09375,-0.09375,0.0,0.0,0.0
1696254916388,0.4736328,-0.19433594,0.8535156,-0.0625,-0.15625,-0.15625,0.0,0.0,0.0
1696254916421,0.47558594,-0.18261719,0.8417969,0.21875,0.03125,-0.09375,0.0,0.0,0.0
1696254916466,0.46972656,-0.18847656,0.8378906,-0.0625,-0.28125,-0.15625,0.0,0.0,0.0
1696254916500,0.4765625,-0.18164062,0.84277344,0.21875,-0.09375,-0.25,0.0,0.0,0.0
1696254916546,0.47753906,-0.18554688,0.84277344,0.15625,0.15625,-0.1875,23.875,29.875,-191.75
1696254916590,0.47460938,-0.18457031,0.8417969,-0.0625,-0.09375,-0.09375,0.0,0.0,0.0
1696254916624,0.47851562,-0.18457031,0.8544922,0.09375,-0.03125,-0.1875,0.0,0.0,0.0
1696254916669,0.48339844,-0.18164062,0.8339844,0.09375,0.09375,-0.3125,0.0,0.0,0.0
1696254916704,0.4794922,-0.1875,0.8251953,-0.125,0.15625,-0.03125,0.0,0.0,0.0
1696254916748,0.46875,-0.18261719,0.83984375,0.0,0.09375,0.09375,0.0,0.0,0.0
1696254916781,0.47070312,-0.18847656,0.8466797,0.09375,0.03125,-0.09375,0.0,0.0,0.0
1696254916826,0.4736328,-0.18164062,0.83984375,0.0,0.03125,-0.03125,0.0,0.0,0.0
1696254916860,0.4716797,-0.18945312,0.85253906,0.0,0.09375,-0.03125,0.0,0.0,0.0
1696254916905,0.46777344,-0.18066406,0.84277344,-0.0625,-0.28125,-0.25,0.0,0.0,0.0
1696254916950,0.46777344,-0.17578125,0.8408203,-0.34375,-0.125,-0.0625,0.0,0.0,0.0
1696254916984,0.47753906,-0.18164062,0.8330078,-0.15625,-0.1875,-0.125,0.0,0.0,0.0
1696254917029,0.47753906,-0.18261719,0.8535156,0.03125,0.0,0.125,23.875,29.5625,-192.0625
1696254917066,0.47753906,-0.18652344,0.8496094,-0.03125,0.0,-0.0625,0.0,0.0,0.0
1696254917108,0.46972656,-0.18652344,0.84277344,0.15625,-0.125,-0.125,0.0,0.0,0.0
1696254917141,0.4658203,-0.18066406,0.84472656,-0.03125,0.0,-0.1875,0.0,0.0,0.0
1696254917186,0.4794922,-0.19042969,0.8310547,0.09375,0.0625,-0.0625,0.0,0.0,0.0
1696254917220,0.47460938,-0.18457031,0.83691406,0.15625,0.0625,0.0,0.0,0.0,0.0
1696254917265,0.4716797,-0.1796875,0.83984375,-0.03125,0.125,0.0,0.0,0.0,0.0
1696254917310,0.4765625,-0.19042969,0.84277344,0.03125,0.125,-0.125,0.0,0.0,0.0
1696254917344,0.4736328,-0.1796875,0.83496094,-0.03125,0.0,-0.0625,0.0,0.0,0.0
1696254917422,0.46679688,-0.18652344,0.8359375,-0.03125,0.0625,0.1875,0.0,0.0,0.0
1696254917424,0.4736328,-0.18457031,0.8496094,-0.03125,0.0,0.0625,0.0,0.0,0.0
1696254917468,0.47851562,-0.18847656,0.8261719,-0.15625,-0.125,-0.0625,0.0,0.0,0.0
1696254917513,0.47460938,-0.18261719,0.84277344,-0.03125,0.0625,0.0625,0.0,0.0,0.0
1696254917546,0.47753906,-0.18359375,0.8388672,-0.21875,0.0625,0.0625,24.875,29.5625,-193.125
1696254917580,0.4658203,-0.18261719,0.8515625,-0.09375,-0.0625,0.0,0.0,0.0,0.0
1696254917625,0.47265625,-0.17773438,0.8339844,-0.15625,-0.3125,0.125,0.0,0.0,0.0
1696254917670,0.4765625,-0.18261719,0.8339844,-0.40625,-0.0625,-0.125,0.0,0.0,0.0
1696254917704,0.4716797,-0.18066406,0.8359375,0.21875,-0.0625,-0.0625,0.0,0.0,0.0
1696254917782,0.4716797,-0.1796875,0.83203125,-0.09375,-0.1875,0.0625,0.0,0.0,0.0
1696254917784,0.46777344,-0.18164062,0.8457031,0.34375,-0.0625,0.0625,0.0,0.0,0.0
1696254917827,0.47070312,-0.1796875,0.82910156,-0.09375,-0.0625,0.0,0.0,0.0,0.0
1696254917861,0.47460938,-0.18261719,0.8251953,0.21875,0.125,0.0,0.0,0.0,0.0
1696254917906,0.4814453,-0.18457031,0.83496094,0.28125,0.0,0.0625,0.0,0.0,0.0
1696254917940,0.47265625,-0.18066406,0.8417969,0.09375,0.0,0.0,0.0,0.0,0.0
1696254917985,0.47460938,-0.18066406,0.8515625,0.09375,0.0,0.0,0.0,0.0,0.0
1696254918030,0.4814453,-0.1796875,0.84277344,0.03125,0.0625,0.0,24.625,28.8125,-193.125
1696254918064,0.4638672,-0.18261719,0.8417969,-0.15625,0.0,0.0,0.0,0.0,0.0
1696254918109,0.47265625,-0.1796875,0.8339844,0.09375,-0.0625,0.25,0.0,0.0,0.0
1696254918143,0.48339844,-0.18945312,0.8359375,-0.09375,-0.0625,0.0625,0.0,0.0,0.0
1696254918187,0.48339844,-0.18457031,0.8330078,-0.15625,0.0625,0.0625,0.0,0.0,0.0
1696254918223,0.47070312,-0.19042969,0.82714844,0.09375,0.125,0.0,0.0,0.0,0.0
1696254918266,0.4794922,-0.18359375,0.8408203,-0.09375,0.125,0.0,0.0,0.0,0.0
1696254918300,0.4814453,-0.18652344,0.8457031,-0.09375,-0.1875,-0.0625,0.0,0.0,0.0
1696254918345,0.47753906,-0.18261719,0.82910156,-0.53125,-0.25,0.0,0.0,0.0,0.0
1696254918391,0.47558594,-0.18847656,0.8330078,-0.03125,0.0,0.125,0.0,0.0,0.0
1696254918424,0.47070312,-0.19042969,0.8378906,0.03125,-0.0625,0.1875,0.0,0.0,0.0
1696254918469,0.47265625,-0.17480469,0.8339844,-0.03125,0.0625,0.0625,0.0,0.0,0.0
1696254918503,0.48046875,-0.18066406,0.8339844,-0.15625,-0.1875,0.0625,0.0,0.0,0.0
1696254918548,0.47460938,-0.19042969,0.8496094,-0.15625,0.0625,0.0,25.5,30.5,-191.875
1696254918582,0.47265625,-0.1875,0.83203125,0.28125,0.0,0.0625,0.0,0.0,0.0
1696254918626,0.4716797,-0.18164062,0.8359375,-0.03125,0.0,0.0,0.0,0.0,0.0
1696254918660,0.47753906,-0.18652344,0.8417969,-0.03125,0.125,0.0625,0.0,0.0,0.0
1696254918705,0.4658203,-0.18554688,0.84375,0.03125,0.125,0.0625,0.0,0.0,0.0
1696254918750,0.46679688,-0.18359375,0.8388672,0.15625,0.0625,0.125,0.0,0.0,0.0
1696254918784,0.46777344,-0.17773438,0.8388672,-0.28125,-0.1875,0.0,0.0,0.0,0.0
1696254918840,0.46972656,-0.18847656,0.8339844,-0.09375,-0.125,0.1875,0.0,0.0,0.0
1696254918862,0.4736328,-0.18359375,0.8388672,-0.15625,0.0,0.0,0.0,0.0,0.0
1696254918907,0.47460938,-0.1875,0.8359375,0.09375,0.0625,0.0625,0.0,0.0,0.0
1696254918952,0.47265625,-0.18554688,0.8339844,-0.03125,0.0625,0.25,0.0,0.0,0.0
1696254918986,0.47265625,-0.18457031,0.83984375,-0.21875,0.0,0.0,0.0,0.0,0.0
1696254919020,0.47558594,-0.17578125,0.85253906,-0.21875,-0.25,0.0625,23.6875,28.6875,-192.9375
1696254919065,0.4794922,-0.18164062,0.8408203,-0.28125,-0.125,0.0625,0.0,0.0,0.0
1696254919110,0.46972656,-0.17773438,0.8330078,0.15625,0.125,0.125,0.0,0.0,0.0
1696254919143,0.4765625,-0.1796875,0.8330078,-0.03125,0.0625,0.125,0.0,0.0,0.0
1696254919189,0.47851562,-0.18164062,0.84472656,-0.15625,-0.125,0.125,0.0,0.0,0.0
1696254919223,0.47070312,-0.18164062,0.8466797,-0.09375,-0.1875,0.0625,0.0,0.0,0.0
1696254919267,0.47070312,-0.18847656,0.8417969,0.03125,0.0625,0.0,0.0,0.0,0.0
1696254919301,0.48046875,-0.1953125,0.85253906,0.21875,0.0,0.0,0.0,0.0,0.0
1696254919346,0.47558594,-0.17480469,0.8457031,0.03125,-0.0625,0.1875,0.0,0.0,0.0
1696254919380,0.4736328,-0.17773438,0.8417969,-0.09375,-0.125,0.0625,0.0,0.0,0.0
1696254919425,0.46972656,-0.18066406,0.8417969,0.03125,0.0,0.1875,0.0,0.0,0.0
1696254919470,0.4736328,-0.18554688,0.8408203,-0.03125,0.0625,0.0,0.0,0.0,0.0
1696254919504,0.4716797,-0.17871094,0.8417969,-0.21875,-0.125,0.1875,0.0,0.0,0.0
1696254919549,0.46875,-0.18359375,0.8408203,-0.03125,0.0625,0.125,24.0,29.75,-192.9375
1696254919584,0.4765625,-0.19238281,0.8339844,-0.09375,-0.25,0.125,0.0,0.0,0.0
1696254919628,0.4638672,-0.18652344,0.83691406,0.03125,0.0625,0.0625,0.0,0.0,0.0
1696254919661,0.47070312,-0.18261719,0.8300781,-0.03125,0.1875,0.1875,0.0,0.0,0.0
1696254919706,0.4765625,-0.18066406,0.8310547,-0.09375,-0.125,0.125,0.0,0.0,0.0
1696254919752,0.48046875,-0.18164062,0.828125,-0.28125,-0.25,0.0625,0.0,0.0,0.0
1696254919785,0.48242188,-0.18359375,0.83496094,-0.15625,0.0,-0.1875,0.0,0.0,0.0
1696254919830,0.46875,-0.18945312,0.83203125,0.15625,-0.0625,0.0,0.0,0.0,0.0
1696254919864,0.47753906,-0.18261719,0.8251953,-0.34375,-0.0625,0.0625,0.0,0.0,0.0
1696254919909,0.47558594,-0.18847656,0.83984375,-0.03125,-0.0625,-0.125,0.0,0.0,0.0
1696254919943,0.4716797,-0.18652344,0.8310547,-0.03125,0.0625,-0.0625,0.0,0.0,0.0
1696254919988,0.47558594,-0.18554688,0.83691406,0.09375,0.0625,0.0,0.0,0.0,0.0
1696254920022,0.47753906,-0.18945312,0.83984375,0.21875,0.0625,-0.125,24.4375,29.75,-193.875
1696254920066,0.46972656,-0.1796875,0.8378906,0.03125,0.0625,0.0,0.0,0.0,0.0
1696254920100,0.46972656,-0.18554688,0.828125,0.03125,0.0,0.125,0.0,0.0,0.0
1696254920146,0.47851562,-0.18847656,0.8388672,0.21875,0.0625,-0.25,0.0,0.0,0.0
1696254920191,0.46484375,-0.17773438,0.8457031,0.03125,-0.0625,-0.125,0.0,0.0,0.0
1696254920224,0.4794922,-0.18261719,0.8359375,0.34375,-0.0625,-0.0625,0.0,0.0,0.0
1696254920269,0.48242188,-0.18457031,0.8378906,-0.28125,-0.125,0.0625,0.0,0.0,0.0
1696254920314,0.4814453,-0.17773438,0.8388672,-0.03125,0.0625,-0.0625,0.0,0.0,0.0
1696254920348,0.46679688,-0.17773438,0.8359375,0.15625,0.0625,0.125,0.0,0.0,0.0
1696254920382,0.4765625,-0.18457031,0.8300781,-0.09375,0.1875,0.0,0.0,0.0,0.0
1696254920427,0.46777344,-0.18847656,0.84277344,-0.09375,-0.125,-0.125,0.0,0.0,0.0
1696254920461,0.47851562,-0.17773438,0.8408203,-0.34375,-0.0625,-0.0625,0.0,0.0,0.0
1696254920506,0.4716797,-0.17675781,0.8408203,-0.09375,-0.0625,0.0,0.0,0.0,0.0
1696254920550,0.46972656,-0.18652344,0.85546875,0.15625,-0.0625,-0.0625,22.375,28.8125,-193.6875
1696254920584,0.46875,-0.17871094,0.8378906,-0.03125,0.0,-0.0625,0.0,0.0,0.0
1696254920629,0.47851562,-0.18554688,0.8466797,0.15625,-0.125,-0.0625,0.0,0.0,0.0
1696254920663,0.47558594,-0.18359375,0.8515625,0.03125,0.125,0.0,0.0,0.0,0.0
1696254920708,0.46972656,-0.18066406,0.8378906,0.09375,-0.0625,0.0625,0.0,0.0,0.0
1696254920741,0.4765625,-0.18457031,0.8310547,-0.03125,0.0625,-0.0625,0.0,0.0,0.0
1696254920787,0.46777344,-0.17773438,0.8515625,0.15625,0.0625,-0.0625,0.0,0.0,0.0
1696254920864,0.4736328,-0.17871094,0.84277344,0.15625,0.1875,0.0,0.0,0.0,0.0
1696254920866,0.47851562,-0.18261719,0.83691406,-0.09375,-0.1875,0.125,0.0,0.0,0.0
1696254920910,0.47070312,-0.18652344,0.8457031,-0.03125,0.0625,0.0,0.0,0.0,0.0
1696254920944,0.4658203,-0.18261719,0.8486328,-0.15625,-0.125,0.125,0.0,0.0,0.0
1696254920989,0.4716797,-0.17871094,0.8339844,0.03125,0.0,0.0,0.0,0.0,0.0
1696254921023,0.47851562,-0.1796875,0.8388672,0.03125,0.0625,0.0,25.1875,29.125,-192.375
1696254921068,0.48535156,-0.18261719,0.83496094,-0.03125,0.0625,0.125,0.0,0.0,0.0
1696254921101,0.4765625,-0.18066406,0.8496094,-0.03125,0.1875,0.25,0.0,0.0,0.0
1696254921146,0.4814453,-0.18066406,0.82910156,-0.09375,0.0,0.0625,0.0,0.0,0.0
1696254921180,0.4736328,-0.17773438,0.8300781,-0.09375,-0.125,-0.0625,0.0,0.0,0.0
1696254921225,0.4658203,-0.18359375,0.83496094,-0.09375,-0.0625,0.0,0.0,0.0,0.0
1696254921270,0.48046875,-0.1796875,0.8457031,-0.15625,-0.0625,0.0625,0.0,0.0,0.0
1696254921305,0.46679688,-0.1796875,0.8535156,0.03125,0.0,0.0,0.0,0.0,0.0
1696254921348,0.46875,-0.17871094,0.84277344,-0.09375,-0.1875,0.125,0.0,0.0,0.0
1696254921382,0.47265625,-0.18066406,0.83984375,-0.03125,-0.0625,0.0,0.0,0.0,0.0
1696254921427,0.47070312,-0.1875,0.8466797,0.09375,0.0625,0.0,0.0,0.0,0.0
1696254921461,0.47265625,-0.17773438,0.8457031,-0.09375,-0.0625,-0.125,0.0,0.0,0.0
1696254921506,0.46484375,-0.18164062,0.8378906,-0.09375,-0.125,-0.0625,0.0,0.0,0.0
1696254921551,0.46972656,-0.18164062,0.8339844,0.15625,0.0625,0.0,24.625,27.8125,-191.75
1696254921585,0.4736328,-0.17578125,0.8496094,0.21875,0.125,0.0625,0.0,0.0,0.0
1696254921630,0.484375,-0.17773438,0.8496094,-0.15625,-0.1875,0.125,0.0,0.0,0.0
1696254921664,0.47558594,-0.18457031,0.82714844,0.03125,-0.0625,0.125,0.0,0.0,0.0
1696254921709,0.4736328,-0.1796875,0.8378906,-0.03125,0.0625,-0.0625,0.0,0.0,0.0
1696254921743,0.47070312,-0.18457031,0.83203125,0.03125,0.0,0.0,0.0,0.0,0.0
1696254921788,0.47558594,-0.19042969,0.8515625,0.09375,0.0625,0.0,0.0,0.0,0.0
1696254921821,0.47558594,-0.18554688,0.8261719,-0.15625,-0.0625,0.0625,0.0,0.0,0.0
1696254921866,0.4736328,-0.1796875,0.84472656,-0.03125,0.125,0.125,0.0,0.0,0.0
1696254921900,0.46679688,-0.18652344,0.85058594,-0.21875,0.0625,0.0,0.0,0.0,0.0
1696254921944,0.46875,-0.18164062,0.83691406,-0.15625,-0.3125,0.0625,0.0,0.0,0.0
1696254921989,0.47460938,-0.18652344,0.82910156,-0.40625,-0.1875,0.0625,0.0,0.0,0.0
1696254922023,0.46875,-0.1796875,0.84277344,-0.15625,-0.0625,0.1875,24.875,28.8125,-193.125
1696254922068,0.4658203,-0.17773438,0.8486328,-0.09375,-0.0625,0.125,0.0,0.0,0.0
1696254922102,0.46484375,-0.18945312,0.84472656,0.21875,0.0,0.0,0.0,0.0,0.0
1696254922147,0.45996094,-0.19042969,0.84375,0.125,-0.15625,0.0,0.0,0.0,0.0
1696254922181,0.46875,-0.18457031,0.82910156,0.0,0.25,0.0625,0.0,0.0,0.0
1696254922226,0.46972656,-0.1875,0.8310547,0.1875,-0.15625,-0.0625,0.0,0.0,0.0
1696254922260,0.47460938,-0.18359375,0.83984375,-0.0625,-0.15625,0.0,0.0,0.0,0.0
1696254922305,0.47265625,-0.18164062,0.8339844,0.0,0.125,0.0,0.0,0.0,0.0
1696254922350,0.4716797,-0.18652344,0.8457031,0.0625,0.0625,0.125,0.0,0.0,0.0
1696254922384,0.46875,-0.18261719,0.8261719,0.125,0.1875,0.1875,0.0,0.0,0.0
1696254922429,0.4765625,-0.18847656,0.8466797,0.1875,0.0625,0.0,0.0,0.0,0.0
1696254922463,0.46972656,-0.17773438,0.8496094,0.0625,0.0625,0.0,0.0,0.0,0.0
1696254922509,0.47558594,-0.18847656,0.83984375,0.0,0.0,0.0,0.0,0.0,0.0
1696254922541,0.47265625,-0.17773438,0.84375,0.125,-0.09375,0.0625,23.5625,30.3125,-192.375
1696254922586,0.47558594,-0.17675781,0.84765625,-0.25,0.0625,0.0,0.0,0.0,0.0
1696254922620,0.46679688,-0.18359375,0.8457031,0.0625,0.125,0.0625,0.0,0.0,0.0
1696254922665,0.46972656,-0.18554688,0.84277344,0.125,0.125,0.25,0.0,0.0,0.0
1696254922710,0.47460938,-0.19238281,0.84277344,-0.375,-0.21875,-0.0625,0.0,0.0,0.0
1696254922744,0.46972656,-0.18652344,0.84375,-0.25,-0.15625,0.0,0.0,0.0,0.0
1696254922789,0.47460938,-0.17480469,0.8388672,-0.0625,-0.03125,-0.0625,0.0,0.0,0.0
1696254922823,0.46972656,-0.18457031,0.8388672,0.1875,0.0,0.125,0.0,0.0,0.0
1696254922868,0.46777344,-0.18554688,0.8496094,-0.25,-0.09375,0.0625,0.0,0.0,0.0
1696254922901,0.46484375,-0.18261719,0.8408203,0.1875,-0.09375,0.125,0.0,0.0,0.0
1696254922946,0.46875,-0.17871094,0.8330078,0.1875,0.1875,-0.125,0.0,0.0,0.0
1696254922980,0.47460938,-0.18554688,0.8339844,0.25,0.0625,0.1875,0.0,0.0,0.0
1696254923025,0.4736328,-0.18652344,0.84765625,0.0625,0.0625,-0.0625,23.25,29.4375,-192.9375
1696254923070,0.46679688,-0.1796875,0.8408203,0.0,-0.09375,-0.125,0.0,0.0,0.0
1696254923104,0.47851562,-0.18945312,0.84472656,-0.0625,-0.15625,0.0625,0.0,0.0,0.0
1696254923160,0.4736328,-0.18164062,0.8408203,0.0,0.0625,0.0625,0.0,0.0,0.0
1696254923182,0.47851562,-0.18652344,0.8378906,0.0,0.0,0.125,0.0,0.0,0.0
1696254923227,0.46679688,-0.1796875,0.8359375,0.125,0.0,0.1875,0.0,0.0,0.0
1696254923261,0.47558594,-0.1875,0.8466797,-0.0625,-0.09375,0.1875,0.0,0.0,0.0
1696254923306,0.46972656,-0.1875,0.85058594,-0.1875,-0.21875,-0.0625,0.0,0.0,0.0
1696254923352,0.47558594,-0.18945312,0.8388672,0.0,-0.03125,0.125,0.0,0.0,0.0
1696254923385,0.47070312,-0.17871094,0.83691406,0.0,0.0625,0.125,0.0,0.0,0.0
1696254923441,0.4736328,-0.1796875,0.83496094,0.1875,0.0625,0.0,0.0,0.0,0.0
1696254923464,0.4736328,-0.18457031,0.84765625,-0.125,0.0,0.0625,0.0,0.0,0.0
1696254923509,0.4716797,-0.17773438,0.8388672,-0.375,-0.28125,0.0,0.0,0.0,0.0
1696254923543,0.4794922,-0.18164062,0.84472656,-0.375,-0.15625,0.0625,24.125,29.125,-193.125
1696254923588,0.4658203,-0.18652344,0.83984375,0.125,0.125,0.0625,0.0,0.0,0.0
1696254923621,0.4716797,-0.18945312,0.8388672,-0.3125,-0.03125,0.0,0.0,0.0,0.0
1696254923666,0.47851562,-0.18652344,0.8359375,0.0625,0.0,-0.0625,0.0,0.0,0.0
1696254923711,0.47851562,-0.18457031,0.8466797,0.0,-0.21875,-0.125,0.0,0.0,0.0
1696254923745,0.47265625,-0.18945312,0.8300781,0.1875,0.0,-0.0625,0.0,0.0,0.0
1696254923790,0.48242188,-0.18457031,0.83496094,0.25,0.0,-0.1875,0.0,0.0,0.0
1696254923824,0.46875,-0.19042969,0.8359375,-0.125,-0.09375,-0.0625,0.0,0.0,0.0
1696254923869,0.47070312,-0.18261719,0.83496094,0.0,0.0625,-0.125,0.0,0.0,0.0
1696254923903,0.47753906,-0.18261719,0.8388672,0.0625,0.0625,-0.125,0.0,0.0,0.0
1696254923947,0.4794922,-0.18261719,0.83984375,0.125,0.0625,-0.1875,0.0,0.0,0.0
1696254923981,0.46777344,-0.18652344,0.83203125,0.0625,0.125,-0.0625,0.0,0.0,0.0
1696254924026,0.47558594,-0.19140625,0.859375,-0.125,0.0,-0.0625,24.625,28.5625,-193.125
1696254924060,0.4638672,-0.18457031,0.8496094,0.0,-0.09375,-0.1875,0.0,0.0,0.0
1696254924105,0.46875,-0.17871094,0.8339844,-0.0625,-0.09375,-0.0625,0.0,0.0,0.0
1696254924150,0.46777344,-0.17675781,0.8417969,0.125,0.0625,-0.125,0.0,0.0,0.0
1696254924184,0.4736328,-0.18652344,0.83691406,0.0,-0.03125,0.0625,0.0,0.0,0.0
1696254924229,0.46289062,-0.18554688,0.8378906,-0.125,0.0625,0.0625,0.0,0.0,0.0
1696254924263,0.46875,-0.1875,0.84277344,-0.125,0.0,-0.0625,0.0,0.0,0.0
1696254924307,0.46484375,-0.17675781,0.8388672,-0.375,-0.09375,-0.125,0.0,0.0,0.0
1696254924342,0.4765625,-0.1796875,0.828125,0.125,0.0625,0.0625,0.0,0.0,0.0
1696254924386,0.46875,-0.19238281,0.85253906,-0.1875,-0.28125,-0.125,0.0,0.0,0.0
1696254924431,0.46777344,-0.1875,0.83203125,-0.0625,0.0,-0.0625,0.0,0.0,0.0
1696254924465,0.46875,-0.18847656,0.8417969,0.1875,-0.09375,0.0,0.0,0.0,0.0
1696254924510,0.47753906,-0.18261719,0.8339844,0.0625,0.0625,-0.125,0.0,0.0,0.0
1696254924544,0.4736328,-0.1875,0.83984375,0.1875,-0.03125,-0.0625,22.9375,29.75,-193.25
1696254924588,0.4736328,-0.18847656,0.83203125,-0.0625,-0.15625,-0.125,0.0,0.0,0.0
1696254924623,0.4765625,-0.1875,0.8300781,0.0,0.0625,-0.0625,0.0,0.0,0.0
1696254924667,0.46875,-0.18945312,0.83984375,-0.0625,-0.15625,0.0,0.0,0.0,0.0
1696254924701,0.4794922,-0.17578125,0.8300781,0.125,0.0,0.0,0.0,0.0,0.0
1696254924746,0.46679688,-0.17773438,0.82910156,0.0,-0.03125,0.0,0.0,0.0,0.0
1696254924780,0.4638672,-0.18066406,0.84765625,-0.0625,-0.03125,0.0,0.0,0.0,0.0
1696254924825,0.46972656,-0.18359375,0.82128906,0.0,0.0,0.0,0.0,0.0,0.0
1696254924870,0.4736328,-0.18457031,0.8496094,-0.0625,-0.09375,-0.0625,0.0,0.0,0.0
1696254924904,0.4765625,-0.1796875,0.8417969,-0.0625,-0.03125,-0.0625,0.0,0.0,0.0
1696254924952,0.47753906,-0.17773438,0.8378906,-0.125,0.0,0.0625,0.0,0.0,0.0
1696254924983,0.484375,-0.1796875,0.8486328,0.0,0.0625,0.0625,0.0,0.0,0.0
1696254925027,0.4638672,-0.1875,0.84375,-0.0625,0.0625,-0.0625,23.5625,29.875,-192.375
1696254925061,0.4658203,-0.17871094,0.83691406,-0.125,-0.21875,0.0625,0.0,0.0,0.0
1696254925106,0.47851562,-0.18164062,0.83203125,-0.25,-0.09375,-0.125,0.0,0.0,0.0
1696254925151,0.47460938,-0.18066406,0.8544922,-0.1875,-0.15625,0.0,0.0,0.0,0.0
1696254925185,0.4609375,-0.18066406,0.82910156,0.0,0.0,0.0,0.0,0.0,0.0
1696254925232,0.46484375,-0.18164062,0.83984375,-0.125,0.0,0.0,0.0,0.0,0.0
1696254925264,0.46484375,-0.1875,0.8417969,0.1875,-0.09375,-0.0625,0.0,0.0,0.0
1696254925309,0.4794922,-0.1796875,0.8515625,0.0,0.0625,-0.125,0.0,0.0,0.0
1696254925344,0.47265625,-0.18066406,0.8466797,0.1875,0.0,-0.125,0.0,0.0,0.0
1696254925387,0.47558594,-0.18652344,0.8378906,-0.0625,-0.15625,-0.125,0.0,0.0,0.0
1696254925421,0.47851562,-0.18261719,0.8408203,-0.0625,-0.03125,0.0625,0.0,0.0,0.0
1696254925466,0.47851562,-0.18066406,0.8339844,0.1875,0.0625,0.0625,0.0,0.0,0.0
1696254925511,0.46777344,-0.17871094,0.82421875,-0.0625,-0.15625,0.125,0.0,0.0,0.0
1696254925545,0.47070312,-0.1875,0.8330078,-0.0625,-0.03125,-0.0625,25.0625,29.75,-191.4375
1696254925590,0.46972656,-0.18847656,0.83691406,-0.0625,-0.34375,0.125,0.0,0.0,0.0
1696254925624,0.4716797,-0.17871094,0.8330078,-0.0625,0.0,0.0,0.0,0.0,0.0
1696254925669,0.46875,-0.18261719,0.8261719,-0.0625,-0.09375,0.0,0.0,0.0,0.0
1696254925703,0.46972656,-0.18261719,0.83984375,0.0625,0.0,0.1875,0.0,0.0,0.0
1696254925747,0.46875,-0.17675781,0.84375,-0.0625,-0.03125,0.0625,0.0,0.0,0.0
1696254925784,0.47070312,-0.18457031,0.828125,0.0,0.125,0.0625,0.0,0.0,0.0
1696254925826,0.47851562,-0.17480469,0.8378906,-0.0625,-0.09375,0.0625,0.0,0.0,0.0
1696254925871,0.46484375,-0.18554688,0.8417969,-0.125,0.0625,0.125,0.0,0.0,0.0
1696254925905,0.4765625,-0.18457031,0.8535156,-0.1875,-0.21875,0.1875,0.0,0.0,0.0
1696254925949,0.4716797,-0.17773438,0.8359375,-0.25,-0.09375,0.0625,0.0,0.0,0.0
1696254925984,0.47265625,-0.18457031,0.84277344,-0.375,-0.09375,0.0,0.0,0.0,0.0
1696254926029,0.4736328,-0.19628906,0.8408203,0.25,0.0,0.125,24.0,28.6875,-191.875
1696254926062,0.4658203,-0.17871094,0.8300781,-0.25,-0.03125,0.0625,0.0,0.0,0.0
1696254926107,0.46679688,-0.17578125,0.8310547,0.1875,-0.09375,0.125,0.0,0.0,0.0
1696254926141,0.47460938,-0.18066406,0.83691406,-0.0625,-0.21875,0.0,0.0,0.0,0.0
1696254926186,0.47558594,-0.18847656,0.8144531,0.1875,0.0,0.0,0.0,0.0,0.0
1696254926231,0.4736328,-0.17675781,0.83691406,0.0625,-0.21875,0.25,0.0,0.0,0.0
1696254926265,0.47265625,-0.17382812,0.84375,-0.125,-0.09375,0.0625,0.0,0.0,0.0
1696254926344,0.47070312,-0.1796875,0.8486328,0.125,0.125,0.125,0.0,0.0,0.0
1696254926345,0.4765625,-0.18652344,0.84765625,0.0,0.0,0.0,0.0,0.0,0.0
1696254926389,0.4765625,-0.18066406,0.8378906,-0.0625,-0.21875,-0.0625,0.0,0.0,0.0
1696254926422,0.48046875,-0.17871094,0.83496094,-0.0625,-0.15625,0.1875,0.0,0.0,0.0
1696254926467,0.47558594,-0.19042969,0.8515625,-0.125,-0.15625,0.0625,0.0,0.0,0.0
1696254926501,0.47851562,-0.17773438,0.83984375,-0.125,-0.03125,0.0625,0.0,0.0,0.0
1696254926546,0.4716797,-0.1875,0.8310547,-0.0625,-0.09375,0.0625,24.125,28.5625,-192.625
1696254926591,0.46777344,-0.1875,0.8408203,0.125,0.0625,0.1875,0.0,0.0,0.0
1696254926625,0.4658203,-0.18066406,0.8535156,0.0625,-0.09375,0.1875,0.0,0.0,0.0
1696254926704,0.47558594,-0.17871094,0.83691406,-0.1875,-0.03125,0.1875,0.0,0.0,0.0
1696254926711,0.47070312,-0.18945312,0.84472656,-0.4375,-0.09375,0.0625,0.0,0.0,0.0
1696254926749,0.46484375,-0.17871094,0.83984375,-0.4375,-0.21875,-0.0625,0.0,0.0,0.0
1696254926782,0.48046875,-0.19042969,0.8300781,-0.125,-0.03125,0.0625,0.0,0.0,0.0
1696254926830,0.4765625,-0.18457031,0.8388672,0.0,0.0,0.25,0.0,0.0,0.0
1696254926861,0.4658203,-0.19335938,0.8417969,-0.3125,-0.15625,0.125,0.0,0.0,0.0
1696254926906,0.46875,-0.17675781,0.84277344,0.125,-0.03125,0.0,0.0,0.0,0.0
1696254926951,0.47851562,-0.18164062,0.85058594,0.0,-0.09375,0.0,0.0,0.0,0.0
1696254926985,0.47460938,-0.18066406,0.8378906,-0.0625,-0.09375,-0.125,0.0,0.0,0.0
1696254927031,0.47753906,-0.19042969,0.8417969,0.0625,-0.15625,0.0625,24.875,29.5625,-192.0625
1696254927064,0.46777344,-0.18457031,0.8310547,0.0,0.0,0.125,0.0,0.0,0.0
1696254927108,0.4736328,-0.18066406,0.85058594,-0.0625,0.0,-0.0625,0.0,0.0,0.0
1696254927143,0.4638672,-0.18261719,0.8359375,-0.0625,-0.03125,0.0625,0.0,0.0,0.0
1696254927187,0.4716797,-0.18066406,0.8378906,-0.125,0.0625,-0.0625,0.0,0.0,0.0
1696254927221,0.47558594,-0.17675781,0.8359375,0.0,-0.03125,0.125,0.0,0.0,0.0
1696254927266,0.47265625,-0.18554688,0.84277344,-0.1875,-0.03125,0.0,0.0,0.0,0.0
1696254927323,0.4765625,-0.1875,0.8339844,-0.0625,-0.03125,-0.0625,0.0,0.0,0.0
1696254927345,0.4716797,-0.18164062,0.83496094,-0.125,-0.09375,-0.0625,0.0,0.0,0.0
1696254927390,0.47265625,-0.18554688,0.82910156,0.0625,-0.03125,-0.0625,0.0,0.0,0.0
1696254927423,0.47265625,-0.18261719,0.8339844,-0.0625,0.125,-0.0625,0.0,0.0,0.0
1696254927469,0.47265625,-0.18554688,0.84765625,-0.3125,0.3125,0.0,0.0,0.0,0.0
1696254927502,0.47558594,-0.18457031,0.85253906,-0.0625,-0.21875,0.0,0.0,0.0,0.0
1696254927547,0.47070312,-0.18164062,0.8417969,-0.5,-0.15625,-0.0625,25.0625,28.6875,-191.875
1696254927581,0.4765625,-0.18457031,0.8564453,-0.3125,-0.09375,-0.1875,0.0,0.0,0.0
1696254927626,0.47753906,-0.18066406,0.8388672,0.0625,0.0,-0.0625,0.0,0.0,0.0
1696254927671,0.46972656,-0.1875,0.85058594,-0.125,-0.21875,0.0,0.0,0.0,0.0
1696254927705,0.46875,-0.18261719,0.84375,0.3125,-0.03125,-0.0625,0.0,0.0,0.0
1696254927750,0.46972656,-0.18652344,0.83984375,-0.125,-0.21875,-0.125,0.0,0.0,0.0
1696254927784,0.46289062,-0.17578125,0.8388672,0.125,0.125,-0.1875,0.0,0.0,0.0
1696254927829,0.4736328,-0.18164062,0.8466797,0.0,0.0,-0.125,0.0,0.0,0.0
1696254927862,0.47265625,-0.17675781,0.83496094,-0.0625,-0.03125,-0.125,0.0,0.0,0.0
1696254927908,0.47851562,-0.1875,0.8330078,0.125,0.125,0.0,0.0,0.0,0.0
1696254927941,0.4736328,-0.18066406,0.84277344,0.1875,-0.03125,-0.0625,0.0,0.0,0.0
1696254927986,0.46875,-0.17578125,0.83691406,-0.0625,-0.09375,0.0,0.0,0.0,0.0
1696254928031,0.46679688,-0.18945312,0.85058594,-0.0625,-0.03125,0.0,25.5,28.6875,-192.1875
1696254928065,0.46972656,-0.19335938,0.8359375,-0.1875,-0.09375,0.125,0.0,0.0,0.0
1696254928110,0.46777344,-0.19238281,0.83203125,0.25,0.0625,0.0625,0.0,0.0,0.0
1696254928144,0.46679688,-0.1875,0.84277344,-0.0625,-0.34375,0.0,0.0,0.0,0.0
1696254928188,0.47851562,-0.17285156,0.8496094,-0.1875,-0.03125,-0.0625,0.0,0.0,0.0
1696254928223,0.47558594,-0.17382812,0.8486328,-0.1875,-0.09375,0.125,0.0,0.0,0.0
1696254928267,0.4716797,-0.18261719,0.8417969,-0.125,0.125,0.0,0.0,0.0,0.0
1696254928301,0.46875,-0.18261719,0.8486328,-0.125,-0.21875,0.0,0.0,0.0,0.0
1696254928357,0.4794922,-0.18164062,0.85058594,-0.3125,-0.34375,0.0,0.0,0.0,0.0
1696254928391,0.46875,-0.18261719,0.8310547,-0.25,-0.03125,-0.125,0.0,0.0,0.0
1696254928425,0.46875,-0.17871094,0.8457031,-0.0625,-0.21875,0.0625,0.0,0.0,0.0
1696254928470,0.46289062,-0.18554688,0.82128906,0.0,0.0625,-0.125,0.0,0.0,0.0
1696254928504,0.46875,-0.1796875,0.83496094,0.0,-0.09375,-0.0625,0.0,0.0,0.0
1696254928549,0.46875,-0.17773438,0.83496094,0.0,-0.09375,-0.1875,25.0625,29.4375,-192.5
1696254928582,0.4638672,-0.18847656,0.83496094,0.125,-0.09375,0.0625,0.0,0.0,0.0
1696254928628,0.46679688,-0.1796875,0.8417969,0.15625,-0.28125,-0.09375,0.0,0.0,0.0
1696254928661,0.48242188,-0.17382812,0.85058594,-0.03125,0.0,-0.03125,0.0,0.0,0.0
1696254928706,0.46875,-0.17773438,0.83203125,0.03125,0.0625,0.09375,0.0,0.0,0.0
1696254928751,0.47558594,-0.1796875,0.83984375,0.09375,0.0625,-0.03125,0.0,0.0,0.0
1696254928785,0.46875,-0.18457031,0.8417969,-0.21875,-0.09375,0.09375,0.0,0.0,0.0
1696254928830,0.46875,-0.18164062,0.84277344,-0.03125,-0.0625,0.03125,0.0,0.0,0.0
1696254928864,0.47753906,-0.18457031,0.83496094,-0.03125,-0.09375,0.09375,0.0,0.0,0.0
1696254928911,0.4736328,-0.1875,0.8408203,0.03125,0.0,-0.15625,0.0,0.0,0.0
1696254928942,0.4736328,-0.18554688,0.8408203,0.03125,0.0,0.21875,0.0,0.0,0.0
1696254928988,0.4736328,-0.18261719,0.8408203,-0.03125,-0.0625,0.15625,0.0,0.0,0.0
1696254929032,0.4736328,-0.17675781,0.8310547,0.03125,0.0625,-0.03125,23.25,28.375,-192.5
1696254929066,0.47753906,-0.18554688,0.8222656,-0.03125,-0.09375,0.09375,0.0,0.0,0.0
1696254929111,0.46972656,-0.17773438,0.8457031,-0.03125,0.125,0.09375,0.0,0.0,0.0
1696254929145,0.47265625,-0.19042969,0.8466797,-0.3125,0.0,0.28125,0.0,0.0,0.0
1696254929191,0.46191406,-0.1875,0.8457031,-0.21875,-0.34375,-0.03125,0.0,0.0,0.0
1696254929224,0.4716797,-0.17871094,0.8388672,-0.21875,0.0,-0.09375,0.0,0.0,0.0
1696254929269,0.47265625,-0.18652344,0.84472656,-0.09375,0.0,0.09375,0.0,0.0,0.0
1696254929303,0.4658203,-0.18164062,0.8330078,-0.03125,0.0,0.09375,0.0,0.0,0.0
1696254929347,0.47265625,-0.18847656,0.8535156,0.03125,0.0625,0.03125,0.0,0.0,0.0
1696254929381,0.46875,-0.1796875,0.83691406,0.21875,-0.21875,0.09375,0.0,0.0,0.0
1696254929426,0.46972656,-0.18847656,0.83203125,0.03125,0.0,0.03125,0.0,0.0,0.0
1696254929471,0.46484375,-0.17480469,0.8261719,0.03125,-0.09375,0.03125,0.0,0.0,0.0
1696254929505,0.47460938,-0.17480469,0.8330078,-0.03125,-0.15625,-0.09375,0.0,0.0,0.0
1696254929552,0.47265625,-0.17871094,0.84765625,-0.03125,0.0,0.21875,23.5625,29.875,-192.0625
1696254929584,0.46777344,-0.17773438,0.84277344,-0.03125,0.0,0.15625,0.0,0.0,0.0
1696254929629,0.46484375,-0.18457031,0.8388672,-0.03125,0.0,0.15625,0.0,0.0,0.0
1696254929662,0.47265625,-0.17871094,0.8408203,-0.09375,-0.09375,0.15625,0.0,0.0,0.0
1696254929719,0.4794922,-0.18847656,0.83984375,-0.03125,-0.0625,0.09375,0.0,0.0,0.0
1696254929786,0.4716797,-0.18066406,0.8378906,-0.21875,0.0,0.15625,0.0,0.0,0.0
1696254929787,0.46972656,-0.18066406,0.8486328,0.15625,0.1875,0.09375,0.0,0.0,0.0
1696254929831,0.4658203,-0.18554688,0.8339844,-0.09375,-0.0625,0.03125,0.0,0.0,0.0
1696254929865,0.46679688,-0.18554688,0.83984375,-0.03125,-0.0625,0.03125,0.0,0.0,0.0
1696254929909,0.46777344,-0.17578125,0.8310547,0.03125,0.125,0.21875,0.0,0.0,0.0
1696254929944,0.46484375,-0.18164062,0.83984375,-0.21875,0.0,0.28125,0.0,0.0,0.0
1696254929988,0.4765625,-0.18652344,0.83203125,-0.09375,-0.09375,0.09375,0.0,0.0,0.0
1696254930022,0.46875,-0.17871094,0.8417969,-0.5,-0.15625,0.03125,23.25,26.875,-191.4375
1696254930067,0.4736328,-0.18164062,0.85253906,-0.25,0.0,0.09375,0.0,0.0,0.0
1696254930101,0.4716797,-0.19335938,0.82128906,0.21875,0.125,0.15625,0.0,0.0,0.0
1696254930146,0.47265625,-0.18945312,0.83691406,-0.09375,-0.0625,0.03125,0.0,0.0,0.0
1696254930191,0.4736328,-0.18066406,0.8417969,0.21875,-0.09375,0.03125,0.0,0.0,0.0
1696254930224,0.46679688,-0.17773438,0.84765625,-0.09375,0.0,0.03125,0.0,0.0,0.0
1696254930270,0.47070312,-0.17871094,0.8574219,-0.03125,-0.0625,-0.03125,0.0,0.0,0.0
1696254930303,0.47070312,-0.18847656,0.8408203,-0.03125,-0.0625,-0.03125,0.0,0.0,0.0
1696254930349,0.4716797,-0.18261719,0.8339844,-0.03125,0.0,-0.03125,0.0,0.0,0.0
1696254930382,0.46972656,-0.18164062,0.83496094,0.09375,0.0625,-0.03125,0.0,0.0,0.0
1696254930427,0.47265625,-0.17773438,0.83984375,0.03125,0.0625,0.03125,0.0,0.0,0.0
1696254930461,0.46679688,-0.18847656,0.8417969,-0.09375,-0.09375,0.03125,0.0,0.0,0.0
1696254930506,0.46484375,-0.18261719,0.84277344,-0.09375,-0.09375,0.09375,25.0625,30.5,-192.9375
1696254930551,0.46972656,-0.18457031,0.8222656,0.09375,0.0625,0.15625,0.0,0.0,0.0
1696254930586,0.47265625,-0.1875,0.83984375,-0.03125,-0.09375,0.09375,0.0,0.0,0.0
1696254930630,0.47558594,-0.19042969,0.8339844,-0.03125,0.0625,-0.09375,0.0,0.0,0.0
1696254930664,0.4658203,-0.17773438,0.84375,-0.03125,0.0625,-0.09375,0.0,0.0,0.0
1696254930709,0.4765625,-0.1875,0.8564453,0.15625,0.0625,-0.03125,0.0,0.0,0.0
1696254930742,0.47460938,-0.17871094,0.8457031,-0.09375,0.125,-0.09375,0.0,0.0,0.0
1696254930787,0.47753906,-0.18261719,0.85546875,-0.03125,0.0,-0.21875,0.0,0.0,0.0
1696254930825,0.47265625,-0.18164062,0.83691406,-0.375,-0.0625,-0.15625,0.0,0.0,0.0
1696254930878,0.47460938,-0.18652344,0.83203125,-0.25,-0.0625,-0.09375,0.0,0.0,0.0
1696254930911,0.46777344,-0.18457031,0.8300781,0.21875,0.125,-0.03125,0.0,0.0,0.0
1696254930945,0.46289062,-0.18652344,0.84277344,-0.03125,-0.0625,-0.09375,0.0,0.0,0.0
1696254930990,0.46484375,-0.18261719,0.8496094,0.15625,0.1875,-0.15625,0.0,0.0,0.0
1696254931024,0.4638672,-0.1796875,0.8388672,-0.03125,-0.0625,-0.40625,25.1875,29.875,-192.625
1696254931069,0.47558594,-0.17773438,0.8339844,0.03125,-0.09375,-0.21875,0.0,0.0,0.0
1696254931102,0.47851562,-0.17480469,0.84375,0.09375,0.0,0.03125,0.0,0.0,0.0
1696254931159,0.47070312,-0.18847656,0.84277344,-0.03125,-0.09375,-0.09375,0.0,0.0,0.0
1696254931183,0.46972656,-0.17675781,0.8339844,0.03125,0.0625,0.03125,0.0,0.0,0.0
1696254931226,0.46679688,-0.18066406,0.84472656,0.03125,-0.0625,-0.09375,0.0,0.0,0.0
1696254931271,0.46972656,-0.17578125,0.85058594,0.03125,0.0,-0.0625,0.0,0.0,0.0
1696254931305,0.4658203,-0.18359375,0.8466797,0.03125,-0.0625,0.0625,0.0,0.0,0.0
1696254931350,0.47070312,-0.18164062,0.83984375,-0.09375,0.125,-0.0625,0.0,0.0,0.0
1696254931384,0.47558594,-0.17773438,0.8339844,-0.03125,0.0,0.0625,0.0,0.0,0.0
1696254931429,0.46777344,-0.18554688,0.8457031,0.03125,0.125,-0.0625,0.0,0.0,0.0
1696254931462,0.46679688,-0.17578125,0.8496094,0.03125,0.0625,0.0625,0.0,0.0,0.0
1696254931507,0.4716797,-0.18652344,0.8496094,-0.09375,-0.0625,-0.0625,24.75,29.4375,-192.9375
1696254931541,0.46777344,-0.17675781,0.8515625,-0.03125,0.0,0.0,0.0,0.0,0.0
1696254931586,0.4580078,-0.17675781,0.85546875,-0.1875,-0.0625,0.0625,0.0,0.0,0.0
1696254931631,0.46875,-0.17285156,0.84375,-0.3125,0.0625,0.0,0.0,0.0,0.0
1696254931665,0.46679688,-0.17871094,0.8359375,-0.09375,-0.125,0.125,0.0,0.0,0.0
1696254931724,0.4765625,-0.17285156,0.8330078,-0.4375,-0.125,-0.0625,0.0,0.0,0.0
1696254931744,0.47558594,-0.18554688,0.83496094,-0.03125,0.0,0.0,0.0,0.0,0.0
1696254931789,0.46875,-0.16894531,0.8339844,-0.09375,-0.0625,0.0,0.0,0.0,0.0
1696254931822,0.46777344,-0.1796875,0.8388672,0.34375,0.125,-0.1875,0.0,0.0,0.0
1696254931868,0.47460938,-0.18554688,0.84375,0.15625,-0.1875,-0.0625,0.0,0.0,0.0
1696254931901,0.4736328,-0.17773438,0.8564453,0.03125,0.0,-0.0625,0.0,0.0,0.0
1696254931946,0.47070312,-0.18359375,0.8535156,0.21875,0.125,-0.0625,0.0,0.0,0.0
1696254931991,0.47070312,-0.1875,0.8457031,-0.03125,-0.125,-0.0625,0.0,0.0,0.0
1696254932024,0.46484375,-0.17480469,0.83691406,0.03125,0.0625,0.0,22.8125,29.5625,-192.625
1696254932070,0.46972656,-0.18066406,0.8417969,0.21875,0.125,0.0,0.0,0.0,0.0
1696254932103,0.46972656,-0.18359375,0.8466797,-0.03125,-0.0625,0.0625,0.0,0.0,0.0
1696254932148,0.47558594,-0.1796875,0.83984375,-0.09375,-0.3125,0.0,0.0,0.0,0.0
1696254932182,0.47070312,-0.18554688,0.83496094,-0.15625,-0.25,0.125,0.0,0.0,0.0
1696254932227,0.47460938,-0.18359375,0.8378906,-0.09375,0.0,0.125,0.0,0.0,0.0
1696254932272,0.46972656,-0.18457031,0.85058594,0.03125,0.0625,0.0625,0.0,0.0,0.0
1696254932306,0.47851562,-0.18066406,0.8378906,0.21875,0.125,0.0,0.0,0.0,0.0
1696254932351,0.47460938,-0.1796875,0.85546875,-0.15625,0.0,-0.0625,0.0,0.0,0.0
1696254932385,0.46679688,-0.18066406,0.8359375,-0.03125,0.0,0.0,0.0,0.0,0.0
1696254932430,0.46972656,-0.18554688,0.8564453,0.03125,0.0625,0.0625,0.0,0.0,0.0
1696254932463,0.4716797,-0.18164062,0.84277344,-0.1875,0.125,0.125,0.0,0.0,0.0
1696254932509,0.47460938,-0.18652344,0.84375,-0.09375,-0.125,0.125,23.6875,29.0,-193.25
1696254932542,0.46972656,-0.17675781,0.8417969,-0.3125,-0.3125,-0.0625,0.0,0.0,0.0
1696254932587,0.4814453,-0.17285156,0.8359375,-0.25,-0.125,-0.1875,0.0,0.0,0.0
1696254932621,0.4658203,-0.18164062,0.8388672,0.09375,0.0,0.125,0.0,0.0,0.0
1696254932666,0.46679688,-0.18652344,0.83984375,-0.25,0.0,0.125,0.0,0.0,0.0
1696254932711,0.46777344,-0.18164062,0.83984375,-0.03125,-0.1875,-0.0625,0.0,0.0,0.0
1696254932745,0.46289062,-0.1796875,0.82128906,-0.09375,-0.1875,-0.0625,0.0,0.0,0.0
1696254932790,0.47265625,-0.18945312,0.8300781,0.28125,0.125,0.0,0.0,0.0,0.0
1696254932824,0.47460938,-0.19238281,0.8486328,-0.03125,-0.1875,0.0,0.0,0.0,0.0
1696254932868,0.4658203,-0.18554688,0.83496094,0.03125,0.125,0.0,0.0,0.0,0.0
1696254932902,0.46777344,-0.18359375,0.8388672,0.09375,0.1875,0.0625,0.0,0.0,0.0
1696254932948,0.47460938,-0.18164062,0.8388672,0.09375,0.0625,0.0,0.0,0.0,0.0
1696254932992,0.4794922,-0.18359375,0.8417969,-0.03125,0.0,0.125,0.0,0.0,0.0
1696254933026,0.47070312,-0.17578125,0.8417969,-0.03125,-0.125,0.0,23.6875,30.0625,-192.1875
1696254933071,0.47265625,-0.17773438,0.8408203,-0.25,-0.125,0.125,0.0,0.0,0.0
1696254933104,0.46191406,-0.1796875,0.8486328,-0.03125,-0.125,0.0625,0.0,0.0,0.0
1696254933151,0.47558594,-0.18164062,0.8388672,0.09375,0.1875,0.125,0.0,0.0,0.0
1696254933185,0.48046875,-0.18164062,0.83984375,0.03125,0.0,0.125,0.0,0.0,0.0
1696254933229,0.47070312,-0.17675781,0.8359375,-0.09375,-0.125,-0.0625,0.0,0.0,0.0
1696254933263,0.47265625,-0.17871094,0.8408203,-0.15625,0.0,0.0625,0.0,0.0,0.0
1696254933308,0.4765625,-0.18652344,0.84277344,-0.15625,-0.0625,0.1875,0.0,0.0,0.0
1696254933341,0.46484375,-0.18164062,0.8378906,-0.09375,0.125,0.1875,0.0,0.0,0.0
1696254933386,0.4736328,-0.18652344,0.84472656,-0.09375,-0.1875,0.125,0.0,0.0,0.0
1696254933465,0.47070312,-0.18554688,0.8417969,-0.3125,-0.125,0.1875,0.0,0.0,0.0
1696254933468,0.46875,-0.18457031,0.8388672,-0.15625,-0.0625,0.1875,0.0,0.0,0.0
1696254933510,0.4716797,-0.18359375,0.8310547,-0.03125,-0.0625,0.0625,24.625,28.5625,-193.375
1696254933545,0.4658203,-0.18066406,0.8466797,0.03125,0.0,0.0625,0.0,0.0,0.0
1696254933589,0.4765625,-0.17480469,0.84277344,0.03125,-0.1875,0.0625,0.0,0.0,0.0
1696254933634,0.4658203,-0.17285156,0.8310547,-0.03125,0.0625,-0.0625,0.0,0.0,0.0
1696254933668,0.47265625,-0.19335938,0.84375,0.15625,0.0,0.0625,0.0,0.0,0.0
1696254933713,0.47265625,-0.19238281,0.8330078,-0.03125,-0.1875,0.0,0.0,0.0,0.0
1696254933747,0.47753906,-0.1796875,0.8466797,0.15625,0.1875,0.125,0.0,0.0,0.0
1696254933792,0.46679688,-0.1796875,0.83691406,-0.03125,0.0,0.0625,0.0,0.0,0.0
1696254933825,0.47851562,-0.18554688,0.8330078,0.03125,0.125,0.0625,0.0,0.0,0.0
1696254933870,0.46484375,-0.17675781,0.8466797,0.09375,0.0,0.125,0.0,0.0,0.0
1696254933904,0.47265625,-0.18261719,0.84472656,-0.09375,0.0,-0.0625,0.0,0.0,0.0
1696254933949,0.47265625,-0.18457031,0.8408203,-0.15625,-0.125,0.0,0.0,0.0,0.0
1696254933983,0.46777344,-0.18847656,0.8408203,0.03125,0.0,0.0625,0.0,0.0,0.0
1696254934028,0.47558594,-0.18261719,0.82128906,0.03125,0.125,-0.0625,24.0,29.4375,-193.25
1696254934073,0.47851562,-0.18359375,0.8378906,-0.03125,0.0,-0.125,0.0,0.0,0.0
1696254934107,0.47070312,-0.18457031,0.8466797,0.03125,0.0,0.0,0.0,0.0,0.0
1696254934152,0.4638672,-0.18554688,0.8496094,-0.03125,0.125,0.125,0.0,0.0,0.0
1696254934185,0.4736328,-0.1796875,0.8378906,-0.15625,0.1875,0.0,0.0,0.0,0.0
1696254934230,0.46777344,-0.18261719,0.8457031,-0.15625,-0.375,-0.1875,0.0,0.0,0.0
1696254934265,0.4716797,-0.18066406,0.8359375,-0.25,0.0,-0.0625,0.0,0.0,0.0
1696254934309,0.47265625,-0.18457031,0.82714844,0.03125,0.0625,0.0625,0.0,0.0,0.0
1696254934343,0.46484375,-0.18554688,0.82910156,0.09375,-0.0625,-0.0625,0.0,0.0,0.0
1696254934388,0.4638672,-0.18652344,0.82910156,-0.09375,-0.1875,-0.0625,0.0,0.0,0.0
1696254934433,0.46777344,-0.19042969,0.8417969,0.15625,-0.0625,-0.1875,0.0,0.0,0.0
1696254934467,0.4794922,-0.18554688,0.8417969,0.09375,-0.0625,-0.125,0.0,0.0,0.0
1696254934512,0.47070312,-0.1796875,0.83984375,-0.03125,-0.0625,-0.125,23.5625,28.0625,-191.75
1696254934545,0.4736328,-0.19335938,0.8408203,0.21875,-0.0625,-0.125,0.0,0.0,0.0
1696254934590,0.4765625,-0.1796875,0.84375,-0.03125,0.0,-0.0625,0.0,0.0,0.0
1696254934624,0.46777344,-0.17675781,0.83691406,0.03125,0.125,-0.125,0.0,0.0,0.0
1696254934672,0.4716797,-0.17871094,0.8310547,0.03125,-0.0625,0.0,0.0,0.0,0.0
1696254934702,0.48046875,-0.1875,0.8496094,-0.03125,0.0,-0.125,0.0,0.0,0.0
1696254934747,0.46191406,-0.18554688,0.8378906,-0.03125,-0.125,-0.0625,0.0,0.0,0.0
1696254934792,0.47070312,-0.18261719,0.85253906,-0.15625,-0.125,0.0,0.0,0.0,0.0
1696254934826,0.47851562,-0.18261719,0.8486328,0.15625,0.0625,0.0,0.0,0.0,0.0
1696254934904,0.4736328,-0.18261719,0.82910156,-0.03125,-0.125,0.0,0.0,0.0,0.0
1696254934906,0.46679688,-0.18457031,0.84765625,0.03125,0.125,-0.125,0.0,0.0,0.0
1696254934949,0.46875,-0.18164062,0.8544922,-0.09375,0.0,-0.125,0.0,0.0,0.0
1696254934984,0.46875,-0.18164062,0.8388672,-0.1875,-0.0625,0.125,0.0,0.0,0.0
1696254935029,0.46777344,-0.18164062,0.84765625,-0.09375,0.1875,0.0625,24.75,29.75,-193.25
1696254935062,0.47070312,-0.18847656,0.8378906,-0.25,-0.25,0.0,0.0,0.0,0.0
1696254935107,0.47558594,-0.18652344,0.8339844,-0.25,-0.125,-0.0625,0.0,0.0,0.0
1696254935152,0.47460938,-0.17871094,0.85253906,-0.1875,-0.125,0.0,0.0,0.0,0.0
1696254935187,0.46972656,-0.18652344,0.8359375,0.0,-0.03125,0.09375,0.0,0.0,0.0
1696254935265,0.45996094,-0.19042969,0.81933594,0.125,0.0625,-0.03125,0.0,0.0,0.0
1696254935266,0.47265625,-0.17773438,0.84375,0.125,-0.15625,-0.03125,0.0,0.0,0.0
1696254935309,0.4765625,-0.18359375,0.84375,0.0625,-0.09375,-0.09375,0.0,0.0,0.0
1696254935343,0.46875,-0.1875,0.8388672,0.0,0.03125,-0.15625,0.0,0.0,0.0
1696254935389,0.46875,-0.18261719,0.8466797,0.125,-0.15625,0.03125,0.0,0.0,0.0
1696254935425,0.4736328,-0.17382812,0.8388672,0.0625,0.0625,0.03125,0.0,0.0,0.0
1696254935467,0.46777344,-0.18066406,0.8261719,0.1875,0.0625,-0.03125,0.0,0.0,0.0
1696254935512,0.4765625,-0.1796875,0.84277344,0.0,-0.03125,0.03125,24.875,29.875,-194.4375
1696254935546,0.4765625,-0.1796875,0.84765625,-0.1875,-0.21875,-0.15625,0.0,0.0,0.0
1696254935591,0.47460938,-0.18652344,0.8408203,0.0,0.03125,0.09375,0.0,0.0,0.0
1696254935625,0.46777344,-0.18359375,0.8486328,-0.25,0.03125,0.15625,0.0,0.0,0.0
1696254935670,0.4736328,-0.18945312,0.83203125,0.125,0.03125,0.15625,0.0,0.0,0.0
1696254935704,0.46679688,-0.19238281,0.83691406,0.125,-0.03125,0.15625,0.0,0.0,0.0
1696254935749,0.46972656,-0.18457031,0.8417969,0.125,0.0625,0.09375,0.0,0.0,0.0
1696254935784,0.46972656,-0.18457031,0.83496094,0.0,-0.09375,-0.03125,0.0,0.0,0.0
1696254935827,0.48046875,-0.1796875,0.8466797,0.0625,-0.03125,-0.03125,0.0,0.0,0.0
1696254935872,0.47265625,-0.18554688,0.8339844,-0.125,-0.03125,0.21875,0.0,0.0,0.0
1696254935906,0.46679688,-0.1796875,0.83984375,-0.125,0.1875,0.09375,0.0,0.0,0.0
1696254935951,0.47070312,-0.18652344,0.84375,0.1875,-0.03125,0.09375,0.0,0.0,0.0
1696254935985,0.47265625,-0.18164062,0.8408203,-0.25,-0.21875,0.09375,0.0,0.0,0.0
1696254936030,0.4736328,-0.17773438,0.8408203,-0.25,-0.03125,0.03125,24.75,29.4375,-190.875
1696254936064,0.47460938,-0.18261719,0.8330078,0.0625,-0.03125,0.21875,0.0,0.0,0.0
1696254936109,0.47460938,-0.18457031,0.8535156,0.0,0.125,-0.09375,0.0,0.0,0.0
1696254936154,0.4716797,-0.18554688,0.84765625,0.3125,0.03125,0.03125,0.0,0.0,0.0
1696254936187,0.46777344,-0.17871094,0.83496094,0.0,-0.28125,-0.09375,0.0,0.0,0.0
1696254936233,0.47460938,-0.18164062,0.84765625,0.125,0.03125,0.03125,0.0,0.0,0.0
1696254936266,0.46484375,-0.17578125,0.8330078,0.0,-0.15625,-0.03125,0.0,0.0,0.0
1696254936311,0.46875,-0.19042969,0.8388672,0.125,0.0625,0.09375,0.0,0.0,0.0
1696254936348,0.47753906,-0.17382812,0.8359375,0.0625,0.125,0.28125,0.0,0.0,0.0
1696254936390,0.47460938,-0.18359375,0.8466797,0.125,0.0625,0.03125,0.0,0.0,0.0
1696254936424,0.46777344,-0.1796875,0.8378906,0.125,-0.09375,0.09375,0.0,0.0,0.0
1696254936469,0.4765625,-0.1796875,0.8535156,-0.3125,-0.09375,0.15625,0.0,0.0,0.0
1696254936514,0.48046875,-0.1796875,0.83203125,0.0625,0.03125,0.15625,25.9375,28.8125,-193.6875
1696254936547,0.47265625,-0.18261719,0.8378906,0.0,-0.09375,0.28125,0.0,0.0,0.0
1696254936592,0.47070312,-0.1875,0.8300781,-0.0625,-0.03125,0.09375,0.0,0.0,0.0
1696254936630,0.47460938,-0.17871094,0.8388672,0.125,0.03125,0.09375,0.0,0.0,0.0
1696254936671,0.4736328,-0.18847656,0.8457031,-0.125,-0.03125,0.03125,0.0,0.0,0.0
1696254936705,0.46679688,-0.1875,0.8310547,-0.0625,-0.09375,0.09375,0.0,0.0,0.0
1696254936761,0.47460938,-0.18164062,0.84277344,0.1875,-0.09375,0.15625,0.0,0.0,0.0
1696254936783,0.46875,-0.18261719,0.83203125,-0.3125,0.03125,0.34375,0.0,0.0,0.0
1696254936828,0.46777344,-0.17773438,0.8417969,0.0625,0.125,0.09375,0.0,0.0,0.0
1696254936862,0.46484375,-0.18066406,0.8466797,-0.0625,-0.21875,0.03125,0.0,0.0,0.0
1696254936907,0.4765625,-0.18847656,0.83691406,-0.375,0.03125,0.09375,0.0,0.0,0.0
1696254936952,0.4736328,-0.18164062,0.82910156,0.125,0.0625,0.09375,0.0,0.0,0.0
1696254936986,0.47460938,-0.18457031,0.85253906,-0.125,-0.03125,0.15625,0.0,0.0,0.0
1696254937031,0.4638672,-0.17675781,0.84277344,0.1875,0.0625,-0.03125,24.0,29.4375,-192.5
1696254937065,0.46972656,-0.18652344,0.83496094,0.0625,-0.15625,-0.03125,0.0,0.0,0.0
1696254937109,0.46484375,-0.17480469,0.83496094,0.0625,0.125,0.09375,0.0,0.0,0.0
1696254937147,0.47460938,-0.18359375,0.83496094,0.1875,-0.15625,0.15625,0.0,0.0,0.0
1696254937189,0.4736328,-0.18457031,0.83496094,0.0625,-0.03125,-0.03125,0.0,0.0,0.0
1696254937222,0.47070312,-0.18164062,0.8408203,0.1875,0.125,0.15625,0.0,0.0,0.0
1696254937267,0.46777344,-0.17871094,0.8378906,0.0625,0.03125,-0.03125,0.0,0.0,0.0
1696254937312,0.4638672,-0.17285156,0.8339844,0.0625,0.0625,0.21875,0.0,0.0,0.0
1696254937346,0.47265625,-0.17871094,0.8417969,0.0625,0.03125,-0.03125,0.0,0.0,0.0
1696254937392,0.46777344,-0.18945312,0.84765625,0.0,-0.03125,0.09375,0.0,0.0,0.0
1696254937425,0.47851562,-0.1796875,0.8408203,0.0,0.03125,-0.03125,0.0,0.0,0.0
1696254937481,0.47265625,-0.18359375,0.8417969,0.0,0.03125,0.03125,0.0,0.0,0.0
1696254937503,0.47851562,-0.19042969,0.8359375,0.0625,0.125,-0.03125,25.0625,28.375,-192.1875
1696254937549,0.4736328,-0.18457031,0.8408203,0.0,0.1875,-0.21875,0.0,0.0,0.0
1696254937583,0.4736328,-0.1796875,0.83691406,0.0625,0.0625,-0.03125,0.0,0.0,0.0
1696254937628,0.47851562,-0.17285156,0.84765625,0.125,0.125,0.09375,0.0,0.0,0.0
1696254937672,0.46777344,-0.171875,0.84472656,0.0,0.1875,0.03125,0.0,0.0,0.0
1696254937706,0.47558594,-0.18457031,0.8251953,-0.0625,-0.21875,0.03125,0.0,0.0,0.0
1696254937751,0.47460938,-0.18066406,0.83984375,-0.4375,-0.15625,0.09375,0.0,0.0,0.0
1696254937785,0.46484375,-0.18554688,0.85253906,-0.0625,0.0625,-0.03125,0.0,0.0,0.0
1696254937830,0.4658203,-0.19238281,0.83496094,0.03125,0.125,-0.09375,0.0,0.0,0.0
1696254937863,0.47265625,-0.18847656,0.8466797,-0.03125,-0.0625,-0.09375,0.0,0.0,0.0
1696254937908,0.46777344,-0.1875,0.8378906,0.15625,-0.125,-0.21875,0.0,0.0,0.0
1696254937942,0.46679688,-0.17675781,0.8466797,0.03125,0.0,-0.09375,0.0,0.0,0.0
1696254937987,0.47460938,-0.18261719,0.8408203,0.28125,0.0625,-0.03125,0.0,0.0,0.0
1696254938032,0.4638672,-0.17871094,0.84277344,0.09375,-0.25,-0.15625,23.125,29.5625,-192.625
1696254938066,0.4765625,-0.18554688,0.8515625,0.03125,0.0,-0.03125,0.0,0.0,0.0
1696254938111,0.47070312,-0.18554688,0.84277344,0.21875,0.1875,-0.09375,0.0,0.0,0.0
1696254938145,0.46679688,-0.18847656,0.8359375,0.03125,0.0625,-0.03125,0.0,0.0,0.0
1696254938190,0.46875,-0.17773438,0.85058594,-0.125,-0.0625,-0.21875,0.0,0.0,0.0
1696254938224,0.47070312,-0.18066406,0.8535156,-0.09375,0.0,-0.03125,0.0,0.0,0.0
1696254938269,0.46875,-0.18066406,0.82910156,-0.03125,0.0625,-0.03125,0.0,0.0,0.0
1696254938347,0.46777344,-0.17773438,0.83984375,0.09375,0.0,0.03125,0.0,0.0,0.0
1696254938349,0.4658203,-0.17871094,0.8388672,-0.03125,0.0,-0.03125,0.0,0.0,0.0
1696254938403,0.47070312,-0.18945312,0.8378906,0.15625,0.0625,-0.21875,0.0,0.0,0.0
1696254938426,0.46972656,-0.17285156,0.84472656,0.03125,0.0625,-0.09375,0.0,0.0,0.0
1696254938471,0.47753906,-0.1796875,0.8417969,-0.09375,0.0,-0.03125,0.0,0.0,0.0
1696254938505,0.46191406,-0.19628906,0.8457031,-0.09375,0.1875,0.15625,24.0,29.75,-192.5
1696254938550,0.46875,-0.17578125,0.8486328,-0.125,0.21875,0.15625,0.0,0.0,0.0
1696254938584,0.46679688,-0.18457031,0.82421875,-0.125,-0.125,-0.03125,0.0,0.0,0.0
1696254938629,0.4736328,-0.18457031,0.8378906,-0.375,-0.125,-0.03125,0.0,0.0,0.0
1696254938662,0.47265625,-0.18457031,0.8388672,-0.09375,0.0,0.09375,0.0,0.0,0.0
1696254938708,0.47070312,-0.18945312,0.8251953,0.09375,0.0,0.03125,0.0,0.0,0.0
1696254938752,0.4658203,-0.18457031,0.84375,-0.09375,0.0,0.03125,0.0,0.0,0.0
1696254938786,0.4736328,-0.18945312,0.8515625,0.15625,-0.0625,-0.03125,0.0,0.0,0.0
1696254938831,0.46679688,-0.18164062,0.83984375,-0.03125,-0.0625,-0.03125,0.0,0.0,0.0
1696254938865,0.4716797,-0.17773438,0.84765625,0.03125,0.0,0.03125,0.0,0.0,0.0
1696254938910,0.4765625,-0.18359375,0.8378906,0.09375,-0.125,-0.03125,0.0,0.0,0.0
1696254938944,0.47460938,-0.18359375,0.83203125,-0.03125,-0.0625,-0.03125,0.0,0.0,0.0
1696254938988,0.47851562,-0.18261719,0.8408203,0.09375,0.125,0.09375,0.0,0.0,0.0
1696254939033,0.46484375,-0.17675781,0.8408203,0.03125,0.0,0.09375,24.125,28.5625,-192.0625
1696254939067,0.4716797,-0.19042969,0.8457031,-0.1875,-0.125,-0.03125,0.0,0.0,0.0
1696254939112,0.4658203,-0.18945312,0.8466797,-0.03125,-0.125,0.09375,0.0,0.0,0.0
1696254939146,0.47070312,-0.18261719,0.83984375,0.15625,0.125,0.03125,0.0,0.0,0.0
1696254939191,0.46679688,-0.18066406,0.8388672,-0.09375,-0.125,0.03125,0.0,0.0,0.0
1696254939224,0.46679688,-0.18847656,0.8330078,0.03125,0.0,0.09375,0.0,0.0,0.0
1696254939269,0.46484375,-0.18652344,0.8310547,-0.03125,-0.0625,0.15625,0.0,0.0,0.0
1696254939304,0.47558594,-0.18457031,0.84765625,-0.09375,-0.0625,0.09375,0.0,0.0,0.0
1696254939348,0.48242188,-0.18261719,0.8330078,-0.03125,0.0,0.03125,0.0,0.0,0.0
1696254939382,0.47070312,-0.1796875,0.84277344,-0.09375,0.0,0.15625,0.0,0.0,0.0
1696254939427,0.4716797,-0.17578125,0.84472656,-0.03125,-0.125,0.21875,0.0,0.0,0.0
1696254939473,0.46777344,-0.18847656,0.83984375,-0.125,0.1875,0.09375,0.0,0.0,0.0
1696254939505,0.46289062,-0.19042969,0.8408203,-0.03125,-0.25,0.03125,25.5,29.75,-193.875
1696254939551,0.47753906,-0.17285156,0.8408203,-0.25,-0.1875,0.03125,0.0,0.0,0.0
1696254939585,0.46972656,-0.18554688,0.85253906,-0.09375,-0.125,-0.03125,0.0,0.0,0.0
1696254939631,0.48046875,-0.18847656,0.8330078,0.21875,0.0625,0.28125,0.0,0.0,0.0
1696254939664,0.4658203,-0.18261719,0.8359375,-0.125,-0.0625,0.21875,0.0,0.0,0.0
1696254939708,0.47460938,-0.17871094,0.84765625,0.21875,-0.125,0.09375,0.0,0.0,0.0
1696254939742,0.46777344,-0.16894531,0.83984375,-0.09375,-0.1875,-0.09375,0.0,0.0,0.0
1696254939787,0.46679688,-0.18652344,0.8388672,0.09375,0.125,0.03125,0.0,0.0,0.0
1696254939832,0.48339844,-0.19042969,0.8486328,0.21875,0.0,0.03125,0.0,0.0,0.0
1696254939866,0.47460938,-0.19042969,0.8300781,-0.03125,-0.0625,0.09375,0.0,0.0,0.0
1696254939911,0.46972656,-0.17773438,0.84375,0.15625,0.1875,0.03125,0.0,0.0,0.0
1696254939945,0.47070312,-0.1796875,0.8457031,-0.03125,0.0,0.15625,0.0,0.0,0.0
1696254939990,0.4716797,-0.1796875,0.8466797,-0.09375,-0.1875,0.21875,0.0,0.0,0.0
1696254940024,0.47460938,-0.1796875,0.8310547,-0.1875,-0.0625,-0.03125,23.6875,30.0625,-192.1875
1696254940069,0.46484375,-0.17773438,0.8417969,0.03125,0.0625,0.09375,0.0,0.0,0.0
1696254940103,0.47558594,-0.17871094,0.83496094,-0.125,-0.0625,0.15625,0.0,0.0,0.0
1696254940148,0.46679688,-0.18261719,0.83496094,0.03125,-0.0625,0.15625,0.0,0.0,0.0
1696254940193,0.46875,-0.18457031,0.83984375,-0.03125,-0.0625,0.15625,0.0,0.0,0.0
1696254940226,0.47070312,-0.19140625,0.8457031,-0.09375,0.0,0.15625,0.0,0.0,0.0
1696254940271,0.47753906,-0.18847656,0.8417969,-0.125,-0.125,0.09375,0.0,0.0,0.0
1696254940305,0.46191406,-0.17675781,0.8417969,-0.03125,-0.0625,0.15625,0.0,0.0,0.0
1696254940350,0.47070312,-0.1796875,0.8496094,-0.1875,-0.0625,0.15625,0.0,0.0,0.0
1696254940385,0.4716797,-0.19042969,0.8496094,-0.125,0.0625,0.28125,0.0,0.0,0.0
1696254940429,0.46484375,-0.18457031,0.8417969,-0.125,0.0,0.09375,0.0,0.0,0.0
1696254940462,0.47070312,-0.18457031,0.8388672,-0.25,-0.3125,0.03125,0.0,0.0,0.0
1696254940507,0.4765625,-0.18457031,0.8378906,-0.4375,-0.0625,0.03125,23.5625,30.3125,-193.125
1696254940564,0.47070312,-0.1796875,0.84765625,0.09375,0.0625,0.15625,0.0,0.0,0.0
1696254940586,0.4736328,-0.19042969,0.83496094,-0.125,-0.1875,0.15625,0.0,0.0,0.0
1696254940631,0.4609375,-0.17285156,0.8515625,-0.03125,-0.0625,0.03125,0.0,0.0,0.0
1696254940665,0.4736328,-0.17871094,0.8417969,0.09375,-0.1875,0.03125,0.0,0.0,0.0
1696254940710,0.47070312,-0.1875,0.8251953,-0.09375,0.0,0.09375,0.0,0.0,0.0
1696254940744,0.46484375,-0.18261719,0.83496094,0.09375,-0.125,0.03125,0.0,0.0,0.0
1696254940789,0.46972656,-0.18066406,0.8408203,-0.1875,-0.125,-0.03125,0.0,0.0,0.0
1696254940822,0.47265625,-0.18652344,0.8457031,-0.03125,-0.125,0.09375,0.0,0.0,0.0
1696254940867,0.47265625,-0.18554688,0.8535156,-0.03125,-0.0625,0.03125,0.0,0.0,0.0
1696254940912,0.47460938,-0.17773438,0.8466797,0.03125,0.0625,-0.15625,0.0,0.0,0.0
1696254940946,0.4658203,-0.1875,0.8330078,-0.03125,-0.0625,-0.15625,0.0,0.0,0.0
1696254940992,0.46972656,-0.19042969,0.8378906,0.03125,0.0625,0.09375,0.0,0.0,0.0
1696254941025,0.46972656,-0.18261719,0.8359375,-0.03125,0.0,-0.09375,24.0,29.0,-192.9375
1696254941070,0.47753906,-0.17773438,0.8408203,0.09375,-0.0625,0.03125,0.0,0.0,0.0
1696254941104,0.47558594,-0.18457031,0.8408203,-0.03125,-0.0625,-0.09375,0.0,0.0,0.0
1696254941149,0.46972656,-0.19042969,0.8535156,-0.09375,0.0,-0.28125,0.0,0.0,0.0
1696254941182,0.47070312,-0.18261719,0.82910156,-0.03125,-0.0625,-0.03125,0.0,0.0,0.0
1696254941228,0.47851562,-0.18457031,0.85058594,0.03125,0.125,0.03125,0.0,0.0,0.0
1696254941275,0.46484375,-0.1875,0.8613281,-0.125,0.125,-0.03125,0.0,0.0,0.0
1696254941306,0.46484375,-0.18359375,0.84472656,-0.09375,-0.125,-0.03125,0.0,0.0,0.0
1696254941352,0.4736328,-0.18554688,0.8466797,-0.25,-0.0625,-0.03125,0.0,0.0,0.0
1696254941385,0.4716797,-0.17773438,0.8515625,0.03125,0.125,0.09375,0.0,0.0,0.0
1696254941430,0.46679688,-0.19140625,0.83496094,0.03125,-0.0625,-0.09375,0.0,0.0,0.0
1696254941465,0.4736328,-0.1796875,0.8466797,-0.03125,-0.0625,-0.09375,0.0,0.0,0.0
1696254941509,0.46679688,-0.17773438,0.8261719,0.15625,-0.125,0.09375,23.25,28.375,-192.5
1696254941543,0.47265625,-0.18066406,0.8300781,0.15625,0.0625,-0.15625,0.0,0.0,0.0
1696254941588,0.47851562,-0.17773438,0.8359375,0.03125,-0.0625,-0.03125,0.0,0.0,0.0
1696254941632,0.46679688,-0.18652344,0.8496094,0.03125,-0.125,0.03125,0.0,0.0,0.0
1696254941666,0.4765625,-0.18652344,0.8544922,0.03125,0.0625,0.03125,0.0,0.0,0.0
1696254941711,0.47558594,-0.17871094,0.8330078,-0.09375,-0.0625,-0.03125,0.0,0.0,0.0
1696254941745,0.4658203,-0.18066406,0.8378906,0.03125,-0.0625,-0.09375,0.0,0.0,0.0
1696254941790,0.46875,-0.18164062,0.8417969,-0.03125,-0.1875,-0.09375,0.0,0.0,0.0
1696254941829,0.47070312,-0.18457031,0.85058594,-0.03125,0.0,-0.09375,0.0,0.0,0.0
1696254941868,0.4609375,-0.18652344,0.8417969,-0.09375,0.0,0.03125,0.0,0.0,0.0
1696254941902,0.46875,-0.19042969,0.8378906,-0.03125,0.0,0.03125,0.0,0.0,0.0
1696254941947,0.47460938,-0.1796875,0.8388672,-0.03125,-0.125,-0.03125,0.0,0.0,0.0
1696254942026,0.46679688,-0.18652344,0.83691406,0.09375,0.1875,0.09375,24.75,28.6875,-192.1875
1696254942027,0.46875,-0.19238281,0.8388672,-0.03125,-0.1875,0.09375,0.0,0.0,0.0
1696254942071,0.46972656,-0.19335938,0.83691406,0.03125,0.0625,0.09375,0.0,0.0,0.0
1696254942105,0.47460938,-0.18652344,0.84765625,-0.09375,-0.125,0.09375,0.0,0.0,0.0
1696254942150,0.45703125,-0.18554688,0.8408203,-0.125,0.0625,0.09375,0.0,0.0,0.0
1696254942184,0.47851562,-0.18261719,0.83984375,0.03125,0.0625,0.09375,0.0,0.0,0.0
1696254942229,0.47265625,-0.1796875,0.83496094,-0.25,-0.25,-0.21875,0.0,0.0,0.0
1696254942274,0.46972656,-0.18359375,0.8330078,-0.1875,-0.125,0.09375,0.0,0.0,0.0
1696254942307,0.46875,-0.17871094,0.84765625,0.09375,0.0625,-0.03125,0.0,0.0,0.0
1696254942352,0.4658203,-0.17578125,0.8378906,0.03125,-0.125,0.09375,0.0,0.0,0.0
1696254942397,0.4716797,-0.18554688,0.8466797,0.03125,-0.0625,0.03125,0.0,0.0,0.0
1696254942431,0.47558594,-0.18554688,0.83984375,0.09375,-0.1875,-0.03125,0.0,0.0,0.0
1696254942465,0.47460938,-0.19042969,0.8310547,-0.09375,-0.0625,-0.15625,0.0,0.0,0.0
1696254942510,0.4609375,-0.18164062,0.8457031,0.15625,0.0,0.03125,25.625,30.9375,-192.375
1696254942544,0.47460938,-0.18164062,0.8330078,0.03125,-0.1875,0.03125,0.0,0.0,0.0
1696254942588,0.4736328,-0.18261719,0.86035156,-0.03125,0.0,0.09375,0.0,0.0,0.0
1696254942633,0.48535156,-0.171875,0.8457031,0.15625,0.1875,0.09375,0.0,0.0,0.0
1696254942673,0.47753906,-0.18652344,0.8378906,-0.09375,-0.0625,-0.09375,0.0,0.0,0.0
1696254942712,0.46972656,-0.18457031,0.8300781,0.03125,-0.1875,0.03125,0.0,0.0,0.0
1696254942746,0.46972656,-0.18457031,0.8457031,0.03125,-0.125,0.09375,0.0,0.0,0.0
1696254942791,0.4658203,-0.1796875,0.83691406,-0.125,0.0625,0.09375,0.0,0.0,0.0
1696254942825,0.4736328,-0.18066406,0.8466797,-0.09375,0.0,0.21875,0.0,0.0,0.0
1696254942870,0.46777344,-0.17773438,0.8408203,0.09375,0.0,0.03125,0.0,0.0,0.0
1696254942904,0.46875,-0.18652344,0.8486328,-0.03125,-0.0625,0.03125,0.0,0.0,0.0
1696254942952,0.47558594,-0.18066406,0.8359375,0.09375,0.0,-0.15625,0.0,0.0,0.0
1696254942993,0.47460938,-0.18554688,0.8496094,-0.125,0.0,0.03125,0.0,0.0,0.0
1696254943027,0.4658203,-0.18457031,0.8486328,-0.09375,0.15625,0.21875,22.8125,30.3125,-193.375
1696254943072,0.46484375,-0.18847656,0.8378906,-0.03125,-0.09375,0.03125,0.0,0.0,0.0
1696254943106,0.46679688,-0.17675781,0.8535156,-0.5,-0.09375,0.03125,0.0,0.0,0.0
1696254943154,0.47460938,-0.17578125,0.8330078,-0.21875,0.03125,0.0,0.0,0.0,0.0
1696254943187,0.46484375,-0.17675781,0.8515625,0.15625,0.09375,0.09375,0.0,0.0,0.0
1696254943230,0.47265625,-0.18164062,0.85546875,-0.03125,-0.09375,0.03125,0.0,0.0,0.0
1696254943264,0.4716797,-0.18554688,0.8378906,0.15625,-0.03125,0.03125,0.0,0.0,0.0
1696254943319,0.46875,-0.17578125,0.84765625,-0.09375,-0.15625,-0.25,0.0,0.0,0.0
1696254943353,0.46875,-0.17871094,0.84375,0.09375,0.15625,0.03125,0.0,0.0,0.0
1696254943387,0.47460938,-0.17773438,0.85253906,-0.03125,-0.15625,0.09375,0.0,0.0,0.0
1696254943466,0.46777344,-0.17578125,0.83496094,-0.09375,0.03125,0.03125,0.0,0.0,0.0
1696254943468,0.4736328,-0.17675781,0.859375,0.15625,0.21875,0.15625,0.0,0.0,0.0
1696254943511,0.4658203,-0.18164062,0.8408203,-0.21875,-0.03125,0.03125,24.0,29.4375,-191.4375
1696254943545,0.48242188,-0.17578125,0.8574219,-0.03125,-0.03125,0.03125,0.0,0.0,0.0
1696254943589,0.46875,-0.1875,0.84277344,-0.03125,0.03125,0.15625,0.0,0.0,0.0
1696254943623,0.46777344,-0.18164062,0.8457031,-0.21875,-0.03125,0.03125,0.0,0.0,0.0
1696254943668,0.46972656,-0.18457031,0.84277344,-0.03125,-0.03125,0.15625,0.0,0.0,0.0
1696254943714,0.46875,-0.19335938,0.8378906,0.03125,0.09375,0.09375,0.0,0.0,0.0
1696254943747,0.4658203,-0.18945312,0.8486328,-0.15625,-0.03125,0.03125,0.0,0.0,0.0
1696254943827,0.46679688,-0.17480469,0.8496094,0.09375,0.21875,0.0,0.0,0.0,0.0
1696254943828,0.47460938,-0.1875,0.8486328,-0.03125,-0.09375,0.03125,0.0,0.0,0.0
1696254943871,0.4765625,-0.18164062,0.8359375,-0.03125,-0.03125,0.15625,0.0,0.0,0.0
1696254943905,0.46875,-0.17773438,0.8310547,-0.09375,0.28125,0.09375,0.0,0.0,0.0
1696254943949,0.47070312,-0.18652344,0.84277344,-0.09375,-0.21875,0.03125,0.0,0.0,0.0
1696254943983,0.47070312,-0.17871094,0.84765625,-0.34375,-0.15625,0.09375,0.0,0.0,0.0
1696254944029,0.4736328,-0.18164062,0.84375,-0.03125,0.15625,0.09375,23.875,29.5625,-191.3125
1696254944074,0.46679688,-0.19042969,0.8359375,-0.03125,-0.15625,0.0,0.0,0.0,0.0
1696254944108,0.47070312,-0.18554688,0.8310547,-0.09375,-0.03125,-0.0625,0.0,0.0,0.0
1696254944152,0.46972656,-0.19433594,0.8310547,0.09375,-0.09375,0.03125,0.0,0.0,0.0
1696254944186,0.4814453,-0.1796875,0.8408203,-0.21875,0.03125,-0.0625,0.0,0.0,0.0
1696254944231,0.4794922,-0.18457031,0.84375,0.09375,-0.03125,0.09375,0.0,0.0,0.0
1696254944265,0.46972656,-0.18457031,0.8339844,-0.03125,0.03125,-0.0625,0.0,0.0,0.0
1696254944310,0.47070312,-0.18652344,0.83691406,0.03125,0.03125,-0.0625,0.0,0.0,0.0
1696254944344,0.46289062,-0.18847656,0.8466797,0.03125,0.15625,0.0,0.0,0.0,0.0
1696254944388,0.47460938,-0.18652344,0.8466797,0.03125,0.09375,0.0,0.0,0.0,0.0
1696254944433,0.4765625,-0.1875,0.8496094,-0.03125,0.03125,-0.0625,0.0,0.0,0.0
1696254944467,0.46972656,-0.19042969,0.84375,-0.09375,-0.03125,0.0,0.0,0.0,0.0
1696254944512,0.46777344,-0.17773438,0.8417969,-0.03125,0.03125,0.03125,24.0,28.6875,-193.25
1696254944546,0.47070312,-0.18847656,0.8457031,-0.03125,-0.03125,0.03125,0.0,0.0,0.0
1696254944591,0.46972656,-0.18554688,0.8535156,-0.03125,0.03125,-0.0625,0.0,0.0,0.0
1696254944625,0.47070312,-0.1875,0.8408203,0.03125,0.03125,-0.125,0.0,0.0,0.0
1696254944670,0.46679688,-0.18164062,0.8359375,-0.03125,-0.03125,-0.125,0.0,0.0,0.0
1696254944704,0.46777344,-0.18359375,0.8417969,-0.03125,0.03125,0.0,0.0,0.0,0.0
1696254944749,0.46875,-0.18457031,0.8544922,-0.15625,0.15625,0.0,0.0,0.0,0.0
1696254944793,0.4658203,-0.18847656,0.8408203,-0.21875,-0.21875,0.0,0.0,0.0,0.0
1696254944827,0.48046875,-0.17480469,0.83203125,-0.34375,-0.09375,-0.125,0.0,0.0,0.0
1696254944872,0.47070312,-0.17578125,0.8300781,-0.03125,0.03125,0.03125,0.0,0.0,0.0
1696254944906,0.46484375,-0.1875,0.84765625,-0.03125,-0.09375,-0.0625,0.0,0.0,0.0
1696254944951,0.46484375,-0.18457031,0.83496094,-0.09375,0.03125,-0.0625,0.0,0.0,0.0
1696254944985,0.46875,-0.18945312,0.8359375,0.09375,-0.09375,-0.125,0.0,0.0,0.0
1696254945029,0.47558594,-0.17773438,0.8378906,0.03125,-0.03125,-0.0625,24.4375,29.75,-192.5
1696254945063,0.46777344,-0.18261719,0.84765625,0.09375,0.03125,-0.0625,0.0,0.0,0.0
1696254945109,0.47070312,-0.18457031,0.8359375,0.15625,-0.03125,0.0,0.0,0.0,0.0
1696254945153,0.46289062,-0.19335938,0.83496094,0.03125,0.03125,-0.125,0.0,0.0,0.0
1696254945199,0.46191406,-0.18457031,0.8359375,0.09375,-0.03125,0.0,0.0,0.0,0.0
1696254945232,0.47558594,-0.1796875,0.8388672,0.09375,0.03125,0.0,0.0,0.0,0.0
1696254945266,0.46875,-0.19238281,0.8417969,-0.03125,-0.15625,0.09375,0.0,0.0,0.0
1696254945311,0.46875,-0.18457031,0.8466797,-0.03125,-0.03125,0.03125,0.0,0.0,0.0
1696254945345,0.46777344,-0.17773438,0.83496094,-0.09375,-0.03125,-0.125,0.0,0.0,0.0
1696254945389,0.47070312,-0.18847656,0.8359375,0.28125,0.09375,0.0,0.0,0.0,0.0
1696254945424,0.47851562,-0.18261719,0.8466797,-0.03125,-0.03125,0.15625,0.0,0.0,0.0
1696254945469,0.46875,-0.18457031,0.8408203,-0.03125,-0.03125,-0.0625,0.0,0.0,0.0
1696254945513,0.46679688,-0.17578125,0.8544922,0.03125,0.21875,0.09375,24.75,29.4375,-192.1875
1696254945547,0.46875,-0.18066406,0.84765625,0.03125,0.03125,0.0,0.0,0.0,0.0
1696254945592,0.4765625,-0.18164062,0.83984375,-0.21875,-0.03125,0.09375,0.0,0.0,0.0
1696254945626,0.46875,-0.17871094,0.8457031,0.03125,0.03125,0.03125,0.0,0.0,0.0
1696254945671,0.46875,-0.17382812,0.83984375,-0.09375,0.03125,0.0,0.0,0.0,0.0
1696254945705,0.4609375,-0.18652344,0.83984375,0.03125,0.09375,0.09375,0.0,0.0,0.0
1696254945749,0.46972656,-0.18457031,0.8300781,-0.21875,-0.21875,-0.125,0.0,0.0,0.0
1696254945783,0.4765625,-0.18261719,0.83496094,-0.4375,-0.03125,-0.0625,0.0,0.0,0.0
1696254945829,0.4736328,-0.17285156,0.8496094,0.09375,0.09375,0.03125,0.0,0.0,0.0
1696254945874,0.4765625,-0.18359375,0.84277344,0.09375,-0.03125,0.0,0.0,0.0,0.0
1696254945907,0.46875,-0.18945312,0.8496094,-0.03125,-0.09375,0.03125,0.0,0.0,0.0
1696254945953,0.4736328,-0.16992188,0.8300781,0.03125,-0.15625,-0.1875,0.0,0.0,0.0
1696254945986,0.47460938,-0.18261719,0.8300781,0.15625,0.15625,0.0,0.0,0.0,0.0
1696254946031,0.4658203,-0.18945312,0.86328125,0.03125,-0.03125,-0.0625,24.75,29.0,-192.9375
1696254946064,0.47265625,-0.1875,0.8359375,0.15625,-0.21875,0.0,0.0,0.0,0.0
1696254946109,0.4736328,-0.1796875,0.8359375,0.03125,0.09375,0.09375,0.0,0.0,0.0
1696254946143,0.46972656,-0.18847656,0.83984375,-0.09375,0.03125,0.03125,0.0,0.0,0.0
1696254946188,0.4716797,-0.1875,0.8300781,0.03125,0.21875,0.03125,0.0,0.0,0.0
1696254946233,0.46972656,-0.18164062,0.83984375,-0.03125,-0.03125,-0.0625,0.0,0.0,0.0
1696254946267,0.47070312,-0.19140625,0.8378906,-0.03125,-0.03125,0.03125,0.0,0.0,0.0
1696254946312,0.47753906,-0.17578125,0.84765625,-0.09375,0.09375,0.03125,0.0,0.0,0.0
1696254946346,0.47460938,-0.18457031,0.8378906,-0.09375,-0.09375,0.03125,0.0,0.0,0.0
1696254946391,0.46777344,-0.17382812,0.8330078,0.09375,0.09375,0.0,0.0,0.0,0.0
1696254946424,0.46875,-0.18164062,0.8310547,-0.03125,-0.03125,-0.0625,0.0,0.0,0.0
1696254946469,0.47265625,-0.1796875,0.83691406,-0.09375,-0.03125,0.03125,0.0,0.0,0.0
1696254946515,0.4716797,-0.19140625,0.8378906,-0.03125,0.03125,0.03125,23.875,29.875,-192.375
1696254946549,0.46679688,-0.1875,0.8261719,-0.09375,0.03125,0.09375,0.0,0.0,0.0
1696254946593,0.47070312,-0.18261719,0.8466797,0.03125,0.15625,0.0,0.0,0.0,0.0
1696254946627,0.47265625,-0.17871094,0.83496094,-0.21875,-0.03125,-0.0625,0.0,0.0,0.0
1696254946672,0.46875,-0.18554688,0.85058594,0.03125,0.09375,0.03125,0.0,0.0,0.0
1696254946705,0.47265625,-0.18945312,0.8359375,-0.03125,0.09375,-0.0625,0.0,0.0,0.0
1696254946751,0.46777344,-0.18164062,0.8408203,-0.21875,0.03125,0.0,0.0,0.0,0.0
1696254946785,0.47070312,-0.17480469,0.8408203,-0.03125,0.09375,0.03125,0.0,0.0,0.0
1696254946830,0.46777344,-0.19238281,0.8261719,-0.03125,0.03125,0.09375,0.0,0.0,0.0
1696254946909,0.47460938,-0.18652344,0.8378906,-0.03125,-0.09375,0.0,0.0,0.0,0.0
1696254946910,0.47070312,-0.1796875,0.8378906,-0.34375,-0.15625,0.0,0.0,0.0,0.0
1696254946953,0.46679688,-0.17773438,0.8388672,-0.28125,-0.09375,-0.0625,0.0,0.0,0.0
1696254946987,0.47753906,-0.17480469,0.8466797,0.28125,0.09375,0.09375,0.0,0.0,0.0
1696254947032,0.46777344,-0.18359375,0.8378906,-0.21875,0.03125,-0.0625,24.625,29.5625,-192.625
1696254947066,0.46777344,-0.19140625,0.8496094,0.28125,-0.09375,-0.125,0.0,0.0,0.0
1696254947111,0.46484375,-0.18066406,0.83984375,0.03125,0.03125,-0.0625,0.0,0.0,0.0
1696254947144,0.4716797,-0.18066406,0.83691406,0.03125,0.15625,-0.125,0.0,0.0,0.0
1696254947191,0.46972656,-0.19140625,0.84375,0.28125,0.03125,-0.1875,0.0,0.0,0.0
1696254947223,0.47460938,-0.18847656,0.8417969,-0.09375,-0.09375,0.03125,0.0,0.0,0.0
1696254947268,0.47753906,-0.17578125,0.85058594,0.15625,0.21875,-0.125,0.0,0.0,0.0
1696254947313,0.47265625,-0.1796875,0.8564453,0.03125,0.09375,0.0,0.0,0.0,0.0
1696254947347,0.45996094,-0.18945312,0.859375,-0.09375,0.03125,-0.1875,0.0,0.0,0.0
1696254947392,0.47460938,-0.18457031,0.83984375,-0.03125,-0.09375,-0.125,0.0,0.0,0.0
1696254947426,0.46875,-0.18554688,0.83496094,-0.28125,-0.03125,-0.0625,0.0,0.0,0.0
1696254947471,0.46679688,-0.18652344,0.8330078,0.15625,0.09375,-0.125,0.0,0.0,0.0
1696254947506,0.46777344,-0.18847656,0.8310547,0.15625,0.09375,0.0,23.25,29.75,-192.5
1696254947550,0.46875,-0.1875,0.8466797,0.03125,0.15625,-0.125,0.0,0.0,0.0
1696254947583,0.46875,-0.18066406,0.8466797,0.09375,0.03125,-0.1875,0.0,0.0,0.0
1696254947631,0.46679688,-0.18457031,0.8330078,-0.03125,0.03125,-0.125,0.0,0.0,0.0
1696254947673,0.47460938,-0.17578125,0.8466797,0.09375,0.21875,-0.1875,0.0,0.0,0.0
1696254947707,0.47558594,-0.1875,0.8466797,-0.09375,-0.03125,0.03125,0.0,0.0,0.0
1696254947752,0.47265625,-0.18164062,0.8388672,0.03125,0.15625,-0.0625,0.0,0.0,0.0
1696254947788,0.4716797,-0.18847656,0.8496094,-0.21875,0.21875,0.03125,0.0,0.0,0.0
1696254947831,0.46972656,-0.18554688,0.8359375,0.09375,0.09375,-0.25,0.0,0.0,0.0
1696254947865,0.47851562,-0.18457031,0.8388672,0.03125,0.3125,-0.1875,0.0,0.0,0.0
1696254947909,0.46875,-0.18457031,0.8466797,-0.34375,-0.15625,-0.25,0.0,0.0,0.0
1696254947943,0.47265625,-0.18066406,0.8359375,0.09375,0.09375,-0.125,0.0,0.0,0.0
1696254947988,0.47070312,-0.18457031,0.8417969,0.09375,0.03125,-0.0625,0.0,0.0,0.0
1696254948034,0.47265625,-0.18066406,0.83691406,0.15625,-0.03125,-0.125,23.875,28.8125,-192.625
1696254948067,0.47558594,-0.17871094,0.8388672,0.15625,0.09375,-0.25,0.0,0.0,0.0
1696254948112,0.47070312,-0.17871094,0.84472656,0.03125,0.15625,-0.25,0.0,0.0,0.0
1696254948146,0.47460938,-0.19335938,0.83691406,0.09375,0.03125,-0.125,0.0,0.0,0.0
1696254948191,0.4716797,-0.19726562,0.8300781,-0.03125,0.03125,-0.0625,0.0,0.0,0.0
1696254948225,0.47265625,-0.18945312,0.84765625,0.15625,0.21875,-0.0625,0.0,0.0,0.0
1696254948270,0.47460938,-0.18359375,0.8457031,0.03125,0.03125,-0.125,0.0,0.0,0.0
1696254948303,0.46777344,-0.18652344,0.8486328,-0.03125,-0.03125,-0.1875,0.0,0.0,0.0
1696254948348,0.47070312,-0.17871094,0.8486328,-0.15625,-0.03125,-0.125,0.0,0.0,0.0
1696254948393,0.4716797,-0.18066406,0.85253906,0.03125,0.21875,0.0,0.0,0.0,0.0
1696254948430,0.46679688,-0.16992188,0.8457031,0.28125,0.21875,-0.125,0.0,0.0,0.0
1696254948472,0.47753906,-0.18066406,0.8515625,0.03125,0.03125,0.0,0.0,0.0,0.0
1696254948506,0.47265625,-0.18164062,0.8457031,0.03125,0.15625,-0.1875,24.125,30.3125,-192.625
1696254948551,0.4658203,-0.17578125,0.8300781,0.09375,0.09375,-0.0625,0.0,0.0,0.0
1696254948585,0.47070312,-0.18457031,0.83984375,0.03125,0.03125,-0.125,0.0,0.0,0.0
1696254948641,0.46972656,-0.17871094,0.83984375,0.09375,0.09375,-0.0625,0.0,0.0,0.0
1696254948663,0.46875,-0.18359375,0.84472656,-0.28125,-0.03125,0.15625,0.0,0.0,0.0
1696254948708,0.47070312,-0.18652344,0.84277344,0.03125,0.15625,-0.0625,0.0,0.0,0.0
1696254948753,0.47265625,-0.18261719,0.83984375,-0.34375,0.15625,-0.0625,0.0,0.0,0.0
1696254948788,0.46679688,-0.19238281,0.8535156,0.09375,0.21875,0.03125,0.0,0.0,0.0
1696254948832,0.47265625,-0.18457031,0.84375,-0.21875,-0.15625,-0.125,0.0,0.0,0.0
1696254948866,0.47265625,-0.17480469,0.8408203,-0.28125,-0.03125,-0.3125,0.0,0.0,0.0
1696254948911,0.4736328,-0.18945312,0.84375,0.21875,0.15625,0.0,0.0,0.0,0.0
1696254948945,0.47070312,-0.17675781,0.8466797,-0.09375,0.03125,-0.25,0.0,0.0,0.0
1696254948989,0.47558594,-0.18847656,0.84765625,0.28125,0.09375,-0.125,0.0,0.0,0.0
1696254949034,0.4736328,-0.18164062,0.8564453,-0.03125,-0.03125,-0.125,25.5,28.375,-192.5
1696254949069,0.4638672,-0.17285156,0.85058594,0.03125,0.15625,-0.0625,0.0,0.0,0.0
1696254949113,0.47753906,-0.18261719,0.8339844,0.09375,-0.09375,-0.0625,0.0,0.0,0.0
1696254949147,0.4794922,-0.1796875,0.83691406,-0.03125,-0.21875,-0.0625,0.0,0.0,0.0
1696254949192,0.4638672,-0.18847656,0.8408203,0.21875,0.15625,0.03125,0.0,0.0,0.0
1696254949226,0.47558594,-0.1875,0.8417969,-0.03125,0.09375,0.09375,0.0,0.0,0.0
1696254949271,0.46875,-0.18457031,0.8496094,-0.03125,0.09375,-0.125,0.0,0.0,0.0
1696254949305,0.4716797,-0.1796875,0.84277344,-0.15625,-0.15625,-0.0625,0.0,0.0,0.0
1696254949349,0.4736328,-0.18554688,0.8535156,0.03125,0.09375,-0.0625,0.0,0.0,0.0
1696254949383,0.47265625,-0.18847656,0.8359375,-0.15625,0.21875,0.09375,0.0,0.0,0.0
1696254949428,0.46679688,-0.18847656,0.8408203,-0.09375,-0.09375,0.0,0.0,0.0,0.0
1696254949473,0.46875,-0.17773438,0.8642578,0.09375,0.09375,0.03125,0.0,0.0,0.0
1696254949508,0.47265625,-0.17675781,0.84277344,-0.09375,-0.03125,-0.03125,23.875,29.125,-193.125
1696254949564,0.47753906,-0.18066406,0.8457031,0.03125,0.09375,0.03125,0.0,0.0,0.0
1696254949585,0.46679688,-0.1875,0.8564453,-0.09375,-0.09375,0.09375,0.0,0.0,0.0
1696254949630,0.46875,-0.17871094,0.8417969,-0.09375,0.09375,-0.03125,0.0,0.0,0.0
1696254949665,0.4794922,-0.18164062,0.8408203,-0.15625,-0.03125,0.09375,0.0,0.0,0.0
1696254949709,0.4658203,-0.17871094,0.8457031,0.03125,0.03125,0.21875,0.0,0.0,0.0
1696254949743,0.4716797,-0.18945312,0.8417969,0.03125,0.15625,0.28125,0.0,0.0,0.0
1696254949788,0.4658203,-0.18164062,0.83984375,-0.21875,-0.34375,0.03125,0.0,0.0,0.0
1696254949833,0.47265625,-0.1875,0.83984375,-0.21875,0.03125,-0.09375,0.0,0.0,0.0
1696254949867,0.46777344,-0.18164062,0.8466797,-0.34375,-0.09375,0.09375,0.0,0.0,0.0
1696254949912,0.46875,-0.18261719,0.84375,0.09375,0.15625,0.15625,0.0,0.0,0.0
1696254949946,0.46972656,-0.17871094,0.83984375,-0.09375,-0.15625,0.15625,0.0,0.0,0.0
1696254949991,0.47460938,-0.18847656,0.8388672,0.28125,-0.03125,-0.03125,0.0,0.0,0.0
1696254950025,0.46191406,-0.1875,0.84277344,-0.03125,0.03125,0.03125,24.625,29.5625,-193.125
1696254950069,0.4638672,-0.18457031,0.84375,-0.03125,-0.03125,-0.09375,0.0,0.0,0.0
1696254950104,0.46972656,-0.1796875,0.8378906,0.03125,-0.15625,0.03125,0.0,0.0,0.0
1696254950149,0.4638672,-0.18359375,0.8466797,-0.21875,-0.03125,0.03125,0.0,0.0,0.0
1696254950193,0.4765625,-0.18261719,0.8388672,0.03125,0.21875,-0.03125,0.0,0.0,0.0
1696254950227,0.46777344,-0.18359375,0.8457031,-0.09375,-0.15625,0.09375,0.0,0.0,0.0
1696254950272,0.4736328,-0.18652344,0.8417969,0.09375,0.03125,0.09375,0.0,0.0,0.0
1696254950306,0.4638672,-0.1875,0.8417969,-0.15625,-0.03125,0.21875,0.0,0.0,0.0
1696254950351,0.47460938,-0.18261719,0.8486328,-0.21875,-0.09375,0.03125,0.0,0.0,0.0
1696254950385,0.47070312,-0.18457031,0.8339844,0.03125,-0.03125,0.03125,0.0,0.0,0.0
1696254950430,0.4638672,-0.18261719,0.84765625,-0.09375,-0.15625,0.03125,0.0,0.0,0.0
1696254950463,0.47070312,-0.19335938,0.84765625,0.21875,0.15625,-0.03125,0.0,0.0,0.0
1696254950508,0.46679688,-0.19238281,0.8408203,-0.03125,-0.15625,-0.03125,24.875,29.5625,-192.625
1696254950553,0.46972656,-0.18457031,0.8535156,-0.09375,-0.03125,0.03125,0.0,0.0,0.0
1696254950588,0.46679688,-0.17773438,0.8359375,0.03125,0.15625,0.09375,0.0,0.0,0.0
1696254950632,0.46484375,-0.18554688,0.83984375,-0.15625,0.03125,0.03125,0.0,0.0,0.0
1696254950666,0.4716797,-0.18164062,0.83984375,-0.03125,0.09375,0.09375,0.0,0.0,0.0
1696254950711,0.46875,-0.18945312,0.8486328,-0.46875,-0.34375,-0.125,0.0,0.0,0.0
1696254950745,0.4716797,-0.17675781,0.8486328,-0.15625,0.03125,-0.125,0.0,0.0,0.0
1696254950790,0.4736328,-0.18554688,0.83691406,0.03125,0.03125,-0.09375,0.0,0.0,0.0
1696254950835,0.46777344,-0.17871094,0.84277344,-0.09375,-0.03125,-0.125,0.0,0.0,0.0
1696254950868,0.46875,-0.18945312,0.8408203,0.15625,0.03125,-0.09375,0.0,0.0,0.0
1696254950913,0.47851562,-0.1796875,0.84375,-0.03125,-0.21875,-0.125,0.0,0.0,0.0
1696254950947,0.46875,-0.19140625,0.8496094,0.03125,0.21875,-0.09375,0.0,0.0,0.0
1696254950992,0.4638672,-0.18554688,0.8378906,-0.03125,-0.03125,-0.125,0.0,0.0,0.0
1696254951026,0.46679688,-0.1875,0.86035156,0.28125,0.09375,-0.09375,23.6875,29.75,-191.875
1696254951073,0.47558594,-0.19042969,0.83203125,0.03125,0.03125,0.03125,0.0,0.0,0.0
1696254951105,0.4736328,-0.18066406,0.8457031,0.15625,0.09375,-0.03125,0.0,0.0,0.0
1696254951149,0.47265625,-0.17480469,0.8339844,-0.28125,-0.03125,-0.03125,0.0,0.0,0.0
1696254951195,0.47265625,-0.17773438,0.85058594,-0.03125,-0.03125,-0.09375,0.0,0.0,0.0
1696254951228,0.46972656,-0.18164062,0.83496094,-0.03125,-0.03125,0.03125,0.0,0.0,0.0
1696254951273,0.46875,-0.18945312,0.83691406,-0.03125,-0.03125,-0.03125,0.0,0.0,0.0
1696254951307,0.47070312,-0.18066406,0.8408203,0.03125,0.03125,0.03125,0.0,0.0,0.0
1696254951352,0.47070312,-0.18554688,0.83496094,-0.09375,-0.09375,0.03125,0.0,0.0,0.0
1696254951386,0.47558594,-0.17578125,0.84765625,0.15625,0.15625,-0.1875,0.0,0.0,0.0
1696254951431,0.46875,-0.1875,0.84277344,-0.09375,-0.09375,-0.09375,0.0,0.0,0.0
1696254951465,0.46875,-0.18066406,0.85058594,-0.03125,-0.09375,0.03125,0.0,0.0,0.0
1696254951510,0.46777344,-0.18652344,0.84375,0.03125,0.15625,0.03125,24.625,28.8125,-192.625
1696254951555,0.46875,-0.18164062,0.8466797,-0.09375,0.21875,0.03125,0.0,0.0,0.0
1696254951588,0.47460938,-0.18164062,0.8535156,-0.09375,-0.09375,-0.09375,0.0,0.0,0.0
1696254951633,0.47558594,-0.18164062,0.83496094,-0.21875,-0.09375,-0.09375,0.0,0.0,0.0
1696254951667,0.46972656,-0.18554688,0.85058594,0.03125,0.09375,-0.09375,0.0,0.0,0.0
1696254951713,0.47070312,-0.18652344,0.8417969,0.03125,-0.03125,0.03125,0.0,0.0,0.0
1696254951746,0.4814453,-0.19140625,0.84765625,0.21875,0.09375,-0.03125,0.0,0.0,0.0
1696254951791,0.46875,-0.18261719,0.8515625,0.40625,-0.03125,0.03125,0.0,0.0,0.0
1696254951825,0.46972656,-0.18652344,0.8300781,-0.09375,-0.09375,-0.125,0.0,0.0,0.0
1696254951869,0.46777344,-0.18652344,0.8339844,0.21875,0.09375,-0.09375,0.0,0.0,0.0
1696254951915,0.4638672,-0.18164062,0.8330078,-0.03125,-0.03125,-0.125,0.0,0.0,0.0
1696254951948,0.46777344,-0.1796875,0.8388672,0.15625,0.21875,-0.03125,0.0,0.0,0.0
1696254952027,0.47070312,-0.18652344,0.8408203,0.03125,0.03125,-0.03125,22.9375,28.375,-193.5625
1696254952029,0.4736328,-0.18066406,0.8388672,-0.15625,-0.03125,-0.09375,0.0,0.0,0.0
1696254952072,0.4638672,-0.17773438,0.8417969,-0.03125,-0.09375,0.03125,0.0,0.0,0.0
1696254952106,0.47070312,-0.17871094,0.8466797,-0.09375,-0.03125,0.03125,0.0,0.0,0.0
1696254952151,0.4765625,-0.1875,0.8466797,0.03125,0.03125,-0.03125,0.0,0.0,0.0
1696254952184,0.46972656,-0.18457031,0.84277344,-0.03125,-0.03125,0.03125,0.0,0.0,0.0
1696254952230,0.4736328,-0.1796875,0.83203125,0.09375,0.03125,0.09375,0.0,0.0,0.0
1696254952276,0.47070312,-0.18359375,0.85058594,0.03125,0.03125,-0.125,0.0,0.0,0.0
1696254952308,0.4716797,-0.19042969,0.8466797,0.03125,0.15625,-0.125,0.0,0.0,0.0
1696254952387,0.4609375,-0.18847656,0.85058594,-0.03125,-0.09375,0.09375,0.0,0.0,0.0
1696254952389,0.4765625,-0.18652344,0.8417969,-0.21875,-0.09375,-0.09375,0.0,0.0,0.0
1696254952432,0.47265625,-0.18359375,0.85253906,0.03125,0.15625,0.21875,0.0,0.0,0.0
1696254952466,0.46777344,-0.1796875,0.84375,-0.28125,0.03125,0.28125,0.0,0.0,0.0
1696254952510,0.4736328,-0.1796875,0.84765625,-0.03125,0.09375,-0.03125,24.75,29.0,-192.5
1696254952544,0.47753906,-0.17773438,0.8466797,-0.03125,-0.28125,0.03125,0.0,0.0,0.0
1696254952590,0.47265625,-0.18359375,0.8515625,-0.28125,-0.09375,-0.125,0.0,0.0,0.0
1696254952634,0.4765625,-0.17480469,0.8457031,0.09375,0.15625,0.03125,0.0,0.0,0.0
1696254952668,0.46875,-0.17773438,0.8359375,0.03125,0.03125,-0.09375,0.0,0.0,0.0
1696254952713,0.46875,-0.18554688,0.8388672,0.09375,-0.03125,0.09375,0.0,0.0,0.0
1696254952747,0.47851562,-0.17871094,0.8486328,-0.03125,-0.40625,-0.03125,0.0,0.0,0.0
1696254952792,0.4658203,-0.18652344,0.83691406,0.03125,0.21875,-0.09375,0.0,0.0,0.0
1696254952825,0.4716797,-0.17871094,0.8388672,-0.03125,-0.03125,0.03125,0.0,0.0,0.0
1696254952871,0.46875,-0.18261719,0.8378906,0.15625,-0.15625,0.03125,0.0,0.0,0.0
1696254952905,0.46777344,-0.18066406,0.8417969,0.03125,0.28125,0.09375,0.0,0.0,0.0
1696254952950,0.4736328,-0.18652344,0.83203125,-0.15625,0.03125,0.15625,0.0,0.0,0.0
1696254952995,0.47851562,-0.17773438,0.84472656,-0.03125,0.09375,0.09375,0.0,0.0,0.0
1696254953031,0.46679688,-0.18554688,0.8486328,-0.03125,-0.03125,-0.03125,25.0625,30.8125,-192.9375
1696254953073,0.46777344,-0.18652344,0.8330078,0.03125,0.03125,0.03125,0.0,0.0,0.0
1696254953107,0.46875,-0.17578125,0.8417969,-0.15625,-0.03125,0.09375,0.0,0.0,0.0
1696254953152,0.46777344,-0.18554688,0.8466797,0.03125,0.09375,-0.09375,0.0,0.0,0.0
1696254953186,0.4638672,-0.18359375,0.83496094,-0.03125,-0.03125,0.09375,0.0,0.0,0.0
1696254953231,0.46875,-0.19042969,0.8417969,-0.28125,-0.15625,0.09375,0.0,0.0,0.0
1696254953265,0.47460938,-0.171875,0.8457031,0.21875,0.15625,-0.03125,0.0,0.0,0.0
1696254953310,0.46289062,-0.18457031,0.8330078,-0.15625,-0.09375,0.09375,0.0,0.0,0.0
1696254953354,0.47851562,-0.18554688,0.8496094,0.09375,0.09375,0.21875,0.0,0.0,0.0
1696254953390,0.4638672,-0.1875,0.8496094,-0.09375,0.09375,0.15625,0.0,0.0,0.0
1696254953434,0.47558594,-0.1796875,0.84765625,-0.28125,-0.03125,0.21875,0.0,0.0,0.0
1696254953467,0.47460938,-0.18164062,0.85058594,-0.03125,-0.03125,0.09375,0.0,0.0,0.0
1696254953512,0.47558594,-0.1796875,0.8515625,-0.46875,-0.15625,-0.03125,23.25,29.4375,-192.1875
1696254953546,0.4765625,-0.1796875,0.8310547,-0.09375,0.09375,0.03125,0.0,0.0,0.0
1696254953590,0.4736328,-0.18457031,0.8496094,0.03125,0.03125,0.21875,0.0,0.0,0.0
1696254953625,0.46972656,-0.18261719,0.84375,-0.28125,-0.21875,0.03125,0.0,0.0,0.0
1696254953669,0.4736328,-0.18945312,0.84375,0.21875,0.03125,-0.03125,0.0,0.0,0.0
1696254953715,0.4736328,-0.1875,0.8310547,-0.03125,-0.03125,-0.09375,0.0,0.0,0.0
1696254953748,0.46875,-0.1796875,0.8486328,0.21875,0.15625,-0.03125,0.0,0.0,0.0
1696254953804,0.47070312,-0.18164062,0.8408203,0.09375,-0.03125,-0.03125,0.0,0.0,0.0
1696254953827,0.47265625,-0.18066406,0.84277344,-0.28125,-0.03125,0.03125,0.0,0.0,0.0
1696254953872,0.4765625,-0.17382812,0.8564453,0.21875,0.09375,0.09375,0.0,0.0,0.0
1696254953906,0.46972656,-0.18164062,0.83691406,-0.09375,-0.03125,0.03125,0.0,0.0,0.0
1696254953951,0.47070312,-0.18554688,0.8417969,0.03125,0.15625,-0.125,0.0,0.0,0.0
1696254953984,0.4609375,-0.1796875,0.8417969,-0.03125,-0.15625,-0.03125,0.0,0.0,0.0
1696254954029,0.4716797,-0.18945312,0.84277344,-0.15625,-0.03125,-0.03125,24.125,31.375,-191.3125
1696254954075,0.4736328,-0.18164062,0.8359375,0.09375,0.09375,0.09375,0.0,0.0,0.0
1696254954108,0.46289062,-0.19335938,0.8388672,0.09375,0.03125,-0.125,0.0,0.0,0.0
1696254954153,0.46484375,-0.18359375,0.8496094,0.15625,0.03125,-0.125,0.0,0.0,0.0
1696254954188,0.47265625,-0.18457031,0.8388672,0.21875,0.21875,-0.03125,0.0,0.0,0.0
1696254954232,0.46289062,-0.17871094,0.8388672,-0.09375,-0.03125,-0.03125,0.0,0.0,0.0
1696254954265,0.46972656,-0.17675781,0.8496094,-0.15625,0.03125,0.09375,0.0,0.0,0.0
1696254954311,0.47558594,-0.18164062,0.8339844,-0.15625,0.03125,0.03125,0.0,0.0,0.0
1696254954344,0.46289062,-0.17871094,0.85058594,-0.34375,-0.03125,-0.03125,0.0,0.0,0.0
1696254954389,0.46972656,-0.18164062,0.85058594,-0.09375,0.15625,-0.03125,0.0,0.0,0.0
1696254954438,0.47265625,-0.18164062,0.83691406,-0.21875,-0.09375,-0.03125,0.0,0.0,0.0
1696254954480,0.47265625,-0.18652344,0.83691406,-0.15625,0.03125,-0.09375,0.0,0.0,0.0
1696254954514,0.46777344,-0.17871094,0.8417969,0.21875,0.09375,0.09375,24.875,29.875,-193.6875
1696254954548,0.47070312,-0.19042969,0.83691406,-0.03125,-0.09375,-0.09375,0.0,0.0,0.0
1696254954592,0.4765625,-0.18164062,0.84277344,0.21875,0.09375,-0.25,0.0,0.0,0.0
1696254954627,0.4658203,-0.18164062,0.8330078,0.09375,-0.09375,-0.03125,0.0,0.0,0.0
1696254954671,0.46972656,-0.19042969,0.84277344,0.15625,0.09375,-0.125,0.0,0.0,0.0
1696254954704,0.47070312,-0.18066406,0.8388672,0.21875,0.03125,-0.03125,0.0,0.0,0.0
1696254954750,0.47265625,-0.18457031,0.8417969,-0.03125,-0.09375,-0.125,0.0,0.0,0.0
1696254954806,0.4658203,-0.18457031,0.84375,0.15625,0.09375,-0.03125,0.0,0.0,0.0
1696254954828,0.47070312,-0.17382812,0.8330078,-0.09375,-0.03125,-0.09375,0.0,0.0,0.0
1696254954876,0.46484375,-0.17871094,0.85058594,0.28125,0.03125,-0.09375,0.0,0.0,0.0
1696254954907,0.47265625,-0.18457031,0.84375,0.03125,-0.09375,-0.03125,0.0,0.0,0.0
1696254954952,0.4736328,-0.18164062,0.8388672,-0.03125,-0.09375,0.03125,0.0,0.0,0.0
1696254954986,0.4736328,-0.1796875,0.8544922,-0.03125,-0.03125,-0.03125,0.0,0.0,0.0
1696254955030,0.4765625,-0.1875,0.84277344,0.03125,-0.09375,0.03125,22.1875,30.5,-191.4375
1696254955064,0.4638672,-0.17480469,0.85546875,-0.03125,-0.03125,-0.03125,0.0,0.0,0.0
1696254955109,0.46679688,-0.18261719,0.8300781,0.03125,0.03125,0.03125,0.0,0.0,0.0
1696254955155,0.47070312,-0.1796875,0.8486328,-0.03125,-0.03125,-0.125,0.0,0.0,0.0
1696254955188,0.47070312,-0.18457031,0.8457031,-0.03125,0.03125,0.09375,0.0,0.0,0.0
1696254955235,0.46191406,-0.18261719,0.84375,-0.03125,0.09375,0.03125,0.0,0.0,0.0
