,timestamp,accel_x,accel_y,accel_z,gyro_x,gyro_y,gyro_z,mag_x,mag_y,mag_z
0,1696255109224,0.18261719,0.10253906,1.0058594,0.21875,-0.71875,-0.03125,0.0,0.0,0.0
1,1696255109264,0.19042969,0.095703125,0.9970703,0.03125,0.125,0.21875,0.0,0.0,0.0
2,1696255109304,0.18652344,0.091796875,0.99316406,0.28125,-0.5,0.09375,0.0,0.0,0.0
3,1696255109344,0.18554688,0.091796875,0.98339844,-0.25,-0.375,0.34375,0.0,0.0,0.0
4,1696255109384,0.18261719,0.09863281,0.99121094,-0.15625,-0.0625,0.46875,0.0,0.0,0.0
5,1696255109424,0.18359375,0.099609375,0.984375,-0.03125,-0.78125,0.28125,0.0,0.0,0.0
6,1696255109464,0.17871094,0.09277344,0.9814453,-0.25,0.625,-0.09375,0.0,0.0,0.0
7,1696255109504,0.17675781,0.091796875,0.99121094,0.21875,0.4375,-0.8125,0.0,0.0,0.0
8,1696255109544,0.18945312,0.091796875,0.9863281,0.71875,-0.90625,-0.34375,-3.4375,19.8125,-182.875
9,1696255109584,0.17089844,0.10644531,0.9873047,1.03125,-2.5,1.5625,0.0,0.0,0.0
10,1696255109624,0.19628906,0.11230469,0.98339844,1.875,-12.8125,4.75,0.0,0.0,0.0
11,1696255109664,0.19921875,0.12890625,1.015625,-1.90625,-1.9375,7.90625,0.0,0.0,0.0
12,1696255109704,0.20800781,0.015625,0.9746094,5.28125,5.75,14.4375,0.0,0.0,0.0
13,1696255109744,0.16210938,0.0009765625,1.0449219,2.46875,12.625,25.4375,0.0,0.0,0.0
14,1696255109784,0.2529297,-0.04296875,1.0703125,8.21875,24.40625,13.09375,0.0,0.0,0.0
15,1696255109824,0.36816406,0.11230469,0.9951172,14.125,-3.78125,7.59375,0.0,0.0,0.0
16,1696255109864,0.2998047,0.2529297,0.9794922,11.46875,23.0625,8.78125,0.0,0.0,0.0
17,1696255109904,0.020507812,0.20410156,0.7998047,19.3125,58.28125,22.0625,0.0,0.0,0.0
18,1696255109944,-0.14160156,0.0625,0.9560547,16.75,63.90625,35.0625,0.0,0.0,0.0
19,1696255109984,-0.19335938,0.34472656,1.0996094,6.9375,21.5,14.5,0.0,0.0,0.0
20,1696255110024,-0.12402344,0.33496094,0.9404297,5.28125,-3.46875,6.03125,-10.375,23.125,-181.375
21,1696255110064,0.18359375,0.107421875,0.91796875,-9.71875,-22.65625,9.6875,0.0,0.0,0.0
22,1696255110104,0.29003906,0.020507812,1.1416016,-14.5625,11.0,24.5625,0.0,0.0,0.0
23,1696255110144,0.060546875,-0.091796875,1.0810547,-1.0,9.40625,9.0625,0.0,0.0,0.0
24,1696255110184,-0.18847656,0.08300781,1.0585938,-3.0,7.09375,2.125,0.0,0.0,0.0
25,1696255110224,-0.10449219,0.17480469,1.1552734,3.875,-10.9375,-13.75,0.0,0.0,0.0
26,1696255110264,0.39160156,0.21484375,0.8457031,7.71875,-23.375,-12.09375,0.0,0.0,0.0
27,1696255110304,0.32128906,0.107421875,1.1171875,-2.9375,19.21875,16.09375,0.0,0.0,0.0
28,1696255110344,-0.13085938,0.0029296875,1.0732422,2.53125,53.28125,9.4375,0.0,0.0,0.0
29,1696255110384,-0.9316406,-0.6171875,2.015625,-31.34375,465.53125,126.8125,0.0,0.0,0.0
30,1696255110424,-0.38671875,0.8017578,1.3037109,4.125,-510.9375,-119.96875,0.0,0.0,0.0
31,1696255110464,0.19433594,0.8496094,0.5810547,27.125,-35.46875,-6.625,0.0,0.0,0.0
32,1696255110504,0.32421875,-0.087890625,0.98339844,-15.65625,34.4375,24.03125,0.0,0.0,0.0
33,1696255110544,0.061523438,-0.0029296875,1.4277344,-5.8125,20.8125,13.78125,-12.125,22.0625,-181.375
34,1696255110584,-0.0126953125,0.0107421875,0.9501953,0.84375,-7.5,-2.65625,0.0,0.0,0.0
35,1696255110624,0.20117188,0.032226562,1.2324219,-0.375,-12.875,-16.4375,0.0,0.0,0.0
36,1696255110664,0.024414062,0.19140625,0.9160156,6.625,-36.375,-15.96875,0.0,0.0,0.0
37,1696255110704,0.29296875,0.07421875,0.9316406,9.8125,-16.96875,6.1875,0.0,0.0,0.0
38,1696255110744,0.13964844,0.13867188,1.0458984,-1.25,5.3125,8.65625,0.0,0.0,0.0
39,1696255110784,0.0234375,0.22167969,1.0537109,-2.15625,1.53125,-12.0625,0.0,0.0,0.0
40,1696255110824,-0.15039062,0.23828125,1.0117188,0.59375,-17.5625,-29.125,0.0,0.0,0.0
41,1696255110864,0.2529297,0.11425781,1.0908203,-1.96875,7.5625,-22.25,0.0,0.0,0.0
42,1696255110904,0.041992188,0.12402344,0.9560547,8.59375,-43.09375,0.46875,0.0,0.0,0.0
43,1696255110944,0.24902344,0.15625,0.95703125,-0.9375,-38.09375,17.3125,0.0,0.0,0.0
44,1696255110984,0.2705078,0.12695312,1.0078125,26.34375,-5.0,36.71875,0.0,0.0,0.0
45,1696255111024,0.053710938,0.6171875,0.14355469,-40.5625,209.78125,102.53125,-6.875,23.75,-181.875
46,1696255111064,-0.52734375,0.140625,1.4511719,-36.875,118.15625,69.96875,0.0,0.0,0.0
47,1696255111104,0.5800781,-0.31445312,1.2177734,8.34375,-97.84375,-15.59375,0.0,0.0,0.0
48,1696255111144,0.115234375,0.10449219,0.90722656,5.09375,-169.75,-29.0625,0.0,0.0,0.0
49,1696255111184,0.33007812,-0.03515625,1.0214844,14.5,-24.84375,-40.1875,0.0,0.0,0.0
50,1696255111224,0.328125,0.009765625,0.8203125,24.21875,-40.21875,-71.25,0.0,0.0,0.0
51,1696255111264,0.40429688,-0.052734375,0.9980469,33.4375,62.8125,-82.78125,0.0,0.0,0.0
52,1696255111304,0.13671875,0.0048828125,2.015625,-14.78125,1.03125,-61.0,0.0,0.0,0.0
53,1696255111344,0.8378906,0.0546875,0.7558594,20.0625,79.78125,50.21875,0.0,0.0,0.0
54,1696255111384,0.17675781,0.26757812,1.7734375,16.75,121.875,12.125,0.0,0.0,0.0
55,1696255111424,-0.12695312,0.3701172,1.2451172,18.65625,154.90625,-49.8125,0.0,0.0,0.0
56,1696255111464,-0.017578125,0.37695312,1.0351562,-7.28125,142.65625,-70.875,0.0,0.0,0.0
57,1696255111504,-0.3388672,0.28027344,1.0214844,-8.0625,149.59375,-62.15625,0.0,0.0,0.0
58,1696255111544,-0.23339844,0.359375,0.8300781,-4.96875,146.1875,-38.84375,-25.5,25.8125,-186.0625
59,1696255111584,-0.45507812,0.22460938,0.92871094,-33.71875,122.8125,-5.75,0.0,0.0,0.0
60,1696255111624,-0.29296875,0.16503906,0.7373047,-64.0625,126.90625,11.875,0.0,0.0,0.0
61,1696255111664,-0.55078125,0.15234375,0.7167969,-51.59375,127.5,31.46875,0.0,0.0,0.0
62,1696255111704,-0.5576172,-0.08496094,0.609375,-39.28125,145.625,8.46875,0.0,0.0,0.0
63,1696255111744,-0.78222656,-0.080078125,0.48535156,-25.28125,172.65625,13.46875,0.0,0.0,0.0
64,1696255111784,-0.92089844,0.06542969,0.2705078,-18.6875,177.25,7.375,0.0,0.0,0.0
65,1696255111824,-0.80078125,0.27929688,0.24121094,-5.40625,164.0,-20.96875,0.0,0.0,0.0
66,1696255111864,-0.6464844,0.18164062,0.040039062,-44.75,117.8125,-21.5,0.0,0.0,0.0
67,1696255111904,-0.3955078,0.20507812,0.009765625,-24.4375,92.96875,-14.4375,0.0,0.0,0.0
68,1696255111944,-0.5419922,0.16796875,0.09277344,-21.875,83.0,-3.75,0.0,0.0,0.0
69,1696255111984,-1.5693359,0.22363281,0.234375,-22.25,58.21875,12.96875,-48.625,23.3125,-227.875
70,1696255112024,-0.9238281,-0.041015625,0.2421875,9.1875,-37.90625,15.28125,0.0,0.0,0.0
71,1696255112064,-1.0683594,-0.07421875,0.034179688,11.9375,-4.5625,13.28125,0.0,0.0,0.0
72,1696255112104,-1.0234375,0.18945312,0.061523438,16.40625,26.84375,-0.5625,0.0,0.0,0.0
73,1696255112144,-0.9902344,0.033203125,0.10253906,20.65625,33.3125,-14.5,0.0,0.0,0.0
74,1696255112184,-0.9267578,0.0703125,0.041992188,45.75,18.8125,-15.90625,0.0,0.0,0.0
75,1696255112224,-1.0507812,0.23925781,0.001953125,56.4375,-19.84375,-13.34375,0.0,0.0,0.0
76,1696255112264,-1.0107422,0.24902344,-0.18066406,70.59375,-79.71875,-12.53125,0.0,0.0,0.0
77,1696255112304,-1.1376953,0.35546875,-0.13378906,79.9375,-129.46875,15.34375,0.0,0.0,0.0
78,1696255112344,-0.6767578,0.46875,-0.234375,37.5625,-154.1875,61.5625,0.0,0.0,0.0
79,1696255112384,-0.73828125,-0.0009765625,0.04296875,-54.9375,-181.5625,72.0,0.0,0.0,0.0
80,1696255112424,-0.40625,-0.017578125,0.30273438,28.53125,-147.8125,47.84375,0.0,0.0,0.0
81,1696255112464,-0.09082031,-0.4033203,0.46972656,38.375,-85.8125,22.75,0.0,0.0,0.0
82,1696255112504,-1.1572266,0.11816406,0.82714844,66.03125,-184.15625,26.15625,0.0,0.0,0.0
83,1696255112544,-0.4736328,0.3779297,0.6689453,-19.625,-104.1875,35.5,-40.5,31.25,-196.375
84,1696255112584,-0.044921875,0.28125,0.86816406,-8.625,-170.84375,92.375,0.0,0.0,0.0
85,1696255112624,-0.16210938,0.115234375,1.1376953,-32.3125,-154.0,75.53125,0.0,0.0,0.0
86,1696255112664,-0.31640625,0.30273438,0.9736328,-18.75,-186.28125,62.125,0.0,0.0,0.0
87,1696255112704,-0.051757812,0.3466797,1.1962891,5.90625,-184.1875,33.90625,0.0,0.0,0.0
88,1696255112744,0.053710938,0.41210938,1.2089844,5.21875,-155.9375,34.46875,0.0,0.0,0.0
89,1696255112784,0.1640625,0.6923828,1.6699219,-17.28125,-102.78125,23.21875,0.0,0.0,0.0
90,1696255112824,0.08984375,0.5996094,1.6787109,-31.9375,-80.4375,0.21875,0.0,0.0,0.0
91,1696255112864,0.32421875,0.36523438,1.3183594,-25.46875,-25.21875,-23.09375,0.0,0.0,0.0
92,1696255112904,0.50390625,0.18945312,0.8574219,-29.125,24.90625,-20.90625,0.0,0.0,0.0
93,1696255112944,0.51660156,0.0546875,0.74609375,-34.1875,38.34375,-16.1875,0.0,0.0,0.0
94,1696255112984,0.4560547,-0.015625,0.73339844,-24.9375,27.28125,-10.53125,0.0,0.0,0.0
95,1696255113024,0.115234375,-0.041992188,0.96484375,-10.65625,10.75,-3.625,-9.3125,27.5,-180.0625
96,1696255113064,-0.052734375,0.11230469,1.03125,11.21875,-8.1875,-2.03125,0.0,0.0,0.0
97,1696255113104,-0.07128906,0.45117188,1.1074219,9.3125,-14.21875,-23.03125,0.0,0.0,0.0
98,1696255113144,-0.07519531,0.36914062,1.0683594,-4.28125,-13.1875,-19.6875,0.0,0.0,0.0
99,1696255113184,0.1328125,0.3935547,0.8515625,-1.0625,-5.75,1.375,0.0,0.0,0.0
100,1696255113224,0.16113281,0.17578125,0.9746094,-10.03125,3.125,8.71875,0.0,0.0,0.0
101,1696255113264,0.14355469,-0.045898438,1.0615234,-7.59375,3.96875,15.65625,0.0,0.0,0.0
102,1696255113304,0.22070312,0.17871094,1.0761719,-1.0625,4.6875,4.25,0.0,0.0,0.0
103,1696255113344,0.0703125,0.27929688,1.0546875,4.5,4.6875,-21.5625,0.0,0.0,0.0
104,1696255113384,0.064453125,0.35058594,0.8330078,-3.1875,-19.84375,-18.875,0.0,0.0,0.0
105,1696255113424,0.17382812,0.234375,0.8496094,-10.53125,-15.875,-4.25,0.0,0.0,0.0
106,1696255113464,0.08984375,0.009765625,1.0185547,-1.4375,1.78125,10.53125,0.0,0.0,0.0
107,1696255113504,0.16796875,0.15429688,1.09375,-1.1875,-5.90625,12.3125,0.0,0.0,0.0
108,1696255113544,0.11621094,0.3720703,1.1953125,1.375,4.9375,-8.375,-8.125,25.5625,-180.9375
109,1696255113584,0.005859375,0.27734375,0.9238281,8.65625,-9.9375,-8.75,0.0,0.0,0.0
110,1696255113624,0.10449219,0.23730469,0.76953125,-11.0,-19.96875,-1.625,0.0,0.0,0.0
111,1696255113664,0.2607422,0.09863281,0.95996094,-0.03125,-7.125,11.5,0.0,0.0,0.0
112,1696255113704,0.18652344,0.053710938,0.96875,17.3125,-10.5,32.4375,0.0,0.0,0.0
113,1696255113744,0.17773438,0.26757812,1.0761719,7.78125,-16.71875,8.40625,0.0,0.0,0.0
114,1696255113784,0.08496094,0.28710938,1.1542969,14.1875,-10.125,-12.96875,0.0,0.0,0.0
115,1696255113824,0.18652344,0.3046875,0.8613281,15.375,-10.75,-2.59375,0.0,0.0,0.0
116,1696255113864,0.23730469,0.22558594,0.85839844,34.28125,15.03125,25.125,0.0,0.0,0.0
117,1696255113904,0.19335938,0.19433594,1.0996094,38.5,-10.1875,40.3125,0.0,0.0,0.0
118,1696255113944,0.21386719,0.35546875,0.8222656,32.09375,26.84375,58.75,0.0,0.0,0.0
119,1696255113984,0.4658203,0.33789062,0.34765625,4.5625,35.28125,45.6875,0.0,0.0,0.0
120,1696255114024,0.9091797,-0.15722656,1.0644531,-5.8125,13.75,-8.6875,-9.3125,28.8125,-181.125
121,1696255114064,0.08984375,0.38085938,1.5400391,21.84375,-34.25,1.0625,0.0,0.0,0.0
122,1696255114104,0.53515625,0.22949219,1.3632812,2.84375,48.09375,-15.84375,0.0,0.0,0.0
123,1696255114144,0.23925781,0.42578125,1.125,16.53125,104.90625,-35.65625,0.0,0.0,0.0
124,1696255114184,0.08496094,0.44628906,1.1044922,13.03125,125.90625,-57.40625,0.0,0.0,0.0
125,1696255114224,-0.115234375,0.48632812,1.0458984,10.46875,150.28125,-54.84375,0.0,0.0,0.0
126,1696255114264,-0.3955078,0.41015625,1.2226562,30.5,150.75,-83.21875,0.0,0.0,0.0
127,1696255114304,-0.25585938,0.33203125,0.9248047,8.53125,146.1875,-63.125,0.0,0.0,0.0
128,1696255114344,-0.23730469,0.37695312,0.8232422,-11.5625,116.6875,-40.78125,0.0,0.0,0.0
129,1696255114384,-0.45996094,0.359375,0.6748047,0.71875,68.59375,-23.65625,0.0,0.0,0.0
130,1696255114424,-0.63671875,0.3515625,0.68359375,-30.46875,117.4375,-10.40625,0.0,0.0,0.0
131,1696255114464,-0.34765625,-0.05859375,0.7607422,-46.15625,118.21875,-22.71875,0.0,0.0,0.0
132,1696255114504,-0.3388672,-0.16894531,0.64941406,19.09375,165.34375,-24.375,0.0,0.0,0.0
133,1696255114544,-0.8251953,-0.05859375,0.3623047,56.1875,153.0625,-23.9375,-44.25,31.375,-200.625
134,1696255114584,-1.0507812,0.46679688,0.06738281,11.09375,147.28125,-29.1875,0.0,0.0,0.0
135,1696255114624,-0.84277344,0.70703125,0.2421875,-55.0,92.15625,-46.96875,0.0,0.0,0.0
136,1696255114664,-0.5341797,0.18847656,-0.08300781,-100.25,47.71875,-40.0625,0.0,0.0,0.0
137,1696255114704,-0.7441406,0.32421875,0.17871094,-43.65625,30.15625,-6.90625,0.0,0.0,0.0
138,1696255114744,-0.8623047,0.1328125,0.3671875,-17.84375,14.59375,13.71875,0.0,0.0,0.0
139,1696255114784,-1.0117188,0.3701172,0.54785156,-28.90625,10.75,4.5625,0.0,0.0,0.0
140,1696255114824,-0.85839844,-0.15820312,0.47460938,-17.34375,12.40625,-1.84375,0.0,0.0,0.0
141,1696255114864,-0.9609375,0.037109375,0.29785156,-4.28125,30.65625,-12.71875,0.0,0.0,0.0
142,1696255114904,-0.8984375,0.19433594,0.28515625,-2.40625,20.8125,-23.09375,0.0,0.0,0.0
143,1696255114944,-1.0048828,0.33984375,0.296875,-14.3125,12.40625,-11.125,0.0,0.0,0.0
144,1696255114984,-0.91015625,0.12695312,0.23144531,-14.0,1.71875,9.0,0.0,0.0,0.0
145,1696255115024,-0.9375,0.14453125,0.3154297,-6.78125,-3.96875,19.375,-49.0625,24.3125,-218.3125
146,1696255115064,-1.0,-0.13378906,0.3857422,-15.09375,1.84375,5.46875,0.0,0.0,0.0
147,1696255115104,-0.9609375,-0.046875,0.31933594,0.96875,-0.90625,-12.59375,0.0,0.0,0.0
148,1696255115144,-0.8876953,0.036132812,0.36914062,19.8125,4.625,-6.0,0.0,0.0,0.0
149,1696255115184,-0.9736328,0.034179688,0.2626953,28.40625,8.0625,3.46875,0.0,0.0,0.0
150,1696255115224,-0.9970703,0.18261719,0.29589844,32.21875,7.875,0.84375,0.0,0.0,0.0
151,1696255115264,-0.98339844,0.18457031,0.31054688,12.5625,3.40625,-2.65625,0.0,0.0,0.0
152,1696255115304,-0.96972656,0.171875,0.013671875,29.9375,-0.375,-10.21875,0.0,0.0,0.0
153,1696255115344,-1.0048828,0.16210938,0.14941406,19.9375,2.5,-19.1875,0.0,0.0,0.0
154,1696255115384,-0.87109375,0.07910156,0.19824219,42.71875,-16.34375,-24.1875,0.0,0.0,0.0
155,1696255115424,-1.171875,0.46191406,0.20800781,15.3125,-8.96875,-12.71875,0.0,0.0,0.0
156,1696255115464,-1.2880859,0.46191406,0.32617188,-60.75,-19.84375,7.0625,0.0,0.0,0.0
157,1696255115504,-1.1279297,0.28027344,0.2265625,-166.65625,-32.53125,29.75,0.0,0.0,0.0
158,1696255115544,-0.93847656,0.11621094,0.23828125,-146.6875,-39.1875,50.6875,-48.3125,22.6875,-217.5625
159,1696255115584,-0.8095703,-0.19921875,0.43359375,-165.125,-51.09375,37.6875,0.0,0.0,0.0
160,1696255115624,-0.609375,-0.38671875,0.54589844,-113.84375,-45.90625,18.65625,0.0,0.0,0.0
161,1696255115664,-0.35058594,-0.12402344,0.74902344,-90.21875,-39.84375,49.84375,0.0,0.0,0.0
162,1696255115704,-0.48339844,-0.19140625,0.61328125,-60.5625,7.625,80.375,0.0,0.0,0.0
163,1696255115744,-0.65722656,-0.0126953125,0.7421875,-106.21875,35.875,41.46875,0.0,0.0,0.0
164,1696255115784,-0.7236328,0.10839844,0.71972656,-131.0,73.78125,-4.34375,0.0,0.0,0.0
165,1696255115824,-0.921875,-0.18359375,0.8359375,-89.875,88.375,-28.15625,0.0,0.0,0.0
166,1696255115864,-1.7841797,-0.16503906,0.5888672,-15.84375,-17.875,29.15625,0.0,0.0,0.0
167,1696255115904,-0.07714844,1.1083984,0.234375,-34.875,46.625,13.65625,0.0,0.0,0.0
168,1696255115944,-1.0136719,0.20996094,0.22460938,-125.25,25.625,43.625,0.0,0.0,0.0
169,1696255115984,-1.4560547,-0.64746094,-0.03515625,-195.75,32.15625,46.375,0.0,0.0,0.0
170,1696255116024,-1.0722656,-0.6640625,0.18164062,-106.40625,39.84375,14.375,-50.5625,30.3125,-229.875
171,1696255116064,-0.94140625,-0.20507812,0.33984375,-109.53125,70.0,-3.375,0.0,0.0,0.0
172,1696255116104,-0.85058594,0.041992188,0.23046875,-136.5,68.46875,4.4375,0.0,0.0,0.0
173,1696255116144,-0.8847656,-0.14746094,0.16210938,-136.125,42.90625,17.375,0.0,0.0,0.0
174,1696255116184,-0.91015625,-0.42089844,0.21875,-96.34375,36.5625,22.6875,0.0,0.0,0.0
175,1696255116224,-0.85839844,-0.28515625,0.31445312,-49.71875,43.34375,-1.84375,0.0,0.0,0.0
176,1696255116264,-0.96875,-0.15820312,0.46972656,-71.1875,18.0,-3.0625,0.0,0.0,0.0
177,1696255116304,-0.8544922,0.0703125,0.35742188,-65.8125,-20.03125,0.65625,0.0,0.0,0.0
178,1696255116344,-1.3564453,-0.087890625,0.040039062,-21.125,-105.53125,7.375,0.0,0.0,0.0
179,1696255116384,-1.59375,-0.4892578,0.51953125,75.25,-193.59375,6.5625,0.0,0.0,0.0
180,1696255116424,-1.3623047,0.45898438,0.8984375,18.28125,-363.03125,88.46875,0.0,0.0,0.0
181,1696255116464,-1.3154297,-0.1796875,0.2861328,49.34375,-296.9375,174.125,0.0,0.0,0.0
182,1696255116504,-1.4296875,-0.6796875,0.16992188,-11.0,-211.53125,67.40625,0.0,0.0,0.0
183,1696255116544,-0.6191406,0.036132812,0.8496094,98.3125,-207.9375,52.78125,-44.5625,47.75,-206.125
184,1696255116584,0.4345703,0.21777344,0.22949219,146.9375,-52.125,5.03125,0.0,0.0,0.0
185,1696255116624,0.64453125,0.38671875,0.24804688,9.625,41.375,-38.59375,0.0,0.0,0.0
186,1696255116664,0.3515625,0.3017578,0.026367188,-25.15625,100.15625,-53.84375,0.0,0.0,0.0
187,1696255116704,0.4296875,0.6015625,-0.041015625,-80.03125,195.25,-80.65625,0.0,0.0,0.0
188,1696255116744,0.34472656,0.44335938,-0.2685547,-170.6875,313.28125,-83.9375,0.0,0.0,0.0
189,1696255116784,-1.9746094,0.265625,-0.7158203,-189.46875,316.71875,47.46875,0.0,0.0,0.0
190,1696255116824,-1.0019531,1.3476562,1.1591797,173.125,-30.875,-99.8125,0.0,0.0,0.0
191,1696255116864,-0.4560547,0.5234375,0.2783203,-13.5,16.46875,55.75,0.0,0.0,0.0
192,1696255116904,-1.0224609,-0.3359375,0.087890625,-114.875,91.5625,66.625,0.0,0.0,0.0
193,1696255116944,-1.0898438,-0.7470703,0.2998047,-42.625,77.21875,-16.5625,0.0,0.0,0.0
194,1696255116984,-0.8652344,-0.23535156,0.25683594,42.53125,61.90625,-10.03125,0.0,0.0,0.0
195,1696255117024,-0.8798828,0.08203125,0.25097656,-2.875,50.28125,4.5625,-52.375,41.75,-234.625
196,1696255117064,-0.8779297,0.020507812,0.26757812,-48.46875,62.875,21.15625,0.0,0.0,0.0
197,1696255117104,-0.8203125,-0.021484375,0.14746094,-39.625,50.34375,23.90625,0.0,0.0,0.0
198,1696255117144,-0.8613281,-0.20507812,0.08691406,-20.53125,40.96875,25.5625,0.0,0.0,0.0
199,1696255117184,-1.0009766,-0.32617188,0.20996094,-3.25,14.09375,29.34375,0.0,0.0,0.0
200,1696255117224,-1.5683594,-0.021484375,0.23730469,27.625,-27.34375,31.34375,0.0,0.0,0.0
201,1696255117264,-1.5878906,0.4111328,0.09472656,112.65625,-202.15625,20.0,0.0,0.0,0.0
202,1696255117304,-1.7578125,0.85253906,1.2412109,140.40625,-312.4375,142.4375,0.0,0.0,0.0
203,1696255117344,-1.4355469,-0.20898438,0.32128906,22.75,-258.96875,90.3125,0.0,0.0,0.0
204,1696255117384,-0.6328125,-0.12109375,0.40039062,-22.96875,-144.03125,32.21875,0.0,0.0,0.0
205,1696255117424,-0.6894531,0.14941406,0.24414062,174.1875,-118.59375,4.75,0.0,0.0,0.0
206,1696255117464,-0.091796875,0.13183594,-0.0048828125,137.0,-85.5625,-50.125,0.0,0.0,0.0
207,1696255117504,0.3203125,0.39257812,0.31640625,51.0625,-65.25,-42.75,0.0,0.0,0.0
208,1696255117544,0.28515625,0.16601562,0.25195312,21.28125,7.03125,-58.0625,-46.5,55.6875,-208.6875
209,1696255117584,0.047851562,0.3232422,0.12109375,-51.40625,69.9375,-100.5625,0.0,0.0,0.0
210,1696255117624,-0.018554688,0.35058594,0.11230469,-144.25,140.3125,-129.0,0.0,0.0,0.0
211,1696255117664,-1.0898438,0.13183594,0.48632812,-175.0,231.4375,-92.5,0.0,0.0,0.0
212,1696255117704,-1.9746094,-0.10546875,0.65625,-77.28125,150.40625,16.75,0.0,0.0,0.0
213,1696255117744,-1.2958984,0.5957031,0.16894531,14.125,-11.53125,-56.84375,0.0,0.0,0.0
214,1696255117784,-0.8984375,0.28515625,0.05859375,10.65625,14.84375,48.125,0.0,0.0,0.0
215,1696255117824,-1.2919922,-0.2626953,-0.109375,-44.875,81.78125,67.65625,0.0,0.0,0.0
216,1696255117864,-1.1337891,-0.36035156,0.22753906,-85.34375,100.65625,-39.28125,0.0,0.0,0.0
217,1696255117904,-1.0029297,-0.18652344,0.19824219,-14.1875,75.6875,-43.90625,0.0,0.0,0.0
218,1696255117944,-0.8066406,-0.08105469,0.22753906,-49.40625,55.71875,3.625,0.0,0.0,0.0
219,1696255117984,-0.59765625,-0.21679688,0.31054688,-37.125,45.59375,23.90625,0.0,0.0,0.0
220,1696255118024,-0.7011719,-0.24121094,0.20996094,-16.5625,39.125,21.34375,-50.875,42.625,-237.5
221,1696255118064,-0.8017578,-0.0068359375,0.2626953,15.375,65.6875,4.8125,0.0,0.0,0.0
222,1696255118104,-0.91308594,-0.1015625,0.40429688,-0.4375,34.125,5.71875,0.0,0.0,0.0
223,1696255118144,-1.6181641,-0.13867188,0.29296875,-7.21875,-44.6875,7.59375,0.0,0.0,0.0
224,1696255118184,-1.2324219,-0.17871094,0.21679688,103.3125,-115.0,6.15625,0.0,0.0,0.0
225,1696255118224,-1.5859375,0.67871094,0.58984375,218.375,-286.6875,75.21875,0.0,0.0,0.0
226,1696255118264,-1.4150391,0.23339844,0.44921875,24.6875,-209.15625,82.0625,0.0,0.0,0.0
227,1696255118304,-0.83984375,-0.38085938,0.107421875,-14.96875,-90.09375,-17.65625,0.0,0.0,0.0
228,1696255118344,-0.76171875,-0.31152344,0.23535156,-30.1875,-40.78125,-102.4375,0.0,0.0,0.0
229,1696255118384,-0.47753906,-0.12011719,0.1328125,107.15625,31.3125,-158.03125,0.0,0.0,0.0
230,1696255118424,-0.16992188,-0.27734375,-0.046875,187.125,115.46875,-162.25,0.0,0.0,0.0
231,1696255118464,-0.42382812,-0.6171875,0.0146484375,205.25,133.25,-128.6875,0.0,0.0,0.0
232,1696255118504,-0.7890625,-0.3154297,-0.21386719,154.09375,143.5,-55.0625,0.0,0.0,0.0
233,1696255118544,-1.2939453,0.28320312,-0.5683594,253.09375,84.84375,-49.875,-51.125,31.25,-233.4375
234,1696255118584,-1.25,1.0361328,0.08300781,181.0625,-7.1875,-31.625,0.0,0.0,0.0
235,1696255118624,-1.9746094,1.1181641,0.5214844,75.59375,136.90625,50.5,0.0,0.0,0.0
236,1696255118664,-0.5332031,-0.3779297,-0.70703125,40.1875,54.75,-31.59375,0.0,0.0,0.0
237,1696255118704,-0.8876953,-0.89941406,0.10546875,-6.75,38.21875,-1.4375,0.0,0.0,0.0
238,1696255118744,-0.94433594,-0.18457031,0.17675781,111.625,45.15625,-16.875,0.0,0.0,0.0
239,1696255118784,-0.9501953,-0.13183594,0.30859375,141.53125,-4.5,-2.15625,0.0,0.0,0.0
240,1696255118824,-1.2148438,-0.15625,0.30078125,117.34375,-76.40625,-8.25,0.0,0.0,0.0
241,1696255118864,-0.6152344,-0.0126953125,-0.25878906,100.625,-77.03125,-1.78125,0.0,0.0,0.0
242,1696255118904,-0.8066406,-0.16699219,-0.034179688,121.0,-40.59375,6.5,0.0,0.0,0.0
243,1696255118944,-1.6708984,-0.23144531,0.1796875,73.40625,9.59375,4.6875,0.0,0.0,0.0
244,1696255118984,-1.2714844,0.19628906,0.01953125,120.15625,10.8125,-10.875,0.0,0.0,0.0
245,1696255119024,-1.3681641,0.7607422,0.19238281,93.375,5.96875,-10.09375,-48.3125,25.5625,-227.875
246,1696255119064,-1.3212891,0.609375,0.0078125,77.4375,-97.28125,31.28125,0.0,0.0,0.0
247,1696255119104,-0.6982422,0.4345703,0.17578125,74.8125,-148.3125,32.03125,0.0,0.0,0.0
248,1696255119144,0.13964844,-0.10546875,-0.19335938,53.03125,-97.84375,-11.3125,0.0,0.0,0.0
249,1696255119184,0.6738281,-0.1328125,0.001953125,-44.8125,-28.0625,-4.78125,0.0,0.0,0.0
250,1696255119224,-1.8300781,-0.037109375,1.4052734,93.1875,-283.5,67.84375,0.0,0.0,0.0
251,1696255119264,-0.7841797,0.028320312,0.28515625,125.53125,-88.0625,-82.25,0.0,0.0,0.0
252,1696255119304,-0.50390625,0.3955078,0.15136719,73.90625,-157.40625,17.0,0.0,0.0,0.0
253,1696255119344,-0.42089844,0.49023438,0.69628906,-67.03125,-118.90625,36.40625,0.0,0.0,0.0
254,1696255119384,-0.3251953,-0.047851562,0.5332031,-48.90625,-143.3125,34.09375,0.0,0.0,0.0
255,1696255119424,-0.21679688,-0.040039062,1.0126953,51.3125,-118.59375,68.875,0.0,0.0,0.0
256,1696255119464,-0.01953125,0.3623047,0.9482422,88.0625,-127.5625,63.09375,0.0,0.0,0.0
257,1696255119504,-0.38085938,0.6279297,0.96484375,64.96875,-139.59375,89.46875,0.0,0.0,0.0
258,1696255119544,-0.23242188,0.58984375,1.1269531,12.90625,-134.15625,72.25,-26.125,35.5625,-187.5625
259,1696255119584,-0.11035156,0.44628906,1.2246094,17.0,-124.375,65.28125,0.0,0.0,0.0
260,1696255119624,0.07910156,0.6064453,1.1650391,25.25,-94.40625,47.03125,0.0,0.0,0.0
261,1696255119664,0.11425781,0.6621094,1.4082031,8.28125,-53.34375,42.09375,0.0,0.0,0.0
262,1696255119704,0.2783203,0.75390625,1.5458984,13.28125,-13.1875,15.0,0.0,0.0,0.0
263,1696255119744,0.20605469,0.8535156,1.4101562,5.59375,24.28125,-11.0,0.0,0.0,0.0
264,1696255119784,0.16894531,0.74316406,1.2568359,-1.125,70.0,-31.6875,0.0,0.0,0.0
265,1696255119824,0.07324219,0.69628906,1.1416016,0.84375,111.5625,-47.75,0.0,0.0,0.0
266,1696255119864,-0.103515625,0.7050781,0.9609375,-12.78125,134.71875,-53.25,0.0,0.0,0.0
267,1696255119904,-0.16210938,0.5888672,0.9394531,-39.09375,139.53125,-59.40625,0.0,0.0,0.0
268,1696255119944,-0.203125,0.45898438,0.9453125,-54.03125,138.96875,-59.84375,0.0,0.0,0.0
269,1696255119984,-0.30078125,0.2548828,0.8623047,-49.46875,128.59375,-65.4375,0.0,0.0,0.0
270,1696255120024,-0.3623047,0.20703125,0.8623047,-20.90625,86.84375,-39.625,-35.375,35.4375,-189.0625
271,1696255120064,-0.5449219,0.24414062,0.69140625,-18.03125,137.28125,-19.5,0.0,0.0,0.0
272,1696255120104,-0.765625,0.15039062,0.4423828,-23.15625,169.9375,-0.28125,0.0,0.0,0.0
273,1696255120144,-0.7939453,-0.0390625,0.12207031,-22.46875,179.6875,-3.3125,0.0,0.0,0.0
274,1696255120184,-0.73828125,0.06542969,0.1953125,-12.71875,147.84375,-21.3125,0.0,0.0,0.0
275,1696255120224,-0.40820312,0.20019531,0.2548828,-15.03125,124.09375,-38.84375,0.0,0.0,0.0
276,1696255120264,-0.56640625,0.31835938,0.024414062,-23.28125,78.25,-27.3125,0.0,0.0,0.0
277,1696255120304,-0.8154297,0.49023438,0.14746094,-17.40625,16.0,-31.875,0.0,0.0,0.0
278,1696255120344,-0.89746094,0.35839844,0.103515625,22.125,-43.875,10.40625,0.0,0.0,0.0
279,1696255120384,-1.1269531,0.16113281,0.3642578,5.96875,-30.21875,33.5,0.0,0.0,0.0
280,1696255120424,-1.0830078,0.099609375,0.16796875,0.90625,-29.78125,2.1875,0.0,0.0,0.0
281,1696255120464,-0.89160156,0.09472656,0.14257812,42.59375,-62.125,3.9375,0.0,0.0,0.0
282,1696255120504,-0.47753906,0.28222656,0.3125,25.84375,-63.65625,-19.8125,0.0,0.0,0.0
283,1696255120544,-0.72753906,0.11621094,0.21484375,32.8125,-111.9375,21.53125,-48.0,31.8125,-209.3125
284,1696255120584,-0.5800781,0.33691406,0.29296875,40.1875,-117.375,12.625,0.0,0.0,0.0
285,1696255120624,-0.6777344,0.02734375,0.39453125,50.09375,-146.0625,-3.9375,0.0,0.0,0.0
286,1696255120664,-0.61621094,0.203125,0.5830078,30.375,-134.53125,-4.25,0.0,0.0,0.0
287,1696255120704,-0.5605469,0.19140625,0.5263672,-32.4375,-112.71875,38.375,0.0,0.0,0.0
288,1696255120744,-0.28222656,0.24902344,0.68652344,12.1875,-110.03125,91.84375,0.0,0.0,0.0
289,1696255120784,-0.21386719,0.10253906,1.1113281,20.0625,-118.71875,97.5625,0.0,0.0,0.0
290,1696255120824,-0.25195312,0.5644531,1.0429688,50.28125,-114.875,90.4375,0.0,0.0,0.0
291,1696255120864,-0.032226562,0.62402344,1.1533203,33.78125,-139.15625,89.75,0.0,0.0,0.0
292,1696255120904,0.08300781,0.6669922,1.3398438,15.78125,-127.125,75.125,0.0,0.0,0.0
293,1696255120944,0.09375,1.0136719,1.5390625,1.4375,-80.875,53.75,0.0,0.0,0.0
294,1696255120984,0.16503906,0.96875,1.4912109,8.28125,-36.0625,15.78125,0.0,0.0,0.0
295,1696255121024,0.15527344,0.9111328,1.4853516,-2.65625,10.875,-12.0,-17.6875,42.1875,-182.625
296,1696255121064,0.11328125,0.7548828,1.3261719,6.75,65.6875,-42.1875,0.0,0.0,0.0
297,1696255121104,-0.048828125,0.75683594,1.1474609,13.90625,86.78125,-71.875,0.0,0.0,0.0
298,1696255121144,-0.23242188,0.8222656,1.0019531,-9.96875,103.15625,-80.28125,0.0,0.0,0.0
299,1696255121184,-0.28710938,0.71191406,0.9140625,-43.1875,105.59375,-84.25,0.0,0.0,0.0
300,1696255121224,-0.25097656,0.5292969,0.8222656,-53.375,138.1875,-77.46875,0.0,0.0,0.0
301,1696255121264,-0.31933594,0.3515625,0.76171875,-44.40625,144.65625,-50.375,0.0,0.0,0.0
302,1696255121304,-0.40234375,0.39160156,0.7792969,-25.96875,101.375,-18.625,0.0,0.0,0.0
303,1696255121344,-0.5966797,0.3359375,0.6669922,-29.5625,119.375,-6.84375,0.0,0.0,0.0
304,1696255121384,-0.75097656,0.25,0.5410156,-45.0625,152.78125,-5.625,0.0,0.0,0.0
305,1696255121424,-0.7011719,-0.08105469,0.26660156,-35.46875,177.5625,-13.875,0.0,0.0,0.0
306,1696255121464,-0.6845703,0.001953125,0.23242188,-20.96875,177.84375,-34.09375,0.0,0.0,0.0
307,1696255121504,-0.58203125,0.037109375,0.14648438,-25.90625,149.125,-54.71875,0.0,0.0,0.0
308,1696255121544,-0.63378906,0.107421875,0.15917969,-27.4375,104.375,-58.5,-48.875,29.875,-215.0
309,1696255121584,-0.59472656,0.39160156,-0.057617188,-33.71875,66.09375,-45.0625,0.0,0.0,0.0
310,1696255121624,-0.9042969,0.5390625,0.30371094,1.6875,-1.59375,3.46875,0.0,0.0,0.0
311,1696255121664,-1.2900391,-0.078125,0.0146484375,35.875,-35.46875,33.5,0.0,0.0,0.0
312,1696255121704,-0.95996094,-0.23144531,0.13183594,12.5625,-30.6875,25.25,0.0,0.0,0.0
313,1696255121744,-1.1591797,0.12695312,0.107421875,30.8125,-14.90625,-7.59375,0.0,0.0,0.0
314,1696255121784,-0.90234375,0.31054688,0.17871094,37.5625,-37.09375,-17.40625,0.0,0.0,0.0
315,1696255121824,-0.734375,0.46972656,0.21777344,7.5,-52.96875,-12.34375,0.0,0.0,0.0
316,1696255121864,-0.7763672,0.29589844,0.2548828,1.75,-104.3125,26.65625,0.0,0.0,0.0
317,1696255121904,-0.5097656,0.25585938,0.09765625,34.84375,-133.78125,34.71875,0.0,0.0,0.0
318,1696255121944,-0.5341797,-0.17089844,0.3408203,59.5,-151.375,39.46875,0.0,0.0,0.0
319,1696255121984,-0.55078125,-0.015625,0.2841797,26.53125,-158.75,44.15625,0.0,0.0,0.0
320,1696255122024,-0.7216797,0.3408203,0.5419922,-24.75,-148.6875,34.09375,-41.375,33.5,-198.9375
321,1696255122064,-0.22851562,-0.2265625,0.5488281,-44.53125,-124.75,27.0,0.0,0.0,0.0
322,1696255122104,0.032226562,0.22265625,0.8671875,63.15625,-134.75,95.875,0.0,0.0,0.0
323,1696255122144,-0.030273438,0.22949219,1.0566406,46.78125,-153.625,58.5625,0.0,0.0,0.0
324,1696255122184,-0.15625,0.4609375,1.0576172,31.46875,-138.0,86.78125,0.0,0.0,0.0
325,1696255122224,-0.2548828,0.890625,1.3466797,32.4375,-149.71875,78.84375,0.0,0.0,0.0
326,1696255122264,0.19140625,0.72753906,1.2861328,21.84375,-123.90625,45.09375,0.0,0.0,0.0
327,1696255122304,0.26171875,0.8857422,1.3828125,25.78125,-65.0,40.8125,0.0,0.0,0.0
328,1696255122344,0.22363281,1.0175781,1.4316406,-1.59375,5.25,19.875,0.0,0.0,0.0
329,1696255122384,0.16113281,0.8457031,1.3613281,3.65625,45.28125,-13.15625,0.0,0.0,0.0
330,1696255122424,0.0146484375,0.8359375,1.1455078,-0.15625,81.25,-40.375,0.0,0.0,0.0
331,1696255122464,-0.0625,0.73535156,1.09375,-6.375,108.28125,-55.5625,0.0,0.0,0.0
332,1696255122504,-0.23242188,0.6894531,0.953125,-18.46875,109.5625,-63.4375,0.0,0.0,0.0
333,1696255122544,-0.19335938,0.6269531,0.87402344,-37.8125,104.90625,-64.21875,-28.0625,40.375,-184.6875
334,1696255122584,-0.17578125,0.4345703,0.9189453,-53.78125,121.59375,-72.65625,0.0,0.0,0.0
335,1696255122624,-0.2626953,0.3046875,0.9091797,-40.65625,119.625,-58.25,0.0,0.0,0.0
336,1696255122664,-0.23242188,0.3017578,0.8486328,-5.28125,96.375,-40.125,0.0,0.0,0.0
337,1696255122704,-0.4794922,0.27929688,0.7783203,-20.40625,113.65625,-31.21875,0.0,0.0,0.0
338,1696255122744,-0.671875,0.23632812,0.7597656,-42.75,155.8125,-19.8125,0.0,0.0,0.0
339,1696255122784,-0.984375,-0.15039062,0.27929688,-41.9375,201.125,-32.5,0.0,0.0,0.0
340,1696255122824,-1.0878906,-0.23144531,0.0048828125,-42.5,216.4375,-46.53125,0.0,0.0,0.0
341,1696255122864,-0.33691406,-0.12890625,0.3701172,17.75,240.0,-121.84375,0.0,0.0,0.0
342,1696255122904,-0.27539062,-0.048828125,0.1875,52.34375,126.71875,-105.0625,0.0,0.0,0.0
343,1696255122944,-0.5126953,0.48242188,-0.35839844,71.09375,66.65625,-57.03125,0.0,0.0,0.0
344,1696255122984,-0.29785156,0.69140625,-0.02734375,61.6875,-4.6875,24.03125,0.0,0.0,0.0
345,1696255123024,-1.1494141,0.82421875,0.16894531,-6.375,-43.21875,89.09375,-51.0,23.125,-222.625
346,1696255123064,-1.9746094,-0.40429688,-0.2919922,-93.65625,12.875,-0.6875,0.0,0.0,0.0
347,1696255123104,-1.1845703,-0.43847656,0.36914062,-9.0,-26.84375,-23.21875,0.0,0.0,0.0
348,1696255123144,-0.6845703,0.015625,0.1015625,23.34375,30.59375,-12.90625,0.0,0.0,0.0
349,1696255123184,-0.9345703,0.09082031,0.17285156,104.71875,75.8125,-14.78125,0.0,0.0,0.0
350,1696255123224,-0.9267578,0.07421875,0.33007812,90.375,60.0,-7.21875,0.0,0.0,0.0
351,1696255123264,-1.0615234,0.16015625,0.34960938,50.21875,32.28125,13.34375,0.0,0.0,0.0
352,1696255123304,-0.9746094,-0.20214844,0.42382812,34.65625,25.5,25.4375,0.0,0.0,0.0
353,1696255123344,-1.0263672,-0.47753906,0.35058594,60.40625,6.90625,30.5625,0.0,0.0,0.0
354,1696255123384,-1.0429688,-0.54589844,0.19335938,105.03125,-26.1875,8.28125,0.0,0.0,0.0
355,1696255123424,-0.95996094,-0.13574219,0.16796875,122.0625,-92.28125,-12.90625,0.0,0.0,0.0
356,1696255123464,-1.5722656,-0.049804688,0.24902344,112.53125,-100.28125,-38.46875,0.0,0.0,0.0
357,1696255123504,-1.7363281,0.46484375,0.31640625,143.71875,-210.5,-43.90625,0.0,0.0,0.0
358,1696255123544,-0.86328125,0.20898438,-0.19042969,285.6875,-198.53125,-64.71875,-47.375,26.75,-208.5625
359,1696255123584,-0.8652344,-0.18457031,0.7480469,93.84375,-156.6875,-91.28125,0.0,0.0,0.0
360,1696255123624,-0.83496094,-0.16796875,0.16699219,51.5625,-61.65625,-146.5,0.0,0.0,0.0
361,1696255123664,-0.7207031,0.053710938,0.34179688,147.625,-8.84375,-143.03125,0.0,0.0,0.0
362,1696255123704,-0.24414062,-0.2578125,0.5029297,166.1875,29.53125,-151.9375,0.0,0.0,0.0
363,1696255123744,-0.22167969,-0.7519531,0.15820312,173.0,108.8125,-161.78125,0.0,0.0,0.0
364,1696255123784,-1.1113281,-0.6582031,-0.8222656,169.21875,161.125,-89.25,0.0,0.0,0.0
365,1696255123824,-1.4296875,1.0839844,0.1171875,292.53125,53.53125,-40.0625,0.0,0.0,0.0
366,1696255123864,-0.93066406,1.5009766,0.43359375,240.53125,125.90625,53.25,0.0,0.0,0.0
367,1696255123904,-1.0878906,-0.9003906,0.171875,40.3125,-17.625,101.71875,0.0,0.0,0.0
368,1696255123944,-1.3476562,-1.3359375,0.37597656,149.46875,21.125,0.28125,0.0,0.0,0.0
369,1696255123984,-0.9628906,-1.1494141,-0.18066406,200.65625,5.3125,-82.84375,0.0,0.0,0.0
370,1696255124024,-1.1054688,-0.1875,-0.0048828125,327.1875,-3.21875,-64.96875,-46.5,46.5625,-211.125
371,1696255124064,-1.0126953,0.099609375,-0.24511719,288.25,-50.40625,-49.875,0.0,0.0,0.0
372,1696255124104,-1.1845703,0.2861328,-0.5214844,260.28125,-127.5625,-19.1875,0.0,0.0,0.0
373,1696255124144,-1.5625,0.047851562,-0.05859375,307.96875,-146.59375,-58.125,0.0,0.0,0.0
374,1696255124184,-1.1542969,0.0146484375,0.21191406,148.21875,-76.0625,-146.5625,0.0,0.0,0.0
375,1696255124224,-0.8046875,0.17578125,-0.078125,184.96875,-8.53125,-128.5,0.0,0.0,0.0
376,1696255124264,-0.31152344,-0.0068359375,-0.21582031,128.03125,80.25,-102.6875,0.0,0.0,0.0
377,1696255124304,-0.875,-0.171875,-0.3984375,148.28125,91.8125,-55.25,0.0,0.0,0.0
378,1696255124344,-0.92578125,-0.109375,0.044921875,361.4375,65.375,-41.65625,0.0,0.0,0.0
379,1696255124384,-1.7451172,0.72753906,0.5361328,278.59375,78.75,-9.71875,0.0,0.0,0.0
380,1696255124424,-0.81152344,-0.025390625,0.3466797,81.28125,-57.1875,34.21875,0.0,0.0,0.0
381,1696255124464,-0.8251953,-0.23535156,0.28027344,81.03125,39.0,-18.03125,0.0,0.0,0.0
382,1696255124504,-1.1816406,-1.0771484,-0.19628906,96.46875,57.875,9.8125,0.0,0.0,0.0
383,1696255124544,-0.8466797,-0.6044922,-0.16699219,167.53125,44.6875,-17.46875,-50.375,46.5625,-241.6875
384,1696255124584,-0.94140625,-0.4638672,-0.3935547,281.96875,21.59375,-23.09375,0.0,0.0,0.0
385,1696255124624,-1.2041016,-0.17675781,-0.25390625,338.125,-60.375,-47.3125,0.0,0.0,0.0
386,1696255124664,-1.6992188,0.4970703,0.0009765625,349.15625,-146.0625,-23.9375,0.0,0.0,0.0
387,1696255124704,-1.1542969,0.64453125,-0.1015625,344.53125,-209.03125,10.71875,0.0,0.0,0.0
388,1696255124744,-0.68652344,0.15527344,0.36914062,106.3125,-83.75,-52.5625,0.0,0.0,0.0
389,1696255124784,-1.0058594,0.15917969,-0.015625,30.9375,-13.59375,-16.0,0.0,0.0,0.0
390,1696255124824,-0.8730469,-0.23535156,0.16015625,106.59375,16.1875,-55.375,0.0,0.0,0.0
391,1696255124864,-0.38964844,-0.0146484375,0.0048828125,151.84375,72.21875,-80.15625,0.0,0.0,0.0
392,1696255124904,-0.42382812,-0.52441406,-0.16015625,259.5,102.53125,-83.34375,0.0,0.0,0.0
393,1696255124944,-1.6220703,0.08300781,0.67089844,267.9375,-13.59375,-38.28125,0.0,0.0,0.0
394,1696255124984,-0.8535156,0.89160156,0.5205078,274.21875,146.4375,49.0625,0.0,0.0,0.0
395,1696255125024,-1.2119141,-0.26367188,0.0087890625,49.125,-28.1875,53.5625,-52.0625,25.25,-228.5
396,1696255125064,-1.0400391,-0.9951172,0.16503906,90.3125,28.1875,-35.71875,0.0,0.0,0.0
397,1696255125104,-0.9140625,-0.7607422,-0.22558594,175.09375,-2.625,-39.8125,0.0,0.0,0.0
398,1696255125144,-0.9189453,-0.50097656,-0.25683594,238.8125,-4.5,-23.71875,0.0,0.0,0.0
399,1696255125184,-1.6054688,-0.2265625,-0.2626953,269.75,-42.1875,-16.875,0.0,0.0,0.0
400,1696255125224,-1.2685547,0.12402344,0.28710938,265.3125,-168.875,-42.1875,0.0,0.0,0.0
401,1696255125264,-1.2431641,0.5595703,-0.21191406,311.6875,-178.78125,-30.1875,0.0,0.0,0.0
402,1696255125304,-1.1787109,-0.015625,0.54785156,121.875,-137.15625,-46.46875,0.0,0.0,0.0
403,1696255125344,-1.1728516,-0.37109375,0.2109375,116.5,-86.5,-94.25,0.0,0.0,0.0
404,1696255125384,-1.1240234,-0.31347656,0.14941406,195.90625,-34.46875,-142.0,0.0,0.0,0.0
405,1696255125424,-0.6591797,-0.39160156,-0.00390625,242.90625,34.25,-205.53125,0.0,0.0,0.0
406,1696255125464,-0.10253906,-0.4560547,-0.1484375,216.71875,106.8125,-174.875,0.0,0.0,0.0
407,1696255125504,-0.546875,-0.42773438,-1.296875,128.40625,208.8125,-49.46875,0.0,0.0,0.0
408,1696255125544,-1.9746094,1.1054688,0.78125,430.46875,-136.71875,42.9375,-45.625,32.0,-208.5625
409,1696255125584,0.20898438,1.8007812,1.3232422,364.125,6.34375,44.84375,0.0,0.0,0.0
410,1696255125624,-0.9316406,-0.8886719,-0.14746094,-31.8125,-18.5625,26.40625,0.0,0.0,0.0
411,1696255125664,-1.6132812,-1.7138672,0.0,45.6875,34.5,-41.46875,0.0,0.0,0.0
412,1696255125704,-0.9501953,-0.82421875,-0.022460938,234.34375,9.71875,-54.03125,0.0,0.0,0.0
413,1696255125744,-1.2099609,-0.49414062,-0.16796875,324.375,-16.78125,-44.59375,0.0,0.0,0.0
414,1696255125784,-1.0175781,0.018554688,-0.043945312,309.96875,-62.9375,-60.75,0.0,0.0,0.0
415,1696255125824,-1.6259766,-0.078125,0.10058594,252.25,-148.5,-40.125,0.0,0.0,0.0
416,1696255125864,-1.1376953,0.25585938,-0.3408203,305.53125,-164.3125,-56.0,0.0,0.0,0.0
417,1696255125904,-1.0761719,-0.19335938,0.26367188,152.4375,-85.4375,-105.8125,0.0,0.0,0.0
418,1696255125944,-0.97265625,-0.107421875,0.11035156,146.84375,-16.28125,-119.40625,0.0,0.0,0.0
419,1696255125984,-0.87402344,-0.1484375,-0.0126953125,221.21875,16.34375,-124.90625,0.0,0.0,0.0
420,1696255126024,-0.7363281,-0.022460938,0.017578125,178.03125,60.4375,-125.9375,-50.375,50.4375,-223.125
421,1696255126064,-0.41503906,-0.29492188,-0.29492188,159.59375,115.40625,-99.75,0.0,0.0,0.0
422,1696255126104,-0.81640625,-0.01171875,-0.64941406,165.125,169.4375,-17.90625,0.0,0.0,0.0
423,1696255126144,-1.9746094,0.8925781,0.39160156,434.125,-114.8125,55.875,0.0,0.0,0.0
424,1696255126184,0.4794922,1.3769531,0.7001953,212.1875,76.65625,36.125,0.0,0.0,0.0
425,1696255126224,-1.4423828,-1.0410156,-0.025390625,83.21875,-52.1875,11.5,0.0,0.0,0.0
426,1696255126264,-0.95214844,-1.0380859,0.047851562,109.84375,67.5,-62.9375,0.0,0.0,0.0
427,1696255126304,-0.8701172,-0.5253906,-0.23242188,240.03125,38.28125,-24.125,0.0,0.0,0.0
428,1696255126344,-0.9736328,-0.34765625,-0.38671875,256.5,27.90625,-14.71875,0.0,0.0,0.0
429,1696255126384,-0.88671875,0.04296875,-0.35253906,226.1875,19.84375,-14.625,0.0,0.0,0.0
430,1696255126424,-1.6601562,0.10839844,-0.04296875,226.96875,-11.21875,-1.5625,0.0,0.0,0.0
431,1696255126464,-1.1982422,0.1484375,0.0625,263.34375,-126.78125,-9.78125,0.0,0.0,0.0
432,1696255126504,-1.2861328,0.7363281,-0.21875,329.4375,-155.15625,16.15625,0.0,0.0,0.0
433,1696255126544,-1.2021484,0.12402344,0.19824219,94.59375,-149.21875,-20.71875,-50.125,28.6875,-235.375
434,1696255126584,-1.1142578,0.14746094,0.076171875,10.84375,-63.21875,-40.125,0.0,0.0,0.0
435,1696255126624,-0.94433594,-0.024414062,0.04296875,83.15625,-42.34375,-69.96875,0.0,0.0,0.0
436,1696255126664,-0.7841797,0.01953125,-0.05859375,124.1875,1.90625,-84.5,0.0,0.0,0.0
437,1696255126704,-0.56640625,0.22949219,-0.059570312,104.65625,33.6875,-60.625,0.0,0.0,0.0
438,1696255126744,-0.6738281,0.17285156,0.015625,93.71875,53.03125,-37.375,0.0,0.0,0.0
439,1696255126784,-1.0488281,0.21777344,0.22460938,107.09375,64.875,-3.6875,0.0,0.0,0.0
440,1696255126824,-1.3935547,0.36328125,0.78222656,243.4375,-55.96875,-19.3125,0.0,0.0,0.0
441,1696255126864,-0.84277344,0.42773438,-1.2109375,16.875,72.03125,55.65625,0.0,0.0,0.0
442,1696255126904,-1.0664062,-0.49316406,0.43945312,14.125,-1.875,18.65625,0.0,0.0,0.0
443,1696255126944,-1.0175781,-0.059570312,-0.028320312,63.8125,50.0,-41.78125,0.0,0.0,0.0
444,1696255126984,-1.0849609,0.111328125,0.043945312,56.0625,20.15625,-13.9375,0.0,0.0,0.0
445,1696255127024,-0.9355469,0.14648438,0.14355469,10.125,-1.46875,-5.53125,-46.375,22.0625,-225.375
446,1696255127064,-0.90527344,0.22265625,0.3486328,-4.65625,-52.90625,-11.125,0.0,0.0,0.0
447,1696255127104,-0.9355469,0.3642578,0.083984375,-10.40625,-90.5,0.15625,0.0,0.0,0.0
448,1696255127144,-0.9082031,-0.036132812,0.16894531,8.53125,-67.9375,32.3125,0.0,0.0,0.0
449,1696255127184,-1.0595703,0.0107421875,0.10449219,-29.0625,-23.3125,35.75,0.0,0.0,0.0
450,1696255127224,-1.203125,-0.3701172,0.29589844,-12.78125,-15.625,18.21875,0.0,0.0,0.0
451,1696255127264,-1.4257812,-0.061523438,0.17773438,4.1875,54.375,21.78125,0.0,0.0,0.0
452,1696255127304,-1.4160156,0.10644531,-0.16601562,23.59375,84.21875,24.09375,0.0,0.0,0.0
453,1696255127344,-1.3798828,0.46484375,0.068359375,-51.09375,62.125,40.125,0.0,0.0,0.0
454,1696255127384,-1.1621094,0.5019531,0.24707031,-95.125,-3.84375,35.5,0.0,0.0,0.0
455,1696255127424,-0.5722656,0.18847656,0.26464844,-95.1875,-43.75,-16.625,0.0,0.0,0.0
456,1696255127464,-0.068359375,-0.3701172,0.41015625,-51.84375,-64.8125,-60.6875,0.0,0.0,0.0
457,1696255127504,0.203125,-0.5205078,0.3564453,21.03125,-15.0625,-113.0,0.0,0.0,0.0
458,1696255127544,-0.08105469,-0.7675781,-0.25683594,-9.84375,69.8125,-167.375,-48.3125,18.0625,-219.9375
459,1696255127584,-0.6542969,0.017578125,-0.015625,-72.28125,64.15625,-67.84375,0.0,0.0,0.0
460,1696255127624,-1.9746094,1.2089844,0.48632812,97.8125,73.65625,0.21875,0.0,0.0,0.0
461,1696255127664,-1.9414062,0.84765625,0.4638672,-74.375,-32.21875,65.34375,0.0,0.0,0.0
462,1696255127704,-1.9550781,-0.453125,-0.2705078,-69.71875,-4.75,86.09375,0.0,0.0,0.0
463,1696255127744,-1.8105469,-0.6171875,0.14355469,-127.84375,-4.40625,40.9375,0.0,0.0,0.0
464,1696255127784,-1.1660156,-0.1015625,0.10253906,-37.25,-10.8125,56.5625,0.0,0.0,0.0
465,1696255127824,-0.578125,-0.072265625,0.16015625,-10.21875,-49.5,70.65625,0.0,0.0,0.0
466,1696255127864,-0.14160156,-0.1015625,0.08691406,6.09375,-39.125,48.5,0.0,0.0,0.0
467,1696255127904,0.043945312,-0.1015625,0.18066406,16.9375,-44.75,19.03125,0.0,0.0,0.0
468,1696255127944,-0.0087890625,0.08496094,-0.033203125,-17.90625,-46.625,25.375,0.0,0.0,0.0
469,1696255127984,-0.6699219,-0.07421875,0.5029297,3.28125,-71.09375,22.9375,0.0,0.0,0.0
470,1696255128024,-1.6503906,-0.41210938,0.2685547,3.59375,-67.4375,-17.78125,-49.9375,25.6875,-221.875
471,1696255128064,-1.2890625,0.2919922,0.15820312,-22.65625,-65.0625,-51.46875,0.0,0.0,0.0
472,1696255128104,-1.6308594,0.4326172,0.6123047,-9.59375,-7.25,-5.53125,0.0,0.0,0.0
473,1696255128144,-1.6660156,-0.26464844,0.8857422,17.875,57.8125,7.53125,0.0,0.0,0.0
474,1696255128184,-1.7177734,-0.3310547,0.64160156,95.125,63.0,10.78125,0.0,0.0,0.0
475,1696255128224,-0.9326172,0.21582031,0.3330078,130.53125,46.4375,-7.46875,0.0,0.0,0.0
476,1696255128264,-0.4638672,-0.044921875,0.12597656,87.9375,49.0,-28.40625,0.0,0.0,0.0
477,1696255128304,-0.15234375,-0.078125,-0.03515625,33.84375,71.34375,-29.875,0.0,0.0,0.0
478,1696255128344,-0.23144531,-0.09472656,-0.030273438,100.625,76.96875,-4.59375,0.0,0.0,0.0
479,1696255128384,-0.5214844,0.09277344,-0.17675781,130.46875,59.3125,20.59375,0.0,0.0,0.0
480,1696255128424,-1.0107422,0.5576172,-0.15039062,99.28125,48.46875,35.25,0.0,0.0,0.0
481,1696255128464,-1.1240234,0.77734375,-0.18066406,16.09375,39.3125,36.40625,0.0,0.0,0.0
482,1696255128504,-1.5820312,0.3330078,-0.17382812,-76.25,5.625,28.84375,0.0,0.0,0.0
483,1696255128544,-1.7011719,0.62109375,-0.14941406,-124.78125,-46.4375,46.0,-50.375,26.5625,-230.0
484,1696255128584,-1.6445312,0.9033203,0.17871094,-144.125,-104.0,60.53125,0.0,0.0,0.0
485,1696255128624,-1.0859375,0.37890625,0.20703125,-211.75,-90.09375,48.375,0.0,0.0,0.0
486,1696255128664,-0.6386719,-0.091796875,0.54003906,-136.96875,-48.46875,-5.21875,0.0,0.0,0.0
487,1696255128704,-0.35546875,-0.24316406,0.4169922,-128.0,-24.21875,-33.71875,0.0,0.0,0.0
488,1696255128744,-0.10546875,-0.10546875,-0.234375,68.28125,-14.21875,-54.96875,0.0,0.0,0.0
489,1696255128784,-0.24121094,-0.44433594,0.19921875,53.1875,15.875,-95.0625,0.0,0.0,0.0
490,1696255128824,-0.28808594,-0.12597656,0.5957031,-35.90625,-18.84375,-106.34375,0.0,0.0,0.0
491,1696255128864,-0.6845703,0.61328125,0.36132812,-96.75,1.71875,-41.71875,0.0,0.0,0.0
492,1696255128904,-1.9746094,1.0224609,0.8076172,-27.5625,-122.4375,12.96875,0.0,0.0,0.0
493,1696255128944,-0.98828125,-0.7919922,0.48535156,-78.375,-69.75,-90.84375,0.0,0.0,0.0
494,1696255128984,-1.1630859,-0.1015625,1.171875,54.96875,-59.09375,-20.65625,0.0,0.0,0.0
495,1696255129024,-0.9921875,0.16015625,0.8310547,90.90625,31.25,21.15625,-45.3125,15.3125,-214.375
496,1696255129064,-1.9746094,0.41308594,1.2412109,172.34375,50.0,49.84375,0.0,0.0,0.0
497,1696255129104,-1.5087891,0.6015625,0.49316406,199.6875,18.8125,57.78125,0.0,0.0,0.0
498,1696255129144,-0.39257812,0.19238281,0.28808594,158.4375,5.9375,49.15625,0.0,0.0,0.0
499,1696255129184,0.05859375,0.17089844,0.095703125,46.375,40.40625,-13.15625,0.0,0.0,0.0
500,1696255129224,0.005859375,-0.26660156,-0.013671875,38.8125,44.5,-26.625,0.0,0.0,0.0
501,1696255129264,0.049804688,0.24316406,0.11621094,-4.53125,69.09375,10.34375,0.0,0.0,0.0
502,1696255129304,-0.42382812,0.8408203,0.21191406,17.8125,48.03125,0.46875,0.0,0.0,0.0
503,1696255129344,-0.95410156,0.68359375,0.20507812,-25.53125,17.53125,-47.21875,0.0,0.0,0.0
504,1696255129384,-1.1425781,-0.22753906,0.3486328,-33.15625,42.46875,-23.875,0.0,0.0,0.0
505,1696255129424,-1.9746094,0.33789062,0.25195312,40.8125,46.5,-16.3125,0.0,0.0,0.0
506,1696255129464,-1.7490234,-0.048828125,0.3515625,62.53125,-15.375,-52.09375,0.0,0.0,0.0
507,1696255129504,-1.5175781,0.32714844,0.08691406,42.59375,-1.78125,-39.5625,0.0,0.0,0.0
508,1696255129544,-1.4091797,-0.14257812,0.029296875,-62.53125,47.71875,-1.65625,-48.125,24.625,-220.5625
509,1696255129584,-1.1376953,-0.02734375,0.10449219,-64.0625,40.59375,4.0625,0.0,0.0,0.0
510,1696255129624,-0.72558594,0.076171875,0.3076172,-96.15625,1.09375,13.84375,0.0,0.0,0.0
511,1696255129664,-0.421875,-0.17089844,0.30371094,-100.84375,-82.75,26.53125,0.0,0.0,0.0
512,1696255129704,-0.0859375,-0.1484375,0.48046875,-107.03125,-117.25,17.4375,0.0,0.0,0.0
513,1696255129744,0.22070312,0.30371094,0.6767578,-3.1875,-44.1875,1.5,0.0,0.0,0.0
514,1696255129784,-0.31640625,-0.51953125,-0.45703125,-49.03125,29.84375,-49.9375,0.0,0.0,0.0
515,1696255129824,-1.9746094,-1.3017578,0.82128906,105.6875,-6.40625,-33.28125,0.0,0.0,0.0
516,1696255129864,-1.5029297,1.46875,-0.12792969,122.96875,-48.9375,-0.15625,0.0,0.0,0.0
517,1696255129904,-1.1201172,0.087890625,-0.10449219,-43.0,-4.625,11.8125,0.0,0.0,0.0
518,1696255129944,-1.1875,-0.16601562,0.107421875,-50.0,29.65625,62.15625,0.0,0.0,0.0
519,1696255129984,-1.3271484,-0.18554688,0.4267578,-52.34375,44.75,40.75,0.0,0.0,0.0
520,1696255130024,-1.1591797,-0.49121094,0.4189453,-33.46875,51.875,19.5625,-48.3125,23.3125,-219.9375
521,1696255130064,-0.8613281,-0.43066406,0.37109375,50.34375,39.5625,-3.25,0.0,0.0,0.0
522,1696255130104,-0.8076172,0.047851562,0.20410156,89.40625,27.65625,-0.75,0.0,0.0,0.0
523,1696255130144,-0.65527344,0.19726562,0.234375,43.5625,15.5,10.15625,0.0,0.0,0.0
524,1696255130184,-0.625,-0.053710938,0.19238281,5.59375,-19.53125,19.4375,0.0,0.0,0.0
525,1696255130224,-0.40527344,-0.15625,0.091796875,30.75,-16.125,9.5625,0.0,0.0,0.0
526,1696255130264,-0.7246094,-0.359375,0.26953125,66.8125,7.9375,5.46875,0.0,0.0,0.0
527,1696255130304,-0.87597656,-0.20410156,0.01171875,75.0625,37.84375,16.75,0.0,0.0,0.0
528,1696255130344,-1.7890625,0.76953125,0.032226562,91.15625,52.0625,26.78125,0.0,0.0,0.0
529,1696255130384,-1.7392578,0.8261719,-0.13183594,-59.96875,13.5625,23.96875,0.0,0.0,0.0
530,1696255130424,-1.9648438,0.8876953,0.049804688,-123.8125,-38.28125,30.1875,0.0,0.0,0.0
531,1696255130464,-1.2666016,0.68066406,0.3154297,-139.65625,-77.4375,31.21875,0.0,0.0,0.0
532,1696255130504,-0.515625,0.26757812,0.36523438,-125.375,-69.9375,-5.46875,0.0,0.0,0.0
533,1696255130544,-0.15625,0.06347656,0.25585938,-79.0625,-35.28125,-35.59375,-50.25,28.0625,-220.25
534,1696255130584,0.02734375,-0.1328125,0.22460938,-46.34375,1.09375,-56.90625,0.0,0.0,0.0
535,1696255130624,-0.06640625,-0.10449219,0.31835938,-63.25,38.34375,-75.46875,0.0,0.0,0.0
536,1696255130664,-0.34960938,-0.2607422,-0.017578125,-31.09375,77.15625,-87.125,0.0,0.0,0.0
537,1696255130704,-1.0195312,-0.20410156,0.36816406,-14.0625,63.53125,-71.0,0.0,0.0,0.0
538,1696255130744,-1.9746094,0.515625,0.6308594,-36.15625,12.34375,1.6875,0.0,0.0,0.0
539,1696255130784,-1.5273438,1.3125,0.64160156,-8.0625,-47.78125,20.0,0.0,0.0,0.0
540,1696255130824,-1.5175781,-0.22851562,0.41503906,-273.46875,-295.65625,98.4375,0.0,0.0,0.0
541,1696255130864,-1.4628906,0.38183594,1.0410156,82.5625,175.125,-71.1875,0.0,0.0,0.0
542,1696255130904,-0.81347656,0.11230469,0.06738281,61.25,-151.3125,63.09375,0.0,0.0,0.0
543,1696255130944,-0.33789062,-0.10449219,0.546875,167.53125,-50.71875,69.3125,0.0,0.0,0.0
544,1696255130984,-0.21191406,0.1875,0.28808594,102.21875,-27.40625,40.875,0.0,0.0,0.0
545,1696255131024,-0.63378906,0.54296875,0.28222656,73.65625,3.71875,54.0,-46.5,26.125,-214.875
546,1696255131064,-0.7939453,0.70410156,0.27246094,5.34375,29.0,67.71875,0.0,0.0,0.0
547,1696255131104,-0.81347656,0.5107422,0.30664062,-52.03125,30.40625,57.34375,0.0,0.0,0.0
548,1696255131144,-0.9267578,0.67089844,0.60253906,-80.28125,21.25,27.25,0.0,0.0,0.0
549,1696255131184,-1.0302734,0.6220703,0.5810547,-76.625,-2.75,-5.9375,0.0,0.0,0.0
550,1696255131224,-0.5917969,0.17480469,0.7050781,46.90625,-89.53125,-33.65625,0.0,0.0,0.0
551,1696255131264,-0.27148438,0.41796875,0.36523438,-60.03125,44.1875,-43.34375,0.0,0.0,0.0
552,1696255131304,-1.4248047,-0.57128906,0.82910156,46.625,6.84375,-17.25,0.0,0.0,0.0
553,1696255131344,-1.5595703,-0.14257812,0.25976562,67.0625,77.15625,-18.53125,0.0,0.0,0.0
554,1696255131384,-1.28125,0.14453125,0.30859375,36.96875,88.0,-32.375,0.0,0.0,0.0
555,1696255131424,-1.2421875,-0.23632812,0.1796875,-50.125,73.71875,-54.84375,0.0,0.0,0.0
556,1696255131464,-0.72558594,0.047851562,0.16308594,-58.3125,69.40625,-64.46875,0.0,0.0,0.0
557,1696255131504,-0.64160156,0.020507812,0.115234375,-39.9375,56.03125,-23.59375,0.0,0.0,0.0
558,1696255131544,-0.74316406,0.08300781,0.12695312,-21.25,13.375,-11.25,-49.9375,24.1875,-229.125
559,1696255131584,-0.54589844,0.15332031,0.18945312,-45.84375,-9.875,-15.65625,0.0,0.0,0.0
560,1696255131624,-0.9814453,0.052734375,0.28125,-43.90625,-55.0,-16.25,0.0,0.0,0.0
561,1696255131664,-0.7519531,-0.35839844,-0.40527344,4.625,-32.09375,-8.9375,0.0,0.0,0.0
562,1696255131704,-1.6982422,-0.3828125,0.7626953,25.5625,-12.75,2.59375,0.0,0.0,0.0
563,1696255131744,-0.89941406,0.5371094,0.13476562,44.78125,-62.8125,-9.46875,0.0,0.0,0.0
564,1696255131784,-1.5878906,-0.036132812,0.54785156,-4.78125,-9.53125,5.53125,0.0,0.0,0.0
565,1696255131824,-1.0742188,-0.24023438,0.22167969,3.53125,50.0625,9.5625,0.0,0.0,0.0
566,1696255131864,-0.9248047,-0.09667969,0.21484375,5.78125,67.25,8.40625,0.0,0.0,0.0
567,1696255131904,-0.64941406,0.0126953125,0.26367188,15.59375,61.09375,10.21875,0.0,0.0,0.0
568,1696255131944,-0.7470703,0.091796875,0.43359375,21.28125,53.34375,26.71875,0.0,0.0,0.0
569,1696255131984,-0.94921875,-0.15332031,0.35058594,25.3125,53.78125,44.53125,0.0,0.0,0.0
570,1696255132024,-0.9169922,-0.7558594,0.23144531,28.125,28.125,53.25,-50.875,24.3125,-233.75
571,1696255132064,-0.8964844,-0.5107422,-0.01171875,66.25,12.5,21.59375,0.0,0.0,0.0
572,1696255132104,-1.0302734,0.20898438,-0.06542969,118.75,-15.5,-9.125,0.0,0.0,0.0
573,1696255132144,-1.6054688,0.8173828,0.3232422,63.09375,-50.96875,-13.8125,0.0,0.0,0.0
574,1696255132184,-1.2685547,0.4013672,0.43359375,12.1875,-101.3125,-20.15625,0.0,0.0,0.0
575,1696255132224,-1.3886719,0.5292969,0.18554688,42.65625,-128.0625,-39.5625,0.0,0.0,0.0
576,1696255132264,-1.2304688,0.37304688,0.2109375,58.15625,-116.75,-67.09375,0.0,0.0,0.0
577,1696255132304,-0.84375,0.051757812,0.35351562,81.59375,-111.375,-88.59375,0.0,0.0,0.0
578,1696255132344,-0.6699219,-0.076171875,0.107421875,66.9375,-67.5625,-77.84375,0.0,0.0,0.0
579,1696255132384,-0.61328125,0.13574219,0.29003906,75.34375,-42.96875,-45.75,0.0,0.0,0.0
580,1696255132424,-0.5332031,0.15332031,0.41210938,84.75,-27.59375,-47.8125,0.0,0.0,0.0
581,1696255132464,-0.578125,0.028320312,0.39257812,72.625,-28.875,-58.3125,0.0,0.0,0.0
582,1696255132504,-0.5908203,0.048828125,0.3046875,84.8125,-15.375,-63.4375,0.0,0.0,0.0
583,1696255132544,-0.7783203,0.08496094,0.6230469,69.4375,-11.71875,-41.03125,-38.875,18.5,-205.125
584,1696255132584,-0.9140625,0.22070312,0.7421875,78.96875,-27.40625,-13.4375,0.0,0.0,0.0
585,1696255132624,-0.8251953,0.2841797,0.6669922,61.0,-37.34375,-12.78125,0.0,0.0,0.0
586,1696255132664,-1.0654297,0.12011719,0.77441406,67.65625,-21.96875,-26.5625,0.0,0.0,0.0
587,1696255132704,-1.1503906,0.15820312,0.94433594,75.28125,-38.21875,-19.1875,0.0,0.0,0.0
588,1696255132744,-0.36621094,0.49121094,0.15039062,89.875,43.03125,-5.9375,0.0,0.0,0.0
589,1696255132784,-1.1367188,-0.09082031,0.703125,97.5625,65.625,29.40625,0.0,0.0,0.0
590,1696255132824,-1.1904297,-0.32226562,0.20605469,113.8125,90.53125,-20.78125,0.0,0.0,0.0
591,1696255132864,-0.7080078,-0.125,0.107421875,138.46875,76.46875,-61.71875,0.0,0.0,0.0
592,1696255132904,-1.0214844,-0.22851562,0.049804688,131.75,70.9375,-68.625,0.0,0.0,0.0
593,1696255132944,-1.140625,-0.09472656,-0.06933594,152.5,69.21875,-81.6875,0.0,0.0,0.0
594,1696255132984,-1.0507812,0.21289062,0.0126953125,135.71875,66.40625,-65.9375,-45.3125,32.0,-208.875
595,1696255133024,-1.0976562,0.29785156,0.061523438,81.78125,50.40625,-38.53125,0.0,0.0,0.0
596,1696255133064,-1.09375,0.140625,0.01171875,23.71875,41.9375,-30.25,0.0,0.0,0.0
597,1696255133104,-1.1201172,0.064453125,-0.0087890625,-4.0,43.9375,-14.78125,0.0,0.0,0.0
598,1696255133144,-0.9873047,0.056640625,-0.037109375,4.96875,43.65625,-11.5,0.0,0.0,0.0
599,1696255133184,-1.0253906,0.05859375,-0.12402344,-12.03125,3.90625,-8.15625,0.0,0.0,0.0
600,1696255133224,-0.7734375,0.099609375,-0.26757812,73.09375,-35.53125,-20.15625,0.0,0.0,0.0
601,1696255133264,-0.6669922,0.11816406,0.040039062,7.5,-58.40625,-30.78125,0.0,0.0,0.0
602,1696255133304,-0.9736328,0.6035156,-0.18554688,-49.9375,-14.09375,-28.78125,0.0,0.0,0.0
603,1696255133344,-1.7832031,0.21777344,0.23730469,-141.0625,9.71875,6.5,0.0,0.0,0.0
604,1696255133384,-1.1210938,-0.056640625,0.18554688,-192.59375,-55.28125,22.125,0.0,0.0,0.0
605,1696255133424,-0.9042969,-0.29492188,-0.12695312,-183.4375,-25.15625,27.8125,0.0,0.0,0.0
606,1696255133464,-0.7294922,-0.14160156,0.01171875,-180.6875,-8.84375,25.90625,0.0,0.0,0.0
607,1696255133504,-0.5830078,-0.21484375,0.055664062,-131.5,7.4375,19.625,0.0,0.0,0.0
608,1696255133544,-1.0146484,-0.53027344,0.37304688,-103.53125,-0.5625,9.5625,-45.75,20.875,-216.625
609,1696255133584,-1.1914062,-0.7011719,0.22460938,-120.5,-95.9375,25.6875,0.0,0.0,0.0
610,1696255133624,-0.640625,0.24609375,0.3046875,43.6875,-55.34375,19.5625,0.0,0.0,0.0
611,1696255133664,-1.0419922,-0.33203125,0.296875,-47.09375,-56.15625,2.0,0.0,0.0,0.0
612,1696255133704,-0.9980469,0.21289062,0.31640625,-16.0,-37.21875,20.78125,0.0,0.0,0.0
613,1696255133744,-1.1289062,-0.23046875,0.3623047,-46.84375,-15.6875,37.875,0.0,0.0,0.0
614,1696255133784,-1.0029297,-0.17285156,0.3876953,0.78125,3.96875,36.71875,0.0,0.0,0.0
615,1696255133824,-0.97265625,-0.05078125,0.3486328,-5.6875,22.46875,35.25,0.0,0.0,0.0
616,1696255133864,-0.9375,-0.09277344,0.29785156,-27.0625,28.125,39.34375,0.0,0.0,0.0
617,1696255133904,-0.875,-0.21679688,0.23535156,-28.65625,38.5625,40.75,0.0,0.0,0.0
618,1696255133944,-0.921875,-0.21875,0.20605469,-19.84375,40.09375,44.21875,0.0,0.0,0.0
619,1696255133984,-0.98828125,-0.08496094,0.11328125,-12.09375,40.90625,55.34375,0.0,0.0,0.0
620,1696255134024,-1.5292969,0.2783203,-0.08496094,-19.625,29.84375,33.0,-48.0,26.5625,-217.5625
621,1696255134064,-1.2451172,0.51953125,-0.030273438,-74.53125,21.5,21.46875,0.0,0.0,0.0
622,1696255134104,-1.2197266,0.59375,0.2109375,-94.3125,-16.84375,57.15625,0.0,0.0,0.0
623,1696255134144,-0.7890625,0.3701172,0.25195312,-105.0,-22.21875,42.09375,0.0,0.0,0.0
624,1696255134184,-0.5683594,0.2109375,0.2548828,-134.46875,5.3125,14.6875,0.0,0.0,0.0
625,1696255134224,-0.515625,-0.0703125,0.3857422,-127.78125,18.875,-35.84375,0.0,0.0,0.0
626,1696255134264,-0.7373047,-0.15136719,0.33398438,-69.84375,13.5,-88.40625,0.0,0.0,0.0
627,1696255134304,-0.7734375,-0.28222656,0.34375,-21.875,11.21875,-106.78125,0.0,0.0,0.0
628,1696255134344,-0.8310547,0.0146484375,-0.034179688,-20.40625,42.1875,-83.34375,0.0,0.0,0.0
629,1696255134384,-0.9589844,0.42285156,0.37109375,13.34375,17.59375,-49.78125,0.0,0.0,0.0
630,1696255134424,-1.4355469,0.6269531,0.3857422,13.46875,0.78125,-28.90625,0.0,0.0,0.0
631,1696255134464,-1.7695312,0.5673828,0.33496094,-60.75,-33.125,16.34375,0.0,0.0,0.0
632,1696255134504,-1.4814453,0.27539062,0.45898438,-45.625,-92.03125,45.4375,0.0,0.0,0.0
633,1696255134544,-1.1005859,0.18945312,0.5449219,-23.28125,-108.875,78.46875,-42.625,17.0,-221.75
634,1696255134584,-0.6933594,0.095703125,0.3095703,45.75,-104.1875,74.0,0.0,0.0,0.0
635,1696255134624,-0.4970703,-0.34570312,0.3408203,28.0,-57.875,74.75,0.0,0.0,0.0
636,1696255134664,-0.67089844,-0.013671875,0.32226562,-6.90625,-33.5,53.4375,0.0,0.0,0.0
637,1696255134704,-0.60253906,0.21582031,0.28027344,45.28125,-13.78125,68.40625,0.0,0.0,0.0
638,1696255134744,-0.53515625,0.38378906,0.43359375,31.71875,-4.03125,84.28125,0.0,0.0,0.0
639,1696255134784,-0.62890625,0.6074219,0.54589844,-22.78125,28.25,68.03125,0.0,0.0,0.0
640,1696255134824,-0.7441406,0.51953125,0.6855469,-62.75,55.125,39.53125,0.0,0.0,0.0
641,1696255134864,-0.7832031,0.34179688,0.66503906,-40.25,72.75,2.59375,0.0,0.0,0.0
642,1696255134904,-0.7626953,0.17578125,0.4814453,-8.5625,84.53125,-31.59375,0.0,0.0,0.0
643,1696255134944,-1.1464844,0.11425781,0.30859375,-31.625,84.71875,-37.25,0.0,0.0,0.0
644,1696255134984,-1.2939453,0.40527344,0.48828125,57.21875,25.46875,-19.25,-50.25,28.0625,-222.9375
645,1696255135024,-1.2548828,0.35351562,0.5839844,72.96875,-31.5,-38.53125,0.0,0.0,0.0
646,1696255135064,-0.453125,0.25390625,-0.32617188,-21.25,-47.84375,-37.5,0.0,0.0,0.0
647,1696255135104,-0.9003906,-0.026367188,0.2529297,-64.84375,-11.59375,-25.65625,0.0,0.0,0.0
648,1696255135144,-1.4208984,-0.36132812,0.17773438,-37.875,24.46875,-13.5,0.0,0.0,0.0
649,1696255135184,-1.2177734,-0.28320312,0.10449219,-50.375,42.375,-18.8125,0.0,0.0,0.0
650,1696255135224,-1.0390625,-0.28125,0.11035156,-42.375,64.53125,-36.59375,0.0,0.0,0.0
651,1696255135264,-0.8564453,-0.076171875,0.171875,-25.96875,68.53125,-27.5625,0.0,0.0,0.0
652,1696255135304,-0.8359375,0.018554688,0.26757812,-29.5,41.5,-8.4375,0.0,0.0,0.0
653,1696255135344,-0.9316406,0.09277344,0.4482422,-43.71875,-5.25,-4.53125,0.0,0.0,0.0
654,1696255135384,-0.8125,0.068359375,0.65722656,-53.84375,-48.65625,-9.375,0.0,0.0,0.0
655,1696255135424,-0.6855469,-0.15039062,-0.12402344,77.8125,-76.59375,7.125,0.0,0.0,0.0
656,1696255135464,-0.7011719,-0.68359375,0.41210938,21.71875,-46.15625,-0.21875,0.0,0.0,0.0
657,1696255135504,-1.5507812,0.14453125,0.21484375,40.3125,-24.09375,5.65625,-48.4375,21.0625,-225.0625
658,1696255135544,-1.3974609,0.07128906,0.16113281,6.875,-12.625,8.03125,0.0,0.0,0.0
659,1696255135584,-1.1181641,-0.2529297,0.12402344,5.03125,15.875,17.25,0.0,0.0,0.0
660,1696255135624,-0.99316406,0.032226562,0.16601562,10.21875,38.8125,9.3125,0.0,0.0,0.0
661,1696255135664,-0.8564453,0.123046875,0.17871094,3.34375,30.75,12.4375,0.0,0.0,0.0
662,1696255135704,-0.75390625,0.09277344,0.3173828,7.1875,3.34375,17.90625,0.0,0.0,0.0
663,1696255135744,-0.7841797,-0.041015625,0.5019531,-27.96875,-15.5625,30.0,0.0,0.0,0.0
664,1696255135784,-0.9609375,-0.125,0.39453125,-34.125,-7.8125,50.625,0.0,0.0,0.0
665,1696255135824,-1.0253906,-0.6542969,0.171875,15.0,-0.4375,51.75,0.0,0.0,0.0
666,1696255135864,-0.93652344,-0.33398438,-0.024414062,21.78125,-14.46875,46.0,0.0,0.0,0.0
667,1696255135904,-1.1132812,-0.021484375,-0.16113281,60.78125,-8.0625,37.8125,0.0,0.0,0.0
668,1696255135944,-1.2392578,1.296875,-0.0234375,4.375,-3.53125,-40.84375,0.0,0.0,0.0
669,1696255135984,-1.7246094,0.9970703,0.7373047,-88.8125,-26.90625,11.03125,0.0,0.0,0.0
670,1696255136024,-1.1679688,0.44433594,0.6386719,-53.5625,-65.5625,37.6875,-50.125,27.9375,-223.875
671,1696255136064,-0.6669922,0.20996094,0.74902344,-38.0,-116.09375,25.5,0.0,0.0,0.0
672,1696255136104,-0.36621094,0.024414062,0.37695312,-10.46875,-104.3125,-22.59375,0.0,0.0,0.0
673,1696255136144,-0.19628906,0.3203125,-0.20898438,21.9375,8.4375,-34.25,0.0,0.0,0.0
674,1696255136184,-0.21582031,0.123046875,0.3486328,-2.84375,24.34375,-38.96875,0.0,0.0,0.0
675,1696255136224,-0.15625,0.10253906,0.49121094,-58.8125,30.8125,-48.3125,0.0,0.0,0.0
676,1696255136264,-0.15917969,0.095703125,0.41015625,-88.40625,76.0,-58.0,0.0,0.0,0.0
677,1696255136304,-1.9355469,-0.0029296875,1.0039062,-123.0,53.90625,-32.6875,0.0,0.0,0.0
678,1696255136344,-1.9746094,0.48535156,1.3613281,39.34375,-61.65625,-50.0625,0.0,0.0,0.0
679,1696255136384,-1.1005859,1.0976562,0.7792969,26.46875,-159.375,49.0,0.0,0.0,0.0
680,1696255136424,-0.6826172,0.4970703,0.39648438,-11.4375,-133.96875,78.40625,0.0,0.0,0.0
681,1696255136464,-0.5839844,-0.18457031,0.52246094,88.28125,-40.15625,67.46875,0.0,0.0,0.0
682,1696255136504,-0.73828125,-0.28222656,0.50390625,73.28125,-13.5,32.8125,-45.125,27.9375,-210.375
683,1696255136544,-0.25195312,0.021484375,0.3876953,93.125,-11.78125,-17.78125,0.0,0.0,0.0
684,1696255136584,0.09765625,0.26171875,0.23730469,70.90625,8.375,-13.15625,0.0,0.0,0.0
685,1696255136624,0.056640625,0.3388672,0.09667969,50.28125,44.9375,-11.25,0.0,0.0,0.0
686,1696255136664,-0.061523438,0.3388672,0.22363281,23.40625,65.8125,-7.21875,0.0,0.0,0.0
687,1696255136704,-0.53027344,0.609375,0.703125,-40.4375,67.6875,-12.21875,0.0,0.0,0.0
688,1696255136744,-1.9746094,1.4306641,0.9501953,-88.78125,34.0625,4.875,0.0,0.0,0.0
689,1696255136784,-1.3212891,0.21777344,0.22265625,-138.75,12.9375,-0.9375,0.0,0.0,0.0
690,1696255136824,-1.8027344,-0.828125,0.87597656,-86.625,-18.8125,-35.90625,0.0,0.0,0.0
691,1696255136864,-0.64746094,0.3515625,0.6142578,99.53125,14.59375,-43.34375,0.0,0.0,0.0
692,1696255136904,-1.1923828,-0.026367188,0.37597656,44.90625,67.375,-75.34375,0.0,0.0,0.0
693,1696255136944,-1.0644531,-0.34179688,0.3125,74.0,84.0,-46.71875,0.0,0.0,0.0
694,1696255136984,-0.80566406,0.20898438,0.2998047,51.5,71.34375,-35.4375,0.0,0.0,0.0
695,1696255137024,-0.671875,0.005859375,0.40429688,1.5625,52.84375,-31.75,-49.1875,23.4375,-222.1875
696,1696255137064,-0.69628906,-0.109375,0.33398438,-27.71875,1.03125,-12.96875,0.0,0.0,0.0
697,1696255137104,-0.67578125,0.052734375,0.30273438,-11.9375,-57.125,8.34375,0.0,0.0,0.0
698,1696255137144,-0.6796875,0.2626953,0.41503906,9.625,-33.25,21.53125,0.0,0.0,0.0
699,1696255137184,-1.2158203,-0.10253906,0.3671875,-81.375,-39.65625,15.65625,0.0,0.0,0.0
700,1696255137224,-1.3984375,-0.036132812,0.12402344,-60.625,-23.0,-36.59375,0.0,0.0,0.0
701,1696255137264,-1.1914062,-0.5283203,0.40234375,-0.375,-11.53125,-33.09375,0.0,0.0,0.0
702,1696255137304,-1.1796875,-0.24121094,0.5283203,63.6875,11.96875,7.53125,0.0,0.0,0.0
703,1696255137344,-0.9892578,0.107421875,0.47070312,30.6875,39.5625,27.25,0.0,0.0,0.0
704,1696255137384,-0.8544922,-0.068359375,0.4345703,-11.25,48.34375,5.96875,0.0,0.0,0.0
705,1696255137424,-0.9238281,-0.12792969,0.3388672,6.9375,39.84375,2.125,0.0,0.0,0.0
706,1696255137464,-0.89160156,-0.07714844,0.34765625,33.25,7.5,17.625,0.0,0.0,0.0
707,1696255137504,-0.6201172,-0.05078125,0.41503906,51.625,-31.3125,19.1875,-48.3125,23.0,-224.4375
708,1696255137544,-0.0546875,-0.087890625,0.080078125,25.3125,-2.4375,16.46875,0.0,0.0,0.0
709,1696255137584,-0.3330078,-0.20019531,0.234375,-40.0625,37.84375,15.34375,0.0,0.0,0.0
710,1696255137624,-1.9746094,-0.6826172,0.19433594,14.0625,-73.25,-6.0625,0.0,0.0,0.0
711,1696255137664,-0.39160156,1.1582031,0.68847656,43.5,-9.59375,-9.59375,0.0,0.0,0.0
712,1696255137704,-1.9746094,0.091796875,0.21484375,-45.1875,18.5625,59.25,0.0,0.0,0.0
713,1696255137744,-1.7646484,0.5966797,0.5126953,-14.71875,-31.96875,33.5,0.0,0.0,0.0
714,1696255137784,-1.203125,0.16601562,0.4501953,-53.25,-96.625,29.21875,0.0,0.0,0.0
715,1696255137824,-0.6152344,0.4951172,-0.046875,19.875,-100.78125,49.21875,0.0,0.0,0.0
716,1696255137864,-0.6123047,0.107421875,0.3466797,-63.3125,-43.46875,37.75,0.0,0.0,0.0
717,1696255137904,-0.36914062,0.107421875,0.076171875,-130.9375,-33.5,57.71875,0.0,0.0,0.0
718,1696255137944,-0.048828125,-0.107421875,0.14355469,-130.46875,-10.3125,47.65625,0.0,0.0,0.0
719,1696255137984,0.3076172,-0.1875,0.33984375,-145.53125,53.53125,17.96875,0.0,0.0,0.0
720,1696255138024,0.29101562,-0.31152344,0.65625,-132.53125,135.375,-34.6875,-46.5,27.1875,-214.875
721,1696255138064,-1.9746094,-1.0234375,2.015625,6.21875,-24.59375,-38.21875,0.0,0.0,0.0
722,1696255138104,-0.69628906,1.3105469,1.6923828,171.71875,4.625,-96.8125,0.0,0.0,0.0
723,1696255138144,-0.27246094,1.0839844,-0.3642578,305.15625,-119.25,22.4375,0.0,0.0,0.0
724,1696255138184,-0.890625,-0.21777344,1.1474609,64.8125,-63.78125,20.65625,0.0,0.0,0.0
725,1696255138224,-1.3466797,0.18066406,0.80371094,16.75,-4.75,-53.84375,0.0,0.0,0.0
726,1696255138264,-0.8310547,0.08886719,0.44433594,84.34375,56.15625,-73.875,0.0,0.0,0.0
727,1696255138304,-0.53027344,0.21972656,0.5058594,61.125,32.53125,-65.15625,0.0,0.0,0.0
728,1696255138344,-0.4716797,0.18261719,0.3125,32.8125,45.34375,-27.5625,0.0,0.0,0.0
729,1696255138384,-0.49804688,0.21777344,0.25097656,47.21875,42.125,-11.375,0.0,0.0,0.0
730,1696255138424,-0.4638672,0.10253906,0.25585938,68.65625,21.71875,-10.09375,0.0,0.0,0.0
731,1696255138464,-0.546875,0.13867188,0.37597656,83.71875,13.25,-4.59375,0.0,0.0,0.0
732,1696255138504,-0.8261719,0.421875,0.53027344,32.28125,28.3125,-13.625,-46.375,24.625,-213.9375
733,1696255138544,-1.2578125,0.6640625,0.19921875,56.0625,37.65625,-29.5625,0.0,0.0,0.0
734,1696255138584,-1.9746094,-0.4453125,0.34375,-92.84375,-75.9375,-33.96875,0.0,0.0,0.0
735,1696255138624,-0.6640625,0.6669922,0.75,71.09375,-6.53125,-45.1875,0.0,0.0,0.0
736,1696255138664,-1.1328125,0.09765625,0.2421875,-50.6875,37.90625,-9.3125,0.0,0.0,0.0
737,1696255138704,-1.1054688,-0.20214844,0.24316406,-32.1875,45.09375,-44.40625,0.0,0.0,0.0
738,1696255138744,-0.8496094,-0.26367188,0.2861328,21.28125,36.0625,-29.1875,0.0,0.0,0.0
739,1696255138784,-0.67285156,-0.07324219,0.32617188,3.53125,21.84375,16.8125,0.0,0.0,0.0
740,1696255138824,-0.95214844,-0.06542969,0.3515625,-9.0,21.375,14.8125,0.0,0.0,0.0
741,1696255138864,-0.8798828,0.030273438,0.45507812,-30.0,-12.28125,-1.3125,0.0,0.0,0.0
742,1696255138904,-0.65527344,-0.08984375,0.38085938,-26.625,-17.8125,-6.5625,0.0,0.0,0.0
743,1696255138944,-0.79296875,0.10546875,0.27441406,-9.3125,-26.3125,-1.0,0.0,0.0,0.0
744,1696255138984,-1.1796875,0.18164062,0.4267578,-11.625,-7.625,-27.5625,0.0,0.0,0.0
745,1696255139024,-0.95996094,-0.38964844,0.3671875,-20.34375,-4.8125,-9.25,-44.875,17.75,-218.125
746,1696255139064,-1.1503906,-0.18066406,0.13867188,5.53125,1.84375,11.375,0.0,0.0,0.0
747,1696255139104,-1.0507812,-0.20703125,0.109375,-13.3125,-9.53125,22.375,0.0,0.0,0.0
748,1696255139144,-1.0419922,0.06347656,0.3408203,-43.90625,-18.25,13.34375,0.0,0.0,0.0
749,1696255139184,-0.97265625,-0.03515625,0.44628906,-76.3125,-20.03125,17.0,0.0,0.0,0.0
750,1696255139224,-0.81152344,-0.17578125,0.68066406,-102.625,-13.84375,27.0,0.0,0.0,0.0
751,1696255139264,-0.8310547,-0.49023438,0.64160156,-53.0625,7.03125,27.9375,0.0,0.0,0.0
752,1696255139304,-1.3271484,-0.22265625,0.7373047,11.875,-22.28125,48.125,0.0,0.0,0.0
753,1696255139344,-1.9746094,0.42285156,0.51171875,92.25,-179.375,70.34375,0.0,0.0,0.0
754,1696255139384,-0.5371094,0.4892578,-0.0703125,97.9375,-157.34375,84.8125,0.0,0.0,0.0
755,1696255139424,-0.40429688,0.21875,0.38671875,-55.4375,-125.84375,89.9375,0.0,0.0,0.0
756,1696255139464,-0.58691406,0.18164062,0.16992188,-79.5,-78.4375,62.0,0.0,0.0,0.0
757,1696255139504,-0.25878906,-0.08300781,0.34375,-93.09375,-26.375,12.25,-41.875,28.375,-202.5625
758,1696255139544,0.17871094,-0.040039062,0.67871094,-106.34375,73.25,-61.0625,0.0,0.0,0.0
759,1696255139584,0.37695312,-0.0859375,1.0957031,-120.6875,171.4375,-98.46875,0.0,0.0,0.0
