,timestamp,accel_x,accel_y,accel_z,gyro_x,gyro_y,gyro_z,mag_x,mag_y,mag_z
0,1696258171555,0.13378906,-0.2763672,-0.17382812,-240.40625,72.15625,-117.03125,0.0,0.0,0.0
1,1696258171595,-1.9755859,-0.69433594,0.0068359375,268.84375,-164.71875,181.125,0.0,0.0,0.0
2,1696258171635,0.80371094,0.6875,-0.25097656,-175.46875,130.09375,18.9375,0.0,0.0,0.0
3,1696258171675,-1.9755859,-0.009765625,0.7832031,-61.65625,55.6875,250.5625,0.0,0.0,0.0
4,1696258171715,-0.6230469,-0.45996094,0.44140625,-88.8125,207.40625,47.8125,0.0,0.0,0.0
5,1696258171755,-1.6191406,-0.087890625,0.48046875,101.9375,209.0625,47.8125,0.0,0.0,0.0
6,1696258171795,-1.0126953,0.27148438,0.41210938,33.5625,151.8125,34.9375,0.0,0.0,0.0
7,1696258171835,-0.68847656,-0.12988281,0.2529297,-12.9375,39.5625,39.4375,0.0,0.0,0.0
8,1696258171875,-0.18164062,-0.46875,0.3076172,-39.90625,-23.96875,1.0625,0.0,0.0,0.0
9,1696258171915,-0.2734375,-0.072265625,0.26171875,30.625,-60.03125,-41.96875,-504.0,-257.0625,-89.625
10,1696258171955,-0.09863281,-0.12402344,-0.01171875,64.5625,-76.625,-42.65625,0.0,0.0,0.0
11,1696258171995,-1.9755859,0.044921875,0.7636719,132.875,-244.4375,-26.90625,0.0,0.0,0.0
12,1696258172035,-1.7617188,0.92089844,-0.38867188,49.4375,-171.65625,-112.59375,0.0,0.0,0.0
13,1696258172075,-1.9755859,0.11328125,0.32714844,10.96875,-195.90625,-72.125,0.0,0.0,0.0
14,1696258172115,-1.1601562,0.30859375,0.65625,64.03125,-215.4375,0.1875,0.0,0.0,0.0
15,1696258172155,-0.92089844,-0.37402344,0.57128906,-76.59375,-6.03125,14.1875,0.0,0.0,0.0
16,1696258172195,-0.52734375,-0.17089844,0.32226562,150.9375,0.09375,26.25,0.0,0.0,0.0
17,1696258172235,0.31152344,0.15332031,-0.045898438,167.34375,26.75,29.125,0.0,0.0,0.0
18,1696258172275,0.055664062,-0.030273438,0.15039062,3.34375,106.71875,8.0625,0.0,0.0,0.0
19,1696258172315,-0.3828125,-0.057617188,0.5097656,-129.09375,57.03125,-27.3125,0.0,0.0,0.0
20,1696258172355,-0.0625,-0.23828125,0.017578125,-151.75,2.40625,-83.71875,0.0,0.0,0.0
21,1696258172395,-1.5976562,1.8369141,0.9589844,-21.90625,84.75,25.03125,-3.875,71.3125,-209.875
22,1696258172435,-0.5859375,-0.50878906,0.53808594,-162.96875,-29.65625,-115.03125,0.0,0.0,0.0
23,1696258172475,0.015625,0.25976562,-0.5019531,-46.75,174.21875,137.59375,0.0,0.0,0.0
24,1696258172515,-1.9755859,-0.7519531,-0.064453125,31.5625,215.71875,126.4375,0.0,0.0,0.0
25,1696258172555,-0.8310547,0.14648438,0.7548828,-4.03125,174.65625,-5.09375,0.0,0.0,0.0
26,1696258172595,-1.5224609,0.13183594,0.1640625,55.53125,155.1875,39.4375,0.0,0.0,0.0
27,1696258172635,-0.6279297,-0.0009765625,0.52441406,-11.78125,54.71875,39.5,0.0,0.0,0.0
28,1696258172675,-0.16503906,-0.08984375,0.1328125,-41.09375,28.15625,10.15625,0.0,0.0,0.0
29,1696258172715,-0.29882812,-0.12597656,0.2998047,3.0,-50.15625,-19.03125,0.0,0.0,0.0
30,1696258172755,-0.19042969,-0.0078125,0.07910156,55.40625,-99.28125,-27.6875,0.0,0.0,0.0
31,1696258172795,-1.9755859,0.21191406,0.7939453,144.46875,-207.625,-17.9375,0.0,0.0,0.0
32,1696258172835,-1.8271484,0.6113281,0.053710938,-32.15625,-158.90625,-122.125,0.0,0.0,0.0
33,1696258172875,-1.9755859,-0.059570312,0.3076172,21.3125,-184.4375,-74.25,0.0,0.0,0.0
34,1696258172915,-1.234375,0.14941406,0.3466797,92.46875,-203.96875,-40.21875,161.875,-16.625,-54.5
35,1696258172955,-0.7988281,-0.005859375,0.53808594,-2.09375,-80.53125,5.75,0.0,0.0,0.0
36,1696258172995,-0.6904297,-0.083984375,0.35742188,75.9375,6.5,9.90625,0.0,0.0,0.0
37,1696258173035,-0.033203125,0.026367188,0.16992188,157.03125,-7.96875,11.0,0.0,0.0,0.0
38,1696258173075,0.18066406,0.1484375,0.11621094,49.0625,59.90625,29.75,0.0,0.0,0.0
39,1696258173115,-0.16308594,0.0078125,0.14355469,-86.78125,81.6875,5.03125,0.0,0.0,0.0
40,1696258173155,0.125,-0.2783203,0.14648438,-127.125,-4.75,-61.9375,0.0,0.0,0.0
41,1696258173195,-1.9755859,2.0205078,1.4638672,122.75,-50.5625,48.78125,0.0,0.0,0.0
42,1696258173235,-0.025390625,0.1953125,-0.06542969,-38.6875,-10.0625,-20.0625,0.0,0.0,0.0
43,1696258173275,-0.5595703,0.064453125,-0.5439453,12.5625,150.53125,148.15625,0.0,0.0,0.0
44,1696258173315,-1.9755859,-0.77441406,0.37890625,46.0625,203.21875,97.375,0.0,0.0,0.0
45,1696258173355,-1.0136719,-0.13964844,0.56933594,21.0625,191.125,-21.65625,0.0,0.0,0.0
46,1696258173395,-1.1943359,0.25195312,0.3466797,52.1875,169.09375,18.6875,43.0625,89.75,-90.375
47,1696258173435,-0.67871094,-0.0029296875,0.38476562,-3.0,92.90625,30.21875,0.0,0.0,0.0
48,1696258173475,-0.5058594,-0.5019531,0.043945312,-16.4375,2.46875,-5.21875,0.0,0.0,0.0
49,1696258173515,-0.25878906,0.18066406,0.056640625,107.34375,-59.5,-31.0,0.0,0.0,0.0
50,1696258173555,-0.21582031,0.0107421875,0.11035156,126.09375,-98.6875,-13.09375,0.0,0.0,0.0
51,1696258173595,-1.7382812,0.107421875,0.63671875,102.65625,-231.1875,-9.75,0.0,0.0,0.0
52,1696258173635,-1.7832031,0.29882812,-0.115234375,-119.3125,-233.875,-96.34375,0.0,0.0,0.0
53,1696258173675,-1.9755859,0.65234375,0.43359375,-98.6875,-23.84375,-23.84375,0.0,0.0,0.0
54,1696258173715,-1.8164062,-0.2919922,0.5957031,32.90625,-182.46875,-63.59375,0.0,0.0,0.0
55,1696258173755,-0.8027344,-0.3642578,0.5136719,48.65625,-143.34375,-44.78125,0.0,0.0,0.0
56,1696258173795,-0.17773438,-0.40625,0.10058594,143.3125,-37.28125,-18.90625,0.0,0.0,0.0
57,1696258173835,0.25683594,0.11328125,0.083984375,98.875,44.09375,-16.8125,0.0,0.0,0.0
58,1696258173875,0.21875,0.3203125,0.0625,-23.3125,108.65625,-1.625,0.0,0.0,0.0
59,1696258173915,-0.37109375,0.171875,0.20214844,-148.5625,92.0,-6.9375,28.375,100.25,-191.125
60,1696258173955,-0.18847656,-0.18945312,0.265625,-170.46875,-3.53125,-63.65625,0.0,0.0,0.0
61,1696258173995,-0.80859375,0.85839844,-0.9589844,-192.5625,186.25,-22.1875,0.0,0.0,0.0
62,1696258174035,-1.0517578,-0.6191406,0.56152344,-26.75,-160.1875,-85.625,0.0,0.0,0.0
63,1696258174075,0.58691406,0.47851562,-0.6220703,-172.78125,217.125,102.8125,0.0,0.0,0.0
64,1696258174115,-1.9755859,-0.23925781,-0.12207031,-54.9375,159.3125,201.625,0.0,0.0,0.0
65,1696258174155,-1.1972656,-0.58496094,0.7861328,-48.09375,172.375,16.4375,0.0,0.0,0.0
66,1696258174195,-1.4970703,0.032226562,0.05078125,13.53125,141.375,47.9375,0.0,0.0,0.0
67,1696258174235,-0.46484375,0.60546875,0.9160156,46.9375,51.90625,49.75,0.0,0.0,0.0
68,1696258174275,-0.2919922,-0.546875,-0.00390625,-52.96875,56.125,-5.84375,0.0,0.0,0.0
69,1696258174315,-0.29492188,-0.24414062,0.64453125,-39.5,-2.0625,-56.6875,0.0,0.0,0.0
70,1696258174355,-0.30078125,-0.03515625,-0.024414062,23.1875,-105.09375,-49.34375,0.0,0.0,0.0
71,1696258174395,-1.9755859,0.048828125,0.7470703,57.375,-268.71875,-45.09375,-240.3125,-138.4375,-258.1875
72,1696258174435,-1.9755859,0.46972656,0.059570312,-10.0,-204.9375,-137.0,0.0,0.0,0.0
73,1696258174475,-1.9755859,-0.055664062,0.39160156,-25.8125,-184.1875,-69.125,0.0,0.0,0.0
74,1696258174515,-1.2607422,0.14453125,0.515625,74.6875,-240.75,-4.25,0.0,0.0,0.0
75,1696258174555,-0.45703125,-0.38085938,0.55859375,-40.71875,-32.3125,-4.3125,0.0,0.0,0.0
76,1696258174595,-0.26757812,-0.38867188,0.546875,94.125,-7.0,21.5625,0.0,0.0,0.0
77,1696258174635,0.57421875,0.1484375,-0.06347656,122.1875,62.53125,33.28125,0.0,0.0,0.0
78,1696258174675,-0.05859375,0.0546875,-0.11425781,-32.78125,139.1875,43.46875,0.0,0.0,0.0
79,1696258174715,-0.49609375,-0.018554688,0.20898438,-131.96875,19.75,2.28125,0.0,0.0,0.0
80,1696258174755,0.020507812,-0.11328125,-0.07910156,-131.21875,39.15625,-80.90625,0.0,0.0,0.0
81,1696258174795,-1.9755859,2.0205078,2.0146484,100.15625,-107.03125,53.59375,0.0,0.0,0.0
82,1696258174835,0.091796875,0.28515625,-0.2861328,-263.75,95.1875,-96.0625,0.0,0.0,0.0
83,1696258174875,-0.62890625,-0.12207031,-0.20703125,-59.875,105.0,146.6875,0.0,0.0,0.0
84,1696258174915,-1.9755859,-0.71777344,0.13085938,-19.0,185.09375,131.3125,-10.375,29.875,-215.4375
85,1696258174955,-1.4150391,-0.4033203,0.47753906,-10.75,189.96875,78.5,0.0,0.0,0.0
86,1696258174995,-1.4931641,0.10253906,0.08105469,8.59375,156.40625,62.59375,0.0,0.0,0.0
87,1696258175035,-0.8388672,0.076171875,0.74121094,1.46875,63.4375,60.375,0.0,0.0,0.0
88,1696258175075,-0.29101562,-0.1640625,0.17382812,-0.375,22.375,5.5,0.0,0.0,0.0
89,1696258175115,-0.08691406,-0.35839844,0.2734375,-30.875,-31.90625,-55.78125,0.0,0.0,0.0
90,1696258175155,-0.17578125,-0.06347656,-0.032226562,71.46875,-94.40625,-48.03125,0.0,0.0,0.0
91,1696258175195,-1.3613281,0.14257812,0.453125,78.5625,-196.21875,-20.78125,0.0,0.0,0.0
92,1696258175235,-1.9755859,-0.025390625,-0.24121094,43.40625,-181.1875,-87.5,0.0,0.0,0.0
93,1696258175275,-1.9755859,0.4033203,0.33496094,-112.6875,-189.0,-88.0,0.0,0.0,0.0
94,1696258175315,-1.6679688,-0.18945312,0.65527344,78.96875,-188.03125,-48.1875,0.0,0.0,0.0
95,1696258175355,-0.95703125,-0.37597656,0.7558594,71.03125,-126.5,-38.90625,0.0,0.0,0.0
96,1696258175395,-0.36523438,-0.3466797,0.49121094,114.625,-1.875,-19.5,151.5,90.3125,-256.6875
97,1696258175435,0.21679688,0.16894531,0.053710938,120.53125,36.46875,-0.65625,0.0,0.0,0.0
98,1696258175475,0.28125,0.20214844,-0.041015625,20.875,63.4375,34.8125,0.0,0.0,0.0
99,1696258175515,-0.34765625,0.061523438,-0.19726562,-105.96875,95.84375,28.53125,0.0,0.0,0.0
100,1696258175555,0.0009765625,-0.115234375,0.20605469,-135.5625,29.5,-43.1875,0.0,0.0,0.0
101,1696258175595,-0.56640625,0.7685547,-0.4013672,-195.4375,156.6875,-10.25,0.0,0.0,0.0
102,1696258175635,-1.3730469,-1.1289062,0.9736328,10.5625,-139.4375,-61.625,0.0,0.0,0.0
103,1696258175675,0.5498047,0.37597656,-0.4560547,-81.5625,187.8125,117.75,0.0,0.0,0.0
104,1696258175715,-1.9755859,0.22070312,0.35253906,27.21875,149.625,195.09375,0.0,0.0,0.0
105,1696258175755,-0.8105469,-0.51660156,0.65527344,-1.90625,218.34375,-4.1875,0.0,0.0,0.0
106,1696258175795,-1.7578125,0.4248047,0.40234375,76.09375,166.21875,44.625,0.0,0.0,0.0
107,1696258175835,-0.8251953,-0.17089844,0.41210938,-51.40625,47.1875,43.34375,0.0,0.0,0.0
108,1696258175875,-0.06640625,-0.14648438,0.29101562,51.6875,5.28125,-25.8125,0.0,0.0,0.0
109,1696258175915,-0.4794922,-0.3310547,0.57910156,54.6875,-65.09375,-82.75,-333.3125,-160.875,-279.375
110,1696258175955,-0.2265625,0.10253906,0.0078125,65.71875,-113.4375,-48.03125,0.0,0.0,0.0
111,1696258175995,-1.9755859,0.018554688,-0.025390625,81.0,-323.71875,-28.375,0.0,0.0,0.0
112,1696258176035,-1.6259766,1.0800781,0.27929688,76.90625,-212.4375,-83.21875,0.0,0.0,0.0
113,1696258176075,-1.9755859,0.01171875,0.46777344,-55.84375,-242.53125,-60.21875,0.0,0.0,0.0
114,1696258176115,-1.375,0.16503906,0.63183594,69.9375,-248.28125,-66.75,0.0,0.0,0.0
115,1696258176155,-0.5605469,-0.6386719,0.30273438,30.28125,-28.46875,-42.875,0.0,0.0,0.0
116,1696258176195,-0.030273438,-0.2783203,0.28125,202.5,-27.5625,-10.65625,0.0,0.0,0.0
117,1696258176235,0.56640625,0.43945312,-0.18457031,74.46875,46.78125,14.90625,0.0,0.0,0.0
118,1696258176275,-0.017578125,0.2919922,-0.2685547,-79.40625,140.03125,32.3125,0.0,0.0,0.0
119,1696258176315,-0.46289062,0.0703125,0.265625,-130.75,31.875,-7.71875,0.0,0.0,0.0
120,1696258176355,0.25,0.328125,-0.10546875,-237.0625,30.34375,-81.875,0.0,0.0,0.0
121,1696258176395,-1.9755859,-1.9794922,-0.21875,20.75,-140.90625,199.78125,-30.125,41.4375,-206.3125
122,1696258176435,1.2080078,0.37695312,-0.7080078,-150.875,158.78125,5.15625,0.0,0.0,0.0
123,1696258176475,-1.9755859,0.39746094,0.890625,-23.625,82.71875,234.21875,0.0,0.0,0.0
124,1696258176515,-1.8115234,-0.99316406,0.57714844,-9.90625,253.9375,61.25,0.0,0.0,0.0
125,1696258176555,-1.1191406,-0.15625,0.103515625,20.3125,265.78125,66.4375,0.0,0.0,0.0
126,1696258176595,-1.6025391,0.14648438,0.28027344,82.9375,166.59375,73.8125,0.0,0.0,0.0
127,1696258176635,-0.6767578,0.06542969,0.13378906,-62.6875,10.21875,38.46875,0.0,0.0,0.0
128,1696258176675,-0.0390625,-0.3046875,0.39941406,-1.90625,-25.625,-13.59375,0.0,0.0,0.0
129,1696258176715,-0.12011719,-0.1171875,0.36816406,6.59375,-88.84375,-78.15625,0.0,0.0,0.0
130,1696258176755,-0.41015625,0.14941406,-0.11230469,93.8125,-125.21875,-47.96875,0.0,0.0,0.0
131,1696258176795,-1.9755859,-0.7578125,-0.7705078,56.625,-278.46875,5.5,0.0,0.0,0.0
132,1696258176835,-1.9755859,1.0019531,0.69921875,-51.03125,-150.0625,-94.84375,0.0,0.0,0.0
133,1696258176875,-1.9755859,-0.3154297,0.3330078,-22.59375,-221.15625,-89.53125,0.0,0.0,0.0
134,1696258176915,-0.6513672,-0.34179688,0.7373047,44.84375,-156.78125,-42.40625,152.25,95.0,-248.125
135,1696258176955,-0.15039062,-0.3984375,0.21484375,86.90625,-42.875,-20.5,0.0,0.0,0.0
136,1696258176995,0.23730469,0.28710938,-0.03515625,125.3125,34.75,-15.90625,0.0,0.0,0.0
137,1696258177035,0.6669922,0.36621094,-0.20410156,27.8125,100.1875,21.3125,0.0,0.0,0.0
138,1696258177075,-0.17285156,0.057617188,-0.33789062,-108.71875,137.21875,16.8125,0.0,0.0,0.0
139,1696258177115,-0.94433594,-0.0546875,1.1181641,-160.28125,-41.1875,-40.375,0.0,0.0,0.0
140,1696258177155,0.7783203,1.0019531,-1.1035156,-186.78125,165.84375,-77.0625,0.0,0.0,0.0
141,1696258177195,-1.9755859,-1.9794922,-1.75,82.28125,-425.625,-109.0,0.0,0.0,0.0
142,1696258177235,2.0234375,1.2314453,-0.0087890625,-57.0,85.65625,7.28125,0.0,0.0,0.0
143,1696258177275,-1.9755859,0.20214844,0.4169922,-75.25,99.5,215.21875,0.0,0.0,0.0
144,1696258177315,-0.3486328,-0.4580078,1.0644531,-31.3125,296.03125,-37.53125,0.0,0.0,0.0
145,1696258177355,-1.7958984,0.1328125,-0.026367188,61.53125,194.1875,85.71875,0.0,0.0,0.0
146,1696258177395,-0.8798828,0.42578125,0.72558594,12.625,126.0,65.4375,-48.875,158.875,197.0625
147,1696258177435,-0.62597656,-0.30371094,0.20800781,-83.125,47.75,8.4375,0.0,0.0,0.0
148,1696258177475,-0.23828125,-0.4345703,0.5830078,35.625,-39.34375,-35.875,0.0,0.0,0.0
149,1696258177515,-0.11621094,0.07128906,0.29785156,68.53125,-115.15625,-61.5625,0.0,0.0,0.0
150,1696258177555,-0.87597656,0.18261719,0.25,23.3125,-192.0625,-36.46875,0.0,0.0,0.0
151,1696258177595,-1.9755859,-0.796875,-0.16015625,91.625,-280.0,-19.09375,0.0,0.0,0.0
152,1696258177635,-1.9755859,0.3076172,0.5878906,-138.96875,-98.1875,-64.625,0.0,0.0,0.0
153,1696258177675,-1.9755859,-0.14941406,0.61816406,-4.15625,-186.25,-76.53125,0.0,0.0,0.0
154,1696258177715,-0.6455078,-0.46777344,0.4248047,97.46875,-178.09375,-34.34375,0.0,0.0,0.0
155,1696258177755,-0.11328125,-0.6269531,0.5,176.625,-42.09375,9.40625,0.0,0.0,0.0
156,1696258177795,0.20996094,-0.034179688,0.21777344,135.0625,51.84375,15.15625,0.0,0.0,0.0
157,1696258177835,0.3515625,0.33984375,-0.1328125,36.9375,75.15625,-3.65625,0.0,0.0,0.0
158,1696258177875,-0.33007812,0.29882812,-0.13183594,-156.0625,106.53125,3.0,0.0,0.0,0.0
159,1696258177915,0.03125,0.045898438,0.15820312,-171.875,55.8125,-63.59375,-22.0625,37.6875,-212.3125
160,1696258177955,0.31933594,0.9111328,-0.5371094,-221.6875,199.3125,-20.125,0.0,0.0,0.0
161,1696258177995,-1.9755859,-1.7304688,-1.2412109,-56.53125,-107.84375,-169.125,0.0,0.0,0.0
162,1696258178035,2.0234375,0.9951172,-0.20996094,-76.25,116.34375,85.71875,0.0,0.0,0.0
163,1696258178075,-1.9755859,0.5644531,1.3251953,1.65625,64.46875,293.28125,0.0,0.0,0.0
164,1696258178115,-0.36816406,-0.31152344,1.1494141,-26.4375,231.96875,-12.75,0.0,0.0,0.0
165,1696258178155,-1.8525391,-0.23535156,0.19140625,26.1875,192.78125,63.9375,0.0,0.0,0.0
166,1696258178195,-0.8310547,0.2939453,0.96875,18.6875,132.53125,60.75,0.0,0.0,0.0
167,1696258178235,-0.5654297,-0.3857422,-0.16308594,-81.65625,61.375,23.03125,0.0,0.0,0.0
168,1696258178275,-0.12207031,-0.40820312,0.4580078,-18.0,-51.75,-29.03125,0.0,0.0,0.0
169,1696258178315,-0.11328125,0.09277344,-0.03515625,158.125,-143.46875,-60.34375,0.0,0.0,0.0
170,1696258178355,-0.95214844,0.45507812,0.6464844,33.9375,-206.34375,-7.3125,0.0,0.0,0.0
171,1696258178395,-1.9755859,-0.37109375,-0.12695312,-34.71875,-217.21875,-15.53125,-117.4375,-78.875,-314.125
172,1696258178435,-1.9755859,0.45996094,0.5419922,-162.65625,-129.0,-64.875,0.0,0.0,0.0
173,1696258178475,-1.9755859,-0.47265625,0.5732422,17.6875,-230.5625,-87.75,0.0,0.0,0.0
174,1696258178515,-0.5859375,-0.6142578,0.74609375,33.5,-178.6875,-35.625,0.0,0.0,0.0
175,1696258178555,-0.26953125,-0.5722656,0.35058594,214.15625,-91.53125,-1.875,0.0,0.0,0.0
176,1696258178595,0.16894531,0.15332031,0.072265625,177.3125,6.125,5.75,0.0,0.0,0.0
177,1696258178635,0.3232422,0.24121094,-0.091796875,56.03125,39.5,22.71875,0.0,0.0,0.0
178,1696258178675,-0.08203125,0.3173828,-0.061523438,-159.625,126.59375,-4.375,0.0,0.0,0.0
179,1696258178715,0.3623047,0.076171875,0.12207031,-202.6875,35.0,-55.71875,0.0,0.0,0.0
180,1696258178755,-1.9755859,2.0205078,1.9707031,50.90625,-5.90625,46.71875,0.0,0.0,0.0
181,1696258178795,0.7734375,-0.017578125,0.23339844,-105.53125,31.5625,-52.40625,0.0,0.0,0.0
182,1696258178835,-0.24707031,-0.041992188,-0.5332031,-32.0625,258.03125,134.65625,0.0,0.0,0.0
183,1696258178875,-1.9755859,-0.095703125,0.46777344,42.46875,136.4375,170.625,0.0,0.0,0.0
184,1696258178915,-0.44433594,-0.07714844,0.59375,30.9375,240.3125,-14.3125,4.8125,40.8125,-210.8125
185,1696258178955,-1.9755859,-0.034179688,0.30273438,111.75,223.90625,83.9375,0.0,0.0,0.0
186,1696258178995,-1.0205078,-0.3515625,0.5058594,0.1875,73.6875,43.90625,0.0,0.0,0.0
187,1696258179035,-0.18457031,0.107421875,0.15234375,1.28125,-11.625,-4.1875,0.0,0.0,0.0
188,1696258179075,0.11816406,-0.42871094,0.23046875,98.625,-81.71875,-78.15625,0.0,0.0,0.0
189,1696258179115,-0.07714844,-0.25,0.08300781,76.0,-108.5,-74.875,0.0,0.0,0.0
190,1696258179155,-1.2236328,0.18652344,0.234375,58.46875,-216.34375,-46.90625,0.0,0.0,0.0
191,1696258179195,-1.9755859,-0.15332031,-0.4404297,-33.875,-213.59375,-109.21875,0.0,0.0,0.0
192,1696258179235,-1.7861328,0.3466797,0.7080078,-112.75,-229.96875,-64.875,0.0,0.0,0.0
193,1696258179275,-1.9755859,-0.22949219,0.96777344,58.78125,-198.71875,-114.84375,0.0,0.0,0.0
194,1696258179315,-0.72753906,-0.8701172,0.8857422,162.90625,19.6875,-51.75,0.0,0.0,0.0
195,1696258179355,-0.0625,-0.42578125,0.16699219,225.8125,-36.65625,-20.0,0.0,0.0,0.0
196,1696258179395,0.34765625,0.5234375,-0.040039062,105.90625,59.96875,8.375,8.125,45.1875,-217.125
197,1696258179435,0.14257812,0.49023438,-0.32226562,-61.03125,146.125,2.875,0.0,0.0,0.0
198,1696258179475,-0.42578125,0.203125,0.15917969,-198.625,78.34375,-3.65625,0.0,0.0,0.0
199,1696258179515,0.3828125,-0.0703125,0.10839844,-198.5,64.0,-59.5,0.0,0.0,0.0
200,1696258179555,-1.9755859,-0.5810547,0.9199219,86.1875,-78.96875,85.03125,0.0,0.0,0.0
201,1696258179595,1.2763672,0.21191406,0.09472656,-89.375,184.03125,-53.5,0.0,0.0,0.0
202,1696258179635,-1.5498047,0.6328125,-0.123046875,22.59375,126.96875,211.09375,0.0,0.0,0.0
203,1696258179675,-1.9755859,-0.82128906,0.40527344,52.78125,284.4375,41.03125,0.0,0.0,0.0
204,1696258179715,-1.7568359,-0.31152344,0.5214844,48.46875,199.3125,54.59375,0.0,0.0,0.0
205,1696258179755,-1.3710938,-0.6855469,0.06738281,32.21875,108.96875,68.75,0.0,0.0,0.0
206,1696258179795,-0.5810547,-0.033203125,-0.4326172,11.65625,30.59375,-12.75,0.0,0.0,0.0
207,1696258179835,-0.0029296875,-0.71777344,0.61621094,10.3125,-6.5625,-92.75,0.0,0.0,0.0
208,1696258179875,-0.23144531,-0.01171875,0.2734375,38.75,-74.9375,-88.46875,0.0,0.0,0.0
209,1696258179915,-1.7285156,0.43554688,0.5097656,51.625,-272.125,-46.125,-166.3125,-191.9375,-271.375
210,1696258179955,-0.9121094,0.08203125,-0.46972656,116.5,-249.4375,-86.53125,0.0,0.0,0.0
211,1696258179995,-1.9755859,0.11816406,0.828125,-200.25,-203.21875,-55.40625,0.0,0.0,0.0
212,1696258180035,-1.9755859,-0.29785156,0.7080078,44.25,-249.75,-56.0,0.0,0.0,0.0
213,1696258180075,-0.36132812,-0.58203125,0.68066406,197.5625,-126.125,-31.90625,0.0,0.0,0.0
214,1696258180115,0.45507812,-0.3671875,0.42285156,157.09375,16.625,-13.84375,0.0,0.0,0.0
215,1696258180155,0.5488281,0.29785156,-0.27929688,138.4375,119.90625,17.34375,0.0,0.0,0.0
216,1696258180195,0.0703125,0.2705078,-0.37597656,-76.1875,159.125,-3.40625,0.0,0.0,0.0
217,1696258180235,-0.61621094,0.3515625,0.111328125,-155.03125,41.71875,-24.8125,0.0,0.0,0.0
218,1696258180275,-0.029296875,0.34375,0.28320312,-198.375,35.0625,-86.71875,0.0,0.0,0.0
219,1696258180315,-1.9755859,-1.5615234,-0.99316406,-69.65625,-39.03125,178.96875,0.0,0.0,0.0
220,1696258180355,0.6953125,0.16699219,-0.5625,-183.71875,163.96875,15.34375,0.0,0.0,0.0
221,1696258180395,-1.9755859,0.30566406,0.7421875,-29.4375,128.8125,287.5,-20.125,25.8125,-206.625
222,1696258180435,-1.7685547,-0.8457031,0.8828125,27.40625,239.46875,7.40625,0.0,0.0,0.0
223,1696258180475,-1.5439453,-0.10839844,0.44726562,31.25,207.84375,56.65625,0.0,0.0,0.0
224,1696258180515,-0.94140625,0.115234375,0.56152344,-120.71875,-65.09375,125.875,0.0,0.0,0.0
225,1696258180555,0.044921875,-0.14160156,0.049804688,109.8125,11.3125,22.96875,0.0,0.0,0.0
226,1696258180595,-0.34570312,-0.021484375,0.068359375,1.46875,-73.09375,-78.78125,0.0,0.0,0.0
227,1696258180635,-0.12792969,-0.08105469,0.080078125,19.90625,-113.3125,-37.59375,0.0,0.0,0.0
228,1696258180675,-1.9755859,0.1875,0.9404297,68.84375,-307.09375,-14.15625,0.0,0.0,0.0
229,1696258180715,-1.3457031,0.66796875,0.12988281,45.15625,-206.8125,-101.59375,0.0,0.0,0.0
230,1696258180755,-1.9755859,0.033203125,0.47070312,-114.125,-200.96875,-44.34375,0.0,0.0,0.0
231,1696258180795,-1.2275391,0.15332031,0.671875,139.09375,-233.9375,-70.65625,0.0,0.0,0.0
232,1696258180835,-0.2578125,-0.5,0.44140625,89.21875,-76.75,-38.0625,0.0,0.0,0.0
233,1696258180875,-0.20019531,-0.3486328,0.2919922,147.6875,19.78125,1.375,0.0,0.0,0.0
234,1696258180915,0.3046875,0.17578125,-0.06640625,157.09375,88.71875,10.625,1.375,52.6875,-223.5625
235,1696258180955,-0.18457031,0.20605469,-0.09082031,-42.375,86.4375,-1.875,0.0,0.0,0.0
236,1696258180995,-0.30859375,0.39648438,0.3173828,-207.15625,51.59375,-63.9375,0.0,0.0,0.0
237,1696258181035,0.97753906,0.4140625,-0.028320312,-194.46875,-6.28125,-86.03125,0.0,0.0,0.0
238,1696258181075,-1.9755859,-1.5976562,2.0146484,-48.40625,17.40625,370.875,0.0,0.0,0.0
239,1696258181115,2.0234375,0.6455078,0.21777344,-205.9375,49.28125,-51.125,0.0,0.0,0.0
240,1696258181155,-1.9648438,0.00390625,-0.40625,-77.8125,173.25,205.59375,0.0,0.0,0.0
241,1696258181195,-1.9755859,-1.2216797,0.5292969,-10.8125,260.65625,93.9375,0.0,0.0,0.0
242,1696258181235,-1.1425781,-0.23925781,0.44726562,-3.59375,196.4375,90.09375,0.0,0.0,0.0
243,1696258181275,-1.5292969,0.043945312,0.70996094,96.3125,190.75,66.71875,0.0,0.0,0.0
244,1696258181315,-0.9189453,-0.37304688,0.18847656,-118.34375,11.8125,77.40625,0.0,0.0,0.0
245,1696258181355,0.11035156,-0.23339844,0.25,84.15625,3.8125,-12.5625,0.0,0.0,0.0
246,1696258181395,-0.32617188,-0.21289062,0.29882812,14.46875,-90.25,-67.78125,-317.8125,-221.9375,-254.125
247,1696258181435,-0.31054688,0.09765625,0.16601562,26.5,-182.96875,-47.71875,0.0,0.0,0.0
248,1696258181475,-1.9755859,0.20117188,0.8925781,93.25,-329.625,-48.875,0.0,0.0,0.0
249,1696258181515,-1.7304688,0.65722656,0.55566406,-61.34375,-197.3125,-137.25,0.0,0.0,0.0
250,1696258181555,-1.9755859,-0.0126953125,0.6455078,-3.96875,-148.21875,-54.59375,0.0,0.0,0.0
251,1696258181595,-0.5830078,0.060546875,0.8984375,77.21875,-168.875,-100.75,0.0,0.0,0.0
252,1696258181635,-0.12890625,-0.6660156,0.3857422,109.4375,7.21875,-28.53125,0.0,0.0,0.0
253,1696258181675,0.20898438,0.12988281,0.052734375,149.03125,97.90625,-2.4375,0.0,0.0,0.0
254,1696258181715,0.14550781,0.26367188,0.07714844,96.625,125.375,19.1875,0.0,0.0,0.0
255,1696258181755,-0.69628906,0.3486328,0.08300781,-110.71875,84.875,20.96875,0.0,0.0,0.0
256,1696258181795,-0.54296875,0.0546875,0.17480469,-166.5625,11.96875,-54.25,0.0,0.0,0.0
257,1696258181835,0.5527344,0.99609375,-1.2158203,-206.0,206.375,-83.59375,0.0,0.0,0.0
258,1696258181875,-1.9755859,-1.9599609,-0.62597656,30.5625,-296.84375,-67.5,0.0,0.0,0.0
259,1696258181915,1.875,0.8154297,-0.54296875,-134.09375,243.5625,86.8125,-21.625,24.3125,-214.5625
260,1696258181955,-1.9755859,0.44140625,1.3789062,-29.96875,40.59375,311.78125,0.0,0.0,0.0
261,1696258181995,-0.28320312,-0.7060547,1.0712891,-10.875,237.4375,-12.96875,0.0,0.0,0.0
262,1696258182035,-1.9755859,0.51171875,0.2939453,89.78125,213.46875,93.59375,0.0,0.0,0.0
263,1696258182075,-1.0888672,0.17480469,0.6904297,-40.40625,88.9375,45.84375,0.0,0.0,0.0
264,1696258182115,-0.29296875,-0.7910156,0.13574219,-65.875,-31.09375,11.375,0.0,0.0,0.0
265,1696258182155,-0.19140625,-0.61621094,0.54003906,82.28125,-69.0,-86.90625,0.0,0.0,0.0
266,1696258182195,-0.14355469,0.3466797,-0.20800781,154.71875,-154.40625,-65.65625,0.0,0.0,0.0
267,1696258182235,-1.9755859,0.16601562,1.1064453,139.21875,-352.34375,-5.65625,0.0,0.0,0.0
268,1696258182275,-1.3769531,0.5419922,0.68066406,104.125,-160.75,-66.5,0.0,0.0,0.0
269,1696258182315,-1.9755859,0.46191406,0.5546875,-198.96875,-35.8125,-39.78125,0.0,0.0,0.0
270,1696258182355,-1.7919922,-0.6542969,0.5214844,64.5,-218.3125,-127.96875,0.0,0.0,0.0
271,1696258182395,-0.037109375,-0.58496094,0.43066406,235.09375,-188.8125,-75.3125,-10.9375,417.3125,-112.5625
272,1696258182435,0.42089844,0.030273438,0.09082031,142.625,44.5625,-38.0,0.0,0.0,0.0
273,1696258182475,0.30078125,0.33203125,-0.41015625,55.65625,104.9375,27.65625,0.0,0.0,0.0
274,1696258182515,-0.3173828,0.5,-0.12402344,-76.96875,115.625,41.8125,0.0,0.0,0.0
275,1696258182555,-0.8730469,0.53125,0.49023438,-194.78125,29.9375,-5.40625,0.0,0.0,0.0
276,1696258182595,1.2851562,0.1875,-0.53125,-223.40625,39.3125,-92.4375,0.0,0.0,0.0
277,1696258182635,-1.9755859,-1.4472656,-0.20898438,85.3125,-143.15625,96.5625,0.0,0.0,0.0
278,1696258182675,1.7382812,0.23242188,-0.3125,-62.4375,177.21875,33.78125,0.0,0.0,0.0
279,1696258182715,-1.9755859,0.71972656,0.6308594,-11.90625,97.0,252.21875,0.0,0.0,0.0
280,1696258182755,-1.2919922,-0.7167969,1.0273438,2.0625,228.84375,-4.0625,0.0,0.0,0.0
281,1696258182795,-1.4511719,-0.06347656,0.38867188,13.25,225.53125,40.25,0.0,0.0,0.0
282,1696258182835,-1.0078125,0.30078125,0.5097656,50.90625,119.65625,56.65625,0.0,0.0,0.0
283,1696258182875,-0.41992188,-0.24121094,-0.01953125,-32.15625,62.46875,19.25,0.0,0.0,0.0
284,1696258182915,-0.18847656,-0.7363281,0.40625,19.03125,-57.0625,-32.875,-190.1875,-104.8125,-226.6875
285,1696258182955,-0.041992188,0.18847656,0.14941406,139.65625,-111.125,-40.15625,0.0,0.0,0.0
286,1696258182995,-0.76660156,0.20898438,0.07910156,26.5,-181.9375,-5.46875,0.0,0.0,0.0
287,1696258183035,-1.9755859,-0.68066406,0.044921875,-14.09375,-268.96875,-54.90625,0.0,0.0,0.0
288,1696258183075,-1.9755859,0.4501953,0.53515625,-123.46875,-116.3125,-66.8125,0.0,0.0,0.0
289,1696258183115,-1.9755859,0.14550781,0.41601562,49.75,-235.5625,-94.78125,0.0,0.0,0.0
290,1696258183155,-0.40625,-0.14160156,0.44140625,78.78125,-148.59375,-73.40625,0.0,0.0,0.0
291,1696258183195,-0.15722656,-0.43164062,0.3564453,101.0625,-7.0625,-16.09375,0.0,0.0,0.0
292,1696258183235,0.34765625,0.015625,0.099609375,118.46875,92.96875,30.53125,0.0,0.0,0.0
293,1696258183275,0.13378906,0.22753906,0.053710938,0.71875,107.5625,57.9375,0.0,0.0,0.0
294,1696258183315,-0.50097656,0.36914062,0.04296875,-122.6875,39.375,13.625,0.0,0.0,0.0
295,1696258183355,-0.7089844,-0.09765625,0.36621094,-153.9375,-38.6875,-45.34375,0.0,0.0,0.0
296,1696258183395,-0.0390625,1.1875,-0.8798828,-203.1875,174.875,-41.0625,-37.8125,27.8125,-198.9375
297,1696258183435,-1.9755859,-0.92871094,0.5449219,-13.25,-258.53125,-12.0,0.0,0.0,0.0
298,1696258183475,0.72265625,0.12890625,-0.5908203,-76.71875,189.21875,122.28125,0.0,0.0,0.0
299,1696258183515,-1.9755859,0.39941406,0.734375,-11.96875,107.0,212.53125,0.0,0.0,0.0
300,1696258183555,-0.92871094,-0.6123047,0.99121094,32.96875,219.4375,0.15625,0.0,0.0,0.0
301,1696258183595,-1.609375,0.2548828,0.40625,38.15625,203.15625,53.96875,0.0,0.0,0.0
302,1696258183635,-1.0771484,0.33496094,0.8027344,23.5625,112.5625,61.34375,0.0,0.0,0.0
303,1696258183675,-0.3046875,-0.03125,0.38867188,194.40625,38.03125,-3.71875,0.0,0.0,0.0
304,1696258183715,-0.025390625,-0.43554688,0.5175781,-22.34375,-12.5625,-49.96875,0.0,0.0,0.0
305,1696258183755,-0.036132812,-0.033203125,-0.16015625,53.78125,-95.9375,-63.09375,0.0,0.0,0.0
306,1696258183795,-1.5927734,0.25,0.49414062,81.84375,-222.5625,-47.65625,0.0,0.0,0.0
307,1696258183835,-1.8974609,0.16601562,-0.54003906,-9.78125,-229.78125,-113.25,0.0,0.0,0.0
308,1696258183875,-1.9755859,0.061523438,0.7236328,-51.40625,-109.125,-58.875,0.0,0.0,0.0
309,1696258183915,-1.7626953,-0.024414062,0.4873047,75.9375,-285.0,-54.3125,-70.1875,165.3125,39.6875
310,1696258183955,-0.46875,-0.3173828,0.61328125,92.09375,-112.09375,-31.59375,0.0,0.0,0.0
311,1696258183995,-0.234375,-0.3623047,0.33203125,132.8125,-7.96875,-39.15625,0.0,0.0,0.0
312,1696258184035,0.47460938,0.2734375,0.052734375,123.28125,61.71875,7.09375,0.0,0.0,0.0
313,1696258184075,0.28125,0.13769531,-0.15136719,-0.84375,98.90625,35.71875,0.0,0.0,0.0
314,1696258184115,-0.30859375,0.31933594,-0.0107421875,-170.0625,70.6875,10.46875,0.0,0.0,0.0
315,1696258184155,0.29003906,0.21679688,0.6142578,-161.5,11.1875,-61.6875,0.0,0.0,0.0
316,1696258184195,-1.9755859,-1.9794922,0.359375,-84.15625,41.71875,187.9375,0.0,0.0,0.0
317,1696258184235,1.6308594,0.18554688,-0.24804688,-148.6875,88.59375,0.875,0.0,0.0,0.0
318,1696258184275,-1.9306641,0.17871094,0.17382812,36.3125,131.6875,239.40625,0.0,0.0,0.0
319,1696258184315,-1.9755859,-0.6923828,0.2685547,-6.78125,247.75,40.90625,0.0,0.0,0.0
320,1696258184355,-1.4941406,-0.5761719,0.30078125,20.8125,238.0625,40.84375,0.0,0.0,0.0
321,1696258184395,-1.2041016,0.35058594,0.7998047,55.46875,144.75,31.34375,-34.625,67.375,-166.6875
322,1696258184435,-0.48339844,-0.08886719,0.32421875,-31.1875,48.96875,20.28125,0.0,0.0,0.0
323,1696258184475,0.13183594,-0.56152344,0.29003906,-2.25,41.21875,-17.625,0.0,0.0,0.0
324,1696258184515,-0.3828125,0.03515625,-0.19140625,66.15625,-103.25,-90.8125,0.0,0.0,0.0
325,1696258184555,-1.1914062,0.20996094,0.19824219,72.1875,-240.65625,-67.375,0.0,0.0,0.0
326,1696258184595,-1.9755859,0.17285156,-0.19824219,47.53125,-254.8125,-76.9375,0.0,0.0,0.0
327,1696258184635,-1.9755859,0.40527344,0.54589844,-139.53125,-113.5625,-29.15625,0.0,0.0,0.0
328,1696258184675,-1.9755859,-0.5576172,0.3466797,-82.34375,-127.84375,-156.53125,0.0,0.0,0.0
329,1696258184715,-0.5751953,-0.55859375,0.5,132.875,-125.46875,-29.9375,0.0,0.0,0.0
330,1696258184755,-0.08984375,-0.34960938,0.25195312,156.1875,-84.09375,10.46875,0.0,0.0,0.0
331,1696258184795,0.38476562,0.17382812,0.13769531,133.90625,59.96875,16.5625,0.0,0.0,0.0
332,1696258184835,0.49316406,0.3095703,-0.22265625,8.84375,140.34375,32.625,0.0,0.0,0.0
333,1696258184875,-0.6767578,0.16308594,-0.064453125,-176.46875,99.8125,23.59375,0.0,0.0,0.0
334,1696258184915,-0.44433594,-0.044921875,0.54589844,-152.03125,-13.78125,-62.46875,-29.6875,37.25,-200.75
335,1696258184955,-1.9755859,1.4023438,1.3378906,-49.1875,89.875,-19.5,0.0,0.0,0.0
336,1696258184995,0.4033203,0.24414062,0.59765625,-93.3125,-59.78125,-75.84375,0.0,0.0,0.0
337,1696258185035,-0.2919922,0.13964844,-0.6357422,-55.59375,221.9375,173.78125,0.0,0.0,0.0
338,1696258185075,-1.9755859,-0.90722656,-0.060546875,-26.625,204.71875,150.28125,0.0,0.0,0.0
339,1696258185115,-1.0380859,-0.8330078,0.49414062,5.6875,204.4375,23.40625,0.0,0.0,0.0
340,1696258185155,-1.6894531,0.61035156,0.4091797,66.84375,205.65625,52.3125,0.0,0.0,0.0
341,1696258185195,-0.9941406,0.16015625,0.8515625,-8.4375,71.0625,42.3125,0.0,0.0,0.0
342,1696258185235,-0.041015625,-0.68359375,-0.14550781,-41.09375,27.71875,15.71875,0.0,0.0,0.0
343,1696258185275,-0.4453125,-0.22851562,0.4091797,22.6875,-103.375,-67.0625,0.0,0.0,0.0
344,1696258185315,-0.17773438,0.15332031,-0.13671875,153.5625,-130.09375,-60.28125,0.0,0.0,0.0
345,1696258185355,-1.9755859,0.20410156,-0.087890625,94.0,-339.75,-2.375,0.0,0.0,0.0
346,1696258185395,-1.2529297,0.796875,0.38671875,-78.1875,-184.5625,-60.28125,-112.8125,-196.75,-297.9375
347,1696258185435,-1.9755859,-0.3671875,0.45996094,-136.28125,-97.15625,-121.75,0.0,0.0,0.0
348,1696258185475,-1.1513672,-0.028320312,0.359375,146.40625,-274.40625,-46.0,0.0,0.0,0.0
349,1696258185515,-0.25878906,-0.31933594,0.21191406,79.28125,-101.125,-39.71875,0.0,0.0,0.0
350,1696258185555,0.10253906,-0.11425781,0.35351562,142.21875,31.21875,-7.5625,0.0,0.0,0.0
351,1696258185595,0.6035156,0.32421875,-0.01171875,89.71875,106.21875,36.21875,0.0,0.0,0.0
352,1696258185635,-0.17382812,0.18359375,0.053710938,-36.75,119.09375,39.375,0.0,0.0,0.0
353,1696258185675,-0.61035156,0.2998047,0.22753906,-152.34375,15.53125,-1.8125,0.0,0.0,0.0
354,1696258185715,0.90625,-0.05078125,-0.18359375,-200.9375,29.9375,-86.78125,0.0,0.0,0.0
355,1696258185755,-1.9755859,-0.009765625,0.9472656,73.90625,18.03125,270.46875,0.0,0.0,0.0
356,1696258185795,1.1054688,-0.033203125,0.0078125,-151.6875,187.03125,-59.375,0.0,0.0,0.0
357,1696258185835,-1.171875,0.10253906,-0.08886719,28.3125,130.21875,199.1875,0.0,0.0,0.0
358,1696258185875,-1.9755859,-0.8964844,0.091796875,27.59375,264.90625,53.65625,0.0,0.0,0.0
359,1696258185915,-1.3691406,-0.11035156,0.5419922,17.5625,222.25,30.34375,-3.4375,60.8125,-193.875
360,1696258185955,-1.1845703,0.3720703,0.75683594,43.75,164.375,55.3125,0.0,0.0,0.0
361,1696258185995,-0.4951172,-0.2685547,0.22949219,-45.59375,53.4375,35.46875,0.0,0.0,0.0
362,1696258186035,-0.07519531,-0.46777344,0.296875,-43.40625,-0.53125,-17.8125,0.0,0.0,0.0
363,1696258186075,-0.07714844,0.024414062,0.45507812,183.96875,-130.34375,-102.34375,0.0,0.0,0.0
364,1696258186115,-0.7753906,-0.051757812,0.3330078,108.53125,-178.6875,-71.5625,0.0,0.0,0.0
365,1696258186155,-1.9755859,-0.59277344,-0.17480469,23.4375,-216.34375,-71.46875,0.0,0.0,0.0
366,1696258186195,-1.9755859,0.3388672,0.54589844,-137.8125,-29.15625,-159.46875,0.0,0.0,0.0
367,1696258186235,-1.7900391,0.19433594,0.11035156,207.21875,-261.40625,-96.40625,0.0,0.0,0.0
368,1696258186275,-0.52246094,0.15625,0.6894531,50.59375,-176.6875,5.15625,0.0,0.0,0.0
369,1696258186315,-0.42089844,-0.3017578,0.4248047,44.1875,-72.71875,64.78125,0.0,0.0,0.0
370,1696258186355,0.20996094,0.0087890625,-0.15332031,204.78125,21.9375,60.4375,0.0,0.0,0.0
371,1696258186395,0.3828125,0.064453125,-0.0859375,54.625,90.90625,45.625,-12.3125,37.25,-200.4375
372,1696258186435,-0.2109375,0.20605469,0.15234375,-170.09375,137.71875,-5.59375,0.0,0.0,0.0
373,1696258186475,-0.13964844,0.18261719,0.45898438,-203.96875,31.03125,-59.1875,0.0,0.0,0.0
374,1696258186515,-1.9755859,0.5546875,0.23535156,-73.5625,36.53125,84.84375,0.0,0.0,0.0
375,1696258186555,1.2470703,-0.20410156,0.17382812,-98.34375,-8.21875,6.65625,0.0,0.0,0.0
376,1696258186595,-1.3193359,0.14453125,0.40625,35.34375,161.75,214.6875,0.0,0.0,0.0
377,1696258186635,-1.9755859,-0.4189453,0.009765625,-76.0625,296.40625,67.46875,0.0,0.0,0.0
378,1696258186675,-1.2636719,-0.9902344,0.47558594,-51.75,296.65625,-6.625,0.0,0.0,0.0
379,1696258186715,-1.6240234,0.23144531,0.58691406,49.5625,157.375,39.4375,0.0,0.0,0.0
380,1696258186755,-0.7558594,0.5410156,0.4140625,9.03125,89.6875,31.875,0.0,0.0,0.0
381,1696258186795,0.0126953125,-0.859375,0.11621094,-55.125,-18.46875,20.71875,0.0,0.0,0.0
382,1696258186835,-0.13378906,0.17480469,0.4873047,285.09375,-225.5625,-90.875,0.0,0.0,0.0
383,1696258186875,-0.54296875,0.26757812,0.26953125,77.21875,-181.3125,-55.28125,0.0,0.0,0.0
384,1696258186915,-1.9755859,0.59765625,-0.09277344,93.6875,-359.34375,11.90625,-129.75,-53.8125,-301.25
385,1696258186955,-1.9755859,0.27734375,0.58203125,-184.15625,-139.125,-33.625,0.0,0.0,0.0
386,1696258186995,-1.9755859,-0.78515625,0.4326172,-85.28125,-54.0,-121.5,0.0,0.0,0.0
387,1696258187035,-0.001953125,-0.26660156,0.15917969,234.1875,-279.9375,14.78125,0.0,0.0,0.0
388,1696258187075,-0.17578125,-0.39453125,0.3486328,141.09375,-25.8125,-8.03125,0.0,0.0,0.0
389,1696258187115,0.34570312,0.2890625,-0.08203125,150.375,25.21875,-6.75,0.0,0.0,0.0
390,1696258187155,0.75097656,0.4501953,-0.26464844,39.4375,86.375,-15.78125,0.0,0.0,0.0
391,1696258187195,-0.34472656,0.07714844,0.13671875,-254.9375,157.0,-29.65625,0.0,0.0,0.0
392,1696258187235,0.24707031,-0.060546875,-0.00390625,-228.9375,-6.6875,-66.375,0.0,0.0,0.0
393,1696258187275,-1.9755859,-0.85546875,1.2314453,67.625,12.21875,193.5,0.0,0.0,0.0
394,1696258187315,1.5029297,0.14453125,0.08105469,-117.75,107.8125,-56.0625,0.0,0.0,0.0
395,1696258187355,-1.1347656,0.34960938,-0.3828125,7.625,167.1875,222.125,0.0,0.0,0.0
396,1696258187395,-1.9755859,-1.1738281,-0.16894531,18.25,325.21875,31.5,-38.875,31.6875,-203.3125
397,1696258187435,-1.5810547,-0.42773438,0.63378906,18.5625,216.875,53.65625,0.0,0.0,0.0
398,1696258187475,-1.1787109,0.47265625,1.0048828,51.5625,124.59375,24.125,0.0,0.0,0.0
399,1696258187515,-0.36132812,-0.2763672,0.056640625,-100.90625,49.09375,11.75,0.0,0.0,0.0
400,1696258187555,-0.36035156,-0.73535156,0.8251953,22.28125,-32.4375,4.96875,0.0,0.0,0.0
401,1696258187595,-0.040039062,0.5488281,0.22949219,224.1875,-172.34375,-57.40625,0.0,0.0,0.0
402,1696258187635,-0.92578125,0.44726562,0.4326172,93.6875,-245.71875,-8.65625,0.0,0.0,0.0
403,1696258187675,-1.9755859,-0.5019531,-0.45996094,95.9375,-326.59375,55.1875,0.0,0.0,0.0
404,1696258187715,-1.9755859,0.5546875,0.6640625,-125.6875,-233.125,122.34375,0.0,0.0,0.0
405,1696258187755,-1.9755859,0.16992188,0.8798828,-41.875,-249.84375,-28.59375,0.0,0.0,0.0
406,1696258187795,0.10546875,-0.30371094,0.59375,-25.03125,68.25,-56.125,0.0,0.0,0.0
407,1696258187835,0.032226562,-0.2705078,0.08203125,62.0625,-26.40625,-127.59375,0.0,0.0,0.0
408,1696258187875,0.8173828,0.203125,-0.39160156,161.6875,35.375,31.5625,0.0,0.0,0.0
409,1696258187915,0.53222656,0.29882812,-0.28125,-16.0625,131.96875,24.4375,64.5,-45.5625,4.75
410,1696258187955,-0.42773438,0.39453125,0.0390625,-196.46875,99.375,15.71875,0.0,0.0,0.0
411,1696258187995,-0.3935547,0.32617188,1.0078125,-152.03125,-11.15625,-51.9375,0.0,0.0,0.0
412,1696258188035,-1.9755859,1.6699219,2.0146484,-45.15625,27.0,36.75,0.0,0.0,0.0
413,1696258188075,0.640625,-0.18164062,0.61816406,-205.875,48.71875,-49.3125,0.0,0.0,0.0
414,1696258188115,-0.3486328,-0.06347656,-0.5527344,59.625,170.6875,161.21875,0.0,0.0,0.0
415,1696258188155,-1.9755859,-0.38964844,-0.5673828,34.3125,248.75,121.84375,0.0,0.0,0.0
416,1696258188195,-1.1054688,0.02734375,0.74121094,8.46875,221.53125,-3.34375,0.0,0.0,0.0
417,1696258188235,-1.5488281,0.5058594,0.7265625,27.8125,197.28125,34.5625,0.0,0.0,0.0
418,1696258188275,-0.6533203,0.09863281,0.09863281,-45.84375,82.28125,42.75,0.0,0.0,0.0
419,1696258188315,-0.083984375,-0.87890625,0.31933594,-29.71875,-9.125,1.0625,0.0,0.0,0.0
420,1696258188355,-0.15136719,0.20996094,1.4013672,26.59375,-165.125,-92.625,0.0,0.0,0.0
421,1696258188395,-0.5654297,0.24609375,-0.25976562,137.625,-149.8125,-63.09375,-383.0625,44.75,-384.1875
422,1696258188435,-1.9755859,-0.14648438,-0.47851562,116.8125,-300.6875,-24.46875,0.0,0.0,0.0
423,1696258188475,-1.9755859,1.0078125,0.4658203,-65.96875,-137.75,-95.9375,0.0,0.0,0.0
424,1696258188515,-1.9755859,0.20214844,0.6933594,1.53125,-135.0,-83.90625,0.0,0.0,0.0
425,1696258188555,-0.59375,-0.4189453,0.47558594,45.09375,-183.03125,-84.15625,0.0,0.0,0.0
426,1696258188595,-0.0234375,-0.36035156,0.1484375,123.03125,-72.4375,-79.03125,0.0,0.0,0.0
427,1696258188635,0.5371094,0.10449219,0.091796875,155.40625,40.4375,-9.6875,0.0,0.0,0.0
428,1696258188675,0.43164062,0.15039062,-0.053710938,70.90625,113.71875,50.25,0.0,0.0,0.0
429,1696258188715,-0.3388672,0.32714844,-0.15429688,-177.875,112.21875,25.09375,0.0,0.0,0.0
430,1696258188755,0.034179688,0.19726562,0.40820312,-175.3125,10.6875,-60.90625,0.0,0.0,0.0
431,1696258188795,-1.9755859,-0.8574219,0.4892578,-92.34375,83.9375,154.4375,0.0,0.0,0.0
432,1696258188835,1.7734375,-0.5732422,-0.27929688,-167.84375,45.375,-12.0625,0.0,0.0,0.0
433,1696258188875,-1.3408203,0.15332031,0.038085938,24.15625,154.1875,232.375,0.0,0.0,0.0
434,1696258188915,-1.9755859,-0.60253906,0.41601562,10.1875,248.3125,77.40625,-13.8125,47.125,-209.3125
435,1696258188955,-1.4570312,-0.67871094,0.40234375,-13.3125,229.09375,43.46875,0.0,0.0,0.0
436,1696258188995,-1.5107422,0.67285156,0.6171875,105.15625,109.09375,41.03125,0.0,0.0,0.0
437,1696258189035,-0.66796875,0.056640625,0.44335938,-62.1875,62.75,23.8125,0.0,0.0,0.0
438,1696258189075,0.095703125,-0.7734375,0.24414062,-32.21875,-17.75,7.90625,0.0,0.0,0.0
439,1696258189115,-0.3984375,-0.41992188,-0.32128906,62.75,-118.6875,-84.28125,0.0,0.0,0.0
440,1696258189155,-0.38671875,0.24902344,0.2265625,137.9375,-179.84375,-70.40625,0.0,0.0,0.0
441,1696258189195,-1.9755859,0.47460938,0.5957031,152.09375,-443.71875,11.875,0.0,0.0,0.0
442,1696258189235,-1.9755859,0.64746094,0.6328125,50.28125,-256.15625,83.5625,0.0,0.0,0.0
443,1696258189275,-1.9755859,0.4091797,1.0390625,-164.0625,-170.21875,36.34375,0.0,0.0,0.0
444,1696258189315,-1.4365234,-0.29589844,0.625,1.71875,-108.1875,-85.0,0.0,0.0,0.0
445,1696258189355,0.19921875,-0.34277344,0.40429688,12.75,57.75,-115.46875,0.0,0.0,0.0
446,1696258189395,0.7763672,-0.0146484375,-0.020507812,111.1875,44.8125,-5.46875,-74.5625,-101.1875,-225.0625
447,1696258189435,0.37695312,0.31835938,-0.068359375,-13.1875,161.03125,44.9375,0.0,0.0,0.0
448,1696258189475,-0.8564453,0.40722656,0.41308594,-192.4375,66.375,-5.71875,0.0,0.0,0.0
449,1696258189515,0.75,0.022460938,-0.91015625,-168.28125,108.65625,-81.78125,0.0,0.0,0.0
450,1696258189555,-1.9755859,1.5703125,1.8125,260.3125,-181.75,197.40625,0.0,0.0,0.0
451,1696258189595,0.20800781,0.36035156,0.5957031,-324.90625,208.21875,-67.0625,0.0,0.0,0.0
452,1696258189635,-1.9414062,0.03515625,0.36816406,49.4375,22.125,199.0,0.0,0.0,0.0
453,1696258189675,-1.8164062,-1.0830078,0.4501953,67.8125,221.875,43.21875,0.0,0.0,0.0
454,1696258189715,-1.4785156,-0.24707031,0.51464844,100.71875,249.90625,51.65625,0.0,0.0,0.0
455,1696258189755,-1.4326172,0.71875,0.5888672,49.9375,189.03125,38.40625,0.0,0.0,0.0
456,1696258189795,-0.7285156,0.18847656,0.21191406,-51.03125,62.40625,26.375,0.0,0.0,0.0
457,1696258189835,0.16210938,-0.8466797,0.4453125,-42.84375,-29.46875,-16.9375,0.0,0.0,0.0
458,1696258189875,-0.36035156,0.16601562,-0.25195312,78.71875,-137.0,-78.78125,0.0,0.0,0.0
459,1696258189915,-0.7207031,0.11816406,0.049804688,100.03125,-217.875,-42.875,-77.875,47.125,-226.5625
460,1696258189955,-1.9755859,-1.0048828,-0.87109375,12.09375,-295.28125,-33.4375,0.0,0.0,0.0
461,1696258189995,-1.9658203,0.75097656,0.7373047,8.34375,-300.40625,-73.03125,0.0,0.0,0.0
462,1696258190035,-1.9755859,0.3232422,0.56347656,-10.375,-219.9375,-66.3125,0.0,0.0,0.0
463,1696258190075,-0.14550781,-0.22460938,0.5800781,87.40625,-137.4375,-79.4375,0.0,0.0,0.0
464,1696258190115,-0.5751953,-0.7832031,-0.23046875,57.125,65.75,-53.6875,0.0,0.0,0.0
465,1696258190155,0.88378906,0.44628906,-0.47265625,147.625,14.125,-17.8125,0.0,0.0,0.0
466,1696258190195,0.2421875,0.43847656,0.2548828,21.84375,124.71875,40.0625,0.0,0.0,0.0
467,1696258190235,-0.8095703,0.13476562,0.10546875,-153.6875,129.21875,9.125,0.0,0.0,0.0
468,1696258190275,0.6826172,0.08886719,-0.19921875,-216.1875,36.09375,-71.625,0.0,0.0,0.0
469,1696258190315,-1.9755859,2.0205078,1.2900391,69.9375,136.5625,170.5625,0.0,0.0,0.0
470,1696258190355,1.2304688,0.2705078,0.48828125,-151.875,103.90625,-73.78125,0.0,0.0,0.0
471,1696258190395,-1.4316406,0.034179688,-0.65722656,-82.28125,199.78125,236.40625,32.25,47.5625,-261.9375
472,1696258190435,-1.9755859,-0.37597656,-0.26367188,95.6875,254.96875,124.84375,0.0,0.0,0.0
473,1696258190475,-1.4150391,-0.26757812,0.6152344,-5.875,183.375,44.4375,0.0,0.0,0.0
474,1696258190515,-1.2724609,0.58984375,0.91503906,16.09375,147.90625,60.1875,0.0,0.0,0.0
475,1696258190555,-0.75,-0.5292969,-0.484375,-64.21875,52.8125,44.875,0.0,0.0,0.0
476,1696258190595,-0.0029296875,-0.80859375,0.3330078,-49.1875,64.40625,-2.46875,0.0,0.0,0.0
477,1696258190635,-0.33691406,-0.08984375,-0.28710938,38.3125,-95.6875,-89.21875,0.0,0.0,0.0
478,1696258190675,-0.7783203,0.06640625,0.015625,111.03125,-188.15625,-63.6875,0.0,0.0,0.0
479,1696258190715,-1.9755859,-0.3623047,-0.9013672,159.96875,-354.21875,-69.75,0.0,0.0,0.0
480,1696258190755,-1.4804688,0.5107422,0.6611328,-23.4375,-277.125,-80.1875,0.0,0.0,0.0
481,1696258190795,-1.9755859,0.35839844,0.69628906,-78.125,-189.375,-44.0625,0.0,0.0,0.0
482,1696258190835,-0.29882812,0.30859375,0.2626953,-143.0,126.4375,-112.03125,0.0,0.0,0.0
483,1696258190875,-0.19726562,-0.29785156,0.38867188,146.0,-32.15625,-20.375,0.0,0.0,0.0
484,1696258190915,0.4404297,-0.107421875,-0.09375,199.65625,-64.75,71.5625,80.25,81.3125,-254.0
485,1696258190955,0.6455078,0.3076172,-0.018554688,108.9375,90.78125,51.53125,0.0,0.0,0.0
486,1696258190995,-0.6904297,0.27734375,-0.068359375,-150.53125,150.71875,47.625,0.0,0.0,0.0
487,1696258191035,-0.83691406,-0.053710938,0.6015625,-172.1875,-30.1875,-37.8125,0.0,0.0,0.0
488,1696258191075,-1.9755859,2.0205078,2.0146484,-77.75,73.1875,6.71875,0.0,0.0,0.0
489,1696258191115,0.88378906,-0.22460938,-0.020507812,-131.84375,-78.34375,-27.1875,0.0,0.0,0.0
490,1696258191155,-0.58691406,0.32128906,-0.36328125,5.375,224.25,174.9375,0.0,0.0,0.0
491,1696258191195,-1.9755859,-0.33203125,0.14941406,-10.0625,264.125,120.0,0.0,0.0,0.0
492,1696258191235,-0.9511719,-0.5527344,0.5126953,-4.03125,257.46875,-3.9375,0.0,0.0,0.0
493,1696258191275,-1.6796875,0.40527344,0.4453125,46.125,204.25,47.8125,0.0,0.0,0.0
494,1696258191315,-0.8486328,0.54785156,0.6972656,17.5625,112.9375,40.4375,0.0,0.0,0.0
495,1696258191355,0.015625,-0.66308594,0.12207031,-34.71875,24.5,23.40625,0.0,0.0,0.0
496,1696258191395,-0.4814453,-0.14550781,-0.0087890625,36.4375,-107.9375,-83.90625,-140.6875,7.0625,-239.4375
497,1696258191435,-0.2607422,0.049804688,-0.11035156,113.28125,-179.0,-50.625,0.0,0.0,0.0
498,1696258191475,-1.9755859,-0.12988281,0.7080078,112.1875,-416.78125,-30.3125,0.0,0.0,0.0
499,1696258191515,-1.9755859,0.5419922,1.890625,134.40625,-276.46875,-14.9375,0.0,0.0,0.0
500,1696258191555,-1.9755859,0.67089844,0.3251953,-161.875,-44.34375,-79.03125,0.0,0.0,0.0
501,1696258191595,-1.3085938,-0.48828125,0.625,181.28125,-162.09375,-66.625,0.0,0.0,0.0
502,1696258191635,0.7363281,-0.6894531,0.057617188,167.0,-227.6875,-20.3125,0.0,0.0,0.0
503,1696258191675,0.40820312,0.08300781,0.09667969,141.96875,69.78125,-8.21875,0.0,0.0,0.0
504,1696258191715,0.421875,0.27148438,-0.3935547,70.375,102.1875,40.375,0.0,0.0,0.0
505,1696258191755,-0.4736328,0.21777344,-0.49121094,-105.34375,145.65625,48.84375,0.0,0.0,0.0
506,1696258191795,-0.83984375,0.36035156,0.83691406,-203.25,51.40625,-6.34375,0.0,0.0,0.0
507,1696258191835,-0.22558594,0.15136719,-1.0244141,-282.0,-37.46875,-101.90625,0.0,0.0,0.0
508,1696258191875,-0.765625,0.28320312,0.2783203,52.84375,-53.6875,41.71875,0.0,0.0,0.0
509,1696258191915,-0.4169922,0.19726562,-0.453125,-40.03125,239.21875,83.5,-26.6875,32.4375,-193.6875
510,1696258191955,-1.9755859,0.109375,0.33691406,31.0625,180.625,203.4375,0.0,0.0,0.0
511,1696258191995,-1.5546875,-0.6123047,0.6123047,21.53125,235.90625,-5.65625,0.0,0.0,0.0
512,1696258192035,-1.5751953,0.23144531,0.5673828,91.0625,236.53125,46.84375,0.0,0.0,0.0
513,1696258192075,1.6757812,1.4248047,2.0146484,144.34375,-170.625,105.4375,0.0,0.0,0.0
514,1696258192115,-0.013671875,-0.17382812,-0.7167969,20.3125,93.46875,-15.71875,0.0,0.0,0.0
515,1696258192155,-0.72265625,-0.6376953,0.9248047,3.90625,-78.90625,-78.09375,0.0,0.0,0.0
516,1696258192195,-0.022460938,0.01953125,0.03125,100.21875,-128.9375,-52.34375,0.0,0.0,0.0
517,1696258192235,-1.5332031,0.17578125,0.4248047,63.15625,-278.46875,-11.625,0.0,0.0,0.0
518,1696258192275,-1.9404297,-0.19238281,-0.44140625,-19.09375,-236.1875,-81.84375,0.0,0.0,0.0
519,1696258192315,-1.9755859,0.4375,0.7402344,-85.875,-237.15625,-46.6875,0.0,0.0,0.0
520,1696258192355,-1.6416016,0.08691406,0.28320312,42.65625,-240.03125,-51.5,0.0,0.0,0.0
521,1696258192395,-0.3154297,-0.6464844,0.75,-140.9375,79.4375,-45.15625,99.3125,259.375,-193.125
522,1696258192435,-0.11230469,-0.50878906,0.6328125,187.875,7.90625,-2.0625,0.0,0.0,0.0
523,1696258192475,0.45703125,0.17578125,-0.22363281,251.21875,-188.875,22.125,0.0,0.0,0.0
524,1696258192515,-0.0390625,0.3046875,-0.3955078,-52.375,179.90625,55.3125,0.0,0.0,0.0
525,1696258192555,-0.6767578,0.25097656,0.3310547,-183.21875,68.3125,-2.375,0.0,0.0,0.0
526,1696258192595,0.5527344,-0.26367188,0.34179688,-163.40625,-44.84375,-87.4375,0.0,0.0,0.0
527,1696258192635,-1.9755859,0.19433594,2.0146484,125.90625,12.21875,129.59375,0.0,0.0,0.0
528,1696258192675,1.4580078,0.45996094,0.24414062,-145.03125,151.09375,-92.6875,0.0,0.0,0.0
529,1696258192715,-0.76660156,0.46289062,-0.42382812,-29.96875,154.6875,194.125,0.0,0.0,0.0
530,1696258192755,-1.9755859,-0.9316406,-0.31640625,37.59375,290.71875,62.03125,0.0,0.0,0.0
531,1696258192795,-1.5009766,-0.63671875,0.51660156,-1.65625,217.96875,52.625,0.0,0.0,0.0
532,1696258192835,-1.0585938,0.9482422,0.7753906,42.71875,138.5,64.46875,0.0,0.0,0.0
533,1696258192875,-0.65625,-0.06347656,0.2763672,179.125,-145.71875,60.375,0.0,0.0,0.0
534,1696258192915,0.07519531,-0.9238281,0.19335938,-116.75,37.0,-15.25,-282.0,-8.0625,-361.125
535,1696258192955,-0.23828125,-0.061523438,0.05078125,25.03125,-74.25,-75.25,0.0,0.0,0.0
536,1696258192995,-0.46875,0.0703125,-0.22460938,85.5625,-158.0625,-52.03125,0.0,0.0,0.0
537,1696258193035,-1.9755859,-0.08203125,-0.6875,79.84375,-289.28125,-46.375,0.0,0.0,0.0
538,1696258193075,-1.9755859,0.9482422,0.38476562,-79.65625,-211.03125,-111.96875,0.0,0.0,0.0
539,1696258193115,-1.9755859,0.26171875,0.421875,-112.125,-224.59375,-69.1875,0.0,0.0,0.0
540,1696258193155,-0.7480469,-0.14160156,0.54296875,238.46875,-292.53125,-31.96875,0.0,0.0,0.0
541,1696258193195,-0.125,-0.34570312,0.49804688,92.09375,-48.625,-16.15625,0.0,0.0,0.0
542,1696258193235,0.095703125,-0.16015625,0.27148438,122.5625,29.4375,30.28125,0.0,0.0,0.0
543,1696258193275,0.46972656,0.26367188,-0.11230469,86.1875,60.3125,37.5625,0.0,0.0,0.0
544,1696258193315,-0.4404297,0.48535156,-0.29785156,-123.96875,128.25,42.3125,0.0,0.0,0.0
545,1696258193355,-0.5361328,-0.20507812,0.69921875,-119.28125,-13.59375,-29.53125,0.0,0.0,0.0
546,1696258193395,-1.9755859,2.0205078,2.0146484,75.8125,-114.46875,51.46875,-9.75,72.1875,-208.375
547,1696258193435,1.0048828,-0.43164062,0.0,-88.5,24.3125,-41.0,0.0,0.0,0.0
548,1696258193475,-0.81933594,0.16796875,0.021484375,64.5,171.78125,138.5,0.0,0.0,0.0
549,1696258193515,-1.9755859,-0.35839844,-0.10839844,36.3125,231.15625,89.3125,0.0,0.0,0.0
550,1696258193555,-0.8457031,0.015625,0.48632812,36.3125,218.84375,-8.15625,0.0,0.0,0.0
551,1696258193595,-1.6552734,0.38964844,0.5361328,78.71875,235.96875,62.28125,0.0,0.0,0.0
552,1696258193635,-0.9140625,0.09375,0.69628906,27.71875,100.1875,35.78125,0.0,0.0,0.0
553,1696258193675,-0.21679688,-0.5605469,-0.25097656,-37.71875,20.90625,-9.125,0.0,0.0,0.0
554,1696258193715,-0.29003906,-0.3544922,1.0166016,47.65625,-59.625,-100.25,0.0,0.0,0.0
555,1696258193755,-0.15625,-0.07519531,0.034179688,140.0625,-115.28125,-84.6875,0.0,0.0,0.0
556,1696258193795,-1.9755859,0.35253906,1.0595703,81.96875,-288.84375,-48.125,0.0,0.0,0.0
557,1696258193835,-1.6601562,1.1435547,0.3203125,-47.5625,-164.28125,-129.625,0.0,0.0,0.0
558,1696258193875,-1.5107422,-0.07714844,0.265625,-133.3125,-251.3125,-108.5,0.0,0.0,0.0
559,1696258193915,-1.4814453,-0.88183594,0.8457031,97.78125,-140.78125,-103.75,15.0,438.9375,-158.0
560,1696258193955,-0.23632812,-0.7109375,0.3623047,279.34375,-252.78125,25.96875,0.0,0.0,0.0
561,1696258193995,-0.07128906,-0.3857422,0.043945312,218.375,4.40625,4.40625,0.0,0.0,0.0
562,1696258194035,0.62109375,0.5654297,-0.1328125,58.53125,28.46875,23.9375,0.0,0.0,0.0
563,1696258194075,-0.3095703,0.3876953,-0.3330078,-138.375,179.21875,37.4375,0.0,0.0,0.0
564,1696258194115,-0.45898438,0.17578125,0.41796875,-175.65625,77.84375,-24.75,0.0,0.0,0.0
565,1696258194155,0.9238281,0.89941406,0.57714844,-122.4375,101.875,-26.40625,0.0,0.0,0.0
566,1696258194195,-1.9755859,-1.5556641,0.0078125,48.21875,-129.0625,-39.78125,0.0,0.0,0.0
567,1696258194235,1.4951172,0.20117188,-0.14648438,-19.53125,244.90625,-3.21875,0.0,0.0,0.0
568,1696258194275,-1.9755859,0.89453125,-0.6152344,33.375,148.875,148.09375,0.0,0.0,0.0
569,1696258194315,-1.3808594,-0.17675781,0.8330078,-18.875,220.34375,-11.625,0.0,0.0,0.0
570,1696258194355,-1.4443359,0.55078125,0.28320312,45.84375,150.84375,35.0,0.0,0.0,0.0
571,1696258194395,-0.6064453,-0.040039062,0.015625,-46.21875,-16.65625,38.28125,-67.1875,7.25,-236.875
572,1696258194435,-0.13574219,-0.18164062,0.57714844,114.8125,-103.9375,-86.03125,0.0,0.0,0.0
573,1696258194475,-0.0087890625,-0.09667969,0.1015625,60.90625,-87.0625,-67.90625,0.0,0.0,0.0
574,1696258194515,-0.43652344,0.33691406,0.018554688,40.15625,-141.09375,-33.6875,0.0,0.0,0.0
575,1696258194555,0.48339844,2.0205078,-1.9853516,85.5625,-359.53125,106.03125,0.0,0.0,0.0
576,1696258194595,-1.9755859,1.2949219,1.3535156,-160.71875,-140.46875,-20.71875,0.0,0.0,0.0
577,1696258194635,-1.9755859,0.50683594,0.7832031,-191.46875,-125.78125,-71.75,0.0,0.0,0.0
578,1696258194675,-0.75390625,-0.7998047,0.35058594,53.875,-64.4375,-50.15625,0.0,0.0,0.0
579,1696258194715,0.6171875,-0.45703125,0.31933594,149.96875,-122.0625,23.34375,0.0,0.0,0.0
580,1696258194755,0.2841797,0.26757812,-0.1875,127.5,33.71875,36.40625,0.0,0.0,0.0
581,1696258194795,0.4169922,0.37402344,0.033203125,16.40625,96.28125,6.3125,0.0,0.0,0.0
582,1696258194835,-0.55859375,0.34375,0.19628906,-249.34375,135.03125,-32.21875,0.0,0.0,0.0
583,1696258194875,0.25585938,0.12695312,-0.19042969,-239.5625,95.84375,-81.46875,0.0,0.0,0.0
584,1696258194915,-1.9755859,2.0205078,1.8251953,17.15625,18.28125,13.4375,-33.75,30.0625,-189.8125
585,1696258194955,0.6035156,0.9560547,1.0527344,-229.4375,94.875,-96.125,0.0,0.0,0.0
586,1696258194995,0.5957031,0.41308594,-0.6191406,-144.34375,281.6875,164.25,0.0,0.0,0.0
587,1696258195035,-1.9755859,-0.091796875,-0.3876953,-32.78125,203.21875,188.96875,0.0,0.0,0.0
588,1696258195075,-0.93652344,-0.40429688,0.98046875,-40.84375,178.4375,24.1875,0.0,0.0,0.0
589,1696258195115,-1.8212891,0.49414062,0.546875,12.6875,216.21875,87.1875,0.0,0.0,0.0
590,1696258195155,-0.5126953,1.4560547,1.0488281,362.125,-225.25,112.03125,0.0,0.0,0.0
591,1696258195195,-0.24121094,-0.21191406,0.0625,-47.84375,1.65625,23.6875,0.0,0.0,0.0
592,1696258195235,-0.26953125,-0.4501953,0.23535156,-10.3125,-94.53125,-85.0,0.0,0.0,0.0
593,1696258195275,-0.24121094,-0.11425781,-0.051757812,62.375,-171.90625,-40.5,0.0,0.0,0.0
594,1696258195315,-1.9755859,0.28027344,0.23144531,42.0,-317.53125,-32.40625,0.0,0.0,0.0
595,1696258195355,-0.7128906,0.41503906,-0.07714844,-2.09375,-204.25,-36.34375,0.0,0.0,0.0
596,1696258195395,-1.9755859,-0.11425781,0.5107422,-235.34375,-25.1875,-87.5625,-282.5625,-211.625,-296.75
597,1696258195435,-1.1103516,0.13085938,0.66308594,173.28125,-323.46875,-56.875,0.0,0.0,0.0
598,1696258195475,0.13574219,-0.5410156,0.23144531,85.75,-57.53125,-60.90625,0.0,0.0,0.0
599,1696258195515,0.19042969,-0.04296875,0.20800781,110.71875,39.8125,-10.0625,0.0,0.0,0.0
600,1696258195555,0.4326172,0.115234375,-0.1640625,110.21875,100.5,28.03125,0.0,0.0,0.0
601,1696258195595,-0.29492188,0.3330078,-0.125,-106.875,138.21875,9.96875,0.0,0.0,0.0
602,1696258195635,-0.7207031,0.5234375,0.4814453,-237.8125,25.09375,-40.8125,0.0,0.0,0.0
603,1696258195675,0.8388672,0.5234375,-0.47265625,-188.65625,107.3125,-75.0,0.0,0.0,0.0
604,1696258195715,-1.9755859,-1.9794922,-0.40039062,-164.375,-327.6875,53.375,0.0,0.0,0.0
605,1696258195755,1.2138672,-0.07421875,0.75,-22.03125,227.25,56.90625,0.0,0.0,0.0
606,1696258195795,-1.9755859,0.6171875,0.3564453,-32.46875,148.75,216.5,0.0,0.0,0.0
607,1696258195835,-1.4414062,-0.17675781,0.734375,60.59375,222.6875,44.9375,0.0,0.0,0.0
608,1696258195875,-1.7373047,-0.3388672,0.32421875,17.5,234.40625,50.8125,-31.9375,59.75,-141.375
609,1696258195915,-1.0371094,0.49609375,0.63183594,52.375,118.84375,63.8125,0.0,0.0,0.0
610,1696258195955,-0.515625,-0.19921875,0.076171875,-19.15625,79.4375,34.75,0.0,0.0,0.0
611,1696258195995,-0.20507812,-0.36132812,0.6621094,26.4375,-56.9375,-13.34375,0.0,0.0,0.0
612,1696258196035,0.005859375,0.18261719,0.02734375,51.15625,-120.53125,-74.875,0.0,0.0,0.0
613,1696258196075,-0.4765625,0.20019531,-0.04296875,69.9375,-205.78125,-26.84375,0.0,0.0,0.0
614,1696258196115,-1.9755859,-0.25683594,-1.0820312,24.71875,-342.375,13.3125,0.0,0.0,0.0
615,1696258196155,-1.6582031,0.9794922,0.36621094,39.78125,-267.5625,206.75,0.0,0.0,0.0
616,1696258196195,-1.9755859,0.37304688,1.2529297,-184.34375,-243.4375,-40.25,0.0,0.0,0.0
617,1696258196235,0.18847656,-0.1640625,0.5830078,-6.15625,44.46875,-57.71875,0.0,0.0,0.0
618,1696258196275,-0.6220703,-0.46679688,0.43652344,46.4375,19.625,-107.28125,0.0,0.0,0.0
619,1696258196315,0.43945312,-0.13671875,0.040039062,108.03125,-6.09375,-21.46875,0.0,0.0,0.0
620,1696258196355,0.27148438,0.06347656,-0.16210938,134.625,88.9375,35.25,0.0,0.0,0.0
621,1696258196395,-0.18945312,0.4921875,0.09375,-125.6875,128.125,16.3125,19.0625,-47.9375,-13.6875
622,1696258196435,-0.58984375,0.13867188,0.6347656,-171.875,12.03125,-61.1875,0.0,0.0,0.0
623,1696258196475,-0.28027344,1.1865234,-0.7949219,-138.3125,206.75,-52.03125,0.0,0.0,0.0
624,1696258196515,-1.3320312,-0.5527344,0.33398438,-68.96875,-131.3125,-75.84375,0.0,0.0,0.0
625,1696258196555,0.5673828,0.61621094,-0.5292969,-5.0,249.15625,93.28125,0.0,0.0,0.0
626,1696258196595,-1.9755859,0.7910156,0.85839844,-45.90625,117.5625,215.78125,0.0,0.0,0.0
627,1696258196635,-1.3886719,-0.9013672,0.79003906,55.65625,220.25,20.03125,0.0,0.0,0.0
628,1696258196675,-1.5947266,0.11230469,0.35253906,69.8125,223.21875,26.5625,0.0,0.0,0.0
629,1696258196715,0.05078125,0.9765625,2.0146484,216.0,125.15625,5.4375,0.0,0.0,0.0
630,1696258196755,-0.1953125,-0.24804688,-0.18164062,-89.1875,86.8125,-1.03125,0.0,0.0,0.0
631,1696258196795,-0.33007812,-0.77734375,0.64453125,-12.75,-31.90625,-70.65625,0.0,0.0,0.0
632,1696258196835,-0.22460938,0.23242188,-0.026367188,84.65625,-128.59375,-69.4375,0.0,0.0,0.0
633,1696258196875,-1.8828125,0.41308594,0.47851562,86.84375,-281.40625,-20.78125,-114.625,9.5,-304.125
634,1696258196915,-1.5791016,0.13671875,-0.20019531,43.6875,-270.59375,-62.125,0.0,0.0,0.0
635,1696258196955,-1.9755859,0.24707031,0.640625,-81.90625,-255.59375,-45.6875,0.0,0.0,0.0
636,1696258196995,-1.9755859,0.15136719,0.39160156,-56.53125,-82.0,-0.59375,0.0,0.0,0.0
637,1696258197035,-0.20410156,-0.3330078,0.44921875,157.59375,-237.09375,-41.90625,0.0,0.0,0.0
638,1696258197075,0.07714844,-0.20507812,0.23925781,150.6875,7.71875,-48.875,0.0,0.0,0.0
639,1696258197115,0.6279297,0.23339844,-0.26464844,112.96875,70.53125,28.875,0.0,0.0,0.0
640,1696258197155,0.17578125,0.05859375,-0.21777344,-21.625,160.1875,30.46875,0.0,0.0,0.0
641,1696258197195,-0.6015625,0.30273438,0.31640625,-209.96875,81.375,14.0625,0.0,0.0,0.0
642,1696258197235,0.61035156,-0.046875,-0.025390625,-236.34375,22.46875,-80.0,0.0,0.0,0.0
643,1696258197275,-1.9755859,-0.24511719,1.3974609,65.0625,-6.9375,254.59375,0.0,0.0,0.0
644,1696258197315,1.3603516,-0.13378906,0.40527344,-107.5,140.84375,-48.125,0.0,0.0,0.0
645,1696258197355,-1.1132812,0.5332031,-0.10546875,33.125,131.0,200.03125,0.0,0.0,0.0
646,1696258197395,-1.9755859,-0.62109375,-0.171875,42.71875,266.1875,75.21875,31.5,71.4375,-198.375
647,1696258197435,-1.6679688,-0.4140625,0.5449219,-7.375,212.375,37.3125,0.0,0.0,0.0
648,1696258197475,-1.0009766,0.52246094,0.5751953,63.21875,138.21875,32.96875,0.0,0.0,0.0
649,1696258197515,-0.4326172,0.040039062,0.2421875,-29.0,70.15625,19.25,0.0,0.0,0.0
650,1696258197555,0.083984375,-0.6816406,0.20898438,-2.6875,-12.375,-28.125,0.0,0.0,0.0
651,1696258197595,-0.20117188,0.26171875,0.078125,64.15625,-107.875,-73.03125,0.0,0.0,0.0
652,1696258197635,-0.29492188,0.16308594,0.059570312,94.46875,-179.71875,-33.625,0.0,0.0,0.0
653,1696258197675,-1.9755859,-0.09277344,-0.0146484375,79.46875,-397.0,-7.125,0.0,0.0,0.0
654,1696258197715,-1.2353516,1.1757812,-0.061523438,270.5,-343.0625,22.84375,0.0,0.0,0.0
655,1696258197755,-1.9755859,0.21972656,0.8300781,-333.25,24.625,-122.96875,0.0,0.0,0.0
656,1696258197795,-0.97753906,-0.6894531,0.4189453,-14.96875,-184.375,-143.09375,0.0,0.0,0.0
657,1696258197835,-0.20507812,-0.3671875,0.36035156,194.5625,-102.53125,-10.84375,0.0,0.0,0.0
658,1696258197875,0.28222656,0.15625,0.0390625,165.28125,11.96875,-22.4375,43.625,302.5625,20.3125
659,1696258197915,0.37402344,0.15332031,-0.10546875,103.6875,81.3125,5.8125,0.0,0.0,0.0
660,1696258197955,-0.21289062,0.27441406,-0.3564453,-91.5,147.375,-2.90625,0.0,0.0,0.0
661,1696258197995,-0.3154297,0.49316406,0.30273438,-178.34375,100.125,-16.53125,0.0,0.0,0.0
662,1696258198035,0.16503906,0.9423828,0.06738281,-228.34375,63.8125,-53.25,0.0,0.0,0.0
663,1696258198075,-1.9755859,-1.6347656,-0.8515625,-35.28125,-127.71875,-38.875,0.0,0.0,0.0
664,1696258198115,0.64941406,-0.028320312,-0.2939453,-83.8125,142.28125,104.6875,0.0,0.0,0.0
665,1696258198155,-1.9755859,0.7421875,0.83203125,21.78125,71.5625,227.875,0.0,0.0,0.0
666,1696258198195,-1.2890625,-0.4013672,0.9638672,8.65625,214.0,25.84375,0.0,0.0,0.0
667,1696258198235,-1.5664062,-0.10253906,0.49414062,13.78125,185.5625,59.15625,0.0,0.0,0.0
668,1696258198275,-0.7607422,0.203125,0.56152344,41.8125,126.375,35.59375,0.0,0.0,0.0
669,1696258198315,-0.7714844,-0.4140625,0.0068359375,-42.65625,28.03125,31.875,0.0,0.0,0.0
670,1696258198355,0.10546875,-0.34179688,0.34375,35.46875,33.46875,-44.21875,0.0,0.0,0.0
671,1696258198395,-0.35351562,0.12988281,0.0107421875,27.53125,-88.40625,-63.875,-143.6875,15.1875,-326.4375
672,1696258198435,-0.54296875,0.038085938,-0.052734375,62.96875,-184.65625,-36.71875,0.0,0.0,0.0
673,1696258198475,-1.9755859,0.24609375,-0.35742188,9.8125,-312.78125,-48.625,0.0,0.0,0.0
674,1696258198515,-1.6210938,0.9589844,0.6455078,-60.0,-74.875,-110.8125,0.0,0.0,0.0
675,1696258198555,-1.9755859,0.12402344,0.50097656,-18.25,-231.84375,-94.71875,0.0,0.0,0.0
676,1696258198595,-0.5263672,-0.3564453,0.6796875,157.46875,-184.25,-29.875,0.0,0.0,0.0
677,1696258198635,-0.18066406,-0.45996094,0.5048828,119.8125,-30.625,-8.15625,0.0,0.0,0.0
678,1696258198675,0.19335938,0.0107421875,0.17773438,110.96875,77.84375,2.9375,0.0,0.0,0.0
679,1696258198715,0.34375,0.3017578,-0.09472656,25.03125,153.09375,31.75,0.0,0.0,0.0
680,1696258198755,-0.68359375,0.23339844,0.029296875,-171.75,109.46875,28.53125,0.0,0.0,0.0
681,1696258198795,-0.5878906,-0.17578125,0.39160156,-146.625,-7.0,-52.15625,0.0,0.0,0.0
682,1696258198835,0.27929688,1.0908203,-0.34570312,-150.28125,128.125,-32.6875,0.0,0.0,0.0
683,1696258198875,-1.9755859,-1.9794922,-0.18945312,-60.90625,-127.25,-32.40625,-30.3125,87.3125,-206.75
684,1696258198915,0.95410156,0.32714844,-0.23242188,-12.21875,96.28125,74.0,0.0,0.0,0.0
685,1696258198955,-1.9755859,0.68652344,0.94140625,18.0625,79.375,207.90625,0.0,0.0,0.0
686,1696258198995,-1.1035156,-0.6279297,0.8886719,44.90625,206.5625,27.53125,0.0,0.0,0.0
687,1696258199035,-1.5849609,0.10644531,0.29589844,43.15625,190.6875,55.25,0.0,0.0,0.0
688,1696258199075,-0.82421875,0.40722656,0.4873047,71.71875,135.09375,48.34375,0.0,0.0,0.0
689,1696258199115,-0.6142578,-0.08496094,0.14941406,6.65625,37.5625,37.5625,0.0,0.0,0.0
690,1696258199155,-0.0703125,-0.31835938,0.140625,-25.875,-7.5,-15.46875,0.0,0.0,0.0
691,1696258199195,-0.30664062,0.22558594,0.1328125,7.75,-155.0625,-99.65625,0.0,0.0,0.0
692,1696258199235,-0.5283203,0.09375,0.047851562,53.40625,-142.8125,-69.3125,0.0,0.0,0.0
693,1696258199275,-1.9755859,0.0048828125,-0.875,-96.1875,-282.21875,-32.75,0.0,0.0,0.0
694,1696258199315,-1.7490234,0.74902344,0.63964844,-76.84375,-143.34375,-85.6875,0.0,0.0,0.0
695,1696258199355,-1.9755859,0.01953125,0.50390625,7.625,-182.28125,-40.5625,0.0,0.0,0.0
696,1696258199395,-0.6123047,-0.29003906,0.6591797,34.78125,-106.375,-52.59375,182.8125,81.0625,-230.3125
697,1696258199435,-0.41601562,-0.4033203,0.55078125,107.78125,-39.65625,-5.34375,0.0,0.0,0.0
698,1696258199475,0.12890625,-0.107421875,0.048828125,120.78125,5.9375,21.125,0.0,0.0,0.0
699,1696258199515,0.56152344,0.32910156,-0.12695312,56.21875,56.0,28.9375,0.0,0.0,0.0
700,1696258199555,-0.17773438,0.3876953,-0.038085938,-104.1875,120.6875,37.0,0.0,0.0,0.0
701,1696258199595,-0.31933594,-0.14257812,0.44726562,-125.25,21.25,-19.9375,0.0,0.0,0.0
702,1696258199635,-0.5253906,1.3759766,0.115234375,-182.5625,121.25,-30.375,0.0,0.0,0.0
703,1696258199675,-1.0019531,-0.3095703,-0.016601562,-134.21875,-141.75,-96.40625,0.0,0.0,0.0
704,1696258199715,0.12207031,-0.36328125,-1.0205078,9.75,204.90625,128.625,0.0,0.0,0.0
705,1696258199755,-1.9755859,0.85253906,1.2490234,46.03125,72.03125,220.84375,0.0,0.0,0.0
706,1696258199795,-0.93359375,0.107421875,0.7578125,36.0,206.375,-28.0,0.0,0.0,0.0
707,1696258199835,-1.7314453,0.024414062,0.19726562,27.9375,196.4375,56.90625,0.0,0.0,0.0
708,1696258199875,-0.7402344,0.44140625,0.65722656,49.9375,109.625,52.15625,-111.875,-23.1875,-21.0625
709,1696258199915,-0.5986328,-0.13867188,0.34960938,-43.46875,70.21875,19.0625,0.0,0.0,0.0
710,1696258199955,0.14453125,-0.8642578,0.28515625,-29.0625,20.03125,-39.34375,0.0,0.0,0.0
711,1696258199995,-0.31152344,0.34960938,-0.22949219,61.6875,-128.46875,-89.03125,0.0,0.0,0.0
712,1696258200035,-0.65527344,0.020507812,0.4404297,78.375,-198.09375,-28.90625,0.0,0.0,0.0
713,1696258200075,-1.9755859,-0.25976562,-0.21679688,81.34375,-268.09375,-5.78125,0.0,0.0,0.0
714,1696258200115,-1.9755859,0.62402344,0.6738281,-87.59375,-132.1875,-44.125,0.0,0.0,0.0
715,1696258200155,-1.9755859,-0.5761719,0.578125,-49.6875,-95.9375,-106.0,0.0,0.0,0.0
716,1696258200195,-0.14746094,0.17773438,0.34960938,148.6875,-243.4375,-56.5,0.0,0.0,0.0
717,1696258200235,-0.4609375,-0.27148438,0.2548828,46.75,-18.59375,-62.125,0.0,0.0,0.0
718,1696258200275,0.24316406,0.04296875,-0.056640625,125.65625,45.84375,-17.75,0.0,0.0,0.0
719,1696258200315,0.6035156,0.3388672,-0.14746094,31.78125,102.375,35.96875,0.0,0.0,0.0
720,1696258200355,-0.3203125,0.17773438,-0.020507812,-146.84375,146.1875,41.03125,0.0,0.0,0.0
721,1696258200395,-0.32128906,-0.06640625,0.57128906,-136.0625,-7.5625,-36.96875,-18.75,60.3125,-190.875
722,1696258200435,-0.46875,1.1699219,-0.43359375,-170.0625,191.78125,-43.375,0.0,0.0,0.0
723,1696258200475,-0.8808594,0.15917969,0.5498047,-22.34375,-97.40625,-150.5625,0.0,0.0,0.0
724,1696258200515,0.60546875,0.4345703,-0.5810547,-40.59375,196.25,109.15625,0.0,0.0,0.0
725,1696258200555,-1.9755859,0.62890625,0.6220703,6.46875,99.375,199.125,0.0,0.0,0.0
726,1696258200595,-0.9326172,-0.29492188,0.75878906,14.40625,194.28125,17.59375,0.0,0.0,0.0
727,1696258200635,-1.8076172,0.15527344,0.234375,38.03125,198.625,64.53125,0.0,0.0,0.0
728,1696258200675,-1.0830078,0.35546875,0.53125,20.75,85.46875,79.5,0.0,0.0,0.0
729,1696258200715,-0.4892578,-0.10546875,0.359375,55.65625,26.875,16.125,0.0,0.0,0.0
730,1696258200755,0.16992188,-0.72265625,0.10839844,-63.125,29.25,-44.0,0.0,0.0,0.0
731,1696258200795,-0.3623047,0.21289062,0.3984375,19.34375,-114.25,-101.90625,0.0,0.0,0.0
732,1696258200835,-0.5595703,0.23242188,0.078125,52.90625,-169.46875,-51.3125,0.0,0.0,0.0
733,1696258200875,-1.9755859,-0.67089844,-0.8261719,-73.25,-272.5,-26.34375,-203.25,-112.75,-276.375
734,1696258200915,-1.9755859,1.0800781,0.67285156,-56.40625,-39.59375,-92.875,0.0,0.0,0.0
735,1696258200955,-1.9755859,-0.038085938,0.43066406,11.65625,-261.875,-35.1875,0.0,0.0,0.0
736,1696258200995,-0.8652344,-0.17285156,0.72558594,89.40625,-170.28125,-37.34375,0.0,0.0,0.0
737,1696258201035,-0.67871094,-0.40820312,0.36328125,36.96875,-57.34375,-39.28125,0.0,0.0,0.0
738,1696258201075,0.11230469,-0.044921875,0.26171875,151.78125,51.09375,-5.84375,0.0,0.0,0.0
739,1696258201115,0.48535156,0.171875,-0.11328125,75.75,107.125,45.0625,0.0,0.0,0.0
740,1696258201155,-0.16992188,0.23632812,0.045898438,-78.1875,111.65625,40.0625,0.0,0.0,0.0
741,1696258201195,-0.48535156,0.076171875,0.36816406,-106.28125,0.5,-9.8125,0.0,0.0,0.0
742,1696258201235,0.60546875,0.2890625,-0.6035156,-267.875,127.53125,-80.5,0.0,0.0,0.0
743,1696258201275,-1.9755859,-1.9794922,-0.38671875,-3.375,-355.5625,74.78125,0.0,0.0,0.0
744,1696258201315,0.9501953,-0.23632812,-0.7636719,-90.65625,186.4375,21.75,0.0,0.0,0.0
745,1696258201355,-1.9755859,0.48242188,0.8535156,44.0,24.0,239.40625,0.0,0.0,0.0
746,1696258201395,-1.3720703,-0.22949219,0.6152344,82.5625,191.5,25.78125,18.4375,29.875,-235.25
747,1696258201435,-1.6572266,-0.005859375,0.26367188,33.4375,233.1875,49.03125,0.0,0.0,0.0
748,1696258201475,-1.1962891,0.43164062,0.6455078,87.9375,146.8125,65.6875,0.0,0.0,0.0
749,1696258201515,-0.7470703,-0.08105469,0.67089844,-21.3125,48.0,35.0625,0.0,0.0,0.0
750,1696258201555,-0.009765625,-0.64453125,-0.24707031,-64.40625,-0.84375,-0.28125,0.0,0.0,0.0
751,1696258201595,-0.4140625,0.078125,0.640625,57.6875,-140.125,-111.125,0.0,0.0,0.0
752,1696258201635,-0.23339844,0.059570312,-0.049804688,102.40625,-137.625,-51.75,0.0,0.0,0.0
753,1696258201675,-1.9755859,0.14550781,-0.45117188,-19.21875,-321.28125,-3.40625,0.0,0.0,0.0
754,1696258201715,-1.1845703,0.9189453,0.2529297,-28.1875,-199.0625,-85.625,0.0,0.0,0.0
755,1696258201755,-1.9755859,-0.2421875,0.6796875,-44.3125,-151.15625,-85.625,0.0,0.0,0.0
756,1696258201795,-1.3525391,0.1015625,0.7636719,199.21875,-257.71875,-45.6875,0.0,0.0,0.0
757,1696258201835,-0.4013672,-0.35351562,0.31640625,77.5,-30.875,-83.53125,0.0,0.0,0.0
758,1696258201875,0.047851562,-0.029296875,0.17578125,151.25,32.96875,-43.1875,18.3125,45.5,-213.8125
759,1696258201915,0.5751953,0.35351562,0.016601562,70.78125,87.71875,18.15625,0.0,0.0,0.0
