,timestamp,accel_x,accel_y,accel_z,gyro_x,gyro_y,gyro_z,mag_x,mag_y,mag_z
0,1696254914116,0.46191406,-0.18457031,0.8251953,0.09375,0.15625,0.28125,0.0,0.0,0.0
1,1696254914156,0.48046875,-0.18457031,0.8544922,0.09375,0.40625,0.34375,0.0,0.0,0.0
2,1696254914196,0.48046875,-0.19042969,0.85253906,-0.1875,0.34375,0.28125,0.0,0.0,0.0
3,1696254914236,0.47558594,-0.18652344,0.8388672,-0.4375,-0.21875,-0.03125,0.0,0.0,0.0
4,1696254914276,0.4716797,-0.18945312,0.8408203,-0.5625,-0.40625,-0.25,0.0,0.0,0.0
5,1696254914316,0.4765625,-0.18164062,0.83984375,-0.125,-0.28125,-0.375,0.0,0.0,0.0
6,1696254914356,0.48242188,-0.18847656,0.83984375,0.21875,-0.09375,-0.3125,0.0,0.0,0.0
7,1696254914396,0.47265625,-0.17871094,0.85253906,0.09375,0.09375,-0.25,0.0,0.0,0.0
8,1696254914436,0.48339844,-0.18066406,0.83496094,0.03125,0.15625,-0.09375,0.0,0.0,0.0
9,1696254914476,0.47558594,-0.18261719,0.8486328,0.09375,-0.09375,0.15625,0.0,0.0,0.0
10,1696254914516,0.47460938,-0.18066406,0.8466797,0.0,-0.09375,0.03125,0.0,0.0,0.0
11,1696254914556,0.47265625,-0.19433594,0.82910156,-0.0625,-0.09375,-0.09375,23.6875,28.375,-192.5
12,1696254914596,0.47460938,-0.17578125,0.84277344,-0.125,-0.03125,-0.09375,0.0,0.0,0.0
13,1696254914636,0.48242188,-0.18652344,0.83984375,0.21875,0.21875,-0.03125,0.0,0.0,0.0
14,1696254914676,0.4736328,-0.1875,0.84472656,0.34375,-0.03125,-0.15625,0.0,0.0,0.0
15,1696254914716,0.484375,-0.1875,0.8417969,-0.0625,-0.03125,-0.09375,0.0,0.0,0.0
16,1696254914756,0.4765625,-0.18066406,0.85058594,0.03125,0.03125,0.03125,0.0,0.0,0.0
17,1696254914796,0.47851562,-0.17480469,0.8515625,-0.25,-0.09375,-0.09375,0.0,0.0,0.0
18,1696254914836,0.46972656,-0.18261719,0.8378906,0.03125,0.09375,0.09375,0.0,0.0,0.0
19,1696254914876,0.47265625,-0.18066406,0.83691406,-0.1875,0.09375,0.03125,0.0,0.0,0.0
20,1696254914916,0.46972656,-0.18554688,0.8408203,-0.1875,-0.03125,-0.03125,0.0,0.0,0.0
21,1696254914956,0.4814453,-0.17871094,0.8388672,-0.0625,-0.09375,-0.09375,0.0,0.0,0.0
22,1696254914996,0.47070312,-0.1796875,0.8359375,-0.0625,-0.09375,-0.03125,0.0,0.0,0.0
23,1696254915036,0.47265625,-0.18652344,0.83203125,-0.0625,0.03125,0.09375,24.875,30.625,-193.125
24,1696254915076,0.47558594,-0.18554688,0.8408203,-0.0625,-0.03125,-0.09375,0.0,0.0,0.0
25,1696254915116,0.47851562,-0.1796875,0.8359375,0.15625,-0.28125,-0.1875,0.0,0.0,0.0
26,1696254915156,0.4736328,-0.18066406,0.84375,0.09375,0.03125,-0.25,0.0,0.0,0.0
27,1696254915196,0.47460938,-0.18261719,0.82910156,0.09375,0.03125,-0.15625,0.0,0.0,0.0
28,1696254915236,0.47753906,-0.18261719,0.8417969,0.09375,0.15625,-0.03125,0.0,0.0,0.0
29,1696254915276,0.46289062,-0.1875,0.85253906,-0.0625,-0.09375,0.03125,0.0,0.0,0.0
30,1696254915316,0.48632812,-0.18652344,0.8457031,0.09375,0.03125,-0.09375,0.0,0.0,0.0
31,1696254915356,0.47558594,-0.18652344,0.84472656,0.0,0.15625,-0.03125,0.0,0.0,0.0
32,1696254915396,0.46972656,-0.18945312,0.84375,-0.1875,-0.03125,0.03125,0.0,0.0,0.0
33,1696254915436,0.47558594,-0.1796875,0.8232422,0.09375,-0.15625,-0.03125,0.0,0.0,0.0
34,1696254915476,0.4765625,-0.18359375,0.83691406,0.0,0.03125,-0.03125,0.0,0.0,0.0
35,1696254915516,0.47070312,-0.18652344,0.85058594,0.0,0.09375,0.15625,0.0,0.0,0.0
36,1696254915556,0.47265625,-0.1796875,0.8417969,0.0,0.03125,0.15625,24.4375,29.4375,-193.25
37,1696254915596,0.47851562,-0.17871094,0.8417969,-0.0625,-0.03125,-0.03125,0.0,0.0,0.0
38,1696254915636,0.4736328,-0.17382812,0.8378906,-0.4375,-0.09375,0.03125,0.0,0.0,0.0
39,1696254915676,0.47753906,-0.19140625,0.8486328,0.09375,-0.03125,0.03125,0.0,0.0,0.0
40,1696254915716,0.47460938,-0.17675781,0.8466797,0.0,0.09375,0.03125,0.0,0.0,0.0
41,1696254915756,0.4716797,-0.1796875,0.83691406,0.09375,0.03125,0.03125,0.0,0.0,0.0
42,1696254915796,0.4736328,-0.1953125,0.8310547,0.03125,-0.15625,-0.09375,0.0,0.0,0.0
43,1696254915836,0.47460938,-0.17773438,0.8388672,-0.0625,-0.03125,-0.09375,0.0,0.0,0.0
44,1696254915876,0.4716797,-0.18457031,0.84765625,0.0,0.21875,-0.1875,0.0,0.0,0.0
45,1696254915916,0.46972656,-0.18554688,0.83984375,-0.0625,-0.03125,-0.03125,0.0,0.0,0.0
46,1696254915956,0.4794922,-0.17285156,0.8378906,0.09375,0.09375,-0.15625,0.0,0.0,0.0
47,1696254915996,0.47070312,-0.18066406,0.8388672,0.15625,0.03125,0.03125,0.0,0.0,0.0
48,1696254916036,0.47265625,-0.17675781,0.85253906,-0.125,0.15625,-0.15625,24.125,28.5625,-191.3125
49,1696254916076,0.47265625,-0.18554688,0.8330078,0.0,-0.03125,-0.03125,0.0,0.0,0.0
50,1696254916116,0.47265625,-0.18554688,0.84375,-0.0625,-0.03125,-0.15625,0.0,0.0,0.0
51,1696254916156,0.4765625,-0.18652344,0.83691406,0.03125,0.09375,0.03125,0.0,0.0,0.0
52,1696254916196,0.47460938,-0.18066406,0.8466797,0.0,0.28125,-0.03125,0.0,0.0,0.0
53,1696254916236,0.4765625,-0.19140625,0.82421875,0.0,-0.03125,-0.15625,0.0,0.0,0.0
54,1696254916276,0.4765625,-0.18652344,0.84375,-0.125,-0.21875,-0.1875,0.0,0.0,0.0
55,1696254916316,0.4794922,-0.18066406,0.8515625,-0.0625,0.03125,-0.3125,0.0,0.0,0.0
56,1696254916356,0.46679688,-0.18359375,0.83496094,0.15625,0.09375,-0.09375,0.0,0.0,0.0
57,1696254916396,0.4736328,-0.19433594,0.8535156,-0.0625,-0.15625,-0.15625,0.0,0.0,0.0
58,1696254916436,0.47558594,-0.18261719,0.8417969,0.21875,0.03125,-0.09375,0.0,0.0,0.0
59,1696254916476,0.46972656,-0.18847656,0.8378906,-0.0625,-0.28125,-0.15625,0.0,0.0,0.0
60,1696254916516,0.4765625,-0.18164062,0.84277344,0.21875,-0.09375,-0.25,0.0,0.0,0.0
61,1696254916556,0.47753906,-0.18554688,0.84277344,0.15625,0.15625,-0.1875,23.875,29.875,-191.75
62,1696254916596,0.47460938,-0.18457031,0.8417969,-0.0625,-0.09375,-0.09375,0.0,0.0,0.0
63,1696254916636,0.47851562,-0.18457031,0.8544922,0.09375,-0.03125,-0.1875,0.0,0.0,0.0
64,1696254916676,0.48339844,-0.18164062,0.8339844,0.09375,0.09375,-0.3125,0.0,0.0,0.0
65,1696254916716,0.4794922,-0.1875,0.8251953,-0.125,0.15625,-0.03125,0.0,0.0,0.0
66,1696254916756,0.46875,-0.18261719,0.83984375,0.0,0.09375,0.09375,0.0,0.0,0.0
67,1696254916796,0.47070312,-0.18847656,0.8466797,0.09375,0.03125,-0.09375,0.0,0.0,0.0
68,1696254916836,0.4736328,-0.18164062,0.83984375,0.0,0.03125,-0.03125,0.0,0.0,0.0
69,1696254916876,0.4716797,-0.18945312,0.85253906,0.0,0.09375,-0.03125,0.0,0.0,0.0
70,1696254916916,0.46777344,-0.18066406,0.84277344,-0.0625,-0.28125,-0.25,0.0,0.0,0.0
71,1696254916956,0.46777344,-0.17578125,0.8408203,-0.34375,-0.125,-0.0625,0.0,0.0,0.0
72,1696254916996,0.47753906,-0.18164062,0.8330078,-0.15625,-0.1875,-0.125,0.0,0.0,0.0
73,1696254917036,0.47753906,-0.18261719,0.8535156,0.03125,0.0,0.125,23.875,29.5625,-192.0625
74,1696254917076,0.47753906,-0.18652344,0.8496094,-0.03125,0.0,-0.0625,0.0,0.0,0.0
75,1696254917116,0.46972656,-0.18652344,0.84277344,0.15625,-0.125,-0.125,0.0,0.0,0.0
76,1696254917156,0.4658203,-0.18066406,0.84472656,-0.03125,0.0,-0.1875,0.0,0.0,0.0
77,1696254917196,0.4794922,-0.19042969,0.8310547,0.09375,0.0625,-0.0625,0.0,0.0,0.0
78,1696254917236,0.47460938,-0.18457031,0.83691406,0.15625,0.0625,0.0,0.0,0.0,0.0
79,1696254917276,0.4716797,-0.1796875,0.83984375,-0.03125,0.125,0.0,0.0,0.0,0.0
80,1696254917316,0.4765625,-0.19042969,0.84277344,0.03125,0.125,-0.125,0.0,0.0,0.0
81,1696254917356,0.4736328,-0.1796875,0.83496094,-0.03125,0.0,-0.0625,0.0,0.0,0.0
82,1696254917396,0.46679688,-0.18652344,0.8359375,-0.03125,0.0625,0.1875,0.0,0.0,0.0
83,1696254917436,0.4736328,-0.18457031,0.8496094,-0.03125,0.0,0.0625,0.0,0.0,0.0
84,1696254917476,0.47851562,-0.18847656,0.8261719,-0.15625,-0.125,-0.0625,0.0,0.0,0.0
85,1696254917516,0.47460938,-0.18261719,0.84277344,-0.03125,0.0625,0.0625,0.0,0.0,0.0
86,1696254917556,0.47753906,-0.18359375,0.8388672,-0.21875,0.0625,0.0625,24.875,29.5625,-193.125
87,1696254917596,0.4658203,-0.18261719,0.8515625,-0.09375,-0.0625,0.0,0.0,0.0,0.0
88,1696254917636,0.47265625,-0.17773438,0.8339844,-0.15625,-0.3125,0.125,0.0,0.0,0.0
89,1696254917676,0.4765625,-0.18261719,0.8339844,-0.40625,-0.0625,-0.125,0.0,0.0,0.0
90,1696254917716,0.4716797,-0.18066406,0.8359375,0.21875,-0.0625,-0.0625,0.0,0.0,0.0
91,1696254917756,0.4716797,-0.1796875,0.83203125,-0.09375,-0.1875,0.0625,0.0,0.0,0.0
92,1696254917796,0.46777344,-0.18164062,0.8457031,0.34375,-0.0625,0.0625,0.0,0.0,0.0
93,1696254917836,0.47070312,-0.1796875,0.82910156,-0.09375,-0.0625,0.0,0.0,0.0,0.0
94,1696254917876,0.47460938,-0.18261719,0.8251953,0.21875,0.125,0.0,0.0,0.0,0.0
95,1696254917916,0.4814453,-0.18457031,0.83496094,0.28125,0.0,0.0625,0.0,0.0,0.0
96,1696254917956,0.47265625,-0.18066406,0.8417969,0.09375,0.0,0.0,0.0,0.0,0.0
97,1696254917996,0.47460938,-0.18066406,0.8515625,0.09375,0.0,0.0,0.0,0.0,0.0
98,1696254918036,0.4814453,-0.1796875,0.84277344,0.03125,0.0625,0.0,24.625,28.8125,-193.125
99,1696254918076,0.4638672,-0.18261719,0.8417969,-0.15625,0.0,0.0,0.0,0.0,0.0
100,1696254918116,0.47265625,-0.1796875,0.8339844,0.09375,-0.0625,0.25,0.0,0.0,0.0
101,1696254918156,0.48339844,-0.18945312,0.8359375,-0.09375,-0.0625,0.0625,0.0,0.0,0.0
102,1696254918196,0.48339844,-0.18457031,0.8330078,-0.15625,0.0625,0.0625,0.0,0.0,0.0
103,1696254918236,0.47070312,-0.19042969,0.82714844,0.09375,0.125,0.0,0.0,0.0,0.0
104,1696254918276,0.4794922,-0.18359375,0.8408203,-0.09375,0.125,0.0,0.0,0.0,0.0
105,1696254918316,0.4814453,-0.18652344,0.8457031,-0.09375,-0.1875,-0.0625,0.0,0.0,0.0
106,1696254918356,0.47753906,-0.18261719,0.82910156,-0.53125,-0.25,0.0,0.0,0.0,0.0
107,1696254918396,0.47558594,-0.18847656,0.8330078,-0.03125,0.0,0.125,0.0,0.0,0.0
108,1696254918436,0.47070312,-0.19042969,0.8378906,0.03125,-0.0625,0.1875,0.0,0.0,0.0
109,1696254918476,0.47265625,-0.17480469,0.8339844,-0.03125,0.0625,0.0625,0.0,0.0,0.0
110,1696254918516,0.48046875,-0.18066406,0.8339844,-0.15625,-0.1875,0.0625,0.0,0.0,0.0
111,1696254918556,0.47460938,-0.19042969,0.8496094,-0.15625,0.0625,0.0,25.5,30.5,-191.875
112,1696254918596,0.47265625,-0.1875,0.83203125,0.28125,0.0,0.0625,0.0,0.0,0.0
113,1696254918636,0.4716797,-0.18164062,0.8359375,-0.03125,0.0,0.0,0.0,0.0,0.0
114,1696254918676,0.47753906,-0.18652344,0.8417969,-0.03125,0.125,0.0625,0.0,0.0,0.0
115,1696254918716,0.4658203,-0.18554688,0.84375,0.03125,0.125,0.0625,0.0,0.0,0.0
116,1696254918756,0.46679688,-0.18359375,0.8388672,0.15625,0.0625,0.125,0.0,0.0,0.0
117,1696254918796,0.46777344,-0.17773438,0.8388672,-0.28125,-0.1875,0.0,0.0,0.0,0.0
118,1696254918836,0.46972656,-0.18847656,0.8339844,-0.09375,-0.125,0.1875,0.0,0.0,0.0
119,1696254918876,0.4736328,-0.18359375,0.8388672,-0.15625,0.0,0.0,0.0,0.0,0.0
120,1696254918916,0.47460938,-0.1875,0.8359375,0.09375,0.0625,0.0625,0.0,0.0,0.0
121,1696254918956,0.47265625,-0.18554688,0.8339844,-0.03125,0.0625,0.25,0.0,0.0,0.0
122,1696254918996,0.47265625,-0.18457031,0.83984375,-0.21875,0.0,0.0,0.0,0.0,0.0
123,1696254919036,0.47558594,-0.17578125,0.85253906,-0.21875,-0.25,0.0625,23.6875,28.6875,-192.9375
124,1696254919076,0.4794922,-0.18164062,0.8408203,-0.28125,-0.125,0.0625,0.0,0.0,0.0
125,1696254919116,0.46972656,-0.17773438,0.8330078,0.15625,0.125,0.125,0.0,0.0,0.0
126,1696254919156,0.4765625,-0.1796875,0.8330078,-0.03125,0.0625,0.125,0.0,0.0,0.0
127,1696254919196,0.47851562,-0.18164062,0.84472656,-0.15625,-0.125,0.125,0.0,0.0,0.0
128,1696254919236,0.47070312,-0.18164062,0.8466797,-0.09375,-0.1875,0.0625,0.0,0.0,0.0
129,1696254919276,0.47070312,-0.18847656,0.8417969,0.03125,0.0625,0.0,0.0,0.0,0.0
130,1696254919316,0.48046875,-0.1953125,0.85253906,0.21875,0.0,0.0,0.0,0.0,0.0
131,1696254919356,0.47558594,-0.17480469,0.8457031,0.03125,-0.0625,0.1875,0.0,0.0,0.0
132,1696254919396,0.4736328,-0.17773438,0.8417969,-0.09375,-0.125,0.0625,0.0,0.0,0.0
133,1696254919436,0.46972656,-0.18066406,0.8417969,0.03125,0.0,0.1875,0.0,0.0,0.0
134,1696254919476,0.4736328,-0.18554688,0.8408203,-0.03125,0.0625,0.0,0.0,0.0,0.0
135,1696254919516,0.4716797,-0.17871094,0.8417969,-0.21875,-0.125,0.1875,0.0,0.0,0.0
136,1696254919556,0.46875,-0.18359375,0.8408203,-0.03125,0.0625,0.125,24.0,29.75,-192.9375
137,1696254919596,0.4765625,-0.19238281,0.8339844,-0.09375,-0.25,0.125,0.0,0.0,0.0
138,1696254919636,0.4638672,-0.18652344,0.83691406,0.03125,0.0625,0.0625,0.0,0.0,0.0
139,1696254919676,0.47070312,-0.18261719,0.8300781,-0.03125,0.1875,0.1875,0.0,0.0,0.0
140,1696254919716,0.4765625,-0.18066406,0.8310547,-0.09375,-0.125,0.125,0.0,0.0,0.0
141,1696254919756,0.48046875,-0.18164062,0.828125,-0.28125,-0.25,0.0625,0.0,0.0,0.0
142,1696254919796,0.48242188,-0.18359375,0.83496094,-0.15625,0.0,-0.1875,0.0,0.0,0.0
143,1696254919836,0.46875,-0.18945312,0.83203125,0.15625,-0.0625,0.0,0.0,0.0,0.0
144,1696254919876,0.47753906,-0.18261719,0.8251953,-0.34375,-0.0625,0.0625,0.0,0.0,0.0
145,1696254919916,0.47558594,-0.18847656,0.83984375,-0.03125,-0.0625,-0.125,0.0,0.0,0.0
146,1696254919956,0.4716797,-0.18652344,0.8310547,-0.03125,0.0625,-0.0625,0.0,0.0,0.0
147,1696254919996,0.47558594,-0.18554688,0.83691406,0.09375,0.0625,0.0,0.0,0.0,0.0
148,1696254920036,0.47753906,-0.18945312,0.83984375,0.21875,0.0625,-0.125,24.4375,29.75,-193.875
149,1696254920076,0.46972656,-0.1796875,0.8378906,0.03125,0.0625,0.0,0.0,0.0,0.0
150,1696254920116,0.46972656,-0.18554688,0.828125,0.03125,0.0,0.125,0.0,0.0,0.0
151,1696254920156,0.47851562,-0.18847656,0.8388672,0.21875,0.0625,-0.25,0.0,0.0,0.0
152,1696254920196,0.46484375,-0.17773438,0.8457031,0.03125,-0.0625,-0.125,0.0,0.0,0.0
153,1696254920236,0.4794922,-0.18261719,0.8359375,0.34375,-0.0625,-0.0625,0.0,0.0,0.0
154,1696254920276,0.48242188,-0.18457031,0.8378906,-0.28125,-0.125,0.0625,0.0,0.0,0.0
155,1696254920316,0.4814453,-0.17773438,0.8388672,-0.03125,0.0625,-0.0625,0.0,0.0,0.0
156,1696254920356,0.46679688,-0.17773438,0.8359375,0.15625,0.0625,0.125,0.0,0.0,0.0
157,1696254920396,0.4765625,-0.18457031,0.8300781,-0.09375,0.1875,0.0,0.0,0.0,0.0
158,1696254920436,0.46777344,-0.18847656,0.84277344,-0.09375,-0.125,-0.125,0.0,0.0,0.0
159,1696254920476,0.47851562,-0.17773438,0.8408203,-0.34375,-0.0625,-0.0625,0.0,0.0,0.0
160,1696254920516,0.4716797,-0.17675781,0.8408203,-0.09375,-0.0625,0.0,0.0,0.0,0.0
161,1696254920556,0.46972656,-0.18652344,0.85546875,0.15625,-0.0625,-0.0625,22.375,28.8125,-193.6875
162,1696254920596,0.46875,-0.17871094,0.8378906,-0.03125,0.0,-0.0625,0.0,0.0,0.0
163,1696254920636,0.47851562,-0.18554688,0.8466797,0.15625,-0.125,-0.0625,0.0,0.0,0.0
164,1696254920676,0.47558594,-0.18359375,0.8515625,0.03125,0.125,0.0,0.0,0.0,0.0
165,1696254920716,0.46972656,-0.18066406,0.8378906,0.09375,-0.0625,0.0625,0.0,0.0,0.0
166,1696254920756,0.4765625,-0.18457031,0.8310547,-0.03125,0.0625,-0.0625,0.0,0.0,0.0
167,1696254920796,0.46777344,-0.17773438,0.8515625,0.15625,0.0625,-0.0625,0.0,0.0,0.0
168,1696254920836,0.4736328,-0.17871094,0.84277344,0.15625,0.1875,0.0,0.0,0.0,0.0
169,1696254920876,0.47851562,-0.18261719,0.83691406,-0.09375,-0.1875,0.125,0.0,0.0,0.0
170,1696254920916,0.47070312,-0.18652344,0.8457031,-0.03125,0.0625,0.0,0.0,0.0,0.0
171,1696254920956,0.4658203,-0.18261719,0.8486328,-0.15625,-0.125,0.125,0.0,0.0,0.0
172,1696254920996,0.4716797,-0.17871094,0.8339844,0.03125,0.0,0.0,0.0,0.0,0.0
173,1696254921036,0.47851562,-0.1796875,0.8388672,0.03125,0.0625,0.0,25.1875,29.125,-192.375
174,1696254921076,0.48535156,-0.18261719,0.83496094,-0.03125,0.0625,0.125,0.0,0.0,0.0
175,1696254921116,0.4765625,-0.18066406,0.8496094,-0.03125,0.1875,0.25,0.0,0.0,0.0
176,1696254921156,0.4814453,-0.18066406,0.82910156,-0.09375,0.0,0.0625,0.0,0.0,0.0
177,1696254921196,0.4736328,-0.17773438,0.8300781,-0.09375,-0.125,-0.0625,0.0,0.0,0.0
178,1696254921236,0.4658203,-0.18359375,0.83496094,-0.09375,-0.0625,0.0,0.0,0.0,0.0
179,1696254921276,0.48046875,-0.1796875,0.8457031,-0.15625,-0.0625,0.0625,0.0,0.0,0.0
180,1696254921316,0.46679688,-0.1796875,0.8535156,0.03125,0.0,0.0,0.0,0.0,0.0
181,1696254921356,0.46875,-0.17871094,0.84277344,-0.09375,-0.1875,0.125,0.0,0.0,0.0
182,1696254921396,0.47265625,-0.18066406,0.83984375,-0.03125,-0.0625,0.0,0.0,0.0,0.0
183,1696254921436,0.47070312,-0.1875,0.8466797,0.09375,0.0625,0.0,0.0,0.0,0.0
184,1696254921476,0.47265625,-0.17773438,0.8457031,-0.09375,-0.0625,-0.125,0.0,0.0,0.0
185,1696254921516,0.46484375,-0.18164062,0.8378906,-0.09375,-0.125,-0.0625,0.0,0.0,0.0
186,1696254921556,0.46972656,-0.18164062,0.8339844,0.15625,0.0625,0.0,24.625,27.8125,-191.75
187,1696254921596,0.4736328,-0.17578125,0.8496094,0.21875,0.125,0.0625,0.0,0.0,0.0
188,1696254921636,0.484375,-0.17773438,0.8496094,-0.15625,-0.1875,0.125,0.0,0.0,0.0
189,1696254921676,0.47558594,-0.18457031,0.82714844,0.03125,-0.0625,0.125,0.0,0.0,0.0
190,1696254921716,0.4736328,-0.1796875,0.8378906,-0.03125,0.0625,-0.0625,0.0,0.0,0.0
191,1696254921756,0.47070312,-0.18457031,0.83203125,0.03125,0.0,0.0,0.0,0.0,0.0
192,1696254921796,0.47558594,-0.19042969,0.8515625,0.09375,0.0625,0.0,0.0,0.0,0.0
193,1696254921836,0.47558594,-0.18554688,0.8261719,-0.15625,-0.0625,0.0625,0.0,0.0,0.0
194,1696254921876,0.4736328,-0.1796875,0.84472656,-0.03125,0.125,0.125,0.0,0.0,0.0
195,1696254921916,0.46679688,-0.18652344,0.85058594,-0.21875,0.0625,0.0,0.0,0.0,0.0
196,1696254921956,0.46875,-0.18164062,0.83691406,-0.15625,-0.3125,0.0625,0.0,0.0,0.0
197,1696254921996,0.47460938,-0.18652344,0.82910156,-0.40625,-0.1875,0.0625,0.0,0.0,0.0
198,1696254922036,0.46875,-0.1796875,0.84277344,-0.15625,-0.0625,0.1875,24.875,28.8125,-193.125
199,1696254922076,0.4658203,-0.17773438,0.8486328,-0.09375,-0.0625,0.125,0.0,0.0,0.0
200,1696254922116,0.46484375,-0.18945312,0.84472656,0.21875,0.0,0.0,0.0,0.0,0.0
201,1696254922156,0.45996094,-0.19042969,0.84375,0.125,-0.15625,0.0,0.0,0.0,0.0
202,1696254922196,0.46875,-0.18457031,0.82910156,0.0,0.25,0.0625,0.0,0.0,0.0
203,1696254922236,0.46972656,-0.1875,0.8310547,0.1875,-0.15625,-0.0625,0.0,0.0,0.0
204,1696254922276,0.47460938,-0.18359375,0.83984375,-0.0625,-0.15625,0.0,0.0,0.0,0.0
205,1696254922316,0.47265625,-0.18164062,0.8339844,0.0,0.125,0.0,0.0,0.0,0.0
206,1696254922356,0.4716797,-0.18652344,0.8457031,0.0625,0.0625,0.125,0.0,0.0,0.0
207,1696254922396,0.46875,-0.18261719,0.8261719,0.125,0.1875,0.1875,0.0,0.0,0.0
208,1696254922436,0.4765625,-0.18847656,0.8466797,0.1875,0.0625,0.0,0.0,0.0,0.0
209,1696254922476,0.46972656,-0.17773438,0.8496094,0.0625,0.0625,0.0,0.0,0.0,0.0
210,1696254922516,0.47558594,-0.18847656,0.83984375,0.0,0.0,0.0,0.0,0.0,0.0
211,1696254922556,0.47265625,-0.17773438,0.84375,0.125,-0.09375,0.0625,23.5625,30.3125,-192.375
212,1696254922596,0.47558594,-0.17675781,0.84765625,-0.25,0.0625,0.0,0.0,0.0,0.0
213,1696254922636,0.46679688,-0.18359375,0.8457031,0.0625,0.125,0.0625,0.0,0.0,0.0
214,1696254922676,0.46972656,-0.18554688,0.84277344,0.125,0.125,0.25,0.0,0.0,0.0
215,1696254922716,0.47460938,-0.19238281,0.84277344,-0.375,-0.21875,-0.0625,0.0,0.0,0.0
216,1696254922756,0.46972656,-0.18652344,0.84375,-0.25,-0.15625,0.0,0.0,0.0,0.0
217,1696254922796,0.47460938,-0.17480469,0.8388672,-0.0625,-0.03125,-0.0625,0.0,0.0,0.0
218,1696254922836,0.46972656,-0.18457031,0.8388672,0.1875,0.0,0.125,0.0,0.0,0.0
219,1696254922876,0.46777344,-0.18554688,0.8496094,-0.25,-0.09375,0.0625,0.0,0.0,0.0
220,1696254922916,0.46484375,-0.18261719,0.8408203,0.1875,-0.09375,0.125,0.0,0.0,0.0
221,1696254922956,0.46875,-0.17871094,0.8330078,0.1875,0.1875,-0.125,0.0,0.0,0.0
222,1696254922996,0.47460938,-0.18554688,0.8339844,0.25,0.0625,0.1875,0.0,0.0,0.0
223,1696254923036,0.4736328,-0.18652344,0.84765625,0.0625,0.0625,-0.0625,23.25,29.4375,-192.9375
224,1696254923076,0.46679688,-0.1796875,0.8408203,0.0,-0.09375,-0.125,0.0,0.0,0.0
225,1696254923116,0.47851562,-0.18945312,0.84472656,-0.0625,-0.15625,0.0625,0.0,0.0,0.0
226,1696254923156,0.4736328,-0.18164062,0.8408203,0.0,0.0625,0.0625,0.0,0.0,0.0
227,1696254923196,0.47851562,-0.18652344,0.8378906,0.0,0.0,0.125,0.0,0.0,0.0
228,1696254923236,0.46679688,-0.1796875,0.8359375,0.125,0.0,0.1875,0.0,0.0,0.0
229,1696254923276,0.47558594,-0.1875,0.8466797,-0.0625,-0.09375,0.1875,0.0,0.0,0.0
230,1696254923316,0.46972656,-0.1875,0.85058594,-0.1875,-0.21875,-0.0625,0.0,0.0,0.0
231,1696254923356,0.47558594,-0.18945312,0.8388672,0.0,-0.03125,0.125,0.0,0.0,0.0
232,1696254923396,0.47070312,-0.17871094,0.83691406,0.0,0.0625,0.125,0.0,0.0,0.0
233,1696254923436,0.4736328,-0.1796875,0.83496094,0.1875,0.0625,0.0,0.0,0.0,0.0
234,1696254923476,0.4736328,-0.18457031,0.84765625,-0.125,0.0,0.0625,0.0,0.0,0.0
235,1696254923516,0.4716797,-0.17773438,0.8388672,-0.375,-0.28125,0.0,0.0,0.0,0.0
236,1696254923556,0.4794922,-0.18164062,0.84472656,-0.375,-0.15625,0.0625,24.125,29.125,-193.125
237,1696254923596,0.4658203,-0.18652344,0.83984375,0.125,0.125,0.0625,0.0,0.0,0.0
238,1696254923636,0.4716797,-0.18945312,0.8388672,-0.3125,-0.03125,0.0,0.0,0.0,0.0
239,1696254923676,0.47851562,-0.18652344,0.8359375,0.0625,0.0,-0.0625,0.0,0.0,0.0
240,1696254923716,0.47851562,-0.18457031,0.8466797,0.0,-0.21875,-0.125,0.0,0.0,0.0
241,1696254923756,0.47265625,-0.18945312,0.8300781,0.1875,0.0,-0.0625,0.0,0.0,0.0
242,1696254923796,0.48242188,-0.18457031,0.83496094,0.25,0.0,-0.1875,0.0,0.0,0.0
243,1696254923836,0.46875,-0.19042969,0.8359375,-0.125,-0.09375,-0.0625,0.0,0.0,0.0
244,1696254923876,0.47070312,-0.18261719,0.83496094,0.0,0.0625,-0.125,0.0,0.0,0.0
245,1696254923916,0.47753906,-0.18261719,0.8388672,0.0625,0.0625,-0.125,0.0,0.0,0.0
246,1696254923956,0.4794922,-0.18261719,0.83984375,0.125,0.0625,-0.1875,0.0,0.0,0.0
247,1696254923996,0.46777344,-0.18652344,0.83203125,0.0625,0.125,-0.0625,0.0,0.0,0.0
248,1696254924036,0.47558594,-0.19140625,0.859375,-0.125,0.0,-0.0625,24.625,28.5625,-193.125
249,1696254924076,0.4638672,-0.18457031,0.8496094,0.0,-0.09375,-0.1875,0.0,0.0,0.0
250,1696254924116,0.46875,-0.17871094,0.8339844,-0.0625,-0.09375,-0.0625,0.0,0.0,0.0
251,1696254924156,0.46777344,-0.17675781,0.8417969,0.125,0.0625,-0.125,0.0,0.0,0.0
252,1696254924196,0.4736328,-0.18652344,0.83691406,0.0,-0.03125,0.0625,0.0,0.0,0.0
253,1696254924236,0.46289062,-0.18554688,0.8378906,-0.125,0.0625,0.0625,0.0,0.0,0.0
254,1696254924276,0.46875,-0.1875,0.84277344,-0.125,0.0,-0.0625,0.0,0.0,0.0
255,1696254924316,0.46484375,-0.17675781,0.8388672,-0.375,-0.09375,-0.125,0.0,0.0,0.0
256,1696254924356,0.4765625,-0.1796875,0.828125,0.125,0.0625,0.0625,0.0,0.0,0.0
257,1696254924396,0.46875,-0.19238281,0.85253906,-0.1875,-0.28125,-0.125,0.0,0.0,0.0
258,1696254924436,0.46777344,-0.1875,0.83203125,-0.0625,0.0,-0.0625,0.0,0.0,0.0
259,1696254924476,0.46875,-0.18847656,0.8417969,0.1875,-0.09375,0.0,0.0,0.0,0.0
260,1696254924516,0.47753906,-0.18261719,0.8339844,0.0625,0.0625,-0.125,0.0,0.0,0.0
261,1696254924556,0.4736328,-0.1875,0.83984375,0.1875,-0.03125,-0.0625,22.9375,29.75,-193.25
262,1696254924596,0.4736328,-0.18847656,0.83203125,-0.0625,-0.15625,-0.125,0.0,0.0,0.0
263,1696254924636,0.4765625,-0.1875,0.8300781,0.0,0.0625,-0.0625,0.0,0.0,0.0
264,1696254924676,0.46875,-0.18945312,0.83984375,-0.0625,-0.15625,0.0,0.0,0.0,0.0
265,1696254924716,0.4794922,-0.17578125,0.8300781,0.125,0.0,0.0,0.0,0.0,0.0
266,1696254924756,0.46679688,-0.17773438,0.82910156,0.0,-0.03125,0.0,0.0,0.0,0.0
267,1696254924796,0.4638672,-0.18066406,0.84765625,-0.0625,-0.03125,0.0,0.0,0.0,0.0
268,1696254924836,0.46972656,-0.18359375,0.82128906,0.0,0.0,0.0,0.0,0.0,0.0
269,1696254924876,0.4736328,-0.18457031,0.8496094,-0.0625,-0.09375,-0.0625,0.0,0.0,0.0
270,1696254924916,0.4765625,-0.1796875,0.8417969,-0.0625,-0.03125,-0.0625,0.0,0.0,0.0
271,1696254924956,0.47753906,-0.17773438,0.8378906,-0.125,0.0,0.0625,0.0,0.0,0.0
272,1696254924996,0.484375,-0.1796875,0.8486328,0.0,0.0625,0.0625,0.0,0.0,0.0
273,1696254925036,0.4638672,-0.1875,0.84375,-0.0625,0.0625,-0.0625,23.5625,29.875,-192.375
274,1696254925076,0.4658203,-0.17871094,0.83691406,-0.125,-0.21875,0.0625,0.0,0.0,0.0
275,1696254925116,0.47851562,-0.18164062,0.83203125,-0.25,-0.09375,-0.125,0.0,0.0,0.0
276,1696254925156,0.47460938,-0.18066406,0.8544922,-0.1875,-0.15625,0.0,0.0,0.0,0.0
277,1696254925196,0.4609375,-0.18066406,0.82910156,0.0,0.0,0.0,0.0,0.0,0.0
278,1696254925236,0.46484375,-0.18164062,0.83984375,-0.125,0.0,0.0,0.0,0.0,0.0
279,1696254925276,0.46484375,-0.1875,0.8417969,0.1875,-0.09375,-0.0625,0.0,0.0,0.0
280,1696254925316,0.4794922,-0.1796875,0.8515625,0.0,0.0625,-0.125,0.0,0.0,0.0
281,1696254925356,0.47265625,-0.18066406,0.8466797,0.1875,0.0,-0.125,0.0,0.0,0.0
282,1696254925396,0.47558594,-0.18652344,0.8378906,-0.0625,-0.15625,-0.125,0.0,0.0,0.0
283,1696254925436,0.47851562,-0.18261719,0.8408203,-0.0625,-0.03125,0.0625,0.0,0.0,0.0
284,1696254925476,0.47851562,-0.18066406,0.8339844,0.1875,0.0625,0.0625,0.0,0.0,0.0
285,1696254925516,0.46777344,-0.17871094,0.82421875,-0.0625,-0.15625,0.125,0.0,0.0,0.0
286,1696254925556,0.47070312,-0.1875,0.8330078,-0.0625,-0.03125,-0.0625,25.0625,29.75,-191.4375
287,1696254925596,0.46972656,-0.18847656,0.83691406,-0.0625,-0.34375,0.125,0.0,0.0,0.0
288,1696254925636,0.4716797,-0.17871094,0.8330078,-0.0625,0.0,0.0,0.0,0.0,0.0
289,1696254925676,0.46875,-0.18261719,0.8261719,-0.0625,-0.09375,0.0,0.0,0.0,0.0
290,1696254925716,0.46972656,-0.18261719,0.83984375,0.0625,0.0,0.1875,0.0,0.0,0.0
291,1696254925756,0.46875,-0.17675781,0.84375,-0.0625,-0.03125,0.0625,0.0,0.0,0.0
292,1696254925796,0.47070312,-0.18457031,0.828125,0.0,0.125,0.0625,0.0,0.0,0.0
293,1696254925836,0.47851562,-0.17480469,0.8378906,-0.0625,-0.09375,0.0625,0.0,0.0,0.0
294,1696254925876,0.46484375,-0.18554688,0.8417969,-0.125,0.0625,0.125,0.0,0.0,0.0
295,1696254925916,0.4765625,-0.18457031,0.8535156,-0.1875,-0.21875,0.1875,0.0,0.0,0.0
296,1696254925956,0.4716797,-0.17773438,0.8359375,-0.25,-0.09375,0.0625,0.0,0.0,0.0
297,1696254925996,0.47265625,-0.18457031,0.84277344,-0.375,-0.09375,0.0,0.0,0.0,0.0
298,1696254926036,0.4736328,-0.19628906,0.8408203,0.25,0.0,0.125,24.0,28.6875,-191.875
299,1696254926076,0.4658203,-0.17871094,0.8300781,-0.25,-0.03125,0.0625,0.0,0.0,0.0
300,1696254926116,0.46679688,-0.17578125,0.8310547,0.1875,-0.09375,0.125,0.0,0.0,0.0
301,1696254926156,0.47460938,-0.18066406,0.83691406,-0.0625,-0.21875,0.0,0.0,0.0,0.0
302,1696254926196,0.47558594,-0.18847656,0.8144531,0.1875,0.0,0.0,0.0,0.0,0.0
303,1696254926236,0.4736328,-0.17675781,0.83691406,0.0625,-0.21875,0.25,0.0,0.0,0.0
304,1696254926276,0.47265625,-0.17382812,0.84375,-0.125,-0.09375,0.0625,0.0,0.0,0.0
305,1696254926316,0.47070312,-0.1796875,0.8486328,0.125,0.125,0.125,0.0,0.0,0.0
306,1696254926356,0.4765625,-0.18652344,0.84765625,0.0,0.0,0.0,0.0,0.0,0.0
307,1696254926396,0.4765625,-0.18066406,0.8378906,-0.0625,-0.21875,-0.0625,0.0,0.0,0.0
308,1696254926436,0.48046875,-0.17871094,0.83496094,-0.0625,-0.15625,0.1875,0.0,0.0,0.0
309,1696254926476,0.47558594,-0.19042969,0.8515625,-0.125,-0.15625,0.0625,0.0,0.0,0.0
310,1696254926516,0.47851562,-0.17773438,0.83984375,-0.125,-0.03125,0.0625,0.0,0.0,0.0
311,1696254926556,0.4716797,-0.1875,0.8310547,-0.0625,-0.09375,0.0625,24.125,28.5625,-192.625
312,1696254926596,0.46777344,-0.1875,0.8408203,0.125,0.0625,0.1875,0.0,0.0,0.0
313,1696254926636,0.4658203,-0.18066406,0.8535156,0.0625,-0.09375,0.1875,0.0,0.0,0.0
314,1696254926676,0.47558594,-0.17871094,0.83691406,-0.1875,-0.03125,0.1875,0.0,0.0,0.0
315,1696254926716,0.47070312,-0.18945312,0.84472656,-0.4375,-0.09375,0.0625,0.0,0.0,0.0
316,1696254926756,0.46484375,-0.17871094,0.83984375,-0.4375,-0.21875,-0.0625,0.0,0.0,0.0
317,1696254926796,0.48046875,-0.19042969,0.8300781,-0.125,-0.03125,0.0625,0.0,0.0,0.0
318,1696254926836,0.4765625,-0.18457031,0.8388672,0.0,0.0,0.25,0.0,0.0,0.0
319,1696254926876,0.4658203,-0.19335938,0.8417969,-0.3125,-0.15625,0.125,0.0,0.0,0.0
320,1696254926916,0.46875,-0.17675781,0.84277344,0.125,-0.03125,0.0,0.0,0.0,0.0
321,1696254926956,0.47851562,-0.18164062,0.85058594,0.0,-0.09375,0.0,0.0,0.0,0.0
322,1696254926996,0.47460938,-0.18066406,0.8378906,-0.0625,-0.09375,-0.125,0.0,0.0,0.0
323,1696254927036,0.47753906,-0.19042969,0.8417969,0.0625,-0.15625,0.0625,24.875,29.5625,-192.0625
324,1696254927076,0.46777344,-0.18457031,0.8310547,0.0,0.0,0.125,0.0,0.0,0.0
325,1696254927116,0.4736328,-0.18066406,0.85058594,-0.0625,0.0,-0.0625,0.0,0.0,0.0
326,1696254927156,0.4638672,-0.18261719,0.8359375,-0.0625,-0.03125,0.0625,0.0,0.0,0.0
327,1696254927196,0.4716797,-0.18066406,0.8378906,-0.125,0.0625,-0.0625,0.0,0.0,0.0
328,1696254927236,0.47558594,-0.17675781,0.8359375,0.0,-0.03125,0.125,0.0,0.0,0.0
329,1696254927276,0.47265625,-0.18554688,0.84277344,-0.1875,-0.03125,0.0,0.0,0.0,0.0
330,1696254927316,0.4765625,-0.1875,0.8339844,-0.0625,-0.03125,-0.0625,0.0,0.0,0.0
331,1696254927356,0.4716797,-0.18164062,0.83496094,-0.125,-0.09375,-0.0625,0.0,0.0,0.0
332,1696254927396,0.47265625,-0.18554688,0.82910156,0.0625,-0.03125,-0.0625,0.0,0.0,0.0
333,1696254927436,0.47265625,-0.18261719,0.8339844,-0.0625,0.125,-0.0625,0.0,0.0,0.0
334,1696254927476,0.47265625,-0.18554688,0.84765625,-0.3125,0.3125,0.0,0.0,0.0,0.0
335,1696254927516,0.47558594,-0.18457031,0.85253906,-0.0625,-0.21875,0.0,0.0,0.0,0.0
336,1696254927556,0.47070312,-0.18164062,0.8417969,-0.5,-0.15625,-0.0625,25.0625,28.6875,-191.875
337,1696254927596,0.4765625,-0.18457031,0.8564453,-0.3125,-0.09375,-0.1875,0.0,0.0,0.0
338,1696254927636,0.47753906,-0.18066406,0.8388672,0.0625,0.0,-0.0625,0.0,0.0,0.0
339,1696254927676,0.46972656,-0.1875,0.85058594,-0.125,-0.21875,0.0,0.0,0.0,0.0
340,1696254927716,0.46875,-0.18261719,0.84375,0.3125,-0.03125,-0.0625,0.0,0.0,0.0
341,1696254927756,0.46972656,-0.18652344,0.83984375,-0.125,-0.21875,-0.125,0.0,0.0,0.0
342,1696254927796,0.46289062,-0.17578125,0.8388672,0.125,0.125,-0.1875,0.0,0.0,0.0
343,1696254927836,0.4736328,-0.18164062,0.8466797,0.0,0.0,-0.125,0.0,0.0,0.0
344,1696254927876,0.47265625,-0.17675781,0.83496094,-0.0625,-0.03125,-0.125,0.0,0.0,0.0
345,1696254927916,0.47851562,-0.1875,0.8330078,0.125,0.125,0.0,0.0,0.0,0.0
346,1696254927956,0.4736328,-0.18066406,0.84277344,0.1875,-0.03125,-0.0625,0.0,0.0,0.0
347,1696254927996,0.46875,-0.17578125,0.83691406,-0.0625,-0.09375,0.0,0.0,0.0,0.0
348,1696254928036,0.46679688,-0.18945312,0.85058594,-0.0625,-0.03125,0.0,25.5,28.6875,-192.1875
349,1696254928076,0.46972656,-0.19335938,0.8359375,-0.1875,-0.09375,0.125,0.0,0.0,0.0
350,1696254928116,0.46777344,-0.19238281,0.83203125,0.25,0.0625,0.0625,0.0,0.0,0.0
351,1696254928156,0.46679688,-0.1875,0.84277344,-0.0625,-0.34375,0.0,0.0,0.0,0.0
352,1696254928196,0.47851562,-0.17285156,0.8496094,-0.1875,-0.03125,-0.0625,0.0,0.0,0.0
353,1696254928236,0.47558594,-0.17382812,0.8486328,-0.1875,-0.09375,0.125,0.0,0.0,0.0
354,1696254928276,0.4716797,-0.18261719,0.8417969,-0.125,0.125,0.0,0.0,0.0,0.0
355,1696254928316,0.46875,-0.18261719,0.8486328,-0.125,-0.21875,0.0,0.0,0.0,0.0
356,1696254928356,0.4794922,-0.18164062,0.85058594,-0.3125,-0.34375,0.0,0.0,0.0,0.0
357,1696254928396,0.46875,-0.18261719,0.8310547,-0.25,-0.03125,-0.125,0.0,0.0,0.0
358,1696254928436,0.46875,-0.17871094,0.8457031,-0.0625,-0.21875,0.0625,0.0,0.0,0.0
359,1696254928476,0.46289062,-0.18554688,0.82128906,0.0,0.0625,-0.125,0.0,0.0,0.0
360,1696254928516,0.46875,-0.1796875,0.83496094,0.0,-0.09375,-0.0625,0.0,0.0,0.0
361,1696254928556,0.46875,-0.17773438,0.83496094,0.0,-0.09375,-0.1875,25.0625,29.4375,-192.5
362,1696254928596,0.4638672,-0.18847656,0.83496094,0.125,-0.09375,0.0625,0.0,0.0,0.0
363,1696254928636,0.46679688,-0.1796875,0.8417969,0.15625,-0.28125,-0.09375,0.0,0.0,0.0
364,1696254928676,0.48242188,-0.17382812,0.85058594,-0.03125,0.0,-0.03125,0.0,0.0,0.0
365,1696254928716,0.46875,-0.17773438,0.83203125,0.03125,0.0625,0.09375,0.0,0.0,0.0
366,1696254928756,0.47558594,-0.1796875,0.83984375,0.09375,0.0625,-0.03125,0.0,0.0,0.0
367,1696254928796,0.46875,-0.18457031,0.8417969,-0.21875,-0.09375,0.09375,0.0,0.0,0.0
368,1696254928836,0.46875,-0.18164062,0.84277344,-0.03125,-0.0625,0.03125,0.0,0.0,0.0
369,1696254928876,0.47753906,-0.18457031,0.83496094,-0.03125,-0.09375,0.09375,0.0,0.0,0.0
370,1696254928916,0.4736328,-0.1875,0.8408203,0.03125,0.0,-0.15625,0.0,0.0,0.0
371,1696254928956,0.4736328,-0.18554688,0.8408203,0.03125,0.0,0.21875,0.0,0.0,0.0
372,1696254928996,0.4736328,-0.18261719,0.8408203,-0.03125,-0.0625,0.15625,0.0,0.0,0.0
373,1696254929036,0.4736328,-0.17675781,0.8310547,0.03125,0.0625,-0.03125,23.25,28.375,-192.5
374,1696254929076,0.47753906,-0.18554688,0.8222656,-0.03125,-0.09375,0.09375,0.0,0.0,0.0
375,1696254929116,0.46972656,-0.17773438,0.8457031,-0.03125,0.125,0.09375,0.0,0.0,0.0
376,1696254929156,0.47265625,-0.19042969,0.8466797,-0.3125,0.0,0.28125,0.0,0.0,0.0
377,1696254929196,0.46191406,-0.1875,0.8457031,-0.21875,-0.34375,-0.03125,0.0,0.0,0.0
378,1696254929236,0.4716797,-0.17871094,0.8388672,-0.21875,0.0,-0.09375,0.0,0.0,0.0
379,1696254929276,0.47265625,-0.18652344,0.84472656,-0.09375,0.0,0.09375,0.0,0.0,0.0
380,1696254929316,0.4658203,-0.18164062,0.8330078,-0.03125,0.0,0.09375,0.0,0.0,0.0
381,1696254929356,0.47265625,-0.18847656,0.8535156,0.03125,0.0625,0.03125,0.0,0.0,0.0
382,1696254929396,0.46875,-0.1796875,0.83691406,0.21875,-0.21875,0.09375,0.0,0.0,0.0
383,1696254929436,0.46972656,-0.18847656,0.83203125,0.03125,0.0,0.03125,0.0,0.0,0.0
384,1696254929476,0.46484375,-0.17480469,0.8261719,0.03125,-0.09375,0.03125,0.0,0.0,0.0
385,1696254929516,0.47460938,-0.17480469,0.8330078,-0.03125,-0.15625,-0.09375,0.0,0.0,0.0
386,1696254929556,0.47265625,-0.17871094,0.84765625,-0.03125,0.0,0.21875,23.5625,29.875,-192.0625
387,1696254929596,0.46777344,-0.17773438,0.84277344,-0.03125,0.0,0.15625,0.0,0.0,0.0
388,1696254929636,0.46484375,-0.18457031,0.8388672,-0.03125,0.0,0.15625,0.0,0.0,0.0
389,1696254929676,0.47265625,-0.17871094,0.8408203,-0.09375,-0.09375,0.15625,0.0,0.0,0.0
390,1696254929716,0.4794922,-0.18847656,0.83984375,-0.03125,-0.0625,0.09375,0.0,0.0,0.0
391,1696254929756,0.4716797,-0.18066406,0.8378906,-0.21875,0.0,0.15625,0.0,0.0,0.0
392,1696254929796,0.46972656,-0.18066406,0.8486328,0.15625,0.1875,0.09375,0.0,0.0,0.0
393,1696254929836,0.4658203,-0.18554688,0.8339844,-0.09375,-0.0625,0.03125,0.0,0.0,0.0
394,1696254929876,0.46679688,-0.18554688,0.83984375,-0.03125,-0.0625,0.03125,0.0,0.0,0.0
395,1696254929916,0.46777344,-0.17578125,0.8310547,0.03125,0.125,0.21875,0.0,0.0,0.0
396,1696254929956,0.46484375,-0.18164062,0.83984375,-0.21875,0.0,0.28125,0.0,0.0,0.0
397,1696254929996,0.4765625,-0.18652344,0.83203125,-0.09375,-0.09375,0.09375,0.0,0.0,0.0
398,1696254930036,0.46875,-0.17871094,0.8417969,-0.5,-0.15625,0.03125,23.25,26.875,-191.4375
399,1696254930076,0.4736328,-0.18164062,0.85253906,-0.25,0.0,0.09375,0.0,0.0,0.0
400,1696254930116,0.4716797,-0.19335938,0.82128906,0.21875,0.125,0.15625,0.0,0.0,0.0
401,1696254930156,0.47265625,-0.18945312,0.83691406,-0.09375,-0.0625,0.03125,0.0,0.0,0.0
402,1696254930196,0.4736328,-0.18066406,0.8417969,0.21875,-0.09375,0.03125,0.0,0.0,0.0
403,1696254930236,0.46679688,-0.17773438,0.84765625,-0.09375,0.0,0.03125,0.0,0.0,0.0
404,1696254930276,0.47070312,-0.17871094,0.8574219,-0.03125,-0.0625,-0.03125,0.0,0.0,0.0
405,1696254930316,0.47070312,-0.18847656,0.8408203,-0.03125,-0.0625,-0.03125,0.0,0.0,0.0
406,1696254930356,0.4716797,-0.18261719,0.8339844,-0.03125,0.0,-0.03125,0.0,0.0,0.0
407,1696254930396,0.46972656,-0.18164062,0.83496094,0.09375,0.0625,-0.03125,0.0,0.0,0.0
408,1696254930436,0.47265625,-0.17773438,0.83984375,0.03125,0.0625,0.03125,0.0,0.0,0.0
409,1696254930476,0.46679688,-0.18847656,0.8417969,-0.09375,-0.09375,0.03125,0.0,0.0,0.0
410,1696254930516,0.46484375,-0.18261719,0.84277344,-0.09375,-0.09375,0.09375,25.0625,30.5,-192.9375
411,1696254930556,0.46972656,-0.18457031,0.8222656,0.09375,0.0625,0.15625,0.0,0.0,0.0
412,1696254930596,0.47265625,-0.1875,0.83984375,-0.03125,-0.09375,0.09375,0.0,0.0,0.0
413,1696254930636,0.47558594,-0.19042969,0.8339844,-0.03125,0.0625,-0.09375,0.0,0.0,0.0
414,1696254930676,0.4658203,-0.17773438,0.84375,-0.03125,0.0625,-0.09375,0.0,0.0,0.0
415,1696254930716,0.4765625,-0.1875,0.8564453,0.15625,0.0625,-0.03125,0.0,0.0,0.0
416,1696254930756,0.47460938,-0.17871094,0.8457031,-0.09375,0.125,-0.09375,0.0,0.0,0.0
417,1696254930796,0.47753906,-0.18261719,0.85546875,-0.03125,0.0,-0.21875,0.0,0.0,0.0
418,1696254930836,0.47265625,-0.18164062,0.83691406,-0.375,-0.0625,-0.15625,0.0,0.0,0.0
419,1696254930876,0.47460938,-0.18652344,0.83203125,-0.25,-0.0625,-0.09375,0.0,0.0,0.0
420,1696254930916,0.46777344,-0.18457031,0.8300781,0.21875,0.125,-0.03125,0.0,0.0,0.0
421,1696254930956,0.46289062,-0.18652344,0.84277344,-0.03125,-0.0625,-0.09375,0.0,0.0,0.0
422,1696254930996,0.46484375,-0.18261719,0.8496094,0.15625,0.1875,-0.15625,0.0,0.0,0.0
423,1696254931036,0.4638672,-0.1796875,0.8388672,-0.03125,-0.0625,-0.40625,25.1875,29.875,-192.625
424,1696254931076,0.47558594,-0.17773438,0.8339844,0.03125,-0.09375,-0.21875,0.0,0.0,0.0
425,1696254931116,0.47851562,-0.17480469,0.84375,0.09375,0.0,0.03125,0.0,0.0,0.0
426,1696254931156,0.47070312,-0.18847656,0.84277344,-0.03125,-0.09375,-0.09375,0.0,0.0,0.0
427,1696254931196,0.46972656,-0.17675781,0.8339844,0.03125,0.0625,0.03125,0.0,0.0,0.0
428,1696254931236,0.46679688,-0.18066406,0.84472656,0.03125,-0.0625,-0.09375,0.0,0.0,0.0
429,1696254931276,0.46972656,-0.17578125,0.85058594,0.03125,0.0,-0.0625,0.0,0.0,0.0
430,1696254931316,0.4658203,-0.18359375,0.8466797,0.03125,-0.0625,0.0625,0.0,0.0,0.0
431,1696254931356,0.47070312,-0.18164062,0.83984375,-0.09375,0.125,-0.0625,0.0,0.0,0.0
432,1696254931396,0.47558594,-0.17773438,0.8339844,-0.03125,0.0,0.0625,0.0,0.0,0.0
433,1696254931436,0.46777344,-0.18554688,0.8457031,0.03125,0.125,-0.0625,0.0,0.0,0.0
434,1696254931476,0.46679688,-0.17578125,0.8496094,0.03125,0.0625,0.0625,0.0,0.0,0.0
435,1696254931516,0.4716797,-0.18652344,0.8496094,-0.09375,-0.0625,-0.0625,24.75,29.4375,-192.9375
436,1696254931556,0.46777344,-0.17675781,0.8515625,-0.03125,0.0,0.0,0.0,0.0,0.0
437,1696254931596,0.4580078,-0.17675781,0.85546875,-0.1875,-0.0625,0.0625,0.0,0.0,0.0
438,1696254931636,0.46875,-0.17285156,0.84375,-0.3125,0.0625,0.0,0.0,0.0,0.0
439,1696254931676,0.46679688,-0.17871094,0.8359375,-0.09375,-0.125,0.125,0.0,0.0,0.0
440,1696254931716,0.4765625,-0.17285156,0.8330078,-0.4375,-0.125,-0.0625,0.0,0.0,0.0
441,1696254931756,0.47558594,-0.18554688,0.83496094,-0.03125,0.0,0.0,0.0,0.0,0.0
442,1696254931796,0.46875,-0.16894531,0.8339844,-0.09375,-0.0625,0.0,0.0,0.0,0.0
443,1696254931836,0.46777344,-0.1796875,0.8388672,0.34375,0.125,-0.1875,0.0,0.0,0.0
444,1696254931876,0.47460938,-0.18554688,0.84375,0.15625,-0.1875,-0.0625,0.0,0.0,0.0
445,1696254931916,0.4736328,-0.17773438,0.8564453,0.03125,0.0,-0.0625,0.0,0.0,0.0
446,1696254931956,0.47070312,-0.18359375,0.8535156,0.21875,0.125,-0.0625,0.0,0.0,0.0
447,1696254931996,0.47070312,-0.1875,0.8457031,-0.03125,-0.125,-0.0625,0.0,0.0,0.0
448,1696254932036,0.46484375,-0.17480469,0.83691406,0.03125,0.0625,0.0,22.8125,29.5625,-192.625
449,1696254932076,0.46972656,-0.18066406,0.8417969,0.21875,0.125,0.0,0.0,0.0,0.0
450,1696254932116,0.46972656,-0.18359375,0.8466797,-0.03125,-0.0625,0.0625,0.0,0.0,0.0
451,1696254932156,0.47558594,-0.1796875,0.83984375,-0.09375,-0.3125,0.0,0.0,0.0,0.0
452,1696254932196,0.47070312,-0.18554688,0.83496094,-0.15625,-0.25,0.125,0.0,0.0,0.0
453,1696254932236,0.47460938,-0.18359375,0.8378906,-0.09375,0.0,0.125,0.0,0.0,0.0
454,1696254932276,0.46972656,-0.18457031,0.85058594,0.03125,0.0625,0.0625,0.0,0.0,0.0
455,1696254932316,0.47851562,-0.18066406,0.8378906,0.21875,0.125,0.0,0.0,0.0,0.0
456,1696254932356,0.47460938,-0.1796875,0.85546875,-0.15625,0.0,-0.0625,0.0,0.0,0.0
457,1696254932396,0.46679688,-0.18066406,0.8359375,-0.03125,0.0,0.0,0.0,0.0,0.0
458,1696254932436,0.46972656,-0.18554688,0.8564453,0.03125,0.0625,0.0625,0.0,0.0,0.0
459,1696254932476,0.4716797,-0.18164062,0.84277344,-0.1875,0.125,0.125,0.0,0.0,0.0
460,1696254932516,0.47460938,-0.18652344,0.84375,-0.09375,-0.125,0.125,23.6875,29.0,-193.25
461,1696254932556,0.46972656,-0.17675781,0.8417969,-0.3125,-0.3125,-0.0625,0.0,0.0,0.0
462,1696254932596,0.4814453,-0.17285156,0.8359375,-0.25,-0.125,-0.1875,0.0,0.0,0.0
463,1696254932636,0.4658203,-0.18164062,0.8388672,0.09375,0.0,0.125,0.0,0.0,0.0
464,1696254932676,0.46679688,-0.18652344,0.83984375,-0.25,0.0,0.125,0.0,0.0,0.0
465,1696254932716,0.46777344,-0.18164062,0.83984375,-0.03125,-0.1875,-0.0625,0.0,0.0,0.0
466,1696254932756,0.46289062,-0.1796875,0.82128906,-0.09375,-0.1875,-0.0625,0.0,0.0,0.0
467,1696254932796,0.47265625,-0.18945312,0.8300781,0.28125,0.125,0.0,0.0,0.0,0.0
468,1696254932836,0.47460938,-0.19238281,0.8486328,-0.03125,-0.1875,0.0,0.0,0.0,0.0
469,1696254932876,0.4658203,-0.18554688,0.83496094,0.03125,0.125,0.0,0.0,0.0,0.0
470,1696254932916,0.46777344,-0.18359375,0.8388672,0.09375,0.1875,0.0625,0.0,0.0,0.0
471,1696254932956,0.47460938,-0.18164062,0.8388672,0.09375,0.0625,0.0,0.0,0.0,0.0
472,1696254932996,0.4794922,-0.18359375,0.8417969,-0.03125,0.0,0.125,0.0,0.0,0.0
473,1696254933036,0.47070312,-0.17578125,0.8417969,-0.03125,-0.125,0.0,23.6875,30.0625,-192.1875
474,1696254933076,0.47265625,-0.17773438,0.8408203,-0.25,-0.125,0.125,0.0,0.0,0.0
475,1696254933116,0.46191406,-0.1796875,0.8486328,-0.03125,-0.125,0.0625,0.0,0.0,0.0
476,1696254933156,0.47558594,-0.18164062,0.8388672,0.09375,0.1875,0.125,0.0,0.0,0.0
477,1696254933196,0.48046875,-0.18164062,0.83984375,0.03125,0.0,0.125,0.0,0.0,0.0
478,1696254933236,0.47070312,-0.17675781,0.8359375,-0.09375,-0.125,-0.0625,0.0,0.0,0.0
479,1696254933276,0.47265625,-0.17871094,0.8408203,-0.15625,0.0,0.0625,0.0,0.0,0.0
480,1696254933316,0.4765625,-0.18652344,0.84277344,-0.15625,-0.0625,0.1875,0.0,0.0,0.0
481,1696254933356,0.46484375,-0.18164062,0.8378906,-0.09375,0.125,0.1875,0.0,0.0,0.0
482,1696254933396,0.4736328,-0.18652344,0.84472656,-0.09375,-0.1875,0.125,0.0,0.0,0.0
483,1696254933436,0.47070312,-0.18554688,0.8417969,-0.3125,-0.125,0.1875,0.0,0.0,0.0
484,1696254933476,0.46875,-0.18457031,0.8388672,-0.15625,-0.0625,0.1875,0.0,0.0,0.0
485,1696254933516,0.4716797,-0.18359375,0.8310547,-0.03125,-0.0625,0.0625,24.625,28.5625,-193.375
486,1696254933556,0.4658203,-0.18066406,0.8466797,0.03125,0.0,0.0625,0.0,0.0,0.0
487,1696254933596,0.4765625,-0.17480469,0.84277344,0.03125,-0.1875,0.0625,0.0,0.0,0.0
488,1696254933636,0.4658203,-0.17285156,0.8310547,-0.03125,0.0625,-0.0625,0.0,0.0,0.0
489,1696254933676,0.47265625,-0.19335938,0.84375,0.15625,0.0,0.0625,0.0,0.0,0.0
490,1696254933716,0.47265625,-0.19238281,0.8330078,-0.03125,-0.1875,0.0,0.0,0.0,0.0
491,1696254933756,0.47753906,-0.1796875,0.8466797,0.15625,0.1875,0.125,0.0,0.0,0.0
492,1696254933796,0.46679688,-0.1796875,0.83691406,-0.03125,0.0,0.0625,0.0,0.0,0.0
493,1696254933836,0.47851562,-0.18554688,0.8330078,0.03125,0.125,0.0625,0.0,0.0,0.0
494,1696254933876,0.46484375,-0.17675781,0.8466797,0.09375,0.0,0.125,0.0,0.0,0.0
495,1696254933916,0.47265625,-0.18261719,0.84472656,-0.09375,0.0,-0.0625,0.0,0.0,0.0
496,1696254933956,0.47265625,-0.18457031,0.8408203,-0.15625,-0.125,0.0,0.0,0.0,0.0
497,1696254933996,0.46777344,-0.18847656,0.8408203,0.03125,0.0,0.0625,0.0,0.0,0.0
498,1696254934036,0.47558594,-0.18261719,0.82128906,0.03125,0.125,-0.0625,24.0,29.4375,-193.25
499,1696254934076,0.47851562,-0.18359375,0.8378906,-0.03125,0.0,-0.125,0.0,0.0,0.0
500,1696254934116,0.47070312,-0.18457031,0.8466797,0.03125,0.0,0.0,0.0,0.0,0.0
501,1696254934156,0.4638672,-0.18554688,0.8496094,-0.03125,0.125,0.125,0.0,0.0,0.0
502,1696254934196,0.4736328,-0.1796875,0.8378906,-0.15625,0.1875,0.0,0.0,0.0,0.0
503,1696254934236,0.46777344,-0.18261719,0.8457031,-0.15625,-0.375,-0.1875,0.0,0.0,0.0
504,1696254934276,0.4716797,-0.18066406,0.8359375,-0.25,0.0,-0.0625,0.0,0.0,0.0
505,1696254934316,0.47265625,-0.18457031,0.82714844,0.03125,0.0625,0.0625,0.0,0.0,0.0
506,1696254934356,0.46484375,-0.18554688,0.82910156,0.09375,-0.0625,-0.0625,0.0,0.0,0.0
507,1696254934396,0.4638672,-0.18652344,0.82910156,-0.09375,-0.1875,-0.0625,0.0,0.0,0.0
508,1696254934436,0.46777344,-0.19042969,0.8417969,0.15625,-0.0625,-0.1875,0.0,0.0,0.0
509,1696254934476,0.4794922,-0.18554688,0.8417969,0.09375,-0.0625,-0.125,0.0,0.0,0.0
510,1696254934516,0.47070312,-0.1796875,0.83984375,-0.03125,-0.0625,-0.125,23.5625,28.0625,-191.75
511,1696254934556,0.4736328,-0.19335938,0.8408203,0.21875,-0.0625,-0.125,0.0,0.0,0.0
512,1696254934596,0.4765625,-0.1796875,0.84375,-0.03125,0.0,-0.0625,0.0,0.0,0.0
513,1696254934636,0.46777344,-0.17675781,0.83691406,0.03125,0.125,-0.125,0.0,0.0,0.0
514,1696254934676,0.4716797,-0.17871094,0.8310547,0.03125,-0.0625,0.0,0.0,0.0,0.0
515,1696254934716,0.48046875,-0.1875,0.8496094,-0.03125,0.0,-0.125,0.0,0.0,0.0
516,1696254934756,0.46191406,-0.18554688,0.8378906,-0.03125,-0.125,-0.0625,0.0,0.0,0.0
517,1696254934796,0.47070312,-0.18261719,0.85253906,-0.15625,-0.125,0.0,0.0,0.0,0.0
518,1696254934836,0.47851562,-0.18261719,0.8486328,0.15625,0.0625,0.0,0.0,0.0,0.0
519,1696254934876,0.4736328,-0.18261719,0.82910156,-0.03125,-0.125,0.0,0.0,0.0,0.0
520,1696254934916,0.46679688,-0.18457031,0.84765625,0.03125,0.125,-0.125,0.0,0.0,0.0
521,1696254934956,0.46875,-0.18164062,0.8544922,-0.09375,0.0,-0.125,0.0,0.0,0.0
522,1696254934996,0.46875,-0.18164062,0.8388672,-0.1875,-0.0625,0.125,0.0,0.0,0.0
523,1696254935036,0.46777344,-0.18164062,0.84765625,-0.09375,0.1875,0.0625,24.75,29.75,-193.25
524,1696254935076,0.47070312,-0.18847656,0.8378906,-0.25,-0.25,0.0,0.0,0.0,0.0
525,1696254935116,0.47558594,-0.18652344,0.8339844,-0.25,-0.125,-0.0625,0.0,0.0,0.0
526,1696254935156,0.47460938,-0.17871094,0.85253906,-0.1875,-0.125,0.0,0.0,0.0,0.0
527,1696254935196,0.46972656,-0.18652344,0.8359375,0.0,-0.03125,0.09375,0.0,0.0,0.0
528,1696254935236,0.45996094,-0.19042969,0.81933594,0.125,0.0625,-0.03125,0.0,0.0,0.0
529,1696254935276,0.47265625,-0.17773438,0.84375,0.125,-0.15625,-0.03125,0.0,0.0,0.0
530,1696254935316,0.4765625,-0.18359375,0.84375,0.0625,-0.09375,-0.09375,0.0,0.0,0.0
531,1696254935356,0.46875,-0.1875,0.8388672,0.0,0.03125,-0.15625,0.0,0.0,0.0
532,1696254935396,0.46875,-0.18261719,0.8466797,0.125,-0.15625,0.03125,0.0,0.0,0.0
533,1696254935436,0.4736328,-0.17382812,0.8388672,0.0625,0.0625,0.03125,0.0,0.0,0.0
534,1696254935476,0.46777344,-0.18066406,0.8261719,0.1875,0.0625,-0.03125,0.0,0.0,0.0
535,1696254935516,0.4765625,-0.1796875,0.84277344,0.0,-0.03125,0.03125,24.875,29.875,-194.4375
536,1696254935556,0.4765625,-0.1796875,0.84765625,-0.1875,-0.21875,-0.15625,0.0,0.0,0.0
537,1696254935596,0.47460938,-0.18652344,0.8408203,0.0,0.03125,0.09375,0.0,0.0,0.0
538,1696254935636,0.46777344,-0.18359375,0.8486328,-0.25,0.03125,0.15625,0.0,0.0,0.0
539,1696254935676,0.4736328,-0.18945312,0.83203125,0.125,0.03125,0.15625,0.0,0.0,0.0
540,1696254935716,0.46679688,-0.19238281,0.83691406,0.125,-0.03125,0.15625,0.0,0.0,0.0
541,1696254935756,0.46972656,-0.18457031,0.8417969,0.125,0.0625,0.09375,0.0,0.0,0.0
542,1696254935796,0.46972656,-0.18457031,0.83496094,0.0,-0.09375,-0.03125,0.0,0.0,0.0
543,1696254935836,0.48046875,-0.1796875,0.8466797,0.0625,-0.03125,-0.03125,0.0,0.0,0.0
544,1696254935876,0.47265625,-0.18554688,0.8339844,-0.125,-0.03125,0.21875,0.0,0.0,0.0
545,1696254935916,0.46679688,-0.1796875,0.83984375,-0.125,0.1875,0.09375,0.0,0.0,0.0
546,1696254935956,0.47070312,-0.18652344,0.84375,0.1875,-0.03125,0.09375,0.0,0.0,0.0
547,1696254935996,0.47265625,-0.18164062,0.8408203,-0.25,-0.21875,0.09375,0.0,0.0,0.0
548,1696254936036,0.4736328,-0.17773438,0.8408203,-0.25,-0.03125,0.03125,24.75,29.4375,-190.875
549,1696254936076,0.47460938,-0.18261719,0.8330078,0.0625,-0.03125,0.21875,0.0,0.0,0.0
550,1696254936116,0.47460938,-0.18457031,0.8535156,0.0,0.125,-0.09375,0.0,0.0,0.0
551,1696254936156,0.4716797,-0.18554688,0.84765625,0.3125,0.03125,0.03125,0.0,0.0,0.0
552,1696254936196,0.46777344,-0.17871094,0.83496094,0.0,-0.28125,-0.09375,0.0,0.0,0.0
553,1696254936236,0.47460938,-0.18164062,0.84765625,0.125,0.03125,0.03125,0.0,0.0,0.0
554,1696254936276,0.46484375,-0.17578125,0.8330078,0.0,-0.15625,-0.03125,0.0,0.0,0.0
555,1696254936316,0.46875,-0.19042969,0.8388672,0.125,0.0625,0.09375,0.0,0.0,0.0
556,1696254936356,0.47753906,-0.17382812,0.8359375,0.0625,0.125,0.28125,0.0,0.0,0.0
557,1696254936396,0.47460938,-0.18359375,0.8466797,0.125,0.0625,0.03125,0.0,0.0,0.0
558,1696254936436,0.46777344,-0.1796875,0.8378906,0.125,-0.09375,0.09375,0.0,0.0,0.0
559,1696254936476,0.4765625,-0.1796875,0.8535156,-0.3125,-0.09375,0.15625,0.0,0.0,0.0
560,1696254936516,0.48046875,-0.1796875,0.83203125,0.0625,0.03125,0.15625,25.9375,28.8125,-193.6875
561,1696254936556,0.47265625,-0.18261719,0.8378906,0.0,-0.09375,0.28125,0.0,0.0,0.0
562,1696254936596,0.47070312,-0.1875,0.8300781,-0.0625,-0.03125,0.09375,0.0,0.0,0.0
563,1696254936636,0.47460938,-0.17871094,0.8388672,0.125,0.03125,0.09375,0.0,0.0,0.0
564,1696254936676,0.4736328,-0.18847656,0.8457031,-0.125,-0.03125,0.03125,0.0,0.0,0.0
565,1696254936716,0.46679688,-0.1875,0.8310547,-0.0625,-0.09375,0.09375,0.0,0.0,0.0
566,1696254936756,0.47460938,-0.18164062,0.84277344,0.1875,-0.09375,0.15625,0.0,0.0,0.0
567,1696254936796,0.46875,-0.18261719,0.83203125,-0.3125,0.03125,0.34375,0.0,0.0,0.0
568,1696254936836,0.46777344,-0.17773438,0.8417969,0.0625,0.125,0.09375,0.0,0.0,0.0
569,1696254936876,0.46484375,-0.18066406,0.8466797,-0.0625,-0.21875,0.03125,0.0,0.0,0.0
570,1696254936916,0.4765625,-0.18847656,0.83691406,-0.375,0.03125,0.09375,0.0,0.0,0.0
571,1696254936956,0.4736328,-0.18164062,0.82910156,0.125,0.0625,0.09375,0.0,0.0,0.0
572,1696254936996,0.47460938,-0.18457031,0.85253906,-0.125,-0.03125,0.15625,0.0,0.0,0.0
573,1696254937036,0.4638672,-0.17675781,0.84277344,0.1875,0.0625,-0.03125,24.0,29.4375,-192.5
574,1696254937076,0.46972656,-0.18652344,0.83496094,0.0625,-0.15625,-0.03125,0.0,0.0,0.0
575,1696254937116,0.46484375,-0.17480469,0.83496094,0.0625,0.125,0.09375,0.0,0.0,0.0
576,1696254937156,0.47460938,-0.18359375,0.83496094,0.1875,-0.15625,0.15625,0.0,0.0,0.0
577,1696254937196,0.4736328,-0.18457031,0.83496094,0.0625,-0.03125,-0.03125,0.0,0.0,0.0
578,1696254937236,0.47070312,-0.18164062,0.8408203,0.1875,0.125,0.15625,0.0,0.0,0.0
579,1696254937276,0.46777344,-0.17871094,0.8378906,0.0625,0.03125,-0.03125,0.0,0.0,0.0
580,1696254937316,0.4638672,-0.17285156,0.8339844,0.0625,0.0625,0.21875,0.0,0.0,0.0
581,1696254937356,0.47265625,-0.17871094,0.8417969,0.0625,0.03125,-0.03125,0.0,0.0,0.0
582,1696254937396,0.46777344,-0.18945312,0.84765625,0.0,-0.03125,0.09375,0.0,0.0,0.0
583,1696254937436,0.47851562,-0.1796875,0.8408203,0.0,0.03125,-0.03125,0.0,0.0,0.0
584,1696254937476,0.47265625,-0.18359375,0.8417969,0.0,0.03125,0.03125,0.0,0.0,0.0
585,1696254937516,0.47851562,-0.19042969,0.8359375,0.0625,0.125,-0.03125,25.0625,28.375,-192.1875
586,1696254937556,0.4736328,-0.18457031,0.8408203,0.0,0.1875,-0.21875,0.0,0.0,0.0
587,1696254937596,0.4736328,-0.1796875,0.83691406,0.0625,0.0625,-0.03125,0.0,0.0,0.0
588,1696254937636,0.47851562,-0.17285156,0.84765625,0.125,0.125,0.09375,0.0,0.0,0.0
589,1696254937676,0.46777344,-0.171875,0.84472656,0.0,0.1875,0.03125,0.0,0.0,0.0
590,1696254937716,0.47558594,-0.18457031,0.8251953,-0.0625,-0.21875,0.03125,0.0,0.0,0.0
591,1696254937756,0.47460938,-0.18066406,0.83984375,-0.4375,-0.15625,0.09375,0.0,0.0,0.0
592,1696254937796,0.46484375,-0.18554688,0.85253906,-0.0625,0.0625,-0.03125,0.0,0.0,0.0
593,1696254937836,0.4658203,-0.19238281,0.83496094,0.03125,0.125,-0.09375,0.0,0.0,0.0
594,1696254937876,0.47265625,-0.18847656,0.8466797,-0.03125,-0.0625,-0.09375,0.0,0.0,0.0
595,1696254937916,0.46777344,-0.1875,0.8378906,0.15625,-0.125,-0.21875,0.0,0.0,0.0
596,1696254937956,0.46679688,-0.17675781,0.8466797,0.03125,0.0,-0.09375,0.0,0.0,0.0
597,1696254937996,0.47460938,-0.18261719,0.8408203,0.28125,0.0625,-0.03125,0.0,0.0,0.0
598,1696254938036,0.4638672,-0.17871094,0.84277344,0.09375,-0.25,-0.15625,23.125,29.5625,-192.625
599,1696254938076,0.4765625,-0.18554688,0.8515625,0.03125,0.0,-0.03125,0.0,0.0,0.0
600,1696254938116,0.47070312,-0.18554688,0.84277344,0.21875,0.1875,-0.09375,0.0,0.0,0.0
601,1696254938156,0.46679688,-0.18847656,0.8359375,0.03125,0.0625,-0.03125,0.0,0.0,0.0
602,1696254938196,0.46875,-0.17773438,0.85058594,-0.125,-0.0625,-0.21875,0.0,0.0,0.0
603,1696254938236,0.47070312,-0.18066406,0.8535156,-0.09375,0.0,-0.03125,0.0,0.0,0.0
604,1696254938276,0.46875,-0.18066406,0.82910156,-0.03125,0.0625,-0.03125,0.0,0.0,0.0
605,1696254938316,0.46777344,-0.17773438,0.83984375,0.09375,0.0,0.03125,0.0,0.0,0.0
606,1696254938356,0.4658203,-0.17871094,0.8388672,-0.03125,0.0,-0.03125,0.0,0.0,0.0
607,1696254938396,0.47070312,-0.18945312,0.8378906,0.15625,0.0625,-0.21875,0.0,0.0,0.0
608,1696254938436,0.46972656,-0.17285156,0.84472656,0.03125,0.0625,-0.09375,0.0,0.0,0.0
609,1696254938476,0.47753906,-0.1796875,0.8417969,-0.09375,0.0,-0.03125,0.0,0.0,0.0
610,1696254938516,0.46191406,-0.19628906,0.8457031,-0.09375,0.1875,0.15625,24.0,29.75,-192.5
611,1696254938556,0.46875,-0.17578125,0.8486328,-0.125,0.21875,0.15625,0.0,0.0,0.0
612,1696254938596,0.46679688,-0.18457031,0.82421875,-0.125,-0.125,-0.03125,0.0,0.0,0.0
613,1696254938636,0.4736328,-0.18457031,0.8378906,-0.375,-0.125,-0.03125,0.0,0.0,0.0
614,1696254938676,0.47265625,-0.18457031,0.8388672,-0.09375,0.0,0.09375,0.0,0.0,0.0
615,1696254938716,0.47070312,-0.18945312,0.8251953,0.09375,0.0,0.03125,0.0,0.0,0.0
616,1696254938756,0.4658203,-0.18457031,0.84375,-0.09375,0.0,0.03125,0.0,0.0,0.0
617,1696254938796,0.4736328,-0.18945312,0.8515625,0.15625,-0.0625,-0.03125,0.0,0.0,0.0
618,1696254938836,0.46679688,-0.18164062,0.83984375,-0.03125,-0.0625,-0.03125,0.0,0.0,0.0
619,1696254938876,0.4716797,-0.17773438,0.84765625,0.03125,0.0,0.03125,0.0,0.0,0.0
620,1696254938916,0.4765625,-0.18359375,0.8378906,0.09375,-0.125,-0.03125,0.0,0.0,0.0
621,1696254938956,0.47460938,-0.18359375,0.83203125,-0.03125,-0.0625,-0.03125,0.0,0.0,0.0
622,1696254938996,0.47851562,-0.18261719,0.8408203,0.09375,0.125,0.09375,0.0,0.0,0.0
623,1696254939036,0.46484375,-0.17675781,0.8408203,0.03125,0.0,0.09375,24.125,28.5625,-192.0625
624,1696254939076,0.4716797,-0.19042969,0.8457031,-0.1875,-0.125,-0.03125,0.0,0.0,0.0
625,1696254939116,0.4658203,-0.18945312,0.8466797,-0.03125,-0.125,0.09375,0.0,0.0,0.0
626,1696254939156,0.47070312,-0.18261719,0.83984375,0.15625,0.125,0.03125,0.0,0.0,0.0
627,1696254939196,0.46679688,-0.18066406,0.8388672,-0.09375,-0.125,0.03125,0.0,0.0,0.0
628,1696254939236,0.46679688,-0.18847656,0.8330078,0.03125,0.0,0.09375,0.0,0.0,0.0
629,1696254939276,0.46484375,-0.18652344,0.8310547,-0.03125,-0.0625,0.15625,0.0,0.0,0.0
630,1696254939316,0.47558594,-0.18457031,0.84765625,-0.09375,-0.0625,0.09375,0.0,0.0,0.0
631,1696254939356,0.48242188,-0.18261719,0.8330078,-0.03125,0.0,0.03125,0.0,0.0,0.0
632,1696254939396,0.47070312,-0.1796875,0.84277344,-0.09375,0.0,0.15625,0.0,0.0,0.0
633,1696254939436,0.4716797,-0.17578125,0.84472656,-0.03125,-0.125,0.21875,0.0,0.0,0.0
634,1696254939476,0.46777344,-0.18847656,0.83984375,-0.125,0.1875,0.09375,0.0,0.0,0.0
635,1696254939516,0.46289062,-0.19042969,0.8408203,-0.03125,-0.25,0.03125,25.5,29.75,-193.875
636,1696254939556,0.47753906,-0.17285156,0.8408203,-0.25,-0.1875,0.03125,0.0,0.0,0.0
637,1696254939596,0.46972656,-0.18554688,0.85253906,-0.09375,-0.125,-0.03125,0.0,0.0,0.0
638,1696254939636,0.48046875,-0.18847656,0.8330078,0.21875,0.0625,0.28125,0.0,0.0,0.0
639,1696254939676,0.4658203,-0.18261719,0.8359375,-0.125,-0.0625,0.21875,0.0,0.0,0.0
640,1696254939716,0.47460938,-0.17871094,0.84765625,0.21875,-0.125,0.09375,0.0,0.0,0.0
641,1696254939756,0.46777344,-0.16894531,0.83984375,-0.09375,-0.1875,-0.09375,0.0,0.0,0.0
642,1696254939796,0.46679688,-0.18652344,0.8388672,0.09375,0.125,0.03125,0.0,0.0,0.0
643,1696254939836,0.48339844,-0.19042969,0.8486328,0.21875,0.0,0.03125,0.0,0.0,0.0
644,1696254939876,0.47460938,-0.19042969,0.8300781,-0.03125,-0.0625,0.09375,0.0,0.0,0.0
645,1696254939916,0.46972656,-0.17773438,0.84375,0.15625,0.1875,0.03125,0.0,0.0,0.0
646,1696254939956,0.47070312,-0.1796875,0.8457031,-0.03125,0.0,0.15625,0.0,0.0,0.0
647,1696254939996,0.4716797,-0.1796875,0.8466797,-0.09375,-0.1875,0.21875,0.0,0.0,0.0
648,1696254940036,0.47460938,-0.1796875,0.8310547,-0.1875,-0.0625,-0.03125,23.6875,30.0625,-192.1875
649,1696254940076,0.46484375,-0.17773438,0.8417969,0.03125,0.0625,0.09375,0.0,0.0,0.0
650,1696254940116,0.47558594,-0.17871094,0.83496094,-0.125,-0.0625,0.15625,0.0,0.0,0.0
651,1696254940156,0.46679688,-0.18261719,0.83496094,0.03125,-0.0625,0.15625,0.0,0.0,0.0
652,1696254940196,0.46875,-0.18457031,0.83984375,-0.03125,-0.0625,0.15625,0.0,0.0,0.0
653,1696254940236,0.47070312,-0.19140625,0.8457031,-0.09375,0.0,0.15625,0.0,0.0,0.0
654,1696254940276,0.47753906,-0.18847656,0.8417969,-0.125,-0.125,0.09375,0.0,0.0,0.0
655,1696254940316,0.46191406,-0.17675781,0.8417969,-0.03125,-0.0625,0.15625,0.0,0.0,0.0
656,1696254940356,0.47070312,-0.1796875,0.8496094,-0.1875,-0.0625,0.15625,0.0,0.0,0.0
657,1696254940396,0.4716797,-0.19042969,0.8496094,-0.125,0.0625,0.28125,0.0,0.0,0.0
658,1696254940436,0.46484375,-0.18457031,0.8417969,-0.125,0.0,0.09375,0.0,0.0,0.0
659,1696254940476,0.47070312,-0.18457031,0.8388672,-0.25,-0.3125,0.03125,0.0,0.0,0.0
660,1696254940516,0.4765625,-0.18457031,0.8378906,-0.4375,-0.0625,0.03125,23.5625,30.3125,-193.125
661,1696254940556,0.47070312,-0.1796875,0.84765625,0.09375,0.0625,0.15625,0.0,0.0,0.0
662,1696254940596,0.4736328,-0.19042969,0.83496094,-0.125,-0.1875,0.15625,0.0,0.0,0.0
663,1696254940636,0.4609375,-0.17285156,0.8515625,-0.03125,-0.0625,0.03125,0.0,0.0,0.0
664,1696254940676,0.4736328,-0.17871094,0.8417969,0.09375,-0.1875,0.03125,0.0,0.0,0.0
665,1696254940716,0.47070312,-0.1875,0.8251953,-0.09375,0.0,0.09375,0.0,0.0,0.0
666,1696254940756,0.46484375,-0.18261719,0.83496094,0.09375,-0.125,0.03125,0.0,0.0,0.0
667,1696254940796,0.46972656,-0.18066406,0.8408203,-0.1875,-0.125,-0.03125,0.0,0.0,0.0
668,1696254940836,0.47265625,-0.18652344,0.8457031,-0.03125,-0.125,0.09375,0.0,0.0,0.0
669,1696254940876,0.47265625,-0.18554688,0.8535156,-0.03125,-0.0625,0.03125,0.0,0.0,0.0
670,1696254940916,0.47460938,-0.17773438,0.8466797,0.03125,0.0625,-0.15625,0.0,0.0,0.0
671,1696254940956,0.4658203,-0.1875,0.8330078,-0.03125,-0.0625,-0.15625,0.0,0.0,0.0
672,1696254940996,0.46972656,-0.19042969,0.8378906,0.03125,0.0625,0.09375,0.0,0.0,0.0
673,1696254941036,0.46972656,-0.18261719,0.8359375,-0.03125,0.0,-0.09375,24.0,29.0,-192.9375
674,1696254941076,0.47753906,-0.17773438,0.8408203,0.09375,-0.0625,0.03125,0.0,0.0,0.0
675,1696254941116,0.47558594,-0.18457031,0.8408203,-0.03125,-0.0625,-0.09375,0.0,0.0,0.0
676,1696254941156,0.46972656,-0.19042969,0.8535156,-0.09375,0.0,-0.28125,0.0,0.0,0.0
677,1696254941196,0.47070312,-0.18261719,0.82910156,-0.03125,-0.0625,-0.03125,0.0,0.0,0.0
678,1696254941236,0.47851562,-0.18457031,0.85058594,0.03125,0.125,0.03125,0.0,0.0,0.0
679,1696254941276,0.46484375,-0.1875,0.8613281,-0.125,0.125,-0.03125,0.0,0.0,0.0
680,1696254941316,0.46484375,-0.18359375,0.84472656,-0.09375,-0.125,-0.03125,0.0,0.0,0.0
681,1696254941356,0.4736328,-0.18554688,0.8466797,-0.25,-0.0625,-0.03125,0.0,0.0,0.0
682,1696254941396,0.4716797,-0.17773438,0.8515625,0.03125,0.125,0.09375,0.0,0.0,0.0
683,1696254941436,0.46679688,-0.19140625,0.83496094,0.03125,-0.0625,-0.09375,0.0,0.0,0.0
684,1696254941476,0.4736328,-0.1796875,0.8466797,-0.03125,-0.0625,-0.09375,0.0,0.0,0.0
685,1696254941516,0.46679688,-0.17773438,0.8261719,0.15625,-0.125,0.09375,23.25,28.375,-192.5
686,1696254941556,0.47265625,-0.18066406,0.8300781,0.15625,0.0625,-0.15625,0.0,0.0,0.0
687,1696254941596,0.47851562,-0.17773438,0.8359375,0.03125,-0.0625,-0.03125,0.0,0.0,0.0
688,1696254941636,0.46679688,-0.18652344,0.8496094,0.03125,-0.125,0.03125,0.0,0.0,0.0
689,1696254941676,0.4765625,-0.18652344,0.8544922,0.03125,0.0625,0.03125,0.0,0.0,0.0
690,1696254941716,0.47558594,-0.17871094,0.8330078,-0.09375,-0.0625,-0.03125,0.0,0.0,0.0
691,1696254941756,0.4658203,-0.18066406,0.8378906,0.03125,-0.0625,-0.09375,0.0,0.0,0.0
692,1696254941796,0.46875,-0.18164062,0.8417969,-0.03125,-0.1875,-0.09375,0.0,0.0,0.0
693,1696254941836,0.47070312,-0.18457031,0.85058594,-0.03125,0.0,-0.09375,0.0,0.0,0.0
694,1696254941876,0.4609375,-0.18652344,0.8417969,-0.09375,0.0,0.03125,0.0,0.0,0.0
695,1696254941916,0.46875,-0.19042969,0.8378906,-0.03125,0.0,0.03125,0.0,0.0,0.0
696,1696254941956,0.47460938,-0.1796875,0.8388672,-0.03125,-0.125,-0.03125,0.0,0.0,0.0
697,1696254941996,0.46679688,-0.18652344,0.83691406,0.09375,0.1875,0.09375,24.75,28.6875,-192.1875
698,1696254942036,0.46875,-0.19238281,0.8388672,-0.03125,-0.1875,0.09375,0.0,0.0,0.0
699,1696254942076,0.46972656,-0.19335938,0.83691406,0.03125,0.0625,0.09375,0.0,0.0,0.0
700,1696254942116,0.47460938,-0.18652344,0.84765625,-0.09375,-0.125,0.09375,0.0,0.0,0.0
701,1696254942156,0.45703125,-0.18554688,0.8408203,-0.125,0.0625,0.09375,0.0,0.0,0.0
702,1696254942196,0.47851562,-0.18261719,0.83984375,0.03125,0.0625,0.09375,0.0,0.0,0.0
703,1696254942236,0.47265625,-0.1796875,0.83496094,-0.25,-0.25,-0.21875,0.0,0.0,0.0
704,1696254942276,0.46972656,-0.18359375,0.8330078,-0.1875,-0.125,0.09375,0.0,0.0,0.0
705,1696254942316,0.46875,-0.17871094,0.84765625,0.09375,0.0625,-0.03125,0.0,0.0,0.0
706,1696254942356,0.4658203,-0.17578125,0.8378906,0.03125,-0.125,0.09375,0.0,0.0,0.0
707,1696254942396,0.4716797,-0.18554688,0.8466797,0.03125,-0.0625,0.03125,0.0,0.0,0.0
708,1696254942436,0.47558594,-0.18554688,0.83984375,0.09375,-0.1875,-0.03125,0.0,0.0,0.0
709,1696254942476,0.47460938,-0.19042969,0.8310547,-0.09375,-0.0625,-0.15625,0.0,0.0,0.0
710,1696254942516,0.4609375,-0.18164062,0.8457031,0.15625,0.0,0.03125,25.625,30.9375,-192.375
711,1696254942556,0.47460938,-0.18164062,0.8330078,0.03125,-0.1875,0.03125,0.0,0.0,0.0
712,1696254942596,0.4736328,-0.18261719,0.86035156,-0.03125,0.0,0.09375,0.0,0.0,0.0
713,1696254942636,0.48535156,-0.171875,0.8457031,0.15625,0.1875,0.09375,0.0,0.0,0.0
714,1696254942676,0.47753906,-0.18652344,0.8378906,-0.09375,-0.0625,-0.09375,0.0,0.0,0.0
715,1696254942716,0.46972656,-0.18457031,0.8300781,0.03125,-0.1875,0.03125,0.0,0.0,0.0
716,1696254942756,0.46972656,-0.18457031,0.8457031,0.03125,-0.125,0.09375,0.0,0.0,0.0
717,1696254942796,0.4658203,-0.1796875,0.83691406,-0.125,0.0625,0.09375,0.0,0.0,0.0
718,1696254942836,0.4736328,-0.18066406,0.8466797,-0.09375,0.0,0.21875,0.0,0.0,0.0
719,1696254942876,0.46777344,-0.17773438,0.8408203,0.09375,0.0,0.03125,0.0,0.0,0.0
720,1696254942916,0.46875,-0.18652344,0.8486328,-0.03125,-0.0625,0.03125,0.0,0.0,0.0
721,1696254942956,0.47558594,-0.18066406,0.8359375,0.09375,0.0,-0.15625,0.0,0.0,0.0
722,1696254942996,0.47460938,-0.18554688,0.8496094,-0.125,0.0,0.03125,0.0,0.0,0.0
723,1696254943036,0.4658203,-0.18457031,0.8486328,-0.09375,0.15625,0.21875,22.8125,30.3125,-193.375
724,1696254943076,0.46484375,-0.18847656,0.8378906,-0.03125,-0.09375,0.03125,0.0,0.0,0.0
725,1696254943116,0.46679688,-0.17675781,0.8535156,-0.5,-0.09375,0.03125,0.0,0.0,0.0
726,1696254943156,0.47460938,-0.17578125,0.8330078,-0.21875,0.03125,0.0,0.0,0.0,0.0
727,1696254943196,0.46484375,-0.17675781,0.8515625,0.15625,0.09375,0.09375,0.0,0.0,0.0
728,1696254943236,0.47265625,-0.18164062,0.85546875,-0.03125,-0.09375,0.03125,0.0,0.0,0.0
729,1696254943276,0.4716797,-0.18554688,0.8378906,0.15625,-0.03125,0.03125,0.0,0.0,0.0
730,1696254943316,0.46875,-0.17578125,0.84765625,-0.09375,-0.15625,-0.25,0.0,0.0,0.0
731,1696254943356,0.46875,-0.17871094,0.84375,0.09375,0.15625,0.03125,0.0,0.0,0.0
732,1696254943396,0.47460938,-0.17773438,0.85253906,-0.03125,-0.15625,0.09375,0.0,0.0,0.0
733,1696254943436,0.46777344,-0.17578125,0.83496094,-0.09375,0.03125,0.03125,0.0,0.0,0.0
734,1696254943476,0.4736328,-0.17675781,0.859375,0.15625,0.21875,0.15625,0.0,0.0,0.0
735,1696254943516,0.4658203,-0.18164062,0.8408203,-0.21875,-0.03125,0.03125,24.0,29.4375,-191.4375
736,1696254943556,0.48242188,-0.17578125,0.8574219,-0.03125,-0.03125,0.03125,0.0,0.0,0.0
737,1696254943596,0.46875,-0.1875,0.84277344,-0.03125,0.03125,0.15625,0.0,0.0,0.0
738,1696254943636,0.46777344,-0.18164062,0.8457031,-0.21875,-0.03125,0.03125,0.0,0.0,0.0
739,1696254943676,0.46972656,-0.18457031,0.84277344,-0.03125,-0.03125,0.15625,0.0,0.0,0.0
740,1696254943716,0.46875,-0.19335938,0.8378906,0.03125,0.09375,0.09375,0.0,0.0,0.0
741,1696254943756,0.4658203,-0.18945312,0.8486328,-0.15625,-0.03125,0.03125,0.0,0.0,0.0
742,1696254943796,0.46679688,-0.17480469,0.8496094,0.09375,0.21875,0.0,0.0,0.0,0.0
743,1696254943836,0.47460938,-0.1875,0.8486328,-0.03125,-0.09375,0.03125,0.0,0.0,0.0
744,1696254943876,0.4765625,-0.18164062,0.8359375,-0.03125,-0.03125,0.15625,0.0,0.0,0.0
745,1696254943916,0.46875,-0.17773438,0.8310547,-0.09375,0.28125,0.09375,0.0,0.0,0.0
746,1696254943956,0.47070312,-0.18652344,0.84277344,-0.09375,-0.21875,0.03125,0.0,0.0,0.0
747,1696254943996,0.47070312,-0.17871094,0.84765625,-0.34375,-0.15625,0.09375,0.0,0.0,0.0
748,1696254944036,0.4736328,-0.18164062,0.84375,-0.03125,0.15625,0.09375,23.875,29.5625,-191.3125
749,1696254944076,0.46679688,-0.19042969,0.8359375,-0.03125,-0.15625,0.0,0.0,0.0,0.0
750,1696254944116,0.47070312,-0.18554688,0.8310547,-0.09375,-0.03125,-0.0625,0.0,0.0,0.0
751,1696254944156,0.46972656,-0.19433594,0.8310547,0.09375,-0.09375,0.03125,0.0,0.0,0.0
752,1696254944196,0.4814453,-0.1796875,0.8408203,-0.21875,0.03125,-0.0625,0.0,0.0,0.0
753,1696254944236,0.4794922,-0.18457031,0.84375,0.09375,-0.03125,0.09375,0.0,0.0,0.0
754,1696254944276,0.46972656,-0.18457031,0.8339844,-0.03125,0.03125,-0.0625,0.0,0.0,0.0
755,1696254944316,0.47070312,-0.18652344,0.83691406,0.03125,0.03125,-0.0625,0.0,0.0,0.0
756,1696254944356,0.46289062,-0.18847656,0.8466797,0.03125,0.15625,0.0,0.0,0.0,0.0
757,1696254944396,0.47460938,-0.18652344,0.8466797,0.03125,0.09375,0.0,0.0,0.0,0.0
758,1696254944436,0.4765625,-0.1875,0.8496094,-0.03125,0.03125,-0.0625,0.0,0.0,0.0
759,1696254944476,0.46972656,-0.19042969,0.84375,-0.09375,-0.03125,0.0,0.0,0.0,0.0
