,timestamp,accel_x,accel_y,accel_z,gyro_x,gyro_y,gyro_z,mag_x,mag_y,mag_z,ind
0,1696254864776,0.02734375,-0.96972656,-0.29101562,-0.21875,-0.125,-0.125,0.0,0.0,0.0,0
1,1696254864816,0.028320312,-0.97265625,-0.2998047,-0.28125,-0.125,0.0,0.0,0.0,0.0,1
2,1696254864856,0.02734375,-0.9765625,-0.28808594,0.03125,0.0,0.0625,0.0,0.0,0.0,2
3,1696254864896,0.026367188,-0.9716797,-0.30371094,-0.28125,0.0,0.0,0.0,0.0,0.0,3
4,1696254864936,0.036132812,-0.9746094,-0.2890625,0.21875,-0.125,-0.0625,0.0,0.0,0.0,4
5,1696254864976,0.030273438,-0.9765625,-0.29785156,-0.375,-0.125,0.0625,0.0,0.0,0.0,5
6,1696254865016,0.026367188,-0.97265625,-0.31152344,-0.5,0.0,-0.0625,11.25,-7.3125,-243.375,6
7,1696254865056,0.026367188,-0.96875,-0.29589844,-0.28125,-0.125,-0.0625,0.0,0.0,0.0,7
8,1696254865096,0.032226562,-0.97558594,-0.30273438,0.15625,-0.125,-0.0625,0.0,0.0,0.0,8
9,1696254865136,0.03515625,-0.9707031,-0.2919922,0.15625,-0.125,0.25,0.0,0.0,0.0,9
10,1696254865176,0.021484375,-0.9716797,-0.29589844,-0.09375,-0.125,0.0625,0.0,0.0,0.0,10
11,1696254865216,0.033203125,-0.9707031,-0.29882812,0.15625,-0.0625,0.1875,0.0,0.0,0.0,11
12,1696254865256,0.030273438,-0.96777344,-0.29101562,0.03125,0.0,0.0,0.0,0.0,0.0,12
13,1696254865296,0.02734375,-0.9765625,-0.29492188,-0.34375,-0.0625,0.125,0.0,0.0,0.0,13
14,1696254865336,0.022460938,-0.9707031,-0.31054688,-0.09375,-0.125,0.125,0.0,0.0,0.0,14
15,1696254865376,0.03125,-0.97265625,-0.2919922,-0.09375,-0.125,0.0,0.0,0.0,0.0,15
16,1696254865416,0.038085938,-0.97558594,-0.29492188,-0.09375,0.0,0.125,0.0,0.0,0.0,16
17,1696254865456,0.028320312,-0.9765625,-0.296875,0.0625,0.03125,0.21875,0.0,0.0,0.0,17
18,1696254865496,0.029296875,-0.96777344,-0.29882812,0.3125,0.15625,0.0,0.0,0.0,0.0,18
19,1696254865536,0.021484375,-0.98046875,-0.28515625,0.65625,0.09375,-0.0625,12.625,-5.1875,-244.125,19
20,1696254865576,0.025390625,-0.9707031,-0.29589844,-0.0625,0.09375,0.0625,0.0,0.0,0.0,20
21,1696254865616,0.026367188,-0.97265625,-0.29492188,-0.25,0.03125,0.0,0.0,0.0,0.0,21
22,1696254865656,0.021484375,-0.9785156,-0.30078125,-0.0625,-0.09375,0.21875,0.0,0.0,0.0,22
23,1696254865696,0.028320312,-0.96875,-0.296875,0.46875,0.09375,0.0,0.0,0.0,0.0,23
24,1696254865736,0.034179688,-0.9746094,-0.29589844,0.65625,0.03125,-0.0625,0.0,0.0,0.0,24
25,1696254865776,0.030273438,-0.9716797,-0.28710938,0.53125,0.03125,0.09375,0.0,0.0,0.0,25
26,1696254865816,0.024414062,-0.97265625,-0.3017578,0.125,-0.03125,-0.125,0.0,0.0,0.0,26
27,1696254865856,0.033203125,-0.9580078,-0.2939453,-0.5625,0.03125,-0.1875,0.0,0.0,0.0,27
28,1696254865896,0.02734375,-0.97753906,-0.29101562,-0.625,-0.15625,0.0625,0.0,0.0,0.0,28
29,1696254865936,0.03515625,-0.9667969,-0.30273438,-0.3125,-0.03125,0.21875,0.0,0.0,0.0,29
30,1696254865976,0.024414062,-0.97265625,-0.31347656,0.53125,0.03125,0.15625,0.0,0.0,0.0,30
31,1696254866016,0.026367188,-0.97558594,-0.2890625,0.78125,0.09375,-0.125,10.1875,-7.3125,-245.75,31
32,1696254866056,0.028320312,-0.9746094,-0.30078125,0.59375,0.15625,0.0,0.0,0.0,0.0,32
33,1696254866096,0.030273438,-0.97558594,-0.30078125,0.0,-0.03125,-0.0625,0.0,0.0,0.0,33
34,1696254866136,0.034179688,-0.9746094,-0.29589844,0.46875,-0.03125,-0.0625,0.0,0.0,0.0,34
35,1696254866176,0.0234375,-0.97558594,-0.2919922,-0.5625,0.21875,-0.125,0.0,0.0,0.0,35
36,1696254866216,0.032226562,-0.9707031,-0.29785156,-0.6875,-0.09375,0.0,0.0,0.0,0.0,36
37,1696254866256,0.025390625,-0.9736328,-0.29882812,-0.0625,0.03125,-0.0625,0.0,0.0,0.0,37
38,1696254866296,0.03125,-0.96875,-0.29589844,0.3125,-0.03125,0.15625,0.0,0.0,0.0,38
39,1696254866336,0.021484375,-0.96972656,-0.2998047,0.53125,0.09375,0.0625,0.0,0.0,0.0,39
40,1696254866376,0.03515625,-0.9667969,-0.29296875,0.71875,0.21875,-0.1875,0.0,0.0,0.0,40
41,1696254866416,0.029296875,-0.97265625,-0.30273438,0.1875,0.09375,-0.1875,0.0,0.0,0.0,41
42,1696254866456,0.037109375,-0.96777344,-0.29101562,-0.5625,0.09375,-0.3125,0.0,0.0,0.0,42
43,1696254866496,0.033203125,-0.9707031,-0.29882812,-0.625,-0.15625,-0.0625,0.0,0.0,0.0,43
44,1696254866536,0.03125,-0.97558594,-0.30664062,-0.4375,-0.15625,0.0625,9.625,-7.1875,-244.5625,44
45,1696254866576,0.026367188,-0.9765625,-0.30078125,0.25,0.09375,0.0,0.0,0.0,0.0,45
46,1696254866616,0.030273438,-0.9707031,-0.29296875,0.25,0.09375,-0.0625,0.0,0.0,0.0,46
47,1696254866656,0.01953125,-0.9707031,-0.29003906,0.1875,0.03125,-0.125,0.0,0.0,0.0,47
48,1696254866696,0.028320312,-0.96875,-0.28515625,-0.125,-0.03125,0.0625,0.0,0.0,0.0,48
49,1696254866736,0.03125,-0.97265625,-0.2890625,-0.0625,0.15625,-0.1875,0.0,0.0,0.0,49
50,1696254866776,0.02734375,-0.96777344,-0.29492188,-0.3125,0.09375,-0.1875,0.0,0.0,0.0,50
51,1696254866816,0.030273438,-0.96484375,-0.29589844,-0.625,0.03125,0.0,0.0,0.0,0.0,51
52,1696254866856,0.03125,-0.9707031,-0.29785156,-0.0625,0.03125,0.0625,0.0,0.0,0.0,52
53,1696254866896,0.030273438,-0.97265625,-0.29003906,0.4375,-0.03125,-0.0625,0.0,0.0,0.0,53
54,1696254866936,0.029296875,-0.9785156,-0.30078125,0.46875,0.09375,-0.25,0.0,0.0,0.0,54
55,1696254866976,0.032226562,-0.9716797,-0.2998047,0.0,0.03125,-0.125,0.0,0.0,0.0,55
56,1696254867016,0.024414062,-0.9638672,-0.2861328,0.0625,-0.09375,0.0,10.625,-7.1875,-243.9375,56
57,1696254867056,0.02734375,-0.9765625,-0.3154297,-0.25,-0.09375,-0.1875,0.0,0.0,0.0,57
58,1696254867096,0.02734375,-0.96484375,-0.30078125,-0.5,0.03125,-0.125,0.0,0.0,0.0,58
59,1696254867136,0.02734375,-0.9736328,-0.2890625,0.0,-0.03125,0.0625,0.0,0.0,0.0,59
60,1696254867176,0.018554688,-0.97265625,-0.30273438,0.0625,0.21875,-0.125,0.0,0.0,0.0,60
61,1696254867216,0.024414062,-0.96972656,-0.29101562,0.125,0.15625,0.0,0.0,0.0,0.0,61
62,1696254867256,0.026367188,-0.9716797,-0.3017578,0.0625,0.09375,-0.1875,0.0,0.0,0.0,62
63,1696254867296,0.030273438,-0.9746094,-0.2939453,0.0,-0.03125,-0.125,0.0,0.0,0.0,63
64,1696254867336,0.030273438,-0.9628906,-0.30664062,-0.3125,-0.09375,-0.0625,0.0,0.0,0.0,64
65,1696254867376,0.029296875,-0.96777344,-0.3017578,-0.25,-0.15625,0.0625,0.0,0.0,0.0,65
66,1696254867416,0.034179688,-0.9736328,-0.3095703,-0.4375,0.09375,-0.0625,0.0,0.0,0.0,66
67,1696254867456,0.028320312,-0.96777344,-0.29492188,-0.3125,0.09375,-0.0625,0.0,0.0,0.0,67
68,1696254867496,0.032226562,-0.9765625,-0.31835938,0.0,0.03125,-0.0625,0.0,0.0,0.0,68
69,1696254867536,0.038085938,-0.9638672,-0.3095703,0.375,0.09375,-0.1875,10.8125,-7.625,-243.0625,69
70,1696254867576,0.030273438,-0.98535156,-0.30273438,0.375,0.15625,0.0,0.0,0.0,0.0,70
71,1696254867616,0.034179688,-0.9716797,-0.28320312,0.0,0.03125,0.0,0.0,0.0,0.0,71
72,1696254867656,0.024414062,-0.9746094,-0.2939453,-0.125,-0.03125,-0.0625,0.0,0.0,0.0,72
73,1696254867696,0.02734375,-0.96777344,-0.296875,-0.3125,-0.03125,-0.125,0.0,0.0,0.0,73
74,1696254867736,0.033203125,-0.9716797,-0.29785156,-0.4375,-0.03125,-0.1875,0.0,0.0,0.0,74
75,1696254867776,0.041015625,-0.96875,-0.29882812,-0.125,-0.03125,0.0,0.0,0.0,0.0,75
76,1696254867816,0.03125,-0.96972656,-0.29589844,0.0625,0.15625,0.0,0.0,0.0,0.0,76
77,1696254867856,0.03125,-0.9765625,-0.296875,0.25,0.15625,0.0625,0.0,0.0,0.0,77
78,1696254867896,0.03515625,-0.97558594,-0.29589844,0.25,0.09375,-0.0625,0.0,0.0,0.0,78
79,1696254867936,0.034179688,-0.9746094,-0.29882812,0.0,-0.09375,-0.1875,0.0,0.0,0.0,79
80,1696254867976,0.033203125,-0.9707031,-0.296875,-0.1875,-0.03125,0.0,0.0,0.0,0.0,80
81,1696254868016,0.034179688,-0.9716797,-0.29882812,-0.125,0.03125,-0.0625,10.1875,-8.375,-243.625,81
82,1696254868056,0.032226562,-0.96875,-0.3095703,0.1875,0.15625,0.0,0.0,0.0,0.0,82
83,1696254868096,0.032226562,-0.9667969,-0.29882812,-0.125,-0.03125,0.0,0.0,0.0,0.0,83
84,1696254868136,0.026367188,-0.96484375,-0.28808594,-0.0625,0.03125,-0.125,0.0,0.0,0.0,84
85,1696254868176,0.0390625,-0.9785156,-0.29589844,0.0625,-0.09375,-0.0625,0.0,0.0,0.0,85
86,1696254868216,0.026367188,-0.96972656,-0.2919922,0.0,-0.03125,0.0,0.0,0.0,0.0,86
87,1696254868256,0.034179688,-0.96875,-0.28515625,0.3125,-0.03125,0.0,0.0,0.0,0.0,87
88,1696254868296,0.03515625,-0.97558594,-0.30566406,0.3125,0.09375,0.0625,0.0,0.0,0.0,88
89,1696254868336,0.024414062,-0.9638672,-0.30566406,0.125,-0.03125,0.0,0.0,0.0,0.0,89
90,1696254868376,0.036132812,-0.9667969,-0.29785156,-0.3125,0.03125,0.0,0.0,0.0,0.0,90
91,1696254868416,0.026367188,-0.97265625,-0.30273438,-0.3125,-0.03125,0.15625,0.0,0.0,0.0,91
92,1696254868456,0.02734375,-0.9707031,-0.29296875,-0.125,-0.15625,0.0625,0.0,0.0,0.0,92
93,1696254868496,0.03125,-0.96484375,-0.29296875,-0.25,-0.03125,0.0625,0.0,0.0,0.0,93
94,1696254868536,0.032226562,-0.97265625,-0.31054688,-0.125,-0.03125,0.0625,10.8125,-6.5625,-243.0625,94
95,1696254868576,0.037109375,-0.9667969,-0.30371094,0.0,0.03125,-0.125,0.0,0.0,0.0,95
96,1696254868616,0.03125,-0.97265625,-0.296875,0.1875,0.09375,0.0625,0.0,0.0,0.0,96
97,1696254868656,0.03125,-0.96777344,-0.29589844,0.3125,-0.03125,-0.125,0.0,0.0,0.0,97
98,1696254868696,0.026367188,-0.96484375,-0.296875,0.84375,0.03125,0.09375,0.0,0.0,0.0,98
99,1696254868736,0.022460938,-0.9746094,-0.3076172,0.1875,0.09375,-0.0625,0.0,0.0,0.0,99
100,1696254868776,0.032226562,-0.9638672,-0.31152344,-0.625,-0.09375,0.0625,0.0,0.0,0.0,100
101,1696254868816,0.024414062,-0.97558594,-0.2998047,-0.125,-0.09375,-0.0625,0.0,0.0,0.0,101
102,1696254868856,0.034179688,-0.97265625,-0.2919922,0.0,0.03125,0.0625,0.0,0.0,0.0,102
103,1696254868896,0.022460938,-0.9658203,-0.29589844,0.4375,0.09375,0.09375,0.0,0.0,0.0,103
104,1696254868936,0.030273438,-0.97753906,-0.29492188,0.53125,0.15625,-0.125,0.0,0.0,0.0,104
105,1696254868976,0.034179688,-0.9765625,-0.29589844,0.375,0.15625,-0.0625,0.0,0.0,0.0,105
106,1696254869016,0.024414062,-0.96875,-0.31152344,0.0,0.03125,-0.125,11.5625,-7.3125,-244.375,106
107,1696254869056,0.033203125,-0.96777344,-0.2919922,-0.0625,-0.09375,-0.0625,0.0,0.0,0.0,107
108,1696254869096,0.030273438,-0.97265625,-0.2939453,0.0,-0.03125,0.15625,0.0,0.0,0.0,108
109,1696254869136,0.03125,-0.9814453,-0.2919922,-0.0625,-0.03125,-0.0625,0.0,0.0,0.0,109
110,1696254869176,0.024414062,-0.96972656,-0.2919922,0.0,-0.03125,0.21875,0.0,0.0,0.0,110
111,1696254869216,0.030273438,-0.9746094,-0.31347656,0.125,0.15625,-0.0625,0.0,0.0,0.0,111
112,1696254869256,0.033203125,-0.9638672,-0.2841797,0.3125,0.09375,-0.0625,0.0,0.0,0.0,112
113,1696254869296,0.025390625,-0.96875,-0.30566406,0.1875,0.09375,0.0625,0.0,0.0,0.0,113
114,1696254869336,0.022460938,-0.9628906,-0.29589844,0.1875,0.34375,-0.125,0.0,0.0,0.0,114
115,1696254869376,0.028320312,-0.97265625,-0.29296875,0.21875,0.0625,-0.09375,0.0,0.0,0.0,115
116,1696254869416,0.018554688,-0.9765625,-0.29003906,-0.21875,0.125,0.09375,0.0,0.0,0.0,116
117,1696254869456,0.026367188,-0.96777344,-0.29589844,-0.46875,-0.125,0.03125,0.0,0.0,0.0,117
118,1696254869496,0.033203125,-0.9765625,-0.296875,0.09375,-0.0625,-0.09375,0.0,0.0,0.0,118
119,1696254869536,0.026367188,-0.97558594,-0.30371094,0.375,0.0625,-0.03125,10.1875,-7.0,-244.375,119
120,1696254869576,0.020507812,-0.97265625,-0.29882812,0.4375,0.21875,-0.09375,0.0,0.0,0.0,120
121,1696254869616,0.028320312,-0.9716797,-0.29785156,0.21875,0.0,-0.09375,0.0,0.0,0.0,121
122,1696254869656,0.026367188,-0.97265625,-0.2939453,-0.09375,0.0625,-0.09375,0.0,0.0,0.0,122
123,1696254869696,0.018554688,-0.9736328,-0.3017578,-0.53125,-0.0625,-0.25,0.0,0.0,0.0,123
124,1696254869736,0.026367188,-0.9736328,-0.29882812,-0.46875,-0.1875,-0.03125,0.0,0.0,0.0,124
125,1696254869776,0.02734375,-0.97265625,-0.2998047,-0.15625,-0.0625,-0.09375,0.0,0.0,0.0,125
126,1696254869816,0.020507812,-0.96875,-0.29785156,-0.03125,0.125,-0.09375,0.0,0.0,0.0,126
127,1696254869856,0.025390625,-0.9765625,-0.30859375,0.03125,0.125,-0.03125,0.0,0.0,0.0,127
128,1696254869896,0.02734375,-0.9716797,-0.3017578,0.3125,0.125,-0.125,0.0,0.0,0.0,128
129,1696254869936,0.033203125,-0.9765625,-0.30078125,0.09375,0.0625,-0.3125,0.0,0.0,0.0,129
130,1696254869976,0.02734375,-0.9794922,-0.3076172,-0.46875,0.0,0.03125,0.0,0.0,0.0,130
131,1696254870016,0.017578125,-0.9707031,-0.30273438,-0.34375,-0.125,-0.125,9.875,-6.125,-244.5625,131
132,1696254870056,0.028320312,-0.9716797,-0.30664062,0.09375,0.0,-0.09375,0.0,0.0,0.0,132
133,1696254870096,0.024414062,-0.98046875,-0.29882812,0.3125,0.125,0.09375,0.0,0.0,0.0,133
134,1696254870136,0.03515625,-0.96972656,-0.28710938,-0.46875,-0.0625,-0.03125,0.0,0.0,0.0,134
135,1696254870176,0.02734375,-0.9746094,-0.29882812,-0.40625,-0.125,-0.09375,0.0,0.0,0.0,135
136,1696254870216,0.02734375,-0.9785156,-0.31835938,-0.28125,-0.125,-0.09375,0.0,0.0,0.0,136
137,1696254870256,0.032226562,-0.98046875,-0.29785156,0.375,0.125,-0.09375,0.0,0.0,0.0,137
138,1696254870296,0.03125,-0.9746094,-0.296875,0.6875,0.125,-0.125,0.0,0.0,0.0,138
139,1696254870336,0.03125,-0.96972656,-0.29296875,0.21875,0.21875,-0.25,0.0,0.0,0.0,139
140,1696254870376,0.024414062,-0.96191406,-0.29492188,-0.53125,-0.125,-0.1875,0.0,0.0,0.0,140
141,1696254870416,0.02734375,-0.9707031,-0.28710938,-0.40625,-0.125,-0.125,0.0,0.0,0.0,141
142,1696254870456,0.03125,-0.984375,-0.29785156,-0.21875,0.0,-0.09375,0.0,0.0,0.0,142
143,1696254870496,0.025390625,-0.9609375,-0.29882812,0.25,0.0625,-0.09375,0.0,0.0,0.0,143
144,1696254870536,0.03125,-0.96875,-0.30566406,0.03125,0.0625,-0.125,11.25,-7.3125,-243.375,144
145,1696254870576,0.0390625,-0.96875,-0.3095703,0.03125,0.125,-0.125,0.0,0.0,0.0,145
146,1696254870616,0.02734375,-0.9736328,-0.29882812,-0.09375,0.0,-0.03125,0.0,0.0,0.0,146
147,1696254870656,0.028320312,-0.9716797,-0.30664062,0.09375,0.0625,-0.1875,0.0,0.0,0.0,147
148,1696254870696,0.037109375,-0.9667969,-0.28710938,-0.15625,0.0,-0.125,0.0,0.0,0.0,148
149,1696254870736,0.026367188,-0.96972656,-0.30371094,-0.09375,-0.0625,-0.03125,0.0,0.0,0.0,149
150,1696254870776,0.02734375,-0.9707031,-0.29882812,-0.40625,-0.25,-0.03125,0.0,0.0,0.0,150
151,1696254870816,0.028320312,-0.9794922,-0.2890625,-0.09375,-0.0625,-0.09375,0.0,0.0,0.0,151
152,1696254870856,0.032226562,-0.98046875,-0.2998047,0.15625,0.0,0.03125,0.0,0.0,0.0,152
153,1696254870896,0.024414062,-0.9736328,-0.30566406,-0.28125,-0.0625,-0.09375,0.0,0.0,0.0,153
154,1696254870936,0.030273438,-0.96972656,-0.29101562,-0.21875,0.0,-0.1875,0.0,0.0,0.0,154
155,1696254870976,0.034179688,-0.9716797,-0.3095703,-0.09375,-0.0625,-0.125,0.0,0.0,0.0,155
156,1696254871016,0.028320312,-0.9765625,-0.29589844,0.4375,0.0625,-0.1875,10.8125,-7.625,-245.4375,156
157,1696254871056,0.032226562,-0.9736328,-0.296875,0.25,0.0625,-0.1875,0.0,0.0,0.0,157
158,1696254871096,0.041015625,-0.9667969,-0.30664062,0.21875,0.1875,-0.09375,0.0,0.0,0.0,158
159,1696254871136,0.03125,-0.9707031,-0.3095703,-0.15625,-0.125,0.03125,0.0,0.0,0.0,159
160,1696254871176,0.03125,-0.96777344,-0.30664062,-0.46875,0.0,-0.03125,0.0,0.0,0.0,160
161,1696254871216,0.030273438,-0.9746094,-0.30664062,-0.21875,-0.0625,-0.03125,0.0,0.0,0.0,161
162,1696254871256,0.033203125,-0.9736328,-0.2890625,-0.09375,0.0,-0.09375,0.0,0.0,0.0,162
163,1696254871296,0.02734375,-0.9765625,-0.30664062,0.03125,0.0,-0.125,0.0,0.0,0.0,163
164,1696254871336,0.022460938,-0.97558594,-0.30566406,0.15625,0.0625,-0.125,0.0,0.0,0.0,164
165,1696254871376,0.029296875,-0.96972656,-0.30078125,0.03125,0.0625,-0.09375,0.0,0.0,0.0,165
166,1696254871416,0.03125,-0.9765625,-0.29785156,-0.03125,0.0625,-0.03125,0.0,0.0,0.0,166
167,1696254871456,0.026367188,-0.9707031,-0.2939453,-0.09375,0.0,-0.09375,0.0,0.0,0.0,167
168,1696254871496,0.025390625,-0.9667969,-0.29785156,-0.09375,0.0,-0.1875,0.0,0.0,0.0,168
169,1696254871536,0.02734375,-0.96484375,-0.30664062,-0.21875,0.0625,-0.125,10.375,-7.4375,-242.4375,169
170,1696254871576,0.038085938,-0.96875,-0.29589844,-0.09375,-0.0625,-0.03125,0.0,0.0,0.0,170
171,1696254871616,0.0234375,-0.9785156,-0.30859375,-0.21875,-0.0625,-0.03125,0.0,0.0,0.0,171
172,1696254871656,0.03515625,-0.9746094,-0.29589844,0.15625,0.0625,0.03125,0.0,0.0,0.0,172
173,1696254871696,0.021484375,-0.9716797,-0.30371094,0.15625,0.0625,-0.09375,0.0,0.0,0.0,173
174,1696254871736,0.03125,-0.97265625,-0.3017578,-0.03125,0.0625,-0.09375,0.0,0.0,0.0,174
175,1696254871776,0.032226562,-0.96484375,-0.29003906,-0.28125,0.0,-0.125,0.0,0.0,0.0,175
176,1696254871816,0.022460938,-0.9746094,-0.29003906,-0.15625,0.0,-0.125,0.0,0.0,0.0,176
177,1696254871856,0.037109375,-0.9736328,-0.29882812,0.15625,0.0625,-0.125,0.0,0.0,0.0,177
178,1696254871896,0.034179688,-0.97265625,-0.28710938,0.375,0.125,-0.09375,0.0,0.0,0.0,178
179,1696254871936,0.028320312,-0.9746094,-0.2998047,0.03125,0.125,-0.125,0.0,0.0,0.0,179
180,1696254871976,0.033203125,-0.97265625,-0.29101562,-0.21875,-0.0625,-0.1875,0.0,0.0,0.0,180
181,1696254872016,0.02734375,-0.9765625,-0.296875,-0.3125,-0.1875,0.0,11.25,-8.375,-243.375,181
182,1696254872056,0.026367188,-0.96484375,-0.29785156,-0.1875,-0.03125,0.1875,0.0,0.0,0.0,182
183,1696254872096,0.037109375,-0.96875,-0.29589844,-0.0625,-0.09375,0.0625,0.0,0.0,0.0,183
184,1696254872136,0.03515625,-0.9658203,-0.3017578,-0.0625,-0.03125,0.0,0.0,0.0,0.0,184
185,1696254872176,0.022460938,-0.9785156,-0.29492188,0.125,-0.03125,0.0625,0.0,0.0,0.0,185
186,1696254872216,0.03125,-0.96972656,-0.29003906,0.3125,0.03125,0.0625,0.0,0.0,0.0,186
187,1696254872256,0.028320312,-0.98046875,-0.3046875,0.0,-0.03125,0.125,0.0,0.0,0.0,187
188,1696254872296,0.020507812,-0.9716797,-0.29101562,-0.25,-0.03125,0.0625,0.0,0.0,0.0,188
189,1696254872336,0.03125,-0.97753906,-0.29492188,-0.3125,-0.09375,0.0,0.0,0.0,0.0,189
190,1696254872376,0.040039062,-0.97753906,-0.3076172,0.0,-0.125,0.0,0.0,0.0,0.0,190
191,1696254872416,0.030273438,-0.9638672,-0.3017578,0.25,0.03125,-0.0625,0.0,0.0,0.0,191
192,1696254872456,0.029296875,-0.9716797,-0.29101562,0.0,-0.03125,0.125,0.0,0.0,0.0,192
193,1696254872496,0.021484375,-0.9814453,-0.28710938,-0.0625,-0.09375,0.1875,0.0,0.0,0.0,193
194,1696254872536,0.03125,-0.9746094,-0.296875,-0.3125,-0.03125,0.1875,11.6875,-6.6875,-244.875,194
195,1696254872576,0.029296875,-0.9736328,-0.30273438,0.375,0.03125,0.25,0.0,0.0,0.0,195
196,1696254872616,0.028320312,-0.97265625,-0.3017578,0.0,-0.125,0.125,0.0,0.0,0.0,196
197,1696254872656,0.034179688,-0.96875,-0.30664062,-0.4375,-0.03125,0.0,0.0,0.0,0.0,197
198,1696254872696,0.024414062,-0.96777344,-0.2998047,0.125,-0.03125,0.0625,0.0,0.0,0.0,198
199,1696254872736,0.032226562,-0.9736328,-0.2890625,0.3125,-0.03125,0.0625,0.0,0.0,0.0,199
200,1696254872776,0.032226562,-0.9785156,-0.3046875,0.6875,0.09375,0.0625,0.0,0.0,0.0,200
201,1696254872816,0.026367188,-0.96484375,-0.3046875,0.4375,0.09375,-0.0625,0.0,0.0,0.0,201
202,1696254872856,0.032226562,-0.96972656,-0.30566406,-0.0625,-0.03125,0.125,0.0,0.0,0.0,202
203,1696254872896,0.021484375,-0.97753906,-0.30566406,-0.1875,0.03125,0.0625,0.0,0.0,0.0,203
204,1696254872936,0.032226562,-0.97265625,-0.29882812,-0.4375,-0.125,0.0,0.0,0.0,0.0,204
205,1696254872976,0.034179688,-0.9794922,-0.29589844,-0.0625,-0.1875,0.125,0.0,0.0,0.0,205
206,1696254873016,0.02734375,-0.96777344,-0.3046875,0.0625,0.03125,0.0625,10.9375,-7.1875,-243.5,206
207,1696254873056,0.022460938,-0.9658203,-0.30859375,0.3125,0.03125,0.0625,0.0,0.0,0.0,207
208,1696254873096,0.030273438,-0.96972656,-0.29101562,0.25,-0.03125,0.125,0.0,0.0,0.0,208
209,1696254873136,0.03515625,-0.9765625,-0.2939453,0.1875,0.03125,0.0625,0.0,0.0,0.0,209
210,1696254873176,0.022460938,-0.9736328,-0.3076172,-0.0625,-0.03125,0.1875,0.0,0.0,0.0,210
211,1696254873216,0.030273438,-0.9716797,-0.30273438,-0.25,-0.09375,0.0,0.0,0.0,0.0,211
212,1696254873256,0.024414062,-0.9736328,-0.3017578,-0.1875,-0.03125,0.0625,0.0,0.0,0.0,212
213,1696254873296,0.032226562,-0.9736328,-0.29003906,-0.125,-0.09375,0.125,0.0,0.0,0.0,213
214,1696254873336,0.02734375,-0.97265625,-0.30566406,-0.0625,-0.03125,0.125,0.0,0.0,0.0,214
215,1696254873376,0.01953125,-0.9785156,-0.31054688,-0.0625,-0.03125,0.1875,0.0,0.0,0.0,215
216,1696254873416,0.029296875,-0.96777344,-0.30078125,0.0625,-0.03125,0.1875,0.0,0.0,0.0,216
217,1696254873456,0.037109375,-0.9765625,-0.29492188,0.0625,-0.09375,0.125,0.0,0.0,0.0,217
218,1696254873496,0.018554688,-0.96777344,-0.3017578,-0.25,-0.03125,0.0625,0.0,0.0,0.0,218
219,1696254873536,0.03125,-0.9707031,-0.3095703,-0.1875,-0.03125,-0.125,10.9375,-6.125,-243.9375,219
220,1696254873576,0.025390625,-0.9746094,-0.2939453,0.0,-0.03125,0.0625,0.0,0.0,0.0,220
221,1696254873616,0.030273438,-0.9794922,-0.2998047,0.5,0.03125,0.125,0.0,0.0,0.0,221
222,1696254873656,0.026367188,-0.96972656,-0.29589844,0.71875,0.03125,-0.0625,0.0,0.0,0.0,222
223,1696254873696,0.036132812,-0.9716797,-0.29296875,0.375,0.09375,0.0,0.0,0.0,0.0,223
224,1696254873736,0.028320312,-0.9746094,-0.29589844,-0.0625,-0.09375,-0.0625,0.0,0.0,0.0,224
225,1696254873776,0.029296875,-0.96875,-0.29101562,-0.59375,-0.09375,-0.125,0.0,0.0,0.0,225
226,1696254873816,0.034179688,-0.96875,-0.2998047,-0.4375,-0.09375,0.0,0.0,0.0,0.0,226
227,1696254873856,0.034179688,-0.9716797,-0.3017578,-0.0625,-0.1875,0.0,0.0,0.0,0.0,227
228,1696254873896,0.0390625,-0.9785156,-0.29589844,0.0,0.03125,0.0,0.0,0.0,0.0,228
229,1696254873936,0.030273438,-0.96484375,-0.30566406,0.375,0.15625,0.0,0.0,0.0,0.0,229
230,1696254873976,0.024414062,-0.9785156,-0.29296875,0.1875,0.03125,0.125,0.0,0.0,0.0,230
231,1696254874016,0.030273438,-0.97265625,-0.2998047,0.0625,0.03125,-0.125,8.5625,-6.6875,-244.875,231
232,1696254874056,0.030273438,-0.9716797,-0.30273438,-0.1875,0.03125,-0.0625,0.0,0.0,0.0,232
233,1696254874096,0.03125,-0.96972656,-0.3017578,-0.3125,0.03125,-0.125,0.0,0.0,0.0,233
234,1696254874136,0.029296875,-0.9746094,-0.2861328,0.0,0.15625,0.0,0.0,0.0,0.0,234
235,1696254874176,0.024414062,-0.96972656,-0.2998047,-0.0625,-0.03125,0.125,0.0,0.0,0.0,235
236,1696254874216,0.028320312,-0.9746094,-0.296875,-0.25,-0.1875,0.1875,0.0,0.0,0.0,236
237,1696254874256,0.03125,-0.9638672,-0.2939453,-0.0625,-0.125,-0.0625,0.0,0.0,0.0,237
238,1696254874296,0.037109375,-0.9707031,-0.3125,-0.0625,-0.09375,0.0,0.0,0.0,0.0,238
239,1696254874336,0.033203125,-0.9716797,-0.2890625,-0.4375,-0.125,0.0625,0.0,0.0,0.0,239
240,1696254874376,0.026367188,-0.97265625,-0.30273438,-0.125,0.03125,0.0,0.0,0.0,0.0,240
241,1696254874416,0.02734375,-0.98339844,-0.28710938,0.0,-0.09375,-0.0625,0.0,0.0,0.0,241
242,1696254874456,0.02734375,-0.9814453,-0.29882812,0.1875,0.09375,-0.0625,0.0,0.0,0.0,242
243,1696254874496,0.033203125,-0.96484375,-0.2919922,0.1875,-0.03125,-0.0625,0.0,0.0,0.0,243
244,1696254874536,0.024414062,-0.9667969,-0.2890625,-0.125,0.03125,-0.125,10.8125,-7.3125,-245.125,244
245,1696254874576,0.037109375,-0.96972656,-0.30273438,-0.25,-0.125,-0.125,0.0,0.0,0.0,245
246,1696254874616,0.024414062,-0.9628906,-0.29785156,-0.3125,-0.09375,-0.125,0.0,0.0,0.0,246
247,1696254874656,0.018554688,-0.97558594,-0.29882812,-0.3125,-0.125,0.0625,0.0,0.0,0.0,247
248,1696254874696,0.030273438,-0.96972656,-0.296875,0.0,-0.03125,0.0625,0.0,0.0,0.0,248
249,1696254874736,0.026367188,-0.97265625,-0.2919922,-0.125,-0.03125,-0.0625,0.0,0.0,0.0,249
250,1696254874776,0.041992188,-0.9609375,-0.30859375,-0.25,-0.03125,0.0625,0.0,0.0,0.0,250
251,1696254874816,0.03125,-0.9667969,-0.29882812,0.0,0.03125,0.0625,0.0,0.0,0.0,251
252,1696254874856,0.029296875,-0.9667969,-0.2919922,0.0625,0.03125,0.0625,0.0,0.0,0.0,252
253,1696254874896,0.029296875,-0.9785156,-0.28710938,-0.125,-0.03125,0.0,0.0,0.0,0.0,253
254,1696254874936,0.03125,-0.9746094,-0.3017578,-0.125,-0.09375,0.0,0.0,0.0,0.0,254
255,1696254874976,0.033203125,-0.97265625,-0.3017578,-0.1875,-0.09375,0.0625,0.0,0.0,0.0,255
256,1696254875016,0.0390625,-0.96484375,-0.2998047,-0.125,-0.125,0.0625,9.3125,-7.1875,-244.5625,256
257,1696254875056,0.032226562,-0.9765625,-0.29589844,0.0625,0.03125,-0.0625,0.0,0.0,0.0,257
258,1696254875096,0.032226562,-0.9746094,-0.29296875,0.1875,-0.03125,0.0625,0.0,0.0,0.0,258
259,1696254875136,0.01953125,-0.9814453,-0.30859375,-0.25,-0.125,0.0,0.0,0.0,0.0,259
260,1696254875176,0.037109375,-0.96484375,-0.30664062,-0.3125,-0.03125,0.0,0.0,0.0,0.0,260
261,1696254875216,0.033203125,-0.96875,-0.29882812,-0.3125,-0.03125,0.0,0.0,0.0,0.0,261
262,1696254875256,0.026367188,-0.9707031,-0.30664062,0.125,0.09375,-0.1875,0.0,0.0,0.0,262
263,1696254875296,0.030273438,-0.9707031,-0.29785156,0.5,0.03125,0.0625,0.0,0.0,0.0,263
264,1696254875336,0.037109375,-0.9736328,-0.2939453,0.125,-0.03125,0.0625,0.0,0.0,0.0,264
265,1696254875376,0.036132812,-0.96875,-0.2998047,0.0,-0.09375,0.0,0.0,0.0,0.0,265
266,1696254875416,0.022460938,-0.9746094,-0.3017578,-0.3125,0.03125,-0.125,0.0,0.0,0.0,266
267,1696254875456,0.028320312,-0.9746094,-0.29296875,-0.5625,-0.03125,0.0625,0.0,0.0,0.0,267
268,1696254875496,0.0390625,-0.9736328,-0.30078125,-0.0625,-0.09375,0.125,0.0,0.0,0.0,268
269,1696254875536,0.03125,-0.9746094,-0.3017578,0.0,0.03125,-0.0625,10.625,-6.6875,-244.25,269
270,1696254875576,0.033203125,-0.96972656,-0.2861328,0.0625,0.21875,0.0,0.0,0.0,0.0,270
271,1696254875616,0.036132812,-0.96484375,-0.2919922,0.125,-0.03125,0.125,0.0,0.0,0.0,271
272,1696254875656,0.028320312,-0.96972656,-0.29492188,0.1875,0.03125,0.0625,0.0,0.0,0.0,272
273,1696254875696,0.02734375,-0.9736328,-0.296875,0.0,0.03125,0.1875,0.0,0.0,0.0,273
274,1696254875736,0.029296875,-0.9707031,-0.30273438,-0.25,-0.125,0.0625,0.0,0.0,0.0,274
275,1696254875776,0.033203125,-0.96777344,-0.2919922,-0.1875,-0.03125,0.125,0.0,0.0,0.0,275
276,1696254875816,0.033203125,-0.97265625,-0.3076172,0.0,-0.03125,0.25,0.0,0.0,0.0,276
277,1696254875856,0.03125,-0.9667969,-0.31445312,-0.0625,-0.125,0.1875,0.0,0.0,0.0,277
278,1696254875896,0.03125,-0.9716797,-0.3046875,0.125,-0.03125,0.0625,0.0,0.0,0.0,278
279,1696254875936,0.032226562,-0.9794922,-0.296875,0.25,0.09375,0.125,0.0,0.0,0.0,279
280,1696254875976,0.029296875,-0.9716797,-0.29589844,-0.125,0.03125,0.0,0.0,0.0,0.0,280
281,1696254876016,0.03515625,-0.9736328,-0.29296875,-0.25,-0.03125,-0.0625,10.9375,-7.1875,-244.25,281
282,1696254876056,0.037109375,-0.9716797,-0.29882812,-0.0625,-0.09375,-0.0625,0.0,0.0,0.0,282
283,1696254876096,0.0234375,-0.9736328,-0.29101562,0.4375,0.15625,-0.0625,0.0,0.0,0.0,283
284,1696254876136,0.029296875,-0.9736328,-0.3125,0.5625,0.03125,0.125,0.0,0.0,0.0,284
285,1696254876176,0.030273438,-0.9707031,-0.3017578,0.25,0.09375,0.0,0.0,0.0,0.0,285
286,1696254876216,0.029296875,-0.98046875,-0.30078125,-0.125,-0.09375,0.1875,0.0,0.0,0.0,286
287,1696254876256,0.030273438,-0.96777344,-0.29882812,-0.3125,-0.25,0.1875,0.0,0.0,0.0,287
288,1696254876296,0.028320312,-0.97558594,-0.296875,-0.3125,-0.03125,0.1875,0.0,0.0,0.0,288
289,1696254876336,0.022460938,-0.9765625,-0.296875,0.0,-0.09375,0.3125,0.0,0.0,0.0,289
290,1696254876376,0.030273438,-0.97265625,-0.31054688,0.25,0.03125,0.0625,0.0,0.0,0.0,290
291,1696254876416,0.02734375,-0.97558594,-0.28808594,0.1875,0.03125,0.1875,0.0,0.0,0.0,291
292,1696254876456,0.036132812,-0.9707031,-0.30273438,0.1875,0.03125,0.25,0.0,0.0,0.0,292
293,1696254876496,0.034179688,-0.97753906,-0.29296875,0.1875,0.03125,0.1875,0.0,0.0,0.0,293
294,1696254876536,0.033203125,-0.9794922,-0.3017578,0.0,0.09375,0.125,9.0,-7.0,-244.125,294
295,1696254876576,0.033203125,-0.96484375,-0.29785156,-0.1875,-0.09375,0.1875,0.0,0.0,0.0,295
296,1696254876616,0.022460938,-0.9765625,-0.28515625,-0.0625,-0.09375,0.25,0.0,0.0,0.0,296
297,1696254876656,0.024414062,-0.9716797,-0.30566406,-0.125,0.09375,0.125,0.0,0.0,0.0,297
298,1696254876696,0.02734375,-0.9736328,-0.3046875,0.0625,-0.09375,0.25,0.0,0.0,0.0,298
299,1696254876736,0.037109375,-0.9765625,-0.29492188,0.5625,0.03125,0.125,0.0,0.0,0.0,299
300,1696254876776,0.028320312,-0.9716797,-0.3017578,0.0625,0.03125,0.1875,0.0,0.0,0.0,300
301,1696254876816,0.021484375,-0.9638672,-0.30566406,-0.5,-0.125,0.1875,0.0,0.0,0.0,301
302,1696254876856,0.034179688,-0.97265625,-0.29589844,-0.1875,-0.125,0.125,0.0,0.0,0.0,302
303,1696254876896,0.028320312,-0.97265625,-0.29785156,0.625,0.03125,0.1875,0.0,0.0,0.0,303
304,1696254876936,0.032226562,-0.96777344,-0.2998047,0.71875,0.09375,0.1875,0.0,0.0,0.0,304
305,1696254876976,0.030273438,-0.97558594,-0.30273438,0.375,-0.09375,0.125,0.0,0.0,0.0,305
306,1696254877016,0.02734375,-0.96777344,-0.3046875,0.0625,-0.03125,0.1875,10.625,-7.1875,-244.25,306
307,1696254877056,0.02734375,-0.9716797,-0.29785156,-0.25,0.03125,0.0625,0.0,0.0,0.0,307
308,1696254877096,0.02734375,-0.9736328,-0.29882812,-0.5,-0.09375,0.125,0.0,0.0,0.0,308
309,1696254877136,0.03125,-0.9658203,-0.30273438,-0.0625,-0.125,0.125,0.0,0.0,0.0,309
310,1696254877176,0.028320312,-0.9736328,-0.3017578,0.125,-0.03125,0.125,0.0,0.0,0.0,310
311,1696254877216,0.030273438,-0.98339844,-0.3076172,0.34375,0.09375,-0.03125,0.0,0.0,0.0,311
312,1696254877256,0.03125,-0.9785156,-0.29101562,0.46875,0.09375,0.09375,0.0,0.0,0.0,312
313,1696254877296,0.029296875,-0.9707031,-0.296875,0.15625,0.03125,-0.09375,0.0,0.0,0.0,313
314,1696254877336,0.032226562,-0.96875,-0.30078125,-0.125,-0.09375,-0.09375,0.0,0.0,0.0,314
315,1696254877376,0.032226562,-0.96777344,-0.30371094,-0.125,0.03125,-0.09375,0.0,0.0,0.0,315
316,1696254877416,0.02734375,-0.96484375,-0.3017578,-0.09375,0.03125,0.03125,0.0,0.0,0.0,316
317,1696254877456,0.03125,-0.9667969,-0.29296875,-0.03125,0.03125,0.03125,0.0,0.0,0.0,317
318,1696254877496,0.0234375,-0.9736328,-0.30566406,-0.09375,0.03125,-0.03125,0.0,0.0,0.0,318
319,1696254877536,0.028320312,-0.96875,-0.30078125,0.78125,0.15625,0.03125,9.75,-5.8125,-244.375,319
320,1696254877576,0.033203125,-0.97753906,-0.2939453,0.09375,0.03125,-0.09375,0.0,0.0,0.0,320
321,1696254877616,0.033203125,-0.96777344,-0.3017578,-0.3125,-0.09375,0.03125,0.0,0.0,0.0,321
322,1696254877656,0.025390625,-0.9667969,-0.3046875,-0.1875,-0.03125,0.03125,0.0,0.0,0.0,322
323,1696254877696,0.028320312,-0.97558594,-0.30371094,0.03125,-0.09375,-0.09375,0.0,0.0,0.0,323
324,1696254877736,0.026367188,-0.97265625,-0.30371094,0.28125,0.03125,-0.15625,0.0,0.0,0.0,324
325,1696254877776,0.024414062,-0.9667969,-0.2939453,0.21875,-0.03125,-0.21875,0.0,0.0,0.0,325
326,1696254877816,0.0234375,-0.9658203,-0.28222656,-0.125,-0.03125,-0.28125,0.0,0.0,0.0,326
327,1696254877856,0.024414062,-0.9716797,-0.3017578,-0.25,0.03125,-0.15625,0.0,0.0,0.0,327
328,1696254877896,0.033203125,-0.96875,-0.31054688,-0.4375,-0.09375,-0.21875,0.0,0.0,0.0,328
329,1696254877936,0.022460938,-0.96777344,-0.3046875,-0.25,-0.03125,0.03125,0.0,0.0,0.0,329
330,1696254877976,0.029296875,-0.9707031,-0.2890625,-0.125,-0.03125,-0.09375,0.0,0.0,0.0,330
331,1696254878016,0.03515625,-0.97265625,-0.3017578,-0.125,-0.03125,0.03125,10.9375,-8.1875,-243.5,331
332,1696254878056,0.01953125,-0.9658203,-0.29589844,0.03125,-0.03125,-0.09375,0.0,0.0,0.0,332
333,1696254878096,0.028320312,-0.96972656,-0.296875,0.21875,0.03125,-0.09375,0.0,0.0,0.0,333
334,1696254878136,0.024414062,-0.9765625,-0.30273438,-0.03125,0.03125,-0.09375,0.0,0.0,0.0,334
335,1696254878176,0.024414062,-0.9794922,-0.2861328,-0.25,-0.09375,-0.15625,0.0,0.0,0.0,335
336,1696254878216,0.02734375,-0.9814453,-0.30078125,-0.25,-0.15625,-0.03125,0.0,0.0,0.0,336
337,1696254878256,0.0234375,-0.9707031,-0.30273438,-0.125,-0.03125,-0.09375,0.0,0.0,0.0,337
338,1696254878296,0.030273438,-0.96972656,-0.29882812,0.03125,0.09375,0.09375,0.0,0.0,0.0,338
339,1696254878336,0.022460938,-0.97265625,-0.29492188,0.21875,0.03125,-0.03125,0.0,0.0,0.0,339
340,1696254878376,0.034179688,-0.9707031,-0.30273438,-0.1875,0.03125,-0.09375,0.0,0.0,0.0,340
341,1696254878416,0.033203125,-0.9628906,-0.30078125,-0.5625,0.03125,-0.09375,0.0,0.0,0.0,341
342,1696254878456,0.025390625,-0.9794922,-0.29882812,-0.125,-0.03125,-0.09375,0.0,0.0,0.0,342
343,1696254878496,0.032226562,-0.97558594,-0.2998047,0.03125,0.03125,-0.03125,0.0,0.0,0.0,343
344,1696254878536,0.030273438,-0.96875,-0.3046875,0.34375,0.21875,-0.28125,11.5625,-8.0625,-245.125,344
345,1696254878576,0.02734375,-0.9785156,-0.30078125,0.34375,0.09375,-0.28125,0.0,0.0,0.0,345
346,1696254878616,0.028320312,-0.96777344,-0.29589844,-0.09375,-0.03125,-0.09375,0.0,0.0,0.0,346
347,1696254878656,0.03125,-0.96972656,-0.29492188,-0.3125,-0.09375,-0.28125,0.0,0.0,0.0,347
348,1696254878696,0.026367188,-0.9736328,-0.30566406,-0.5625,-0.03125,-0.15625,0.0,0.0,0.0,348
349,1696254878736,0.033203125,-0.9765625,-0.29492188,-0.125,-0.09375,-0.03125,0.0,0.0,0.0,349
350,1696254878776,0.036132812,-0.9707031,-0.2919922,0.03125,0.03125,-0.09375,0.0,0.0,0.0,350
351,1696254878816,0.0234375,-0.9814453,-0.29785156,0.09375,0.03125,-0.15625,0.0,0.0,0.0,351
352,1696254878856,0.04296875,-0.96484375,-0.28710938,0.34375,0.09375,-0.15625,0.0,0.0,0.0,352
353,1696254878896,0.021484375,-0.97265625,-0.31152344,0.28125,0.03125,-0.15625,0.0,0.0,0.0,353
354,1696254878936,0.02734375,-0.9716797,-0.28710938,0.03125,0.03125,0.03125,0.0,0.0,0.0,354
355,1696254878976,0.034179688,-0.9716797,-0.2861328,-0.25,-0.15625,-0.09375,0.0,0.0,0.0,355
356,1696254879016,0.029296875,-0.9707031,-0.29492188,-0.1875,-0.15625,-0.09375,10.375,-6.4375,-244.5625,356
357,1696254879056,0.037109375,-0.9638672,-0.2890625,-0.25,-0.03125,-0.09375,0.0,0.0,0.0,357
358,1696254879096,0.03125,-0.9736328,-0.29882812,-0.1875,-0.03125,-0.03125,0.0,0.0,0.0,358
359,1696254879136,0.032226562,-0.9765625,-0.30371094,-0.25,-0.09375,-0.03125,0.0,0.0,0.0,359
360,1696254879176,0.032226562,-0.9707031,-0.30273438,0.21875,-0.03125,0.09375,0.0,0.0,0.0,360
361,1696254879216,0.026367188,-0.9765625,-0.3017578,0.21875,0.09375,0.09375,0.0,0.0,0.0,361
362,1696254879256,0.030273438,-0.96875,-0.296875,-0.1875,-0.03125,0.09375,0.0,0.0,0.0,362
363,1696254879296,0.024414062,-0.9667969,-0.31347656,0.03125,0.09375,-0.15625,0.0,0.0,0.0,363
364,1696254879336,0.03125,-0.9716797,-0.31640625,-0.03125,0.09375,-0.09375,0.0,0.0,0.0,364
365,1696254879376,0.029296875,-0.96777344,-0.29003906,0.21875,-0.03125,-0.15625,0.0,0.0,0.0,365
366,1696254879416,0.034179688,-0.96875,-0.31054688,0.21875,0.09375,-0.09375,0.0,0.0,0.0,366
367,1696254879456,0.028320312,-0.9716797,-0.29296875,-0.125,0.03125,-0.09375,0.0,0.0,0.0,367
368,1696254879496,0.026367188,-0.96777344,-0.2939453,-0.375,-0.09375,-0.15625,0.0,0.0,0.0,368
369,1696254879536,0.02734375,-0.9716797,-0.2998047,-0.375,0.03125,-0.03125,11.5625,-7.0,-245.125,369
370,1696254879576,0.036132812,-0.9707031,-0.3076172,-0.09375,0.03125,0.15625,0.0,0.0,0.0,370
371,1696254879616,0.024414062,-0.96484375,-0.30371094,0.09375,0.03125,-0.15625,0.0,0.0,0.0,371
372,1696254879656,0.033203125,-0.9707031,-0.3095703,0.28125,0.03125,-0.09375,0.0,0.0,0.0,372
373,1696254879696,0.03125,-0.9716797,-0.29785156,0.03125,0.09375,-0.09375,0.0,0.0,0.0,373
374,1696254879736,0.026367188,-0.97558594,-0.2998047,0.09375,0.03125,-0.03125,0.0,0.0,0.0,374
375,1696254879776,0.029296875,-0.96484375,-0.29003906,0.03125,-0.09375,-0.03125,0.0,0.0,0.0,375
376,1696254879816,0.033203125,-0.9667969,-0.296875,-0.09375,0.09375,-0.09375,0.0,0.0,0.0,376
377,1696254879856,0.03125,-0.9736328,-0.29492188,-0.1875,-0.03125,-0.03125,0.0,0.0,0.0,377
378,1696254879896,0.029296875,-0.9707031,-0.29589844,-0.4375,-0.03125,-0.03125,0.0,0.0,0.0,378
379,1696254879936,0.028320312,-0.96875,-0.3095703,-0.09375,0.09375,-0.09375,0.0,0.0,0.0,379
380,1696254879976,0.022460938,-0.97265625,-0.3017578,-0.125,-0.09375,-0.09375,0.0,0.0,0.0,380
381,1696254880016,0.030273438,-0.96484375,-0.29882812,0.15625,0.09375,0.09375,10.8125,-7.3125,-244.375,381
382,1696254880056,0.0390625,-0.96875,-0.29785156,-0.125,-0.03125,0.03125,0.0,0.0,0.0,382
383,1696254880096,0.037109375,-0.96777344,-0.30859375,-0.3125,-0.15625,-0.03125,0.0,0.0,0.0,383
384,1696254880136,0.0390625,-0.9746094,-0.31347656,-0.09375,0.03125,0.03125,0.0,0.0,0.0,384
385,1696254880176,0.030273438,-0.9707031,-0.30664062,0.09375,0.09375,-0.09375,0.0,0.0,0.0,385
386,1696254880216,0.036132812,-0.9658203,-0.31054688,0.40625,0.09375,-0.03125,0.0,0.0,0.0,386
387,1696254880256,0.02734375,-0.9765625,-0.30371094,0.53125,0.03125,-0.15625,0.0,0.0,0.0,387
388,1696254880296,0.029296875,-0.9667969,-0.2998047,-0.03125,0.03125,0.09375,0.0,0.0,0.0,388
389,1696254880336,0.026367188,-0.9667969,-0.3076172,-0.25,-0.09375,0.09375,0.0,0.0,0.0,389
390,1696254880376,0.0390625,-0.97265625,-0.29296875,-0.4375,-0.15625,-0.03125,0.0,0.0,0.0,390
391,1696254880416,0.028320312,-0.97265625,-0.29785156,-0.09375,0.03125,0.09375,0.0,0.0,0.0,391
392,1696254880456,0.030273438,-0.96484375,-0.3125,-0.03125,-0.03125,0.03125,0.0,0.0,0.0,392
393,1696254880496,0.029296875,-0.9736328,-0.30859375,0.21875,0.09375,0.03125,0.0,0.0,0.0,393
394,1696254880536,0.0234375,-0.9736328,-0.2939453,0.15625,0.09375,-0.03125,11.25,-6.5625,-244.375,394
395,1696254880576,0.033203125,-0.9638672,-0.31054688,0.15625,0.09375,0.03125,0.0,0.0,0.0,395
396,1696254880616,0.030273438,-0.96972656,-0.29882812,0.03125,0.09375,0.03125,0.0,0.0,0.0,396
397,1696254880656,0.029296875,-0.97265625,-0.2861328,-0.125,-0.09375,-0.03125,0.0,0.0,0.0,397
398,1696254880696,0.024414062,-0.96875,-0.2890625,-0.09375,-0.03125,0.03125,0.0,0.0,0.0,398
399,1696254880736,0.028320312,-0.9785156,-0.2998047,-0.125,-0.03125,0.03125,0.0,0.0,0.0,399
400,1696254880776,0.029296875,-0.9736328,-0.30273438,0.21875,0.03125,-0.03125,0.0,0.0,0.0,400
401,1696254880816,0.032226562,-0.9638672,-0.30078125,0.03125,0.03125,0.09375,0.0,0.0,0.0,401
402,1696254880856,0.024414062,-0.9667969,-0.3046875,0.21875,0.15625,-0.03125,0.0,0.0,0.0,402
403,1696254880896,0.034179688,-0.96875,-0.2890625,0.21875,-0.09375,0.15625,0.0,0.0,0.0,403
404,1696254880936,0.032226562,-0.9765625,-0.3095703,-0.1875,-0.03125,-0.03125,0.0,0.0,0.0,404
405,1696254880976,0.029296875,-0.9658203,-0.29492188,-0.125,-0.09375,0.03125,9.625,-5.6875,-244.875,405
406,1696254881016,0.03125,-0.9716797,-0.30371094,0.15625,0.09375,-0.03125,0.0,0.0,0.0,406
407,1696254881056,0.0234375,-0.9736328,-0.31152344,0.40625,0.09375,-0.09375,0.0,0.0,0.0,407
408,1696254881096,0.025390625,-0.9667969,-0.2890625,0.59375,0.03125,0.03125,0.0,0.0,0.0,408
409,1696254881136,0.0234375,-0.9707031,-0.30371094,-0.0625,-0.0625,0.0,0.0,0.0,0.0,409
410,1696254881176,0.029296875,-0.96972656,-0.2998047,-0.1875,-0.0625,-0.125,0.0,0.0,0.0,410
411,1696254881216,0.028320312,-0.98046875,-0.30664062,-0.375,-0.125,-0.125,0.0,0.0,0.0,411
412,1696254881256,0.032226562,-0.9707031,-0.30566406,-0.3125,-0.0625,-0.0625,0.0,0.0,0.0,412
413,1696254881296,0.02734375,-0.96484375,-0.30078125,0.0,-0.125,-0.125,0.0,0.0,0.0,413
414,1696254881336,0.032226562,-0.97558594,-0.296875,0.0625,0.0625,0.0,0.0,0.0,0.0,414
415,1696254881376,0.0234375,-0.9746094,-0.30859375,0.25,0.0625,0.0,0.0,0.0,0.0,415
416,1696254881416,0.02734375,-0.97265625,-0.2998047,0.375,0.0625,-0.0625,0.0,0.0,0.0,416
417,1696254881456,0.032226562,-0.96875,-0.29296875,0.0,-0.0625,-0.0625,0.0,0.0,0.0,417
418,1696254881496,0.025390625,-0.97558594,-0.30371094,-0.5,-0.0625,-0.125,0.0,0.0,0.0,418
419,1696254881536,0.029296875,-0.96875,-0.29882812,-0.4375,-0.1875,-0.0625,10.1875,-6.25,-242.75,419
420,1696254881576,0.02734375,-0.96777344,-0.29101562,0.0,0.0625,-0.125,0.0,0.0,0.0,420
421,1696254881616,0.022460938,-0.96777344,-0.296875,0.0625,0.0625,-0.125,0.0,0.0,0.0,421
422,1696254881656,0.028320312,-0.9794922,-0.296875,-0.0625,0.1875,-0.0625,0.0,0.0,0.0,422
423,1696254881696,0.026367188,-0.98046875,-0.2841797,-0.125,-0.0625,-0.125,0.0,0.0,0.0,423
424,1696254881736,0.026367188,-0.9658203,-0.2998047,-0.375,-0.0625,-0.21875,0.0,0.0,0.0,424
425,1696254881776,0.032226562,-0.9667969,-0.296875,-0.625,-0.0625,-0.0625,0.0,0.0,0.0,425
426,1696254881816,0.028320312,-0.96191406,-0.29785156,-0.3125,0.0625,-0.0625,0.0,0.0,0.0,426
427,1696254881856,0.036132812,-0.9707031,-0.31347656,0.25,0.0625,-0.125,0.0,0.0,0.0,427
428,1696254881896,0.029296875,-0.9707031,-0.29003906,0.375,0.25,-0.21875,0.0,0.0,0.0,428
429,1696254881936,0.028320312,-0.97265625,-0.2939453,0.375,0.0625,-0.21875,0.0,0.0,0.0,429
430,1696254881976,0.029296875,-0.9765625,-0.2939453,-0.3125,-0.0625,-0.21875,0.0,0.0,0.0,430
431,1696254882016,0.028320312,-0.96777344,-0.29589844,-0.25,-0.25,-0.125,11.25,-7.3125,-244.6875,431
432,1696254882056,0.025390625,-0.97558594,-0.3154297,-0.4375,0.0,-0.21875,0.0,0.0,0.0,432
433,1696254882096,0.024414062,-0.96972656,-0.2861328,-0.375,0.0,-0.125,0.0,0.0,0.0,433
434,1696254882136,0.029296875,-0.97558594,-0.30273438,-0.125,-0.1875,-0.0625,0.0,0.0,0.0,434
435,1696254882176,0.029296875,-0.9736328,-0.29785156,0.0,-0.125,-0.125,0.0,0.0,0.0,435
436,1696254882216,0.03515625,-0.9736328,-0.30566406,0.0625,0.0,-0.0625,0.0,0.0,0.0,436
437,1696254882256,0.020507812,-0.9658203,-0.31152344,0.0,0.0,-0.0625,0.0,0.0,0.0,437
438,1696254882296,0.0390625,-0.9736328,-0.29882812,-0.1875,-0.0625,-0.1875,0.0,0.0,0.0,438
439,1696254882336,0.036132812,-0.9736328,-0.29589844,-0.1875,-0.0625,-0.0625,0.0,0.0,0.0,439
440,1696254882376,0.03125,-0.9746094,-0.296875,-0.25,-0.0625,-0.125,0.0,0.0,0.0,440
441,1696254882416,0.02734375,-0.9707031,-0.3095703,-0.125,0.0625,-0.0625,0.0,0.0,0.0,441
442,1696254882456,0.022460938,-0.96972656,-0.3076172,-0.1875,-0.1875,0.0625,0.0,0.0,0.0,442
443,1696254882496,0.03125,-0.96484375,-0.296875,-0.1875,-0.125,0.0625,0.0,0.0,0.0,443
444,1696254882536,0.028320312,-0.97753906,-0.29296875,-0.1875,-0.125,-0.1875,9.3125,-7.1875,-243.5,444
445,1696254882576,0.03515625,-0.9716797,-0.30664062,0.0625,0.0,-0.0625,0.0,0.0,0.0,445
446,1696254882616,0.03125,-0.97753906,-0.30664062,-0.1875,0.0,-0.125,0.0,0.0,0.0,446
447,1696254882656,0.036132812,-0.9716797,-0.30371094,-0.3125,-0.0625,-0.28125,0.0,0.0,0.0,447
448,1696254882696,0.021484375,-0.9707031,-0.3125,0.0,0.125,-0.125,0.0,0.0,0.0,448
449,1696254882736,0.03125,-0.97558594,-0.296875,0.3125,0.0,-0.0625,0.0,0.0,0.0,449
450,1696254882776,0.026367188,-0.9707031,-0.29101562,0.375,0.0,-0.125,0.0,0.0,0.0,450
451,1696254882816,0.03125,-0.9707031,-0.30566406,0.125,-0.0625,-0.125,0.0,0.0,0.0,451
452,1696254882856,0.026367188,-0.9628906,-0.3017578,-0.3125,-0.125,-0.21875,0.0,0.0,0.0,452
453,1696254882896,0.03515625,-0.9716797,-0.2890625,-0.4375,-0.125,-0.21875,0.0,0.0,0.0,453
454,1696254882936,0.024414062,-0.96777344,-0.29003906,-0.5625,-0.0625,-0.125,0.0,0.0,0.0,454
455,1696254882976,0.02734375,-0.96972656,-0.29492188,-0.1875,-0.25,-0.125,0.0,0.0,0.0,455
456,1696254883016,0.01953125,-0.9707031,-0.2998047,0.0625,0.0,-0.125,10.625,-6.4375,-242.875,456
457,1696254883056,0.026367188,-0.97265625,-0.30078125,0.125,0.0625,-0.125,0.0,0.0,0.0,457
458,1696254883096,0.028320312,-0.9746094,-0.29882812,0.125,0.0625,-0.1875,0.0,0.0,0.0,458
459,1696254883136,0.03515625,-0.97753906,-0.2939453,0.0,0.0625,-0.0625,0.0,0.0,0.0,459
460,1696254883176,0.032226562,-0.97265625,-0.29589844,-0.1875,-0.0625,-0.0625,0.0,0.0,0.0,460
461,1696254883216,0.018554688,-0.96484375,-0.29492188,-0.25,-0.0625,-0.1875,0.0,0.0,0.0,461
462,1696254883256,0.029296875,-0.9746094,-0.29589844,-0.25,-0.0625,-0.1875,0.0,0.0,0.0,462
463,1696254883296,0.03125,-0.9638672,-0.3046875,-0.375,-0.0625,0.0,0.0,0.0,0.0,463
464,1696254883336,0.02734375,-0.96972656,-0.30664062,-0.125,-0.0625,0.0,0.0,0.0,0.0,464
465,1696254883376,0.030273438,-0.96972656,-0.296875,-0.125,0.0,-0.1875,0.0,0.0,0.0,465
466,1696254883416,0.026367188,-0.9785156,-0.3046875,0.25,-0.125,-0.125,0.0,0.0,0.0,466
467,1696254883456,0.029296875,-0.9609375,-0.30078125,-0.125,0.0,-0.125,0.0,0.0,0.0,467
468,1696254883496,0.03125,-0.96191406,-0.2919922,-0.4375,-0.125,-0.21875,0.0,0.0,0.0,468
469,1696254883536,0.030273438,-0.9667969,-0.2939453,-0.1875,-0.125,-0.21875,9.625,-6.6875,-243.9375,469
470,1696254883576,0.03515625,-0.9794922,-0.3095703,0.0625,0.125,-0.1875,0.0,0.0,0.0,470
471,1696254883616,0.034179688,-0.9707031,-0.29785156,0.375,0.125,-0.125,0.0,0.0,0.0,471
472,1696254883656,0.028320312,-0.96972656,-0.3095703,0.375,0.0,-0.1875,0.0,0.0,0.0,472
473,1696254883696,0.021484375,-0.9746094,-0.29492188,-0.125,-0.0625,-0.0625,0.0,0.0,0.0,473
474,1696254883736,0.03515625,-0.96972656,-0.30273438,-0.4375,-0.125,-0.21875,0.0,0.0,0.0,474
475,1696254883776,0.033203125,-0.9638672,-0.2998047,-0.5,-0.125,-0.125,0.0,0.0,0.0,475
476,1696254883816,0.034179688,-0.9736328,-0.29882812,-0.0625,0.0,-0.0625,0.0,0.0,0.0,476
477,1696254883856,0.036132812,-0.9736328,-0.30078125,-0.125,-0.0625,-0.1875,0.0,0.0,0.0,477
478,1696254883896,0.0390625,-0.9716797,-0.30371094,-0.1875,-0.125,-0.125,0.0,0.0,0.0,478
479,1696254883936,0.02734375,-0.9765625,-0.29101562,0.125,-0.125,-0.125,0.0,0.0,0.0,479
480,1696254883976,0.036132812,-0.9658203,-0.29882812,0.125,0.0,-0.125,0.0,0.0,0.0,480
481,1696254884016,0.033203125,-0.96875,-0.30273438,-0.125,0.0,-0.0625,11.25,-6.25,-244.375,481
482,1696254884056,0.03125,-0.9746094,-0.30273438,-0.375,-0.0625,-0.125,0.0,0.0,0.0,482
483,1696254884096,0.025390625,-0.97265625,-0.29003906,-0.3125,-0.0625,-0.1875,0.0,0.0,0.0,483
484,1696254884136,0.032226562,-0.96777344,-0.30371094,-0.375,-0.1875,-0.125,0.0,0.0,0.0,484
485,1696254884176,0.030273438,-0.9716797,-0.29882812,-0.25,-0.125,-0.125,0.0,0.0,0.0,485
486,1696254884216,0.033203125,-0.9746094,-0.30371094,-0.25,-0.0625,-0.125,0.0,0.0,0.0,486
487,1696254884256,0.040039062,-0.9667969,-0.29882812,0.1875,-0.0625,0.0625,0.0,0.0,0.0,487
488,1696254884296,0.032226562,-0.9746094,-0.28710938,-0.0625,0.0,-0.21875,0.0,0.0,0.0,488
489,1696254884336,0.030273438,-0.9716797,-0.30371094,-0.4375,-0.1875,-0.0625,0.0,0.0,0.0,489
490,1696254884376,0.034179688,-0.97265625,-0.30371094,-0.3125,-0.0625,-0.21875,0.0,0.0,0.0,490
491,1696254884416,0.03515625,-0.97753906,-0.29785156,-0.0625,-0.0625,-0.125,0.0,0.0,0.0,491
492,1696254884456,0.034179688,-0.96875,-0.30371094,0.375,0.0625,-0.1875,0.0,0.0,0.0,492
493,1696254884496,0.029296875,-0.96875,-0.30859375,0.4375,-0.125,-0.125,0.0,0.0,0.0,493
494,1696254884536,0.030273438,-0.9716797,-0.2919922,0.0625,0.0,-0.0625,10.375,-7.1875,-245.3125,494
495,1696254884576,0.036132812,-0.9794922,-0.29492188,-0.3125,-0.125,-0.1875,0.0,0.0,0.0,495
496,1696254884616,0.030273438,-0.9765625,-0.30664062,-0.6875,-0.25,0.0,0.0,0.0,0.0,496
497,1696254884656,0.038085938,-0.96875,-0.2939453,-0.0625,0.0625,-0.125,0.0,0.0,0.0,497
498,1696254884696,0.034179688,-0.97265625,-0.30078125,0.0625,0.0625,-0.1875,0.0,0.0,0.0,498
499,1696254884736,0.028320312,-0.9736328,-0.3076172,0.125,0.0,-0.125,0.0,0.0,0.0,499
500,1696254884776,0.026367188,-0.9765625,-0.30273438,0.1875,0.0,0.0,0.0,0.0,0.0,500
501,1696254884816,0.0234375,-0.9794922,-0.30566406,0.125,-0.1875,-0.0625,0.0,0.0,0.0,501
502,1696254884856,0.028320312,-0.97265625,-0.2998047,0.0,0.0,-0.0625,0.0,0.0,0.0,502
503,1696254884896,0.02734375,-0.9716797,-0.29492188,0.0,0.0,-0.125,0.0,0.0,0.0,503
504,1696254884936,0.034179688,-0.9736328,-0.28515625,-0.125,-0.125,-0.125,0.0,0.0,0.0,504
505,1696254884976,0.029296875,-0.9707031,-0.296875,-0.1875,-0.0625,0.0,0.0,0.0,0.0,505
506,1696254885016,0.034179688,-0.96972656,-0.29101562,-0.3125,-0.125,0.0,10.375,-7.4375,-244.875,506
507,1696254885056,0.022460938,-0.96972656,-0.28320312,0.0,-0.0625,-0.125,0.0,0.0,0.0,507
508,1696254885096,0.024414062,-0.98046875,-0.29589844,0.0,0.0625,-0.0625,0.0,0.0,0.0,508
509,1696254885136,0.024414062,-0.9716797,-0.29296875,-0.4375,-0.25,-0.0625,0.0,0.0,0.0,509
510,1696254885176,0.029296875,-0.96875,-0.2919922,-0.375,0.0,0.0,0.0,0.0,0.0,510
511,1696254885216,0.018554688,-0.9736328,-0.2890625,0.0,0.125,0.0,0.0,0.0,0.0,511
512,1696254885256,0.034179688,-0.96777344,-0.2939453,0.3125,0.0625,-0.1875,0.0,0.0,0.0,512
513,1696254885296,0.026367188,-0.96972656,-0.30566406,0.375,0.125,-0.125,0.0,0.0,0.0,513
514,1696254885336,0.030273438,-0.96972656,-0.29785156,-0.0625,-0.125,-0.21875,0.0,0.0,0.0,514
515,1696254885376,0.033203125,-0.9667969,-0.2939453,-0.1875,-0.1875,-0.1875,0.0,0.0,0.0,515
516,1696254885416,0.02734375,-0.96875,-0.30078125,-0.625,-0.125,-0.0625,0.0,0.0,0.0,516
517,1696254885456,0.026367188,-0.9716797,-0.29296875,-0.4375,-0.0625,-0.1875,0.0,0.0,0.0,517
518,1696254885496,0.040039062,-0.9736328,-0.29589844,-0.125,-0.125,-0.1875,0.0,0.0,0.0,518
519,1696254885536,0.020507812,-0.96777344,-0.29785156,-0.3125,-0.125,-0.21875,10.8125,-6.25,-245.125,519
520,1696254885576,0.033203125,-0.9736328,-0.296875,-0.0625,0.0,-0.1875,0.0,0.0,0.0,520
521,1696254885616,0.032226562,-0.9785156,-0.296875,0.3125,-0.0625,-0.125,0.0,0.0,0.0,521
522,1696254885656,0.0390625,-0.9707031,-0.29492188,0.25,0.125,-0.1875,0.0,0.0,0.0,522
523,1696254885696,0.02734375,-0.9716797,-0.29296875,-0.125,0.0,-0.21875,0.0,0.0,0.0,523
524,1696254885736,0.030273438,-0.9589844,-0.296875,-0.1875,-0.1875,-0.1875,0.0,0.0,0.0,524
525,1696254885776,0.03515625,-0.9746094,-0.30859375,-0.4375,-0.125,-0.1875,0.0,0.0,0.0,525
526,1696254885816,0.026367188,-0.9638672,-0.2890625,-0.3125,0.0,-0.1875,0.0,0.0,0.0,526
527,1696254885856,0.020507812,-0.96875,-0.2939453,-0.125,-0.0625,-0.21875,0.0,0.0,0.0,527
528,1696254885896,0.030273438,-0.96484375,-0.30273438,-0.3125,0.0625,-0.1875,0.0,0.0,0.0,528
529,1696254885936,0.022460938,-0.9746094,-0.28710938,-0.3125,0.0,-0.1875,0.0,0.0,0.0,529
530,1696254885976,0.030273438,-0.97265625,-0.30078125,-0.25,-0.0625,-0.21875,0.0,0.0,0.0,530
531,1696254886016,0.022460938,-0.98046875,-0.29785156,0.375,0.0,-0.1875,11.375,-7.4375,-244.875,531
532,1696254886056,0.02734375,-0.9736328,-0.2919922,0.125,0.125,-0.28125,0.0,0.0,0.0,532
533,1696254886096,0.0390625,-0.96484375,-0.296875,-0.125,0.0,-0.21875,0.0,0.0,0.0,533
534,1696254886136,0.026367188,-0.9736328,-0.30371094,-0.3125,-0.1875,-0.21875,0.0,0.0,0.0,534
535,1696254886176,0.032226562,-0.97753906,-0.29785156,-0.6875,-0.125,-0.1875,0.0,0.0,0.0,535
536,1696254886216,0.0390625,-0.9765625,-0.296875,-0.4375,-0.1875,-0.125,0.0,0.0,0.0,536
537,1696254886256,0.033203125,-0.9707031,-0.28515625,-0.125,0.0,-0.21875,0.0,0.0,0.0,537
538,1696254886296,0.037109375,-0.9814453,-0.3046875,0.0,0.0,-0.0625,0.0,0.0,0.0,538
539,1696254886336,0.034179688,-0.9707031,-0.29296875,-0.0625,-0.0625,-0.1875,0.0,0.0,0.0,539
540,1696254886376,0.026367188,-0.9863281,-0.30566406,0.25,0.0,-0.1875,0.0,0.0,0.0,540
541,1696254886416,0.030273438,-0.9716797,-0.30078125,0.375,0.125,-0.21875,0.0,0.0,0.0,541
542,1696254886456,0.026367188,-0.96875,-0.28710938,0.0625,0.0,-0.125,0.0,0.0,0.0,542
543,1696254886496,0.026367188,-0.97558594,-0.29589844,-0.1875,0.0625,-0.21875,0.0,0.0,0.0,543
544,1696254886536,0.036132812,-0.9765625,-0.29296875,-0.4375,-0.25,0.0,11.375,-5.375,-243.9375,544
545,1696254886576,0.028320312,-0.96972656,-0.29882812,-0.5625,-0.0625,-0.0625,0.0,0.0,0.0,545
546,1696254886616,0.02734375,-0.9707031,-0.2998047,-0.3125,-0.125,-0.125,0.0,0.0,0.0,546
547,1696254886656,0.026367188,-0.97265625,-0.3017578,-0.0625,0.1875,-0.1875,0.0,0.0,0.0,547
548,1696254886696,0.02734375,-0.97265625,-0.29492188,-0.25,-0.1875,-0.125,0.0,0.0,0.0,548
549,1696254886736,0.021484375,-0.96875,-0.29492188,-0.3125,-0.0625,-0.125,0.0,0.0,0.0,549
550,1696254886776,0.02734375,-0.9746094,-0.29785156,0.0,-0.1875,-0.1875,0.0,0.0,0.0,550
551,1696254886816,0.029296875,-0.9794922,-0.2998047,0.125,0.0625,-0.125,0.0,0.0,0.0,551
552,1696254886856,0.028320312,-0.97753906,-0.29296875,0.1875,0.125,-0.21875,0.0,0.0,0.0,552
553,1696254886896,0.036132812,-0.9736328,-0.3046875,-0.1875,0.0,-0.21875,0.0,0.0,0.0,553
554,1696254886936,0.029296875,-0.9667969,-0.29589844,-0.25,-0.125,-0.125,0.0,0.0,0.0,554
555,1696254886976,0.033203125,-0.96484375,-0.30078125,-0.375,-0.25,-0.1875,0.0,0.0,0.0,555
556,1696254887016,0.025390625,-0.9716797,-0.2841797,-0.4375,-0.125,-0.1875,11.6875,-6.4375,-244.875,556
557,1696254887056,0.030273438,-0.96777344,-0.29101562,-0.25,-0.1875,-0.125,0.0,0.0,0.0,557
558,1696254887096,0.02734375,-0.96972656,-0.30371094,-0.1875,-0.0625,-0.1875,0.0,0.0,0.0,558
559,1696254887136,0.030273438,-0.96777344,-0.3125,0.0625,0.0,-0.1875,0.0,0.0,0.0,559
560,1696254887176,0.026367188,-0.9746094,-0.30664062,0.0625,0.0625,-0.125,0.0,0.0,0.0,560
561,1696254887216,0.034179688,-0.97558594,-0.29492188,0.0,0.0,-0.125,0.0,0.0,0.0,561
562,1696254887256,0.03125,-0.9746094,-0.29003906,-0.25,-0.0625,-0.28125,0.0,0.0,0.0,562
563,1696254887296,0.026367188,-0.9707031,-0.29882812,-0.25,-0.1875,-0.1875,0.0,0.0,0.0,563
564,1696254887336,0.032226562,-0.96484375,-0.3154297,-0.375,-0.125,-0.125,0.0,0.0,0.0,564
565,1696254887376,0.028320312,-0.9736328,-0.30078125,-0.1875,-0.1875,-0.125,0.0,0.0,0.0,565
566,1696254887416,0.03125,-0.9746094,-0.29785156,-0.0625,0.0,-0.125,0.0,0.0,0.0,566
567,1696254887456,0.03125,-0.96484375,-0.2890625,0.1875,-0.125,0.0625,0.0,0.0,0.0,567
568,1696254887496,0.0234375,-0.9736328,-0.2890625,-0.25,-0.125,-0.125,0.0,0.0,0.0,568
569,1696254887536,0.036132812,-0.9746094,-0.30078125,-0.4375,-0.0625,-0.1875,9.75,-5.8125,-243.375,569
570,1696254887576,0.028320312,-0.96777344,-0.3125,-0.1875,-0.0625,-0.125,0.0,0.0,0.0,570
571,1696254887616,0.032226562,-0.98046875,-0.29589844,0.125,0.0625,-0.28125,0.0,0.0,0.0,571
572,1696254887656,0.034179688,-0.96875,-0.2998047,0.5,0.0,-0.1875,0.0,0.0,0.0,572
573,1696254887696,0.026367188,-0.97753906,-0.2919922,0.0,-0.0625,-0.21875,0.0,0.0,0.0,573
574,1696254887736,0.021484375,-0.97265625,-0.296875,-0.1875,-0.0625,-0.21875,0.0,0.0,0.0,574
575,1696254887776,0.028320312,-0.9765625,-0.29882812,-0.6875,-0.0625,-0.21875,0.0,0.0,0.0,575
576,1696254887816,0.032226562,-0.9658203,-0.29003906,-0.3125,-0.25,-0.0625,0.0,0.0,0.0,576
577,1696254887856,0.029296875,-0.98046875,-0.29492188,-0.1875,-0.125,-0.125,0.0,0.0,0.0,577
578,1696254887896,0.032226562,-0.97265625,-0.29003906,-0.1875,-0.0625,-0.125,0.0,0.0,0.0,578
579,1696254887936,0.024414062,-0.9824219,-0.3017578,0.0,0.125,-0.0625,0.0,0.0,0.0,579
580,1696254887976,0.025390625,-0.9716797,-0.29785156,-0.1875,-0.125,-0.125,0.0,0.0,0.0,580
581,1696254888016,0.029296875,-0.9765625,-0.30078125,-0.0625,0.0,-0.125,10.8125,-6.5625,-243.625,581
582,1696254888056,0.032226562,-0.9746094,-0.30273438,-0.25,-0.0625,-0.0625,0.0,0.0,0.0,582
583,1696254888096,0.03125,-0.9658203,-0.28027344,-0.25,-0.0625,-0.0625,0.0,0.0,0.0,583
584,1696254888136,0.036132812,-0.9736328,-0.29882812,-0.1875,-0.125,-0.125,0.0,0.0,0.0,584
585,1696254888176,0.036132812,-0.96875,-0.30273438,-0.1875,-0.125,-0.125,0.0,0.0,0.0,585
586,1696254888216,0.032226562,-0.9794922,-0.29882812,-0.1875,-0.1875,0.0625,0.0,0.0,0.0,586
587,1696254888256,0.032226562,-0.9785156,-0.30566406,0.0625,0.0625,-0.0625,0.0,0.0,0.0,587
588,1696254888296,0.026367188,-0.9746094,-0.28515625,0.375,-0.0625,-0.125,0.0,0.0,0.0,588
589,1696254888336,0.032226562,-0.9716797,-0.3017578,-0.375,-0.125,-0.125,0.0,0.0,0.0,589
590,1696254888376,0.026367188,-0.97265625,-0.30664062,-0.375,-0.0625,-0.1875,0.0,0.0,0.0,590
591,1696254888416,0.030273438,-0.97558594,-0.2939453,0.125,0.125,-0.125,0.0,0.0,0.0,591
592,1696254888456,0.0234375,-0.9667969,-0.30664062,0.1875,0.125,-0.125,0.0,0.0,0.0,592
593,1696254888496,0.032226562,-0.9794922,-0.296875,0.375,-0.0625,-0.0625,0.0,0.0,0.0,593
594,1696254888536,0.024414062,-0.9658203,-0.2998047,0.0625,-0.0625,-0.125,9.625,-7.1875,-245.3125,594
595,1696254888576,0.01953125,-0.97265625,-0.30371094,-0.0625,-0.1875,-0.0625,0.0,0.0,0.0,595
596,1696254888616,0.034179688,-0.96972656,-0.31054688,-0.3125,-0.0625,-0.125,0.0,0.0,0.0,596
597,1696254888656,0.024414062,-0.96875,-0.30566406,-0.125,-0.125,-0.1875,0.0,0.0,0.0,597
598,1696254888696,0.029296875,-0.98046875,-0.2890625,-0.25,-0.0625,-0.0625,0.0,0.0,0.0,598
599,1696254888736,0.0390625,-0.9765625,-0.296875,-0.25,-0.125,-0.0625,0.0,0.0,0.0,599
600,1696254888776,0.021484375,-0.9746094,-0.2998047,-0.1875,-0.125,-0.0625,0.0,0.0,0.0,600
601,1696254888816,0.03125,-0.96875,-0.29003906,0.0,-0.0625,-0.0625,0.0,0.0,0.0,601
602,1696254888856,0.02734375,-0.9638672,-0.30273438,-0.0625,0.0625,0.0,0.0,0.0,0.0,602
603,1696254888896,0.020507812,-0.98339844,-0.3017578,-0.15625,-0.0625,-0.03125,0.0,0.0,0.0,603
604,1696254888936,0.03125,-0.9638672,-0.2939453,-0.03125,0.15625,-0.09375,0.0,0.0,0.0,604
605,1696254888976,0.034179688,-0.9794922,-0.30664062,-0.03125,0.0625,0.03125,0.0,0.0,0.0,605
606,1696254889016,0.0234375,-0.9736328,-0.29492188,-0.09375,-0.0625,0.03125,10.375,-4.625,-244.25,606
607,1696254889056,0.04296875,-0.9736328,-0.2939453,-0.03125,0.0,0.09375,0.0,0.0,0.0,607
608,1696254889096,0.032226562,-0.97558594,-0.296875,0.03125,0.0625,0.03125,0.0,0.0,0.0,608
609,1696254889136,0.0234375,-0.9707031,-0.30566406,0.15625,-0.0625,0.03125,0.0,0.0,0.0,609
610,1696254889176,0.028320312,-0.9658203,-0.29785156,-0.21875,0.09375,-0.15625,0.0,0.0,0.0,610
611,1696254889216,0.032226562,-0.9736328,-0.29882812,-0.40625,0.0,-0.15625,0.0,0.0,0.0,611
612,1696254889256,0.029296875,-0.98046875,-0.29492188,0.03125,0.0625,-0.15625,0.0,0.0,0.0,612
613,1696254889296,0.02734375,-0.9638672,-0.2939453,0.21875,0.15625,-0.15625,0.0,0.0,0.0,613
614,1696254889336,0.021484375,-0.97265625,-0.2919922,0.53125,0.09375,-0.21875,0.0,0.0,0.0,614
615,1696254889376,0.03125,-0.9667969,-0.29296875,0.15625,0.0625,-0.15625,0.0,0.0,0.0,615
616,1696254889416,0.026367188,-0.9716797,-0.30664062,-0.28125,0.0,-0.15625,0.0,0.0,0.0,616
617,1696254889456,0.029296875,-0.9785156,-0.3017578,-0.28125,0.0,-0.09375,0.0,0.0,0.0,617
618,1696254889496,0.026367188,-0.9794922,-0.3076172,-0.40625,-0.0625,-0.15625,0.0,0.0,0.0,618
619,1696254889536,0.030273438,-0.9667969,-0.30859375,-0.09375,-0.0625,-0.03125,11.875,-5.8125,-244.6875,619
620,1696254889576,0.03125,-0.97558594,-0.28710938,-0.21875,-0.125,-0.21875,0.0,0.0,0.0,620
621,1696254889616,0.032226562,-0.96972656,-0.2890625,-0.03125,0.0,-0.09375,0.0,0.0,0.0,621
622,1696254889656,0.034179688,-0.97265625,-0.29589844,0.28125,0.0625,-0.03125,0.0,0.0,0.0,622
623,1696254889696,0.03125,-0.9716797,-0.30273438,0.15625,0.0625,-0.09375,0.0,0.0,0.0,623
624,1696254889736,0.032226562,-0.97265625,-0.30566406,-0.15625,-0.125,-0.15625,0.0,0.0,0.0,624
625,1696254889776,0.03125,-0.9638672,-0.2998047,-0.28125,-0.125,-0.15625,0.0,0.0,0.0,625
626,1696254889816,0.028320312,-0.9785156,-0.31933594,-0.09375,0.0,-0.09375,0.0,0.0,0.0,626
627,1696254889856,0.030273438,-0.9746094,-0.2998047,-0.15625,0.0625,-0.09375,0.0,0.0,0.0,627
628,1696254889896,0.024414062,-0.9716797,-0.29589844,-0.21875,-0.125,-0.15625,0.0,0.0,0.0,628
629,1696254889936,0.03515625,-0.9785156,-0.30664062,-0.28125,-0.0625,0.03125,0.0,0.0,0.0,629
630,1696254889976,0.037109375,-0.9707031,-0.30664062,0.21875,0.09375,0.09375,0.0,0.0,0.0,630
631,1696254890016,0.041992188,-0.9736328,-0.3017578,0.03125,0.15625,-0.03125,9.75,-7.0,-244.125,631
632,1696254890056,0.028320312,-0.9736328,-0.29296875,-0.65625,0.0,-0.03125,0.0,0.0,0.0,632
633,1696254890096,0.026367188,-0.984375,-0.31152344,-0.21875,0.0625,-0.09375,0.0,0.0,0.0,633
634,1696254890136,0.024414062,-0.97265625,-0.30371094,0.03125,0.0,-0.15625,0.0,0.0,0.0,634
635,1696254890176,0.0234375,-0.97558594,-0.28027344,0.34375,0.09375,-0.15625,0.0,0.0,0.0,635
636,1696254890216,0.022460938,-0.96875,-0.29785156,0.40625,0.09375,-0.21875,0.0,0.0,0.0,636
637,1696254890256,0.034179688,-0.9824219,-0.2890625,-0.03125,0.09375,-0.09375,0.0,0.0,0.0,637
638,1696254890296,0.028320312,-0.9716797,-0.2919922,-0.21875,-0.125,-0.09375,0.0,0.0,0.0,638
639,1696254890336,0.026367188,-0.9736328,-0.29785156,-0.46875,-0.0625,-0.15625,0.0,0.0,0.0,639
640,1696254890376,0.032226562,-0.9707031,-0.31445312,-0.34375,-0.1875,-0.03125,0.0,0.0,0.0,640
641,1696254890416,0.033203125,-0.9716797,-0.2939453,-0.15625,-0.125,-0.15625,0.0,0.0,0.0,641
642,1696254890456,0.024414062,-0.96972656,-0.31054688,0.03125,0.0625,0.03125,0.0,0.0,0.0,642
643,1696254890496,0.03515625,-0.97558594,-0.3046875,0.03125,0.15625,-0.21875,0.0,0.0,0.0,643
644,1696254890536,0.029296875,-0.97558594,-0.30371094,0.15625,0.15625,-0.15625,10.9375,-7.9375,-244.875,644
645,1696254890576,0.03125,-0.9667969,-0.29101562,0.03125,0.09375,-0.03125,0.0,0.0,0.0,645
646,1696254890616,0.02734375,-0.96972656,-0.3095703,-0.09375,-0.0625,-0.09375,0.0,0.0,0.0,646
647,1696254890656,0.028320312,-0.96972656,-0.30566406,-0.28125,-0.0625,-0.03125,0.0,0.0,0.0,647
648,1696254890696,0.041015625,-0.97558594,-0.30371094,-0.09375,-0.0625,-0.21875,0.0,0.0,0.0,648
649,1696254890736,0.03125,-0.9658203,-0.30664062,-0.15625,-0.0625,-0.09375,0.0,0.0,0.0,649
650,1696254890776,0.034179688,-0.96972656,-0.30566406,0.09375,0.09375,-0.03125,0.0,0.0,0.0,650
651,1696254890816,0.028320312,-0.9707031,-0.29589844,0.03125,0.0625,-0.03125,0.0,0.0,0.0,651
652,1696254890856,0.03125,-0.96972656,-0.30273438,0.21875,0.0625,-0.03125,0.0,0.0,0.0,652
653,1696254890896,0.029296875,-0.96777344,-0.3095703,0.03125,0.0,0.03125,0.0,0.0,0.0,653
654,1696254890936,0.033203125,-0.96777344,-0.3173828,-0.15625,0.0,-0.09375,0.0,0.0,0.0,654
655,1696254890976,0.030273438,-0.96777344,-0.2998047,-0.21875,0.09375,-0.09375,0.0,0.0,0.0,655
656,1696254891016,0.030273438,-0.9736328,-0.29296875,-0.03125,0.0625,-0.09375,10.625,-7.4375,-245.875,656
657,1696254891056,0.033203125,-0.96972656,-0.2998047,0.34375,0.09375,-0.21875,0.0,0.0,0.0,657
658,1696254891096,0.026367188,-0.9716797,-0.29492188,0.46875,0.09375,-0.09375,0.0,0.0,0.0,658
659,1696254891136,0.029296875,-0.96875,-0.29785156,-0.15625,-0.0625,-0.21875,0.0,0.0,0.0,659
660,1696254891176,0.034179688,-0.9736328,-0.30273438,-0.34375,-0.0625,-0.15625,0.0,0.0,0.0,660
661,1696254891216,0.02734375,-0.9765625,-0.30273438,-0.28125,-0.125,-0.09375,0.0,0.0,0.0,661
662,1696254891256,0.034179688,-0.9628906,-0.296875,-0.34375,-0.1875,0.03125,0.0,0.0,0.0,662
663,1696254891296,0.022460938,-0.9667969,-0.30566406,0.09375,0.0625,-0.15625,0.0,0.0,0.0,663
664,1696254891336,0.036132812,-0.9716797,-0.30371094,0.09375,0.0625,-0.03125,0.0,0.0,0.0,664
665,1696254891376,0.0234375,-0.9716797,-0.29101562,0.28125,0.0625,0.03125,0.0,0.0,0.0,665
666,1696254891416,0.028320312,-0.9716797,-0.2939453,-0.09375,-0.0625,-0.03125,0.0,0.0,0.0,666
667,1696254891456,0.028320312,-0.96777344,-0.29101562,0.03125,0.0,-0.03125,0.0,0.0,0.0,667
668,1696254891496,0.033203125,-0.9628906,-0.30078125,-0.15625,0.0,-0.03125,0.0,0.0,0.0,668
669,1696254891536,0.028320312,-0.9609375,-0.29589844,-0.21875,-0.0625,0.09375,10.8125,-7.0,-244.125,669
670,1696254891576,0.037109375,-0.96191406,-0.30859375,0.03125,0.0,-0.09375,0.0,0.0,0.0,670
671,1696254891616,0.024414062,-0.97265625,-0.296875,-0.03125,0.0,0.03125,0.0,0.0,0.0,671
672,1696254891656,0.026367188,-0.9746094,-0.29296875,0.09375,0.09375,0.03125,0.0,0.0,0.0,672
673,1696254891696,0.026367188,-0.9707031,-0.31054688,-0.03125,0.0625,-0.03125,0.0,0.0,0.0,673
674,1696254891736,0.024414062,-0.9746094,-0.29101562,0.40625,0.09375,0.15625,0.0,0.0,0.0,674
675,1696254891776,0.03125,-0.9736328,-0.296875,-0.03125,0.09375,-0.03125,0.0,0.0,0.0,675
676,1696254891816,0.02734375,-0.9628906,-0.29589844,-0.46875,-0.0625,-0.09375,0.0,0.0,0.0,676
677,1696254891856,0.024414062,-0.9707031,-0.30566406,0.09375,0.09375,-0.21875,0.0,0.0,0.0,677
678,1696254891896,0.032226562,-0.9707031,-0.3046875,0.40625,0.0625,-0.09375,0.0,0.0,0.0,678
679,1696254891936,0.03125,-0.96972656,-0.29589844,0.625,0.15625,-0.15625,0.0,0.0,0.0,679
680,1696254891976,0.028320312,-0.9746094,-0.2998047,0.28125,0.09375,0.03125,0.0,0.0,0.0,680
681,1696254892016,0.034179688,-0.9707031,-0.3046875,-0.09375,0.0,-0.15625,10.375,-7.9375,-244.25,681
682,1696254892056,0.029296875,-0.9736328,-0.31933594,-0.40625,0.0,-0.03125,0.0,0.0,0.0,682
683,1696254892096,0.029296875,-0.9667969,-0.30273438,-0.21875,-0.1875,-0.15625,0.0,0.0,0.0,683
684,1696254892136,0.026367188,-0.9716797,-0.3017578,-0.15625,0.0625,-0.03125,0.0,0.0,0.0,684
685,1696254892176,0.032226562,-0.9667969,-0.30566406,0.09375,0.0625,-0.09375,0.0,0.0,0.0,685
686,1696254892216,0.018554688,-0.9716797,-0.30078125,0.09375,0.09375,-0.09375,0.0,0.0,0.0,686
687,1696254892256,0.028320312,-0.9765625,-0.29589844,0.21875,0.0625,0.03125,0.0,0.0,0.0,687
688,1696254892296,0.03125,-0.9736328,-0.29882812,0.09375,0.0,0.09375,0.0,0.0,0.0,688
689,1696254892336,0.026367188,-0.9716797,-0.29003906,0.03125,0.0625,-0.03125,0.0,0.0,0.0,689
690,1696254892376,0.026367188,-0.9736328,-0.29882812,-0.09375,-0.125,-0.03125,0.0,0.0,0.0,690
691,1696254892416,0.032226562,-0.9716797,-0.3046875,-0.21875,0.0625,0.03125,0.0,0.0,0.0,691
692,1696254892456,0.0234375,-0.9736328,-0.29785156,-0.09375,0.0,-0.03125,0.0,0.0,0.0,692
693,1696254892496,0.024414062,-0.9736328,-0.30859375,0.03125,0.0625,0.03125,0.0,0.0,0.0,693
694,1696254892536,0.0234375,-0.9824219,-0.28808594,0.34375,0.0625,0.09375,9.625,-7.4375,-243.5,694
695,1696254892576,0.01953125,-0.97558594,-0.30566406,-0.03125,0.0625,-0.15625,0.0,0.0,0.0,695
696,1696254892616,0.028320312,-0.97753906,-0.29785156,-0.40625,0.0625,-0.03125,0.0,0.0,0.0,696
697,1696254892656,0.03125,-0.97558594,-0.30859375,-0.65625,0.0,-0.15625,0.0,0.0,0.0,697
698,1696254892696,0.02734375,-0.9638672,-0.29101562,0.03125,0.0625,-0.09375,0.0,0.0,0.0,698
699,1696254892736,0.032226562,-0.9707031,-0.29785156,0.53125,0.15625,-0.21875,0.0,0.0,0.0,699
700,1696254892776,0.028320312,-0.96972656,-0.2998047,0.625,0.15625,-0.21875,0.0,0.0,0.0,700
701,1696254892816,0.026367188,-0.95996094,-0.296875,-0.09375,0.0625,-0.34375,0.0,0.0,0.0,701
702,1696254892856,0.029296875,-0.9716797,-0.29589844,-0.34375,-0.125,-0.28125,0.0,0.0,0.0,702
703,1696254892896,0.034179688,-0.96484375,-0.29492188,-0.75,-0.125,-0.21875,0.0,0.0,0.0,703
704,1696254892936,0.034179688,-0.96777344,-0.3017578,-0.40625,-0.0625,-0.03125,0.0,0.0,0.0,704
705,1696254892976,0.026367188,-0.9785156,-0.30859375,-0.03125,-0.0625,-0.09375,0.0,0.0,0.0,705
706,1696254893016,0.03515625,-0.9746094,-0.2919922,0.09375,0.15625,-0.21875,10.625,-7.4375,-244.875,706
707,1696254893056,0.028320312,-0.9785156,-0.30664062,0.21875,0.0625,-0.21875,0.0,0.0,0.0,707
708,1696254893096,0.021484375,-0.97265625,-0.30273438,0.09375,0.09375,-0.15625,0.0,0.0,0.0,708
709,1696254893136,0.03125,-0.9736328,-0.30371094,-0.03125,0.0,-0.09375,0.0,0.0,0.0,709
710,1696254893176,0.038085938,-0.9736328,-0.296875,-0.34375,-0.1875,-0.03125,0.0,0.0,0.0,710
711,1696254893216,0.033203125,-0.96972656,-0.29785156,-0.40625,-0.0625,-0.09375,0.0,0.0,0.0,711
712,1696254893256,0.032226562,-0.9716797,-0.29589844,-0.28125,0.0,-0.21875,0.0,0.0,0.0,712
713,1696254893296,0.032226562,-0.9765625,-0.3046875,-0.15625,-0.0625,-0.09375,0.0,0.0,0.0,713
714,1696254893336,0.034179688,-0.97265625,-0.3017578,0.34375,0.0625,-0.15625,0.0,0.0,0.0,714
715,1696254893376,0.026367188,-0.9667969,-0.29785156,0.21875,-0.0625,-0.09375,0.0,0.0,0.0,715
716,1696254893416,0.02734375,-0.97558594,-0.29296875,-0.21875,0.0625,-0.03125,0.0,0.0,0.0,716
717,1696254893456,0.036132812,-0.96777344,-0.3017578,-0.53125,-0.0625,-0.15625,0.0,0.0,0.0,717
718,1696254893496,0.028320312,-0.97558594,-0.30664062,-0.09375,0.0,-0.15625,0.0,0.0,0.0,718
719,1696254893536,0.03125,-0.97265625,-0.31347656,0.28125,0.0625,-0.15625,8.875,-6.125,-242.875,719
720,1696254893576,0.032226562,-0.97558594,-0.2919922,0.40625,0.0625,-0.09375,0.0,0.0,0.0,720
721,1696254893616,0.03125,-0.9638672,-0.3017578,0.15625,0.0625,-0.09375,0.0,0.0,0.0,721
722,1696254893656,0.03515625,-0.9746094,-0.30664062,-0.15625,-0.125,-0.15625,0.0,0.0,0.0,722
723,1696254893696,0.03125,-0.9716797,-0.29296875,-0.34375,0.0,-0.09375,0.0,0.0,0.0,723
724,1696254893736,0.0390625,-0.9667969,-0.30859375,-0.53125,-0.25,0.03125,0.0,0.0,0.0,724
725,1696254893776,0.034179688,-0.96777344,-0.30371094,-0.15625,-0.0625,-0.09375,0.0,0.0,0.0,725
726,1696254893816,0.029296875,-0.96972656,-0.2998047,-0.09375,0.0,-0.15625,0.0,0.0,0.0,726
727,1696254893856,0.037109375,-0.9716797,-0.296875,0.21875,0.0625,-0.09375,0.0,0.0,0.0,727
728,1696254893896,0.033203125,-0.96777344,-0.3125,0.15625,0.0625,-0.09375,0.0,0.0,0.0,728
729,1696254893936,0.029296875,-0.9658203,-0.29785156,0.09375,0.0,-0.21875,0.0,0.0,0.0,729
730,1696254893976,0.028320312,-0.97265625,-0.3095703,-0.09375,-0.0625,-0.03125,0.0,0.0,0.0,730
731,1696254894016,0.028320312,-0.9609375,-0.2998047,-0.28125,0.0,-0.15625,11.6875,-6.6875,-243.5,731
732,1696254894056,0.030273438,-0.9736328,-0.2890625,-0.21875,-0.0625,-0.15625,0.0,0.0,0.0,732
733,1696254894096,0.037109375,-0.97265625,-0.31054688,-0.21875,0.0,-0.03125,0.0,0.0,0.0,733
734,1696254894136,0.033203125,-0.9638672,-0.29296875,0.21875,0.09375,-0.09375,0.0,0.0,0.0,734
735,1696254894176,0.026367188,-0.96972656,-0.30566406,0.40625,0.0625,0.03125,0.0,0.0,0.0,735
736,1696254894216,0.025390625,-0.96972656,-0.30859375,-0.15625,-0.0625,0.03125,0.0,0.0,0.0,736
737,1696254894256,0.024414062,-0.96777344,-0.29882812,-0.53125,0.0,-0.03125,0.0,0.0,0.0,737
738,1696254894296,0.024414062,-0.9716797,-0.29785156,-0.03125,0.0625,-0.09375,0.0,0.0,0.0,738
739,1696254894336,0.030273438,-0.98046875,-0.2939453,0.28125,0.0625,-0.15625,0.0,0.0,0.0,739
740,1696254894376,0.034179688,-0.96777344,-0.29101562,0.5625,0.0625,-0.15625,0.0,0.0,0.0,740
741,1696254894416,0.0390625,-0.96777344,-0.30273438,0.15625,0.0625,0.03125,0.0,0.0,0.0,741
742,1696254894456,0.02734375,-0.9667969,-0.296875,-0.15625,-0.0625,-0.09375,0.0,0.0,0.0,742
743,1696254894496,0.034179688,-0.9765625,-0.3017578,-0.34375,-0.0625,-0.09375,0.0,0.0,0.0,743
744,1696254894536,0.03125,-0.96777344,-0.29882812,-0.28125,-0.125,0.09375,10.625,-5.6875,-244.875,744
745,1696254894576,0.0234375,-0.9746094,-0.29882812,-0.09375,0.0,0.03125,0.0,0.0,0.0,745
746,1696254894616,0.02734375,-0.9785156,-0.29296875,0.03125,0.0625,-0.03125,0.0,0.0,0.0,746
747,1696254894656,0.02734375,-0.97558594,-0.29882812,0.40625,0.09375,-0.03125,0.0,0.0,0.0,747
748,1696254894696,0.03125,-0.97265625,-0.28710938,-0.09375,0.0,-0.09375,0.0,0.0,0.0,748
749,1696254894736,0.029296875,-0.96875,-0.29296875,-0.03125,0.0625,0.09375,0.0,0.0,0.0,749
750,1696254894776,0.02734375,-0.9736328,-0.30371094,-0.03125,-0.125,0.03125,0.0,0.0,0.0,750
751,1696254894816,0.034179688,-0.9638672,-0.29296875,-0.15625,0.0,0.03125,0.0,0.0,0.0,751
752,1696254894856,0.03515625,-0.96777344,-0.29589844,-0.03125,-0.0625,0.09375,0.0,0.0,0.0,752
753,1696254894896,0.026367188,-0.96484375,-0.2939453,-0.15625,0.0,0.15625,0.0,0.0,0.0,753
754,1696254894936,0.028320312,-0.9638672,-0.3125,0.03125,0.0,0.09375,0.0,0.0,0.0,754
755,1696254894976,0.03125,-0.9667969,-0.30273438,0.40625,0.0,-0.03125,0.0,0.0,0.0,755
756,1696254895016,0.029296875,-0.98046875,-0.29589844,-0.09375,0.0,-0.03125,9.75,-7.3125,-244.6875,756
757,1696254895056,0.040039062,-0.9638672,-0.30664062,-0.40625,-0.125,0.09375,0.0,0.0,0.0,757
758,1696254895096,0.028320312,-0.9736328,-0.2998047,-0.03125,0.0625,0.03125,0.0,0.0,0.0,758
759,1696254895136,0.032226562,-0.9824219,-0.296875,0.34375,0.0,0.03125,0.0,0.0,0.0,759
