# Sensor type: Thingy
# Activity type: Standing
# Activity subtype: Normal
# Subject id: s2106809
# Notes: unprocessed
timestamp,accel_x,accel_y,accel_z,gyro_x,gyro_y,gyro_z,mag_x,mag_y,mag_z
1696254747894,-1.0234375,0.15039062,-0.04296875,-1.3125,-2.28125,-1.0625,0.0,0.0,0.0
1696254747929,-1.0068359,0.15136719,-0.057617188,0.53125,-1.9375,-0.53125,0.0,0.0,0.0
1696254747966,-1.0166016,0.13867188,-0.044921875,2.25,-0.71875,-0.625,0.0,0.0,0.0
1696254748019,-1.0107422,0.14160156,-0.052734375,0.96875,-0.09375,-1.3125,0.0,0.0,0.0
1696254748045,-1.0175781,0.14355469,-0.056640625,1.125,-0.34375,-0.75,-50.5625,27.0625,-241.5625
1696254748089,-1.0224609,0.13574219,-0.06933594,1.125,-0.59375,-0.40625,0.0,0.0,0.0
1696254748123,-1.0195312,0.13769531,-0.041992188,0.40625,-0.84375,-1.0625,0.0,0.0,0.0
1696254748168,-1.0117188,0.13964844,-0.044921875,0.15625,-0.53125,-1.0625,0.0,0.0,0.0
1696254748202,-1.0224609,0.13769531,-0.043945312,0.03125,-0.78125,-0.875,0.0,0.0,0.0
1696254748247,-1.0117188,0.14648438,-0.041015625,-0.34375,-0.9375,-0.75,0.0,0.0,0.0
1696254748281,-1.0244141,0.13769531,-0.05859375,-0.625,-0.78125,-1.3125,0.0,0.0,0.0
1696254748329,-1.0185547,0.140625,-0.037109375,-0.15625,-1.1875,-1.1875,0.0,0.0,0.0
1696254748371,-1.0205078,0.14160156,-0.043945312,-0.875,-1.5,-1.125,0.0,0.0,0.0
1696254748405,-1.0214844,0.13769531,-0.044921875,-1.5,-0.875,-1.125,0.0,0.0,0.0
1696254748452,-1.0175781,0.14257812,-0.037109375,-1.4375,-1.25,-1.125,0.0,0.0,0.0
1696254748483,-1.0048828,0.13671875,-0.041015625,-1.25,-0.9375,-1.0625,0.0,0.0,0.0
1696254748528,-1.0234375,0.12695312,-0.051757812,-1.125,-0.875,-1.1875,-49.9375,26.3125,-242.4375
1696254748562,-1.0146484,0.13183594,-0.0390625,-0.5625,-1.25,-1.3125,0.0,0.0,0.0
1696254748607,-1.0039062,0.13574219,-0.032226562,-0.6875,-1.125,-1.0,0.0,0.0,0.0
1696254748641,-1.0166016,0.13867188,-0.029296875,-0.875,-0.65625,-1.0625,0.0,0.0,0.0
1696254748686,-1.0126953,0.13085938,-0.0234375,-1.0,-0.53125,-0.75,0.0,0.0,0.0
1696254748731,-1.0224609,0.119140625,-0.048828125,-1.5,-0.71875,-0.8125,0.0,0.0,0.0
1696254748765,-1.0253906,0.119140625,-0.03515625,-1.3125,-0.53125,-0.9375,0.0,0.0,0.0
1696254748810,-1.0205078,0.12109375,-0.0390625,-1.1875,-0.65625,-0.8125,0.0,0.0,0.0
1696254748844,-1.0166016,0.12402344,-0.030273438,-0.34375,-0.34375,-0.75,0.0,0.0,0.0
1696254748889,-1.0136719,0.125,-0.034179688,-0.21875,-0.03125,-0.40625,0.0,0.0,0.0
1696254748922,-1.0195312,0.12207031,-0.036132812,0.40625,-0.15625,-0.21875,0.0,0.0,0.0
1696254748967,-1.0234375,0.12207031,-0.028320312,0.40625,-0.09375,-0.34375,0.0,0.0,0.0
1696254749001,-1.0205078,0.13671875,-0.032226562,0.28125,-0.40625,-0.15625,0.0,0.0,0.0
1696254749046,-1.0146484,0.12109375,-0.020507812,0.34375,-1.3125,-0.53125,-49.375,27.9375,-241.6875
1696254749091,-1.0224609,0.13085938,-0.038085938,0.28125,-0.84375,-0.6875,0.0,0.0,0.0
1696254749125,-1.0,0.12402344,-0.0390625,0.53125,-0.28125,-0.40625,0.0,0.0,0.0
1696254749169,-1.0224609,0.12988281,-0.038085938,0.65625,0.09375,-0.03125,0.0,0.0,0.0
1696254749203,-1.0283203,0.12988281,-0.024414062,0.40625,-0.09375,-0.09375,0.0,0.0,0.0
1696254749251,-1.0175781,0.12402344,-0.046875,0.34375,-0.53125,-0.40625,0.0,0.0,0.0
1696254749282,-1.0195312,0.13183594,-0.041015625,0.46875,-0.875,-0.59375,0.0,0.0,0.0
1696254749327,-1.0185547,0.13183594,-0.037109375,-0.03125,-0.875,-0.09375,0.0,0.0,0.0
1696254749361,-1.0195312,0.13378906,-0.030273438,-0.09375,-0.65625,-0.53125,0.0,0.0,0.0
1696254749406,-1.0146484,0.13574219,-0.041015625,0.34375,-1.3125,-0.53125,0.0,0.0,0.0
1696254749451,-1.0126953,0.13085938,-0.040039062,-0.15625,-0.875,-0.21875,0.0,0.0,0.0
1696254749485,-1.0097656,0.13183594,-0.040039062,-0.75,-0.53125,-0.40625,0.0,0.0,0.0
1696254749529,-1.0205078,0.13476562,-0.021484375,-0.4375,-0.65625,-0.15625,-51.0,27.5,-242.125
1696254749564,-1.0195312,0.12792969,-0.029296875,-0.34375,-0.65625,-0.15625,0.0,0.0,0.0
1696254749609,-1.0175781,0.12890625,-0.036132812,-0.6875,-0.03125,-0.21875,0.0,0.0,0.0
1696254749642,-1.0205078,0.12207031,-0.036132812,0.15625,0.46875,0.21875,0.0,0.0,0.0
1696254749687,-1.0146484,0.1328125,-0.02734375,-0.21875,-0.15625,0.09375,0.0,0.0,0.0
1696254749721,-1.0214844,0.13183594,-0.025390625,-0.6875,-0.59375,-0.28125,0.0,0.0,0.0
1696254749766,-1.0244141,0.12988281,-0.017578125,-0.28125,-0.59375,-0.21875,0.0,0.0,0.0
1696254749811,-1.015625,0.13378906,-0.025390625,-0.6875,-0.09375,0.09375,0.0,0.0,0.0
1696254749845,-1.0126953,0.12988281,-0.015625,-1.0,-0.09375,-0.09375,0.0,0.0,0.0
1696254749890,-1.0146484,0.123046875,-0.01953125,-0.5,0.09375,-0.09375,0.0,0.0,0.0
1696254749923,-1.0234375,0.12011719,-0.033203125,-0.15625,-0.03125,-0.03125,0.0,0.0,0.0
1696254749969,-1.0175781,0.12207031,-0.040039062,0.15625,-0.03125,-0.15625,0.0,0.0,0.0
1696254750002,-1.0205078,0.13476562,-0.0107421875,0.09375,0.09375,-0.40625,0.0,0.0,0.0
1696254750047,-1.0107422,0.12792969,-0.041992188,-0.15625,0.21875,-0.15625,-51.0,26.75,-241.125
1696254750081,-1.0214844,0.13183594,-0.03515625,0.09375,0.21875,-0.03125,0.0,0.0,0.0
1696254750126,-1.0292969,0.12792969,-0.025390625,-0.03125,0.21875,-0.15625,0.0,0.0,0.0
1696254750171,-1.0214844,0.1328125,-0.021484375,0.03125,0.15625,-0.21875,0.0,0.0,0.0
1696254750205,-1.0214844,0.13769531,-0.015625,0.09375,0.03125,0.15625,0.0,0.0,0.0
1696254750250,-1.0214844,0.12792969,-0.0234375,-0.4375,0.09375,-0.15625,0.0,0.0,0.0
1696254750283,-1.0166016,0.12792969,-0.021484375,-0.15625,-0.15625,-0.28125,0.0,0.0,0.0
1696254750328,-1.0126953,0.13085938,-0.020507812,0.46875,-0.40625,-0.15625,0.0,0.0,0.0
1696254750362,-1.0117188,0.12695312,-0.029296875,-0.15625,0.03125,-0.28125,0.0,0.0,0.0
1696254750407,-1.0224609,0.12792969,-0.021484375,-0.6875,-0.15625,-0.40625,0.0,0.0,0.0
1696254750452,-1.0146484,0.12792969,-0.036132812,-0.21875,-0.53125,-0.28125,0.0,0.0,0.0
1696254750486,-1.0117188,0.12988281,-0.029296875,0.03125,-0.21875,-0.34375,0.0,0.0,0.0
1696254750531,-1.0244141,0.12402344,-0.03515625,-0.15625,-0.28125,-0.21875,-50.875,27.9375,-240.9375
1696254750565,-1.0166016,0.12597656,-0.03125,0.03125,-0.34375,-0.34375,0.0,0.0,0.0
1696254750610,-1.0136719,0.13574219,-0.028320312,0.15625,-0.34375,-0.40625,0.0,0.0,0.0
1696254750643,-1.0205078,0.12988281,-0.026367188,0.09375,-0.03125,-0.34375,0.0,0.0,0.0
1696254750688,-1.0302734,0.123046875,-0.022460938,-0.03125,0.03125,-0.09375,0.0,0.0,0.0
1696254750724,-1.0195312,0.119140625,-0.036132812,-0.09375,-0.03125,-0.21875,0.0,0.0,0.0
1696254750767,-1.0273438,0.12792969,-0.028320312,0.53125,0.21875,-0.03125,0.0,0.0,0.0
1696254750801,-1.0263672,0.12597656,-0.015625,0.03125,0.21875,0.03125,0.0,0.0,0.0
1696254750846,-1.0253906,0.12207031,-0.016601562,-0.15625,0.03125,-0.21875,0.0,0.0,0.0
1696254750892,-1.0283203,0.12890625,-0.022460938,0.03125,0.09375,-0.34375,0.0,0.0,0.0
1696254750925,-1.0175781,0.125,-0.034179688,-0.375,-0.21875,-0.21875,0.0,0.0,0.0
1696254750970,-1.0146484,0.12207031,-0.03125,-0.5,-0.03125,-0.09375,0.0,0.0,0.0
1696254751003,-1.0292969,0.12792969,-0.020507812,-0.21875,0.21875,-0.15625,0.0,0.0,0.0
1696254751049,-1.0146484,0.12792969,-0.03515625,-0.09375,0.28125,-0.03125,-50.5625,26.75,-241.875
1696254751082,-1.0166016,0.12792969,-0.040039062,-0.34375,0.09375,-0.15625,0.0,0.0,0.0
1696254751127,-1.0234375,0.12011719,-0.037109375,0.03125,0.21875,-0.15625,0.0,0.0,0.0
1696254751173,-1.0234375,0.119140625,-0.021484375,-0.03125,-0.15625,-0.21875,0.0,0.0,0.0
1696254751206,-1.0205078,0.12011719,-0.032226562,-0.15625,0.15625,-0.03125,0.0,0.0,0.0
1696254751254,-1.0195312,0.12695312,-0.03125,-0.03125,0.09375,0.09375,0.0,0.0,0.0
1696254751285,-1.03125,0.12597656,-0.03125,0.15625,0.34375,-0.09375,0.0,0.0,0.0
1696254751329,-1.0263672,0.123046875,-0.022460938,0.53125,-0.03125,-0.09375,0.0,0.0,0.0
1696254751364,-1.0166016,0.1328125,-0.03515625,-0.09375,-0.03125,-0.34375,0.0,0.0,0.0
1696254751409,-1.0185547,0.12011719,-0.03125,0.15625,0.21875,0.03125,0.0,0.0,0.0
1696254751445,-1.0146484,0.12402344,-0.025390625,0.21875,0.21875,0.09375,0.0,0.0,0.0
1696254751487,-1.0166016,0.12207031,-0.03125,0.09375,0.21875,-0.03125,0.0,0.0,0.0
1696254751532,-1.0097656,0.11816406,-0.020507812,-0.03125,-0.09375,-0.15625,-50.875,27.1875,-241.6875
1696254751566,-1.0078125,0.13085938,-0.026367188,0.03125,-0.09375,-0.15625,0.0,0.0,0.0
1696254751645,-1.0234375,0.12695312,-0.049804688,0.28125,0.09375,0.09375,0.0,0.0,0.0
1696254751646,-1.0302734,0.12988281,-0.032226562,-0.5,0.21875,-0.15625,0.0,0.0,0.0
1696254751689,-1.0214844,0.13574219,-0.026367188,-0.4375,0.03125,-0.21875,0.0,0.0,0.0
1696254751724,-1.0185547,0.123046875,-0.02734375,0.21875,0.34375,0.09375,0.0,0.0,0.0
1696254751769,-1.0185547,0.119140625,-0.0390625,0.28125,0.28125,-0.03125,0.0,0.0,0.0
1696254751802,-1.0185547,0.12890625,-0.03515625,0.03125,0.03125,-0.15625,0.0,0.0,0.0
1696254751848,-1.0175781,0.12597656,-0.033203125,-0.21875,0.03125,-0.15625,0.0,0.0,0.0
1696254751892,-1.0175781,0.12109375,-0.016601562,-0.03125,-0.03125,-0.21875,0.0,0.0,0.0
1696254751926,-1.0224609,0.13085938,-0.016601562,-0.09375,0.03125,-0.03125,0.0,0.0,0.0
1696254751971,-1.0175781,0.123046875,-0.037109375,-0.09375,0.28125,0.09375,0.0,0.0,0.0
1696254752009,-1.0195312,0.12011719,-0.034179688,-0.15625,0.34375,0.09375,0.0,0.0,0.0
1696254752050,-1.0322266,0.13085938,-0.025390625,-0.03125,0.09375,0.03125,-50.25,27.0625,-242.4375
1696254752083,-1.0166016,0.12597656,-0.024414062,-0.28125,-0.03125,0.03125,0.0,0.0,0.0
1696254752129,-1.0214844,0.12988281,-0.03125,-0.09375,0.09375,-0.03125,0.0,0.0,0.0
1696254752162,-1.0253906,0.125,-0.044921875,-0.03125,0.03125,-0.15625,0.0,0.0,0.0
1696254752207,-1.0195312,0.13085938,-0.033203125,-0.15625,-0.03125,0.09375,0.0,0.0,0.0
1696254752252,-1.0224609,0.123046875,-0.018554688,-0.21875,0.15625,-0.09375,0.0,0.0,0.0
1696254752286,-1.0166016,0.13476562,-0.015625,-0.09375,-0.03125,-0.15625,0.0,0.0,0.0
1696254752342,-1.0253906,0.12695312,-0.02734375,-0.03125,-0.03125,0.03125,0.0,0.0,0.0
1696254752366,-1.0214844,0.12792969,-0.016601562,0.03125,-0.09375,-0.21875,0.0,0.0,0.0
1696254752409,-1.0185547,0.1328125,-0.03125,-0.34375,-0.28125,-0.21875,0.0,0.0,0.0
1696254752443,-1.0244141,0.12890625,-0.034179688,0.28125,-0.03125,-0.15625,0.0,0.0,0.0
1696254752491,-1.0185547,0.13378906,-0.029296875,0.15625,-0.03125,-0.09375,0.0,0.0,0.0
1696254752533,-1.0166016,0.13867188,-0.024414062,0.21875,-0.34375,-0.28125,-50.25,28.0625,-240.8125
1696254752567,-1.0146484,0.12695312,-0.02734375,-0.09375,-0.21875,-0.34375,0.0,0.0,0.0
1696254752612,-1.0224609,0.12792969,-0.024414062,-0.375,-0.34375,-0.21875,0.0,0.0,0.0
1696254752646,-1.0175781,0.13085938,-0.03515625,-0.15625,-0.40625,-0.40625,0.0,0.0,0.0
1696254752690,-1.0283203,0.13183594,-0.020507812,-0.34375,-0.40625,-0.34375,0.0,0.0,0.0
1696254752725,-1.0234375,0.1328125,-0.024414062,-0.6875,-0.28125,-0.28125,0.0,0.0,0.0
1696254752769,-1.0117188,0.12402344,-0.03125,-0.28125,-0.28125,-0.15625,0.0,0.0,0.0
1696254752803,-1.0136719,0.12695312,-0.016601562,-0.03125,-0.34375,-0.28125,0.0,0.0,0.0
1696254752848,-1.0117188,0.12109375,-0.022460938,-0.375,-0.21875,-0.15625,0.0,0.0,0.0
1696254752882,-1.0214844,0.12597656,-0.026367188,-0.21875,-0.15625,-0.15625,0.0,0.0,0.0
1696254752927,-1.0175781,0.12597656,-0.022460938,-0.34375,-0.09375,-0.40625,0.0,0.0,0.0
1696254752972,-1.0263672,0.12695312,-0.032226562,0.0625,0.0,-0.03125,0.0,0.0,0.0
1696254753006,-1.0175781,0.125,-0.024414062,-0.1875,-0.09375,-0.09375,0.0,0.0,0.0
1696254753051,-1.0136719,0.12402344,-0.036132812,0.0,0.0,-0.03125,-50.125,27.9375,-240.375
1696254753096,-1.0136719,0.12109375,-0.016601562,-0.25,0.0625,0.03125,0.0,0.0,0.0
1696254753130,-1.0136719,0.123046875,-0.0146484375,0.125,0.1875,0.03125,0.0,0.0,0.0
1696254753163,-1.0234375,0.12597656,-0.018554688,-0.125,0.25,-0.09375,0.0,0.0,0.0
1696254753208,-1.0185547,0.12597656,-0.024414062,0.0625,-0.03125,-0.15625,0.0,0.0,0.0
1696254753242,-1.0146484,0.12011719,-0.01953125,0.0,-0.09375,-0.03125,0.0,0.0,0.0
1696254753289,-1.0253906,0.125,-0.026367188,-0.3125,-0.28125,-0.15625,0.0,0.0,0.0
1696254753332,-1.0185547,0.13183594,-0.024414062,-0.375,-0.53125,-0.03125,0.0,0.0,0.0
1696254753366,-1.0166016,0.11328125,-0.02734375,-0.84375,-0.34375,0.15625,0.0,0.0,0.0
1696254753411,-1.0195312,0.12011719,-0.020507812,-0.125,0.375,-0.15625,0.0,0.0,0.0
1696254753445,-1.0146484,0.12207031,-0.021484375,0.8125,-0.21875,-0.09375,0.0,0.0,0.0
1696254753489,-1.0253906,0.123046875,-0.0107421875,0.3125,-0.09375,0.15625,0.0,0.0,0.0
1696254753524,-1.0175781,0.12597656,-0.03125,0.5,-0.03125,0.03125,-49.5,25.6875,-241.875
1696254753568,-1.0126953,0.13964844,-0.0234375,0.375,0.125,0.03125,0.0,0.0,0.0
1696254753602,-1.0166016,0.13085938,-0.018554688,-0.0625,-0.09375,0.09375,0.0,0.0,0.0
1696254753647,-1.0263672,0.123046875,-0.034179688,0.0,-0.34375,0.03125,0.0,0.0,0.0
1696254753692,-1.0253906,0.12402344,-0.017578125,0.0625,-0.84375,-0.28125,0.0,0.0,0.0
1696254753726,-1.0214844,0.12597656,-0.01953125,0.0,-0.59375,-0.21875,0.0,0.0,0.0
1696254753771,-1.0117188,0.13085938,-0.021484375,-0.3125,-0.15625,-0.03125,0.0,0.0,0.0
1696254753805,-1.0234375,0.13183594,-0.033203125,0.125,-0.03125,0.15625,0.0,0.0,0.0
1696254753850,-1.0175781,0.12988281,-0.0234375,-0.0625,0.0,-0.03125,0.0,0.0,0.0
1696254753886,-1.0205078,0.12988281,-0.015625,-0.1875,-0.21875,-0.09375,0.0,0.0,0.0
1696254753934,-1.0234375,0.123046875,-0.0029296875,0.25,0.1875,0.03125,0.0,0.0,0.0
1696254753962,-1.015625,0.123046875,-0.021484375,0.5,0.4375,0.46875,0.0,0.0,0.0
1696254754007,-1.0214844,0.12011719,-0.015625,0.625,0.8125,0.15625,0.0,0.0,0.0
1696254754052,-1.0341797,0.12695312,-0.01953125,0.6875,0.375,0.21875,-49.625,26.5625,-241.25
1696254754086,-1.0185547,0.12109375,-0.02734375,0.1875,0.0,-0.03125,0.0,0.0,0.0
1696254754165,-1.0146484,0.12695312,-0.01171875,0.25,0.3125,0.15625,0.0,0.0,0.0
1696254754166,-1.0107422,0.12792969,-0.021484375,0.5,0.5625,0.21875,0.0,0.0,0.0
1696254754209,-1.0224609,0.13085938,-0.016601562,0.5625,0.4375,0.21875,0.0,0.0,0.0
1696254754244,-1.0244141,0.12890625,-0.02734375,0.125,0.375,0.40625,0.0,0.0,0.0
1696254754289,-1.0185547,0.125,-0.024414062,0.625,0.5625,0.09375,0.0,0.0,0.0
1696254754322,-1.0253906,0.12988281,-0.01953125,0.875,0.3125,0.21875,0.0,0.0,0.0
1696254754367,-1.0205078,0.1328125,-0.0107421875,0.8125,0.3125,0.15625,0.0,0.0,0.0
1696254754435,-1.0185547,0.12011719,-0.029296875,-0.125,0.8125,0.03125,0.0,0.0,0.0
1696254754446,-1.0185547,0.12011719,-0.020507812,0.125,0.75,0.21875,0.0,0.0,0.0
1696254754524,-1.0107422,0.13085938,-0.022460938,0.5,0.5,0.15625,-50.125,26.125,-241.25
1696254754526,-1.0195312,0.12695312,-0.029296875,0.3125,0.1875,0.46875,0.0,0.0,0.0
1696254754570,-1.0234375,0.12988281,-0.022460938,0.4375,0.0,0.03125,0.0,0.0,0.0
1696254754603,-1.0117188,0.12109375,-0.026367188,0.125,0.1875,0.15625,0.0,0.0,0.0
1696254754648,-1.0195312,0.12792969,-0.022460938,0.125,0.5,-0.03125,0.0,0.0,0.0
1696254754682,-1.0234375,0.13085938,-0.024414062,0.1875,0.4375,0.09375,0.0,0.0,0.0
1696254754727,-1.0205078,0.12695312,-0.025390625,0.3125,0.375,0.09375,0.0,0.0,0.0
1696254754772,-1.0205078,0.13183594,-0.030273438,0.125,0.25,-0.03125,0.0,0.0,0.0
1696254754806,-1.0195312,0.12597656,-0.029296875,0.25,0.0625,-0.21875,0.0,0.0,0.0
1696254754851,-1.0146484,0.12597656,-0.02734375,-0.0625,0.0,-0.21875,0.0,0.0,0.0
1696254754885,-1.0126953,0.13183594,-0.036132812,0.0,0.5,0.09375,0.0,0.0,0.0
1696254754930,-1.0117188,0.12988281,-0.025390625,0.1875,0.5625,0.21875,0.0,0.0,0.0
1696254754964,-1.0175781,0.12402344,-0.026367188,0.1875,0.1875,-0.03125,0.0,0.0,0.0
1696254755008,-1.015625,0.12792969,-0.02734375,0.0625,-0.03125,0.21875,0.0,0.0,0.0
1696254755042,-1.0107422,0.12597656,-0.0078125,0.375,0.25,0.09375,-50.875,26.5625,-241.25
1696254755088,-1.0146484,0.12402344,-0.034179688,0.3125,0.4375,0.15625,0.0,0.0,0.0
1696254755132,-1.0283203,0.12597656,-0.03515625,0.1875,0.5,0.21875,0.0,0.0,0.0
1696254755166,-1.0283203,0.13476562,-0.021484375,0.0625,0.3125,0.03125,0.0,0.0,0.0
1696254755211,-1.0214844,0.1328125,-0.032226562,0.125,0.25,-0.03125,0.0,0.0,0.0
1696254755245,-1.0205078,0.12695312,-0.03125,0.125,0.3125,0.21875,0.0,0.0,0.0
1696254755290,-1.0195312,0.13476562,-0.040039062,0.1875,0.1875,0.21875,0.0,0.0,0.0
1696254755324,-1.0136719,0.13183594,-0.029296875,0.125,0.0625,0.28125,0.0,0.0,0.0
1696254755369,-1.0205078,0.12890625,-0.024414062,0.3125,0.1875,0.15625,0.0,0.0,0.0
1696254755402,-1.0234375,0.12207031,-0.032226562,0.0625,0.0,0.03125,0.0,0.0,0.0
1696254755447,-1.0146484,0.12402344,-0.021484375,0.3125,0.1875,0.21875,0.0,0.0,0.0
1696254755492,-1.0234375,0.123046875,-0.032226562,0.1875,0.4375,0.15625,0.0,0.0,0.0
1696254755526,-1.0136719,0.12597656,-0.028320312,0.25,0.0625,-0.09375,-49.5,26.3125,-242.125
1696254755573,-1.0136719,0.1328125,-0.03515625,-0.25,-0.15625,-0.03125,0.0,0.0,0.0
1696254755605,-1.0234375,0.125,-0.03125,0.0625,0.0,0.21875,0.0,0.0,0.0
1696254755650,-1.0205078,0.12695312,-0.024414062,0.1875,0.4375,0.09375,0.0,0.0,0.0
1696254755683,-1.0283203,0.12695312,-0.021484375,0.4375,0.0625,0.15625,0.0,0.0,0.0
1696254755729,-1.0175781,0.12695312,-0.033203125,0.125,0.25,-0.03125,0.0,0.0,0.0
1696254755762,-1.0214844,0.12207031,-0.05078125,0.375,0.1875,-0.03125,0.0,0.0,0.0
1696254755807,-1.0185547,0.11816406,-0.033203125,0.25,0.0625,0.15625,0.0,0.0,0.0
1696254755852,-1.0175781,0.12792969,-0.037109375,0.375,0.1875,-0.03125,0.0,0.0,0.0
1696254755886,-1.0234375,0.12792969,-0.03515625,0.1875,0.25,0.03125,0.0,0.0,0.0
1696254755931,-1.0224609,0.13183594,-0.03125,0.25,0.0625,0.21875,0.0,0.0,0.0
1696254755965,-1.0126953,0.1328125,-0.028320312,0.3125,0.125,0.03125,0.0,0.0,0.0
1696254756010,-1.0283203,0.12890625,-0.037109375,0.0,0.0625,-0.09375,0.0,0.0,0.0
1696254756044,-1.0166016,0.13378906,-0.044921875,0.3125,0.125,-0.21875,-50.5625,26.3125,-241.875
1696254756089,-1.0253906,0.12597656,-0.040039062,-0.0625,-0.15625,-0.15625,0.0,0.0,0.0
1696254756122,-1.0126953,0.12792969,-0.02734375,0.0625,-0.28125,-0.21875,0.0,0.0,0.0
1696254756167,-1.0195312,0.12792969,-0.0234375,0.0625,-0.03125,0.09375,0.0,0.0,0.0
1696254756212,-1.0087891,0.13085938,-0.020507812,0.25,-0.09375,-0.03125,0.0,0.0,0.0
1696254756246,-1.0205078,0.12597656,-0.0234375,-0.1875,-0.03125,-0.15625,0.0,0.0,0.0
1696254756291,-1.0195312,0.13085938,-0.037109375,0.3125,0.0,-0.15625,0.0,0.0,0.0
1696254756336,-1.0175781,0.12695312,-0.030273438,0.25,0.1875,-0.09375,0.0,0.0,0.0
1696254756369,-1.0195312,0.13476562,-0.0126953125,0.0625,0.0,-0.03125,0.0,0.0,0.0
1696254756403,-1.0244141,0.12988281,-0.033203125,-0.25,-0.03125,-0.03125,0.0,0.0,0.0
1696254756448,-1.0136719,0.12988281,-0.03125,0.0,0.0625,-0.09375,0.0,0.0,0.0
1696254756482,-1.0214844,0.12890625,-0.022460938,-0.125,0.0625,-0.03125,0.0,0.0,0.0
1696254756527,-1.0185547,0.12402344,-0.02734375,0.0625,-0.03125,-0.09375,-50.125,26.5625,-242.75
1696254756574,-1.0146484,0.12988281,-0.021484375,0.3125,-0.15625,0.09375,0.0,0.0,0.0
1696254756609,-1.0214844,0.12402344,-0.024414062,0.3125,-0.03125,-0.09375,0.0,0.0,0.0
1696254756650,-1.0146484,0.13476562,-0.040039062,-0.125,-0.03125,-0.40625,0.0,0.0,0.0
1696254756685,-1.0126953,0.13085938,-0.03125,0.0625,-0.09375,-0.03125,0.0,0.0,0.0
1696254756729,-1.0292969,0.12109375,-0.026367188,-0.125,-0.03125,-0.09375,0.0,0.0,0.0
1696254756763,-1.0205078,0.13183594,-0.030273438,-0.0625,-0.03125,-0.15625,0.0,0.0,0.0
1696254756808,-1.0205078,0.12890625,-0.0390625,0.0625,-0.09375,-0.15625,0.0,0.0,0.0
1696254756842,-1.0205078,0.12207031,-0.034179688,0.0625,-0.03125,-0.09375,0.0,0.0,0.0
1696254756887,-1.0214844,0.12597656,-0.025390625,-0.1875,-0.03125,-0.0625,0.0,0.0,0.0
1696254756932,-1.0195312,0.13378906,-0.021484375,-0.1875,-0.28125,-0.125,0.0,0.0,0.0
1696254756966,-1.0175781,0.12109375,-0.0390625,-0.0625,-0.21875,-0.1875,0.0,0.0,0.0
1696254757011,-1.0185547,0.13183594,-0.025390625,0.0625,-0.15625,-0.125,0.0,0.0,0.0
1696254757045,-1.0166016,0.13085938,-0.025390625,0.0625,-0.03125,-0.25,-50.875,27.1875,-241.6875
1696254757090,-1.0185547,0.12597656,-0.034179688,-0.125,-0.15625,-0.25,0.0,0.0,0.0
1696254757123,-1.0214844,0.12402344,-0.024414062,-0.3125,-0.28125,-0.1875,0.0,0.0,0.0
1696254757169,-1.0146484,0.12792969,-0.03125,-0.6875,-0.28125,-0.0625,0.0,0.0,0.0
1696254757202,-1.0234375,0.12890625,-0.0234375,-0.625,-0.6875,-0.25,0.0,0.0,0.0
1696254757258,-1.0195312,0.11816406,-0.020507812,0.0,-0.40625,0.0,0.0,0.0,0.0
1696254757292,-1.0302734,0.11425781,-0.036132812,0.46875,-0.28125,-0.1875,0.0,0.0,0.0
1696254757326,-1.0273438,0.12695312,-0.021484375,0.84375,-0.09375,-0.125,0.0,0.0,0.0
1696254757374,-1.0302734,0.12890625,-0.01171875,0.3125,-0.46875,-0.125,0.0,0.0,0.0
1696254757404,-1.0185547,0.13183594,-0.0234375,0.375,-0.34375,-0.1875,0.0,0.0,0.0
1696254757449,-1.0283203,0.12695312,-0.020507812,0.125,-0.15625,-0.125,0.0,0.0,0.0
1696254757483,-1.0205078,0.13574219,-0.0146484375,-0.125,-0.21875,0.0,0.0,0.0,0.0
1696254757528,-1.0126953,0.119140625,-0.028320312,-1.03125,-0.21875,0.0,-51.4375,26.5625,-241.25
1696254757562,-1.0273438,0.10839844,-0.015625,0.0625,-0.53125,-0.0625,0.0,0.0,0.0
1696254757607,-1.0146484,0.12890625,-0.0146484375,0.65625,-0.03125,0.125,0.0,0.0,0.0
1696254757652,-1.0126953,0.12695312,-0.018554688,0.78125,0.21875,0.3125,0.0,0.0,0.0
1696254757686,-1.0224609,0.12109375,-0.022460938,0.84375,-0.03125,0.125,0.0,0.0,0.0
1696254757731,-1.0253906,0.12402344,-0.0234375,0.40625,0.15625,0.0625,0.0,0.0,0.0
1696254757765,-1.0175781,0.12597656,-0.0029296875,0.125,0.03125,0.1875,0.0,0.0,0.0
1696254757810,-1.0097656,0.13183594,-0.018554688,0.0,0.34375,0.1875,0.0,0.0,0.0
1696254757843,-1.0166016,0.12695312,-0.0126953125,-0.125,0.34375,0.25,0.0,0.0,0.0
1696254757888,-1.0263672,0.12011719,-0.028320312,0.0,0.15625,0.3125,0.0,0.0,0.0
1696254757922,-1.0185547,0.12695312,-0.026367188,-0.1875,0.03125,0.1875,0.0,0.0,0.0
1696254757967,-1.0146484,0.12890625,-0.03125,-0.1875,0.09375,0.3125,0.0,0.0,0.0
1696254758012,-1.0185547,0.12109375,-0.018554688,-0.375,0.34375,0.0625,0.0,0.0,0.0
1696254758046,-1.0146484,0.12695312,-0.026367188,0.0,0.09375,0.1875,-50.375,27.1875,-242.3125
1696254758091,-1.0078125,0.12988281,-0.0146484375,-0.3125,0.03125,0.25,0.0,0.0,0.0
1696254758125,-1.0175781,0.12695312,-0.026367188,-0.1875,0.03125,0.1875,0.0,0.0,0.0
1696254758170,-1.0185547,0.12011719,-0.0078125,-0.125,0.28125,0.375,0.0,0.0,0.0
1696254758203,-1.0244141,0.12011719,-0.025390625,-0.125,-0.03125,0.25,0.0,0.0,0.0
1696254758248,-1.0273438,0.12109375,-0.016601562,-0.1875,-0.03125,0.125,0.0,0.0,0.0
1696254758282,-1.0136719,0.12988281,-0.026367188,0.0,0.15625,0.125,0.0,0.0,0.0
1696254758327,-1.0175781,0.12402344,-0.029296875,0.40625,-0.09375,0.125,0.0,0.0,0.0
1696254758375,-1.0224609,0.115234375,-0.040039062,-0.0625,-0.21875,0.3125,0.0,0.0,0.0
1696254758406,-1.0175781,0.13378906,-0.028320312,-0.0625,0.03125,0.25,0.0,0.0,0.0
1696254758451,-1.0195312,0.12597656,-0.033203125,-0.25,0.21875,0.375,0.0,0.0,0.0
1696254758485,-1.0253906,0.12890625,-0.01171875,-0.0625,-0.28125,0.0625,0.0,0.0,0.0
1696254758530,-1.0175781,0.13183594,-0.022460938,-0.4375,-0.21875,0.125,-49.5,27.8125,-241.875
1696254758563,-1.0253906,0.13183594,-0.021484375,-0.0625,-0.15625,0.375,0.0,0.0,0.0
1696254758608,-1.0234375,0.12207031,-0.03125,-0.1875,-0.21875,0.375,0.0,0.0,0.0
1696254758643,-1.0185547,0.12402344,-0.01953125,-0.1875,-0.15625,0.1875,0.0,0.0,0.0
1696254758690,-1.0205078,0.12988281,-0.021484375,0.3125,0.09375,0.25,0.0,0.0,0.0
1696254758734,-1.0107422,0.13574219,-0.022460938,0.46875,0.34375,0.375,0.0,0.0,0.0
1696254758766,-1.0283203,0.13085938,-0.017578125,0.1875,0.03125,0.1875,0.0,0.0,0.0
1696254758811,-1.0185547,0.13476562,-0.01953125,0.0,0.15625,0.125,0.0,0.0,0.0
1696254758845,-1.0263672,0.13378906,-0.029296875,0.0,0.21875,0.25,0.0,0.0,0.0
1696254758890,-1.0214844,0.123046875,-0.025390625,-0.3125,0.21875,0.1875,0.0,0.0,0.0
1696254758923,-1.0224609,0.13476562,-0.028320312,-0.375,0.28125,0.1875,0.0,0.0,0.0
1696254758968,-1.0205078,0.11621094,-0.021484375,-0.3125,-0.03125,0.1875,0.0,0.0,0.0
1696254759047,-1.0107422,0.12792969,-0.025390625,-0.125,0.09375,0.25,-50.5625,26.3125,-241.875
1696254759049,-1.0146484,0.12597656,-0.018554688,-0.0625,0.21875,0.3125,0.0,0.0,0.0
1696254759093,-1.0244141,0.12890625,-0.0146484375,0.25,0.21875,0.1875,0.0,0.0,0.0
1696254759126,-1.0214844,0.12695312,-0.02734375,-0.0625,0.03125,0.0,0.0,0.0,0.0
1696254759171,-1.0185547,0.125,-0.034179688,0.375,0.09375,-0.0625,0.0,0.0,0.0
1696254759205,-1.0263672,0.12109375,-0.024414062,0.40625,0.34375,0.25,0.0,0.0,0.0
1696254759250,-1.0195312,0.12988281,-0.0234375,0.0,0.03125,0.25,0.0,0.0,0.0
1696254759284,-1.0185547,0.123046875,-0.028320312,-0.125,0.03125,-0.0625,0.0,0.0,0.0
1696254759329,-1.0205078,0.13085938,-0.024414062,0.0,-0.03125,0.25,0.0,0.0,0.0
1696254759363,-1.0126953,0.13183594,-0.028320312,-0.125,0.28125,0.1875,0.0,0.0,0.0
1696254759408,-1.0292969,0.12597656,-0.0107421875,-0.1875,0.03125,0.125,0.0,0.0,0.0
1696254759453,-1.0253906,0.1171875,-0.029296875,0.25,-0.03125,0.0625,0.0,0.0,0.0
1696254759486,-1.0234375,0.1328125,-0.0146484375,0.0625,0.03125,0.1875,0.0,0.0,0.0
1696254759532,-1.0175781,0.13378906,-0.030273438,0.0625,0.09375,0.0625,-50.25,26.0,-242.875
1696254759566,-1.0214844,0.12207031,-0.020507812,-0.25,0.15625,-0.125,0.0,0.0,0.0
1696254759610,-1.0136719,0.12988281,-0.028320312,-0.0625,0.15625,0.1875,0.0,0.0,0.0
1696254759644,-1.0283203,0.12890625,-0.026367188,0.0,0.15625,0.0625,0.0,0.0,0.0
1696254759688,-1.0205078,0.12890625,-0.02734375,0.0,0.09375,0.25,0.0,0.0,0.0
1696254759733,-1.0244141,0.12792969,-0.021484375,0.0625,0.03125,0.25,0.0,0.0,0.0
1696254759767,-1.0185547,0.12597656,-0.0234375,0.40625,0.09375,0.3125,0.0,0.0,0.0
1696254759812,-1.0244141,0.1328125,-0.0126953125,0.25,0.21875,0.3125,0.0,0.0,0.0
1696254759847,-1.0136719,0.12402344,-0.025390625,0.0,0.15625,0.125,0.0,0.0,0.0
1696254759892,-1.0195312,0.12597656,-0.021484375,-0.25,0.03125,0.1875,0.0,0.0,0.0
1696254759925,-1.0253906,0.125,-0.029296875,0.0,0.15625,0.25,0.0,0.0,0.0
1696254759969,-1.0195312,0.12988281,-0.01953125,0.0625,0.09375,0.0625,0.0,0.0,0.0
1696254760003,-1.0146484,0.12402344,-0.022460938,-0.0625,0.03125,0.25,0.0,0.0,0.0
1696254760059,-1.0205078,0.12011719,-0.0078125,-0.0625,0.28125,0.125,-51.125,25.8125,-241.6875
1696254760082,-1.0195312,0.123046875,-0.03125,0.0,0.09375,0.3125,0.0,0.0,0.0
1696254760127,-1.0263672,0.12109375,-0.03515625,0.0,0.09375,0.25,0.0,0.0,0.0
1696254760172,-1.0205078,0.12011719,-0.025390625,0.25,0.09375,0.1875,0.0,0.0,0.0
1696254760206,-1.0205078,0.12890625,-0.038085938,0.0625,-0.09375,0.25,0.0,0.0,0.0
1696254760251,-1.0263672,0.13378906,-0.025390625,0.0,-0.34375,0.0,0.0,0.0,0.0
1696254760285,-1.0205078,0.125,-0.043945312,0.125,-0.09375,0.375,0.0,0.0,0.0
1696254760330,-1.0185547,0.13378906,-0.021484375,0.1875,0.46875,0.3125,0.0,0.0,0.0
1696254760363,-1.0244141,0.12109375,-0.016601562,0.0625,-0.21875,0.125,0.0,0.0,0.0
1696254760408,-1.0166016,0.12402344,-0.032226562,-0.3125,-0.28125,0.1875,0.0,0.0,0.0
1696254760443,-1.0195312,0.11816406,-0.0234375,0.0625,-0.09375,0.0625,0.0,0.0,0.0
1696254760490,-1.0107422,0.12402344,-0.041992188,-0.25,-0.15625,0.25,0.0,0.0,0.0
1696254760532,-1.0244141,0.12402344,-0.017578125,-0.125,-0.09375,0.0,-50.5625,26.0,-240.8125
1696254760566,-1.015625,0.12207031,-0.034179688,0.125,-0.09375,0.1875,0.0,0.0,0.0
1696254760611,-1.0205078,0.125,-0.022460938,0.125,0.03125,0.1875,0.0,0.0,0.0
1696254760645,-1.0175781,0.12988281,-0.03125,-0.1875,0.03125,0.0625,0.0,0.0,0.0
1696254760689,-1.0146484,0.12597656,-0.024414062,-0.4375,-0.03125,0.0,0.0,0.0,0.0
1696254760723,-1.0224609,0.13085938,-0.034179688,-0.3125,0.28125,0.125,0.0,0.0,0.0
1696254760768,-1.0205078,0.123046875,-0.0234375,-0.3125,0.03125,0.125,0.0,0.0,0.0
1696254760803,-1.0146484,0.12109375,-0.028320312,-0.0625,-0.15625,-0.0625,0.0,0.0,0.0
1696254760847,-1.0126953,0.12402344,-0.022460938,0.125,-0.09375,-0.125,0.0,0.0,0.0
1696254760892,-1.0166016,0.123046875,-0.020507812,0.0,0.03125,-0.0625,0.0,0.0,0.0
1696254760926,-1.0224609,0.12695312,-0.026367188,0.125,0.34375,0.0625,0.0,0.0,0.0
1696254760971,-1.0166016,0.12207031,-0.022460938,-0.21875,-0.09375,-0.0625,0.0,0.0,0.0
1696254761005,-1.0283203,0.12890625,-0.021484375,-0.34375,0.09375,0.0,0.0,0.0,0.0
1696254761050,-1.0205078,0.12402344,-0.017578125,0.0,0.09375,-0.0625,-49.375,26.5625,-241.25
1696254761083,-1.0107422,0.12011719,-0.03125,0.0625,0.03125,-0.0625,0.0,0.0,0.0
1696254761129,-1.0224609,0.119140625,-0.029296875,-0.0625,-0.25,-0.1875,0.0,0.0,0.0
1696254761162,-1.0224609,0.12109375,-0.038085938,0.125,0.03125,-0.0625,0.0,0.0,0.0
1696254761207,-1.0234375,0.12207031,-0.034179688,0.625,0.09375,0.0,0.0,0.0,0.0
1696254761252,-1.0214844,0.1171875,-0.028320312,-0.0625,-0.03125,-0.0625,0.0,0.0,0.0
1696254761286,-1.0244141,0.13378906,-0.021484375,-0.34375,-0.15625,-0.0625,0.0,0.0,0.0
1696254761330,-1.0224609,0.12402344,-0.0234375,-0.21875,-0.15625,0.0625,0.0,0.0,0.0
1696254761364,-1.0224609,0.12988281,-0.034179688,-0.28125,-0.21875,-0.125,0.0,0.0,0.0
1696254761409,-1.0195312,0.119140625,-0.02734375,-0.1875,-0.3125,-0.25,0.0,0.0,0.0
1696254761443,-1.0166016,0.123046875,-0.0146484375,0.25,-0.03125,0.0,0.0,0.0,0.0
1696254761489,-1.0175781,0.119140625,-0.025390625,0.75,-0.09375,0.125,0.0,0.0,0.0
1696254761534,-1.0195312,0.12695312,-0.029296875,1.125,-0.25,-0.125,-49.625,27.1875,-241.25
1696254761568,-1.0244141,0.12988281,-0.032226562,0.9375,-0.5625,-0.3125,0.0,0.0,0.0
1696254761612,-1.03125,0.13574219,-0.025390625,0.625,-0.875,-0.375,0.0,0.0,0.0
1696254761646,-1.0146484,0.1328125,-0.02734375,0.0625,-0.4375,-0.375,0.0,0.0,0.0
1696254761691,-1.0253906,0.13378906,-0.034179688,-0.96875,-0.3125,-0.25,0.0,0.0,0.0
1696254761725,-1.0097656,0.123046875,-0.03125,-0.84375,-0.5,0.0,0.0,0.0,0.0
1696254761770,-1.0185547,0.1171875,-0.01171875,-1.09375,-0.375,0.0625,0.0,0.0,0.0
1696254761803,-1.0234375,0.111328125,-0.024414062,-0.28125,-0.21875,-0.1875,0.0,0.0,0.0
1696254761849,-1.0244141,0.12402344,-0.0146484375,-0.21875,-0.6875,-0.4375,0.0,0.0,0.0
1696254761883,-1.0214844,0.12402344,-0.018554688,0.125,-1.0625,-0.5,0.0,0.0,0.0
1696254761927,-1.0117188,0.12207031,-0.0126953125,0.4375,-0.6875,-0.5,0.0,0.0,0.0
1696254761972,-1.0185547,0.13574219,-0.024414062,0.375,-0.625,-0.3125,0.0,0.0,0.0
1696254762006,-1.0205078,0.12890625,-0.013671875,0.1875,-0.6875,-0.375,0.0,0.0,0.0
1696254762050,-1.015625,0.12695312,-0.0234375,-0.21875,-0.625,-0.25,-50.125,25.8125,-241.6875
1696254762084,-1.0244141,0.13085938,-0.024414062,0.0,-0.21875,-0.25,0.0,0.0,0.0
1696254762130,-1.0263672,0.12597656,-0.021484375,-0.28125,-0.375,-0.25,0.0,0.0,0.0
1696254762164,-1.0224609,0.119140625,-0.0126953125,-0.125,-0.5,-0.3125,0.0,0.0,0.0
1696254762208,-1.0195312,0.115234375,-0.0068359375,0.125,-0.5,-0.4375,0.0,0.0,0.0
1696254762243,-1.0234375,0.115234375,-0.017578125,-0.21875,-0.5,-0.375,0.0,0.0,0.0
1696254762287,-1.0322266,0.12207031,-0.00390625,-0.28125,-0.09375,-0.125,0.0,0.0,0.0
1696254762332,-1.0214844,0.12402344,-0.005859375,-0.21875,-0.21875,-0.25,0.0,0.0,0.0
1696254762366,-1.015625,0.11621094,9.765625E-4,-0.65625,-0.09375,-0.1875,0.0,0.0,0.0
1696254762411,-1.0224609,0.115234375,-0.02734375,-0.0625,0.21875,-0.125,0.0,0.0,0.0
1696254762445,-1.0195312,0.11425781,-0.015625,0.0,0.15625,-0.375,0.0,0.0,0.0
1696254762490,-1.0087891,0.11328125,-0.0087890625,0.0,-0.3125,-0.1875,0.0,0.0,0.0
1696254762523,-1.0185547,0.12011719,-0.013671875,-0.0625,-0.15625,-0.3125,-49.5,27.8125,-242.125
1696254762568,-1.0263672,0.11816406,-0.021484375,0.1875,0.28125,-0.125,0.0,0.0,0.0
1696254762602,-1.0302734,0.12109375,-0.013671875,0.0625,0.34375,0.3125,0.0,0.0,0.0
1696254762647,-1.0263672,0.11621094,-0.013671875,-0.0625,0.15625,-0.0625,0.0,0.0,0.0
1696254762692,-1.0117188,0.12207031,-0.02734375,-0.21875,0.34375,-0.125,0.0,0.0,0.0
1696254762726,-1.0224609,0.11621094,-0.02734375,0.0625,0.09375,0.0,0.0,0.0,0.0
1696254762771,-1.0205078,0.12402344,-0.017578125,-0.125,0.15625,0.0625,0.0,0.0,0.0
1696254762805,-1.0273438,0.11816406,-0.029296875,0.0,0.40625,-0.125,0.0,0.0,0.0
1696254762850,-1.0283203,0.123046875,-0.016601562,0.0,0.15625,-0.0625,0.0,0.0,0.0
1696254762883,-1.0175781,0.11425781,-0.025390625,0.0,0.15625,0.0625,0.0,0.0,0.0
1696254762928,-1.0205078,0.1171875,-0.015625,0.0,-0.03125,0.0,0.0,0.0,0.0
1696254762962,-1.0263672,0.12695312,-0.028320312,0.3125,0.03125,0.0625,0.0,0.0,0.0
1696254763007,-1.0126953,0.12109375,-0.032226562,0.0625,-0.03125,0.0,0.0,0.0,0.0
1696254763052,-1.0253906,0.12988281,-0.013671875,0.0,-0.09375,-0.0625,-50.375,27.1875,-241.6875
1696254763086,-1.015625,0.12207031,-0.017578125,-0.0625,-0.15625,-0.0625,0.0,0.0,0.0
1696254763131,-1.0136719,0.12695312,-0.03515625,0.0,-0.03125,0.0625,0.0,0.0,0.0
1696254763165,-1.0244141,0.123046875,-0.0146484375,0.25,-0.03125,-0.125,0.0,0.0,0.0
1696254763210,-1.0234375,0.12402344,-0.001953125,-0.0625,-0.15625,-0.125,0.0,0.0,0.0
1696254763243,-1.0214844,0.11621094,-0.0068359375,0.3125,-0.3125,-0.0625,0.0,0.0,0.0
1696254763289,-1.0234375,0.12597656,-0.017578125,-0.0625,-0.3125,-0.375,0.0,0.0,0.0
1696254763322,-1.0185547,0.12597656,-0.0078125,-0.71875,-0.6875,-0.3125,0.0,0.0,0.0
1696254763367,-1.0175781,0.12109375,-0.021484375,-0.53125,-0.4375,-0.3125,0.0,0.0,0.0
1696254763412,-1.0224609,0.11621094,-0.0146484375,-0.125,-0.375,-0.25,0.0,0.0,0.0
1696254763446,-1.0283203,0.125,-0.0029296875,0.0625,-0.375,-0.25,0.0,0.0,0.0
1696254763491,-1.0253906,0.123046875,-0.01953125,0.0,-0.5625,-0.25,0.0,0.0,0.0
1696254763525,-1.0107422,0.12109375,-0.021484375,-0.0625,-0.8125,-0.25,-49.375,25.8125,-242.75
1696254763570,-1.0166016,0.1328125,-0.0068359375,-0.0625,-0.25,-0.125,0.0,0.0,0.0
1696254763603,-1.0244141,0.12402344,-0.0146484375,-0.40625,-0.15625,-0.125,0.0,0.0,0.0
1696254763648,-1.0185547,0.12207031,-0.009765625,-1.03125,-0.09375,0.0625,0.0,0.0,0.0
1696254763682,-1.0244141,0.12597656,-0.016601562,-0.90625,-0.3125,-0.25,0.0,0.0,0.0
1696254763727,-1.015625,0.1171875,-0.01171875,-0.78125,-0.25,0.0,0.0,0.0,0.0
1696254763772,-1.0175781,0.11816406,-0.01953125,-0.40625,0.21875,0.0625,0.0,0.0,0.0
1696254763806,-1.0283203,0.11230469,-0.024414062,0.4375,-0.03125,-0.25,0.0,0.0,0.0
1696254763851,-1.0302734,0.12695312,-0.0078125,0.25,-0.4375,-0.25,0.0,0.0,0.0
1696254763884,-1.0253906,0.12207031,-0.022460938,0.0625,-0.25,-0.125,0.0,0.0,0.0
1696254763929,-1.0117188,0.11816406,-0.01953125,0.0,0.03125,-0.3125,0.0,0.0,0.0
1696254763963,-1.0263672,0.12695312,-0.017578125,-0.1875,0.03125,0.0625,0.0,0.0,0.0
1696254764008,-1.0175781,0.12207031,-0.020507812,-0.65625,-0.21875,0.0625,0.0,0.0,0.0
1696254764053,-1.0244141,0.12207031,-0.0107421875,-0.59375,-0.21875,-0.1875,-49.375,26.5625,-241.25
1696254764090,-1.0283203,0.11230469,-0.0146484375,-0.1875,-0.15625,-0.0625,0.0,0.0,0.0
1696254764166,-1.0195312,0.1171875,-0.0146484375,-0.125,0.09375,-0.1875,0.0,0.0,0.0
1696254764167,-1.0224609,0.12207031,-0.020507812,-0.1875,0.03125,-0.0625,0.0,0.0,0.0
1696254764211,-1.0205078,0.11621094,-0.016601562,-0.34375,-0.15625,-0.125,0.0,0.0,0.0
1696254764244,-1.0244141,0.1171875,-0.0078125,-0.53125,-0.03125,-0.1875,0.0,0.0,0.0
1696254764290,-1.0205078,0.1171875,-0.045898438,-0.46875,-0.25,-0.125,0.0,0.0,0.0
1696254764323,-1.0185547,0.1171875,-0.028320312,-0.59375,-0.4375,-0.3125,0.0,0.0,0.0
1696254764368,-1.0195312,0.12109375,-0.016601562,-0.78125,-0.375,-0.3125,0.0,0.0,0.0
1696254764413,-1.0263672,0.123046875,-0.021484375,-0.28125,-0.25,-0.25,0.0,0.0,0.0
1696254764447,-1.0224609,0.12207031,-0.01171875,0.0625,-0.3125,-0.125,0.0,0.0,0.0
1696254764492,-1.0185547,0.12011719,-0.00390625,-0.125,-0.3125,-0.125,0.0,0.0,0.0
1696254764526,-1.0214844,0.11230469,-0.0126953125,-0.0625,-0.15625,-0.25,-51.875,27.1875,-240.625
1696254764571,-1.0205078,0.119140625,0.0,0.0,0.03125,0.0,0.0,0.0,0.0
1696254764605,-1.0175781,0.119140625,-0.0068359375,0.0625,-0.21875,0.1875,0.0,0.0,0.0
1696254764649,-1.0126953,0.11230469,-0.005859375,0.0625,-0.21875,-0.25,0.0,0.0,0.0
1696254764683,-1.0224609,0.11425781,-0.0087890625,0.0,-0.25,-0.1875,0.0,0.0,0.0
1696254764728,-1.03125,0.1171875,-0.025390625,0.125,-0.25,0.1875,0.0,0.0,0.0
1696254764774,-1.0234375,0.11425781,-0.02734375,0.5625,-0.03125,-0.0625,0.0,0.0,0.0
1696254764807,-1.0283203,0.12597656,-0.0126953125,-0.125,0.03125,-0.25,0.0,0.0,0.0
1696254764852,-1.0205078,0.1328125,-0.015625,-0.1875,-0.21875,0.0,0.0,0.0,0.0
1696254764885,-1.0117188,0.12402344,-0.028320312,-0.21875,-0.09375,0.0,0.0,0.0,0.0
1696254764930,-1.0175781,0.11328125,9.765625E-4,-0.0625,0.15625,-0.1875,0.0,0.0,0.0
1696254764964,-1.0146484,0.12109375,-0.0126953125,-0.53125,-0.09375,-0.125,0.0,0.0,0.0
1696254765009,-1.0175781,0.115234375,-0.0087890625,-0.1875,-0.15625,-0.0625,0.0,0.0,0.0
1696254765043,-1.0224609,0.11816406,-0.01171875,-0.21875,0.09375,0.0,-49.5,26.0,-241.125
1696254765088,-1.0234375,0.11425781,-0.001953125,-0.0625,0.09375,0.0,0.0,0.0,0.0
1696254765133,-1.0224609,0.1171875,-0.005859375,-0.28125,-0.3125,-0.0625,0.0,0.0,0.0
1696254765169,-1.0253906,0.11035156,-0.0048828125,-0.1875,-0.09375,-0.0625,0.0,0.0,0.0
1696254765214,-1.0126953,0.125,-0.0087890625,-0.1875,-0.03125,0.0,0.0,0.0,0.0
1696254765246,-1.0234375,0.123046875,-0.02734375,-0.1875,0.21875,-0.0625,0.0,0.0,0.0
1696254765291,-1.0205078,0.11816406,-0.01171875,0.0625,0.09375,-0.1875,0.0,0.0,0.0
1696254765326,-1.0205078,0.11230469,-0.0029296875,0.0625,0.34375,0.0,0.0,0.0,0.0
1696254765370,-1.0126953,0.12011719,-0.001953125,0.1875,0.09375,0.0,0.0,0.0,0.0
1696254765403,-1.0166016,0.125,-0.017578125,0.0,0.21875,-0.0625,0.0,0.0,0.0
1696254765449,-1.0205078,0.119140625,-0.0146484375,-0.28125,0.03125,-0.125,0.0,0.0,0.0
1696254765494,-1.0175781,0.1171875,-0.016601562,-0.1875,0.28125,0.0,0.0,0.0,0.0
1696254765527,-1.0126953,0.11425781,-0.00390625,-0.125,0.28125,0.1875,-50.5625,27.8125,-241.125
1696254765572,-1.0126953,0.12109375,-0.009765625,0.125,0.34375,0.0625,0.0,0.0,0.0
1696254765605,-1.0205078,0.11621094,-0.017578125,0.3125,0.09375,0.375,0.0,0.0,0.0
1696254765651,-1.0234375,0.1171875,-0.015625,0.375,0.46875,0.1875,0.0,0.0,0.0
1696254765684,-1.0244141,0.12207031,0.0,0.4375,0.21875,0.0625,0.0,0.0,0.0
1696254765729,-1.0283203,0.115234375,-0.017578125,0.125,0.21875,0.125,0.0,0.0,0.0
1696254765763,-1.0292969,0.119140625,-0.017578125,0.125,0.21875,0.25,0.0,0.0,0.0
1696254765808,-1.0195312,0.12988281,-0.0048828125,0.0625,0.28125,0.1875,0.0,0.0,0.0
1696254765853,-1.0253906,0.12109375,-0.018554688,0.125,0.09375,0.0625,0.0,0.0,0.0
1696254765887,-1.0205078,0.123046875,-0.009765625,-0.125,-0.03125,0.1875,0.0,0.0,0.0
1696254765932,-1.0253906,0.12011719,-0.005859375,-0.21875,0.09375,0.0625,0.0,0.0,0.0
1696254765966,-1.0166016,0.12109375,-0.0107421875,-0.0625,0.09375,-0.125,0.0,0.0,0.0
1696254766011,-1.0195312,0.1328125,-0.005859375,-0.40625,0.03125,-0.0625,0.0,0.0,0.0
1696254766045,-1.015625,0.119140625,-0.020507812,-0.90625,-0.09375,0.0,-50.5625,24.9375,-241.125
1696254766089,-1.0166016,0.12402344,-0.01171875,-0.90625,-0.375,-0.25,0.0,0.0,0.0
1696254766123,-1.0244141,0.1171875,-0.0107421875,-0.78125,0.03125,-0.1875,0.0,0.0,0.0
1696254766168,-1.0185547,0.11328125,-0.0107421875,-0.21875,0.03125,-0.0625,0.0,0.0,0.0
1696254766213,-1.0322266,0.12695312,-0.0068359375,-0.40625,-0.3125,-0.1875,0.0,0.0,0.0
1696254766247,-1.0146484,0.11425781,-0.022460938,0.0,-0.375,-0.3125,0.0,0.0,0.0
1696254766325,-1.0234375,0.115234375,-0.017578125,-0.0625,-0.4375,-0.1875,0.0,0.0,0.0
1696254766327,-1.0234375,0.12011719,-0.00390625,0.0,-0.75,-0.0625,0.0,0.0,0.0
1696254766371,-1.0253906,0.115234375,-0.017578125,0.5,-0.6875,-0.25,0.0,0.0,0.0
1696254766404,-1.0166016,0.119140625,-0.0126953125,0.6875,0.40625,-0.0625,0.0,0.0,0.0
1696254766449,-1.0185547,0.12207031,0.001953125,0.625,0.28125,0.3125,0.0,0.0,0.0
1696254766483,-1.0166016,0.12011719,-0.0068359375,0.125,-0.21875,-0.125,0.0,0.0,0.0
1696254766528,-1.0097656,0.123046875,-0.01953125,-0.0625,-0.4375,-0.25,-49.1875,27.0625,-241.5625
1696254766595,-1.0185547,0.11621094,0.0,0.3125,0.03125,-0.125,0.0,0.0,0.0
1696254766607,-1.0185547,0.12988281,-0.0087890625,0.3125,0.15625,0.0,0.0,0.0,0.0
1696254766686,-1.0263672,0.12011719,-0.0107421875,0.125,0.15625,-0.0625,0.0,0.0,0.0
1696254766687,-1.0175781,0.11816406,-0.0078125,0.1875,0.15625,0.0,0.0,0.0,0.0
1696254766731,-1.0185547,0.109375,-0.00390625,0.125,0.28125,0.0625,0.0,0.0,0.0
1696254766764,-1.0117188,0.12011719,-0.005859375,0.25,0.09375,0.0,0.0,0.0,0.0
1696254766809,-1.0175781,0.1171875,-0.0146484375,0.25,0.40625,-0.125,0.0,0.0,0.0
1696254766844,-1.0205078,0.119140625,-0.009765625,0.1875,0.40625,0.0,0.0,0.0,0.0
1696254766888,-1.0234375,0.12695312,-0.0126953125,0.25,0.21875,-0.0625,0.0,0.0,0.0
1696254766937,-1.0185547,0.1171875,-0.0234375,-0.53125,0.28125,-0.1875,0.0,0.0,0.0
1696254766967,-1.0195312,0.12597656,-0.0087890625,-0.21875,0.28125,-0.0625,0.0,0.0,0.0
1696254767011,-1.0273438,0.1171875,-0.0068359375,-0.46875,0.34375,0.0625,0.0,0.0,0.0
1696254767046,-1.0244141,0.11230469,-0.016601562,-0.125,0.28125,0.0,-50.25,27.5,-241.125
1696254767091,-1.0166016,0.115234375,-0.015625,0.0,0.03125,0.0,0.0,0.0,0.0
1696254767125,-1.0185547,0.11816406,-0.0078125,0.0625,-0.03125,0.0625,0.0,0.0,0.0
1696254767169,-1.0175781,0.119140625,-0.01171875,-0.0625,-0.03125,0.125,0.0,0.0,0.0
1696254767203,-1.0136719,0.111328125,-0.0146484375,0.75,0.28125,0.0,0.0,0.0,0.0
1696254767249,-1.0234375,0.11816406,-0.0087890625,0.75,0.28125,0.375,0.0,0.0,0.0
1696254767293,-1.0263672,0.13378906,-0.009765625,0.5,0.03125,0.25,0.0,0.0,0.0
1696254767327,-1.0205078,0.12207031,-0.009765625,0.25,-0.15625,0.0625,0.0,0.0,0.0
1696254767372,-1.0273438,0.12207031,-0.0087890625,0.0625,-0.09375,0.125,0.0,0.0,0.0
1696254767405,-1.0224609,0.12109375,-0.018554688,-0.0625,0.15625,0.25,0.0,0.0,0.0
1696254767451,-1.0224609,0.12402344,-0.0029296875,-0.125,0.03125,-0.0625,0.0,0.0,0.0
1696254767484,-1.0205078,0.107421875,-0.01171875,-0.28125,-0.15625,0.125,0.0,0.0,0.0
1696254767530,-1.0234375,0.1171875,-0.0234375,-0.46875,-0.09375,0.1875,-49.0625,26.5625,-240.625
1696254767563,-1.0234375,0.11035156,-0.0146484375,-0.0625,-0.03125,0.375,0.0,0.0,0.0
1696254767608,-1.0253906,0.11621094,-0.024414062,0.3125,0.09375,0.0,0.0,0.0,0.0
1696254767653,-1.0214844,0.12695312,-0.018554688,0.4375,-0.21875,-0.375,0.0,0.0,0.0
1696254767689,-1.015625,0.13183594,-0.0078125,0.5,-0.25,0.1875,0.0,0.0,0.0
1696254767732,-1.015625,0.12207031,-0.0126953125,0.5625,0.03125,0.0,0.0,0.0,0.0
1696254767766,-1.0166016,0.119140625,-0.01171875,-0.0625,-0.09375,-0.125,0.0,0.0,0.0
1696254767811,-1.0234375,0.115234375,-0.0068359375,-0.28125,-0.15625,-0.0625,0.0,0.0,0.0
1696254767845,-1.0175781,0.11621094,-0.0068359375,-0.65625,-0.15625,-0.0625,0.0,0.0,0.0
1696254767890,-1.0214844,0.119140625,0.001953125,-0.34375,0.40625,-0.25,0.0,0.0,0.0
1696254767925,-1.0234375,0.119140625,-0.0107421875,0.0,0.09375,-0.1875,0.0,0.0,0.0
1696254767968,-1.0146484,0.115234375,-0.0087890625,0.1875,0.21875,-0.125,0.0,0.0,0.0
1696254768014,-1.0205078,0.12109375,-0.015625,0.125,-0.03125,-0.25,0.0,0.0,0.0
1696254768048,-1.0214844,0.115234375,-0.018554688,-0.1875,-0.375,-0.4375,-49.0625,27.1875,-240.375
1696254768093,-1.0185547,0.12402344,-0.01171875,-0.40625,-0.09375,-0.3125,0.0,0.0,0.0
1696254768126,-1.0136719,0.111328125,-9.765625E-4,-0.28125,-0.21875,-0.375,0.0,0.0,0.0
1696254768172,-1.0263672,0.10644531,-0.020507812,-0.0625,-0.21875,-0.0625,0.0,0.0,0.0
1696254768205,-1.0253906,0.11425781,-0.015625,0.0625,-0.21875,-0.25,0.0,0.0,0.0
1696254768253,-1.0253906,0.11816406,-0.0029296875,0.25,0.09375,-0.125,0.0,0.0,0.0
1696254768283,-1.0224609,0.123046875,-0.0068359375,0.3125,0.03125,-0.3125,0.0,0.0,0.0
1696254768328,-1.0175781,0.11035156,-0.005859375,0.0,-0.09375,-0.125,0.0,0.0,0.0
1696254768373,-1.0244141,0.119140625,-0.0126953125,0.125,0.34375,-0.1875,0.0,0.0,0.0
1696254768407,-1.0224609,0.10839844,-0.015625,0.625,0.34375,-0.125,0.0,0.0,0.0
1696254768452,-1.0195312,0.12207031,-0.020507812,0.375,-0.09375,-0.0625,0.0,0.0,0.0
1696254768486,-1.0205078,0.12890625,-0.021484375,0.1875,-0.21875,-0.0625,0.0,0.0,0.0
1696254768531,-1.0146484,0.11621094,-0.0146484375,-0.125,-0.15625,0.0625,-49.625,27.1875,-240.9375
1696254768565,-1.0166016,0.11425781,-0.0048828125,-0.34375,0.21875,0.0625,0.0,0.0,0.0
1696254768609,-1.0205078,0.1171875,-0.001953125,-0.125,0.09375,0.0625,0.0,0.0,0.0
1696254768643,-1.0224609,0.12011719,-0.01171875,-0.53125,-0.03125,-0.0625,0.0,0.0,0.0
1696254768688,-1.0224609,0.119140625,-9.765625E-4,-0.125,-0.15625,0.0,0.0,0.0,0.0
1696254768736,-1.0195312,0.11425781,0.0,0.1875,-0.03125,0.125,0.0,0.0,0.0
1696254768767,-1.0205078,0.111328125,-0.0126953125,0.25,0.09375,0.0625,0.0,0.0,0.0
1696254768812,-1.0263672,0.119140625,-0.001953125,0.125,0.21875,0.0,0.0,0.0,0.0
1696254768846,-1.0244141,0.1171875,-0.0126953125,-0.1875,-0.09375,0.0625,0.0,0.0,0.0
1696254768891,-1.0283203,0.12207031,-0.005859375,-0.125,0.09375,-0.0625,0.0,0.0,0.0
1696254768924,-1.0195312,0.12402344,-0.001953125,-0.125,0.28125,0.0625,0.0,0.0,0.0
1696254768969,-1.0224609,0.10449219,-0.009765625,-0.1875,0.28125,0.125,0.0,0.0,0.0
1696254769003,-1.03125,0.11230469,-0.0068359375,-0.0625,0.15625,0.125,0.0,0.0,0.0
1696254769048,-1.0273438,0.11230469,0.0,0.0,0.15625,-0.0625,-50.375,25.5625,-240.9375
1696254769093,-1.0175781,0.109375,-0.017578125,0.125,0.15625,0.0,0.0,0.0,0.0
1696254769127,-1.0214844,0.1171875,-0.005859375,0.375,0.28125,0.0,0.0,0.0,0.0
1696254769172,-1.0175781,0.115234375,-0.0107421875,0.0625,0.09375,-0.125,0.0,0.0,0.0
1696254769206,-1.0175781,0.12597656,-0.016601562,0.3125,0.21875,0.0,0.0,0.0,0.0
1696254769251,-1.0126953,0.123046875,-0.013671875,0.0,0.40625,0.0625,0.0,0.0,0.0
1696254769284,-1.0214844,0.123046875,9.765625E-4,0.0625,0.34375,0.0,0.0,0.0,0.0
1696254769329,-1.0214844,0.11425781,-0.018554688,-0.0625,-0.03125,-0.1875,0.0,0.0,0.0
1696254769363,-1.0205078,0.111328125,-0.0146484375,-0.0625,-0.03125,-0.25,0.0,0.0,0.0
1696254769408,-1.0214844,0.119140625,-0.0087890625,-0.0625,-0.03125,0.0625,0.0,0.0,0.0
1696254769453,-1.0175781,0.11621094,-0.017578125,0.125,0.21875,-0.3125,0.0,0.0,0.0
1696254769487,-1.0224609,0.115234375,-0.016601562,-0.125,0.03125,-0.125,0.0,0.0,0.0
1696254769532,-1.0244141,0.12011719,-0.015625,-0.21875,-0.15625,0.0,-50.125,27.625,-240.625
1696254769566,-1.0263672,0.109375,-0.005859375,-0.21875,-0.09375,-0.0625,0.0,0.0,0.0
1696254769611,-1.0166016,0.1171875,-0.017578125,-0.1875,0.03125,-0.0625,0.0,0.0,0.0
1696254769656,-1.0185547,0.109375,-0.0126953125,-0.34375,0.09375,-0.0625,0.0,0.0,0.0
1696254769692,-1.0185547,0.1171875,-9.765625E-4,-0.0625,0.03125,-0.0625,0.0,0.0,0.0
1696254769723,-1.0185547,0.119140625,-0.0146484375,0.125,0.03125,0.125,0.0,0.0,0.0
1696254769768,-1.0195312,0.12011719,-0.0126953125,0.0,0.03125,-0.125,0.0,0.0,0.0
1696254769813,-1.0087891,0.123046875,-0.0068359375,-0.0625,0.03125,0.0,0.0,0.0,0.0
1696254769847,-1.0195312,0.123046875,-0.009765625,0.15625,0.09375,0.0,0.0,0.0,0.0
1696254769892,-1.0185547,0.12011719,-0.017578125,-0.09375,0.0625,-0.1875,0.0,0.0,0.0
1696254769926,-1.0195312,0.115234375,-0.015625,-0.28125,0.0,-0.125,0.0,0.0,0.0
1696254769970,-1.0166016,0.12109375,-0.0107421875,-0.09375,0.0,-0.0625,0.0,0.0,0.0
1696254770004,-1.0126953,0.12011719,-0.013671875,-0.40625,-0.3125,-0.0625,0.0,0.0,0.0
1696254770049,-1.0126953,0.12109375,-0.0146484375,-0.34375,-0.25,-0.125,-49.625,26.875,-240.625
1696254770083,-1.0234375,0.11230469,-0.0029296875,-0.28125,0.0625,-0.125,0.0,0.0,0.0
1696254770128,-1.0205078,0.12011719,-0.0048828125,-0.15625,0.0,-0.1875,0.0,0.0,0.0
1696254770173,-1.0292969,0.111328125,0.0068359375,-0.15625,-0.0625,-0.125,0.0,0.0,0.0
1696254770207,-1.0136719,0.12207031,-0.016601562,-0.21875,-0.25,-0.0625,0.0,0.0,0.0
1696254770252,-1.0205078,0.12207031,-0.015625,-0.03125,-0.125,-0.0625,0.0,0.0,0.0
1696254770286,-1.0205078,0.11328125,-0.0048828125,0.09375,-0.0625,-0.125,0.0,0.0,0.0
1696254770330,-1.0214844,0.12109375,0.005859375,0.03125,0.0625,-0.1875,0.0,0.0,0.0
1696254770364,-1.0185547,0.1171875,-0.005859375,0.15625,0.0,-0.0625,0.0,0.0,0.0
1696254770409,-1.0185547,0.123046875,0.0029296875,0.03125,-0.1875,-0.25,0.0,0.0,0.0
1696254770445,-1.0253906,0.11328125,-0.009765625,-0.09375,0.0,-0.25,0.0,0.0,0.0
1696254770488,-1.0244141,0.11425781,-0.001953125,-0.46875,0.21875,0.1875,0.0,0.0,0.0
1696254770533,-1.0136719,0.111328125,-0.00390625,0.09375,0.0,0.0,-50.5625,25.6875,-242.125
1696254770567,-1.0244141,0.10546875,-0.0068359375,-0.15625,-0.125,-0.1875,0.0,0.0,0.0
1696254770612,-1.0214844,0.11230469,-0.0029296875,-0.09375,-0.1875,0.0,0.0,0.0,0.0
1696254770646,-1.015625,0.10644531,-0.009765625,0.3125,0.21875,0.0,0.0,0.0,0.0
1696254770691,-1.0136719,0.111328125,-0.0107421875,-0.09375,0.28125,0.1875,0.0,0.0,0.0
1696254770724,-1.0283203,0.11035156,-0.01171875,-0.53125,0.21875,0.0625,0.0,0.0,0.0
1696254770769,-1.0253906,0.103515625,-0.0068359375,-0.28125,0.15625,-0.125,0.0,0.0,0.0
1696254770848,-1.0136719,0.10644531,-0.015625,0.03125,0.0625,-0.125,0.0,0.0,0.0
1696254770850,-1.0117188,0.115234375,-0.0146484375,0.4375,0.15625,0.1875,0.0,0.0,0.0
1696254770893,-1.0273438,0.11621094,-0.0234375,0.5625,0.15625,0.0625,0.0,0.0,0.0
1696254770927,-1.0195312,0.119140625,-0.015625,0.5625,0.09375,0.0625,0.0,0.0,0.0
1696254770972,-1.0195312,0.11230469,-0.015625,0.375,0.0,0.0,0.0,0.0,0.0
1696254771006,-1.0205078,0.1171875,-0.01953125,0.03125,0.0,-0.0625,0.0,0.0,0.0
1696254771051,-1.0224609,0.107421875,-0.0048828125,0.03125,0.15625,0.0,-50.125,26.875,-240.625
1696254771085,-1.0195312,0.115234375,0.0068359375,0.03125,0.21875,0.1875,0.0,0.0,0.0
1696254771130,-1.0195312,0.11621094,-0.0146484375,-0.09375,0.0,-0.0625,0.0,0.0,0.0
1696254771163,-1.0185547,0.11621094,-0.013671875,0.09375,-0.0625,-0.0625,0.0,0.0,0.0
1696254771208,-1.0234375,0.11816406,-0.0068359375,0.4375,0.09375,0.25,0.0,0.0,0.0
1696254771253,-1.0234375,0.11816406,-0.005859375,0.03125,0.21875,0.1875,0.0,0.0,0.0
1696254771287,-1.0185547,0.10839844,-0.015625,0.375,0.15625,0.0625,0.0,0.0,0.0
1696254771332,-1.0166016,0.119140625,-0.016601562,0.15625,0.15625,0.125,0.0,0.0,0.0
1696254771366,-1.0107422,0.12402344,-0.0146484375,-0.09375,0.21875,-0.0625,0.0,0.0,0.0
1696254771411,-1.0263672,0.11425781,9.765625E-4,0.09375,-0.125,0.0625,0.0,0.0,0.0
1696254771444,-1.0185547,0.12109375,-0.0029296875,0.15625,0.0,0.0625,0.0,0.0,0.0
1696254771489,-1.0146484,0.12695312,-0.0146484375,0.03125,0.15625,0.0625,0.0,0.0,0.0
1696254771535,-1.0166016,0.12890625,-0.00390625,0.09375,0.0625,0.0625,-51.0,26.3125,-243.1875
1696254771568,-1.0107422,0.11425781,-0.0107421875,-0.15625,-0.125,0.0625,0.0,0.0,0.0
1696254771613,-1.0253906,0.12011719,9.765625E-4,-0.46875,-0.0625,-0.0625,0.0,0.0,0.0
1696254771647,-1.0136719,0.1171875,-0.0068359375,-0.03125,-0.125,-0.0625,0.0,0.0,0.0
1696254771692,-1.0234375,0.11425781,-0.0126953125,-0.03125,-0.25,-0.25,0.0,0.0,0.0
1696254771726,-1.015625,0.11621094,-0.009765625,-0.03125,-0.25,-0.0625,0.0,0.0,0.0
1696254771771,-1.0195312,0.1171875,-0.016601562,0.15625,-0.0625,0.0,0.0,0.0,0.0
1696254771805,-1.0253906,0.119140625,-0.016601562,0.25,0.0,0.0625,0.0,0.0,0.0
1696254771849,-1.0185547,0.11621094,9.765625E-4,0.1875,0.09375,-0.0625,0.0,0.0,0.0
1696254771883,-1.0214844,0.11816406,-0.0107421875,0.09375,0.21875,-0.125,0.0,0.0,0.0
1696254771928,-1.0175781,0.11621094,0.0,-0.15625,0.09375,0.0,0.0,0.0,0.0
1696254771973,-1.0185547,0.111328125,0.0068359375,0.03125,0.53125,0.125,0.0,0.0,0.0
1696254772007,-1.0205078,0.12011719,-0.009765625,-0.21875,-0.0625,-0.1875,0.0,0.0,0.0
1696254772052,-1.0136719,0.11425781,-0.00390625,-0.40625,-0.0625,-0.3125,-49.625,25.8125,-240.625
1696254772086,-1.0166016,0.115234375,-0.0048828125,0.5,0.09375,-0.125,0.0,0.0,0.0
1696254772130,-1.0253906,0.125,-0.0107421875,0.3125,0.34375,0.0625,0.0,0.0,0.0
1696254772165,-1.0117188,0.11230469,-0.017578125,0.3125,0.28125,0.0625,0.0,0.0,0.0
1696254772209,-1.0195312,0.119140625,-0.0107421875,0.3125,0.09375,0.0625,0.0,0.0,0.0
1696254772243,-1.0214844,0.12011719,-0.009765625,0.09375,0.21875,0.0,0.0,0.0,0.0
1696254772290,-1.0253906,0.109375,-0.0107421875,0.09375,0.0625,0.0,0.0,0.0,0.0
1696254772335,-1.0214844,0.12402344,0.0048828125,0.09375,0.0625,0.0625,0.0,0.0,0.0
1696254772368,-1.0214844,0.1171875,-0.0087890625,0.15625,0.34375,0.3125,0.0,0.0,0.0
1696254772413,-1.0253906,0.115234375,-0.0068359375,0.09375,0.15625,0.125,0.0,0.0,0.0
1696254772447,-1.0253906,0.13085938,-0.0048828125,0.25,0.0625,0.0,0.0,0.0,0.0
1696254772492,-1.0175781,0.1171875,0.00390625,-0.03125,-0.25,-0.1875,0.0,0.0,0.0
1696254772524,-1.0126953,0.11328125,-0.01953125,-0.03125,-0.1875,-0.1875,-48.875,26.3125,-242.125
1696254772569,-1.0205078,0.12402344,-0.0126953125,-0.21875,0.0625,-0.0625,0.0,0.0,0.0
1696254772603,-1.0117188,0.119140625,-0.020507812,-0.15625,0.0,0.0625,0.0,0.0,0.0
1696254772648,-1.0244141,0.119140625,-0.009765625,-0.21875,-0.125,0.0625,0.0,0.0,0.0
1696254772693,-1.0166016,0.12597656,-0.015625,-0.09375,-0.25,-0.125,0.0,0.0,0.0
1696254772727,-1.0253906,0.11328125,-0.016601562,-0.28125,-0.375,0.0,0.0,0.0,0.0
1696254772772,-1.0244141,0.109375,-0.005859375,-0.21875,-0.3125,-0.25,0.0,0.0,0.0
1696254772806,-1.0185547,0.12695312,-0.017578125,-0.03125,-0.1875,-0.125,0.0,0.0,0.0
1696254772853,-1.0302734,0.1171875,-0.0126953125,0.1875,-0.0625,-0.0625,0.0,0.0,0.0
1696254772884,-1.0214844,0.12207031,-0.0048828125,-0.03125,0.09375,0.0,0.0,0.0,0.0
1696254772929,-1.0234375,0.119140625,-0.009765625,-0.28125,-0.125,-0.1875,0.0,0.0,0.0
1696254772963,-1.0087891,0.11621094,-0.0029296875,-0.28125,-0.4375,-0.3125,0.0,0.0,0.0
1696254773008,-1.0166016,0.11035156,-0.0087890625,-0.28125,-0.0625,-0.1875,0.0,0.0,0.0
1696254773053,-1.0214844,0.11816406,-0.005859375,0.3125,-0.0625,0.0,-50.125,26.875,-242.3125
1696254773087,-1.0166016,0.119140625,0.0048828125,0.03125,-0.0625,-0.0625,0.0,0.0,0.0
1696254773132,-1.0361328,0.12109375,-0.017578125,-0.09375,-0.375,-0.4375,0.0,0.0,0.0
1696254773166,-1.0175781,0.12988281,-0.0048828125,0.09375,-0.375,-0.46875,0.0,0.0,0.0
1696254773210,-1.0214844,0.11816406,-0.0048828125,-0.15625,-0.125,-0.0625,0.0,0.0,0.0
1696254773244,-1.0166016,0.1171875,0.0048828125,-0.46875,0.0,-0.0625,0.0,0.0,0.0
1696254773289,-1.0224609,0.1171875,-0.005859375,-0.09375,-0.25,0.0,0.0,0.0,0.0
1696254773323,-1.0205078,0.11621094,-0.01171875,-0.28125,-0.375,-0.3125,0.0,0.0,0.0
1696254773368,-1.0185547,0.1171875,0.001953125,0.1875,-0.3125,-0.125,0.0,0.0,0.0
1696254773435,-1.0107422,0.115234375,-0.017578125,0.1875,-0.4375,-0.3125,0.0,0.0,0.0
1696254773451,-1.0175781,0.12207031,-0.00390625,0.15625,-0.3125,-0.1875,0.0,0.0,0.0
1696254773492,-1.0292969,0.1171875,-0.013671875,0.03125,-0.375,0.0,0.0,0.0,0.0
1696254773526,-1.0224609,0.119140625,-0.0087890625,-0.28125,-0.25,-0.25,-50.5625,26.0,-240.5
1696254773571,-1.0224609,0.11816406,-0.0126953125,-0.09375,-0.375,-0.1875,0.0,0.0,0.0
1696254773604,-1.0244141,0.1171875,-0.0087890625,-0.21875,-0.625,-0.1875,0.0,0.0,0.0
1696254773649,-1.0185547,0.11425781,-9.765625E-4,-0.46875,-0.375,-0.3125,0.0,0.0,0.0
1696254773683,-1.0195312,0.11035156,0.005859375,-0.28125,-0.375,-0.125,0.0,0.0,0.0
1696254773728,-1.0107422,0.11425781,-0.0029296875,-0.28125,-0.25,-0.125,0.0,0.0,0.0
1696254773773,-1.0332031,0.115234375,-0.005859375,-0.34375,-0.375,-0.125,0.0,0.0,0.0
1696254773807,-1.0234375,0.109375,-0.0048828125,0.03125,-0.4375,0.0,0.0,0.0,0.0
1696254773852,-1.0253906,0.107421875,-0.001953125,-0.03125,-0.1875,-0.3125,0.0,0.0,0.0
1696254773887,-1.0244141,0.12402344,-0.0107421875,-0.15625,-0.375,-0.1875,0.0,0.0,0.0
1696254773931,-1.0244141,0.12207031,-0.0068359375,0.3125,-0.5625,-0.125,0.0,0.0,0.0
1696254773964,-1.0224609,0.12011719,-0.0146484375,-0.34375,-0.375,-0.1875,0.0,0.0,0.0
1696254774009,-1.0185547,0.12011719,-0.0107421875,0.03125,-0.3125,0.0,0.0,0.0,0.0
1696254774054,-1.0205078,0.12109375,9.765625E-4,0.03125,-0.1875,-0.25,-49.5,27.5,-241.125
1696254774088,-1.0185547,0.109375,-0.001953125,0.15625,-0.3125,-0.1875,0.0,0.0,0.0
1696254774133,-1.0166016,0.119140625,0.0,-0.09375,-0.375,-0.25,0.0,0.0,0.0
1696254774167,-1.0185547,0.11230469,-0.00390625,-0.15625,-0.1875,-0.3125,0.0,0.0,0.0
1696254774212,-1.0234375,0.11816406,-9.765625E-4,-0.46875,-0.375,-0.1875,0.0,0.0,0.0
1696254774246,-1.0292969,0.119140625,-0.0029296875,-0.03125,-0.25,-0.25,0.0,0.0,0.0
1696254774293,-1.0175781,0.12011719,-0.0068359375,-0.09375,-0.375,-0.3125,0.0,0.0,0.0
1696254774324,-1.0126953,0.11328125,-0.01171875,0.03125,-0.5,-0.25,0.0,0.0,0.0
1696254774369,-1.0205078,0.10449219,0.0029296875,0.4375,-0.5625,-0.3125,0.0,0.0,0.0
1696254774403,-1.0205078,0.10449219,-0.021484375,0.4375,-0.4375,-0.375,0.0,0.0,0.0
1696254774448,-1.0234375,0.11035156,0.001953125,0.375,-0.3125,-0.0625,0.0,0.0,0.0
1696254774493,-1.0195312,0.12792969,0.0048828125,0.375,-0.25,-0.125,0.0,0.0,0.0
1696254774527,-1.0253906,0.119140625,-0.00390625,-0.15625,-0.4375,-0.375,-51.0,27.5,-240.0625
1696254774572,-1.0205078,0.11816406,9.765625E-4,-0.09375,-0.5,-0.3125,0.0,0.0,0.0
1696254774606,-1.0185547,0.10449219,0.0048828125,-0.28125,-0.0625,-0.1875,0.0,0.0,0.0
1696254774651,-1.0234375,0.11621094,-0.0048828125,-0.15625,-0.25,-0.1875,0.0,0.0,0.0
1696254774685,-1.0224609,0.115234375,0.0029296875,-0.03125,-0.25,-0.125,0.0,0.0,0.0
1696254774729,-1.0205078,0.10839844,0.0068359375,0.03125,-0.5625,-0.4375,0.0,0.0,0.0
1696254774763,-1.0214844,0.119140625,-0.0068359375,-0.03125,-0.25,-0.25,0.0,0.0,0.0
1696254774808,-1.015625,0.11425781,-0.009765625,-0.03125,-0.125,-0.0625,0.0,0.0,0.0
1696254774853,-1.03125,0.111328125,-0.0068359375,0.03125,0.0625,0.0,0.0,0.0,0.0
1696254774887,-1.0224609,0.11035156,-0.0107421875,-0.09375,-0.5,-0.25,0.0,0.0,0.0
1696254774931,-1.0224609,0.12207031,-0.0048828125,-0.15625,-0.1875,-0.1875,0.0,0.0,0.0
1696254774966,-1.0126953,0.11035156,9.765625E-4,-0.40625,-0.125,-0.25,0.0,0.0,0.0
1696254775010,-1.0244141,0.1171875,-0.0068359375,0.09375,-0.0625,-0.125,0.0,0.0,0.0
1696254775044,-1.0253906,0.1171875,-0.001953125,0.03125,-0.0625,-0.0625,-50.25,25.25,-240.8125
1696254775089,-1.0214844,0.107421875,-0.0107421875,0.15625,-0.3125,-0.25,0.0,0.0,0.0
1696254775123,-1.0195312,0.115234375,0.009765625,0.25,-0.375,-0.1875,0.0,0.0,0.0
1696254775168,-1.0214844,0.1171875,-0.001953125,-0.03125,-0.25,-0.0625,0.0,0.0,0.0
1696254775213,-1.0214844,0.12402344,0.0078125,0.03125,-0.125,-0.125,0.0,0.0,0.0
1696254775246,-1.0234375,0.12402344,-0.0078125,0.15625,-0.1875,-0.1875,0.0,0.0,0.0
1696254775292,-1.0224609,0.11230469,0.0,-0.28125,-0.1875,0.0625,0.0,0.0,0.0
1696254775326,-1.0136719,0.11621094,-0.009765625,-0.03125,-0.125,-0.1875,0.0,0.0,0.0
1696254775371,-1.0175781,0.1171875,0.00390625,0.1875,-0.3125,0.0,0.0,0.0,0.0
1696254775404,-1.0224609,0.12207031,-0.0068359375,-0.03125,-0.25,-0.0625,0.0,0.0,0.0
1696254775449,-1.0234375,0.10644531,-0.0048828125,-0.03125,-0.1875,-0.125,0.0,0.0,0.0
1696254775483,-1.0322266,0.11230469,0.0,0.03125,0.0625,0.0,0.0,0.0,0.0
1696254775529,-1.0175781,0.115234375,-0.017578125,0.03125,-0.0625,-0.25,-49.9375,26.0,-240.5
1696254775573,-1.0166016,0.1171875,-0.01953125,-0.15625,-0.25,-0.25,0.0,0.0,0.0
1696254775607,-1.0234375,0.115234375,0.01171875,-0.28125,-0.25,-0.1875,0.0,0.0,0.0
1696254775652,-1.0224609,0.111328125,0.0087890625,0.03125,-0.0625,-0.1875,0.0,0.0,0.0
1696254775686,-1.0253906,0.11230469,-0.01171875,-0.09375,-0.3125,-0.125,0.0,0.0,0.0
1696254775731,-1.0166016,0.10839844,0.0078125,0.03125,-0.3125,0.0,0.0,0.0,0.0
1696254775764,-1.0195312,0.11425781,0.0107421875,0.03125,0.0,-0.125,0.0,0.0,0.0
1696254775809,-1.015625,0.109375,0.0,-0.21875,-0.3125,-0.125,0.0,0.0,0.0
1696254775843,-1.0175781,0.1171875,-0.00390625,-0.21875,-0.375,-0.0625,0.0,0.0,0.0
1696254775888,-1.0234375,0.11230469,-0.005859375,-0.21875,-0.125,-0.0625,0.0,0.0,0.0
1696254775971,-1.0234375,0.111328125,-0.00390625,0.15625,-0.0625,-0.0625,0.0,0.0,0.0
1696254775973,-1.0136719,0.11816406,-0.00390625,0.15625,-0.125,-0.0625,0.0,0.0,0.0
1696254776012,-1.0263672,0.1171875,9.765625E-4,0.25,0.0625,-0.125,0.0,0.0,0.0
1696254776045,-1.0166016,0.10839844,0.005859375,0.03125,-0.125,0.0,-49.5,26.0,-239.75
1696254776091,-1.0253906,0.11621094,-0.0146484375,0.1875,0.09375,-0.125,0.0,0.0,0.0
1696254776124,-1.0146484,0.1171875,-0.001953125,-0.03125,-0.0625,-0.1875,0.0,0.0,0.0
1696254776169,-1.0205078,0.119140625,-0.001953125,-0.21875,0.0,0.1875,0.0,0.0,0.0
1696254776214,-1.0146484,0.10644531,-9.765625E-4,0.03125,-0.0625,0.0,0.0,0.0,0.0
1696254776248,-1.0224609,0.107421875,0.0048828125,0.1875,0.0,-0.25,0.0,0.0,0.0
1696254776293,-1.0205078,0.115234375,-0.0048828125,0.03125,-0.0625,0.0,0.0,0.0,0.0
1696254776327,-1.0185547,0.119140625,-0.0029296875,0.0625,0.125,0.03125,0.0,0.0,0.0
1696254776372,-1.0332031,0.11425781,-0.00390625,0.25,0.3125,0.09375,0.0,0.0,0.0
1696254776405,-1.0185547,0.11816406,-0.0068359375,0.0625,0.1875,0.15625,0.0,0.0,0.0
1696254776451,-1.0224609,0.115234375,0.0048828125,0.0625,-0.1875,0.03125,0.0,0.0,0.0
1696254776484,-1.0195312,0.11230469,-0.0029296875,-0.125,-0.25,-0.03125,0.0,0.0,0.0
1696254776530,-1.0234375,0.11816406,-0.0068359375,-0.0625,0.125,0.09375,-49.9375,27.0625,-241.125
1696254776574,-1.0175781,0.109375,-0.0048828125,-0.25,0.1875,0.03125,0.0,0.0,0.0
1696254776608,-1.0253906,0.115234375,-0.00390625,-0.125,-0.125,0.09375,0.0,0.0,0.0
1696254776653,-1.0234375,0.115234375,-0.0048828125,-0.375,0.0,-0.09375,0.0,0.0,0.0
1696254776687,-1.0253906,0.12207031,-9.765625E-4,0.1875,0.1875,-0.09375,0.0,0.0,0.0
1696254776732,-1.0263672,0.11328125,-9.765625E-4,0.0,-0.25,-0.03125,0.0,0.0,0.0
1696254776765,-1.0166016,0.11621094,-0.018554688,-0.0625,-0.4375,-0.21875,0.0,0.0,0.0
1696254776811,-1.0224609,0.111328125,9.765625E-4,0.1875,-0.1875,-0.15625,0.0,0.0,0.0
1696254776844,-1.0195312,0.1171875,0.001953125,-0.0625,-0.0625,-0.03125,0.0,0.0,0.0
1696254776889,-1.0214844,0.11816406,0.00390625,-0.25,-0.0625,-0.09375,0.0,0.0,0.0
1696254776934,-1.0185547,0.11425781,-0.0078125,-0.25,-0.1875,-0.09375,0.0,0.0,0.0
1696254776968,-1.0136719,0.11816406,0.001953125,-0.84375,0.0,0.03125,0.0,0.0,0.0
1696254777013,-1.0253906,0.10449219,0.0146484375,-0.53125,0.1875,0.09375,0.0,0.0,0.0
1696254777047,-1.0292969,0.111328125,-0.005859375,-0.1875,-0.25,-0.15625,-49.9375,26.3125,-241.5625
1696254777092,-1.0263672,0.109375,-0.0087890625,-0.1875,-0.5,-0.34375,0.0,0.0,0.0
1696254777126,-1.015625,0.103515625,-0.0029296875,0.4375,-0.125,-0.28125,0.0,0.0,0.0
1696254777170,-1.0185547,0.11328125,0.0,0.5625,0.0,-0.03125,0.0,0.0,0.0
1696254777204,-1.0126953,0.11425781,0.0,0.5625,-0.125,-0.09375,0.0,0.0,0.0
1696254777251,-1.0234375,0.11230469,0.005859375,-0.1875,-0.25,-0.28125,0.0,0.0,0.0
1696254777294,-1.0234375,0.125,0.001953125,-0.3125,-0.3125,-0.15625,0.0,0.0,0.0
1696254777328,-1.0273438,0.1171875,-0.001953125,-0.78125,-0.1875,0.03125,0.0,0.0,0.0
1696254777376,-1.0244141,0.10644531,-0.001953125,-0.375,-0.0625,-0.21875,0.0,0.0,0.0
1696254777407,-1.03125,0.09863281,0.001953125,-0.1875,-0.3125,-0.21875,0.0,0.0,0.0
1696254777452,-1.0253906,0.10546875,9.765625E-4,0.125,-0.3125,-0.03125,0.0,0.0,0.0
1696254777486,-1.0205078,0.11621094,-0.00390625,0.1875,-0.375,-0.28125,0.0,0.0,0.0
1696254777530,-1.0244141,0.107421875,0.0048828125,0.3125,-0.0625,-0.21875,-50.5625,26.75,-242.125
1696254777564,-1.0214844,0.11425781,0.00390625,-0.25,0.0,-0.09375,0.0,0.0,0.0
1696254777609,-1.0214844,0.12011719,-9.765625E-4,-0.4375,-0.25,-0.21875,0.0,0.0,0.0
1696254777655,-1.0263672,0.10058594,-0.009765625,-0.4375,-0.1875,-0.15625,0.0,0.0,0.0
1696254777689,-1.0253906,0.10644531,9.765625E-4,-0.25,0.0,-0.03125,0.0,0.0,0.0
1696254777734,-1.0224609,0.11621094,-0.005859375,-0.0625,-0.25,-0.09375,0.0,0.0,0.0
1696254777767,-1.0097656,0.10839844,0.001953125,-0.125,-0.3125,-0.09375,0.0,0.0,0.0
1696254777813,-1.0166016,0.115234375,0.0078125,0.0,0.125,0.09375,0.0,0.0,0.0
1696254777846,-1.0185547,0.111328125,0.0048828125,0.125,0.125,-0.03125,0.0,0.0,0.0
1696254777891,-1.0195312,0.10253906,0.0029296875,-0.1875,-0.1875,-0.03125,0.0,0.0,0.0
1696254777925,-1.0185547,0.11425781,0.0087890625,0.0,0.0625,-0.09375,0.0,0.0,0.0
1696254777971,-1.0117188,0.123046875,0.00390625,-0.25,-0.0625,0.09375,0.0,0.0,0.0
1696254778015,-1.0136719,0.10253906,-0.001953125,0.0625,-0.0625,-0.03125,0.0,0.0,0.0
1696254778048,-1.0185547,0.10546875,-0.018554688,0.0,0.0625,0.15625,-51.875,26.875,-239.875
1696254778127,-1.0214844,0.10253906,-0.0048828125,0.0625,0.125,0.09375,0.0,0.0,0.0
1696254778128,-1.0224609,0.11035156,0.0068359375,0.0625,0.0,0.09375,0.0,0.0,0.0
1696254778172,-1.0292969,0.10253906,0.013671875,-0.1875,-0.0625,-0.03125,0.0,0.0,0.0
1696254778206,-1.0107422,0.10839844,0.005859375,-0.0625,0.0,-0.03125,0.0,0.0,0.0
1696254778251,-1.0185547,0.11230469,-9.765625E-4,0.25,-0.1875,-0.15625,0.0,0.0,0.0
1696254778284,-1.0175781,0.11621094,9.765625E-4,0.1875,0.0,-0.15625,0.0,0.0,0.0
1696254778330,-1.0244141,0.115234375,-0.0068359375,0.0625,0.0625,0.09375,0.0,0.0,0.0
1696254778374,-1.0224609,0.111328125,0.0,0.1875,0.125,-0.09375,0.0,0.0,0.0
1696254778408,-1.0166016,0.1171875,0.0146484375,0.125,0.125,0.03125,0.0,0.0,0.0
1696254778488,-1.0234375,0.11621094,0.0068359375,0.625,0.0625,-0.03125,0.0,0.0,0.0
1696254778489,-1.0205078,0.109375,0.01953125,0.25,0.3125,-0.03125,0.0,0.0,0.0
1696254778532,-1.0175781,0.10644531,9.765625E-4,0.125,-0.0625,0.03125,-50.25,27.0625,-240.8125
1696254778565,-1.0185547,0.10839844,0.0068359375,-0.25,-0.1875,-0.09375,0.0,0.0,0.0
1696254778611,-1.0175781,0.107421875,-0.0029296875,-0.0625,0.0625,-0.15625,0.0,0.0,0.0
1696254778644,-1.0166016,0.11425781,0.005859375,0.0,0.1875,0.3125,0.0,0.0,0.0
1696254778689,-1.0195312,0.10546875,0.001953125,-0.125,0.0625,-0.09375,0.0,0.0,0.0
1696254778757,-1.0234375,0.11035156,-0.0029296875,0.0,0.0,-0.15625,0.0,0.0,0.0
1696254778768,-1.0292969,0.109375,0.0,0.0625,-0.1875,0.09375,0.0,0.0,0.0
1696254778815,-1.0175781,0.11035156,0.0107421875,0.125,0.1875,0.25,0.0,0.0,0.0
1696254778847,-1.0224609,0.107421875,0.0078125,0.5,0.25,0.15625,0.0,0.0,0.0
1696254778892,-1.0185547,0.107421875,-0.001953125,0.25,0.375,0.09375,0.0,0.0,0.0
1696254778925,-1.0205078,0.10253906,-0.00390625,0.125,0.25,0.03125,0.0,0.0,0.0
1696254778971,-1.0224609,0.109375,-0.01171875,0.21875,0.3125,0.0625,0.0,0.0,0.0
1696254779004,-1.0244141,0.123046875,9.765625E-4,-0.09375,0.125,-0.125,0.0,0.0,0.0
1696254779049,-1.0126953,0.111328125,9.765625E-4,-0.03125,0.0,-0.125,-51.875,26.875,-240.375
1696254779094,-1.0322266,0.111328125,0.005859375,0.46875,0.25,0.0625,0.0,0.0,0.0
1696254779128,-1.0214844,0.11230469,-0.00390625,-0.21875,-0.3125,0.125,0.0,0.0,0.0
1696254779173,-1.0214844,0.111328125,-0.00390625,0.15625,0.1875,-0.25,0.0,0.0,0.0
1696254779207,-1.0224609,0.10058594,-0.005859375,-0.09375,0.0,0.0625,0.0,0.0,0.0
1696254779252,-1.0322266,0.10644531,0.005859375,-0.3125,0.375,0.125,0.0,0.0,0.0
1696254779285,-1.0195312,0.11621094,-0.0029296875,0.09375,-0.25,-0.0625,0.0,0.0,0.0
1696254779331,-1.0166016,0.11230469,0.0068359375,-0.5625,-0.25,0.1875,0.0,0.0,0.0
1696254779366,-1.0185547,0.11425781,-0.0078125,-0.09375,0.125,0.0,0.0,0.0,0.0
1696254779409,-1.0205078,0.115234375,0.0048828125,0.15625,0.25,0.1875,0.0,0.0,0.0
1696254779454,-1.0292969,0.11035156,0.001953125,0.09375,0.0625,0.125,0.0,0.0,0.0
1696254779488,-1.0175781,0.11621094,-0.0126953125,-0.21875,-0.1875,-0.125,0.0,0.0,0.0
1696254779533,-1.0175781,0.09765625,-0.013671875,-0.09375,0.125,0.125,-49.9375,26.3125,-240.8125
1696254779568,-1.0166016,0.115234375,-0.0029296875,-0.3125,0.1875,0.0,0.0,0.0,0.0
1696254779616,-1.0283203,0.119140625,-0.0068359375,-0.15625,0.0625,-0.0625,0.0,0.0,0.0
1696254779646,-1.0107422,0.10449219,0.005859375,-0.4375,0.125,0.0625,0.0,0.0,0.0
1696254779691,-1.0253906,0.11230469,-0.0068359375,-0.5,0.5,-0.0625,0.0,0.0,0.0
1696254779725,-1.0214844,0.099609375,-0.0048828125,-0.09375,-0.375,0.25,0.0,0.0,0.0
1696254779770,-1.0146484,0.11035156,0.0107421875,0.28125,-0.125,-0.3125,0.0,0.0,0.0
1696254779818,-1.0224609,0.111328125,0.001953125,-0.03125,-0.1875,0.0,0.0,0.0,0.0
1696254779849,-1.0214844,0.111328125,-0.0029296875,-0.03125,-0.3125,0.0625,0.0,0.0,0.0
1696254779894,-1.0283203,0.11035156,-0.0107421875,-0.03125,-0.0625,0.0,0.0,0.0,0.0
1696254779927,-1.0224609,0.11035156,-0.001953125,-0.25,-0.1875,-0.0625,0.0,0.0,0.0
1696254779973,-1.0244141,0.11230469,0.01953125,-0.375,-0.1875,-0.1875,0.0,0.0,0.0
1696254780033,-1.0205078,0.10839844,0.0048828125,-0.21875,0.0,0.125,0.0,0.0,0.0
1696254780054,-1.0097656,0.09863281,0.0078125,0.03125,0.1875,0.0625,-50.25,26.75,-241.125
1696254780085,-1.0253906,0.115234375,0.0048828125,-0.375,-0.0625,-0.0625,0.0,0.0,0.0
1696254780130,-1.0146484,0.11035156,0.0068359375,-0.15625,-0.3125,0.0,0.0,0.0,0.0
1696254780175,-1.0117188,0.115234375,0.0029296875,-0.09375,0.0,-0.125,0.0,0.0,0.0
1696254780209,-1.0253906,0.107421875,0.009765625,-0.25,0.125,-0.125,0.0,0.0,0.0
1696254780280,-1.0224609,0.11621094,-0.0068359375,-0.15625,-0.125,0.0,0.0,0.0,0.0
1696254780288,-1.0234375,0.11425781,-0.0048828125,-0.09375,0.0625,0.0625,0.0,0.0,0.0
1696254780332,-1.0224609,0.1171875,0.0048828125,-0.03125,0.3125,0.0625,0.0,0.0,0.0
1696254780366,-1.0332031,0.11230469,0.015625,0.53125,0.0625,0.125,0.0,0.0,0.0
1696254780411,-1.0214844,0.11328125,-0.020507812,0.03125,-0.25,0.125,0.0,0.0,0.0
1696254780444,-1.0175781,0.10644531,0.001953125,-0.375,-0.0625,0.0,0.0,0.0,0.0
1696254780489,-1.0283203,0.11816406,-0.0029296875,-0.03125,0.0625,-0.0625,0.0,0.0,0.0
1696254780535,-1.0146484,0.11328125,9.765625E-4,0.03125,-0.0625,0.1875,-50.375,26.125,-241.25
1696254780568,-1.0166016,0.10058594,-0.009765625,-0.03125,0.0,0.0625,0.0,0.0,0.0
1696254780613,-1.0205078,0.10839844,-0.0078125,0.09375,0.125,0.125,0.0,0.0,0.0
1696254780647,-1.0214844,0.10644531,-0.0068359375,0.03125,-0.3125,-0.0625,0.0,0.0,0.0
1696254780691,-1.0205078,0.11035156,-0.0029296875,-0.21875,-0.1875,0.0625,0.0,0.0,0.0
1696254780725,-1.0195312,0.115234375,0.0107421875,-0.3125,-0.125,0.0,0.0,0.0,0.0
1696254780770,-1.0292969,0.107421875,-0.0107421875,-0.21875,0.0,-0.0625,0.0,0.0,0.0
1696254780804,-1.0263672,0.119140625,-0.01171875,-0.15625,-0.0625,0.0,0.0,0.0,0.0
1696254780849,-1.015625,0.111328125,-0.015625,-0.09375,0.0,-0.125,0.0,0.0,0.0
1696254780895,-1.0205078,0.11035156,-0.00390625,0.03125,-0.0625,0.0,0.0,0.0,0.0
1696254780928,-1.0253906,0.11035156,0.0087890625,0.09375,-0.25,-0.125,0.0,0.0,0.0
1696254780973,-1.0175781,0.11425781,-0.0029296875,-0.21875,-0.1875,-0.125,0.0,0.0,0.0
1696254781007,-1.0175781,0.109375,0.001953125,-0.09375,-0.25,-0.375,0.0,0.0,0.0
1696254781052,-1.0175781,0.107421875,-0.0107421875,-0.21875,-0.53125,-0.375,-50.375,26.125,-240.625
1696254781085,-1.0205078,0.11621094,-0.009765625,-0.15625,-0.3125,-0.25,0.0,0.0,0.0
1696254781131,-1.0292969,0.11425781,-0.0048828125,-0.5625,-0.125,0.0,0.0,0.0,0.0
1696254781164,-1.0185547,0.10644531,-0.0107421875,-0.5625,0.0625,0.0,0.0,0.0,0.0
1696254781209,-1.0214844,0.12011719,0.009765625,-0.4375,-0.125,-0.25,0.0,0.0,0.0
1696254781254,-1.0195312,0.11035156,0.0107421875,-0.375,-0.25,-0.0625,0.0,0.0,0.0
1696254781288,-1.0195312,0.109375,0.0107421875,-0.09375,-0.25,0.0,0.0,0.0,0.0
1696254781333,-1.0253906,0.12011719,0.009765625,0.15625,-0.125,0.0625,0.0,0.0,0.0
1696254781368,-1.0214844,0.10546875,0.0126953125,0.28125,0.0,-0.0625,0.0,0.0,0.0
1696254781412,-1.0205078,0.107421875,-0.001953125,-0.03125,-0.1875,0.125,0.0,0.0,0.0
1696254781446,-1.0214844,0.11621094,-0.005859375,0.03125,-0.3125,-0.125,0.0,0.0,0.0
1696254781491,-1.0253906,0.115234375,0.01171875,-0.15625,-0.1875,-0.125,0.0,0.0,0.0
1696254781524,-1.0263672,0.11425781,0.00390625,-0.5625,-0.375,0.0625,-50.125,25.5625,-240.9375
1696254781569,-1.0234375,0.10449219,0.0078125,-0.25,0.0,-0.25,0.0,0.0,0.0
1696254781614,-1.0175781,0.109375,9.765625E-4,-0.75,-0.25,-0.125,0.0,0.0,0.0
1696254781648,-1.0205078,0.10839844,0.001953125,-0.625,-0.3125,-0.1875,0.0,0.0,0.0
1696254781693,-1.0263672,0.10839844,0.009765625,-0.21875,-0.125,-0.125,0.0,0.0,0.0
1696254781727,-1.0234375,0.10839844,-0.00390625,-0.15625,-0.375,0.0,0.0,0.0,0.0
1696254781772,-1.0195312,0.10449219,-0.0068359375,-0.25,-0.5,-0.25,0.0,0.0,0.0
1696254781805,-1.0283203,0.103515625,-0.001953125,0.15625,-0.53125,0.0,0.0,0.0,0.0
1696254781851,-1.0166016,0.107421875,-0.0107421875,0.46875,-0.59375,-0.25,0.0,0.0,0.0
1696254781884,-1.0195312,0.115234375,-0.0048828125,0.21875,-0.0625,-0.0625,0.0,0.0,0.0
1696254781930,-1.0244141,0.10839844,0.0048828125,-0.09375,-0.125,-0.125,0.0,0.0,0.0
1696254781974,-1.0302734,0.10644531,-0.00390625,-0.25,-0.3125,-0.125,0.0,0.0,0.0
1696254782008,-1.0185547,0.10253906,0.0029296875,-0.8125,-0.375,-0.1875,0.0,0.0,0.0
1696254782053,-1.0224609,0.11230469,0.0087890625,-0.4375,-0.125,-0.1875,-49.375,25.5625,-240.375
1696254782090,-1.0292969,0.1015625,9.765625E-4,-0.375,-0.53125,-0.0625,0.0,0.0,0.0
1696254782132,-1.0136719,0.111328125,0.013671875,-0.5625,-0.375,-0.125,0.0,0.0,0.0
1696254782165,-1.0244141,0.10839844,0.0029296875,-0.25,-0.0625,0.0,0.0,0.0,0.0
1696254782211,-1.0302734,0.10058594,-9.765625E-4,-0.03125,-0.3125,-0.1875,0.0,0.0,0.0
1696254782244,-1.0205078,0.10644531,0.01171875,-0.375,-0.4375,-0.1875,0.0,0.0,0.0
1696254782291,-1.0136719,0.109375,-0.00390625,-0.6875,-0.3125,-0.125,0.0,0.0,0.0
1696254782334,-1.0283203,0.11035156,0.013671875,0.09375,0.0625,-0.1875,0.0,0.0,0.0
1696254782368,-1.015625,0.11035156,0.0,-0.375,0.0,0.125,0.0,0.0,0.0
1696254782413,-1.0253906,0.10644531,-0.001953125,-0.25,-0.125,-0.1875,0.0,0.0,0.0
1696254782447,-1.015625,0.11230469,-0.00390625,-0.15625,-0.53125,-0.1875,0.0,0.0,0.0
1696254782492,-1.0214844,0.10546875,0.0126953125,-0.15625,0.0625,-0.0625,0.0,0.0,0.0
1696254782525,-1.0195312,0.111328125,0.005859375,0.15625,0.0,-0.125,-48.875,26.3125,-240.8125
1696254782571,-1.0292969,0.111328125,0.0068359375,0.09375,0.0625,-0.125,0.0,0.0,0.0
1696254782649,-1.0146484,0.10449219,-0.0126953125,0.03125,-0.1875,-0.0625,0.0,0.0,0.0
1696254782651,-1.0244141,0.11425781,-0.0146484375,-0.09375,-0.3125,0.0625,0.0,0.0,0.0
1696254782697,-1.015625,0.10449219,0.005859375,0.28125,-0.3125,-0.1875,0.0,0.0,0.0
1696254782728,-1.0253906,0.10546875,0.0107421875,0.03125,-0.125,-0.0625,0.0,0.0,0.0
1696254782773,-1.0185547,0.10839844,0.017578125,0.15625,0.125,0.0,0.0,0.0,0.0
1696254782807,-1.0244141,0.11621094,-0.0078125,-0.09375,0.0,0.25,0.0,0.0,0.0
1696254782852,-1.0214844,0.111328125,-0.0068359375,-0.09375,0.0625,0.125,0.0,0.0,0.0
1696254782886,-1.0205078,0.10644531,9.765625E-4,0.03125,-0.0625,0.125,0.0,0.0,0.0
1696254782930,-1.0136719,0.107421875,0.0,0.28125,-0.125,0.1875,0.0,0.0,0.0
1696254782964,-1.0244141,0.11230469,-0.001953125,-0.09375,0.0625,0.125,0.0,0.0,0.0
1696254783010,-1.0234375,0.12207031,0.0107421875,0.09375,0.0625,0.125,0.0,0.0,0.0
1696254783054,-1.0166016,0.11425781,-0.001953125,-0.3125,-0.25,0.0,-49.1875,25.6875,-241.5625
1696254783088,-1.0195312,0.103515625,0.0029296875,-0.21875,-0.125,-0.1875,0.0,0.0,0.0
1696254783133,-1.0146484,0.119140625,-0.00390625,-0.5,-0.0625,-0.0625,0.0,0.0,0.0
1696254783167,-1.0234375,0.11816406,0.0,-0.3125,-0.0625,-0.0625,0.0,0.0,0.0
1696254783211,-1.0234375,0.109375,0.0146484375,-0.3125,-0.1875,0.0,0.0,0.0,0.0
1696254783246,-1.0224609,0.11035156,9.765625E-4,-0.375,-0.25,-0.0625,0.0,0.0,0.0
1696254783294,-1.0195312,0.11035156,0.005859375,0.03125,-0.25,-0.1875,0.0,0.0,0.0
1696254783324,-1.0126953,0.10839844,-0.0078125,-0.09375,-0.1875,-0.0625,0.0,0.0,0.0
1696254783370,-1.0205078,0.10839844,9.765625E-4,-0.15625,-0.375,-0.125,0.0,0.0,0.0
1696254783414,-1.0244141,0.109375,0.001953125,0.09375,-0.1875,-0.0625,0.0,0.0,0.0
1696254783448,-1.0224609,0.115234375,0.0029296875,0.21875,-0.125,-0.25,0.0,0.0,0.0
1696254783493,-1.0195312,0.115234375,0.01171875,-0.15625,-0.375,0.0,0.0,0.0,0.0
1696254783527,-1.0322266,0.11035156,0.0146484375,-0.15625,-0.25,-0.375,-50.875,26.125,-240.625
1696254783572,-1.0175781,0.11035156,0.016601562,-0.375,-0.5,-0.1875,0.0,0.0,0.0
1696254783606,-1.0185547,0.11230469,0.020507812,-0.21875,-0.25,-0.1875,0.0,0.0,0.0
1696254783650,-1.0283203,0.10058594,9.765625E-4,-0.25,-0.3125,-0.25,0.0,0.0,0.0
1696254783684,-1.0146484,0.11425781,0.017578125,-0.09375,-0.4375,-0.375,0.0,0.0,0.0
1696254783729,-1.0283203,0.111328125,-0.0068359375,-0.15625,-0.3125,-0.1875,0.0,0.0,0.0
1696254783775,-1.0146484,0.10644531,0.016601562,-0.15625,-0.25,-0.0625,0.0,0.0,0.0
1696254783808,-1.0205078,0.10644531,0.0029296875,-0.15625,-0.375,-0.25,0.0,0.0,0.0
1696254783855,-1.0205078,0.109375,0.0126953125,-0.5625,-0.4375,-0.125,0.0,0.0,0.0
1696254783887,-1.0244141,0.10644531,0.009765625,-0.25,-0.25,-0.125,0.0,0.0,0.0
1696254783932,-1.0146484,0.107421875,-0.001953125,-0.03125,-0.0625,0.125,0.0,0.0,0.0
1696254783965,-1.015625,0.11230469,0.015625,-0.15625,-0.25,-0.1875,0.0,0.0,0.0
1696254784011,-1.0224609,0.11425781,0.015625,-0.4375,-0.5,-0.3125,0.0,0.0,0.0
1696254784067,-1.0126953,0.11230469,-0.0029296875,-0.25,-0.375,-0.0625,-50.375,26.125,-240.9375
1696254784089,-1.0253906,0.107421875,0.01171875,-0.09375,-0.375,0.0,0.0,0.0,0.0
1696254784134,-1.0195312,0.107421875,0.0,-0.21875,-0.25,0.0,0.0,0.0,0.0
1696254784168,-1.0205078,0.10449219,-0.0048828125,0.1875,-0.09375,0.03125,0.0,0.0,0.0
1696254784213,-1.0185547,0.10644531,0.0146484375,0.125,-0.125,0.15625,0.0,0.0,0.0
1696254784248,-1.0224609,0.103515625,0.01171875,0.0,-0.125,0.28125,0.0,0.0,0.0
1696254784291,-1.0146484,0.10449219,0.0107421875,0.0625,0.40625,0.15625,0.0,0.0,0.0
1696254784325,-1.0292969,0.09863281,0.0068359375,0.1875,0.46875,0.375,0.0,0.0,0.0
1696254784371,-1.0263672,0.111328125,0.013671875,0.0,0.53125,0.3125,0.0,0.0,0.0
1696254784404,-1.0244141,0.099609375,-0.0029296875,0.0625,0.53125,0.5625,0.0,0.0,0.0
1696254784449,-1.0263672,0.103515625,0.0126953125,0.0,0.28125,0.28125,0.0,0.0,0.0
1696254784494,-1.0263672,0.09863281,0.0068359375,0.0625,0.15625,0.03125,0.0,0.0,0.0
1696254784528,-1.0185547,0.099609375,0.013671875,0.1875,0.21875,0.09375,-50.375,25.0625,-241.25
1696254784573,-1.0195312,0.107421875,0.0146484375,0.125,0.65625,0.15625,0.0,0.0,0.0
1696254784607,-1.0146484,0.10839844,0.0078125,0.0625,0.34375,0.15625,0.0,0.0,0.0
1696254784654,-1.0224609,0.111328125,-9.765625E-4,-0.1875,0.34375,-0.03125,0.0,0.0,0.0
1696254784685,-1.0253906,0.11035156,0.005859375,-0.65625,0.03125,0.28125,0.0,0.0,0.0
1696254784730,-1.0166016,0.11230469,0.0,-0.25,-0.125,0.375,0.0,0.0,0.0
1696254784765,-1.0224609,0.10253906,0.0048828125,0.1875,0.59375,0.09375,0.0,0.0,0.0
1696254784809,-1.0214844,0.123046875,0.0107421875,0.375,0.28125,0.21875,0.0,0.0,0.0
1696254784854,-1.0283203,0.10839844,0.001953125,-0.25,-0.03125,-0.09375,0.0,0.0,0.0
1696254784888,-1.0253906,0.10253906,0.0,-0.4375,-0.125,0.09375,0.0,0.0,0.0
1696254784933,-1.0283203,0.103515625,0.0068359375,0.1875,0.09375,0.15625,0.0,0.0,0.0
1696254784967,-1.0195312,0.109375,-0.0078125,0.125,0.03125,0.03125,0.0,0.0,0.0
1696254785011,-1.0214844,0.10839844,0.0126953125,0.3125,0.03125,0.15625,0.0,0.0,0.0
1696254785046,-1.0205078,0.10058594,0.0146484375,0.5625,0.28125,0.15625,-49.375,24.3125,-241.25
1696254785091,-1.0224609,0.1015625,-9.765625E-4,0.25,0.03125,-0.03125,0.0,0.0,0.0
1696254785124,-1.0185547,0.109375,0.018554688,0.0625,0.03125,-0.03125,0.0,0.0,0.0
1696254785169,-1.0234375,0.107421875,0.0146484375,0.0625,0.28125,0.09375,0.0,0.0,0.0
1696254785214,-1.0205078,0.109375,0.0,0.3125,0.28125,0.15625,0.0,0.0,0.0
1696254785248,-1.0292969,0.1171875,-9.765625E-4,0.125,0.34375,0.28125,0.0,0.0,0.0
1696254785293,-1.0263672,0.11230469,0.0048828125,0.0,0.34375,0.03125,0.0,0.0,0.0
1696254785327,-1.0214844,0.107421875,0.0078125,-0.46875,-0.03125,0.21875,0.0,0.0,0.0
1696254785372,-1.0185547,0.10058594,-0.0029296875,-0.59375,0.03125,-0.15625,0.0,0.0,0.0
1696254785405,-1.0195312,0.11425781,0.0126953125,-0.65625,0.15625,0.28125,0.0,0.0,0.0
1696254785451,-1.0185547,0.10644531,-0.00390625,-0.375,0.09375,0.21875,0.0,0.0,0.0
1696254785485,-1.0107422,0.111328125,0.0146484375,0.0,-0.03125,0.03125,0.0,0.0,0.0
1696254785530,-1.0244141,0.119140625,0.005859375,0.1875,-0.03125,0.15625,-49.9375,26.75,-240.8125
1696254785596,-1.0224609,0.10449219,0.0048828125,0.3125,0.03125,0.09375,0.0,0.0,0.0
1696254785608,-1.0273438,0.1171875,0.0126953125,0.0,0.09375,0.03125,0.0,0.0,0.0
1696254785653,-1.0253906,0.10644531,0.016601562,-0.0625,-0.09375,-0.03125,0.0,0.0,0.0
1696254785687,-1.0253906,0.11621094,0.0146484375,0.125,-0.125,-0.03125,0.0,0.0,0.0
1696254785732,-1.0214844,0.10546875,0.0146484375,0.0,-0.375,-0.09375,0.0,0.0,0.0
1696254785766,-1.0175781,0.1171875,0.0078125,-0.53125,-0.09375,-0.09375,0.0,0.0,0.0
1696254785810,-1.0146484,0.111328125,0.01171875,-0.65625,-0.1875,0.03125,0.0,0.0,0.0
1696254785844,-1.0253906,0.11035156,0.016601562,-0.0625,-0.09375,-0.03125,0.0,0.0,0.0
1696254785889,-1.0234375,0.10449219,0.0087890625,-0.25,0.34375,-0.09375,0.0,0.0,0.0
1696254785934,-1.0234375,0.10058594,0.0078125,0.0,-0.03125,-0.15625,0.0,0.0,0.0
1696254785968,-1.0166016,0.103515625,0.0078125,-0.0625,-0.375,-0.03125,0.0,0.0,0.0
1696254786013,-1.0283203,0.09863281,0.0068359375,0.0,0.09375,-0.34375,0.0,0.0,0.0
1696254786047,-1.0214844,0.11425781,0.009765625,-0.375,-0.125,-0.34375,-51.125,26.125,-240.625
1696254786096,-1.0253906,0.111328125,0.0068359375,-0.46875,-0.3125,-0.21875,0.0,0.0,0.0
1696254786125,-1.0214844,0.10839844,0.01953125,-0.59375,-0.3125,-0.40625,0.0,0.0,0.0
1696254786170,-1.0224609,0.10839844,0.029296875,-0.53125,-0.03125,-0.03125,0.0,0.0,0.0
1696254786204,-1.0175781,0.10449219,0.013671875,-0.3125,0.34375,0.15625,0.0,0.0,0.0
1696254786252,-1.0205078,0.10546875,0.0078125,-0.125,0.09375,-0.03125,0.0,0.0,0.0
1696254786294,-1.0234375,0.10644531,0.001953125,-0.375,-0.09375,-0.15625,0.0,0.0,0.0
1696254786328,-1.0244141,0.103515625,0.01171875,0.1875,0.03125,0.03125,0.0,0.0,0.0
1696254786373,-1.0195312,0.10058594,0.022460938,0.3125,-0.03125,0.21875,0.0,0.0,0.0
1696254786407,-1.015625,0.095703125,0.01171875,0.0625,0.15625,-0.03125,0.0,0.0,0.0
1696254786452,-1.0117188,0.11035156,0.01953125,-0.0625,0.15625,0.09375,0.0,0.0,0.0
1696254786486,-1.0185547,0.09667969,0.0146484375,0.25,0.28125,-0.15625,0.0,0.0,0.0
1696254786530,-1.0292969,0.109375,0.021484375,-0.3125,0.15625,0.3125,-50.125,26.5625,-241.25
1696254786564,-1.0205078,0.10644531,0.016601562,-0.3125,0.28125,0.21875,0.0,0.0,0.0
1696254786609,-1.0234375,0.11230469,0.00390625,0.0625,0.21875,0.09375,0.0,0.0,0.0
1696254786654,-1.0175781,0.107421875,0.01953125,0.1875,0.34375,0.03125,0.0,0.0,0.0
1696254786688,-1.0166016,0.111328125,0.028320312,0.3125,0.21875,0.09375,0.0,0.0,0.0
1696254786733,-1.0234375,0.10839844,0.0029296875,0.375,0.46875,0.15625,0.0,0.0,0.0
1696254786767,-1.0214844,0.10449219,0.0087890625,0.25,0.65625,-0.03125,0.0,0.0,0.0
1696254786812,-1.0244141,0.103515625,9.765625E-4,0.375,0.40625,0.28125,0.0,0.0,0.0
1696254786846,-1.0244141,0.103515625,0.0146484375,0.0625,0.40625,0.21875,0.0,0.0,0.0
1696254786891,-1.0205078,0.11328125,0.015625,-0.125,0.15625,-0.03125,0.0,0.0,0.0
1696254786930,-1.0195312,0.10644531,0.0126953125,-0.3125,0.15625,0.15625,0.0,0.0,0.0
1696254786969,-1.0244141,0.10546875,0.0029296875,-0.125,0.21875,0.21875,0.0,0.0,0.0
1696254787014,-1.0214844,0.09863281,-9.765625E-4,-0.3125,0.34375,0.15625,0.0,0.0,0.0
1696254787048,-1.015625,0.11621094,0.015625,-0.25,0.40625,0.15625,-51.4375,25.5625,-240.9375
1696254787115,-1.0166016,0.10644531,0.0048828125,-0.1875,0.34375,0.21875,0.0,0.0,0.0
1696254787127,-1.0214844,0.10449219,0.0068359375,0.0,0.28125,0.3125,0.0,0.0,0.0
1696254787172,-1.0185547,0.107421875,0.0107421875,0.25,0.40625,0.21875,0.0,0.0,0.0
1696254787208,-1.0214844,0.111328125,0.01171875,0.125,0.09375,0.21875,0.0,0.0,0.0
1696254787251,-1.0234375,0.111328125,0.0048828125,0.25,-0.09375,0.4375,0.0,0.0,0.0
1696254787284,-1.0244141,0.10644531,-9.765625E-4,0.3125,0.53125,0.3125,0.0,0.0,0.0
1696254787329,-1.0244141,0.107421875,0.009765625,0.5,0.40625,0.21875,0.0,0.0,0.0
1696254787408,-1.0185547,0.10449219,0.016601562,0.0625,0.15625,0.21875,0.0,0.0,0.0
1696254787410,-1.0205078,0.107421875,0.0107421875,0.0,0.09375,0.09375,0.0,0.0,0.0
1696254787458,-1.0273438,0.111328125,0.01171875,0.0,0.28125,0.21875,0.0,0.0,0.0
1696254787487,-1.0175781,0.10839844,0.0068359375,0.25,0.15625,0.3125,0.0,0.0,0.0
1696254787532,-1.0292969,0.099609375,0.009765625,0.375,0.09375,0.09375,-50.5625,25.25,-240.0625
1696254787565,-1.0175781,0.107421875,0.03125,1.03125,0.21875,-0.03125,0.0,0.0,0.0
1696254787612,-1.0253906,0.11230469,0.021484375,0.75,0.28125,0.28125,0.0,0.0,0.0
1696254787655,-1.0166016,0.11816406,0.0078125,0.125,0.09375,0.28125,0.0,0.0,0.0
1696254787689,-1.0185547,0.11035156,0.0078125,-0.25,0.34375,0.15625,0.0,0.0,0.0
1696254787734,-1.0205078,0.115234375,0.0107421875,-0.71875,0.28125,-0.03125,0.0,0.0,0.0
1696254787768,-1.0205078,0.111328125,0.0087890625,-0.71875,0.21875,0.21875,0.0,0.0,0.0
1696254787813,-1.0263672,0.103515625,0.026367188,-0.46875,0.34375,0.09375,0.0,0.0,0.0
1696254787847,-1.0146484,0.103515625,0.0087890625,0.125,0.40625,0.09375,0.0,0.0,0.0
1696254787892,-1.0166016,0.10839844,0.020507812,0.5,0.21875,0.15625,0.0,0.0,0.0
1696254787925,-1.015625,0.099609375,0.0078125,0.4375,0.15625,0.09375,0.0,0.0,0.0
1696254787970,-1.0224609,0.11035156,0.0107421875,0.1875,0.28125,0.21875,0.0,0.0,0.0
1696254788016,-1.0292969,0.10644531,0.0078125,0.25,0.46875,0.15625,0.0,0.0,0.0
1696254788049,-1.0224609,0.11035156,0.013671875,0.0,0.15625,0.03125,-51.0,27.5,-240.0625
1696254788094,-1.0185547,0.11230469,0.0068359375,0.125,0.34375,0.09375,0.0,0.0,0.0
1696254788128,-1.0332031,0.10546875,0.01171875,0.375,0.28125,0.09375,0.0,0.0,0.0
1696254788173,-1.0263672,0.109375,0.013671875,0.5625,0.09375,0.09375,0.0,0.0,0.0
1696254788207,-1.0195312,0.115234375,0.005859375,0.5625,0.34375,0.21875,0.0,0.0,0.0
1696254788252,-1.0234375,0.09863281,0.01171875,0.5,0.09375,0.03125,0.0,0.0,0.0
1696254788286,-1.0283203,0.1171875,0.0146484375,0.375,0.34375,0.15625,0.0,0.0,0.0
1696254788331,-1.0253906,0.119140625,9.765625E-4,0.125,0.34375,0.15625,0.0,0.0,0.0
1696254788387,-1.0097656,0.111328125,0.0,0.1875,0.15625,0.15625,0.0,0.0,0.0
1696254788415,-1.0283203,0.11425781,0.016601562,0.0625,0.21875,0.03125,0.0,0.0,0.0
1696254788454,-1.0214844,0.10644531,0.0107421875,0.0,0.15625,0.09375,0.0,0.0,0.0
1696254788488,-1.0234375,0.10839844,0.0107421875,0.1875,0.28125,0.03125,0.0,0.0,0.0
1696254788533,-1.0253906,0.10253906,0.0,-0.0625,0.15625,0.09375,-51.0,25.6875,-240.8125
1696254788566,-1.0234375,0.10839844,0.0087890625,-0.3125,0.15625,0.03125,0.0,0.0,0.0
1696254788612,-1.0253906,0.11230469,0.013671875,0.25,0.21875,0.09375,0.0,0.0,0.0
1696254788645,-1.0166016,0.115234375,0.013671875,-0.25,-0.09375,-0.03125,0.0,0.0,0.0
1696254788691,-1.0146484,0.11425781,0.005859375,-0.1875,0.03125,-0.03125,0.0,0.0,0.0
1696254788736,-1.0234375,0.10253906,0.009765625,-0.3125,0.15625,0.09375,0.0,0.0,0.0
1696254788769,-1.0185547,0.111328125,0.015625,-0.375,0.09375,0.09375,0.0,0.0,0.0
1696254788814,-1.0244141,0.103515625,0.005859375,-0.1875,0.09375,0.03125,0.0,0.0,0.0
1696254788848,-1.0234375,0.11230469,9.765625E-4,0.0,0.09375,-0.03125,0.0,0.0,0.0
1696254788893,-1.0244141,0.111328125,-0.001953125,0.1875,0.03125,-0.15625,0.0,0.0,0.0
1696254788927,-1.0126953,0.10839844,0.018554688,0.25,-0.03125,0.03125,0.0,0.0,0.0
1696254788972,-1.0273438,0.099609375,0.0087890625,0.25,0.34375,0.09375,0.0,0.0,0.0
1696254789005,-1.0214844,0.10058594,0.009765625,0.125,0.40625,0.09375,0.0,0.0,0.0
1696254789051,-1.0253906,0.109375,0.0126953125,0.25,0.40625,0.15625,-51.0,27.0625,-240.8125
1696254789096,-1.0214844,0.1171875,0.009765625,-0.125,0.09375,0.09375,0.0,0.0,0.0
1696254789129,-1.0302734,0.099609375,0.0078125,-0.0625,0.09375,0.15625,0.0,0.0,0.0
1696254789174,-1.0224609,0.10546875,0.017578125,-0.125,0.15625,0.03125,0.0,0.0,0.0
1696254789208,-1.0263672,0.11425781,0.001953125,0.1875,0.21875,0.03125,0.0,0.0,0.0
1696254789253,-1.0214844,0.107421875,0.009765625,0.125,0.09375,0.03125,0.0,0.0,0.0
1696254789287,-1.0214844,0.10449219,0.0029296875,0.0625,0.15625,-0.03125,0.0,0.0,0.0
1696254789335,-1.0253906,0.109375,0.021484375,0.0625,0.21875,0.03125,0.0,0.0,0.0
1696254789366,-1.0244141,0.11035156,0.0087890625,-0.28125,-0.15625,0.0,0.0,0.0,0.0
1696254789413,-1.0205078,0.111328125,0.0068359375,-0.46875,0.03125,0.0,0.0,0.0,0.0
1696254789455,-1.0273438,0.10839844,0.01171875,-0.40625,0.15625,0.1875,0.0,0.0,0.0
1696254789489,-1.0214844,0.10253906,0.005859375,-0.21875,0.15625,0.0,0.0,0.0,0.0
1696254789568,-1.0166016,0.107421875,0.015625,0.09375,-0.03125,0.0,-49.9375,25.6875,-240.0625
1696254789570,-1.015625,0.103515625,0.0087890625,0.09375,0.09375,0.0,0.0,0.0,0.0
1696254789613,-1.0166016,0.111328125,0.0087890625,0.03125,-0.09375,-0.0625,0.0,0.0,0.0
1696254789647,-1.0244141,0.103515625,-0.0048828125,-0.09375,-0.03125,0.0625,0.0,0.0,0.0
1696254789695,-1.0175781,0.10839844,0.01171875,0.21875,0.21875,0.0,0.0,0.0,0.0
1696254789725,-1.0195312,0.107421875,-0.005859375,-0.21875,0.03125,0.125,0.0,0.0,0.0
1696254789771,-1.0146484,0.1171875,9.765625E-4,-0.03125,-0.21875,0.125,0.0,0.0,0.0
1696254789816,-1.0224609,0.10839844,0.001953125,0.03125,0.09375,0.0,0.0,0.0,0.0
1696254789849,-1.0146484,0.11425781,0.0126953125,-0.21875,-0.09375,0.0,0.0,0.0,0.0
1696254789928,-1.0283203,0.11230469,0.00390625,-0.21875,-0.09375,0.0,0.0,0.0,0.0
1696254789929,-1.0234375,0.099609375,-9.765625E-4,0.03125,-0.09375,0.3125,0.0,0.0,0.0
1696254789973,-1.0214844,0.10839844,0.0087890625,-0.34375,0.03125,0.125,0.0,0.0,0.0
1696254790007,-1.0195312,0.109375,0.015625,-0.03125,0.03125,0.0625,0.0,0.0,0.0
1696254790052,-1.0234375,0.10253906,0.005859375,-0.15625,-0.03125,0.0625,-50.875,26.875,-239.625
1696254790085,-1.0146484,0.109375,0.0,-0.03125,-0.03125,0.0625,0.0,0.0,0.0
1696254790131,-1.0214844,0.109375,-0.00390625,-0.03125,-0.09375,0.0,0.0,0.0,0.0
1696254790175,-1.0224609,0.115234375,0.0078125,-0.03125,-0.09375,0.25,0.0,0.0,0.0
1696254790209,-1.0117188,0.10546875,-0.00390625,-0.03125,0.09375,0.0,0.0,0.0,0.0
1696254790254,-1.0166016,0.11230469,0.024414062,-0.09375,-0.09375,0.0,0.0,0.0,0.0
1696254790288,-1.0302734,0.11035156,0.0146484375,-0.03125,-0.21875,0.0,0.0,0.0,0.0
1696254790333,-1.0166016,0.11035156,0.01171875,0.09375,-0.15625,-0.21875,0.0,0.0,0.0
1696254790367,-1.0253906,0.109375,0.0,-0.03125,0.15625,0.1875,0.0,0.0,0.0
1696254790412,-1.0283203,0.11425781,0.015625,0.09375,0.15625,0.0,0.0,0.0,0.0
1696254790445,-1.0175781,0.109375,0.0068359375,-0.09375,-0.21875,0.0,0.0,0.0,0.0
1696254790490,-1.0126953,0.10546875,0.00390625,-0.59375,-0.21875,-0.09375,0.0,0.0,0.0
1696254790536,-1.0253906,0.10644531,0.01171875,-0.6875,-0.03125,0.0,-52.1875,25.8125,-239.875
1696254790569,-1.0214844,0.10253906,0.0107421875,0.09375,-0.03125,0.0625,0.0,0.0,0.0
1696254790614,-1.0214844,0.11035156,0.001953125,0.09375,-0.03125,-0.09375,0.0,0.0,0.0
1696254790648,-1.0244141,0.10253906,0.0048828125,-0.09375,-0.21875,-0.15625,0.0,0.0,0.0
1696254790693,-1.0273438,0.11035156,0.0068359375,0.09375,-0.09375,-0.21875,0.0,0.0,0.0
1696254790727,-1.0205078,0.111328125,0.015625,0.03125,-0.09375,0.0,0.0,0.0,0.0
1696254790772,-1.0175781,0.10839844,0.036132812,-0.28125,-0.03125,0.0,0.0,0.0,0.0
1696254790805,-1.0214844,0.10644531,0.021484375,0.09375,0.09375,-0.0625,0.0,0.0,0.0
1696254790851,-1.0244141,0.11425781,0.0107421875,-0.03125,0.03125,0.0,0.0,0.0,0.0
1696254790906,-1.0214844,0.103515625,0.00390625,-0.34375,-0.03125,-0.0625,0.0,0.0,0.0
1696254790929,-1.0224609,0.11230469,0.013671875,-0.03125,0.15625,0.0625,0.0,0.0,0.0
1696254790974,-1.0205078,0.10253906,0.00390625,-0.15625,-0.03125,0.0,0.0,0.0,0.0
1696254791008,-1.0224609,0.10839844,0.015625,-0.40625,-0.21875,-0.09375,0.0,0.0,0.0
1696254791053,-1.0234375,0.10449219,0.0087890625,0.03125,-0.03125,-0.09375,-50.875,26.125,-239.875
1696254791087,-1.0234375,0.10839844,0.0146484375,0.21875,-0.28125,0.0625,0.0,0.0,0.0
1696254791132,-1.0292969,0.10449219,0.0,-0.21875,-0.09375,0.0,0.0,0.0,0.0
1696254791165,-1.0185547,0.11425781,0.01953125,-0.15625,-0.09375,0.0625,0.0,0.0,0.0
1696254791210,-1.0146484,0.109375,0.015625,-0.46875,-0.34375,0.0,0.0,0.0,0.0
1696254791255,-1.0283203,0.10644531,0.00390625,-0.34375,-0.09375,-0.09375,0.0,0.0,0.0
1696254791290,-1.0244141,0.11425781,0.028320312,-0.28125,-0.28125,0.0,0.0,0.0,0.0
1696254791341,-1.0126953,0.11425781,0.01171875,-0.03125,-0.09375,0.0,0.0,0.0,0.0
1696254791370,-1.0205078,0.10253906,0.0,-0.15625,-0.03125,-0.0625,0.0,0.0,0.0
1696254791413,-1.0214844,0.10253906,-9.765625E-4,-0.09375,-0.15625,0.0625,0.0,0.0,0.0
1696254791448,-1.0175781,0.109375,0.0048828125,-0.28125,-0.09375,-0.09375,0.0,0.0,0.0
1696254791492,-1.0234375,0.103515625,0.0107421875,-0.21875,-0.21875,0.0,0.0,0.0,0.0
1696254791525,-1.0244141,0.109375,9.765625E-4,0.15625,0.09375,0.0625,-49.1875,26.0,-240.5
1696254791577,-1.0097656,0.107421875,0.005859375,-0.09375,-0.03125,-0.15625,0.0,0.0,0.0
1696254791615,-1.0292969,0.11035156,0.016601562,-0.03125,-0.21875,-0.09375,0.0,0.0,0.0
1696254791649,-1.0107422,0.111328125,0.0146484375,0.03125,0.09375,0.125,0.0,0.0,0.0
1696254791694,-1.0175781,0.107421875,0.001953125,-0.15625,0.09375,0.0,0.0,0.0,0.0
1696254791728,-1.0146484,0.10839844,0.017578125,-0.34375,-0.28125,-0.15625,0.0,0.0,0.0
1696254791773,-1.0263672,0.11035156,0.00390625,-0.15625,-0.15625,-0.21875,0.0,0.0,0.0
1696254791807,-1.0195312,0.10839844,0.0029296875,0.03125,0.03125,0.0,0.0,0.0,0.0
1696254791852,-1.0322266,0.11035156,0.01171875,-0.09375,-0.15625,-0.09375,0.0,0.0,0.0
1696254791887,-1.0185547,0.10546875,0.0087890625,0.15625,0.03125,0.0,0.0,0.0,0.0
1696254791931,-1.015625,0.10644531,0.009765625,-0.03125,0.03125,-0.15625,0.0,0.0,0.0
1696254791976,-1.0283203,0.11425781,0.015625,-0.09375,-0.03125,-0.0625,0.0,0.0,0.0
1696254792009,-1.0185547,0.10546875,0.0234375,-0.09375,-0.09375,0.03125,0.0,0.0,0.0
1696254792055,-1.0166016,0.10253906,-0.0068359375,0.0,-0.09375,-0.09375,-50.25,25.6875,-239.75
1696254792088,-1.0214844,0.10546875,0.01953125,0.125,0.09375,-0.15625,0.0,0.0,0.0
1696254792133,-1.0302734,0.109375,0.009765625,0.1875,-0.15625,-0.09375,0.0,0.0,0.0
1696254792167,-1.0234375,0.11621094,0.024414062,0.5,0.03125,-0.15625,0.0,0.0,0.0
1696254792212,-1.0175781,0.10644531,0.00390625,-0.03125,-0.09375,-0.03125,0.0,0.0,0.0
1696254792247,-1.0146484,0.109375,0.016601562,0.125,0.34375,0.03125,0.0,0.0,0.0
1696254792291,-1.0273438,0.111328125,0.0087890625,-0.15625,0.15625,0.03125,0.0,0.0,0.0
1696254792336,-1.0292969,0.107421875,0.00390625,-0.34375,-0.03125,-0.03125,0.0,0.0,0.0
1696254792381,-1.0283203,0.11035156,0.0087890625,-0.09375,-0.03125,-0.09375,0.0,0.0,0.0
1696254792437,-1.0244141,0.10839844,0.0068359375,0.0625,0.09375,-0.03125,0.0,0.0,0.0
1696254792448,-1.0263672,0.10546875,0.0126953125,0.4375,0.21875,0.09375,0.0,0.0,0.0
1696254792493,-1.0253906,0.107421875,-0.009765625,0.375,-0.03125,-0.15625,0.0,0.0,0.0
1696254792527,-1.0234375,0.11230469,0.033203125,-0.03125,-0.15625,-0.03125,-51.3125,27.5,-241.125
1696254792572,-1.0195312,0.11230469,0.0078125,0.0625,0.09375,-0.03125,0.0,0.0,0.0
1696254792605,-1.0205078,0.09863281,0.001953125,0.1875,0.03125,0.03125,0.0,0.0,0.0
1696254792651,-1.0263672,0.10839844,0.022460938,0.0,0.09375,-0.03125,0.0,0.0,0.0
1696254792695,-1.0185547,0.10058594,0.0048828125,0.1875,0.09375,-0.03125,0.0,0.0,0.0
1696254792729,-1.0234375,0.10546875,0.01171875,0.25,0.21875,0.03125,0.0,0.0,0.0
1696254792774,-1.0224609,0.1015625,0.0048828125,0.5625,0.28125,0.15625,0.0,0.0,0.0
1696254792808,-1.0117188,0.111328125,0.013671875,0.4375,0.09375,-0.09375,0.0,0.0,0.0
1696254792853,-1.0195312,0.11328125,0.0078125,0.25,-0.03125,-0.03125,0.0,0.0,0.0
1696254792887,-1.0253906,0.10449219,0.0078125,0.0625,0.21875,0.15625,0.0,0.0,0.0
1696254792932,-1.0195312,0.11230469,0.015625,0.1875,0.34375,0.15625,0.0,0.0,0.0
1696254792965,-1.0195312,0.11035156,0.005859375,-0.03125,0.15625,0.09375,0.0,0.0,0.0
1696254793012,-1.0244141,0.103515625,0.0068359375,-0.28125,-0.03125,-0.09375,0.0,0.0,0.0
1696254793055,-1.0224609,0.103515625,0.0,0.0625,0.15625,0.09375,-50.375,24.8125,-240.9375
1696254793089,-1.0283203,0.10839844,-0.0029296875,-0.21875,-0.03125,0.03125,0.0,0.0,0.0
1696254793136,-1.0234375,0.123046875,0.0,-0.09375,-0.03125,0.15625,0.0,0.0,0.0
1696254793167,-1.0224609,0.11230469,0.017578125,-0.09375,0.15625,0.09375,0.0,0.0,0.0
1696254793213,-1.0253906,0.107421875,0.0078125,-0.09375,-0.03125,0.15625,0.0,0.0,0.0
1696254793247,-1.0244141,0.1015625,0.0078125,-0.28125,-0.15625,0.15625,0.0,0.0,0.0
1696254793303,-1.0244141,0.10644531,0.016601562,0.4375,0.03125,0.03125,0.0,0.0,0.0
1696254793371,-1.0322266,0.12207031,0.0078125,0.5625,-0.34375,0.03125,0.0,0.0,0.0
1696254793372,-1.0244141,0.11328125,0.021484375,0.1875,-0.28125,0.03125,0.0,0.0,0.0
1696254793415,-1.015625,0.11816406,0.0068359375,0.375,0.09375,-0.03125,0.0,0.0,0.0
1696254793449,-1.0185547,0.12109375,0.01171875,0.4375,-0.03125,0.03125,0.0,0.0,0.0
1696254793494,-1.0224609,0.10839844,0.013671875,0.0,-0.15625,0.21875,0.0,0.0,0.0
1696254793529,-1.0224609,0.10058594,0.0126953125,0.125,-0.09375,0.34375,-50.25,26.0,-241.875
1696254793573,-1.0234375,0.11035156,0.015625,0.9375,0.21875,0.09375,0.0,0.0,0.0
1696254793607,-1.03125,0.11035156,0.0146484375,0.8125,0.03125,0.03125,0.0,0.0,0.0
1696254793652,-1.0214844,0.111328125,0.009765625,0.5625,-0.46875,0.09375,0.0,0.0,0.0
1696254793685,-1.0166016,0.10253906,0.017578125,0.375,-0.03125,-0.03125,0.0,0.0,0.0
1696254793731,-1.0224609,0.10839844,0.0048828125,0.0625,0.09375,0.03125,0.0,0.0,0.0
1696254793776,-1.0205078,0.103515625,0.015625,-0.03125,0.09375,0.21875,0.0,0.0,0.0
1696254793809,-1.0292969,0.10253906,0.0087890625,0.25,-0.03125,0.09375,0.0,0.0,0.0
1696254793854,-1.0195312,0.10839844,0.01171875,0.3125,0.15625,-0.28125,0.0,0.0,0.0
1696254793888,-1.0244141,0.10839844,0.022460938,-0.15625,0.09375,-0.15625,0.0,0.0,0.0
1696254793956,-1.0224609,0.11621094,0.01171875,-0.40625,-0.09375,-0.15625,0.0,0.0,0.0
1696254793967,-1.0214844,0.11230469,0.021484375,0.0,-0.03125,0.03125,0.0,0.0,0.0
1696254794012,-1.0234375,0.09863281,0.01171875,-0.28125,0.09375,-0.15625,0.0,0.0,0.0
1696254794091,-1.0205078,0.115234375,0.0048828125,-0.09375,-0.15625,-0.09375,-51.3125,27.0625,-240.5
1696254794092,-1.0195312,0.11230469,9.765625E-4,-0.28125,-0.34375,-0.09375,0.0,0.0,0.0
1696254794135,-1.0195312,0.10644531,0.0146484375,-0.09375,-0.03125,-0.09375,0.0,0.0,0.0
1696254794169,-1.0224609,0.11425781,0.0126953125,-0.15625,0.09375,-0.09375,0.0,0.0,0.0
1696254794214,-1.0253906,0.10449219,-9.765625E-4,-0.28125,-0.28125,-0.15625,0.0,0.0,0.0
1696254794248,-1.0195312,0.09375,0.016601562,-0.53125,-0.09375,-0.15625,0.0,0.0,0.0
1696254794293,-1.0166016,0.10839844,0.016601562,-0.15625,-0.03125,-0.28125,0.0,0.0,0.0
1696254794327,-1.0117188,0.09667969,0.0078125,0.125,-0.09375,-0.21875,0.0,0.0,0.0
1696254794372,-1.0224609,0.10058594,0.01171875,0.3125,-0.15625,-0.21875,0.0,0.0,0.0
1696254794405,-1.0224609,0.09765625,0.0068359375,0.3125,-0.46875,-0.15625,0.0,0.0,0.0
1696254794452,-1.0214844,0.10546875,0.018554688,0.0,-0.28125,-0.21875,0.0,0.0,0.0
1696254794495,-1.0205078,0.107421875,0.0107421875,0.25,-0.15625,-0.15625,0.0,0.0,0.0
1696254794529,-1.0175781,0.10546875,0.0,0.125,-0.15625,-0.15625,-50.25,25.25,-239.4375
1696254794574,-1.0224609,0.10449219,0.016601562,-0.03125,-0.15625,-0.15625,0.0,0.0,0.0
1696254794608,-1.0175781,0.103515625,0.024414062,0.125,-0.09375,-0.03125,0.0,0.0,0.0
1696254794653,-1.0136719,0.10644531,0.01171875,-0.09375,-0.03125,-0.15625,0.0,0.0,0.0
1696254794687,-1.0166016,0.10253906,0.01171875,-0.03125,-0.09375,-0.09375,0.0,0.0,0.0
1696254794732,-1.0097656,0.10449219,0.01171875,0.0,-0.09375,-0.09375,0.0,0.0,0.0
1696254794765,-1.0185547,0.10058594,0.005859375,-0.15625,-0.03125,-0.21875,0.0,0.0,0.0
1696254794810,-1.0253906,0.11035156,0.00390625,-0.34375,-0.21875,-0.15625,0.0,0.0,0.0
1696254794855,-1.0234375,0.09765625,0.01171875,-0.34375,-0.53125,-0.34375,0.0,0.0,0.0
1696254794889,-1.0263672,0.10449219,0.020507812,-0.15625,-0.34375,-0.15625,0.0,0.0,0.0
1696254794934,-1.0263672,0.10644531,0.0087890625,-0.09375,-0.21875,-0.15625,0.0,0.0,0.0
1696254794968,-1.0273438,0.10058594,0.018554688,0.0625,-0.09375,-0.15625,0.0,0.0,0.0
1696254795013,-1.0195312,0.107421875,0.0126953125,-0.28125,-0.28125,-0.21875,0.0,0.0,0.0
1696254795047,-1.0117188,0.10449219,0.0126953125,0.0,-0.34375,-0.34375,-49.375,26.125,-239.875
1696254795092,-1.0205078,0.11035156,0.015625,0.0,-0.21875,-0.09375,0.0,0.0,0.0
1696254795125,-1.0283203,0.103515625,0.029296875,0.0,-0.09375,-0.28125,0.0,0.0,0.0
1696254795171,-1.0234375,0.09765625,0.0146484375,-0.09375,-0.34375,-0.28125,0.0,0.0,0.0
1696254795215,-1.0195312,0.103515625,-0.001953125,-0.09375,-0.53125,-0.21875,0.0,0.0,0.0
1696254795249,-1.0166016,0.103515625,-0.001953125,0.0,-0.21875,-0.34375,0.0,0.0,0.0
1696254795294,-1.0136719,0.10449219,0.025390625,0.125,-0.03125,0.03125,0.0,0.0,0.0
1696254795331,-1.0234375,0.099609375,0.0078125,-0.03125,0.15625,-0.09375,0.0,0.0,0.0
1696254795373,-1.0253906,0.10449219,0.016601562,-0.15625,-0.09375,-0.15625,0.0,0.0,0.0
1696254795407,-1.0253906,0.103515625,0.021484375,-0.03125,-0.15625,-0.09375,0.0,0.0,0.0
1696254795451,-1.0244141,0.10058594,0.013671875,0.375,0.03125,-0.15625,0.0,0.0,0.0
1696254795487,-1.0205078,0.1015625,0.0126953125,0.1875,-0.03125,-0.21875,0.0,0.0,0.0
1696254795530,-1.0166016,0.09667969,0.013671875,0.125,-0.03125,0.03125,-49.9375,26.75,-239.4375
1696254795575,-1.0302734,0.09765625,0.0107421875,0.5625,0.21875,0.21875,0.0,0.0,0.0
1696254795609,-1.0263672,0.107421875,0.0146484375,0.5,0.40625,0.09375,0.0,0.0,0.0
1696254795654,-1.0244141,0.10644531,0.026367188,0.3125,0.21875,0.03125,0.0,0.0,0.0
1696254795688,-1.0166016,0.107421875,0.021484375,-0.03125,0.03125,0.09375,0.0,0.0,0.0
1696254795733,-1.0214844,0.10449219,0.009765625,-0.21875,0.09375,0.15625,0.0,0.0,0.0
1696254795766,-1.0234375,0.10546875,0.015625,0.0,0.09375,0.15625,0.0,0.0,0.0
1696254795812,-1.0224609,0.09667969,0.021484375,-0.09375,0.53125,0.21875,0.0,0.0,0.0
1696254795845,-1.0253906,0.103515625,0.0126953125,0.0625,0.40625,0.09375,0.0,0.0,0.0
1696254795891,-1.0185547,0.11035156,0.01953125,-0.03125,0.21875,0.03125,0.0,0.0,0.0
1696254795935,-1.0292969,0.09765625,0.018554688,-0.40625,0.0625,0.15625,0.0,0.0,0.0
1696254795969,-1.0175781,0.103515625,0.0048828125,-0.0625,0.3125,0.34375,0.0,0.0,0.0
1696254796014,-1.0283203,0.099609375,0.01953125,0.375,0.625,0.34375,0.0,0.0,0.0
1696254796048,-1.0224609,0.11328125,0.016601562,-0.0625,0.4375,0.46875,-50.125,27.625,-238.875
1696254796093,-1.0244141,0.09863281,0.022460938,-0.125,0.25,0.21875,0.0,0.0,0.0
1696254796127,-1.0224609,0.111328125,0.0078125,-0.0625,0.125,0.46875,0.0,0.0,0.0
1696254796172,-1.0253906,0.099609375,0.01171875,0.1875,0.6875,0.59375,0.0,0.0,0.0
1696254796205,-1.0195312,0.10644531,0.016601562,-0.0625,0.5,0.46875,0.0,0.0,0.0
1696254796250,-1.0253906,0.11035156,0.021484375,0.0625,0.375,0.28125,0.0,0.0,0.0
1696254796295,-1.0175781,0.10644531,0.021484375,0.25,0.625,0.28125,0.0,0.0,0.0
1696254796329,-1.0283203,0.107421875,0.0107421875,0.3125,0.3125,0.34375,0.0,0.0,0.0
1696254796375,-1.015625,0.107421875,0.001953125,0.3125,0.375,0.46875,0.0,0.0,0.0
1696254796408,-1.0253906,0.115234375,0.0146484375,0.0,0.5625,0.46875,0.0,0.0,0.0
