# Sensor type: Thingy
# Activity type: Sitting
# Activity subtype: Normal
# Subject id: s2106809
# Notes: unprocessed
timestamp,accel_x,accel_y,accel_z,gyro_x,gyro_y,gyro_z,mag_x,mag_y,mag_z
1696254691512,-0.07910156,-0.12988281,0.96972656,-1.59375,0.40625,-1.125,0.0,0.0,0.0
1696254691529,-0.08984375,-0.12402344,0.9765625,-2.09375,0.28125,-1.34375,-8.6875,16.5625,-186.625
1696254691576,-0.08691406,-0.12792969,0.9814453,-1.25,0.59375,-1.3125,0.0,0.0,0.0
1696254691604,-0.08886719,-0.12988281,0.98339844,-1.46875,0.65625,-1.0625,0.0,0.0,0.0
1696254691638,-0.08984375,-0.12792969,0.9863281,-1.25,0.84375,-1.1875,0.0,0.0,0.0
1696254691683,-0.08496094,-0.13085938,0.9824219,-1.125,0.78125,-1.125,0.0,0.0,0.0
1696254691724,-0.09667969,-0.125,0.9794922,-1.0,0.65625,-1.0,0.0,0.0,0.0
1696254691762,-0.09375,-0.13183594,0.98046875,-1.3125,0.71875,-1.125,0.0,0.0,0.0
1696254691807,-0.091796875,-0.11621094,0.9873047,-1.3125,0.90625,-1.125,0.0,0.0,0.0
1696254691840,-0.091796875,-0.123046875,0.984375,-1.1875,0.71875,-1.1875,0.0,0.0,0.0
1696254691885,-0.08105469,-0.1171875,0.9941406,-1.0625,0.65625,-1.125,0.0,0.0,0.0
1696254691922,-0.08300781,-0.13476562,0.98828125,-1.0,0.59375,-1.0625,0.0,0.0,0.0
1696254691964,-0.080078125,-0.1328125,0.98828125,-0.75,0.71875,-1.0625,0.0,0.0,0.0
1696254691998,-0.08886719,-0.13378906,0.9902344,-0.9375,0.78125,-1.0625,0.0,0.0,0.0
1696254692043,-0.08886719,-0.12792969,0.9863281,-0.8125,0.71875,-1.0625,-9.3125,16.375,-186.5
1696254692077,-0.07910156,-0.12890625,0.98339844,-1.3125,0.78125,-1.1875,0.0,0.0,0.0
1696254692122,-0.087890625,-0.12597656,0.9736328,-1.25,0.78125,-1.125,0.0,0.0,0.0
1696254692166,-0.09082031,-0.13085938,0.99316406,-1.125,1.03125,-1.1875,0.0,0.0,0.0
1696254692212,-0.09082031,-0.12792969,0.98828125,-1.25,0.84375,-0.8125,0.0,0.0,0.0
1696254692245,-0.091796875,-0.12109375,0.9921875,-1.1875,0.90625,-1.0,0.0,0.0,0.0
1696254692279,-0.09277344,-0.12792969,0.9902344,-1.25,0.78125,-1.0625,0.0,0.0,0.0
1696254692324,-0.09277344,-0.12792969,0.98046875,-0.9375,0.84375,-1.3125,0.0,0.0,0.0
1696254692358,-0.09082031,-0.12207031,0.98339844,-1.125,0.84375,-1.1875,0.0,0.0,0.0
1696254692403,-0.08496094,-0.12988281,0.98535156,-1.0,0.78125,-1.125,0.0,0.0,0.0
1696254692437,-0.091796875,-0.13183594,0.98828125,-1.125,0.84375,-1.25,0.0,0.0,0.0
1696254692482,-0.09277344,-0.12597656,0.9863281,-1.0,0.90625,-1.125,0.0,0.0,0.0
1696254692527,-0.08300781,-0.12207031,0.9921875,-1.25,0.84375,-1.0625,-9.125,16.5625,-185.75
1696254692560,-0.08984375,-0.13085938,0.984375,-1.46875,0.78125,-1.125,0.0,0.0,0.0
1696254692605,-0.087890625,-0.12988281,0.9824219,-1.0625,0.84375,-1.0625,0.0,0.0,0.0
1696254692639,-0.08691406,-0.125,0.97265625,-1.25,0.71875,-1.1875,0.0,0.0,0.0
1696254692684,-0.091796875,-0.12695312,0.98046875,-1.0625,0.71875,-1.0625,0.0,0.0,0.0
1696254692720,-0.09082031,-0.12207031,0.9873047,-1.25,0.78125,-1.1875,0.0,0.0,0.0
1696254692763,-0.09277344,-0.12109375,0.984375,-1.34375,0.59375,-1.0,0.0,0.0,0.0
1696254692796,-0.09375,-0.12890625,0.9951172,-0.75,0.65625,-0.9375,0.0,0.0,0.0
1696254692842,-0.08691406,-0.12792969,0.9785156,-1.1875,0.65625,-0.9375,0.0,0.0,0.0
1696254692887,-0.09375,-0.12011719,0.98535156,-1.3125,0.84375,-1.25,0.0,0.0,0.0
1696254692920,-0.08886719,-0.12011719,0.9873047,-1.40625,0.78125,-1.125,0.0,0.0,0.0
1696254692965,-0.087890625,-0.125,0.9814453,-1.3125,0.71875,-1.0,0.0,0.0,0.0
1696254692999,-0.0859375,-0.12207031,0.9902344,-1.78125,0.84375,-1.1875,0.0,0.0,0.0
1696254693044,-0.087890625,-0.12011719,0.9824219,-1.25,1.09375,-1.1875,-6.625,17.3125,-187.125
1696254693078,-0.08984375,-0.13183594,0.9873047,-1.40625,0.96875,-1.0,0.0,0.0,0.0
1696254693123,-0.087890625,-0.123046875,0.9794922,-1.34375,0.96875,-1.0,0.0,0.0,0.0
1696254693156,-0.095703125,-0.123046875,0.9863281,-1.25,0.65625,-1.125,0.0,0.0,0.0
1696254693202,-0.08886719,-0.11816406,0.9794922,-1.65625,0.90625,-1.25,0.0,0.0,0.0
1696254693247,-0.08496094,-0.125,0.9785156,-2.03125,1.28125,-1.3125,0.0,0.0,0.0
1696254693281,-0.09277344,-0.12109375,0.9892578,-1.53125,0.78125,-1.0,0.0,0.0,0.0
1696254693326,-0.10058594,-0.125,0.9863281,-1.0,0.46875,-1.0625,0.0,0.0,0.0
1696254693359,-0.087890625,-0.1328125,0.9824219,-1.25,0.65625,-1.125,0.0,0.0,0.0
1696254693404,-0.09375,-0.119140625,0.96972656,-1.59375,0.71875,-1.1875,0.0,0.0,0.0
1696254693438,-0.08984375,-0.13378906,0.984375,-1.46875,0.65625,-1.0625,0.0,0.0,0.0
1696254693483,-0.09082031,-0.12597656,0.99609375,-2.15625,0.59375,-1.0625,0.0,0.0,0.0
1696254693528,-0.09082031,-0.13476562,0.98828125,-1.84375,0.65625,-1.0625,-9.625,16.375,-183.8125
1696254693569,-0.09082031,-0.13085938,0.9863281,-1.65625,0.59375,-1.0625,0.0,0.0,0.0
1696254693607,-0.08984375,-0.12207031,1.0019531,-1.84375,0.59375,-1.0625,0.0,0.0,0.0
1696254693647,-0.08886719,-0.13183594,0.9921875,-1.53125,0.40625,-1.0,0.0,0.0,0.0
1696254693685,-0.08691406,-0.12988281,0.9785156,-1.1875,0.65625,-1.125,0.0,0.0,0.0
1696254693719,-0.1015625,-0.13085938,0.9794922,-1.34375,0.71875,-1.0625,0.0,0.0,0.0
1696254693764,-0.08691406,-0.12792969,0.9794922,-1.65625,0.65625,-1.1875,0.0,0.0,0.0
1696254693798,-0.091796875,-0.1328125,0.99316406,-1.59375,0.78125,-1.125,0.0,0.0,0.0
1696254693843,-0.09082031,-0.12207031,0.98339844,-1.53125,0.71875,-1.125,0.0,0.0,0.0
1696254693877,-0.095703125,-0.12988281,0.98046875,-1.65625,0.65625,-1.0,0.0,0.0,0.0
1696254693922,-0.083984375,-0.12792969,0.9824219,-1.78125,0.59375,-1.1875,0.0,0.0,0.0
1696254693966,-0.08886719,-0.12890625,0.98339844,-1.78125,0.84375,-1.0,0.0,0.0,0.0
1696254694000,-0.09277344,-0.13671875,0.9824219,-1.53125,0.59375,-1.0,0.0,0.0,0.0
1696254694045,-0.08886719,-0.13085938,0.9814453,-1.53125,0.59375,-1.25,-8.5625,16.375,-186.5
1696254694079,-0.087890625,-0.13378906,0.97753906,-1.3125,0.59375,-1.1875,0.0,0.0,0.0
1696254694124,-0.09277344,-0.12792969,0.984375,-1.53125,0.59375,-1.0,0.0,0.0,0.0
1696254694158,-0.09277344,-0.12695312,0.9863281,-1.34375,0.40625,-1.0625,0.0,0.0,0.0
1696254694203,-0.087890625,-0.13476562,0.9863281,-1.46875,0.59375,-1.1875,0.0,0.0,0.0
1696254694237,-0.08105469,-0.12890625,0.98339844,-1.53125,0.59375,-1.0625,0.0,0.0,0.0
1696254694281,-0.091796875,-0.12792969,0.9941406,-1.34375,0.59375,-1.0625,0.0,0.0,0.0
1696254694338,-0.091796875,-0.12207031,0.9873047,-1.25,0.59375,-1.125,0.0,0.0,0.0
1696254694360,-0.087890625,-0.12792969,0.9765625,-1.46875,0.71875,-1.125,0.0,0.0,0.0
1696254694405,-0.08691406,-0.13378906,0.98535156,-1.3125,0.59375,-1.1875,0.0,0.0,0.0
1696254694439,-0.0859375,-0.13183594,0.9980469,-1.125,0.59375,-1.0625,0.0,0.0,0.0
1696254694485,-0.091796875,-0.13183594,0.9951172,-1.125,0.65625,-1.1875,0.0,0.0,0.0
1696254694518,-0.08984375,-0.13378906,0.9873047,-1.1875,0.59375,-1.125,-8.375,17.0,-187.375
1696254694564,-0.09082031,-0.13183594,0.98535156,-1.34375,0.78125,-1.1875,0.0,0.0,0.0
1696254694596,-0.095703125,-0.12597656,0.9873047,-1.0625,0.59375,-1.1875,0.0,0.0,0.0
1696254694642,-0.09082031,-0.14257812,0.9951172,-1.125,0.65625,-1.125,0.0,0.0,0.0
1696254694687,-0.09082031,-0.12597656,0.9892578,-1.34375,0.78125,-1.0,0.0,0.0,0.0
1696254694732,-0.08691406,-0.13867188,0.9873047,0.03125,-0.125,0.0,0.0,0.0,0.0
1696254694768,-0.08496094,-0.12890625,1.0,0.0,0.0,0.0,0.0,0.0,0.0
1696254694799,-0.09082031,-0.13378906,0.98339844,0.0,-0.0625,-0.0625,0.0,0.0,0.0
1696254694844,-0.09082031,-0.13378906,0.9970703,0.0,-0.0625,-0.0625,0.0,0.0,0.0
1696254694878,-0.09472656,-0.12597656,0.9902344,-0.1875,-0.125,0.03125,0.0,0.0,0.0
1696254694924,-0.09375,-0.1328125,0.9658203,0.0,0.0,-0.0625,0.0,0.0,0.0
1696254694957,-0.08886719,-0.12792969,0.99609375,0.09375,0.0,-0.125,0.0,0.0,0.0
1696254695002,-0.091796875,-0.12597656,0.9863281,-0.125,-0.25,-0.0625,0.0,0.0,0.0
1696254695047,-0.08984375,-0.1328125,0.98339844,0.0,-0.1875,0.0,-7.625,15.5,-186.375
1696254695091,-0.09472656,-0.1328125,0.96875,0.21875,-0.1875,-0.125,0.0,0.0,0.0
1696254695126,-0.09375,-0.1328125,0.9873047,0.21875,-0.25,0.0,0.0,0.0,0.0
1696254695160,-0.091796875,-0.12792969,0.9765625,0.0,-0.3125,-0.0625,0.0,0.0,0.0
1696254695204,-0.07910156,-0.14453125,0.9814453,0.28125,-0.125,-0.0625,0.0,0.0,0.0
1696254695238,-0.09082031,-0.13085938,0.9863281,0.0,-0.125,0.0,0.0,0.0,0.0
1696254695285,-0.08984375,-0.13183594,0.9902344,0.21875,-0.125,-0.0625,0.0,0.0,0.0
1696254695317,-0.08691406,-0.13085938,0.9970703,0.15625,-0.1875,0.0,0.0,0.0,0.0
1696254695362,-0.083984375,-0.13085938,0.9794922,-0.125,-0.1875,-0.0625,0.0,0.0,0.0
1696254695407,-0.09765625,-0.13085938,0.98339844,0.28125,-0.25,0.09375,0.0,0.0,0.0
1696254695440,-0.07910156,-0.12890625,0.9824219,0.21875,-0.25,-0.0625,0.0,0.0,0.0
1696254695485,-0.08984375,-0.12695312,0.9765625,0.28125,-0.125,-0.125,0.0,0.0,0.0
1696254695519,-0.07714844,-0.13183594,0.9794922,0.28125,-0.0625,0.0,-8.125,17.0,-187.375
1696254695576,-0.091796875,-0.13671875,0.98339844,0.09375,0.0,0.09375,0.0,0.0,0.0
1696254695598,-0.08105469,-0.12597656,0.9746094,0.09375,0.0,-0.0625,0.0,0.0,0.0
1696254695643,-0.08203125,-0.12890625,0.984375,0.28125,-0.0625,0.0,0.0,0.0,0.0
1696254695676,-0.08203125,-0.12890625,0.99609375,0.28125,0.0,0.09375,0.0,0.0,0.0
1696254695721,-0.078125,-0.12890625,0.98339844,0.15625,0.0,0.0,0.0,0.0,0.0
1696254695768,-0.08300781,-0.13085938,0.9941406,0.0,0.03125,-0.125,0.0,0.0,0.0
1696254695800,-0.080078125,-0.12207031,0.98046875,0.34375,0.03125,0.03125,0.0,0.0,0.0
1696254695845,-0.08691406,-0.12597656,0.99316406,0.15625,0.09375,0.21875,0.0,0.0,0.0
1696254695879,-0.08105469,-0.13378906,0.984375,0.03125,-0.0625,-0.125,0.0,0.0,0.0
1696254695925,-0.083984375,-0.13085938,0.9873047,0.09375,0.15625,-0.1875,0.0,0.0,0.0
1696254695959,-0.09277344,-0.13085938,0.9794922,0.21875,0.03125,-0.0625,0.0,0.0,0.0
1696254696006,-0.09472656,-0.123046875,0.9794922,0.15625,-0.1875,0.03125,0.0,0.0,0.0
1696254696048,-0.087890625,-0.12695312,0.984375,0.15625,-0.0625,-0.0625,-8.25,16.375,-186.5
1696254696082,-0.091796875,-0.12695312,0.98828125,0.34375,0.09375,-0.1875,0.0,0.0,0.0
1696254696139,-0.08496094,-0.12890625,0.98535156,0.21875,0.0,0.0,0.0,0.0,0.0
1696254696160,-0.09375,-0.13378906,0.9873047,0.15625,0.03125,0.0,0.0,0.0,0.0
1696254696205,-0.08691406,-0.12792969,0.97753906,0.21875,0.09375,-0.125,0.0,0.0,0.0
1696254696239,-0.08496094,-0.13769531,0.9970703,0.28125,0.03125,0.03125,0.0,0.0,0.0
1696254696284,-0.0859375,-0.12988281,0.9892578,0.34375,-0.1875,0.03125,0.0,0.0,0.0
1696254696318,-0.083984375,-0.12988281,0.9746094,0.34375,-0.0625,0.03125,0.0,0.0,0.0
1696254696363,-0.08496094,-0.12890625,0.97753906,0.21875,-0.0625,0.0,0.0,0.0,0.0
1696254696397,-0.0859375,-0.12695312,0.98339844,0.21875,-0.0625,0.0,0.0,0.0,0.0
1696254696441,-0.09375,-0.12597656,0.98339844,0.15625,0.09375,-0.0625,0.0,0.0,0.0
1696254696524,-0.08886719,-0.13476562,0.9921875,0.21875,0.09375,-0.0625,-9.0,16.375,-185.875
1696254696526,-0.08203125,-0.13183594,0.97753906,0.28125,-0.0625,0.03125,0.0,0.0,0.0
1696254696565,-0.08496094,-0.119140625,0.9951172,0.34375,0.0,0.03125,0.0,0.0,0.0
1696254696599,-0.083984375,-0.12792969,0.984375,0.09375,0.15625,-0.1875,0.0,0.0,0.0
1696254696644,-0.08496094,-0.1328125,0.98535156,0.21875,0.03125,0.0,0.0,0.0,0.0
1696254696678,-0.08496094,-0.12890625,0.98046875,0.0,0.09375,0.09375,0.0,0.0,0.0
1696254696726,-0.09082031,-0.12988281,0.9921875,-0.1875,0.28125,0.03125,0.0,0.0,0.0
1696254696756,-0.08984375,-0.12695312,0.9873047,-0.1875,-0.0625,0.0,0.0,0.0,0.0
1696254696802,-0.08886719,-0.12109375,0.97753906,0.0,0.0,-0.0625,0.0,0.0,0.0
1696254696847,-0.087890625,-0.13183594,0.9736328,0.21875,-0.125,-0.1875,0.0,0.0,0.0
1696254696880,-0.09082031,-0.13085938,0.99316406,0.03125,0.0,-0.0625,0.0,0.0,0.0
1696254696926,-0.087890625,-0.13183594,0.984375,0.21875,-0.25,0.0,0.0,0.0,0.0
1696254696959,-0.076171875,-0.12597656,0.99902344,0.15625,-0.25,-0.25,0.0,0.0,0.0
1696254697004,-0.095703125,-0.12597656,0.9873047,-0.1875,-0.0625,0.0,0.0,0.0,0.0
1696254697038,-0.08984375,-0.12011719,0.97558594,0.0,-0.125,-0.125,-9.0,17.125,-187.875
1696254697083,-0.09277344,-0.12402344,0.98339844,0.0,-0.1875,-0.125,0.0,0.0,0.0
1696254697128,-0.08496094,-0.12988281,0.99902344,0.0,-0.0625,-0.0625,0.0,0.0,0.0
1696254697162,-0.091796875,-0.12597656,0.9794922,0.03125,-0.25,-0.1875,0.0,0.0,0.0
1696254697207,-0.083984375,-0.12402344,0.98046875,0.0,-0.1875,-0.125,0.0,0.0,0.0
1696254697241,-0.08984375,-0.125,0.99316406,-0.3125,-0.125,0.0,0.0,0.0,0.0
1696254697286,-0.09082031,-0.125,0.984375,-0.125,-0.3125,0.09375,0.0,0.0,0.0
1696254697323,-0.08496094,-0.125,0.97753906,-0.3125,-0.1875,-0.1875,0.0,0.0,0.0
1696254697364,-0.08984375,-0.125,0.9970703,-0.3125,-0.25,0.0,0.0,0.0,0.0
1696254697398,-0.09082031,-0.13085938,0.984375,-0.4375,-0.25,0.0,0.0,0.0,0.0
1696254697443,-0.08984375,-0.12207031,0.9794922,-0.3125,-0.1875,-0.1875,0.0,0.0,0.0
1696254697488,-0.087890625,-0.12597656,0.9921875,-0.4375,-0.0625,-0.125,0.0,0.0,0.0
1696254697522,-0.09667969,-0.12988281,1.0,-0.4375,-0.125,0.0,-7.5,15.625,-187.5625
1696254697567,-0.09765625,-0.123046875,0.97558594,-0.125,-0.25,0.15625,0.0,0.0,0.0
1696254697600,-0.08105469,-0.13769531,0.9814453,-0.1875,-0.1875,0.0,0.0,0.0,0.0
1696254697645,-0.09667969,-0.12988281,0.98828125,-0.25,-0.25,0.0,0.0,0.0,0.0
1696254697679,-0.08691406,-0.12402344,0.9892578,-0.1875,-0.125,-0.0625,0.0,0.0,0.0
1696254697724,-0.09277344,-0.12988281,1.0117188,0.0,-0.3125,-0.125,0.0,0.0,0.0
1696254697758,-0.091796875,-0.13378906,0.9814453,0.03125,-0.25,0.0,0.0,0.0,0.0
1696254697803,-0.09375,-0.13671875,0.984375,-0.25,-0.375,-0.125,0.0,0.0,0.0
1696254697848,-0.08886719,-0.13378906,0.984375,-0.125,-0.1875,-0.0625,0.0,0.0,0.0
1696254697882,-0.08300781,-0.13671875,0.9863281,-0.0625,-0.25,0.03125,0.0,0.0,0.0
1696254697927,-0.09472656,-0.12695312,0.97753906,0.09375,-0.0625,0.09375,0.0,0.0,0.0
1696254697960,-0.09082031,-0.12597656,0.98535156,-0.0625,-0.1875,-0.0625,0.0,0.0,0.0
1696254698005,-0.08886719,-0.13183594,0.9873047,-0.0625,-0.25,0.03125,0.0,0.0,0.0
1696254698040,-0.09277344,-0.13476562,0.9814453,0.0,-0.125,0.0,-8.375,14.4375,-185.0
1696254698084,-0.08886719,-0.13378906,0.98046875,0.0,-0.1875,-0.0625,0.0,0.0,0.0
1696254698118,-0.09375,-0.13183594,0.9824219,0.0,-0.25,-0.0625,0.0,0.0,0.0
1696254698163,-0.08984375,-0.13183594,0.97558594,-0.0625,-0.125,-0.0625,0.0,0.0,0.0
1696254698208,-0.09082031,-0.13183594,0.9824219,0.0,-0.0625,-0.125,0.0,0.0,0.0
1696254698242,-0.08691406,-0.12988281,0.9785156,0.09375,-0.25,0.0,0.0,0.0,0.0
1696254698286,-0.08984375,-0.13183594,0.97558594,0.09375,-0.1875,-0.0625,0.0,0.0,0.0
1696254698320,-0.08886719,-0.12890625,0.9794922,0.03125,-0.0625,-0.125,0.0,0.0,0.0
1696254698365,-0.09277344,-0.12988281,0.9970703,-0.0625,-0.125,-0.0625,0.0,0.0,0.0
1696254698399,-0.08496094,-0.140625,0.98535156,0.0,0.03125,-0.0625,0.0,0.0,0.0
1696254698444,-0.08691406,-0.12792969,0.9863281,0.09375,0.0,0.03125,0.0,0.0,0.0
1696254698478,-0.08984375,-0.13378906,0.99316406,0.03125,-0.25,-0.0625,0.0,0.0,0.0
1696254698523,-0.09082031,-0.125,0.99121094,0.09375,0.0,-0.0625,-8.375,17.5625,-188.125
1696254698568,-0.09082031,-0.12988281,0.9873047,0.09375,-0.1875,0.0,0.0,0.0,0.0
1696254698602,-0.08886719,-0.13183594,0.97558594,0.15625,-0.1875,0.03125,0.0,0.0,0.0
1696254698646,-0.08300781,-0.13378906,0.97558594,0.0,-0.1875,-0.125,0.0,0.0,0.0
1696254698681,-0.08984375,-0.13183594,0.98046875,0.09375,-0.1875,-0.125,0.0,0.0,0.0
1696254698725,-0.08300781,-0.12792969,0.98046875,0.09375,0.03125,-0.0625,0.0,0.0,0.0
1696254698759,-0.09082031,-0.12988281,0.9746094,-0.0625,-0.3125,-0.125,0.0,0.0,0.0
1696254698804,-0.08300781,-0.12792969,0.9873047,0.09375,0.0,-0.125,0.0,0.0,0.0
1696254698838,-0.08203125,-0.13476562,0.9736328,0.03125,0.0,-0.0625,0.0,0.0,0.0
1696254698883,-0.087890625,-0.13085938,0.97753906,0.0,-0.125,0.0,0.0,0.0,0.0
1696254698928,-0.08300781,-0.12792969,0.984375,0.03125,-0.125,-0.1875,0.0,0.0,0.0
1696254698961,-0.083984375,-0.12792969,0.9824219,0.09375,-0.125,-0.125,0.0,0.0,0.0
1696254699040,-0.08203125,-0.1328125,0.9824219,0.15625,-0.125,0.0,-9.0,17.125,-186.5
1696254699042,-0.0859375,-0.12890625,0.9746094,0.28125,0.0,0.0,0.0,0.0,0.0
1696254699086,-0.08203125,-0.13085938,0.9765625,0.15625,0.0,-0.125,0.0,0.0,0.0
1696254699119,-0.087890625,-0.12890625,0.9824219,0.09375,-0.25,0.0,0.0,0.0,0.0
1696254699164,-0.08300781,-0.12988281,0.9736328,0.0,-0.0625,0.0,0.0,0.0,0.0
1696254699198,-0.08105469,-0.119140625,0.9716797,0.03125,-0.0625,0.0,0.0,0.0,0.0
1696254699243,-0.08691406,-0.12890625,0.9824219,0.46875,0.0,0.09375,0.0,0.0,0.0
1696254699290,-0.09277344,-0.13476562,0.99316406,-0.125,0.0,0.03125,0.0,0.0,0.0
1696254699322,-0.083984375,-0.12890625,0.9794922,0.21875,-0.25,0.03125,0.0,0.0,0.0
1696254699400,-0.08691406,-0.12890625,0.9863281,-0.0625,-0.0625,-0.25,0.0,0.0,0.0
1696254699402,-0.087890625,-0.12792969,0.984375,0.40625,0.0,0.0,0.0,0.0,0.0
1696254699445,-0.087890625,-0.123046875,0.9785156,0.34375,0.0,0.03125,0.0,0.0,0.0
1696254699480,-0.08984375,-0.13183594,0.9863281,0.21875,-0.125,0.0,0.0,0.0,0.0
1696254699524,-0.09082031,-0.12792969,0.9863281,0.21875,0.0,-0.1875,-8.375,17.0,-185.75
1696254699558,-0.08300781,-0.125,0.9980469,0.0,0.0,-0.1875,0.0,0.0,0.0
1696254699603,-0.08496094,-0.13964844,0.98828125,0.0,0.15625,0.0,0.0,0.0,0.0
1696254699648,-0.08984375,-0.1328125,0.984375,0.21875,0.03125,0.0,0.0,0.0,0.0
1696254699682,-0.08203125,-0.125,0.9736328,0.28125,-0.0625,-0.0625,0.0,0.0,0.0
1696254699761,-0.091796875,-0.13085938,0.98046875,0.21875,0.03125,-0.1875,0.0,0.0,0.0
1696254699763,-0.08691406,-0.1328125,0.9892578,0.15625,0.0,-0.0625,0.0,0.0,0.0
1696254699805,-0.08496094,-0.12890625,0.9873047,0.09375,-0.0625,-0.125,0.0,0.0,0.0
1696254699839,-0.09472656,-0.13085938,0.984375,0.15625,0.0,-0.0625,0.0,0.0,0.0
1696254699895,-0.08691406,-0.13183594,0.9892578,0.21875,0.03125,-0.0625,0.0,0.0,0.0
1696254699918,-0.08984375,-0.13378906,0.9716797,0.0,0.03125,-0.1875,0.0,0.0,0.0
1696254699964,-0.09375,-0.13476562,0.99316406,-0.25,0.09375,-0.0625,0.0,0.0,0.0
1696254700008,-0.091796875,-0.12109375,0.99316406,0.0,0.28125,-0.25,0.0,0.0,0.0
1696254700042,-0.08300781,-0.12695312,0.99121094,0.46875,-0.0625,0.0,-8.125,17.3125,-187.6875
1696254700122,-0.09082031,-0.12695312,0.99121094,0.65625,-0.0625,0.0,0.0,0.0,0.0
1696254700124,-0.08886719,-0.13183594,0.9824219,0.0,0.0,0.0,0.0,0.0,0.0
1696254700165,-0.095703125,-0.123046875,0.9902344,0.21875,0.09375,0.03125,0.0,0.0,0.0
1696254700199,-0.08984375,-0.13769531,0.9863281,0.03125,0.15625,0.0,0.0,0.0,0.0
1696254700244,-0.091796875,-0.123046875,0.98046875,-0.25,-0.1875,-0.03125,0.0,0.0,0.0
1696254700278,-0.07910156,-0.12207031,0.9765625,0.1875,0.0,-0.03125,0.0,0.0,0.0
1696254700323,-0.0859375,-0.12988281,0.9736328,-0.125,0.0,-0.03125,0.0,0.0,0.0
1696254700368,-0.08886719,-0.12695312,0.9892578,-0.125,-0.1875,0.03125,0.0,0.0,0.0
1696254700401,-0.09082031,-0.1328125,0.98828125,0.0625,-0.1875,-0.03125,0.0,0.0,0.0
1696254700447,-0.09472656,-0.12207031,1.0029297,0.0,-0.0625,-0.03125,0.0,0.0,0.0
1696254700481,-0.083984375,-0.12597656,0.98535156,-0.0625,-0.125,0.09375,0.0,0.0,0.0
1696254700529,-0.08300781,-0.12695312,0.98535156,-0.0625,-0.25,0.09375,-9.125,17.5625,-187.125
1696254700559,-0.087890625,-0.1328125,0.9765625,0.0,-0.125,-0.03125,0.0,0.0,0.0
1696254700604,-0.095703125,-0.12988281,0.97558594,-0.125,0.0,-0.03125,0.0,0.0,0.0
1696254700638,-0.087890625,-0.13085938,0.9746094,-0.125,-0.125,0.03125,0.0,0.0,0.0
1696254700683,-0.08886719,-0.12695312,0.9746094,-0.1875,-0.25,-0.09375,0.0,0.0,0.0
1696254700728,-0.09277344,-0.13183594,0.9746094,-0.4375,-0.1875,-0.09375,0.0,0.0,0.0
1696254700763,-0.083984375,-0.12109375,0.98046875,-0.25,-0.0625,-0.09375,0.0,0.0,0.0
1696254700818,-0.091796875,-0.12988281,0.9873047,-0.375,-0.1875,0.09375,0.0,0.0,0.0
1696254700843,-0.087890625,-0.13085938,0.99316406,0.0,-0.125,-0.03125,0.0,0.0,0.0
1696254700885,-0.08886719,-0.13671875,0.99902344,-0.25,-0.0625,-0.03125,0.0,0.0,0.0
1696254700919,-0.08496094,-0.123046875,0.99121094,-0.625,-0.125,0.03125,0.0,0.0,0.0
1696254700988,-0.09375,-0.13085938,0.984375,-0.5,-0.3125,-0.09375,0.0,0.0,0.0
1696254700999,-0.091796875,-0.12695312,0.99902344,-0.625,-0.125,-0.03125,0.0,0.0,0.0
1696254701045,-0.087890625,-0.13183594,0.98535156,-0.5625,-0.125,0.03125,-8.375,17.0,-187.125
1696254701088,-0.08984375,-0.12792969,0.98828125,-0.1875,-0.5,-0.09375,0.0,0.0,0.0
1696254701122,-0.08984375,-0.13769531,0.97558594,-0.1875,-0.25,-0.21875,0.0,0.0,0.0
1696254701168,-0.08203125,-0.12695312,0.97753906,-0.125,0.0,-0.09375,0.0,0.0,0.0
1696254701201,-0.08203125,-0.13183594,0.9863281,-0.25,-0.5,-0.03125,0.0,0.0,0.0
1696254701245,-0.08691406,-0.13574219,0.98339844,-0.25,-0.3125,0.09375,0.0,0.0,0.0
1696254701282,-0.095703125,-0.12695312,0.9824219,-0.25,0.0625,-0.09375,0.0,0.0,0.0
1696254701324,-0.09082031,-0.12988281,0.98535156,-0.25,-0.0625,0.03125,0.0,0.0,0.0
1696254701358,-0.08691406,-0.12890625,0.9873047,-0.1875,-0.125,0.09375,0.0,0.0,0.0
1696254701414,-0.09082031,-0.12988281,0.98828125,-0.125,-0.1875,-0.09375,0.0,0.0,0.0
1696254701448,-0.0859375,-0.13867188,0.97753906,-0.375,-0.0625,-0.03125,0.0,0.0,0.0
1696254701482,-0.08300781,-0.12597656,0.98535156,0.0625,-0.25,-0.09375,0.0,0.0,0.0
1696254701527,-0.09277344,-0.13476562,0.9902344,-0.25,-0.1875,0.03125,-7.625,16.5625,-188.125
1696254701560,-0.07714844,-0.125,0.984375,-0.1875,-0.25,-0.03125,0.0,0.0,0.0
1696254701606,-0.08984375,-0.1328125,0.97753906,-0.125,-0.25,-0.03125,0.0,0.0,0.0
1696254701639,-0.09765625,-0.13183594,0.9765625,-0.125,-0.125,0.03125,0.0,0.0,0.0
1696254701684,-0.08886719,-0.13867188,0.98828125,0.0625,0.0,0.03125,0.0,0.0,0.0
1696254701718,-0.08496094,-0.1328125,0.99121094,-0.0625,-0.0625,0.03125,0.0,0.0,0.0
1696254701763,-0.083984375,-0.125,0.9873047,0.0625,0.0625,-0.03125,0.0,0.0,0.0
1696254701808,-0.09082031,-0.13085938,0.9746094,0.0,0.125,-0.15625,0.0,0.0,0.0
1696254701842,-0.09277344,-0.12695312,0.97265625,-0.25,-0.125,0.15625,0.0,0.0,0.0
1696254701887,-0.08496094,-0.12695312,0.97265625,0.0,0.1875,0.03125,0.0,0.0,0.0
1696254701920,-0.08984375,-0.13085938,0.99316406,-0.0625,0.0,0.09375,0.0,0.0,0.0
1696254701966,-0.07910156,-0.13476562,0.9873047,-0.0625,-0.3125,0.15625,0.0,0.0,0.0
1696254701999,-0.08886719,-0.125,0.98339844,-0.1875,-0.0625,-0.09375,0.0,0.0,0.0
1696254702067,-0.08886719,-0.12207031,0.9814453,-0.25,-0.0625,0.03125,-8.375,16.25,-187.375
1696254702078,-0.08496094,-0.12695312,0.9863281,-0.125,-0.0625,-0.03125,0.0,0.0,0.0
1696254702123,-0.08496094,-0.13867188,0.9638672,-0.25,-0.1875,0.03125,0.0,0.0,0.0
1696254702168,-0.080078125,-0.12890625,0.9746094,-0.25,-0.125,-0.15625,0.0,0.0,0.0
1696254702202,-0.083984375,-0.1328125,0.98339844,0.0,-0.0625,-0.03125,0.0,0.0,0.0
1696254702260,-0.087890625,-0.12597656,0.99121094,-0.0625,-0.125,0.03125,0.0,0.0,0.0
1696254702282,-0.08496094,-0.12792969,0.9863281,-0.25,-0.0625,-0.03125,0.0,0.0,0.0
1696254702337,-0.09375,-0.13476562,0.9902344,0.0625,-0.125,0.03125,0.0,0.0,0.0
1696254702359,-0.09082031,-0.12890625,0.98535156,-0.25,-0.1875,-0.09375,0.0,0.0,0.0
1696254702415,-0.083984375,-0.13085938,0.9765625,-0.1875,0.0625,0.09375,0.0,0.0,0.0
1696254702438,-0.08691406,-0.12988281,0.98046875,-0.1875,-0.0625,0.03125,0.0,0.0,0.0
1696254702483,-0.09082031,-0.12988281,0.9941406,-0.1875,0.0,0.03125,0.0,0.0,0.0
1696254702528,-0.08691406,-0.13378906,0.9951172,-0.1875,0.0,0.03125,-8.6875,17.3125,-186.0625
1696254702562,-0.09375,-0.13476562,0.9873047,-0.3125,-0.125,0.15625,0.0,0.0,0.0
1696254702607,-0.08984375,-0.13574219,0.98828125,-0.0625,0.0,-0.15625,0.0,0.0,0.0
1696254702640,-0.09082031,-0.1328125,0.9794922,-0.1875,0.0,-0.03125,0.0,0.0,0.0
1696254702685,-0.08691406,-0.12890625,0.9980469,-0.125,0.0625,-0.09375,0.0,0.0,0.0
1696254702719,-0.08691406,-0.12890625,1.0,-0.125,0.125,-0.15625,0.0,0.0,0.0
1696254702764,-0.08984375,-0.13085938,0.9765625,-0.1875,-0.0625,-0.03125,0.0,0.0,0.0
1696254702798,-0.08203125,-0.1328125,0.98339844,-0.25,-0.25,0.15625,0.0,0.0,0.0
1696254702843,-0.09472656,-0.12988281,0.98828125,-0.125,-0.125,-0.15625,0.0,0.0,0.0
1696254702888,-0.087890625,-0.13085938,0.9746094,0.21875,0.09375,-0.09375,0.0,0.0,0.0
1696254702921,-0.08886719,-0.13183594,0.9765625,-0.125,-0.15625,-0.03125,0.0,0.0,0.0
1696254702967,-0.08886719,-0.12988281,0.98046875,0.09375,0.03125,-0.03125,0.0,0.0,0.0
1696254703000,-0.09472656,-0.140625,0.9814453,0.03125,-0.03125,-0.03125,0.0,0.0,0.0
1696254703046,-0.09082031,-0.13183594,0.98339844,0.21875,0.34375,0.03125,-9.0,17.125,-187.875
1696254703080,-0.09863281,-0.12695312,0.9873047,0.15625,0.09375,0.03125,0.0,0.0,0.0
1696254703124,-0.08691406,-0.14160156,0.9716797,0.15625,0.09375,-0.03125,0.0,0.0,0.0
1696254703158,-0.09863281,-0.13378906,0.9824219,0.03125,0.21875,-0.03125,0.0,0.0,0.0
1696254703214,-0.091796875,-0.1328125,0.98339844,0.03125,0.15625,0.03125,0.0,0.0,0.0
1696254703251,-0.09082031,-0.12792969,0.9785156,0.28125,0.03125,-0.09375,0.0,0.0,0.0
1696254703282,-0.09277344,-0.12890625,0.9785156,0.15625,0.28125,-0.03125,0.0,0.0,0.0
1696254703327,-0.08886719,-0.13476562,0.9892578,0.46875,0.28125,-0.03125,0.0,0.0,0.0
1696254703360,-0.08691406,-0.1328125,0.9736328,0.28125,0.15625,0.03125,0.0,0.0,0.0
1696254703405,-0.08984375,-0.12597656,0.984375,0.15625,0.03125,0.03125,0.0,0.0,0.0
1696254703439,-0.09277344,-0.123046875,0.9824219,0.28125,0.28125,0.03125,0.0,0.0,0.0
1696254703495,-0.09375,-0.12890625,0.9892578,0.28125,0.09375,-0.03125,0.0,0.0,0.0
1696254703518,-0.087890625,-0.12597656,0.97558594,0.28125,0.21875,0.03125,-7.625,16.25,-187.6875
1696254703563,-0.09082031,-0.13378906,0.9736328,0.46875,0.15625,0.03125,0.0,0.0,0.0
1696254703609,-0.08496094,-0.13183594,0.98828125,0.46875,0.21875,0.09375,0.0,0.0,0.0
1696254703642,-0.08691406,-0.12792969,0.99121094,0.09375,0.09375,-0.03125,0.0,0.0,0.0
1696254703686,-0.087890625,-0.12988281,0.9746094,0.09375,0.15625,0.09375,0.0,0.0,0.0
1696254703720,-0.080078125,-0.12695312,0.98828125,-0.0625,0.15625,-0.03125,0.0,0.0,0.0
1696254703765,-0.08691406,-0.13183594,0.9892578,-0.125,-0.03125,-0.09375,0.0,0.0,0.0
1696254703801,-0.083984375,-0.12109375,0.9785156,-0.1875,-0.03125,0.09375,0.0,0.0,0.0
1696254703844,-0.09472656,-0.13085938,0.99121094,-0.1875,-0.03125,-0.03125,0.0,0.0,0.0
1696254703878,-0.08691406,-0.12792969,0.98046875,-0.125,-0.28125,0.09375,0.0,0.0,0.0
1696254703923,-0.09082031,-0.12207031,0.99121094,-0.25,0.03125,-0.15625,0.0,0.0,0.0
1696254703968,-0.091796875,-0.12792969,0.99121094,0.03125,0.28125,-0.09375,0.0,0.0,0.0
1696254704003,-0.08496094,-0.12011719,0.98339844,-0.0625,0.03125,0.09375,0.0,0.0,0.0
1696254704047,-0.09375,-0.125,0.98046875,0.03125,-0.09375,-0.03125,-8.25,17.4375,-186.9375
1696254704080,-0.08496094,-0.13378906,0.9785156,-0.0625,0.21875,-0.15625,0.0,0.0,0.0
1696254704128,-0.09277344,-0.12792969,0.9765625,-0.125,-0.03125,-0.03125,0.0,0.0,0.0
1696254704159,-0.07910156,-0.13085938,0.98339844,-0.0625,-0.03125,-0.03125,0.0,0.0,0.0
1696254704204,-0.08691406,-0.12792969,0.9951172,-0.1875,0.09375,-0.09375,0.0,0.0,0.0
1696254704238,-0.08984375,-0.12890625,0.984375,-0.125,-0.09375,-0.15625,0.0,0.0,0.0
1696254704283,-0.09082031,-0.1328125,0.9921875,-0.3125,-0.03125,0.03125,0.0,0.0,0.0
1696254704328,-0.08496094,-0.13183594,0.9765625,-0.625,-0.03125,-0.09375,0.0,0.0,0.0
1696254704362,-0.08886719,-0.13085938,0.9892578,-0.375,0.03125,-0.03125,0.0,0.0,0.0
1696254704418,-0.08203125,-0.12890625,0.9941406,-0.3125,-0.15625,0.03125,0.0,0.0,0.0
1696254704445,-0.08886719,-0.12695312,0.98828125,-0.125,0.03125,-0.15625,0.0,0.0,0.0
1696254704485,-0.078125,-0.12988281,0.9970703,-0.3125,-0.09375,0.03125,0.0,0.0,0.0
1696254704519,-0.09277344,-0.12402344,0.9794922,-0.5625,-0.03125,-0.03125,-8.375,16.5625,-186.375
1696254704564,-0.09375,-0.125,0.9824219,-0.25,0.03125,0.25,0.0,0.0,0.0
1696254704609,-0.08886719,-0.12597656,0.98828125,-0.4375,0.03125,0.09375,0.0,0.0,0.0
1696254704643,-0.087890625,-0.12695312,0.9814453,-0.3125,-0.15625,-0.09375,0.0,0.0,0.0
1696254704688,-0.09277344,-0.13867188,0.98339844,-0.125,-0.03125,0.09375,0.0,0.0,0.0
1696254704722,-0.08886719,-0.12597656,0.9873047,-0.125,-0.21875,0.09375,0.0,0.0,0.0
1696254704767,-0.09277344,-0.13378906,0.98828125,0.15625,-0.09375,0.03125,0.0,0.0,0.0
1696254704802,-0.09472656,-0.13378906,0.9951172,-0.1875,-0.09375,-0.09375,0.0,0.0,0.0
1696254704845,-0.08203125,-0.12011719,0.9863281,-0.125,-0.03125,0.15625,0.0,0.0,0.0
1696254704879,-0.08691406,-0.1328125,0.9892578,0.03125,0.03125,0.03125,0.0,0.0,0.0
1696254704924,-0.09082031,-0.1328125,0.9863281,-0.125,-0.03125,-0.03125,0.0,0.0,0.0
1696254704966,-0.087890625,-0.12402344,0.9824219,-0.125,0.09375,-0.09375,0.0,0.0,0.0
1696254705003,-0.08984375,-0.13574219,0.984375,0.0,-0.09375,-0.15625,0.0,0.0,0.0
1696254705048,-0.087890625,-0.12890625,0.9765625,-0.0625,-0.03125,-0.03125,-9.625,16.0625,-185.875
1696254705082,-0.08496094,-0.13378906,0.984375,0.03125,0.03125,-0.03125,0.0,0.0,0.0
1696254705138,-0.08886719,-0.1328125,0.9863281,-0.0625,0.03125,-0.03125,0.0,0.0,0.0
1696254705161,-0.087890625,-0.13085938,0.9824219,-0.0625,0.09375,-0.03125,0.0,0.0,0.0
1696254705216,-0.08203125,-0.13769531,0.9951172,-0.125,-0.09375,-0.09375,0.0,0.0,0.0
1696254705251,-0.083984375,-0.12792969,0.9707031,-0.1875,-0.09375,-0.03125,0.0,0.0,0.0
1696254705284,-0.08105469,-0.13183594,0.9892578,-0.1875,0.09375,0.09375,0.0,0.0,0.0
1696254705318,-0.083984375,-0.13085938,0.9794922,0.0,0.03125,-0.03125,0.0,0.0,0.0
1696254705363,-0.09375,-0.12890625,0.9892578,-0.3125,-0.03125,0.09375,0.0,0.0,0.0
1696254705408,-0.08886719,-0.13085938,0.96875,-0.125,-0.09375,0.09375,0.0,0.0,0.0
1696254705442,-0.08496094,-0.14257812,0.9863281,-0.125,-0.15625,-0.03125,0.0,0.0,0.0
1696254705487,-0.08203125,-0.13378906,0.9824219,-0.0625,0.09375,-0.03125,0.0,0.0,0.0
1696254705520,-0.08203125,-0.125,0.984375,0.09375,0.09375,0.09375,-7.8125,16.6875,-186.1875
1696254705568,-0.091796875,-0.12988281,0.9873047,-0.125,-0.03125,0.15625,0.0,0.0,0.0
1696254705599,-0.08496094,-0.13769531,0.98535156,-0.125,-0.28125,0.09375,0.0,0.0,0.0
1696254705644,-0.091796875,-0.13183594,0.9765625,0.0,-0.03125,-0.03125,0.0,0.0,0.0
1696254705678,-0.09667969,-0.12695312,0.9765625,-0.125,-0.09375,-0.15625,0.0,0.0,0.0
1696254705723,-0.083984375,-0.13183594,0.9814453,0.09375,-0.21875,-0.03125,0.0,0.0,0.0
1696254705773,-0.08984375,-0.13769531,0.9892578,-0.125,-0.15625,-0.09375,0.0,0.0,0.0
1696254705802,-0.08203125,-0.12402344,0.9902344,0.0,0.21875,-0.15625,0.0,0.0,0.0
1696254705847,-0.08886719,-0.12988281,0.9941406,0.03125,0.09375,0.15625,0.0,0.0,0.0
1696254705883,-0.08300781,-0.12792969,0.9746094,0.03125,0.03125,0.09375,0.0,0.0,0.0
1696254705925,-0.09375,-0.13378906,0.96972656,0.0,0.15625,-0.09375,0.0,0.0,0.0
1696254705960,-0.0859375,-0.13378906,0.98535156,0.0,0.03125,-0.03125,0.0,0.0,0.0
1696254706004,-0.08496094,-0.13378906,0.9980469,0.09375,0.09375,0.03125,0.0,0.0,0.0
1696254706060,-0.087890625,-0.13085938,0.98535156,0.03125,-0.09375,-0.03125,-9.125,16.5625,-186.375
1696254706083,-0.0859375,-0.13671875,0.9863281,0.15625,0.09375,0.03125,0.0,0.0,0.0
1696254706128,-0.08105469,-0.13183594,0.99121094,0.09375,0.21875,-0.03125,0.0,0.0,0.0
1696254706161,-0.08300781,-0.1328125,0.9765625,0.0,-0.03125,0.09375,0.0,0.0,0.0
1696254706207,-0.09375,-0.125,0.9902344,0.0,0.15625,0.03125,0.0,0.0,0.0
1696254706240,-0.091796875,-0.11425781,0.98828125,0.15625,0.09375,0.03125,0.0,0.0,0.0
1696254706285,-0.09375,-0.12792969,0.9863281,0.0,0.09375,-0.03125,0.0,0.0,0.0
1696254706322,-0.08691406,-0.12890625,0.96777344,-0.0625,0.09375,-0.03125,0.0,0.0,0.0
1696254706364,-0.08203125,-0.1328125,0.9873047,0.0,0.21875,-0.09375,0.0,0.0,0.0
1696254706398,-0.09082031,-0.12402344,0.98339844,-0.0625,0.15625,0.03125,0.0,0.0,0.0
1696254706443,-0.08886719,-0.13476562,0.97753906,-0.1875,0.21875,0.09375,0.0,0.0,0.0
1696254706488,-0.09472656,-0.13671875,0.9873047,0.03125,0.15625,0.03125,0.0,0.0,0.0
1696254706521,-0.09082031,-0.12597656,0.98046875,0.03125,0.03125,-0.21875,-6.875,17.3125,-187.375
1696254706567,-0.08886719,-0.1328125,0.9824219,0.03125,0.28125,-0.03125,0.0,0.0,0.0
1696254706612,-0.087890625,-0.12597656,0.9921875,0.28125,0.09375,-0.03125,0.0,0.0,0.0
1696254706645,-0.08886719,-0.13085938,0.98535156,0.09375,0.03125,0.03125,0.0,0.0,0.0
1696254706691,-0.080078125,-0.13378906,0.9863281,0.21875,0.03125,-0.15625,0.0,0.0,0.0
1696254706724,-0.083984375,-0.12792969,0.9814453,0.15625,0.15625,-0.03125,0.0,0.0,0.0
1696254706758,-0.099609375,-0.12597656,0.9902344,0.0,-0.09375,0.03125,0.0,0.0,0.0
1696254706803,-0.083984375,-0.12988281,0.9824219,0.0,-0.09375,-0.09375,0.0,0.0,0.0
1696254706848,-0.091796875,-0.123046875,0.99316406,0.0625,-0.03125,-0.09375,0.0,0.0,0.0
1696254706882,-0.08886719,-0.12597656,0.9902344,-0.1875,-0.09375,-0.03125,0.0,0.0,0.0
1696254706926,-0.09667969,-0.1328125,0.9892578,0.0625,-0.03125,-0.09375,0.0,0.0,0.0
1696254706960,-0.09472656,-0.12792969,0.98535156,-0.125,-0.15625,0.03125,0.0,0.0,0.0
1696254707005,-0.08886719,-0.13183594,0.9902344,-0.0625,-0.03125,0.09375,0.0,0.0,0.0
1696254707039,-0.08691406,-0.12402344,0.98535156,-0.125,-0.21875,0.09375,-9.125,16.5625,-187.125
1696254707084,-0.08886719,-0.12695312,0.9824219,-0.25,0.03125,-0.09375,0.0,0.0,0.0
1696254707117,-0.08496094,-0.12988281,0.99316406,-0.25,-0.03125,-0.03125,0.0,0.0,0.0
1696254707163,-0.09277344,-0.13378906,0.9794922,0.0,-0.03125,0.03125,0.0,0.0,0.0
1696254707208,-0.08691406,-0.125,0.9765625,-0.125,0.03125,-0.03125,0.0,0.0,0.0
1696254707242,-0.087890625,-0.12792969,0.9873047,-0.1875,-0.21875,0.15625,0.0,0.0,0.0
1696254707286,-0.087890625,-0.12695312,0.9746094,-0.46875,-0.09375,0.15625,0.0,0.0,0.0
1696254707320,-0.09375,-0.125,1.0,-0.3125,-0.15625,0.03125,0.0,0.0,0.0
1696254707365,-0.08496094,-0.13476562,0.98828125,-0.125,0.03125,0.03125,0.0,0.0,0.0
1696254707399,-0.08496094,-0.123046875,0.98828125,-0.25,-0.28125,-0.15625,0.0,0.0,0.0
1696254707445,-0.091796875,-0.12890625,0.9746094,-0.1875,-0.15625,-0.09375,0.0,0.0,0.0
1696254707477,-0.0859375,-0.12890625,0.99121094,-0.1875,-0.28125,-0.09375,0.0,0.0,0.0
1696254707523,-0.09277344,-0.125,0.9707031,-0.125,-0.15625,-0.15625,-9.125,17.5625,-186.625
1696254707568,-0.091796875,-0.13378906,0.98046875,-0.0625,-0.34375,-0.15625,0.0,0.0,0.0
1696254707601,-0.0859375,-0.1328125,0.9951172,-0.125,-0.09375,0.09375,0.0,0.0,0.0
1696254707646,-0.083984375,-0.12890625,0.9873047,0.0,-0.21875,-0.03125,0.0,0.0,0.0
1696254707680,-0.08496094,-0.13183594,0.984375,-0.125,-0.15625,-0.15625,0.0,0.0,0.0
1696254707725,-0.087890625,-0.125,0.98828125,-0.40625,-0.15625,-0.15625,0.0,0.0,0.0
1696254707759,-0.09277344,-0.13183594,0.9794922,-0.25,0.15625,0.03125,0.0,0.0,0.0
1696254707804,-0.083984375,-0.12890625,0.9941406,-0.25,0.03125,-0.09375,0.0,0.0,0.0
1696254707838,-0.08691406,-0.12890625,0.984375,-0.1875,-0.09375,0.09375,0.0,0.0,0.0
1696254707883,-0.09375,-0.12988281,0.99316406,-0.0625,-0.09375,-0.03125,0.0,0.0,0.0
1696254707939,-0.09375,-0.13964844,0.9892578,-0.3125,-0.15625,0.03125,0.0,0.0,0.0
1696254707964,-0.10058594,-0.1328125,0.9892578,-0.1875,-0.15625,-0.09375,0.0,0.0,0.0
1696254708006,-0.08984375,-0.12109375,0.99121094,-0.34375,-0.09375,-0.09375,0.0,0.0,0.0
1696254708041,-0.09082031,-0.12695312,0.9716797,-0.40625,-0.15625,-0.03125,-8.375,17.3125,-186.625
1696254708085,-0.09082031,-0.13378906,0.9873047,-0.25,-0.03125,0.15625,0.0,0.0,0.0
1696254708119,-0.08886719,-0.13476562,0.9785156,-0.3125,-0.15625,0.03125,0.0,0.0,0.0
1696254708164,-0.09082031,-0.13085938,0.9873047,-0.25,-0.15625,0.03125,0.0,0.0,0.0
1696254708209,-0.087890625,-0.12695312,0.98535156,-0.25,-0.03125,-0.09375,0.0,0.0,0.0
1696254708243,-0.083984375,-0.12695312,0.9824219,-0.1875,-0.15625,-0.03125,0.0,0.0,0.0
1696254708290,-0.08105469,-0.12695312,0.97753906,-0.125,-0.03125,0.03125,0.0,0.0,0.0
1696254708321,-0.09082031,-0.13183594,0.9794922,-0.125,-0.03125,-0.15625,0.0,0.0,0.0
1696254708367,-0.08984375,-0.12988281,0.9746094,-0.0625,-0.21875,0.15625,0.0,0.0,0.0
1696254708412,-0.09277344,-0.12890625,0.984375,-0.1875,-0.09375,-0.09375,0.0,0.0,0.0
1696254708445,-0.09277344,-0.13476562,0.9765625,-0.1875,-0.15625,-0.15625,0.0,0.0,0.0
1696254708479,-0.09277344,-0.12597656,0.98339844,-0.0625,0.15625,0.03125,0.0,0.0,0.0
1696254708524,-0.08496094,-0.13476562,0.9824219,0.0,-0.28125,-0.09375,-8.6875,15.1875,-187.125
1696254708557,-0.095703125,-0.13085938,0.9707031,0.0625,0.15625,-0.09375,0.0,0.0,0.0
1696254708603,-0.09082031,-0.13476562,0.99316406,-0.125,-0.09375,-0.28125,0.0,0.0,0.0
1696254708648,-0.08886719,-0.13574219,0.9814453,-0.25,-0.03125,-0.03125,0.0,0.0,0.0
1696254708681,-0.09082031,-0.13085938,0.9785156,-0.125,-0.15625,0.03125,0.0,0.0,0.0
1696254708727,-0.0859375,-0.12988281,0.9765625,-0.0625,0.09375,-0.09375,0.0,0.0,0.0
1696254708760,-0.09667969,-0.14160156,0.9824219,-0.1875,-0.21875,-0.09375,0.0,0.0,0.0
1696254708807,-0.08886719,-0.13574219,0.9863281,-0.0625,-0.15625,-0.09375,0.0,0.0,0.0
1696254708840,-0.08300781,-0.13183594,0.9736328,0.25,0.03125,-0.09375,0.0,0.0,0.0
1696254708885,-0.09765625,-0.12988281,0.9902344,-0.125,-0.09375,-0.03125,0.0,0.0,0.0
1696254708932,-0.08691406,-0.1328125,0.9746094,0.0,-0.03125,0.15625,0.0,0.0,0.0
1696254708963,-0.08984375,-0.12792969,0.9746094,-0.0625,-0.09375,-0.09375,0.0,0.0,0.0
1696254709009,-0.08691406,-0.13378906,0.984375,-0.125,0.03125,-0.03125,0.0,0.0,0.0
1696254709046,-0.091796875,-0.13671875,0.98828125,-0.0625,-0.03125,-0.09375,-9.3125,17.125,-186.9375
1696254709087,-0.095703125,-0.13964844,0.99121094,0.0,0.15625,-0.03125,0.0,0.0,0.0
1696254709132,-0.09277344,-0.12988281,0.98535156,-0.125,0.09375,0.09375,0.0,0.0,0.0
1696254709166,-0.09667969,-0.12695312,0.9736328,-0.1875,-0.28125,-0.21875,0.0,0.0,0.0
1696254709199,-0.09472656,-0.12597656,0.9736328,-0.125,0.28125,-0.21875,0.0,0.0,0.0
1696254709245,-0.083984375,-0.13476562,0.9736328,-0.125,-0.03125,0.15625,0.0,0.0,0.0
1696254709290,-0.09375,-0.1328125,0.9863281,-0.1875,-0.28125,0.03125,0.0,0.0,0.0
1696254709323,-0.08984375,-0.13964844,0.9941406,0.25,0.09375,-0.09375,0.0,0.0,0.0
1696254709368,-0.08496094,-0.11816406,0.98535156,0.125,-0.03125,-0.09375,0.0,0.0,0.0
1696254709402,-0.087890625,-0.12988281,0.98828125,-0.0625,0.03125,0.15625,0.0,0.0,0.0
1696254709458,-0.0859375,-0.13183594,0.9736328,0.125,-0.03125,0.03125,0.0,0.0,0.0
1696254709481,-0.08105469,-0.12890625,0.96972656,0.25,0.03125,-0.03125,0.0,0.0,0.0
1696254709525,-0.09082031,-0.123046875,0.98828125,-0.0625,0.09375,0.03125,-7.8125,16.375,-186.1875
1696254709563,-0.09082031,-0.125,0.984375,0.3125,-0.03125,-0.03125,0.0,0.0,0.0
1696254709605,-0.09082031,-0.13183594,0.9863281,0.25,0.21875,0.03125,0.0,0.0,0.0
1696254709638,-0.08984375,-0.13476562,0.9902344,0.375,0.09375,-0.03125,0.0,0.0,0.0
1696254709683,-0.091796875,-0.12890625,0.97558594,0.3125,0.03125,0.09375,0.0,0.0,0.0
1696254709728,-0.09082031,-0.123046875,0.9892578,0.0,0.09375,-0.03125,0.0,0.0,0.0
1696254709762,-0.080078125,-0.12695312,0.9736328,0.0625,0.03125,-0.03125,0.0,0.0,0.0
1696254709807,-0.08984375,-0.12597656,0.9814453,0.0625,0.09375,-0.03125,0.0,0.0,0.0
1696254709841,-0.091796875,-0.12890625,0.9824219,-0.0625,0.21875,-0.15625,0.0,0.0,0.0
1696254709887,-0.08984375,-0.13476562,0.98046875,0.0,0.21875,-0.21875,0.0,0.0,0.0
1696254709920,-0.09472656,-0.12695312,0.9736328,-0.1875,-0.09375,0.03125,0.0,0.0,0.0
1696254709965,-0.09375,-0.12597656,0.9794922,0.0,0.15625,0.09375,0.0,0.0,0.0
1696254709999,-0.09472656,-0.1328125,0.9902344,0.375,0.15625,0.21875,0.0,0.0,0.0
1696254710043,-0.091796875,-0.1171875,0.9921875,0.1875,0.03125,-0.09375,-8.375,15.5,-186.0625
1696254710088,-0.08886719,-0.125,0.98046875,-0.0625,-0.09375,-0.15625,0.0,0.0,0.0
1696254710122,-0.083984375,-0.13378906,0.9921875,0.0,0.15625,-0.03125,0.0,0.0,0.0
1696254710166,-0.087890625,-0.13085938,0.9892578,0.0625,-0.21875,0.09375,0.0,0.0,0.0
1696254710200,-0.09472656,-0.12597656,0.9765625,-0.0625,-0.09375,-0.09375,0.0,0.0,0.0
1696254710246,-0.09277344,-0.13183594,0.97558594,0.0625,-0.09375,-0.03125,0.0,0.0,0.0
1696254710279,-0.09082031,-0.12597656,0.98535156,-0.34375,-0.34375,0.21875,0.0,0.0,0.0
1696254710325,-0.087890625,-0.12109375,0.9794922,-0.3125,-0.21875,0.09375,0.0,0.0,0.0
1696254710358,-0.08496094,-0.12695312,0.9765625,-0.46875,-0.28125,0.09375,0.0,0.0,0.0
1696254710414,-0.087890625,-0.125,0.98339844,-0.46875,-0.28125,-0.15625,0.0,0.0,0.0
1696254710448,-0.09082031,-0.12597656,0.98339844,-0.34375,-0.09375,-0.09375,0.0,0.0,0.0
1696254710481,-0.08984375,-0.13378906,0.9873047,-0.25,-0.34375,0.03125,0.0,0.0,0.0
1696254710527,-0.08203125,-0.123046875,0.98828125,-0.25,-0.21875,0.03125,-8.125,17.0,-186.625
1696254710561,-0.09765625,-0.13378906,0.9970703,-0.3125,-0.28125,0.09375,0.0,0.0,0.0
1696254710605,-0.07910156,-0.13671875,0.98046875,-0.40625,-0.21875,0.09375,0.0,0.0,0.0
1696254710642,-0.08300781,-0.12402344,0.984375,-0.1875,-0.21875,0.09375,0.0,0.0,0.0
1696254710684,-0.08886719,-0.12695312,0.9824219,-0.59375,-0.09375,-0.21875,0.0,0.0,0.0
1696254710718,-0.08886719,-0.13085938,0.9902344,-0.25,0.03125,0.03125,0.0,0.0,0.0
1696254710763,-0.08984375,-0.12011719,0.96972656,-0.25,-0.03125,0.09375,0.0,0.0,0.0
1696254710808,-0.095703125,-0.12597656,0.9863281,-0.84375,-0.09375,0.09375,0.0,0.0,0.0
1696254710842,-0.091796875,-0.12988281,0.9765625,-0.1875,-0.78125,0.09375,0.0,0.0,0.0
1696254710887,-0.087890625,-0.1328125,0.98535156,-0.53125,-0.78125,-0.09375,0.0,0.0,0.0
1696254710920,-0.087890625,-0.12792969,0.98046875,-0.25,-0.28125,-0.03125,0.0,0.0,0.0
1696254710966,-0.09375,-0.12792969,0.9794922,-1.09375,-0.59375,-0.03125,0.0,0.0,0.0
1696254710999,-0.08496094,-0.1328125,0.97265625,-1.40625,-0.09375,-0.09375,0.0,0.0,0.0
1696254711044,-0.09082031,-0.12890625,0.99316406,-1.09375,0.15625,-0.34375,-8.375,16.5625,-186.0625
1696254711078,-0.08984375,-0.13378906,0.98828125,-0.59375,0.03125,-0.09375,0.0,0.0,0.0
1696254711123,-0.09082031,-0.13183594,0.9814453,-0.59375,-0.03125,0.09375,0.0,0.0,0.0
1696254711168,-0.087890625,-0.13378906,0.96972656,-0.53125,-0.21875,0.09375,0.0,0.0,0.0
1696254711201,-0.09375,-0.13964844,0.97753906,-0.59375,-0.15625,-0.15625,0.0,0.0,0.0
1696254711247,-0.099609375,-0.13378906,0.9794922,-0.84375,-0.28125,-0.03125,0.0,0.0,0.0
1696254711280,-0.08691406,-0.13671875,0.9951172,-0.90625,-1.375,-0.15625,0.0,0.0,0.0
1696254711325,-0.08984375,-0.12988281,0.97753906,0.0,-1.0625,0.28125,0.0,0.0,0.0
1696254711359,-0.08496094,-0.13085938,0.9785156,-0.53125,-0.28125,-0.03125,0.0,0.0,0.0
1696254711406,-0.0859375,-0.13671875,0.96972656,-0.0625,0.15625,-0.09375,0.0,0.0,0.0
1696254711437,-0.08691406,-0.1328125,0.9863281,-0.125,0.28125,0.09375,0.0,0.0,0.0
1696254711494,-0.08203125,-0.12890625,0.98339844,-0.1875,0.09375,0.03125,0.0,0.0,0.0
1696254711561,-0.08300781,-0.12988281,0.984375,-0.125,0.15625,-0.15625,-6.875,17.3125,-186.375
1696254711563,-0.09277344,-0.13671875,0.9873047,-0.53125,0.15625,0.03125,0.0,0.0,0.0
1696254711607,-0.09472656,-0.14160156,0.9863281,-0.3125,0.34375,0.15625,0.0,0.0,0.0
1696254711640,-0.09277344,-0.13671875,0.9970703,-1.40625,0.34375,-0.21875,0.0,0.0,0.0
1696254711685,-0.08496094,-0.1328125,0.98046875,0.1875,-0.15625,0.09375,0.0,0.0,0.0
1696254711719,-0.08691406,-0.13476562,0.9785156,-0.1875,-0.28125,0.09375,0.0,0.0,0.0
1696254711775,-0.08496094,-0.13183594,0.97753906,-0.125,-0.28125,0.03125,0.0,0.0,0.0
1696254711812,-0.08886719,-0.13769531,0.97753906,-0.0625,-0.46875,-0.09375,0.0,0.0,0.0
1696254711843,-0.091796875,-0.13378906,0.9970703,-0.1875,-0.53125,-0.03125,0.0,0.0,0.0
1696254711889,-0.08886719,-0.13378906,0.97753906,-0.25,-0.21875,0.03125,0.0,0.0,0.0
1696254711921,-0.09082031,-0.13085938,0.9892578,-0.1875,-0.21875,0.03125,0.0,0.0,0.0
1696254711968,-0.08886719,-0.1328125,0.9785156,-0.3125,-0.21875,-0.09375,0.0,0.0,0.0
1696254712001,-0.09082031,-0.13769531,0.9951172,-0.34375,-0.03125,-0.03125,0.0,0.0,0.0
1696254712045,-0.09472656,-0.1328125,0.9863281,-0.125,-0.03125,0.15625,-7.5,16.6875,-187.875
1696254712079,-0.08691406,-0.13671875,0.9921875,0.0625,-0.03125,0.03125,0.0,0.0,0.0
1696254712124,-0.08691406,-0.1328125,0.97753906,-0.3125,-0.15625,0.03125,0.0,0.0,0.0
1696254712169,-0.08300781,-0.12792969,0.98046875,-0.0625,-0.15625,0.03125,0.0,0.0,0.0
1696254712203,-0.08691406,-0.12695312,0.9921875,-0.34375,-0.40625,0.15625,0.0,0.0,0.0
1696254712248,-0.09277344,-0.13671875,0.98828125,-0.34375,-0.34375,-0.03125,0.0,0.0,0.0
1696254712282,-0.09082031,-0.13183594,0.97753906,-0.34375,0.03125,-0.09375,0.0,0.0,0.0
1696254712327,-0.09375,-0.12890625,0.98535156,-0.84375,0.09375,-0.09375,0.0,0.0,0.0
1696254712360,-0.08691406,-0.13964844,0.9873047,-0.53125,0.03125,-0.03125,0.0,0.0,0.0
1696254712405,-0.08496094,-0.13183594,0.9873047,-0.1875,-0.21875,-0.03125,0.0,0.0,0.0
1696254712439,-0.0859375,-0.12695312,0.98535156,-0.25,0.03125,-0.03125,0.0,0.0,0.0
1696254712484,-0.087890625,-0.13085938,0.9863281,0.3125,-0.09375,0.09375,0.0,0.0,0.0
1696254712529,-0.08496094,-0.13476562,0.98828125,0.4375,-0.21875,-0.03125,-8.5625,16.6875,-184.5625
1696254712563,-0.09082031,-0.12792969,0.9785156,0.1875,-0.03125,0.09375,0.0,0.0,0.0
1696254712608,-0.091796875,-0.13769531,0.98535156,0.0625,-0.03125,-0.03125,0.0,0.0,0.0
1696254712643,-0.08886719,-0.13378906,0.9863281,0.0,-0.28125,0.03125,0.0,0.0,0.0
1696254712687,-0.08984375,-0.12597656,0.98828125,-0.40625,-0.28125,-0.09375,0.0,0.0,0.0
1696254712720,-0.08496094,-0.13378906,0.98828125,-0.125,-0.03125,0.03125,0.0,0.0,0.0
1696254712765,-0.08984375,-0.12695312,0.98828125,-0.125,-0.09375,-0.03125,0.0,0.0,0.0
1696254712799,-0.08886719,-0.12792969,0.9892578,-0.1875,-0.28125,0.03125,0.0,0.0,0.0
1696254712844,-0.08691406,-0.13867188,0.9970703,-0.1875,-0.21875,-0.09375,0.0,0.0,0.0
1696254712889,-0.08984375,-0.13183594,0.98046875,-0.125,-0.09375,0.03125,0.0,0.0,0.0
1696254712927,-0.08984375,-0.13085938,0.9902344,0.0,-0.09375,0.09375,0.0,0.0,0.0
1696254712968,-0.09472656,-0.13574219,0.98046875,-0.0625,-0.09375,-0.03125,0.0,0.0,0.0
1696254713002,-0.09082031,-0.1328125,0.9863281,-0.1875,0.03125,0.09375,0.0,0.0,0.0
1696254713047,-0.0859375,-0.1328125,0.9970703,-0.125,-0.15625,-0.09375,-9.3125,17.125,-186.9375
1696254713080,-0.08691406,-0.140625,0.98339844,-0.59375,-0.15625,-0.03125,0.0,0.0,0.0
1696254713125,-0.078125,-0.1484375,0.98046875,0.0,0.09375,0.03125,0.0,0.0,0.0
1696254713159,-0.09472656,-0.1328125,1.0,-0.25,-0.09375,0.03125,0.0,0.0,0.0
1696254713214,-0.09082031,-0.13183594,0.9794922,0.0625,-0.15625,0.03125,0.0,0.0,0.0
1696254713249,-0.087890625,-0.13378906,0.9794922,0.3125,0.09375,0.03125,0.0,0.0,0.0
1696254713287,-0.08203125,-0.13085938,0.9892578,-0.125,-0.09375,0.28125,0.0,0.0,0.0
1696254713328,-0.091796875,-0.12890625,0.9794922,-0.0625,-0.59375,-0.09375,0.0,0.0,0.0
1696254713361,-0.091796875,-0.13476562,1.0,0.625,-0.03125,-0.15625,0.0,0.0,0.0
1696254713406,-0.08691406,-0.13964844,0.9873047,-0.25,-0.21875,-0.15625,0.0,0.0,0.0
1696254713440,-0.08886719,-0.12207031,0.9824219,0.0,-0.34375,0.28125,0.0,0.0,0.0
1696254713485,-0.09082031,-0.13183594,0.9921875,-0.0625,-0.09375,0.15625,0.0,0.0,0.0
1696254713519,-0.08496094,-0.12597656,0.97265625,0.125,0.09375,-0.15625,-9.75,17.5625,-188.125
1696254713564,-0.09082031,-0.1328125,0.9824219,0.0625,0.34375,-0.03125,0.0,0.0,0.0
1696254713609,-0.08984375,-0.13769531,0.9746094,0.125,0.28125,0.03125,0.0,0.0,0.0
1696254713643,-0.087890625,-0.13574219,0.9824219,-0.0625,0.03125,-0.03125,0.0,0.0,0.0
1696254713688,-0.087890625,-0.13085938,0.99121094,-0.125,-0.03125,-0.28125,0.0,0.0,0.0
1696254713721,-0.09375,-0.12988281,0.98339844,-0.71875,0.09375,0.03125,0.0,0.0,0.0
1696254713766,-0.09082031,-0.12890625,0.9794922,-0.3125,-0.09375,0.09375,0.0,0.0,0.0
1696254713811,-0.08886719,-0.13085938,0.98535156,-0.1875,-0.21875,-0.03125,0.0,0.0,0.0
1696254713845,-0.091796875,-0.12988281,0.96972656,-0.1875,-0.03125,-0.03125,0.0,0.0,0.0
1696254713879,-0.09277344,-0.12792969,0.9785156,-0.0625,0.03125,0.09375,0.0,0.0,0.0
1696254713924,-0.091796875,-0.12988281,0.9765625,-0.25,-0.09375,-0.03125,0.0,0.0,0.0
1696254713971,-0.09375,-0.13183594,0.9824219,0.0625,-0.03125,-0.03125,0.0,0.0,0.0
1696254714004,-0.09277344,-0.13183594,0.98535156,-0.125,-0.09375,-0.03125,0.0,0.0,0.0
1696254714048,-0.08886719,-0.12890625,0.9736328,-0.125,-0.03125,-0.03125,-8.6875,16.5625,-186.375
1696254714081,-0.08496094,-0.125,0.9785156,-0.25,-0.15625,0.03125,0.0,0.0,0.0
1696254714126,-0.09375,-0.123046875,0.98046875,-0.1875,-0.09375,-0.03125,0.0,0.0,0.0
1696254714160,-0.08496094,-0.123046875,0.9785156,-0.40625,-0.03125,-0.03125,0.0,0.0,0.0
1696254714206,-0.087890625,-0.123046875,0.9785156,-0.59375,-0.15625,-0.15625,0.0,0.0,0.0
1696254714239,-0.091796875,-0.13183594,0.98828125,-0.40625,-0.03125,0.03125,0.0,0.0,0.0
1696254714284,-0.08496094,-0.1328125,0.984375,-0.25,-0.09375,0.09375,0.0,0.0,0.0
1696254714329,-0.087890625,-0.125,0.9814453,-0.1875,-0.09375,0.15625,0.0,0.0,0.0
1696254714363,-0.087890625,-0.12890625,0.9902344,-0.34375,-0.21875,0.03125,0.0,0.0,0.0
1696254714441,-0.08496094,-0.13085938,0.9863281,-0.0625,-0.15625,-0.15625,0.0,0.0,0.0
1696254714443,-0.095703125,-0.12695312,0.96972656,-0.25,-0.28125,-0.03125,0.0,0.0,0.0
1696254714488,-0.095703125,-0.12988281,0.984375,-0.46875,-0.28125,0.09375,0.0,0.0,0.0
1696254714524,-0.08886719,-0.12988281,1.0,-0.65625,-0.40625,-0.09375,-8.6875,17.0,-187.125
1696254714565,-0.08886719,-0.13183594,0.9980469,-0.53125,-0.46875,-0.03125,0.0,0.0,0.0
1696254714599,-0.08300781,-0.125,0.9824219,-0.59375,-0.34375,-0.03125,0.0,0.0,0.0
1696254714656,-0.08886719,-0.13574219,0.96972656,-0.40625,-0.21875,-0.15625,0.0,0.0,0.0
1696254714690,-0.08691406,-0.13964844,0.9892578,-0.40625,-0.15625,-0.03125,0.0,0.0,0.0
1696254714724,-0.09277344,-0.13183594,0.9814453,-0.53125,-0.15625,0.09375,0.0,0.0,0.0
1696254714803,-0.087890625,-0.13476562,0.98339844,-0.40625,-0.21875,0.03125,0.0,0.0,0.0
1696254714805,-0.09082031,-0.12792969,0.99121094,-0.34375,-0.21875,-0.03125,0.0,0.0,0.0
1696254714847,-0.083984375,-0.13183594,0.9658203,-0.59375,-0.28125,0.03125,0.0,0.0,0.0
1696254714881,-0.087890625,-0.13183594,0.99316406,-0.46875,-0.28125,-0.15625,0.0,0.0,0.0
1696254714927,-0.083984375,-0.125,0.9824219,-0.34375,-0.21875,0.03125,0.0,0.0,0.0
1696254714960,-0.087890625,-0.13671875,0.97753906,-0.1875,-0.15625,0.09375,0.0,0.0,0.0
1696254715005,-0.08984375,-0.13085938,0.99121094,-0.0625,-0.15625,0.03125,0.0,0.0,0.0
1696254715049,-0.103515625,-0.140625,1.0029297,-1.40625,-2.40625,-0.40625,-8.125,16.5625,-187.125
1696254715083,-0.080078125,-0.13574219,1.0205078,-1.03125,-7.375,-0.46875,0.0,0.0,0.0
1696254715128,-0.0625,-0.12109375,0.95996094,1.71875,-9.875,-0.03125,0.0,0.0,0.0
1696254715161,-0.06347656,-0.111328125,0.9580078,1.59375,-6.5,-0.9375,0.0,0.0,0.0
1696254715207,-0.07519531,-0.13183594,1.0009766,1.03125,-6.3125,0.03125,0.0,0.0,0.0
1696254715240,-0.08300781,-0.15039062,0.9765625,2.21875,-12.0,0.75,0.0,0.0,0.0
1696254715285,-0.053710938,-0.11816406,0.9736328,3.125,-12.125,0.28125,0.0,0.0,0.0
1696254715319,-0.041015625,-0.115234375,0.98828125,1.28125,-5.71875,0.21875,0.0,0.0,0.0
1696254715364,-0.043945312,-0.15136719,1.0146484,9.34375,-9.4375,0.625,0.0,0.0,0.0
1696254715412,-0.02734375,-0.12792969,0.9765625,3.90625,-12.84375,0.03125,0.0,0.0,0.0
1696254715443,-0.041992188,-0.10058594,0.9824219,-0.59375,-11.8125,-0.21875,0.0,0.0,0.0
1696254715487,-0.0048828125,-0.1015625,0.9794922,1.90625,-8.28125,-0.34375,0.0,0.0,0.0
1696254715521,-0.013671875,-0.1171875,0.9824219,-0.65625,-5.90625,-0.40625,-5.6875,17.4375,-186.1875
1696254715567,-0.021484375,-0.11328125,0.9824219,-0.125,-5.09375,0.09375,0.0,0.0,0.0
1696254715600,-9.765625E-4,-0.1171875,0.9892578,-0.3125,-5.09375,-0.28125,0.0,0.0,0.0
1696254715645,-0.001953125,-0.1171875,0.98535156,-0.46875,-4.3125,-0.21875,0.0,0.0,0.0
1696254715679,-9.765625E-4,-0.103515625,0.97753906,-0.34375,-1.5625,-0.46875,0.0,0.0,0.0
1696254715724,-0.0107421875,-0.10644531,0.9824219,-0.53125,-0.03125,-0.09375,0.0,0.0,0.0
1696254715770,0.0029296875,-0.10546875,0.9863281,0.125,0.8125,0.40625,0.0,0.0,0.0
1696254715803,0.0029296875,-0.103515625,0.9921875,0.0625,1.84375,0.34375,0.0,0.0,0.0
1696254715848,-0.025390625,-0.125,0.9863281,0.5625,1.90625,0.28125,0.0,0.0,0.0
1696254715881,-9.765625E-4,-0.11621094,0.96972656,2.3125,1.375,-0.53125,0.0,0.0,0.0
1696254715927,-0.00390625,-0.103515625,0.9902344,1.15625,2.15625,0.21875,0.0,0.0,0.0
1696254715961,-0.00390625,-0.115234375,0.9765625,1.40625,0.09375,0.46875,0.0,0.0,0.0
1696254716005,-0.0078125,-0.12109375,1.0039062,-1.09375,0.4375,-0.03125,0.0,0.0,0.0
1696254716050,-0.01171875,-0.10449219,0.9707031,0.875,1.0625,0.40625,-4.8125,16.25,-187.125
1696254716084,-0.013671875,-0.107421875,0.98339844,0.25,-0.21875,-0.34375,0.0,0.0,0.0
1696254716129,-0.001953125,-0.10546875,0.9892578,-1.8125,1.6875,-0.59375,0.0,0.0,0.0
1696254716163,-0.017578125,-0.1015625,0.9824219,-0.65625,2.71875,-0.53125,0.0,0.0,0.0
1696254716208,-0.01953125,-0.107421875,0.99609375,0.375,2.28125,-0.28125,0.0,0.0,0.0
1696254716241,-0.013671875,-0.11035156,0.9980469,-1.65625,2.09375,-0.71875,0.0,0.0,0.0
1696254716297,-0.01953125,-0.115234375,0.9765625,-2.0,2.46875,-0.28125,0.0,0.0,0.0
1696254716320,-0.015625,-0.111328125,1.0039062,-0.65625,-0.09375,-0.28125,0.0,0.0,0.0
1696254716365,-0.016601562,-0.115234375,0.97558594,-1.65625,0.4375,-0.46875,0.0,0.0,0.0
1696254716399,-0.021484375,-0.11230469,0.99316406,-2.5,2.40625,-0.46875,0.0,0.0,0.0
1696254716444,-0.016601562,-0.119140625,1.0009766,-0.1875,0.21875,0.03125,0.0,0.0,0.0
1696254716489,-0.0234375,-0.11230469,1.0,-1.03125,-0.21875,-0.03125,0.0,0.0,0.0
1696254716523,-0.018554688,-0.11425781,0.9863281,-1.28125,1.1875,0.21875,-5.375,16.375,-184.875
1696254716568,-0.0234375,-0.12109375,0.99316406,-0.1875,-0.53125,0.03125,0.0,0.0,0.0
1696254716601,-0.021484375,-0.119140625,0.9941406,-0.40625,-0.21875,0.09375,0.0,0.0,0.0
1696254716650,-0.026367188,-0.1171875,0.99316406,-0.40625,0.5,-0.03125,0.0,0.0,0.0
1696254716680,-0.013671875,-0.11328125,0.984375,-0.34375,0.34375,0.03125,0.0,0.0,0.0
1696254716725,-0.022460938,-0.11621094,0.9941406,-0.125,-0.59375,0.21875,0.0,0.0,0.0
1696254716759,-0.020507812,-0.1171875,0.9716797,-0.71875,0.15625,0.15625,0.0,0.0,0.0
1696254716804,-0.0234375,-0.119140625,0.9970703,0.125,-0.15625,0.21875,0.0,0.0,0.0
1696254716849,-0.01953125,-0.109375,0.99902344,-0.25,-0.53125,0.15625,0.0,0.0,0.0
1696254716883,-0.0234375,-0.1171875,0.99121094,-0.59375,-0.09375,0.09375,0.0,0.0,0.0
1696254716928,-0.0126953125,-0.107421875,0.9863281,0.25,-0.78125,0.34375,0.0,0.0,0.0
1696254716961,-0.016601562,-0.1171875,0.9824219,-0.40625,-0.9375,0.15625,0.0,0.0,0.0
1696254717007,-0.021484375,-0.119140625,0.9746094,-1.09375,0.15625,0.09375,0.0,0.0,0.0
1696254717043,-0.017578125,-0.11621094,0.9814453,-0.40625,0.8125,0.15625,-4.5,16.5625,-186.375
1696254717096,-0.0234375,-0.12109375,1.0058594,-0.46875,-0.40625,-0.09375,0.0,0.0,0.0
1696254717119,-0.021484375,-0.1328125,0.9873047,-0.65625,-0.21875,0.03125,0.0,0.0,0.0
1696254717164,-0.015625,-0.107421875,0.9794922,-0.46875,0.5,0.09375,0.0,0.0,0.0
1696254717209,-0.025390625,-0.1171875,0.9902344,0.0,-0.53125,0.40625,0.0,0.0,0.0
1696254717243,-0.015625,-0.119140625,0.9892578,-0.1875,-0.40625,0.15625,0.0,0.0,0.0
1696254717288,-0.016601562,-0.11328125,0.984375,-0.53125,0.09375,-0.03125,0.0,0.0,0.0
1696254717323,-0.018554688,-0.12011719,0.99121094,-0.3125,0.28125,-0.03125,0.0,0.0,0.0
1696254717366,-0.022460938,-0.115234375,0.9970703,-0.1875,-0.21875,0.15625,0.0,0.0,0.0
1696254717400,-0.020507812,-0.11425781,0.98339844,-0.53125,-0.28125,0.15625,0.0,0.0,0.0
1696254717445,-0.015625,-0.119140625,0.98046875,-0.1875,0.03125,0.09375,0.0,0.0,0.0
1696254717479,-0.022460938,-0.12597656,0.9824219,0.125,-0.40625,0.21875,0.0,0.0,0.0
1696254717524,-0.013671875,-0.11425781,1.0039062,-0.1875,-0.40625,0.21875,-5.875,17.0,-186.0625
1696254717568,-0.021484375,-0.111328125,0.97265625,-0.1875,0.21875,0.09375,0.0,0.0,0.0
1696254717603,-0.015625,-0.11230469,0.99609375,-0.1875,-0.15625,0.21875,0.0,0.0,0.0
1696254717648,-0.01953125,-0.11816406,0.98828125,-0.25,-0.34375,0.15625,0.0,0.0,0.0
1696254717681,-0.025390625,-0.11621094,0.9902344,-0.3125,-0.34375,0.09375,0.0,0.0,0.0
1696254717726,-0.025390625,-0.1171875,0.984375,-0.40625,0.28125,0.21875,0.0,0.0,0.0
1696254717760,-0.029296875,-0.109375,0.99316406,0.0625,0.03125,0.21875,0.0,0.0,0.0
1696254717805,-0.018554688,-0.12402344,0.98535156,-0.1875,-0.59375,0.21875,0.0,0.0,0.0
1696254717839,-0.017578125,-0.11425781,0.98535156,-0.40625,0.09375,0.09375,0.0,0.0,0.0
1696254717888,-0.020507812,-0.119140625,0.9892578,-0.53125,0.625,-0.03125,0.0,0.0,0.0
1696254717929,-0.026367188,-0.12109375,0.9824219,-0.53125,0.5625,0.09375,0.0,0.0,0.0
1696254717968,-0.0234375,-0.12402344,0.9902344,-0.125,-0.65625,0.09375,0.0,0.0,0.0
1696254718009,-0.028320312,-0.12109375,0.9746094,-0.65625,0.6875,-0.03125,0.0,0.0,0.0
1696254718041,-0.021484375,-0.115234375,0.9941406,-0.125,0.40625,0.15625,-4.5,17.3125,-186.375
1696254718098,-0.0234375,-0.123046875,0.9892578,-0.3125,-0.90625,-0.09375,0.0,0.0,0.0
1696254718120,-0.0234375,-0.123046875,0.97753906,-1.15625,0.28125,0.03125,0.0,0.0,0.0
1696254718165,-0.016601562,-0.10839844,0.9951172,-0.65625,0.625,-0.03125,0.0,0.0,0.0
1696254718199,-0.020507812,-0.115234375,0.9873047,-0.3125,-0.65625,-0.21875,0.0,0.0,0.0
1696254718244,-0.022460938,-0.119140625,0.98339844,-0.59375,-0.15625,0.09375,0.0,0.0,0.0
1696254718289,-0.025390625,-0.11621094,0.98339844,-0.3125,0.28125,0.09375,0.0,0.0,0.0
1696254718323,-0.029296875,-0.11621094,0.9873047,-0.40625,0.15625,-0.03125,0.0,0.0,0.0
1696254718368,-0.018554688,-0.12109375,0.9785156,-0.0625,-0.40625,0.09375,0.0,0.0,0.0
1696254718401,-0.0234375,-0.12207031,0.99609375,-0.25,-0.15625,0.03125,0.0,0.0,0.0
1696254718447,-0.021484375,-0.123046875,0.9814453,-0.125,0.15625,0.09375,0.0,0.0,0.0
1696254718480,-0.017578125,-0.11816406,0.9921875,-0.59375,0.5,0.09375,0.0,0.0,0.0
1696254718525,-0.02734375,-0.12402344,0.9873047,-0.1875,-0.40625,0.21875,-5.875,16.25,-187.125
1696254718559,-0.028320312,-0.12890625,0.98046875,-0.59375,-0.03125,0.09375,0.0,0.0,0.0
1696254718604,-0.028320312,-0.11816406,0.98339844,-0.46875,0.40625,-0.03125,0.0,0.0,0.0
1696254718649,-0.015625,-0.119140625,0.9873047,-0.25,-0.28125,0.15625,0.0,0.0,0.0
1696254718683,-0.018554688,-0.12109375,0.9863281,-0.1875,-0.53125,0.15625,0.0,0.0,0.0
1696254718728,-0.02734375,-0.12597656,0.98339844,-0.25,0.09375,0.09375,0.0,0.0,0.0
1696254718761,-0.024414062,-0.12011719,0.9863281,-0.3125,0.21875,0.03125,0.0,0.0,0.0
1696254718823,-0.021484375,-0.12207031,0.9892578,-0.46875,0.03125,0.15625,0.0,0.0,0.0
1696254718851,-0.025390625,-0.12011719,0.99316406,-0.25,0.21875,0.03125,0.0,0.0,0.0
1696254718885,-0.021484375,-0.125,0.9921875,-0.40625,0.21875,0.09375,0.0,0.0,0.0
1696254718930,-0.022460938,-0.12597656,0.99121094,-0.40625,0.34375,0.09375,0.0,0.0,0.0
1696254718964,-0.026367188,-0.115234375,0.9794922,-0.125,-0.40625,0.15625,0.0,0.0,0.0
1696254719009,-0.03125,-0.1171875,0.98046875,-0.40625,-0.28125,0.21875,0.0,0.0,0.0
1696254719042,-0.026367188,-0.12597656,0.9980469,-0.3125,-0.09375,0.21875,-5.375,17.125,-185.125
1696254719099,-0.021484375,-0.12402344,0.9902344,-0.125,-0.53125,0.03125,0.0,0.0,0.0
1696254719121,-0.015625,-0.11816406,0.9970703,-0.40625,0.15625,0.03125,0.0,0.0,0.0
1696254719166,-0.022460938,-0.11425781,0.9814453,-0.34375,0.28125,0.09375,0.0,0.0,0.0
1696254719201,-0.021484375,-0.125,0.99609375,-0.34375,0.09375,-0.09375,0.0,0.0,0.0
1696254719245,-0.022460938,-0.12695312,0.9892578,-0.1875,-0.03125,0.21875,0.0,0.0,0.0
1696254719279,-0.025390625,-0.12011719,0.98046875,0.0,-0.59375,0.15625,0.0,0.0,0.0
1696254719324,-0.0234375,-0.119140625,0.98535156,-0.46875,-0.09375,0.03125,0.0,0.0,0.0
1696254719369,-0.029296875,-0.119140625,0.984375,-0.25,0.40625,0.21875,0.0,0.0,0.0
1696254719402,-0.025390625,-0.12109375,0.98339844,-0.125,-0.46875,0.15625,0.0,0.0,0.0
1696254719448,-0.025390625,-0.11816406,0.9892578,-0.3125,-0.21875,0.09375,0.0,0.0,0.0
1696254719481,-0.020507812,-0.12695312,0.99316406,-0.1875,0.09375,0.09375,0.0,0.0,0.0
1696254719527,-0.028320312,-0.11816406,0.9970703,-0.40625,0.15625,0.15625,-5.25,15.8125,-185.75
1696254719572,-0.025390625,-0.119140625,0.9941406,0.0,-1.0,0.09375,0.0,0.0,0.0
1696254719605,-0.034179688,-0.123046875,0.98339844,-0.40625,0.03125,-0.21875,0.0,0.0,0.0
1696254719684,-0.033203125,-0.11816406,0.9892578,-0.40625,-0.03125,0.21875,0.0,0.0,0.0
1696254719685,-0.015625,-0.123046875,0.984375,-0.46875,-0.53125,0.21875,0.0,0.0,0.0
1696254719728,-0.017578125,-0.12695312,0.9814453,-0.53125,0.40625,0.09375,0.0,0.0,0.0
1696254719763,-0.020507812,-0.12109375,0.9941406,0.0625,0.09375,0.15625,0.0,0.0,0.0
1696254719811,-0.028320312,-0.12402344,0.9951172,-0.46875,-0.03125,0.15625,0.0,0.0,0.0
1696254719841,-0.02734375,-0.1171875,0.9873047,-0.40625,-0.15625,0.21875,0.0,0.0,0.0
1696254719887,-0.030273438,-0.12597656,0.98828125,0.125,-0.15625,0.09375,0.0,0.0,0.0
1696254719931,-0.02734375,-0.11816406,0.9746094,-0.3125,-0.46875,0.09375,0.0,0.0,0.0
1696254719965,-0.033203125,-0.125,0.9736328,-0.25,0.03125,0.03125,0.0,0.0,0.0
1696254719999,-0.01953125,-0.1171875,0.98535156,-0.1875,-0.34375,0.21875,0.0,0.0,0.0
1696254720045,-0.038085938,-0.123046875,0.97753906,-0.46875,-0.28125,0.09375,-6.125,16.0625,-187.25
1696254720089,-0.025390625,-0.125,0.9794922,-0.34375,0.34375,0.28125,0.0,0.0,0.0
1696254720123,-0.021484375,-0.109375,0.9970703,-0.25,-0.09375,0.09375,0.0,0.0,0.0
1696254720168,-0.028320312,-0.119140625,0.9902344,-0.53125,-0.15625,0.03125,0.0,0.0,0.0
1696254720201,-0.01953125,-0.123046875,0.98535156,-0.34375,-0.21875,0.28125,0.0,0.0,0.0
1696254720247,-0.034179688,-0.1171875,0.9902344,0.125,-0.78125,0.09375,0.0,0.0,0.0
1696254720291,-0.0234375,-0.11621094,1.0,-0.1875,0.09375,0.09375,0.0,0.0,0.0
1696254720325,-0.028320312,-0.11816406,0.98828125,-0.1875,-0.28125,0.21875,0.0,0.0,0.0
1696254720360,-0.029296875,-0.12109375,0.99609375,-0.125,-0.53125,0.09375,0.0,0.0,0.0
1696254720404,-0.01953125,-0.12011719,0.9794922,-0.34375,-0.09375,0.15625,0.0,0.0,0.0
1696254720449,-0.025390625,-0.12109375,0.9765625,-0.0625,-0.34375,0.15625,0.0,0.0,0.0
1696254720484,-0.022460938,-0.11425781,0.9892578,-0.3125,-0.15625,-0.03125,0.0,0.0,0.0
1696254720528,-0.029296875,-0.12207031,0.9716797,-0.25,-0.15625,0.28125,-4.5,18.3125,-185.75
1696254720562,-0.01953125,-0.119140625,0.99316406,0.0,-0.40625,0.15625,0.0,0.0,0.0
1696254720617,-0.025390625,-0.11425781,0.99316406,-0.1875,-0.21875,0.09375,0.0,0.0,0.0
1696254720641,-0.024414062,-0.12988281,0.98828125,-0.3125,0.21875,0.15625,0.0,0.0,0.0
1696254720686,-0.017578125,-0.12011719,0.9980469,-0.125,0.03125,0.21875,0.0,0.0,0.0
1696254720719,-0.020507812,-0.12011719,0.99121094,-0.0625,-0.40625,0.21875,0.0,0.0,0.0
1696254720765,-0.02734375,-0.12011719,0.9902344,-0.34375,-0.28125,0.03125,0.0,0.0,0.0
1696254720809,-0.026367188,-0.12207031,1.0,-0.34375,0.4375,-0.09375,0.0,0.0,0.0
1696254720844,-0.025390625,-0.1171875,0.9970703,0.1875,-0.40625,0.28125,0.0,0.0,0.0
1696254720894,-0.032226562,-0.119140625,0.99121094,-0.1875,-0.78125,0.09375,0.0,0.0,0.0
1696254720922,-0.033203125,-0.115234375,0.9863281,0.0,0.03125,0.03125,0.0,0.0,0.0
1696254720967,-0.016601562,-0.12011719,0.9902344,-0.125,0.03125,-0.03125,0.0,0.0,0.0
1696254721000,-0.030273438,-0.119140625,0.98046875,-0.1875,-0.34375,0.21875,0.0,0.0,0.0
1696254721045,-0.030273438,-0.12011719,0.98046875,-0.15625,0.125,-0.0625,-4.625,17.125,-186.5
1696254721079,-0.021484375,-0.12402344,0.99316406,-0.40625,0.6875,-0.34375,0.0,0.0,0.0
1696254721124,-0.02734375,-0.12011719,0.9951172,-0.09375,0.0625,-0.0625,0.0,0.0,0.0
1696254721169,-0.022460938,-0.11621094,0.99121094,-0.21875,0.1875,-0.0625,0.0,0.0,0.0
1696254721214,-0.02734375,-0.115234375,0.97265625,-0.03125,0.125,-0.0625,0.0,0.0,0.0
1696254721249,-0.026367188,-0.12109375,0.99121094,-0.03125,-0.0625,-0.125,0.0,0.0,0.0
1696254721281,-0.022460938,-0.11621094,0.984375,-0.09375,-0.0625,-0.1875,0.0,0.0,0.0
1696254721327,-0.028320312,-0.115234375,0.98535156,-0.09375,0.375,0.0625,0.0,0.0,0.0
1696254721361,-0.030273438,-0.1171875,0.9892578,0.09375,-0.1875,-0.125,0.0,0.0,0.0
1696254721405,-0.013671875,-0.12011719,0.9873047,-0.21875,0.375,-0.21875,0.0,0.0,0.0
1696254721439,-0.018554688,-0.119140625,0.9921875,-0.59375,0.9375,-0.21875,0.0,0.0,0.0
1696254721484,-0.01953125,-0.11621094,0.99609375,0.09375,0.125,-0.0625,0.0,0.0,0.0
1696254721529,-0.029296875,-0.11621094,0.99609375,-0.09375,-0.125,0.0,-3.4375,16.5625,-186.0625
1696254721563,-0.026367188,-0.1171875,0.99316406,-0.34375,0.6875,-0.125,0.0,0.0,0.0
1696254721608,-0.030273438,-0.11425781,0.9902344,-0.15625,0.25,-0.28125,0.0,0.0,0.0
1696254721641,-0.022460938,-0.11621094,1.0,0.15625,-0.0625,-0.125,0.0,0.0,0.0
1696254721687,-0.03125,-0.123046875,0.98046875,0.03125,-0.125,0.125,0.0,0.0,0.0
1696254721721,-0.01953125,-0.12402344,0.9863281,-0.09375,-0.1875,0.0625,0.0,0.0,0.0
1696254721765,-0.024414062,-0.125,0.9863281,-0.03125,0.1875,-0.0625,0.0,0.0,0.0
1696254721798,-0.0234375,-0.12597656,0.984375,0.03125,0.0625,-0.21875,0.0,0.0,0.0
1696254721844,-0.028320312,-0.11816406,0.98046875,-0.28125,0.4375,-0.125,0.0,0.0,0.0
1696254721889,-0.0234375,-0.115234375,0.98828125,-0.09375,-0.125,0.0625,0.0,0.0,0.0
1696254721922,-0.032226562,-0.123046875,0.9941406,-0.03125,0.1875,-0.0625,0.0,0.0,0.0
1696254721968,-0.029296875,-0.12207031,0.9941406,0.03125,0.0625,0.125,0.0,0.0,0.0
1696254722001,-0.022460938,-0.12207031,0.98535156,-0.09375,-0.21875,-0.21875,0.0,0.0,0.0
1696254722046,-0.022460938,-0.11621094,0.9921875,-0.28125,0.5,-0.1875,-4.625,17.75,-186.1875
1696254722092,-0.021484375,-0.11425781,0.98828125,0.25,-0.1875,-0.0625,0.0,0.0,0.0
1696254722125,-0.022460938,-0.11621094,0.97753906,-0.03125,-0.0625,0.0,0.0,0.0,0.0
1696254722159,-0.016601562,-0.12402344,0.9794922,0.03125,0.1875,-0.125,0.0,0.0,0.0
1696254722204,-0.02734375,-0.12695312,0.9873047,-0.09375,0.3125,-0.0625,0.0,0.0,0.0
1696254722249,-0.026367188,-0.12109375,0.9863281,0.03125,-0.65625,-0.1875,0.0,0.0,0.0
1696254722283,-0.030273438,-0.12207031,0.9765625,-0.21875,0.3125,0.0,0.0,0.0,0.0
1696254722328,-0.017578125,-0.1171875,0.98828125,-0.15625,0.3125,-0.1875,0.0,0.0,0.0
1696254722361,-0.028320312,-0.1171875,0.9785156,-0.03125,0.25,-0.0625,0.0,0.0,0.0
1696254722406,-0.026367188,-0.12792969,0.9746094,-0.34375,0.6875,-0.0625,0.0,0.0,0.0
1696254722440,-0.03125,-0.123046875,0.99121094,0.03125,0.125,0.0,0.0,0.0,0.0
1696254722486,-0.0234375,-0.125,0.98339844,-0.15625,-0.1875,-0.125,0.0,0.0,0.0
1696254722531,-0.017578125,-0.119140625,0.9863281,-0.15625,0.3125,0.0,-4.9375,16.6875,-186.1875
1696254722563,-0.013671875,-0.12109375,0.9951172,0.4375,-0.40625,-0.0625,0.0,0.0,0.0
1696254722609,-0.029296875,-0.123046875,0.9736328,0.03125,-0.21875,-0.0625,0.0,0.0,0.0
1696254722642,-0.0234375,-0.1171875,0.984375,-0.03125,-0.1875,0.0625,0.0,0.0,0.0
1696254722688,-0.034179688,-0.125,0.99121094,-0.34375,0.5625,-0.125,0.0,0.0,0.0
1696254722721,-0.028320312,-0.1171875,0.9824219,0.03125,0.125,0.0625,0.0,0.0,0.0
1696254722769,-0.028320312,-0.12695312,0.9824219,-0.15625,0.125,-0.125,0.0,0.0,0.0
1696254722805,-0.025390625,-0.12890625,0.98046875,-0.15625,0.375,-0.0625,0.0,0.0,0.0
1696254722847,-0.021484375,-0.12597656,0.97558594,0.09375,-0.28125,0.0,0.0,0.0,0.0
1696254722879,-0.021484375,-0.123046875,0.9863281,-0.03125,-0.28125,0.0,0.0,0.0,0.0
1696254722924,-0.030273438,-0.12207031,0.9707031,-0.28125,0.3125,0.0625,0.0,0.0,0.0
1696254722969,-0.024414062,-0.11816406,0.98535156,0.03125,-0.0625,0.0,0.0,0.0,0.0
1696254723003,-0.01953125,-0.12988281,0.9863281,0.09375,-0.21875,0.0,0.0,0.0,0.0
1696254723048,-0.028320312,-0.12109375,0.96875,-0.21875,0.3125,-0.0625,-4.8125,18.0625,-186.0625
1696254723081,-0.03515625,-0.115234375,0.9921875,0.15625,0.0625,-0.125,0.0,0.0,0.0
1696254723126,-0.025390625,-0.12109375,0.9638672,-0.03125,-0.40625,-0.0625,0.0,0.0,0.0
1696254723161,-0.028320312,-0.12207031,0.9902344,-0.15625,0.3125,-0.0625,0.0,0.0,0.0
1696254723205,-0.02734375,-0.11425781,0.9765625,0.1875,-0.1875,-0.125,0.0,0.0,0.0
1696254723239,-0.028320312,-0.11035156,0.98339844,-0.34375,0.25,-0.125,0.0,0.0,0.0
1696254723284,-0.030273438,-0.125,0.9892578,-0.09375,0.4375,0.1875,0.0,0.0,0.0
1696254723329,-0.025390625,-0.12109375,0.9941406,0.03125,-0.59375,0.0,0.0,0.0,0.0
1696254723363,-0.025390625,-0.12109375,0.9785156,-0.15625,0.1875,-0.125,0.0,0.0,0.0
1696254723408,-0.025390625,-0.12597656,0.9941406,-0.09375,0.0625,0.0,0.0,0.0,0.0
1696254723441,-0.036132812,-0.12597656,0.9941406,0.15625,-0.65625,-0.0625,0.0,0.0,0.0
1696254723486,-0.026367188,-0.12695312,0.984375,-0.09375,-0.1875,-0.0625,0.0,0.0,0.0
1696254723522,-0.025390625,-0.12207031,0.9892578,0.03125,0.0,-0.0625,-5.375,15.3125,-187.5625
1696254723565,-0.025390625,-0.123046875,0.9873047,0.03125,-0.21875,-0.0625,0.0,0.0,0.0
1696254723598,-0.03125,-0.1171875,0.984375,0.15625,-0.1875,0.0625,0.0,0.0,0.0
1696254723644,-0.026367188,-0.125,0.97558594,-0.15625,0.0625,0.0625,0.0,0.0,0.0
1696254723690,-0.025390625,-0.12207031,0.9902344,-0.09375,0.125,-0.125,0.0,0.0,0.0
1696254723723,-0.024414062,-0.125,0.9951172,0.03125,-0.1875,0.0,0.0,0.0,0.0
1696254723768,-0.024414062,-0.13378906,0.98828125,0.03125,-0.0625,0.0,0.0,0.0,0.0
1696254723801,-0.029296875,-0.12109375,0.9892578,-0.15625,0.1875,0.0,0.0,0.0,0.0
1696254723847,-0.017578125,-0.12890625,0.984375,0.03125,-0.40625,-0.1875,0.0,0.0,0.0
1696254723881,-0.030273438,-0.12207031,0.97558594,-0.34375,0.5625,-0.1875,0.0,0.0,0.0
1696254723925,-0.025390625,-0.11816406,0.98535156,-0.09375,0.1875,0.0625,0.0,0.0,0.0
1696254723959,-0.030273438,-0.11425781,0.9941406,-0.09375,-0.34375,-0.125,0.0,0.0,0.0
1696254724003,-0.034179688,-0.1171875,0.98535156,-0.28125,0.375,0.0625,0.0,0.0,0.0
1696254724049,-0.026367188,-0.12011719,1.0029297,-0.09375,0.1875,0.0625,-5.25,17.5625,-186.0625
1696254724083,-0.028320312,-0.12792969,0.9951172,-0.03125,-0.21875,-0.0625,0.0,0.0,0.0
1696254724128,-0.016601562,-0.11035156,0.99121094,-0.34375,1.0625,-0.34375,0.0,0.0,0.0
1696254724161,-0.026367188,-0.123046875,0.9902344,-0.03125,0.875,-0.1875,0.0,0.0,0.0
1696254724206,-0.026367188,-0.115234375,0.9902344,0.1875,-0.34375,-0.0625,0.0,0.0,0.0
1696254724244,-0.028320312,-0.12890625,0.984375,-0.15625,0.0,-0.125,0.0,0.0,0.0
1696254724285,-0.029296875,-0.119140625,0.98046875,0.09375,0.3125,-0.1875,0.0,0.0,0.0
1696254724319,-0.020507812,-0.12207031,0.9863281,0.15625,-0.40625,-0.1875,0.0,0.0,0.0
1696254724364,-0.036132812,-0.1171875,0.9902344,0.03125,-0.125,0.0625,0.0,0.0,0.0
1696254724409,-0.030273438,-0.12890625,0.9785156,0.09375,0.3125,-0.21875,0.0,0.0,0.0
1696254724443,-0.022460938,-0.125,0.99609375,-0.15625,0.5,-0.28125,0.0,0.0,0.0
1696254724489,-0.028320312,-0.1171875,0.9746094,0.1875,0.125,-0.0625,0.0,0.0,0.0
1696254724521,-0.02734375,-0.107421875,0.97558594,0.09375,-0.0625,-0.125,-4.9375,16.6875,-185.875
1696254724566,-0.0126953125,-0.123046875,0.98828125,0.15625,0.375,-0.1875,0.0,0.0,0.0
1696254724601,-0.032226562,-0.12792969,1.0,0.03125,0.1875,-0.125,0.0,0.0,0.0
1696254724645,-0.026367188,-0.115234375,0.984375,0.03125,0.0625,-0.125,0.0,0.0,0.0
1696254724679,-0.022460938,-0.11425781,0.9736328,-0.15625,0.6875,-0.1875,0.0,0.0,0.0
1696254724724,-0.029296875,-0.123046875,0.984375,0.1875,0.3125,-0.125,0.0,0.0,0.0
1696254724769,-0.028320312,-0.12011719,0.9785156,-0.15625,0.5,-0.28125,0.0,0.0,0.0
1696254724803,-0.026367188,-0.12011719,0.9951172,0.3125,-0.0625,-0.125,0.0,0.0,0.0
1696254724848,-0.0234375,-0.125,0.9902344,0.03125,0.0,-0.28125,0.0,0.0,0.0
1696254724881,-0.021484375,-0.12890625,0.98046875,0.03125,0.4375,-0.0625,0.0,0.0,0.0
1696254724926,-0.024414062,-0.1328125,0.98535156,0.1875,0.0625,0.0,0.0,0.0,0.0
1696254724960,-0.025390625,-0.12597656,0.98828125,0.0,-0.34375,-0.09375,0.0,0.0,0.0
1696254725005,-0.029296875,-0.109375,0.9863281,-0.03125,0.21875,-0.09375,0.0,0.0,0.0
1696254725050,-0.025390625,-0.12011719,0.9951172,0.0625,0.21875,-0.03125,-5.375,17.75,-186.1875
1696254725084,-0.032226562,-0.12011719,0.9951172,0.0,-0.15625,0.03125,0.0,0.0,0.0
1696254725129,-0.026367188,-0.119140625,0.99121094,-0.03125,0.09375,-0.03125,0.0,0.0,0.0
1696254725163,-0.025390625,-0.12597656,0.9824219,-0.03125,0.3125,-0.1875,0.0,0.0,0.0
1696254725209,-0.026367188,-0.12792969,0.98339844,-0.03125,0.15625,0.09375,0.0,0.0,0.0
1696254725241,-0.032226562,-0.12011719,0.984375,-0.09375,0.03125,-0.09375,0.0,0.0,0.0
1696254725286,-0.02734375,-0.12109375,0.9902344,0.0625,-0.09375,-0.03125,0.0,0.0,0.0
1696254725320,-0.029296875,-0.123046875,0.9902344,0.1875,-0.15625,-0.09375,0.0,0.0,0.0
1696254725365,-0.029296875,-0.125,0.9785156,0.3125,-0.28125,-0.03125,0.0,0.0,0.0
1696254725399,-0.028320312,-0.119140625,0.9707031,-0.03125,-0.53125,0.09375,0.0,0.0,0.0
1696254725443,-0.030273438,-0.115234375,0.98535156,-0.09375,0.21875,0.09375,0.0,0.0,0.0
1696254725523,-0.018554688,-0.12890625,0.9863281,0.1875,-0.03125,-0.03125,-4.8125,15.5,-185.3125
1696254725524,-0.028320312,-0.119140625,0.9921875,0.0,-0.46875,-0.25,0.0,0.0,0.0
1696254725568,-0.017578125,-0.123046875,0.9892578,0.125,-0.03125,-0.125,0.0,0.0,0.0
1696254725601,-0.01953125,-0.12597656,0.99121094,0.375,-0.53125,-0.03125,0.0,0.0,0.0
1696254725646,-0.026367188,-0.12988281,0.99316406,0.125,-0.40625,0.15625,0.0,0.0,0.0
1696254725680,-0.021484375,-0.13085938,0.9736328,0.0625,0.375,0.09375,0.0,0.0,0.0
1696254725725,-0.030273438,-0.12207031,0.97753906,0.125,0.03125,-0.09375,0.0,0.0,0.0
1696254725759,-0.022460938,-0.11621094,0.9863281,-0.03125,-0.09375,-0.3125,0.0,0.0,0.0
1696254725804,-0.030273438,-0.11621094,0.9863281,-0.03125,0.625,-0.09375,0.0,0.0,0.0
1696254725849,-0.0234375,-0.115234375,0.98535156,0.4375,-0.59375,-0.09375,0.0,0.0,0.0
1696254725883,-0.022460938,-0.12109375,0.9873047,0.0,-0.21875,0.09375,0.0,0.0,0.0
1696254725928,-0.033203125,-0.12597656,0.97753906,0.0,-0.03125,0.15625,0.0,0.0,0.0
1696254725961,-0.029296875,-0.12011719,0.99316406,0.0625,0.03125,0.09375,0.0,0.0,0.0
1696254726006,-0.026367188,-0.12695312,0.98046875,0.0,-0.15625,-0.03125,0.0,0.0,0.0
1696254726040,-0.03515625,-0.12207031,0.9814453,-0.15625,-0.15625,-0.125,-5.6875,17.125,-186.9375
1696254726086,-0.034179688,-0.1171875,0.9902344,0.0625,0.09375,-0.09375,0.0,0.0,0.0
1696254726130,-0.030273438,-0.109375,0.9785156,0.0625,-0.21875,0.03125,0.0,0.0,0.0
1696254726163,-0.025390625,-0.119140625,0.9902344,0.0,-0.34375,0.09375,0.0,0.0,0.0
1696254726209,-0.024414062,-0.119140625,0.99316406,0.3125,-0.40625,-0.03125,0.0,0.0,0.0
1696254726243,-0.020507812,-0.12207031,0.98535156,0.0625,-0.03125,-0.03125,0.0,0.0,0.0
1696254726288,-0.018554688,-0.1171875,0.9980469,0.3125,-0.21875,0.15625,0.0,0.0,0.0
1696254726321,-0.029296875,-0.12011719,0.9921875,0.125,-0.40625,-0.125,0.0,0.0,0.0
1696254726366,-0.029296875,-0.119140625,0.98046875,-0.40625,0.375,-0.09375,0.0,0.0,0.0
1696254726400,-0.032226562,-0.109375,0.9863281,0.25,-0.40625,0.09375,0.0,0.0,0.0
1696254726445,-0.032226562,-0.12207031,0.9951172,0.25,-0.71875,0.09375,0.0,0.0,0.0
1696254726490,-0.0234375,-0.12207031,0.9863281,0.25,-0.21875,0.15625,0.0,0.0,0.0
1696254726525,-0.0234375,-0.123046875,0.9814453,0.3125,-0.46875,-0.09375,-5.25,16.25,-185.0
1696254726569,-0.029296875,-0.12207031,0.984375,-0.21875,0.375,-0.03125,0.0,0.0,0.0
1696254726603,-0.024414062,-0.12890625,0.984375,0.5,-0.34375,0.09375,0.0,0.0,0.0
1696254726648,-0.025390625,-0.12402344,0.99609375,0.0625,-0.53125,-0.09375,0.0,0.0,0.0
1696254726681,-0.037109375,-0.1171875,0.98535156,-0.03125,0.5,0.03125,0.0,0.0,0.0
1696254726726,-0.024414062,-0.125,0.9873047,0.25,-0.28125,-0.03125,0.0,0.0,0.0
1696254726760,-0.033203125,-0.1171875,0.98535156,-0.34375,-0.03125,0.03125,0.0,0.0,0.0
1696254726805,-0.026367188,-0.123046875,0.98828125,0.25,0.03125,0.03125,0.0,0.0,0.0
1696254726850,-0.026367188,-0.125,0.98046875,0.1875,-0.28125,-0.09375,0.0,0.0,0.0
1696254726884,-0.034179688,-0.12402344,1.0009766,-0.15625,0.15625,-0.125,0.0,0.0,0.0
1696254726928,-0.025390625,-0.11328125,0.9873047,0.0625,0.28125,0.21875,0.0,0.0,0.0
1696254726963,-0.024414062,-0.12011719,0.9873047,0.0625,-0.40625,-0.09375,0.0,0.0,0.0
1696254727008,-0.030273438,-0.123046875,0.98046875,-0.15625,0.15625,0.09375,0.0,0.0,0.0
1696254727041,-0.026367188,-0.12597656,0.984375,0.25,-0.15625,-0.03125,-4.5,16.5625,-186.0625
1696254727087,-0.020507812,-0.11621094,0.9873047,-0.03125,-0.40625,-0.125,0.0,0.0,0.0
1696254727120,-0.030273438,-0.12695312,0.9785156,0.125,0.03125,0.09375,0.0,0.0,0.0
1696254727165,-0.02734375,-0.12597656,0.96972656,0.0,-0.21875,-0.09375,0.0,0.0,0.0
1696254727233,-0.03125,-0.12109375,0.9863281,-0.15625,0.15625,-0.09375,0.0,0.0,0.0
1696254727245,-0.026367188,-0.12011719,0.9921875,0.0625,0.15625,0.09375,0.0,0.0,0.0
1696254727289,-0.02734375,-0.11425781,0.9941406,0.0625,-0.40625,0.03125,0.0,0.0,0.0
1696254727322,-0.022460938,-0.12207031,0.9941406,-0.09375,0.28125,-0.1875,0.0,0.0,0.0
1696254727368,-0.032226562,-0.11621094,0.9892578,-0.03125,0.3125,-0.03125,0.0,0.0,0.0
1696254727401,-0.03125,-0.11816406,0.98535156,0.0,-0.09375,0.03125,0.0,0.0,0.0
1696254727446,-0.028320312,-0.1171875,0.9892578,0.0,-0.15625,-0.09375,0.0,0.0,0.0
1696254727480,-0.028320312,-0.12207031,0.9794922,-0.09375,0.21875,-0.09375,0.0,0.0,0.0
1696254727526,-0.0234375,-0.12109375,1.0009766,0.3125,-0.21875,0.03125,-6.125,17.4375,-185.125
1696254727570,-0.0234375,-0.125,0.97753906,-0.09375,0.09375,0.21875,0.0,0.0,0.0
1696254727603,-0.032226562,-0.13183594,1.0009766,-0.09375,0.3125,-0.03125,0.0,0.0,0.0
1696254727649,-0.0234375,-0.11816406,0.97558594,-0.46875,-0.0625,0.03125,0.0,0.0,0.0
1696254727683,-0.030273438,-0.119140625,0.9902344,-0.46875,0.3125,-0.03125,0.0,0.0,0.0
1696254727728,-0.025390625,-0.125,0.9863281,-0.09375,-0.125,-0.15625,0.0,0.0,0.0
1696254727762,-0.021484375,-0.12011719,0.9892578,-0.03125,0.0,-0.15625,0.0,0.0,0.0
1696254727806,-0.02734375,-0.12597656,0.98046875,-0.21875,0.4375,0.15625,0.0,0.0,0.0
1696254727841,-0.03125,-0.12402344,0.9765625,0.125,0.5,0.15625,0.0,0.0,0.0
1696254727885,-0.03125,-0.123046875,0.98046875,0.0,-0.28125,-0.03125,0.0,0.0,0.0
1696254727930,-0.030273438,-0.123046875,0.9873047,-0.21875,0.625,-0.34375,0.0,0.0,0.0
1696254727964,-0.029296875,-0.12011719,0.98535156,-0.09375,0.375,-0.03125,0.0,0.0,0.0
1696254728043,-0.032226562,-0.1171875,0.9863281,-0.03125,-0.28125,-0.09375,-4.375,18.1875,-186.5
1696254728045,-0.022460938,-0.12792969,0.98339844,-0.03125,-0.1875,0.15625,0.0,0.0,0.0
1696254728088,-0.026367188,-0.13378906,0.98828125,-0.21875,0.1875,-0.09375,0.0,0.0,0.0
1696254728121,-0.028320312,-0.11425781,0.98339844,-0.09375,0.3125,0.03125,0.0,0.0,0.0
1696254728166,-0.026367188,-0.12695312,0.9863281,0.0,0.0,-0.15625,0.0,0.0,0.0
1696254728200,-0.030273438,-0.11816406,0.96875,-0.28125,0.3125,-0.09375,0.0,0.0,0.0
1696254728245,-0.021484375,-0.12109375,0.99121094,0.0625,0.0625,-0.15625,0.0,0.0,0.0
1696254728290,-0.030273438,-0.119140625,0.9902344,-0.09375,0.1875,-0.09375,0.0,0.0,0.0
1696254728324,-0.029296875,-0.12011719,0.9951172,-0.15625,0.3125,0.09375,0.0,0.0,0.0
1696254728403,-0.029296875,-0.123046875,0.9736328,-0.09375,-0.125,0.03125,0.0,0.0,0.0
1696254728404,-0.029296875,-0.12597656,0.98339844,0.0,0.125,-0.09375,0.0,0.0,0.0
1696254728448,-0.0234375,-0.12402344,0.98828125,0.125,-0.0625,0.03125,0.0,0.0,0.0
1696254728481,-0.026367188,-0.119140625,0.98046875,-0.03125,0.25,-0.15625,0.0,0.0,0.0
1696254728526,-0.024414062,-0.123046875,0.9873047,0.1875,0.0,0.21875,-4.625,18.1875,-186.1875
1696254728560,-0.029296875,-0.12402344,0.97265625,0.1875,-0.34375,-0.15625,0.0,0.0,0.0
1696254728605,-0.029296875,-0.12011719,0.9873047,-0.46875,0.375,-0.09375,0.0,0.0,0.0
1696254728650,-0.025390625,-0.125,0.9902344,0.125,0.125,0.03125,0.0,0.0,0.0
1696254728684,-0.028320312,-0.12597656,0.9970703,-0.09375,-0.28125,-0.21875,0.0,0.0,0.0
1696254728763,-0.037109375,-0.12988281,0.9863281,-0.28125,0.0,-0.21875,0.0,0.0,0.0
1696254728764,-0.025390625,-0.12597656,0.9765625,0.1875,-0.0625,0.03125,0.0,0.0,0.0
1696254728808,-0.026367188,-0.123046875,0.9736328,-0.15625,0.0,-0.15625,0.0,0.0,0.0
1696254728841,-0.029296875,-0.12207031,0.98828125,0.0,0.0625,-0.03125,0.0,0.0,0.0
1696254728886,-0.028320312,-0.123046875,0.9902344,0.1875,-0.40625,0.09375,0.0,0.0,0.0
1696254728920,-0.02734375,-0.12695312,0.99902344,-0.09375,0.0625,0.03125,0.0,0.0,0.0
1696254728965,-0.032226562,-0.12597656,0.984375,0.125,-0.25,-0.09375,0.0,0.0,0.0
1696254729010,-0.02734375,-0.12011719,0.9736328,0.0,0.0,-0.21875,0.0,0.0,0.0
1696254729043,-0.029296875,-0.12011719,1.0,0.0,0.125,0.09375,-5.25,16.5625,-186.0625
1696254729089,-0.030273438,-0.125,0.9892578,0.0,0.0,0.03125,0.0,0.0,0.0
1696254729122,-0.030273438,-0.12792969,0.98535156,0.0,0.125,0.09375,0.0,0.0,0.0
1696254729167,-0.024414062,-0.12695312,0.98535156,-0.21875,-0.125,-0.03125,0.0,0.0,0.0
1696254729201,-0.03125,-0.125,0.98828125,0.0625,-0.1875,-0.09375,0.0,0.0,0.0
1696254729246,-0.028320312,-0.1171875,0.9736328,0.0625,0.0625,-0.15625,0.0,0.0,0.0
1696254729280,-0.034179688,-0.115234375,0.984375,-0.03125,0.1875,0.03125,0.0,0.0,0.0
1696254729325,-0.03515625,-0.13085938,0.9951172,0.375,-0.25,0.09375,0.0,0.0,0.0
1696254729370,-0.017578125,-0.123046875,0.9873047,0.625,-0.59375,-0.03125,0.0,0.0,0.0
1696254729404,-0.025390625,-0.123046875,0.9863281,-0.03125,0.0,-0.09375,0.0,0.0,0.0
1696254729448,-0.0234375,-0.12011719,0.9785156,0.0,0.1875,0.03125,0.0,0.0,0.0
1696254729484,-0.025390625,-0.12011719,0.9941406,0.25,-0.59375,0.09375,0.0,0.0,0.0
1696254729528,-0.03125,-0.12109375,0.9765625,-0.15625,0.0,-0.03125,-5.6875,16.6875,-185.125
1696254729561,-0.03515625,-0.119140625,0.9824219,0.0,0.125,0.09375,0.0,0.0,0.0
1696254729606,-0.03125,-0.12402344,0.9716797,0.0,-0.125,0.21875,0.0,0.0,0.0
1696254729640,-0.029296875,-0.12695312,0.98535156,0.0625,0.125,-0.03125,0.0,0.0,0.0
1696254729685,-0.02734375,-0.13378906,0.97753906,-0.09375,0.125,-0.03125,0.0,0.0,0.0
1696254729730,-0.025390625,-0.123046875,0.9873047,0.125,-0.28125,-0.15625,0.0,0.0,0.0
1696254729764,-0.033203125,-0.119140625,0.98828125,-0.15625,0.0,0.03125,0.0,0.0,0.0
1696254729809,-0.022460938,-0.12011719,0.9941406,0.125,-0.40625,0.15625,0.0,0.0,0.0
1696254729842,-0.03125,-0.12695312,0.9863281,0.0,-0.28125,0.09375,0.0,0.0,0.0
1696254729887,-0.02734375,-0.11816406,0.99121094,-0.03125,-0.0625,-0.03125,0.0,0.0,0.0
1696254729921,-0.02734375,-0.12792969,0.98339844,0.1875,-0.40625,-0.09375,0.0,0.0,0.0
1696254729967,-0.030273438,-0.11425781,0.98828125,-0.21875,0.1875,-0.09375,0.0,0.0,0.0
1696254730000,-0.03125,-0.12695312,0.9951172,0.125,0.4375,0.09375,0.0,0.0,0.0
1696254730045,-0.02734375,-0.11425781,0.9951172,0.8125,-0.90625,0.03125,-4.5,16.25,-187.125
1696254730090,-0.033203125,-0.12207031,0.9921875,0.3125,-0.25,-0.09375,0.0,0.0,0.0
1696254730124,-0.034179688,-0.1171875,0.9785156,0.3125,0.125,0.09375,0.0,0.0,0.0
1696254730168,-0.03125,-0.12011719,0.9794922,0.1875,-0.46875,0.09375,0.0,0.0,0.0
1696254730203,-0.026367188,-0.12011719,0.984375,-0.03125,-0.40625,0.03125,0.0,0.0,0.0
1696254730247,-0.029296875,-0.12207031,0.9785156,0.03125,0.21875,-0.0625,0.0,0.0,0.0
1696254730281,-0.029296875,-0.11816406,0.984375,-0.09375,-0.15625,-0.125,0.0,0.0,0.0
1696254730326,-0.026367188,-0.12109375,0.98828125,-0.40625,0.21875,-0.1875,0.0,0.0,0.0
1696254730360,-0.026367188,-0.12207031,0.9667969,-0.03125,0.28125,-0.25,0.0,0.0,0.0
1696254730405,-0.025390625,-0.11425781,0.9873047,-0.21875,0.03125,-0.0625,0.0,0.0,0.0
1696254730450,-0.030273438,-0.11621094,0.9736328,-0.03125,-0.21875,0.125,0.0,0.0,0.0
1696254730484,-0.02734375,-0.123046875,0.97753906,-0.09375,0.03125,0.0625,0.0,0.0,0.0
1696254730529,-0.03515625,-0.125,0.97558594,-0.15625,0.53125,-0.0625,-5.6875,17.4375,-186.1875
1696254730563,-0.032226562,-0.123046875,0.9785156,-0.09375,-0.15625,-0.125,0.0,0.0,0.0
1696254730608,-0.02734375,-0.12597656,0.98828125,-0.28125,0.15625,-0.125,0.0,0.0,0.0
1696254730641,-0.034179688,-0.1171875,0.99121094,-0.40625,0.84375,-0.0625,0.0,0.0,0.0
1696254730686,-0.03125,-0.12695312,0.98339844,-0.34375,-0.09375,0.0,0.0,0.0,0.0
1696254730720,-0.029296875,-0.119140625,0.98046875,-0.21875,0.21875,-0.0625,0.0,0.0,0.0
1696254730765,-0.03125,-0.12988281,0.9902344,-0.15625,-0.03125,-0.125,0.0,0.0,0.0
1696254730810,-0.03125,-0.12792969,0.9902344,-0.34375,0.46875,-0.0625,0.0,0.0,0.0
1696254730877,-0.025390625,-0.12597656,1.0048828,-0.09375,-0.09375,-0.125,0.0,0.0,0.0
1696254730922,-0.03125,-0.13867188,0.9970703,-0.15625,-0.03125,-0.1875,0.0,0.0,0.0
1696254730924,-0.03125,-0.119140625,0.99316406,-0.28125,0.875,-0.28125,0.0,0.0,0.0
1696254730967,-0.03125,-0.12597656,0.9902344,-0.03125,0.21875,0.0,0.0,0.0,0.0
1696254731001,-0.03515625,-0.12109375,0.99121094,-0.21875,-0.03125,-0.25,0.0,0.0,0.0
1696254731046,-0.021484375,-0.123046875,0.9892578,-0.40625,0.71875,0.0,-4.375,15.3125,-186.1875
1696254731080,-0.021484375,-0.12109375,0.9951172,-0.09375,0.09375,-0.125,0.0,0.0,0.0
1696254731126,-0.03125,-0.123046875,0.9873047,-0.28125,-0.03125,-0.125,0.0,0.0,0.0
1696254731170,-0.02734375,-0.12597656,0.98046875,-0.28125,0.28125,0.0,0.0,0.0,0.0
1696254731204,-0.037109375,-0.12011719,0.9941406,-0.09375,0.15625,-0.0625,0.0,0.0,0.0
1696254731249,-0.034179688,-0.12109375,0.98046875,-0.28125,0.15625,-0.125,0.0,0.0,0.0
1696254731282,-0.028320312,-0.119140625,0.9863281,-0.09375,0.09375,0.125,0.0,0.0,0.0
1696254731328,-0.026367188,-0.1171875,0.98535156,-0.15625,-0.09375,0.0,0.0,0.0,0.0
1696254731361,-0.03125,-0.125,0.9785156,-0.40625,0.46875,-0.0625,0.0,0.0,0.0
1696254731406,-0.029296875,-0.12597656,0.9824219,0.09375,-0.03125,0.0,0.0,0.0,0.0
1696254731440,-0.03125,-0.12109375,0.97558594,-0.40625,0.15625,-0.25,0.0,0.0,0.0
1696254731485,-0.033203125,-0.12402344,0.99121094,-0.03125,0.34375,0.125,0.0,0.0,0.0
1696254731530,-0.028320312,-0.12011719,0.99121094,-0.15625,0.03125,-0.125,-5.5625,15.8125,-187.125
1696254731567,-0.02734375,-0.12402344,0.98339844,-0.40625,0.53125,-0.125,0.0,0.0,0.0
1696254731608,-0.020507812,-0.123046875,0.9863281,-0.28125,0.21875,0.0,0.0,0.0,0.0
1696254731642,-0.033203125,-0.123046875,0.9902344,-0.15625,0.03125,-0.1875,0.0,0.0,0.0
1696254731688,-0.036132812,-0.12890625,1.0019531,-0.15625,-0.03125,0.0,0.0,0.0,0.0
1696254731721,-0.033203125,-0.123046875,1.0019531,0.09375,-0.03125,0.0,0.0,0.0,0.0
1696254731766,-0.026367188,-0.12207031,0.9892578,-0.34375,-0.21875,0.0,0.0,0.0,0.0
1696254731800,-0.029296875,-0.12988281,0.9765625,-0.15625,-0.03125,-0.1875,0.0,0.0,0.0
1696254731845,-0.030273438,-0.12207031,0.99316406,-0.09375,0.28125,-0.125,0.0,0.0,0.0
1696254731890,-0.02734375,-0.12597656,0.98046875,-0.21875,-0.03125,0.0,0.0,0.0,0.0
1696254731924,-0.028320312,-0.12402344,0.98339844,-0.21875,0.15625,-0.0625,0.0,0.0,0.0
1696254731969,-0.02734375,-0.12792969,0.9863281,0.09375,-0.28125,-0.125,0.0,0.0,0.0
1696254732002,-0.02734375,-0.123046875,0.97753906,-0.28125,0.21875,-0.1875,0.0,0.0,0.0
1696254732047,-0.022460938,-0.11816406,0.984375,-0.40625,0.71875,0.0,-6.125,17.125,-186.1875
1696254732081,-0.028320312,-0.1171875,0.9951172,0.28125,-0.6875,-0.1875,0.0,0.0,0.0
1696254732126,-0.030273438,-0.12011719,0.97558594,-0.15625,0.03125,0.0,0.0,0.0,0.0
1696254732160,-0.03125,-0.12207031,0.9941406,-0.15625,0.28125,0.0625,0.0,0.0,0.0
1696254732205,-0.030273438,-0.1328125,0.98828125,0.21875,-0.4375,0.0,0.0,0.0,0.0
1696254732251,-0.030273438,-0.125,0.98828125,-0.28125,0.09375,-0.0625,0.0,0.0,0.0
1696254732285,-0.03125,-0.125,1.0009766,-0.09375,0.40625,-0.25,0.0,0.0,0.0
1696254732329,-0.0390625,-0.123046875,0.9902344,-0.09375,0.03125,-0.125,0.0,0.0,0.0
1696254732362,-0.033203125,-0.119140625,0.98046875,0.03125,-0.34375,0.125,0.0,0.0,0.0
1696254732408,-0.026367188,-0.1171875,0.9794922,-0.15625,-0.03125,0.0625,0.0,0.0,0.0
1696254732441,-0.038085938,-0.11816406,0.9892578,-0.28125,-0.09375,-0.125,0.0,0.0,0.0
1696254732487,-0.036132812,-0.12207031,1.0,0.03125,-0.21875,0.0,0.0,0.0,0.0
1696254732531,-0.03125,-0.13183594,0.9941406,-0.09375,0.09375,0.0,-5.25,16.25,-187.6875
1696254732565,-0.030273438,-0.12207031,0.9824219,0.21875,-0.75,-0.0625,0.0,0.0,0.0
1696254732610,-0.03125,-0.123046875,0.98535156,-0.15625,-0.5,-0.25,0.0,0.0,0.0
1696254732644,-0.032226562,-0.11816406,0.98828125,0.03125,-0.03125,-0.0625,0.0,0.0,0.0
1696254732688,-0.03515625,-0.119140625,0.9892578,0.03125,-0.28125,0.0,0.0,0.0,0.0
1696254732723,-0.030273438,-0.12695312,0.99121094,-0.09375,-0.28125,-0.0625,0.0,0.0,0.0
1696254732768,-0.034179688,-0.12792969,0.9892578,0.09375,0.03125,0.0,0.0,0.0,0.0
1696254732801,-0.029296875,-0.12011719,0.9794922,0.03125,-0.09375,0.0625,0.0,0.0,0.0
1696254732846,-0.030273438,-0.12597656,0.9716797,-0.40625,-0.15625,-0.0625,0.0,0.0,0.0
1696254732880,-0.0234375,-0.11621094,0.9921875,0.09375,-0.15625,-0.125,0.0,0.0,0.0
1696254732925,-0.028320312,-0.12207031,0.9873047,-0.28125,0.03125,-0.125,0.0,0.0,0.0
1696254732970,-0.022460938,-0.12597656,0.9921875,0.09375,-0.21875,0.0,0.0,0.0,0.0
1696254733004,-0.016601562,-0.12597656,0.9941406,0.03125,-0.15625,-0.125,0.0,0.0,0.0
1696254733049,-0.029296875,-0.119140625,0.984375,-0.40625,-0.15625,0.0,-5.6875,16.6875,-185.875
1696254733083,-0.032226562,-0.12695312,0.9902344,-0.09375,-0.625,0.125,0.0,0.0,0.0
1696254733128,-0.0234375,-0.12207031,0.99316406,-0.09375,-0.28125,-0.0625,0.0,0.0,0.0
1696254733161,-0.040039062,-0.12109375,0.99121094,-0.21875,0.34375,-0.0625,0.0,0.0,0.0
1696254733206,-0.032226562,-0.12597656,1.0029297,0.03125,-0.21875,0.0,0.0,0.0,0.0
1696254733285,-0.026367188,-0.125,0.9902344,-0.09375,0.09375,-0.1875,0.0,0.0,0.0
1696254733287,-0.029296875,-0.11816406,0.99121094,-0.09375,0.53125,-0.125,0.0,0.0,0.0
1696254733332,-0.01953125,-0.11621094,0.98535156,-0.09375,0.15625,-0.125,0.0,0.0,0.0
1696254733364,-0.03515625,-0.12109375,0.97753906,-0.46875,0.09375,0.0625,0.0,0.0,0.0
1696254733409,-0.033203125,-0.12597656,0.99316406,0.03125,0.34375,0.0625,0.0,0.0,0.0
1696254733442,-0.025390625,-0.12402344,0.99121094,-0.28125,0.15625,-0.125,0.0,0.0,0.0
1696254733488,-0.03125,-0.12109375,0.9863281,-0.28125,0.03125,-0.1875,0.0,0.0,0.0
1696254733521,-0.028320312,-0.12988281,1.0039062,0.21875,-0.4375,-0.0625,-4.625,16.375,-185.125
1696254733566,-0.029296875,-0.12695312,0.98535156,-0.53125,0.53125,0.0,0.0,0.0,0.0
1696254733600,-0.03515625,-0.12695312,0.9951172,-0.15625,0.46875,-0.0625,0.0,0.0,0.0
1696254733645,-0.024414062,-0.11621094,0.99121094,-0.21875,-0.09375,0.0,0.0,0.0,0.0
1696254733689,-0.032226562,-0.111328125,0.96777344,-0.28125,0.15625,-0.0625,0.0,0.0,0.0
1696254733725,-0.03125,-0.12207031,0.99609375,-0.03125,0.15625,-0.0625,0.0,0.0,0.0
1696254733769,-0.026367188,-0.12695312,0.9873047,0.09375,-0.28125,0.0625,0.0,0.0,0.0
1696254733802,-0.024414062,-0.123046875,0.98828125,-0.15625,-0.21875,0.0625,0.0,0.0,0.0
1696254733848,-0.029296875,-0.12792969,0.98046875,-0.34375,0.59375,0.0625,0.0,0.0,0.0
1696254733885,-0.037109375,-0.12109375,0.9941406,-0.28125,0.03125,0.125,0.0,0.0,0.0
