# Sensor type: Thingy
# Activity type: Lying down on left
# Activity subtype: Normal
# Subject id: s2106809
# Notes: unprocessed
timestamp,accel_x,accel_y,accel_z,gyro_x,gyro_y,gyro_z,mag_x,mag_y,mag_z
1696254810699,-0.052734375,0.9501953,0.28222656,0.125,0.25,0.03125,0.0,0.0,0.0
1696254810731,-0.051757812,0.9453125,0.28515625,0.0625,0.1875,0.03125,0.0,0.0,0.0
1696254810774,-0.06347656,0.94921875,0.27246094,0.0625,0.3125,0.03125,0.0,0.0,0.0
1696254810809,-0.048828125,0.95410156,0.26953125,0.0625,0.25,0.21875,0.0,0.0,0.0
1696254810853,-0.055664062,0.9482422,0.27734375,0.0,-0.125,0.09375,0.0,0.0,0.0
1696254810897,-0.05859375,0.95214844,0.2734375,0.25,0.25,0.09375,0.0,0.0,0.0
1696254810931,-0.0546875,0.9453125,0.27734375,0.0625,0.25,0.28125,0.0,0.0,0.0
1696254810978,-0.060546875,0.94921875,0.27246094,-0.25,0.0625,0.21875,0.0,0.0,0.0
1696254811010,-0.059570312,0.9472656,0.28515625,0.125,0.0625,-0.03125,-20.6875,68.4375,-207.8125
1696254811055,-0.057617188,0.9423828,0.2763672,0.0625,0.125,0.09375,0.0,0.0,0.0
1696254811089,-0.05859375,0.94628906,0.28320312,0.0,0.1875,0.03125,0.0,0.0,0.0
1696254811134,-0.045898438,0.9501953,0.2705078,-0.0625,0.0,0.21875,0.0,0.0,0.0
1696254811168,-0.060546875,0.9560547,0.28222656,0.0625,0.1875,0.15625,0.0,0.0,0.0
1696254811213,-0.059570312,0.9560547,0.2841797,0.0,0.1875,0.15625,0.0,0.0,0.0
1696254811258,-0.05078125,0.95703125,0.28222656,-0.1875,0.0625,0.15625,0.0,0.0,0.0
1696254811291,-0.057617188,0.9501953,0.27148438,0.0,0.0,0.34375,0.0,0.0,0.0
1696254811370,-0.05078125,0.9433594,0.2734375,0.25,0.0,0.21875,0.0,0.0,0.0
1696254811371,-0.060546875,0.94433594,0.27148438,0.0625,0.1875,0.09375,0.0,0.0,0.0
1696254811426,-0.048828125,0.9394531,0.2685547,0.1875,0.375,0.15625,0.0,0.0,0.0
1696254811450,-0.060546875,0.9609375,0.28125,0.0625,0.125,0.09375,0.0,0.0,0.0
1696254811495,-0.051757812,0.9511719,0.27539062,0.1875,0.0625,0.28125,0.0,0.0,0.0
1696254811528,-0.057617188,0.9511719,0.28125,0.125,-0.125,0.15625,-19.625,66.9375,-209.125
1696254811586,-0.064453125,0.9609375,0.2685547,0.125,0.125,-0.09375,0.0,0.0,0.0
1696254811618,-0.060546875,0.94921875,0.28222656,-0.1875,-0.0625,0.15625,0.0,0.0,0.0
1696254811652,-0.05859375,0.95703125,0.28222656,-0.1875,-0.0625,0.03125,0.0,0.0,0.0
1696254811730,-0.068359375,0.9482422,0.27441406,0.0625,-0.0625,0.21875,0.0,0.0,0.0
1696254811732,-0.059570312,0.94921875,0.27929688,0.0,0.0625,0.21875,0.0,0.0,0.0
1696254811775,-0.0546875,0.95703125,0.28027344,0.125,0.0625,0.03125,0.0,0.0,0.0
1696254811809,-0.0546875,0.95214844,0.27539062,0.25,-0.0625,0.03125,0.0,0.0,0.0
1696254811854,-0.0546875,0.9482422,0.2890625,0.1875,0.3125,0.15625,0.0,0.0,0.0
1696254811889,-0.057617188,0.9453125,0.28808594,-0.25,0.125,0.21875,0.0,0.0,0.0
1696254811933,-0.055664062,0.9433594,0.2705078,-0.25,0.1875,0.15625,0.0,0.0,0.0
1696254811978,-0.055664062,0.9472656,0.28222656,0.0,0.0625,0.03125,0.0,0.0,0.0
1696254812012,-0.056640625,0.9501953,0.28320312,0.1875,0.125,-0.03125,-21.875,69.3125,-207.625
1696254812056,-0.056640625,0.95410156,0.28027344,0.25,0.125,0.09375,0.0,0.0,0.0
1696254812090,-0.057617188,0.9550781,0.26953125,0.1875,0.1875,-0.03125,0.0,0.0,0.0
1696254812135,-0.05078125,0.9501953,0.27734375,0.0625,0.3125,-0.03125,0.0,0.0,0.0
1696254812169,-0.05859375,0.9433594,0.2763672,0.0,0.0625,0.28125,0.0,0.0,0.0
1696254812213,-0.052734375,0.94921875,0.2783203,0.125,-0.0625,0.28125,0.0,0.0,0.0
1696254812248,-0.060546875,0.9394531,0.26367188,0.1875,0.3125,0.03125,0.0,0.0,0.0
1696254812292,-0.055664062,0.94628906,0.27246094,0.0,0.0625,0.09375,0.0,0.0,0.0
1696254812337,-0.06347656,0.9511719,0.28320312,0.0,0.0,0.15625,0.0,0.0,0.0
1696254812371,-0.0546875,0.953125,0.27441406,0.0,0.125,0.09375,0.0,0.0,0.0
1696254812417,-0.05859375,0.9580078,0.2763672,-0.0625,0.1875,0.03125,0.0,0.0,0.0
1696254812450,-0.0625,0.9501953,0.26757812,0.0625,0.125,0.28125,0.0,0.0,0.0
1696254812495,-0.059570312,0.94921875,0.2939453,0.1875,0.1875,0.09375,0.0,0.0,0.0
1696254812529,-0.06640625,0.95214844,0.28320312,0.0625,0.1875,0.03125,-19.9375,67.375,-208.125
1696254812574,-0.064453125,0.9482422,0.27734375,-0.125,0.0625,0.09375,0.0,0.0,0.0
1696254812608,-0.05859375,0.94921875,0.2734375,0.0,0.0625,0.03125,0.0,0.0,0.0
1696254812653,-0.052734375,0.9511719,0.27539062,0.0625,0.0625,0.09375,0.0,0.0,0.0
1696254812700,-0.052734375,0.9482422,0.28515625,-0.125,0.0625,0.15625,0.0,0.0,0.0
1696254812731,-0.06542969,0.9472656,0.28320312,0.125,0.125,0.15625,0.0,0.0,0.0
1696254812776,-0.06738281,0.94433594,0.2763672,0.1875,0.125,0.21875,0.0,0.0,0.0
1696254812810,-0.052734375,0.9482422,0.26464844,0.0625,0.375,0.03125,0.0,0.0,0.0
1696254812855,-0.056640625,0.9550781,0.27539062,0.0625,0.3125,0.09375,0.0,0.0,0.0
1696254812888,-0.057617188,0.9511719,0.26660156,0.3125,0.125,0.09375,0.0,0.0,0.0
1696254812945,-0.064453125,0.9550781,0.28808594,0.1875,0.1875,0.09375,0.0,0.0,0.0
1696254812968,-0.056640625,0.9550781,0.28027344,-0.1875,0.1875,0.28125,0.0,0.0,0.0
1696254813024,-0.059570312,0.9501953,0.28808594,-0.34375,0.0625,0.09375,-21.4375,67.6875,-207.1875
1696254813069,-0.059570312,0.94921875,0.2685547,-0.125,0.0625,0.15625,0.0,0.0,0.0
1696254813095,-0.059570312,0.94921875,0.27929688,0.0625,0.125,0.03125,0.0,0.0,0.0
1696254813136,-0.053710938,0.9589844,0.27539062,0.0,0.25,0.15625,0.0,0.0,0.0
1696254813170,-0.047851562,0.94921875,0.2763672,0.0,0.0625,0.15625,0.0,0.0,0.0
1696254813217,-0.06738281,0.953125,0.27148438,0.125,0.125,0.28125,0.0,0.0,0.0
1696254813249,-0.051757812,0.9453125,0.26464844,0.0625,0.25,0.28125,0.0,0.0,0.0
1696254813294,-0.064453125,0.94921875,0.2705078,-0.25,0.1875,0.34375,0.0,0.0,0.0
1696254813328,-0.057617188,0.9472656,0.28320312,-0.0625,0.25,0.15625,0.0,0.0,0.0
1696254813373,-0.047851562,0.9501953,0.27441406,0.0,0.125,0.15625,0.0,0.0,0.0
1696254813418,-0.053710938,0.953125,0.2705078,0.0625,0.3125,-0.03125,0.0,0.0,0.0
1696254813452,-0.061523438,0.9482422,0.27246094,0.25,0.25,0.03125,0.0,0.0,0.0
1696254813498,-0.05859375,0.9560547,0.28027344,0.125,0.25,0.15625,0.0,0.0,0.0
1696254813530,-0.06347656,0.9423828,0.28222656,0.0625,0.375,0.15625,-20.6875,68.0,-207.1875
1696254813575,-0.05859375,0.9501953,0.2783203,-0.125,0.25,0.34375,0.0,0.0,0.0
1696254813609,-0.055664062,0.94921875,0.265625,0.0,0.0625,0.15625,0.0,0.0,0.0
1696254813654,-0.053710938,0.9433594,0.29003906,0.1875,0.25,0.21875,0.0,0.0,0.0
1696254813688,-0.064453125,0.9472656,0.27929688,0.0,0.1875,0.15625,0.0,0.0,0.0
1696254813733,-0.047851562,0.9482422,0.2705078,-0.1875,0.0,0.21875,0.0,0.0,0.0
1696254813778,-0.049804688,0.95214844,0.27734375,0.0,0.125,0.09375,0.0,0.0,0.0
1696254813812,-0.053710938,0.9482422,0.26757812,-0.0625,0.125,0.21875,0.0,0.0,0.0
1696254813857,-0.06640625,0.9511719,0.26953125,0.0625,0.25,0.15625,0.0,0.0,0.0
1696254813891,-0.05078125,0.95703125,0.2705078,-0.0625,0.125,0.09375,0.0,0.0,0.0
1696254813936,-0.056640625,0.9560547,0.28027344,0.0625,0.125,0.21875,0.0,0.0,0.0
1696254813969,-0.06640625,0.95703125,0.27734375,-0.1875,0.1875,0.21875,0.0,0.0,0.0
1696254814015,-0.059570312,0.94921875,0.27929688,-0.0625,0.1875,0.15625,-21.0,68.75,-209.625
1696254814048,-0.059570312,0.94628906,0.2734375,0.0625,0.1875,0.09375,0.0,0.0,0.0
1696254814093,-0.060546875,0.94921875,0.2685547,-0.125,0.25,0.21875,0.0,0.0,0.0
1696254814138,-0.059570312,0.9589844,0.2705078,0.0,0.1875,0.21875,0.0,0.0,0.0
1696254814172,-0.06542969,0.9501953,0.26367188,0.0625,0.25,0.09375,0.0,0.0,0.0
1696254814216,-0.0625,0.9482422,0.28125,0.0625,0.125,0.09375,0.0,0.0,0.0
1696254814250,-0.057617188,0.9472656,0.28125,-0.0625,0.375,0.28125,0.0,0.0,0.0
1696254814295,-0.06347656,0.9609375,0.27929688,-0.34375,0.3125,0.21875,0.0,0.0,0.0
1696254814328,-0.056640625,0.9511719,0.2763672,0.0,0.125,0.28125,0.0,0.0,0.0
1696254814374,-0.0546875,0.9628906,0.2763672,0.0625,0.125,0.15625,0.0,0.0,0.0
1696254814408,-0.059570312,0.9472656,0.27734375,0.0,0.25,0.03125,0.0,0.0,0.0
1696254814475,-0.060546875,0.95214844,0.2763672,-0.1875,0.25,0.15625,0.0,0.0,0.0
1696254814498,-0.052734375,0.953125,0.27539062,-0.28125,0.125,0.09375,0.0,0.0,0.0
1696254814532,-0.059570312,0.95214844,0.26757812,-0.0625,-0.0625,0.34375,-20.875,69.3125,-206.875
1696254814576,-0.055664062,0.953125,0.26953125,0.0,0.1875,0.28125,0.0,0.0,0.0
1696254814610,-0.051757812,0.9511719,0.27246094,-0.0625,0.0,0.15625,0.0,0.0,0.0
1696254814655,-0.059570312,0.9472656,0.2919922,0.0625,0.125,0.15625,0.0,0.0,0.0
1696254814689,-0.059570312,0.9482422,0.29101562,-0.0625,0.25,0.09375,0.0,0.0,0.0
1696254814736,-0.057617188,0.9511719,0.28125,-0.28125,0.1875,0.15625,0.0,0.0,0.0
1696254814767,-0.053710938,0.953125,0.28222656,-0.125,0.1875,0.21875,0.0,0.0,0.0
1696254814813,-0.061523438,0.94628906,0.25195312,0.0625,0.25,0.03125,0.0,0.0,0.0
1696254814857,-0.055664062,0.94921875,0.265625,-0.0625,0.125,0.15625,0.0,0.0,0.0
1696254814891,-0.05859375,0.9511719,0.2841797,0.0625,0.1875,0.21875,0.0,0.0,0.0
1696254814936,-0.0625,0.94140625,0.2783203,0.125,0.3125,0.09375,0.0,0.0,0.0
1696254814970,-0.059570312,0.94921875,0.27539062,0.0,0.25,0.21875,0.0,0.0,0.0
1696254815015,-0.057617188,0.9511719,0.27734375,-0.34375,0.4375,0.21875,-20.375,68.4375,-207.8125
1696254815049,-0.056640625,0.953125,0.2783203,-0.0625,0.0,0.21875,0.0,0.0,0.0
1696254815094,-0.053710938,0.94433594,0.27148438,0.0,0.0,0.15625,0.0,0.0,0.0
1696254815128,-0.060546875,0.95703125,0.27929688,0.0625,0.25,0.21875,0.0,0.0,0.0
1696254815176,-0.060546875,0.953125,0.27929688,0.125,0.1875,0.15625,0.0,0.0,0.0
1696254815229,-0.060546875,0.94921875,0.2763672,-0.34375,0.0625,0.21875,0.0,0.0,0.0
1696254815251,-0.057617188,0.9560547,0.2939453,0.0,0.125,0.03125,0.0,0.0,0.0
1696254815296,-0.053710938,0.9453125,0.25976562,-0.0625,0.125,0.09375,0.0,0.0,0.0
1696254815330,-0.057617188,0.9453125,0.27734375,0.0,0.125,0.09375,0.0,0.0,0.0
1696254815375,-0.0625,0.93652344,0.26660156,0.0,-0.125,0.03125,0.0,0.0,0.0
1696254815409,-0.056640625,0.9472656,0.2705078,0.0,0.1875,0.21875,0.0,0.0,0.0
1696254815454,-0.053710938,0.9472656,0.27929688,-0.0625,0.25,0.15625,0.0,0.0,0.0
1696254815533,-0.051757812,0.9472656,0.28027344,-0.125,0.1875,0.21875,-20.125,69.625,-207.375
1696254815534,-0.05859375,0.9472656,0.28515625,0.0625,0.125,0.21875,0.0,0.0,0.0
1696254815589,-0.049804688,0.95214844,0.2607422,0.0,0.1875,0.15625,0.0,0.0,0.0
1696254815611,-0.053710938,0.95214844,0.2783203,-0.0625,0.125,0.15625,0.0,0.0,0.0
1696254815657,-0.0625,0.9433594,0.27441406,0.125,0.1875,0.15625,0.0,0.0,0.0
1696254815690,-0.0546875,0.9550781,0.26953125,0.0625,0.125,0.03125,0.0,0.0,0.0
1696254815735,-0.060546875,0.94628906,0.28027344,-0.0625,0.125,0.15625,0.0,0.0,0.0
1696254815769,-0.044921875,0.94628906,0.27246094,0.0625,0.3125,0.15625,0.0,0.0,0.0
1696254815814,-0.057617188,0.9580078,0.26953125,0.0625,0.1875,0.15625,0.0,0.0,0.0
1696254815848,-0.06347656,0.94628906,0.27539062,-0.0625,-0.0625,0.15625,0.0,0.0,0.0
1696254815892,-0.056640625,0.9511719,0.28808594,0.125,-0.0625,-0.0625,0.0,0.0,0.0
1696254815941,-0.052734375,0.94140625,0.27246094,0.0,0.0,0.0,0.0,0.0,0.0
1696254815994,-0.0546875,0.953125,0.28125,0.0,0.0,0.125,0.0,0.0,0.0
1696254816016,-0.0546875,0.9580078,0.2841797,-0.125,0.0,-0.0625,-20.5625,68.875,-207.625
1696254816050,-0.055664062,0.9453125,0.2861328,0.0,0.0,0.0,0.0,0.0,0.0
1696254816097,-0.061523438,0.9482422,0.2705078,0.0,-0.125,-0.125,0.0,0.0,0.0
1696254816129,-0.051757812,0.9511719,0.2734375,0.0625,-0.21875,0.0,0.0,0.0,0.0
1696254816174,-0.056640625,0.9511719,0.27734375,0.25,-0.125,0.0,0.0,0.0,0.0
1696254816208,-0.055664062,0.9580078,0.26367188,0.0625,0.125,0.0625,0.0,0.0,0.0
1696254816252,-0.060546875,0.9433594,0.27148438,-0.1875,0.0625,0.0625,0.0,0.0,0.0
1696254816297,-0.059570312,0.94921875,0.28808594,0.0,-0.1875,-0.0625,0.0,0.0,0.0
1696254816331,-0.049804688,0.95410156,0.2919922,-0.125,-0.125,0.0625,0.0,0.0,0.0
1696254816376,-0.05859375,0.9550781,0.28222656,-0.0625,0.0,0.125,0.0,0.0,0.0
1696254816410,-0.060546875,0.9580078,0.2861328,-0.0625,0.0,0.0,0.0,0.0,0.0
1696254816455,-0.060546875,0.9472656,0.2783203,0.0,-0.0625,0.0,0.0,0.0,0.0
1696254816489,-0.059570312,0.9472656,0.2685547,0.0,-0.125,0.125,0.0,0.0,0.0
1696254816534,-0.06347656,0.9628906,0.28125,0.0625,0.0625,0.0,-21.875,67.5625,-207.375
1696254816568,-0.052734375,0.94433594,0.26660156,-0.0625,-0.125,-0.0625,0.0,0.0,0.0
1696254816612,-0.057617188,0.9482422,0.27246094,0.125,-0.1875,-0.0625,0.0,0.0,0.0
1696254816657,-0.060546875,0.94433594,0.27539062,0.1875,0.0,0.0,0.0,0.0,0.0
1696254816692,-0.05859375,0.953125,0.27441406,-0.0625,-0.0625,-0.125,0.0,0.0,0.0
1696254816747,-0.059570312,0.9482422,0.27929688,-0.28125,-0.125,0.0,0.0,0.0,0.0
1696254816770,-0.05078125,0.9501953,0.27441406,0.0625,0.0,-0.125,0.0,0.0,0.0
1696254816815,-0.06640625,0.9453125,0.2841797,-0.0625,-0.125,0.0,0.0,0.0,0.0
1696254816849,-0.05078125,0.9482422,0.2841797,0.1875,-0.0625,0.0625,0.0,0.0,0.0
1696254816894,-0.0625,0.9472656,0.27246094,0.125,-0.1875,-0.125,0.0,0.0,0.0
1696254816927,-0.06347656,0.9453125,0.28125,0.125,-0.0625,0.0,0.0,0.0,0.0
1696254816972,-0.05859375,0.9482422,0.28222656,0.0,-0.0625,-0.0625,0.0,0.0,0.0
1696254817018,-0.056640625,0.95996094,0.26953125,-0.1875,-0.0625,0.0625,-21.4375,68.4375,-206.75
1696254817051,-0.057617188,0.9511719,0.28808594,0.0,-0.21875,0.125,0.0,0.0,0.0
1696254817096,-0.056640625,0.94433594,0.28710938,0.0625,-0.28125,-0.0625,0.0,0.0,0.0
1696254817130,-0.064453125,0.95214844,0.28222656,0.0,-0.125,0.0,0.0,0.0,0.0
1696254817175,-0.057617188,0.9472656,0.27441406,0.1875,0.0,-0.0625,0.0,0.0,0.0
1696254817209,-0.060546875,0.9433594,0.29003906,0.25,-0.0625,-0.0625,0.0,0.0,0.0
1696254817254,-0.05859375,0.94921875,0.2626953,0.125,0.0,0.0,0.0,0.0,0.0
1696254817288,-0.05859375,0.95214844,0.26757812,0.0,0.0625,-0.0625,0.0,0.0,0.0
1696254817333,-0.0625,0.9482422,0.27539062,0.0,-0.0625,-0.125,0.0,0.0,0.0
1696254817377,-0.053710938,0.94140625,0.28320312,0.375,-0.1875,-0.0625,0.0,0.0,0.0
1696254817413,-0.056640625,0.95410156,0.27441406,0.0625,-0.1875,-0.0625,0.0,0.0,0.0
1696254817456,-0.055664062,0.9560547,0.28027344,-0.0625,-0.125,-0.0625,0.0,0.0,0.0
1696254817490,-0.055664062,0.9609375,0.2734375,0.0,-0.1875,0.0,0.0,0.0,0.0
1696254817535,-0.05078125,0.9511719,0.29882812,-0.0625,-0.1875,-0.0625,-20.6875,68.0,-206.4375
1696254817568,-0.0546875,0.94628906,0.28125,0.0625,0.0,-0.0625,0.0,0.0,0.0
1696254817614,-0.06738281,0.94921875,0.27929688,-0.1875,0.0625,0.0,0.0,0.0,0.0
1696254817647,-0.05859375,0.9404297,0.2734375,0.0625,-0.125,-0.125,0.0,0.0,0.0
1696254817693,-0.049804688,0.95410156,0.27929688,0.3125,-0.1875,-0.0625,0.0,0.0,0.0
1696254817737,-0.059570312,0.95214844,0.28710938,0.125,0.0625,-0.0625,0.0,0.0,0.0
1696254817771,-0.06933594,0.9482422,0.2685547,-0.0625,-0.0625,0.0,0.0,0.0,0.0
1696254817817,-0.060546875,0.94628906,0.27441406,0.0,-0.1875,0.0625,0.0,0.0,0.0
1696254817850,-0.052734375,0.94433594,0.27148438,-0.125,-0.1875,0.125,0.0,0.0,0.0
1696254817895,-0.055664062,0.9580078,0.28125,-0.0625,0.0,-0.0625,0.0,0.0,0.0
1696254817929,-0.05078125,0.9550781,0.2734375,0.125,-0.0625,-0.125,0.0,0.0,0.0
1696254817973,-0.052734375,0.94433594,0.28027344,0.125,-0.0625,0.0,0.0,0.0,0.0
1696254818019,-0.059570312,0.9550781,0.27539062,0.0625,0.0,0.0625,-21.125,67.8125,-207.9375
1696254818053,-0.05859375,0.953125,0.2734375,0.0625,0.1875,-0.1875,0.0,0.0,0.0
1696254818098,-0.051757812,0.9482422,0.2705078,0.0625,-0.0625,-0.0625,0.0,0.0,0.0
1696254818131,-0.049804688,0.9550781,0.27929688,0.125,-0.1875,0.0,0.0,0.0,0.0
1696254818176,-0.055664062,0.95410156,0.2763672,0.125,-0.0625,0.0625,0.0,0.0,0.0
1696254818210,-0.053710938,0.9433594,0.27441406,-0.125,-0.21875,0.0625,0.0,0.0,0.0
1696254818266,-0.051757812,0.9482422,0.2919922,-0.125,-0.28125,0.125,0.0,0.0,0.0
1696254818291,-0.05859375,0.9511719,0.27734375,0.0,-0.1875,-0.125,0.0,0.0,0.0
1696254818334,-0.060546875,0.9589844,0.26953125,0.0,-0.125,-0.1875,0.0,0.0,0.0
1696254818368,-0.0546875,0.95703125,0.27734375,-0.0625,-0.1875,0.0625,0.0,0.0,0.0
1696254818413,-0.060546875,0.9609375,0.27734375,0.0,-0.1875,0.0,0.0,0.0,0.0
1696254818457,-0.05859375,0.94433594,0.28515625,0.125,-0.125,0.0,0.0,0.0,0.0
1696254818492,-0.056640625,0.9433594,0.27148438,-0.0625,-0.0625,0.0,0.0,0.0,0.0
1696254818536,-0.056640625,0.953125,0.28222656,-0.0625,-0.0625,0.0625,-20.875,67.0625,-206.625
1696254818570,-0.064453125,0.9472656,0.28808594,0.0625,0.0,0.0625,0.0,0.0,0.0
1696254818615,-0.05078125,0.94433594,0.27929688,-0.0625,-0.21875,0.0,0.0,0.0,0.0
1696254818649,-0.049804688,0.953125,0.28027344,-0.125,-0.0625,-0.125,0.0,0.0,0.0
1696254818694,-0.0625,0.94433594,0.28222656,0.125,0.0,-0.0625,0.0,0.0,0.0
1696254818740,-0.056640625,0.95214844,0.27734375,0.125,-0.0625,0.0625,0.0,0.0,0.0
1696254818773,-0.053710938,0.94921875,0.26953125,-0.0625,-0.0625,0.125,0.0,0.0,0.0
1696254818818,-0.055664062,0.94433594,0.28320312,0.0,0.125,0.0,0.0,0.0,0.0
1696254818852,-0.0546875,0.953125,0.2763672,-0.125,-0.0625,0.0,0.0,0.0,0.0
1696254818908,-0.0546875,0.953125,0.28222656,0.0625,-0.1875,0.0,0.0,0.0,0.0
1696254818930,-0.055664062,0.9472656,0.28222656,0.0625,-0.1875,0.0625,0.0,0.0,0.0
1696254818975,-0.06347656,0.9501953,0.2685547,0.0,0.0,0.0625,0.0,0.0,0.0
1696254819009,-0.05859375,0.9404297,0.28515625,-0.25,-0.125,0.0,-21.4375,67.6875,-207.8125
1696254819054,-0.061523438,0.9589844,0.2919922,-0.1875,-0.125,-0.1875,0.0,0.0,0.0
1696254819088,-0.05859375,0.9511719,0.2734375,0.0625,-0.0625,-0.25,0.0,0.0,0.0
1696254819133,-0.047851562,0.9589844,0.2763672,0.125,0.0625,-0.0625,0.0,0.0,0.0
1696254819178,-0.053710938,0.9511719,0.2783203,-0.0625,-0.40625,-0.0625,0.0,0.0,0.0
1696254819211,-0.0625,0.953125,0.27929688,0.0,-0.125,-0.0625,0.0,0.0,0.0
1696254819256,-0.055664062,0.9482422,0.2705078,-0.0625,0.0,0.0,0.0,0.0,0.0
1696254819301,-0.055664062,0.9511719,0.28222656,-0.28125,0.0625,-0.0625,0.0,0.0,0.0
1696254819335,-0.055664062,0.9433594,0.2763672,0.0,-0.125,0.0625,0.0,0.0,0.0
1696254819369,-0.057617188,0.9550781,0.27246094,-0.0625,-0.1875,0.125,0.0,0.0,0.0
1696254819414,-0.057617188,0.9589844,0.27441406,-0.28125,-0.125,0.0,0.0,0.0,0.0
1696254819459,-0.051757812,0.9433594,0.27539062,0.0625,0.125,0.0,0.0,0.0,0.0
1696254819492,-0.064453125,0.9501953,0.2763672,-0.0625,-0.125,-0.0625,0.0,0.0,0.0
1696254819538,-0.06347656,0.9511719,0.27734375,0.0,0.0625,0.0,-21.4375,68.4375,-207.1875
1696254819572,-0.056640625,0.94921875,0.29101562,-0.0625,0.0625,0.0,0.0,0.0,0.0
1696254819616,-0.056640625,0.9550781,0.28710938,-0.1875,-0.125,0.0625,0.0,0.0,0.0
1696254819650,-0.06933594,0.9404297,0.2861328,0.0,-0.21875,-0.0625,0.0,0.0,0.0
1696254819695,-0.059570312,0.94433594,0.27734375,0.0,-0.1875,0.0,0.0,0.0,0.0
1696254819730,-0.0546875,0.94921875,0.27539062,-0.1875,-0.125,0.0625,0.0,0.0,0.0
1696254819785,-0.057617188,0.953125,0.27441406,-0.28125,-0.125,0.0,0.0,0.0,0.0
1696254819819,-0.053710938,0.9550781,0.2890625,-0.25,-0.21875,0.0,0.0,0.0,0.0
1696254819852,-0.052734375,0.9472656,0.29101562,-0.0625,0.125,0.0625,0.0,0.0,0.0
1696254819931,-0.05859375,0.9501953,0.27148438,0.0625,0.0625,0.125,0.0,0.0,0.0
1696254819932,-0.0546875,0.94921875,0.2705078,0.09375,0.0,-0.125,0.0,0.0,0.0
1696254819987,-0.0625,0.9453125,0.28320312,0.09375,-0.09375,0.0,0.0,0.0,0.0
1696254820010,-0.061523438,0.9472656,0.2763672,0.0625,-0.0625,0.1875,-20.375,66.9375,-208.5625
1696254820055,-0.056640625,0.9404297,0.2705078,0.0625,0.0625,0.1875,0.0,0.0,0.0
1696254820088,-0.055664062,0.95703125,0.28125,0.0,-0.09375,0.0,0.0,0.0,0.0
1696254820134,-0.057617188,0.953125,0.26953125,0.15625,0.0625,0.125,0.0,0.0,0.0
1696254820179,-0.055664062,0.9560547,0.26757812,-0.0625,0.0,0.0625,0.0,0.0,0.0
1696254820212,-0.05078125,0.9501953,0.27929688,0.09375,0.0,-0.0625,0.0,0.0,0.0
1696254820257,-0.06542969,0.94628906,0.26367188,0.0625,-0.0625,-0.125,0.0,0.0,0.0
1696254820291,-0.057617188,0.953125,0.26464844,0.0625,-0.15625,0.0,0.0,0.0,0.0
1696254820336,-0.0625,0.94433594,0.27441406,0.0625,-0.0625,0.125,0.0,0.0,0.0
1696254820370,-0.057617188,0.9501953,0.2890625,0.09375,0.1875,-0.0625,0.0,0.0,0.0
1696254820415,-0.055664062,0.9482422,0.2919922,0.0,0.0625,0.0625,0.0,0.0,0.0
1696254820449,-0.05859375,0.9423828,0.27441406,0.0625,-0.09375,0.125,0.0,0.0,0.0
1696254820494,-0.0625,0.9550781,0.2783203,0.15625,-0.09375,-0.0625,0.0,0.0,0.0
1696254820552,-0.059570312,0.953125,0.27441406,0.09375,0.1875,0.0625,-21.0,68.4375,-207.5
1696254820572,-0.06738281,0.9550781,0.28125,-0.125,-0.15625,0.0625,0.0,0.0,0.0
1696254820618,-0.061523438,0.9423828,0.28222656,-0.0625,-0.21875,0.0,0.0,0.0,0.0
1696254820652,-0.057617188,0.9453125,0.28710938,0.0625,-0.09375,-0.0625,0.0,0.0,0.0
1696254820696,-0.056640625,0.9453125,0.27539062,-0.0625,0.0625,-0.0625,0.0,0.0,0.0
1696254820732,-0.05859375,0.95410156,0.2763672,0.0625,0.0,-0.0625,0.0,0.0,0.0
1696254820775,-0.059570312,0.94628906,0.2734375,0.15625,-0.09375,-0.0625,0.0,0.0,0.0
1696254820809,-0.055664062,0.9560547,0.28125,0.0,-0.0625,-0.0625,0.0,0.0,0.0
1696254820854,-0.059570312,0.9511719,0.27539062,0.0625,0.0625,0.0625,0.0,0.0,0.0
1696254820901,-0.056640625,0.9501953,0.27246094,-0.125,-0.0625,0.0,0.0,0.0,0.0
1696254820933,-0.068359375,0.9472656,0.2841797,0.0,-0.0625,0.0625,0.0,0.0,0.0
1696254820978,-0.059570312,0.95214844,0.27929688,0.0,0.0,-0.0625,0.0,0.0,0.0
1696254821012,-0.059570312,0.95703125,0.27148438,0.0625,-0.0625,-0.0625,-21.4375,69.0625,-206.4375
1696254821056,-0.059570312,0.94140625,0.2841797,0.09375,0.0625,0.125,0.0,0.0,0.0
1696254821090,-0.056640625,0.9453125,0.28027344,0.15625,0.0,0.0,0.0,0.0,0.0
1696254821135,-0.061523438,0.9638672,0.26757812,0.0,-0.21875,0.0,0.0,0.0,0.0
1696254821172,-0.055664062,0.95214844,0.28320312,0.0625,0.0,0.125,0.0,0.0,0.0
1696254821213,-0.05859375,0.9433594,0.28515625,0.09375,0.0625,-0.125,0.0,0.0,0.0
1696254821259,-0.061523438,0.9472656,0.27539062,-0.0625,0.0,0.0,0.0,0.0,0.0
1696254821315,-0.0546875,0.9550781,0.26660156,0.21875,-0.21875,-0.125,0.0,0.0,0.0
1696254821337,-0.057617188,0.94433594,0.27734375,0.15625,-0.09375,-0.0625,0.0,0.0,0.0
1696254821372,-0.0703125,0.9589844,0.2783203,-0.0625,-0.0625,0.0625,0.0,0.0,0.0
1696254821416,-0.060546875,0.94921875,0.28320312,-0.3125,-0.0625,0.0625,0.0,0.0,0.0
1696254821450,-0.06640625,0.9453125,0.2763672,-0.0625,-0.15625,-0.125,0.0,0.0,0.0
1696254821495,-0.057617188,0.9433594,0.2919922,0.0625,-0.0625,-0.0625,0.0,0.0,0.0
1696254821529,-0.052734375,0.95703125,0.28320312,0.0,-0.0625,0.0625,-20.375,68.4375,-206.75
1696254821594,-0.060546875,0.94433594,0.2734375,0.0625,-0.0625,-0.0625,0.0,0.0,0.0
1696254821619,-0.059570312,0.9560547,0.2763672,0.09375,-0.09375,-0.125,0.0,0.0,0.0
1696254821652,-0.057617188,0.95214844,0.2763672,0.09375,0.0,0.0625,0.0,0.0,0.0
1696254821731,-0.0546875,0.94921875,0.27246094,-0.3125,0.0,0.125,0.0,0.0,0.0
1696254821733,-0.060546875,0.9453125,0.2890625,-0.3125,-0.0625,0.0625,0.0,0.0,0.0
1696254821776,-0.059570312,0.95410156,0.28808594,0.0625,-0.15625,0.0,0.0,0.0,0.0
1696254821810,-0.052734375,0.9511719,0.26757812,0.0625,-0.0625,-0.125,0.0,0.0,0.0
1696254821857,-0.0546875,0.9482422,0.29101562,0.09375,0.0625,-0.1875,0.0,0.0,0.0
1696254821889,-0.06347656,0.95996094,0.27441406,0.21875,0.0,-0.125,0.0,0.0,0.0
1696254821934,-0.053710938,0.9501953,0.2734375,0.0,-0.21875,0.0625,0.0,0.0,0.0
1696254821979,-0.055664062,0.9472656,0.2734375,-0.0625,-0.28125,-0.0625,0.0,0.0,0.0
1696254822012,-0.060546875,0.9482422,0.29101562,0.0,-0.21875,0.0625,-20.5625,65.75,-207.375
1696254822091,-0.0546875,0.94921875,0.2861328,0.15625,0.0625,-0.0625,0.0,0.0,0.0
1696254822093,-0.057617188,0.9394531,0.29003906,-0.125,-0.0625,0.0,0.0,0.0,0.0
1696254822136,-0.049804688,0.9501953,0.2705078,0.0,-0.34375,0.0,0.0,0.0,0.0
1696254822170,-0.053710938,0.9511719,0.2705078,0.28125,-0.28125,-0.0625,0.0,0.0,0.0
1696254822215,-0.056640625,0.9560547,0.28027344,0.09375,0.0,0.0,0.0,0.0,0.0
1696254822249,-0.056640625,0.9550781,0.28808594,0.0625,-0.15625,0.0,0.0,0.0,0.0
1696254822293,-0.055664062,0.94628906,0.2861328,0.0625,-0.09375,-0.125,0.0,0.0,0.0
1696254822339,-0.056640625,0.94921875,0.2861328,0.09375,-0.21875,-0.1875,0.0,0.0,0.0
1696254822372,-0.05859375,0.9550781,0.2734375,-0.0625,-0.15625,-0.25,0.0,0.0,0.0
1696254822419,-0.064453125,0.95214844,0.28027344,0.0625,-0.09375,0.0,0.0,0.0,0.0
1696254822451,-0.045898438,0.94628906,0.27148438,0.1875,0.03125,0.09375,0.0,0.0,0.0
1696254822496,-0.06347656,0.9453125,0.27734375,0.0,0.03125,0.03125,0.0,0.0,0.0
1696254822530,-0.06347656,0.9482422,0.28320312,-0.0625,-0.09375,0.03125,-20.6875,67.6875,-207.1875
1696254822578,-0.057617188,0.9550781,0.29101562,0.0625,0.09375,-0.09375,0.0,0.0,0.0
1696254822608,-0.057617188,0.953125,0.28222656,0.125,-0.09375,-0.15625,0.0,0.0,0.0
1696254822654,-0.0625,0.9550781,0.2783203,-0.1875,-0.09375,0.09375,0.0,0.0,0.0
1696254822699,-0.05078125,0.9472656,0.2705078,0.0,0.03125,-0.09375,0.0,0.0,0.0
1696254822733,-0.048828125,0.9394531,0.27539062,0.0,0.03125,-0.03125,0.0,0.0,0.0
1696254822778,-0.051757812,0.94921875,0.28320312,0.0,0.03125,-0.03125,0.0,0.0,0.0
1696254822833,-0.05859375,0.9453125,0.2890625,0.0625,0.15625,-0.09375,0.0,0.0,0.0
1696254822856,-0.051757812,0.9511719,0.2841797,0.3125,-0.03125,-0.09375,0.0,0.0,0.0
1696254822890,-0.055664062,0.9501953,0.28222656,0.125,0.15625,-0.03125,0.0,0.0,0.0
1696254822935,-0.059570312,0.9550781,0.2890625,0.0,0.09375,-0.15625,0.0,0.0,0.0
1696254822974,-0.046875,0.94628906,0.2861328,0.0,-0.03125,-0.09375,0.0,0.0,0.0
1696254823013,-0.0625,0.9511719,0.27929688,0.3125,0.09375,0.03125,-21.0,67.6875,-207.8125
1696254823059,-0.061523438,0.94921875,0.27539062,0.0,-0.21875,0.03125,0.0,0.0,0.0
1696254823092,-0.06738281,0.95214844,0.28125,-0.125,0.03125,0.03125,0.0,0.0,0.0
1696254823137,-0.060546875,0.94921875,0.29003906,-0.0625,-0.15625,-0.03125,0.0,0.0,0.0
1696254823183,-0.051757812,0.9453125,0.28710938,-0.125,-0.15625,-0.09375,0.0,0.0,0.0
1696254823217,-0.0625,0.94921875,0.27539062,0.0,-0.03125,-0.09375,0.0,0.0,0.0
1696254823250,-0.059570312,0.9453125,0.2861328,-0.1875,0.03125,-0.09375,0.0,0.0,0.0
1696254823306,-0.055664062,0.9550781,0.27148438,0.0625,-0.09375,0.03125,0.0,0.0,0.0
1696254823328,-0.060546875,0.953125,0.2705078,0.3125,-0.03125,-0.15625,0.0,0.0,0.0
1696254823374,-0.057617188,0.94433594,0.26660156,0.1875,0.09375,-0.09375,0.0,0.0,0.0
1696254823419,-0.061523438,0.9501953,0.27148438,0.1875,0.09375,0.09375,0.0,0.0,0.0
1696254823464,-0.060546875,0.95410156,0.2919922,-0.0625,-0.03125,0.03125,0.0,0.0,0.0
1696254823498,-0.046875,0.9404297,0.28222656,0.0,-0.03125,0.03125,0.0,0.0,0.0
1696254823535,-0.05859375,0.94628906,0.2705078,0.0,-0.03125,0.03125,-20.875,67.8125,-207.375
1696254823587,-0.0625,0.9550781,0.28320312,0.0625,0.09375,-0.09375,0.0,0.0,0.0
1696254823610,-0.0546875,0.9560547,0.2734375,0.1875,0.15625,-0.03125,0.0,0.0,0.0
1696254823655,-0.06738281,0.953125,0.28222656,0.1875,0.03125,0.03125,0.0,0.0,0.0
1696254823688,-0.05859375,0.95996094,0.27734375,-0.125,0.03125,0.15625,0.0,0.0,0.0
1696254823733,-0.06640625,0.9511719,0.27734375,-0.0625,0.15625,0.03125,0.0,0.0,0.0
1696254823781,-0.06640625,0.95410156,0.28125,-0.0625,0.21875,-0.03125,0.0,0.0,0.0
1696254823812,-0.059570312,0.9580078,0.27246094,0.125,0.09375,-0.09375,0.0,0.0,0.0
1696254823869,-0.0546875,0.94140625,0.26953125,0.0,0.03125,0.09375,0.0,0.0,0.0
1696254823891,-0.05859375,0.953125,0.28710938,0.125,0.15625,0.15625,0.0,0.0,0.0
1696254823937,-0.064453125,0.94628906,0.28027344,-0.125,0.03125,0.09375,0.0,0.0,0.0
1696254823970,-0.06347656,0.9472656,0.27929688,-0.40625,0.03125,-0.03125,0.0,0.0,0.0
1696254824015,-0.05859375,0.9482422,0.2734375,-0.0625,-0.03125,-0.03125,-21.875,66.5,-206.625
1696254824049,-0.060546875,0.9550781,0.27246094,-0.25,0.15625,0.03125,0.0,0.0,0.0
1696254824094,-0.0546875,0.94921875,0.27734375,-0.125,0.09375,-0.09375,0.0,0.0,0.0
1696254824139,-0.05859375,0.9472656,0.28125,0.0,0.03125,0.15625,0.0,0.0,0.0
1696254824172,-0.056640625,0.953125,0.26757812,-0.25,0.09375,0.09375,0.0,0.0,0.0
1696254824229,-0.06640625,0.9550781,0.27929688,0.0,0.15625,-0.03125,0.0,0.0,0.0
1696254824251,-0.057617188,0.953125,0.27148438,-0.0625,0.03125,0.09375,0.0,0.0,0.0
1696254824298,-0.05859375,0.953125,0.27734375,-0.0625,0.09375,0.15625,0.0,0.0,0.0
1696254824352,-0.059570312,0.9511719,0.28320312,-0.1875,0.09375,0.09375,0.0,0.0,0.0
1696254824375,-0.056640625,0.95214844,0.28125,0.0625,0.28125,0.03125,0.0,0.0,0.0
1696254824409,-0.053710938,0.95410156,0.2734375,0.0625,0.28125,-0.03125,0.0,0.0,0.0
1696254824454,-0.059570312,0.95214844,0.2841797,0.0625,0.15625,0.09375,0.0,0.0,0.0
1696254824499,-0.059570312,0.9472656,0.26757812,-0.25,0.03125,0.15625,0.0,0.0,0.0
1696254824533,-0.060546875,0.95214844,0.2841797,-0.0625,0.21875,0.03125,-21.4375,68.0,-207.5
1696254824589,-0.045898438,0.9453125,0.2734375,-0.0625,0.15625,0.03125,0.0,0.0,0.0
1696254824611,-0.056640625,0.94921875,0.2685547,0.0,-0.03125,0.21875,0.0,0.0,0.0
1696254824656,-0.059570312,0.95996094,0.27246094,0.0,0.15625,0.09375,0.0,0.0,0.0
1696254824691,-0.057617188,0.94921875,0.27734375,-0.1875,-0.03125,0.15625,0.0,0.0,0.0
1696254824735,-0.056640625,0.94921875,0.28320312,-0.25,-0.03125,0.15625,0.0,0.0,0.0
1696254824769,-0.053710938,0.9560547,0.27246094,-0.3125,-0.09375,0.09375,0.0,0.0,0.0
1696254824814,-0.05078125,0.95214844,0.2783203,0.0625,0.15625,0.09375,0.0,0.0,0.0
1696254824858,-0.060546875,0.9433594,0.28710938,-0.0625,0.09375,-0.03125,0.0,0.0,0.0
1696254824893,-0.056640625,0.9423828,0.26660156,0.0,-0.03125,0.15625,0.0,0.0,0.0
1696254824937,-0.06640625,0.95703125,0.2685547,-0.0625,-0.03125,0.09375,0.0,0.0,0.0
1696254824971,-0.068359375,0.93847656,0.28515625,0.0625,0.09375,0.09375,0.0,0.0,0.0
1696254825016,-0.055664062,0.9482422,0.28125,-0.125,0.21875,0.03125,-20.6875,69.5,-208.5625
1696254825050,-0.052734375,0.9423828,0.27246094,-0.1875,-0.03125,0.09375,0.0,0.0,0.0
1696254825106,-0.053710938,0.9453125,0.265625,0.0625,-0.0625,-0.0625,0.0,0.0,0.0
1696254825128,-0.061523438,0.94433594,0.27441406,0.0625,0.0625,0.0625,0.0,0.0,0.0
1696254825174,-0.052734375,0.94433594,0.27929688,0.125,0.0,0.0,0.0,0.0,0.0
1696254825219,-0.06640625,0.95214844,0.27929688,0.25,0.0625,0.0625,0.0,0.0,0.0
1696254825253,-0.05859375,0.95996094,0.265625,0.0625,-0.0625,0.0625,0.0,0.0,0.0
1696254825297,-0.056640625,0.9472656,0.2734375,-0.0625,-0.1875,-0.0625,0.0,0.0,0.0
1696254825331,-0.06640625,0.94628906,0.27929688,0.125,0.1875,-0.25,0.0,0.0,0.0
1696254825376,-0.055664062,0.953125,0.28710938,-0.0625,0.0625,-0.0625,0.0,0.0,0.0
1696254825410,-0.06347656,0.9404297,0.2626953,-0.0625,-0.25,0.0,0.0,0.0,0.0
1696254825455,-0.053710938,0.94433594,0.2705078,0.1875,0.0,-0.125,0.0,0.0,0.0
1696254825489,-0.0625,0.9609375,0.29589844,0.0625,-0.0625,-0.0625,0.0,0.0,0.0
1696254825533,-0.0546875,0.9423828,0.26757812,-0.25,0.0,-0.0625,-20.875,66.8125,-206.0
1696254825578,-0.0625,0.94433594,0.28222656,-0.1875,-0.125,0.0625,0.0,0.0,0.0
1696254825612,-0.053710938,0.9580078,0.28710938,0.0,-0.125,-0.0625,0.0,0.0,0.0
1696254825657,-0.05859375,0.95214844,0.28710938,0.0,-0.125,-0.0625,0.0,0.0,0.0
1696254825691,-0.055664062,0.94433594,0.28515625,0.125,0.0,-0.0625,0.0,0.0,0.0
1696254825736,-0.060546875,0.953125,0.2783203,0.25,-0.0625,-0.0625,0.0,0.0,0.0
1696254825772,-0.059570312,0.95214844,0.27441406,-0.0625,0.0,0.0,0.0,0.0,0.0
1696254825815,-0.05859375,0.95214844,0.2705078,-0.25,-0.125,-0.0625,0.0,0.0,0.0
1696254825905,-0.057617188,0.94433594,0.27734375,0.125,0.0,-0.0625,0.0,0.0,0.0
1696254825906,-0.05859375,0.94921875,0.2783203,0.0625,-0.0625,-0.125,0.0,0.0,0.0
1696254825939,-0.060546875,0.94140625,0.2734375,0.0625,-0.0625,-0.0625,0.0,0.0,0.0
1696254825972,-0.05859375,0.9560547,0.27734375,0.125,0.0,-0.1875,0.0,0.0,0.0
1696254826017,-0.059570312,0.9453125,0.2861328,0.1875,-0.125,-0.125,-21.0,67.6875,-206.4375
1696254826051,-0.06640625,0.94921875,0.2705078,0.125,-0.25,0.0,0.0,0.0,0.0
1696254826096,-0.057617188,0.953125,0.27441406,-0.0625,-0.1875,0.0,0.0,0.0,0.0
1696254826130,-0.05859375,0.9423828,0.27734375,-0.0625,0.1875,-0.0625,0.0,0.0,0.0
1696254826175,-0.051757812,0.9433594,0.2763672,-0.0625,-0.0625,-0.125,0.0,0.0,0.0
1696254826209,-0.049804688,0.95214844,0.27246094,0.125,-0.1875,-0.3125,0.0,0.0,0.0
1696254826253,-0.056640625,0.94628906,0.27734375,0.4375,-0.1875,-0.1875,0.0,0.0,0.0
1696254826299,-0.056640625,0.95214844,0.2734375,0.25,0.0,-0.1875,0.0,0.0,0.0
1696254826332,-0.057617188,0.94433594,0.28027344,0.0625,-0.1875,-0.0625,0.0,0.0,0.0
1696254826377,-0.052734375,0.9511719,0.28125,0.0,-0.3125,-0.125,0.0,0.0,0.0
1696254826411,-0.064453125,0.94921875,0.2890625,0.125,0.0,-0.0625,0.0,0.0,0.0
1696254826456,-0.05078125,0.94628906,0.27246094,0.0625,-0.1875,-0.125,0.0,0.0,0.0
1696254826490,-0.052734375,0.9560547,0.28808594,0.5,-0.0625,-0.25,0.0,0.0,0.0
1696254826535,-0.0625,0.953125,0.27441406,0.3125,-0.3125,-0.1875,-21.625,69.3125,-208.375
1696254826569,-0.051757812,0.9482422,0.2685547,0.0,-0.1875,-0.125,0.0,0.0,0.0
1696254826625,-0.060546875,0.9482422,0.2939453,0.125,0.0625,-0.1875,0.0,0.0,0.0
1696254826659,-0.053710938,0.9580078,0.28808594,0.0625,-0.25,-0.125,0.0,0.0,0.0
1696254826692,-0.05859375,0.94628906,0.27539062,-0.1875,-0.3125,-0.0625,0.0,0.0,0.0
1696254826737,-0.055664062,0.94433594,0.27246094,0.0625,-0.1875,-0.0625,0.0,0.0,0.0
1696254826771,-0.057617188,0.93652344,0.2685547,0.3125,0.0,-0.0625,0.0,0.0,0.0
1696254826816,-0.068359375,0.9501953,0.2734375,0.25,0.0,-0.3125,0.0,0.0,0.0
1696254826850,-0.06933594,0.9550781,0.2578125,0.1875,0.0625,-0.3125,0.0,0.0,0.0
1696254826895,-0.059570312,0.94433594,0.28320312,0.25,0.0,-0.125,0.0,0.0,0.0
1696254826929,-0.0546875,0.9501953,0.27539062,0.125,0.0,-0.1875,0.0,0.0,0.0
1696254826974,-0.053710938,0.9482422,0.2734375,-0.1875,-0.125,-0.0625,0.0,0.0,0.0
1696254827022,-0.060546875,0.94628906,0.27929688,0.25,-0.1875,-0.125,-19.9375,68.0,-206.125
1696254827054,-0.056640625,0.94921875,0.27929688,0.4375,-0.125,-0.1875,0.0,0.0,0.0
1696254827097,-0.06542969,0.95996094,0.26660156,-0.0625,-0.0625,-0.125,0.0,0.0,0.0
1696254827131,-0.05078125,0.95214844,0.2734375,0.0625,-0.125,-0.0625,0.0,0.0,0.0
1696254827177,-0.056640625,0.95703125,0.28027344,0.0625,-0.25,-0.1875,0.0,0.0,0.0
1696254827210,-0.0546875,0.9482422,0.28222656,0.125,0.0625,-0.125,0.0,0.0,0.0
1696254827255,-0.05859375,0.953125,0.29003906,0.125,0.0625,-0.25,0.0,0.0,0.0
1696254827289,-0.044921875,0.9589844,0.28222656,0.0625,-0.125,-0.1875,0.0,0.0,0.0
1696254827334,-0.05859375,0.953125,0.28027344,0.1875,-0.125,-0.125,0.0,0.0,0.0
1696254827390,-0.056640625,0.94628906,0.28710938,-0.0625,-0.0625,-0.125,0.0,0.0,0.0
1696254827412,-0.059570312,0.9501953,0.2763672,0.0,-0.0625,-0.1875,0.0,0.0,0.0
1696254827457,-0.056640625,0.9453125,0.28027344,0.0625,-0.0625,0.0,0.0,0.0,0.0
1696254827494,-0.05078125,0.9511719,0.2763672,0.3125,-0.0625,-0.1875,0.0,0.0,0.0
1696254827536,-0.055664062,0.953125,0.2861328,0.0625,0.0,-0.25,-20.5625,67.8125,-209.3125
1696254827570,-0.053710938,0.9560547,0.265625,0.125,0.25,-0.1875,0.0,0.0,0.0
1696254827626,-0.06542969,0.9609375,0.2841797,0.1875,0.1875,-0.1875,0.0,0.0,0.0
1696254827649,-0.059570312,0.9550781,0.29003906,0.1875,-0.0625,-0.0625,0.0,0.0,0.0
1696254827705,-0.056640625,0.9550781,0.27929688,-0.1875,0.0625,0.0625,0.0,0.0,0.0
1696254827739,-0.057617188,0.9482422,0.28320312,0.125,0.25,-0.125,0.0,0.0,0.0
1696254827772,-0.055664062,0.94921875,0.28320312,0.125,0.0625,-0.0625,0.0,0.0,0.0
1696254827818,-0.05078125,0.9511719,0.28222656,0.1875,0.0625,-0.1875,0.0,0.0,0.0
1696254827852,-0.05859375,0.94921875,0.28808594,0.3125,-0.0625,-0.1875,0.0,0.0,0.0
1696254827908,-0.061523438,0.9580078,0.26660156,0.125,0.0,-0.125,0.0,0.0,0.0
1696254827930,-0.055664062,0.94921875,0.2763672,-0.125,-0.1875,-0.0625,0.0,0.0,0.0
1696254827975,-0.047851562,0.9482422,0.27539062,-0.25,-0.3125,0.0,0.0,0.0,0.0
1696254828020,-0.0546875,0.9501953,0.2783203,0.125,-0.0625,-0.25,-19.8125,68.5625,-207.625
1696254828054,-0.051757812,0.94628906,0.28515625,0.0625,-0.0625,-0.0625,0.0,0.0,0.0
1696254828099,-0.05078125,0.9482422,0.27539062,0.0625,-0.0625,-0.1875,0.0,0.0,0.0
1696254828155,-0.059570312,0.94921875,0.2734375,0.3125,-0.1875,0.0,0.0,0.0,0.0
1696254828177,-0.052734375,0.94921875,0.2763672,0.125,0.25,-0.1875,0.0,0.0,0.0
1696254828211,-0.06542969,0.9511719,0.26367188,-0.0625,0.125,-0.0625,0.0,0.0,0.0
1696254828256,-0.0546875,0.95410156,0.2734375,0.0,-0.125,-0.125,0.0,0.0,0.0
1696254828289,-0.053710938,0.9433594,0.2734375,0.0,-0.1875,-0.125,0.0,0.0,0.0
1696254828335,-0.064453125,0.9501953,0.2626953,0.0,0.0625,-0.0625,0.0,0.0,0.0
1696254828368,-0.061523438,0.9550781,0.25683594,-0.125,-0.0625,-0.1875,0.0,0.0,0.0
1696254828425,-0.049804688,0.9472656,0.27246094,0.25,-0.0625,-0.25,0.0,0.0,0.0
1696254828459,-0.064453125,0.95410156,0.27929688,0.125,-0.0625,-0.0625,0.0,0.0,0.0
1696254828492,-0.053710938,0.9453125,0.27734375,-0.1875,0.0,-0.0625,0.0,0.0,0.0
1696254828540,-0.064453125,0.94628906,0.29101562,0.125,0.1875,-0.125,-20.6875,66.9375,-208.5625
1696254828571,-0.060546875,0.9482422,0.28222656,0.0625,0.0,-0.25,0.0,0.0,0.0
1696254828627,-0.060546875,0.9511719,0.27734375,0.0625,-0.25,-0.0625,0.0,0.0,0.0
1696254828650,-0.052734375,0.9482422,0.27929688,0.1875,0.0,-0.1875,0.0,0.0,0.0
1696254828695,-0.052734375,0.9472656,0.2841797,0.125,0.0625,-0.125,0.0,0.0,0.0
1696254828729,-0.06738281,0.9433594,0.2685547,0.0625,-0.0625,-0.0625,0.0,0.0,0.0
1696254828774,-0.060546875,0.9453125,0.26757812,0.25,0.0,-0.1875,0.0,0.0,0.0
1696254828819,-0.051757812,0.9501953,0.28515625,0.0,-0.125,-0.125,0.0,0.0,0.0
1696254828852,-0.057617188,0.9433594,0.28710938,0.125,0.0625,-0.1875,0.0,0.0,0.0
1696254828909,-0.060546875,0.95703125,0.27246094,0.125,-0.125,-0.125,0.0,0.0,0.0
1696254828931,-0.057617188,0.9511719,0.28222656,0.0625,-0.0625,-0.125,0.0,0.0,0.0
1696254828976,-0.0625,0.9472656,0.2783203,0.125,0.0625,-0.0625,0.0,0.0,0.0
1696254829009,-0.059570312,0.9433594,0.27441406,-0.09375,-0.09375,-0.125,-20.375,67.375,-208.125
1696254829055,-0.059570312,0.9501953,0.28320312,0.03125,0.03125,0.125,0.0,0.0,0.0
1696254829089,-0.059570312,0.9501953,0.27929688,0.03125,0.03125,0.0,0.0,0.0,0.0
1696254829134,-0.055664062,0.9453125,0.27441406,-0.09375,-0.03125,0.125,0.0,0.0,0.0
1696254829179,-0.05078125,0.95410156,0.26660156,0.03125,0.03125,0.0,0.0,0.0,0.0
1696254829212,-0.053710938,0.9423828,0.27246094,0.28125,0.09375,0.0,0.0,0.0,0.0
1696254829257,-0.059570312,0.9501953,0.27148438,-0.09375,-0.15625,0.0625,0.0,0.0,0.0
1696254829297,-0.0546875,0.9511719,0.28222656,-0.09375,-0.03125,0.0,0.0,0.0,0.0
1696254829348,-0.056640625,0.9472656,0.29101562,-0.09375,0.09375,0.0,0.0,0.0,0.0
1696254829371,-0.049804688,0.9453125,0.27441406,-0.03125,-0.15625,0.0625,0.0,0.0,0.0
1696254829417,-0.05078125,0.94433594,0.2705078,0.09375,-0.15625,0.0625,0.0,0.0,0.0
1696254829449,-0.05859375,0.9560547,0.28515625,0.21875,0.03125,0.125,0.0,0.0,0.0
1696254829494,-0.064453125,0.95703125,0.2705078,0.03125,0.03125,0.0,0.0,0.0,0.0
1696254829539,-0.06640625,0.94140625,0.2705078,-0.03125,-0.21875,0.0,-20.125,68.3125,-207.625
1696254829575,-0.059570312,0.9433594,0.28125,-0.03125,-0.15625,0.125,0.0,0.0,0.0
1696254829628,-0.053710938,0.9472656,0.2841797,-0.03125,-0.09375,-0.0625,0.0,0.0,0.0
1696254829674,-0.051757812,0.953125,0.27539062,0.03125,0.03125,0.0,0.0,0.0,0.0
1696254829696,-0.061523438,0.953125,0.28027344,0.15625,-0.28125,-0.0625,0.0,0.0,0.0
1696254829730,-0.048828125,0.95214844,0.26953125,0.15625,-0.03125,0.0,0.0,0.0,0.0
1696254829775,-0.06542969,0.94921875,0.27734375,-0.03125,-0.03125,0.0,0.0,0.0,0.0
1696254829809,-0.057617188,0.9472656,0.2734375,-0.15625,-0.15625,0.0625,0.0,0.0,0.0
1696254829854,-0.05859375,0.9580078,0.29589844,0.21875,-0.15625,-0.0625,0.0,0.0,0.0
1696254829899,-0.0546875,0.9453125,0.2919922,0.21875,0.03125,-0.1875,0.0,0.0,0.0
1696254829932,-0.053710938,0.94433594,0.28027344,0.03125,0.03125,-0.0625,0.0,0.0,0.0
1696254829977,-0.07421875,0.9482422,0.28125,0.09375,0.03125,-0.0625,0.0,0.0,0.0
1696254830011,-0.064453125,0.9482422,0.27929688,0.09375,-0.09375,0.0,-20.375,68.4375,-207.1875
1696254830056,-0.05859375,0.94921875,0.28027344,0.03125,0.15625,0.125,0.0,0.0,0.0
1696254830090,-0.053710938,0.9453125,0.2763672,0.03125,0.15625,-0.0625,0.0,0.0,0.0
1696254830135,-0.05859375,0.953125,0.27734375,-0.03125,-0.09375,0.0,0.0,0.0,0.0
1696254830169,-0.056640625,0.9511719,0.2734375,0.15625,-0.21875,-0.0625,0.0,0.0,0.0
1696254830214,-0.055664062,0.9453125,0.27441406,0.03125,0.03125,0.0,0.0,0.0,0.0
1696254830292,-0.05859375,0.95410156,0.28125,0.03125,0.03125,0.0625,0.0,0.0,0.0
1696254830294,-0.0625,0.94628906,0.2763672,-0.03125,-0.15625,0.0,0.0,0.0,0.0
1696254830337,-0.05859375,0.9482422,0.2705078,-0.03125,-0.28125,0.0,0.0,0.0,0.0
1696254830371,-0.05859375,0.94921875,0.2841797,-0.03125,-0.03125,-0.0625,0.0,0.0,0.0
1696254830427,-0.05859375,0.94433594,0.27441406,-0.09375,-0.03125,-0.0625,0.0,0.0,0.0
1696254830450,-0.053710938,0.95996094,0.2763672,0.21875,-0.09375,0.0,0.0,0.0,0.0
1696254830495,-0.05078125,0.9472656,0.28222656,0.15625,0.03125,0.0625,0.0,0.0,0.0
1696254830540,-0.051757812,0.95214844,0.27734375,-0.03125,-0.03125,0.0,-21.125,68.875,-209.3125
1696254830574,-0.064453125,0.94921875,0.27246094,-0.03125,0.03125,-0.0625,0.0,0.0,0.0
1696254830619,-0.05859375,0.953125,0.28320312,0.21875,0.03125,0.0625,0.0,0.0,0.0
1696254830652,-0.057617188,0.9482422,0.27539062,-0.09375,-0.09375,-0.0625,0.0,0.0,0.0
1696254830697,-0.059570312,0.9501953,0.27441406,-0.15625,-0.03125,0.0,0.0,0.0,0.0
1696254830731,-0.057617188,0.9472656,0.27441406,0.15625,0.03125,0.0,0.0,0.0,0.0
1696254830776,-0.061523438,0.9501953,0.28222656,0.03125,0.15625,0.0,0.0,0.0,0.0
1696254830810,-0.055664062,0.9482422,0.28125,-0.09375,-0.03125,0.0,0.0,0.0,0.0
1696254830855,-0.059570312,0.9560547,0.2705078,0.09375,0.21875,-0.0625,0.0,0.0,0.0
1696254830900,-0.049804688,0.9501953,0.2763672,-0.03125,0.09375,-0.0625,0.0,0.0,0.0
1696254830937,-0.046875,0.94921875,0.28125,0.28125,-0.15625,-0.0625,0.0,0.0,0.0
1696254830978,-0.055664062,0.9511719,0.27539062,0.09375,-0.15625,-0.0625,0.0,0.0,0.0
1696254831013,-0.06347656,0.95410156,0.27539062,-0.09375,0.03125,0.0625,-20.875,67.0625,-207.625
1696254831057,-0.060546875,0.9482422,0.27441406,-0.21875,-0.15625,0.0,0.0,0.0,0.0
1696254831091,-0.064453125,0.9472656,0.27929688,-0.34375,-0.15625,-0.125,0.0,0.0,0.0
1696254831147,-0.060546875,0.9482422,0.28710938,-0.09375,-0.09375,-0.125,0.0,0.0,0.0
1696254831172,-0.061523438,0.9453125,0.26953125,-0.03125,0.21875,0.0,0.0,0.0,0.0
1696254831215,-0.057617188,0.9482422,0.27246094,-0.21875,-0.03125,0.0,0.0,0.0,0.0
1696254831260,-0.055664062,0.95703125,0.2841797,0.03125,-0.03125,-0.0625,0.0,0.0,0.0
1696254831294,-0.06347656,0.9433594,0.27734375,0.03125,0.03125,0.0,0.0,0.0,0.0
1696254831339,-0.0625,0.9482422,0.26953125,-0.34375,0.03125,0.0625,0.0,0.0,0.0
1696254831372,-0.053710938,0.9472656,0.28222656,-0.15625,-0.15625,0.15625,0.0,0.0,0.0
1696254831419,-0.052734375,0.9511719,0.28222656,0.09375,0.03125,0.0,0.0,0.0,0.0
1696254831451,-0.05078125,0.95703125,0.27441406,-0.03125,-0.03125,-0.0625,0.0,0.0,0.0
1696254831496,-0.064453125,0.953125,0.2705078,-0.03125,0.09375,-0.125,0.0,0.0,0.0
1696254831530,-0.0625,0.9472656,0.27148438,0.15625,0.15625,-0.125,-21.4375,69.5,-206.75
1696254831576,-0.051757812,0.9472656,0.265625,0.09375,0.21875,0.0,0.0,0.0,0.0
1696254831620,-0.0625,0.9482422,0.29003906,0.09375,0.03125,0.0,0.0,0.0,0.0
1696254831665,-0.056640625,0.94921875,0.28710938,0.09375,0.21875,0.0,0.0,0.0,0.0
1696254831699,-0.05859375,0.9453125,0.28027344,-0.09375,0.15625,0.0625,0.0,0.0,0.0
1696254831733,-0.05859375,0.9472656,0.28710938,-0.15625,-0.03125,0.0625,0.0,0.0,0.0
1696254831777,-0.059570312,0.94628906,0.26660156,0.09375,-0.28125,-0.0625,0.0,0.0,0.0
1696254831811,-0.056640625,0.94921875,0.27539062,0.15625,0.21875,0.0,0.0,0.0,0.0
1696254831856,-0.052734375,0.9482422,0.2763672,-0.21875,0.03125,0.0625,0.0,0.0,0.0
1696254831890,-0.064453125,0.9511719,0.27441406,-0.09375,-0.09375,0.15625,0.0,0.0,0.0
1696254831946,-0.053710938,0.94628906,0.28222656,-0.09375,-0.21875,0.0,0.0,0.0,0.0
1696254831979,-0.053710938,0.9472656,0.2763672,-0.15625,-0.21875,0.0,0.0,0.0,0.0
1696254832013,-0.056640625,0.9550781,0.2841797,0.15625,0.21875,-0.125,-19.8125,67.8125,-207.375
1696254832092,-0.06542969,0.9511719,0.2734375,0.34375,0.03125,-0.125,0.0,0.0,0.0
1696254832094,-0.060546875,0.94921875,0.2861328,0.15625,-0.03125,-0.0625,0.0,0.0,0.0
1696254832149,-0.05859375,0.95214844,0.28125,-0.28125,-0.03125,0.15625,0.0,0.0,0.0
1696254832171,-0.06347656,0.9511719,0.29003906,-0.15625,0.03125,0.0625,0.0,0.0,0.0
1696254832216,-0.053710938,0.9511719,0.28515625,-0.09375,-0.09375,0.0,0.0,0.0,0.0
1696254832250,-0.061523438,0.9550781,0.28027344,0.09375,0.03125,0.0,0.0,0.0,0.0
1696254832295,-0.0546875,0.9580078,0.28222656,-0.15625,0.03125,-0.0625,0.0,0.0,0.0
1696254832340,-0.0546875,0.9472656,0.2763672,0.03125,0.03125,-0.0625,0.0,0.0,0.0
1696254832385,-0.06542969,0.94921875,0.26660156,0.09375,-0.09375,0.0,0.0,0.0,0.0
1696254832452,-0.055664062,0.9511719,0.29003906,0.03125,-0.03125,-0.125,0.0,0.0,0.0
1696254832454,-0.051757812,0.9550781,0.28125,-0.28125,-0.21875,0.15625,0.0,0.0,0.0
1696254832498,-0.060546875,0.9580078,0.26660156,0.15625,-0.09375,-0.0625,0.0,0.0,0.0
1696254832531,-0.060546875,0.9511719,0.26953125,-0.5625,0.09375,-0.3125,-20.125,68.3125,-206.625
1696254832576,-0.060546875,0.94628906,0.27246094,-0.34375,-0.40625,0.0,0.0,0.0,0.0
1696254832621,-0.061523438,0.95214844,0.28320312,0.53125,-0.09375,-0.0625,0.0,0.0,0.0
1696254832658,-0.060546875,0.95214844,0.27734375,0.03125,-0.21875,-0.0625,0.0,0.0,0.0
1696254832711,-0.05859375,0.94921875,0.2705078,-0.40625,-0.21875,-0.0625,0.0,0.0,0.0
1696254832733,-0.059570312,0.95410156,0.27539062,0.03125,-0.03125,-0.0625,0.0,0.0,0.0
1696254832778,-0.064453125,0.9433594,0.26757812,-0.15625,-0.09375,-0.0625,0.0,0.0,0.0
1696254832812,-0.057617188,0.95996094,0.28027344,-0.03125,-0.09375,-0.125,0.0,0.0,0.0
1696254832857,-0.057617188,0.9472656,0.27734375,0.03125,0.03125,0.0,0.0,0.0,0.0
1696254832891,-0.0546875,0.96191406,0.27441406,0.46875,-0.15625,-0.1875,0.0,0.0,0.0
1696254832936,-0.060546875,0.9482422,0.28515625,-0.21875,-0.15625,0.0625,0.0,0.0,0.0
1696254832969,-0.06542969,0.94628906,0.28125,-0.03125,0.03125,0.0625,0.0,0.0,0.0
1696254833015,-0.064453125,0.9472656,0.27929688,-0.03125,-0.09375,-0.0625,-20.5625,67.8125,-208.6875
1696254833060,-0.05859375,0.94921875,0.2861328,-0.03125,-0.28125,0.0,0.0,0.0,0.0
1696254833094,-0.057617188,0.9472656,0.28125,-0.03125,-0.15625,0.125,0.0,0.0,0.0
1696254833139,-0.0546875,0.9472656,0.27441406,-0.03125,-0.15625,0.0625,0.0,0.0,0.0
1696254833175,-0.051757812,0.9472656,0.29003906,-0.09375,-0.15625,-0.125,0.0,0.0,0.0
1696254833229,-0.059570312,0.953125,0.27441406,0.03125,0.09375,0.0625,0.0,0.0,0.0
1696254833251,-0.064453125,0.9550781,0.28027344,-0.09375,-0.03125,-0.0625,0.0,0.0,0.0
1696254833296,-0.06640625,0.9472656,0.27539062,-0.09375,-0.09375,-0.0625,0.0,0.0,0.0
1696254833330,-0.05859375,0.94921875,0.28027344,0.03125,-0.03125,-0.0625,0.0,0.0,0.0
1696254833375,-0.060546875,0.95410156,0.2890625,0.03125,0.09375,-0.125,0.0,0.0,0.0
1696254833420,-0.057617188,0.9550781,0.27539062,-0.15625,-0.03125,-0.0625,0.0,0.0,0.0
1696254833465,-0.060546875,0.9501953,0.2763672,0.03125,-0.21875,0.0625,0.0,0.0,0.0
1696254833499,-0.059570312,0.94140625,0.27148438,0.15625,-0.21875,-0.0625,0.0,0.0,0.0
1696254833532,-0.05859375,0.9511719,0.27148438,0.15625,0.03125,-0.0625,-21.125,67.0625,-206.625
1696254833577,-0.064453125,0.9453125,0.29003906,-0.15625,-0.15625,0.0,0.0,0.0,0.0
1696254833611,-0.052734375,0.94433594,0.2919922,-0.03125,-0.09375,-0.0625,0.0,0.0,0.0
1696254833656,-0.055664062,0.9482422,0.27539062,-0.03125,-0.15625,-0.125,0.0,0.0,0.0
1696254833690,-0.059570312,0.95214844,0.265625,0.03125,0.03125,-0.1875,0.0,0.0,0.0
1696254833735,-0.059570312,0.9560547,0.26953125,-0.09375,-0.21875,-0.125,0.0,0.0,0.0
1696254833780,-0.055664062,0.94628906,0.27148438,0.21875,-0.15625,0.125,0.0,0.0,0.0
1696254833813,-0.056640625,0.9404297,0.27929688,0.09375,0.09375,0.0,0.0,0.0,0.0
1696254833859,-0.06738281,0.953125,0.2734375,-0.09375,0.09375,0.125,0.0,0.0,0.0
1696254833892,-0.06738281,0.9375,0.2763672,0.03125,0.03125,-0.0625,0.0,0.0,0.0
1696254833937,-0.055664062,0.9472656,0.27246094,0.03125,-0.03125,0.0625,0.0,0.0,0.0
1696254833971,-0.052734375,0.9433594,0.2763672,-0.03125,-0.03125,0.0,0.0,0.0,0.0
1696254834016,-0.0546875,0.94921875,0.28027344,0.03125,0.03125,0.0625,-21.625,66.8125,-207.9375
1696254834050,-0.052734375,0.9560547,0.2841797,0.03125,0.09375,-0.0625,0.0,0.0,0.0
1696254834095,-0.064453125,0.9550781,0.27441406,0.15625,0.09375,-0.1875,0.0,0.0,0.0
1696254834151,-0.056640625,0.9511719,0.27539062,-0.03125,-0.09375,0.0625,0.0,0.0,0.0
1696254834174,-0.0546875,0.95996094,0.2861328,-0.03125,-0.09375,0.0625,0.0,0.0,0.0
1696254834230,-0.052734375,0.953125,0.26953125,0.0,0.25,0.0625,0.0,0.0,0.0
1696254834264,-0.056640625,0.94433594,0.28027344,-0.15625,0.125,-0.125,0.0,0.0,0.0
1696254834297,-0.052734375,0.95214844,0.2705078,0.1875,0.125,-0.125,0.0,0.0,0.0
1696254834331,-0.057617188,0.94433594,0.2783203,0.0,0.0625,0.0,0.0,0.0,0.0
1696254834376,-0.06542969,0.9453125,0.2705078,-0.03125,0.125,0.0,0.0,0.0,0.0
1696254834410,-0.06542969,0.95214844,0.26660156,-0.09375,0.0625,0.1875,0.0,0.0,0.0
1696254834455,-0.06933594,0.9453125,0.27148438,-0.09375,-0.0625,-0.0625,0.0,0.0,0.0
1696254834500,-0.059570312,0.953125,0.27929688,-0.03125,0.0,0.0,0.0,0.0,0.0
1696254834540,-0.060546875,0.953125,0.2734375,-0.09375,-0.0625,-0.1875,-20.125,67.5625,-208.6875
1696254834579,-0.0546875,0.95703125,0.2734375,0.0,-0.125,0.0,0.0,0.0,0.0
1696254834612,-0.061523438,0.95214844,0.2763672,-0.03125,-0.125,0.0,0.0,0.0,0.0
1696254834658,-0.0546875,0.9511719,0.27734375,-0.09375,0.0625,0.125,0.0,0.0,0.0
1696254834691,-0.061523438,0.9472656,0.28515625,-0.15625,0.3125,0.0625,0.0,0.0,0.0
1696254834736,-0.060546875,0.95703125,0.26953125,-0.15625,0.0,0.0,0.0,0.0,0.0
1696254834770,-0.068359375,0.93359375,0.28710938,-0.03125,-0.0625,0.125,0.0,0.0,0.0
1696254834815,-0.05859375,0.9453125,0.28320312,-0.09375,0.0,-0.0625,0.0,0.0,0.0
1696254834860,-0.06347656,0.9433594,0.2841797,0.0625,0.125,-0.0625,0.0,0.0,0.0
1696254834894,-0.0625,0.9580078,0.2685547,0.0625,0.0,0.0,0.0,0.0,0.0
1696254834939,-0.051757812,0.953125,0.2861328,0.0,0.1875,0.0625,0.0,0.0,0.0
1696254834995,-0.06347656,0.953125,0.26660156,-0.21875,-0.0625,0.0625,0.0,0.0,0.0
1696254835017,-0.051757812,0.9511719,0.27441406,0.0625,0.0625,-0.0625,-19.625,68.4375,-208.125
1696254835051,-0.052734375,0.9560547,0.2734375,0.0625,0.125,0.0,0.0,0.0,0.0
1696254835096,-0.0546875,0.9511719,0.28515625,-0.09375,-0.0625,0.0625,0.0,0.0,0.0
1696254835130,-0.060546875,0.94628906,0.27734375,-0.15625,0.3125,-0.125,0.0,0.0,0.0
1696254835175,-0.0546875,0.94433594,0.27734375,0.0,0.1875,-0.0625,0.0,0.0,0.0
1696254835220,-0.06738281,0.9423828,0.2890625,0.125,-0.125,0.0,0.0,0.0,0.0
1696254835254,-0.059570312,0.9511719,0.28222656,0.1875,0.0625,0.0,0.0,0.0,0.0
1696254835299,-0.056640625,0.9501953,0.2861328,-0.03125,0.1875,0.0,0.0,0.0,0.0
1696254835332,-0.059570312,0.94628906,0.28515625,-0.34375,-0.0625,0.125,0.0,0.0,0.0
1696254835377,-0.05859375,0.93847656,0.28027344,-0.15625,-0.125,0.0,0.0,0.0,0.0
1696254835413,-0.059570312,0.9472656,0.27929688,0.0,0.0,-0.0625,0.0,0.0,0.0
1696254835456,-0.056640625,0.9472656,0.26464844,0.0,0.125,-0.0625,0.0,0.0,0.0
1696254835490,-0.05859375,0.9580078,0.27441406,0.125,-0.0625,-0.0625,0.0,0.0,0.0
1696254835535,-0.047851562,0.9433594,0.26660156,0.125,0.0,0.0,-21.0,68.0,-207.1875
1696254835580,-0.060546875,0.9423828,0.27539062,-0.15625,0.0,0.0625,0.0,0.0,0.0
1696254835613,-0.05859375,0.95214844,0.28515625,-0.03125,0.125,0.0625,0.0,0.0,0.0
1696254835658,-0.057617188,0.94140625,0.2841797,-0.03125,-0.0625,0.0625,0.0,0.0,0.0
1696254835692,-0.052734375,0.9394531,0.28515625,0.125,0.0625,0.0625,0.0,0.0,0.0
1696254835749,-0.057617188,0.9472656,0.27929688,0.1875,0.25,-0.125,0.0,0.0,0.0
1696254835773,-0.051757812,0.94921875,0.28125,0.0,0.125,0.0,0.0,0.0,0.0
1696254835816,-0.053710938,0.9472656,0.28125,0.0,0.0,0.0,0.0,0.0,0.0
1696254835895,-0.05859375,0.9501953,0.28027344,0.0,-0.0625,-0.0625,0.0,0.0,0.0
1696254835896,-0.053710938,0.94921875,0.2841797,-0.03125,-0.1875,0.3125,0.0,0.0,0.0
1696254835940,-0.06933594,0.9560547,0.28710938,-0.15625,-0.0625,0.0625,0.0,0.0,0.0
1696254835973,-0.053710938,0.953125,0.27539062,0.0,0.375,0.0625,0.0,0.0,0.0
1696254836019,-0.052734375,0.95410156,0.27539062,-0.03125,0.0,-0.0625,-20.375,66.625,-205.6875
1696254836052,-0.056640625,0.94433594,0.2861328,0.3125,-0.125,-0.0625,0.0,0.0,0.0
1696254836097,-0.05078125,0.9501953,0.28320312,0.1875,-0.125,-0.0625,0.0,0.0,0.0
1696254836153,-0.060546875,0.9550781,0.28320312,-0.21875,0.0,0.0625,0.0,0.0,0.0
1696254836177,-0.06347656,0.9560547,0.28320312,-0.15625,-0.0625,0.0,0.0,0.0,0.0
1696254836211,-0.05859375,0.9511719,0.2763672,0.0625,-0.1875,-0.125,0.0,0.0,0.0
1696254836255,-0.057617188,0.95410156,0.27441406,0.1875,0.0,-0.1875,0.0,0.0,0.0
1696254836300,-0.055664062,0.95410156,0.28710938,0.0,0.0625,-0.125,0.0,0.0,0.0
1696254836333,-0.05078125,0.9580078,0.27734375,0.25,-0.25,-0.0625,0.0,0.0,0.0
1696254836378,-0.055664062,0.9482422,0.2861328,0.0625,-0.1875,0.0,0.0,0.0,0.0
1696254836412,-0.047851562,0.9550781,0.265625,0.0,0.0,0.0625,0.0,0.0,0.0
1696254836459,-0.051757812,0.94921875,0.2861328,-0.03125,-0.0625,-0.0625,0.0,0.0,0.0
1696254836514,-0.057617188,0.95214844,0.2861328,-0.03125,-0.0625,0.0,0.0,0.0,0.0
1696254836536,-0.059570312,0.9482422,0.2890625,0.0,-0.0625,-0.0625,-19.625,67.375,-208.5625
1696254836570,-0.056640625,0.95410156,0.26953125,0.0,-0.0625,0.0,0.0,0.0,0.0
1696254836616,-0.05078125,0.9482422,0.27246094,0.125,0.125,-0.1875,0.0,0.0,0.0
1696254836660,-0.0625,0.9501953,0.2861328,0.3125,0.0625,-0.0625,0.0,0.0,0.0
1696254836696,-0.057617188,0.95214844,0.28515625,0.0625,0.125,-0.0625,0.0,0.0,0.0
1696254836738,-0.061523438,0.95410156,0.2685547,-0.15625,-0.125,-0.0625,0.0,0.0,0.0
1696254836783,-0.0546875,0.9511719,0.27734375,0.0625,0.125,-0.0625,0.0,0.0,0.0
1696254836817,-0.055664062,0.94140625,0.29003906,-0.03125,0.125,-0.1875,0.0,0.0,0.0
1696254836851,-0.060546875,0.9550781,0.28222656,-0.03125,-0.125,-0.125,0.0,0.0,0.0
1696254836896,-0.057617188,0.9482422,0.28320312,0.125,-0.125,-0.125,0.0,0.0,0.0
1696254836930,-0.05859375,0.94921875,0.27148438,0.125,-0.125,0.0,0.0,0.0,0.0
1696254836975,-0.056640625,0.9511719,0.27929688,-0.09375,-0.125,0.125,0.0,0.0,0.0
1696254837031,-0.060546875,0.95703125,0.28027344,-0.28125,-0.25,0.0625,-22.0625,68.4375,-207.1875
1696254837054,-0.06640625,0.94140625,0.28027344,0.0,-0.0625,-0.1875,0.0,0.0,0.0
1696254837099,-0.064453125,0.9501953,0.2919922,0.0,0.125,-0.0625,0.0,0.0,0.0
1696254837133,-0.05078125,0.953125,0.26660156,-0.03125,-0.0625,-0.0625,0.0,0.0,0.0
1696254837177,-0.060546875,0.94628906,0.27148438,0.125,-0.125,-0.0625,0.0,0.0,0.0
1696254837211,-0.057617188,0.95214844,0.28710938,0.0625,0.0625,0.0625,0.0,0.0,0.0
1696254837267,-0.0625,0.9482422,0.2763672,0.0,0.125,-0.0625,0.0,0.0,0.0
1696254837290,-0.068359375,0.953125,0.2841797,-0.09375,0.0625,-0.0625,0.0,0.0,0.0
1696254837335,-0.060546875,0.94921875,0.28222656,-0.21875,0.0,0.0,0.0,0.0,0.0
1696254837380,-0.055664062,0.9404297,0.26464844,0.0,0.0625,0.125,0.0,0.0,0.0
1696254837413,-0.0546875,0.9472656,0.27246094,-0.09375,0.1875,0.0,0.0,0.0,0.0
1696254837460,-0.057617188,0.95703125,0.28222656,0.3125,0.1875,-0.0625,0.0,0.0,0.0
1696254837493,-0.06738281,0.9511719,0.28320312,0.0,0.25,-0.125,0.0,0.0,0.0
1696254837537,-0.05859375,0.9482422,0.27734375,-0.21875,-0.0625,0.1875,-20.5625,67.0625,-207.375
1696254837571,-0.05859375,0.94921875,0.28515625,-0.03125,0.125,0.125,0.0,0.0,0.0
1696254837616,-0.052734375,0.953125,0.27734375,-0.03125,0.125,0.0625,0.0,0.0,0.0
1696254837650,-0.056640625,0.95214844,0.27148438,0.1875,0.125,0.0,0.0,0.0,0.0
1696254837695,-0.055664062,0.953125,0.26367188,0.125,0.0625,-0.125,0.0,0.0,0.0
1696254837740,-0.0625,0.9609375,0.28027344,0.0625,0.125,-0.0625,0.0,0.0,0.0
1696254837773,-0.055664062,0.9501953,0.28125,-0.15625,-0.0625,0.0,0.0,0.0,0.0
1696254837818,-0.064453125,0.95703125,0.2841797,-0.40625,-0.0625,0.0625,0.0,0.0,0.0
1696254837852,-0.051757812,0.9482422,0.27929688,0.0625,0.125,-0.25,0.0,0.0,0.0
1696254837897,-0.051757812,0.9511719,0.2763672,-0.15625,0.1875,-0.125,0.0,0.0,0.0
1696254837931,-0.052734375,0.9589844,0.26953125,0.0,0.0625,-0.0625,0.0,0.0,0.0
1696254837976,-0.05859375,0.9501953,0.2841797,-0.03125,-0.125,0.0,0.0,0.0,0.0
1696254838032,-0.051757812,0.94628906,0.27929688,0.0,0.1875,0.0,-21.125,68.5625,-209.0
1696254838054,-0.053710938,0.9560547,0.27734375,0.0,0.25,0.0,0.0,0.0,0.0
1696254838102,-0.051757812,0.9453125,0.28125,0.0,0.0625,-0.0625,0.0,0.0,0.0
1696254838133,-0.06542969,0.9472656,0.2841797,0.03125,0.0,0.0625,0.0,0.0,0.0
1696254838179,-0.046875,0.9472656,0.29785156,0.03125,0.125,0.0625,0.0,0.0,0.0
1696254838213,-0.057617188,0.94921875,0.2841797,-0.15625,-0.0625,0.0625,0.0,0.0,0.0
1696254838257,-0.057617188,0.9482422,0.296875,0.0625,0.0,0.0,0.0,0.0,0.0
1696254838291,-0.056640625,0.9453125,0.2763672,0.03125,0.0625,-0.0625,0.0,0.0,0.0
1696254838336,-0.059570312,0.94628906,0.28125,0.0625,0.0,0.0625,0.0,0.0,0.0
1696254838370,-0.05859375,0.9423828,0.3017578,0.03125,0.125,0.0,0.0,0.0,0.0
1696254838415,-0.052734375,0.9511719,0.28710938,-0.03125,0.0625,0.0,0.0,0.0,0.0
1696254838460,-0.052734375,0.94921875,0.27929688,-0.03125,-0.1875,0.125,0.0,0.0,0.0
1696254838494,-0.059570312,0.9482422,0.2734375,0.1875,-0.1875,0.0625,0.0,0.0,0.0
1696254838539,-0.05859375,0.9501953,0.27441406,0.03125,0.125,-0.125,-21.75,69.0625,-208.125
1696254838573,-0.055664062,0.9423828,0.27539062,-0.21875,-0.0625,0.0625,0.0,0.0,0.0
1696254838617,-0.05859375,0.9501953,0.2861328,-0.15625,-0.1875,0.125,0.0,0.0,0.0
1696254838651,-0.06347656,0.94921875,0.26953125,-0.09375,-0.0625,0.0,0.0,0.0,0.0
1696254838696,-0.0546875,0.94921875,0.2841797,0.03125,0.0,-0.125,0.0,0.0,0.0
1696254838730,-0.056640625,0.9501953,0.2841797,-0.03125,0.0,-0.125,0.0,0.0,0.0
1696254838786,-0.052734375,0.953125,0.2705078,-0.03125,-0.125,0.0,0.0,0.0,0.0
1696254838820,-0.0546875,0.94433594,0.28515625,0.03125,-0.0625,0.0,0.0,0.0,0.0
1696254838854,-0.0546875,0.94628906,0.26953125,0.03125,0.0625,0.0625,0.0,0.0,0.0
1696254838910,-0.0625,0.95214844,0.2841797,-0.09375,-0.0625,-0.0625,0.0,0.0,0.0
1696254838932,-0.059570312,0.9453125,0.2685547,-0.03125,-0.1875,0.0,0.0,0.0,0.0
1696254838977,-0.060546875,0.94140625,0.2861328,-0.03125,-0.125,0.0,0.0,0.0,0.0
1696254839011,-0.053710938,0.94921875,0.26367188,-0.03125,0.0,0.0,-22.5,68.0,-208.5625
1696254839056,-0.060546875,0.9560547,0.2763672,0.03125,0.125,-0.0625,0.0,0.0,0.0
1696254839090,-0.056640625,0.9550781,0.26953125,-0.03125,-0.125,0.0,0.0,0.0,0.0
1696254839135,-0.05859375,0.94433594,0.2861328,-0.15625,-0.1875,0.0,0.0,0.0,0.0
1696254839180,-0.064453125,0.9589844,0.2919922,-0.03125,-0.25,0.0625,0.0,0.0,0.0
1696254839216,-0.05859375,0.9560547,0.27734375,0.0625,0.1875,0.0625,0.0,0.0,0.0
1696254839258,-0.056640625,0.9472656,0.28027344,-0.15625,0.1875,-0.0625,0.0,0.0,0.0
1696254839292,-0.05859375,0.9550781,0.28027344,0.03125,-0.0625,0.0625,0.0,0.0,0.0
1696254839337,-0.052734375,0.9472656,0.29101562,0.25,-0.25,-0.125,0.0,0.0,0.0
1696254839371,-0.06347656,0.95996094,0.2705078,0.1875,0.0,-0.125,0.0,0.0,0.0
1696254839416,-0.064453125,0.94628906,0.28515625,-0.28125,-0.0625,0.0,0.0,0.0,0.0
1696254839461,-0.060546875,0.9580078,0.28515625,-0.15625,-0.3125,-0.0625,0.0,0.0,0.0
1696254839495,-0.049804688,0.953125,0.28710938,0.03125,-0.1875,-0.1875,0.0,0.0,0.0
1696254839551,-0.05859375,0.9472656,0.27929688,0.03125,0.0625,-0.25,-21.125,67.8125,-207.9375
1696254839573,-0.051757812,0.9511719,0.2763672,0.03125,0.0,-0.125,0.0,0.0,0.0
1696254839619,-0.059570312,0.94921875,0.27929688,0.0625,-0.125,-0.0625,0.0,0.0,0.0
1696254839653,-0.051757812,0.95410156,0.28222656,0.0625,-0.125,0.0,0.0,0.0,0.0
1696254839697,-0.05859375,0.94628906,0.28125,0.0625,0.0,-0.0625,0.0,0.0,0.0
1696254839731,-0.06347656,0.95214844,0.28710938,-0.09375,-0.0625,0.0625,0.0,0.0,0.0
1696254839776,-0.059570312,0.9453125,0.28320312,-0.03125,-0.3125,0.125,0.0,0.0,0.0
1696254839810,-0.0546875,0.9472656,0.28222656,0.0625,-0.0625,-0.0625,0.0,0.0,0.0
1696254839855,-0.05078125,0.94628906,0.2841797,-0.03125,-0.1875,-0.0625,0.0,0.0,0.0
1696254839900,-0.0546875,0.9511719,0.28125,0.0625,-0.0625,-0.125,0.0,0.0,0.0
1696254839933,-0.05859375,0.94433594,0.27148438,0.0625,0.0,0.0,0.0,0.0,0.0
1696254839979,-0.057617188,0.94140625,0.2763672,0.03125,-0.125,-0.0625,0.0,0.0,0.0
1696254840013,-0.053710938,0.95214844,0.2705078,-0.03125,-0.1875,0.0,-20.375,68.75,-207.1875
1696254840058,-0.05859375,0.94921875,0.28027344,0.03125,0.1875,-0.0625,0.0,0.0,0.0
1696254840091,-0.05859375,0.9501953,0.2861328,-0.03125,0.125,-0.25,0.0,0.0,0.0
1696254840147,-0.056640625,0.93847656,0.2783203,0.0625,-0.25,0.0,0.0,0.0,0.0
1696254840169,-0.057617188,0.9511719,0.2734375,0.1875,-0.25,-0.0625,0.0,0.0,0.0
1696254840215,-0.06347656,0.94140625,0.29101562,0.1875,-0.0625,0.0,0.0,0.0,0.0
1696254840305,-0.055664062,0.95214844,0.2763672,-0.53125,-0.1875,-0.0625,0.0,0.0,0.0
1696254840306,-0.060546875,0.9501953,0.27441406,0.0625,-0.4375,0.0625,0.0,0.0,0.0
1696254840340,-0.055664062,0.9472656,0.2783203,-0.03125,-0.1875,0.0,0.0,0.0,0.0
1696254840373,-0.0546875,0.9501953,0.28027344,-0.34375,-0.0625,-0.0625,0.0,0.0,0.0
1696254840417,-0.057617188,0.94628906,0.2783203,0.0625,-0.0625,-0.0625,0.0,0.0,0.0
1696254840451,-0.049804688,0.94628906,0.27929688,0.0625,-0.25,0.0,0.0,0.0,0.0
1696254840496,-0.06640625,0.94921875,0.26757812,-0.03125,-0.0625,0.0625,0.0,0.0,0.0
1696254840541,-0.047851562,0.95214844,0.28027344,-0.15625,-0.0625,-0.125,-20.875,67.0625,-207.625
1696254840574,-0.05859375,0.94921875,0.28320312,0.0625,0.1875,-0.0625,0.0,0.0,0.0
1696254840620,-0.0625,0.9404297,0.2734375,-0.09375,0.0,-0.0625,0.0,0.0,0.0
1696254840654,-0.0546875,0.94628906,0.29296875,-0.21875,-0.0625,0.0625,0.0,0.0,0.0
1696254840699,-0.0625,0.9560547,0.2705078,0.03125,0.0,0.0625,0.0,0.0,0.0
1696254840733,-0.057617188,0.95996094,0.28027344,0.375,0.1875,-0.0625,0.0,0.0,0.0
1696254840777,-0.057617188,0.9560547,0.28808594,0.125,0.25,0.03125,0.0,0.0,0.0
1696254840811,-0.056640625,0.94140625,0.2626953,-0.1875,-0.1875,0.28125,0.0,0.0,0.0
1696254840856,-0.064453125,0.94628906,0.27539062,-0.125,0.0,0.03125,0.0,0.0,0.0
1696254840901,-0.052734375,0.9433594,0.28027344,0.0,0.34375,-0.15625,0.0,0.0,0.0
1696254840935,-0.057617188,0.953125,0.2783203,0.0,0.125,0.15625,0.0,0.0,0.0
1696254840980,-0.046875,0.953125,0.29003906,0.25,0.125,0.09375,0.0,0.0,0.0
1696254841013,-0.05859375,0.9472656,0.265625,0.1875,-0.125,-0.03125,-19.625,66.9375,-208.5625
1696254841070,-0.06738281,0.94921875,0.28027344,-0.125,-0.0625,-0.09375,0.0,0.0,0.0
1696254841093,-0.059570312,0.94628906,0.28808594,-0.375,0.0625,0.15625,0.0,0.0,0.0
1696254841137,-0.055664062,0.9511719,0.2890625,-0.375,0.0,0.09375,0.0,0.0,0.0
1696254841171,-0.04296875,0.9472656,0.28125,-0.0625,0.0625,-0.09375,0.0,0.0,0.0
1696254841216,-0.052734375,0.9560547,0.2861328,-0.1875,0.0,-0.03125,0.0,0.0,0.0
1696254841262,-0.051757812,0.9472656,0.2685547,0.0,0.0625,0.09375,0.0,0.0,0.0
1696254841295,-0.05859375,0.95703125,0.27246094,0.0625,0.0625,-0.03125,0.0,0.0,0.0
1696254841340,-0.060546875,0.9501953,0.28320312,0.0,0.1875,-0.03125,0.0,0.0,0.0
1696254841374,-0.06640625,0.9453125,0.265625,-0.0625,0.125,0.15625,0.0,0.0,0.0
1696254841419,-0.059570312,0.94628906,0.28125,-0.0625,-0.0625,0.09375,0.0,0.0,0.0
1696254841453,-0.056640625,0.94433594,0.28808594,0.0,0.125,0.03125,0.0,0.0,0.0
1696254841497,-0.05859375,0.94921875,0.26953125,-0.0625,0.0625,0.15625,0.0,0.0,0.0
1696254841531,-0.05078125,0.94433594,0.27734375,-0.125,0.125,-0.03125,-20.125,68.3125,-208.375
1696254841576,-0.059570312,0.9511719,0.28320312,0.0,0.0625,-0.03125,0.0,0.0,0.0
1696254841621,-0.056640625,0.9482422,0.2861328,0.0,0.1875,0.03125,0.0,0.0,0.0
1696254841655,-0.049804688,0.9453125,0.2861328,0.0,0.125,0.03125,0.0,0.0,0.0
1696254841700,-0.05078125,0.9482422,0.2734375,-0.25,-0.0625,0.03125,0.0,0.0,0.0
1696254841734,-0.060546875,0.94628906,0.2734375,0.25,0.0625,0.15625,0.0,0.0,0.0
1696254841779,-0.0546875,0.9453125,0.27734375,-0.1875,0.0,0.03125,0.0,0.0,0.0
1696254841823,-0.045898438,0.95214844,0.26660156,0.0,0.0625,0.03125,0.0,0.0,0.0
1696254841857,-0.061523438,0.953125,0.27441406,0.25,-0.125,-0.15625,0.0,0.0,0.0
1696254841891,-0.06738281,0.94628906,0.28027344,0.0,0.1875,-0.03125,0.0,0.0,0.0
1696254841936,-0.0625,0.9423828,0.27441406,-0.1875,0.0625,0.15625,0.0,0.0,0.0
1696254841981,-0.059570312,0.95214844,0.28515625,-0.5,-0.0625,-0.03125,0.0,0.0,0.0
1696254842015,-0.06347656,0.9472656,0.28710938,-0.0625,-0.125,-0.09375,-21.125,67.0625,-207.625
1696254842094,-0.052734375,0.94921875,0.2685547,0.0,0.0625,-0.15625,0.0,0.0,0.0
1696254842096,-0.052734375,0.9511719,0.27539062,-0.1875,0.0,-0.03125,0.0,0.0,0.0
1696254842139,-0.056640625,0.9482422,0.2783203,0.25,-0.0625,0.09375,0.0,0.0,0.0
1696254842173,-0.055664062,0.9550781,0.2783203,0.0,0.0625,-0.03125,0.0,0.0,0.0
1696254842217,-0.05859375,0.9472656,0.26757812,-0.125,0.0625,0.15625,0.0,0.0,0.0
1696254842251,-0.05859375,0.9609375,0.28222656,-0.3125,0.0625,0.03125,0.0,0.0,0.0
1696254842307,-0.045898438,0.9472656,0.27539062,0.0,-0.125,0.03125,0.0,0.0,0.0
1696254842341,-0.0625,0.9472656,0.29003906,0.0,0.0625,-0.09375,0.0,0.0,0.0
1696254842377,-0.0625,0.95703125,0.2763672,0.125,0.0625,0.03125,0.0,0.0,0.0
1696254842454,-0.05859375,0.94628906,0.26757812,0.125,0.125,-0.09375,0.0,0.0,0.0
1696254842456,-0.059570312,0.9580078,0.2763672,0.0,0.0625,0.03125,0.0,0.0,0.0
1696254842502,-0.05859375,0.94433594,0.2861328,0.0625,0.25,0.03125,0.0,0.0,0.0
1696254842532,-0.06933594,0.95410156,0.29296875,-0.0625,0.0,0.15625,-19.9375,69.0625,-208.5625
1696254842590,-0.05859375,0.9404297,0.27441406,-0.0625,-0.1875,-0.09375,0.0,0.0,0.0
1696254842611,-0.049804688,0.9511719,0.28125,0.0,0.25,-0.15625,0.0,0.0,0.0
1696254842657,-0.05078125,0.9423828,0.28808594,0.0625,0.0625,0.03125,0.0,0.0,0.0
1696254842701,-0.056640625,0.953125,0.2705078,0.1875,-0.125,-0.09375,0.0,0.0,0.0
1696254842735,-0.059570312,0.9433594,0.2763672,0.25,0.0,0.09375,0.0,0.0,0.0
1696254842781,-0.05859375,0.95214844,0.28515625,-0.3125,0.0,0.09375,0.0,0.0,0.0
1696254842813,-0.0546875,0.9560547,0.28222656,-0.25,0.0625,0.15625,0.0,0.0,0.0
1696254842858,-0.06933594,0.9482422,0.28808594,0.0625,-0.1875,-0.09375,0.0,0.0,0.0
1696254842892,-0.06738281,0.9482422,0.26757812,0.125,0.0,0.03125,0.0,0.0,0.0
1696254842937,-0.049804688,0.95703125,0.2734375,-0.125,0.0625,-0.09375,0.0,0.0,0.0
1696254842971,-0.044921875,0.94921875,0.28710938,0.0625,-0.0625,-0.03125,0.0,0.0,0.0
1696254843016,-0.060546875,0.95410156,0.27148438,0.25,-0.125,-0.09375,-19.625,67.375,-208.125
1696254843061,-0.05078125,0.9501953,0.28027344,-0.125,-0.125,0.03125,0.0,0.0,0.0
1696254843095,-0.055664062,0.95214844,0.28320312,-0.125,0.0,0.15625,0.0,0.0,0.0
1696254843139,-0.05078125,0.94628906,0.27441406,-0.0625,0.0,0.09375,0.0,0.0,0.0
1696254843174,-0.057617188,0.9472656,0.27734375,0.0625,-0.1875,-0.09375,0.0,0.0,0.0
1696254843219,-0.061523438,0.9550781,0.28027344,0.0625,0.0,-0.03125,0.0,0.0,0.0
1696254843252,-0.056640625,0.9472656,0.28125,0.125,0.0625,-0.09375,0.0,0.0,0.0
1696254843309,-0.059570312,0.95703125,0.27734375,0.0,-0.0625,0.03125,0.0,0.0,0.0
1696254843367,-0.061523438,0.9482422,0.28222656,0.0625,-0.0625,-0.03125,0.0,0.0,0.0
1696254843376,-0.059570312,0.9511719,0.28027344,-0.1875,-0.0625,-0.03125,0.0,0.0,0.0
1696254843421,-0.057617188,0.95214844,0.2763672,-0.0625,-0.1875,-0.03125,0.0,0.0,0.0
1696254843455,-0.0546875,0.9501953,0.26660156,0.0625,0.25,0.0,0.0,0.0,0.0
1696254843500,-0.051757812,0.9501953,0.28320312,0.1875,0.1875,-0.15625,0.0,0.0,0.0
1696254843534,-0.064453125,0.9609375,0.28027344,0.1875,-0.0625,0.0625,-21.875,67.8125,-208.375
1696254843579,-0.06347656,0.9511719,0.2861328,0.21875,-0.125,0.0,0.0,0.0,0.0
1696254843614,-0.06640625,0.94628906,0.2734375,0.0,-0.0625,0.125,0.0,0.0,0.0
1696254843657,-0.06347656,0.94921875,0.28710938,-0.0625,-0.0625,0.125,0.0,0.0,0.0
1696254843691,-0.057617188,0.94628906,0.2734375,-0.3125,-0.125,0.0625,0.0,0.0,0.0
1696254843736,-0.06640625,0.953125,0.27734375,-0.0625,-0.125,-0.09375,0.0,0.0,0.0
1696254843781,-0.06542969,0.9453125,0.29101562,0.0,0.125,-0.15625,0.0,0.0,0.0
1696254843815,-0.0625,0.9501953,0.28125,-0.0625,-0.0625,-0.03125,0.0,0.0,0.0
1696254843859,-0.06933594,0.9433594,0.2919922,0.21875,0.0,0.0625,0.0,0.0,0.0
1696254843893,-0.0625,0.94433594,0.27734375,-0.0625,-0.0625,0.0625,0.0,0.0,0.0
1696254843939,-0.057617188,0.95703125,0.2841797,-0.0625,0.0,0.0625,0.0,0.0,0.0
1696254843973,-0.0546875,0.94433594,0.29492188,-0.0625,0.0,-0.03125,0.0,0.0,0.0
1696254844017,-0.049804688,0.9589844,0.2734375,0.0625,0.0625,0.0625,-20.375,68.4375,-207.5
1696254844051,-0.06347656,0.94628906,0.28808594,0.0625,0.125,-0.09375,0.0,0.0,0.0
1696254844107,-0.051757812,0.953125,0.27246094,-0.1875,0.0,0.0625,0.0,0.0,0.0
1696254844141,-0.05078125,0.953125,0.2763672,0.28125,0.125,-0.09375,0.0,0.0,0.0
1696254844175,-0.0625,0.9482422,0.27734375,0.21875,0.25,0.0,0.0,0.0,0.0
1696254844231,-0.0625,0.9472656,0.28027344,-0.0625,0.125,0.1875,0.0,0.0,0.0
1696254844253,-0.060546875,0.94921875,0.27441406,-0.125,0.125,0.0625,0.0,0.0,0.0
1696254844299,-0.055664062,0.9433594,0.28320312,0.0,0.25,0.0,0.0,0.0,0.0
1696254844332,-0.052734375,0.9511719,0.28320312,0.0,0.125,0.0625,0.0,0.0,0.0
1696254844377,-0.060546875,0.9482422,0.26757812,0.21875,0.0625,-0.09375,0.0,0.0,0.0
1696254844411,-0.056640625,0.9550781,0.2705078,0.1875,0.125,0.0625,0.0,0.0,0.0
1696254844469,-0.06347656,0.953125,0.28222656,-0.1875,0.0625,0.0,0.0,0.0,0.0
1696254844501,-0.06738281,0.9472656,0.28710938,-0.3125,0.1875,0.0625,0.0,0.0,0.0
1696254844557,-0.061523438,0.9472656,0.29492188,-0.1875,-0.125,0.0,-21.125,69.625,-207.625
1696254844580,-0.053710938,0.94433594,0.28125,0.0,0.125,-0.09375,0.0,0.0,0.0
1696254844615,-0.047851562,0.94921875,0.28710938,0.0,0.0625,-0.09375,0.0,0.0,0.0
1696254844658,-0.048828125,0.9511719,0.28320312,-0.0625,-0.0625,0.125,0.0,0.0,0.0
1696254844692,-0.061523438,0.95214844,0.2861328,0.1875,0.0625,0.0,0.0,0.0,0.0
1696254844738,-0.056640625,0.95703125,0.27441406,0.0,0.125,0.0,0.0,0.0,0.0
1696254844771,-0.056640625,0.9472656,0.28320312,-0.25,0.0625,0.0,0.0,0.0,0.0
1696254844816,-0.059570312,0.94433594,0.2841797,0.0,0.0625,-0.03125,0.0,0.0,0.0
1696254844872,-0.064453125,0.94433594,0.29589844,-0.125,0.0,0.0,0.0,0.0,0.0
1696254844895,-0.060546875,0.94433594,0.28515625,-0.0625,0.0625,0.0625,0.0,0.0,0.0
1696254844940,-0.06542969,0.9501953,0.2734375,0.125,0.0625,0.0,0.0,0.0,0.0
1696254844973,-0.06640625,0.94628906,0.2763672,0.125,0.125,-0.09375,0.0,0.0,0.0
1696254845019,-0.0546875,0.94628906,0.28515625,-0.1875,0.0625,0.25,-21.125,69.3125,-208.6875
1696254845052,-0.060546875,0.94433594,0.27441406,-0.125,0.0625,-0.09375,0.0,0.0,0.0
1696254845097,-0.0546875,0.9550781,0.2734375,0.0,0.0,0.0,0.0,0.0,0.0
1696254845132,-0.0546875,0.94433594,0.29101562,0.0,0.125,-0.03125,0.0,0.0,0.0
1696254845176,-0.055664062,0.9501953,0.27441406,0.0,0.3125,-0.15625,0.0,0.0,0.0
1696254845221,-0.057617188,0.95410156,0.28222656,-0.0625,0.0625,0.25,0.0,0.0,0.0
1696254845255,-0.06347656,0.9550781,0.29101562,-0.0625,-0.0625,-0.03125,0.0,0.0,0.0
1696254845300,-0.06738281,0.95214844,0.27929688,0.28125,0.0,0.0,0.0,0.0,0.0
1696254845334,-0.05859375,0.9560547,0.2685547,-0.25,0.125,0.0,0.0,0.0,0.0
1696254845379,-0.057617188,0.9550781,0.27539062,-0.4375,-0.125,0.125,0.0,0.0,0.0
1696254845412,-0.056640625,0.95703125,0.27734375,-0.0625,0.0,-0.03125,0.0,0.0,0.0
1696254845457,-0.056640625,0.94628906,0.28222656,-0.0625,-0.125,-0.15625,0.0,0.0,0.0
1696254845491,-0.051757812,0.94921875,0.29296875,-0.0625,0.125,0.0,0.0,0.0,0.0
1696254845536,-0.057617188,0.9511719,0.29003906,-0.0625,0.0,0.0625,-21.0,68.0,-207.1875
1696254845581,-0.059570312,0.9609375,0.29785156,0.0625,-0.1875,0.0,0.0,0.0,0.0
1696254845626,-0.052734375,0.9560547,0.265625,0.0,0.25,0.0625,0.0,0.0,0.0
1696254845660,-0.05859375,0.94140625,0.2841797,-0.0625,-0.0625,0.125,0.0,0.0,0.0
1696254845695,-0.05859375,0.9433594,0.28320312,-0.125,-0.125,0.0,0.0,0.0,0.0
1696254845739,-0.056640625,0.94921875,0.29101562,-0.0625,-0.1875,0.125,0.0,0.0,0.0
1696254845772,-0.05859375,0.9482422,0.27929688,0.0,0.125,0.0,0.0,0.0,0.0
1696254845817,-0.057617188,0.94433594,0.2734375,0.0,0.0625,-0.09375,0.0,0.0,0.0
1696254845896,-0.056640625,0.9550781,0.28222656,0.0,-0.125,-0.09375,0.0,0.0,0.0
1696254845897,-0.060546875,0.9511719,0.28027344,-0.0625,0.0625,-0.09375,0.0,0.0,0.0
1696254845941,-0.064453125,0.9511719,0.27929688,-0.25,0.0,0.0625,0.0,0.0,0.0
1696254845975,-0.052734375,0.9472656,0.29589844,-0.25,0.125,0.0625,0.0,0.0,0.0
1696254846020,-0.0546875,0.94921875,0.28320312,-0.0625,0.0,-0.15625,-22.0625,67.375,-207.8125
1696254846053,-0.052734375,0.94628906,0.2705078,0.09375,-0.03125,0.0,0.0,0.0,0.0
1696254846099,-0.06542969,0.9433594,0.28027344,0.03125,0.21875,0.0,0.0,0.0,0.0
1696254846155,-0.06738281,0.953125,0.27929688,0.03125,0.03125,0.0625,0.0,0.0,0.0
1696254846177,-0.06640625,0.9550781,0.26660156,0.15625,-0.21875,-0.125,0.0,0.0,0.0
1696254846211,-0.061523438,0.953125,0.28320312,0.28125,-0.28125,0.0625,0.0,0.0,0.0
1696254846256,-0.059570312,0.9550781,0.28222656,-0.03125,-0.09375,-0.0625,0.0,0.0,0.0
1696254846301,-0.055664062,0.95214844,0.27246094,-0.15625,-0.15625,-0.0625,0.0,0.0,0.0
1696254846335,-0.064453125,0.9472656,0.29882812,0.03125,-0.15625,0.0,0.0,0.0,0.0
1696254846391,-0.059570312,0.94628906,0.28808594,0.28125,0.03125,-0.0625,0.0,0.0,0.0
1696254846414,-0.056640625,0.9482422,0.2734375,-0.15625,-0.09375,-0.1875,0.0,0.0,0.0
1696254846459,-0.064453125,0.953125,0.27929688,0.03125,-0.15625,-0.0625,0.0,0.0,0.0
1696254846492,-0.057617188,0.94628906,0.28808594,0.34375,-0.21875,0.0625,0.0,0.0,0.0
1696254846537,-0.053710938,0.9433594,0.2861328,-0.03125,-0.03125,0.0625,-21.875,68.3125,-207.375
1696254846571,-0.057617188,0.9501953,0.27539062,-0.03125,0.03125,0.0625,0.0,0.0,0.0
1696254846616,-0.057617188,0.94628906,0.28710938,0.03125,-0.09375,-0.0625,0.0,0.0,0.0
1696254846661,-0.060546875,0.9482422,0.27539062,-0.03125,-0.21875,0.0,0.0,0.0,0.0
1696254846695,-0.055664062,0.9511719,0.28027344,-0.15625,-0.09375,-0.125,0.0,0.0,0.0
1696254846740,-0.057617188,0.94921875,0.2763672,-0.09375,-0.09375,-0.0625,0.0,0.0,0.0
1696254846773,-0.06738281,0.95214844,0.26953125,0.21875,-0.03125,-0.125,0.0,0.0,0.0
1696254846818,-0.05859375,0.94921875,0.28125,-0.21875,0.03125,-0.125,0.0,0.0,0.0
1696254846852,-0.05859375,0.95214844,0.27441406,-0.15625,-0.09375,0.0,0.0,0.0,0.0
1696254846897,-0.061523438,0.95214844,0.27734375,0.09375,-0.09375,0.0625,0.0,0.0,0.0
1696254846931,-0.051757812,0.94921875,0.27148438,-0.03125,-0.03125,-0.0625,0.0,0.0,0.0
1696254846976,-0.05859375,0.9433594,0.2763672,-0.09375,-0.03125,-0.125,0.0,0.0,0.0
1696254847021,-0.060546875,0.9511719,0.2705078,0.21875,0.21875,0.0,-21.4375,66.9375,-207.8125
1696254847055,-0.053710938,0.9472656,0.2705078,0.03125,-0.03125,-0.125,0.0,0.0,0.0
1696254847100,-0.048828125,0.9433594,0.27929688,0.09375,-0.15625,-0.0625,0.0,0.0,0.0
1696254847156,-0.059570312,0.9472656,0.27148438,-0.03125,-0.15625,0.0,0.0,0.0,0.0
1696254847179,-0.056640625,0.94433594,0.27734375,-0.03125,-0.03125,0.125,0.0,0.0,0.0
1696254847216,-0.060546875,0.9433594,0.27929688,-0.15625,0.03125,0.125,0.0,0.0,0.0
1696254847257,-0.06933594,0.9404297,0.28515625,-0.03125,-0.09375,0.0,0.0,0.0,0.0
1696254847302,-0.053710938,0.94921875,0.27734375,0.15625,-0.03125,-0.1875,0.0,0.0,0.0
1696254847336,-0.057617188,0.94921875,0.28125,0.03125,0.21875,-0.0625,0.0,0.0,0.0
1696254847381,-0.06640625,0.95410156,0.27148438,0.03125,-0.03125,-0.0625,0.0,0.0,0.0
1696254847415,-0.057617188,0.95410156,0.27539062,0.09375,0.09375,0.0625,0.0,0.0,0.0
1696254847459,-0.05078125,0.94921875,0.26367188,-0.09375,-0.09375,0.125,0.0,0.0,0.0
1696254847497,-0.053710938,0.9550781,0.28222656,-0.09375,0.03125,0.0625,0.0,0.0,0.0
1696254847538,-0.047851562,0.9511719,0.28808594,-0.09375,-0.03125,-0.125,-20.6875,67.6875,-206.75
1696254847572,-0.0625,0.94433594,0.27539062,0.03125,0.03125,0.0,0.0,0.0,0.0
1696254847617,-0.055664062,0.94628906,0.28515625,0.09375,0.15625,-0.125,0.0,0.0,0.0
1696254847651,-0.060546875,0.9511719,0.2890625,0.09375,0.21875,-0.0625,0.0,0.0,0.0
1696254847696,-0.059570312,0.9511719,0.28125,0.03125,0.03125,-0.0625,0.0,0.0,0.0
1696254847741,-0.060546875,0.9511719,0.27734375,-0.15625,-0.03125,0.0625,0.0,0.0,0.0
1696254847776,-0.05859375,0.95214844,0.28222656,-0.09375,0.03125,0.1875,0.0,0.0,0.0
1696254847820,-0.05859375,0.93847656,0.27148438,0.03125,0.15625,0.0,0.0,0.0,0.0
1696254847853,-0.051757812,0.9511719,0.27539062,0.03125,0.21875,0.0,0.0,0.0,0.0
1696254847910,-0.06347656,0.9550781,0.28320312,-0.09375,-0.03125,0.1875,0.0,0.0,0.0
1696254847932,-0.051757812,0.9433594,0.28027344,0.03125,-0.09375,-0.0625,0.0,0.0,0.0
1696254847978,-0.06347656,0.94921875,0.26464844,0.28125,0.09375,0.0625,0.0,0.0,0.0
1696254848022,-0.0625,0.9511719,0.27539062,0.03125,0.09375,0.0625,-19.5,68.3125,-207.375
1696254848056,-0.053710938,0.9433594,0.28710938,-0.28125,-0.09375,0.0625,0.0,0.0,0.0
1696254848101,-0.059570312,0.953125,0.28320312,-0.09375,-0.09375,-0.125,0.0,0.0,0.0
1696254848135,-0.056640625,0.9501953,0.27929688,-0.15625,0.03125,-0.125,0.0,0.0,0.0
1696254848180,-0.053710938,0.953125,0.27929688,-0.15625,0.03125,-0.0625,0.0,0.0,0.0
1696254848213,-0.055664062,0.94628906,0.28320312,0.03125,-0.09375,0.0,0.0,0.0,0.0
1696254848258,-0.049804688,0.953125,0.26757812,0.15625,0.03125,-0.0625,0.0,0.0,0.0
1696254848292,-0.0625,0.94433594,0.2861328,0.03125,0.09375,0.0,0.0,0.0,0.0
1696254848337,-0.061523438,0.953125,0.26953125,-0.03125,0.03125,0.125,0.0,0.0,0.0
1696254848371,-0.06640625,0.94921875,0.29589844,-0.03125,-0.09375,0.0625,0.0,0.0,0.0
1696254848416,-0.059570312,0.95214844,0.28808594,-0.15625,0.03125,-0.0625,0.0,0.0,0.0
1696254848461,-0.053710938,0.9511719,0.28027344,0.03125,0.15625,-0.0625,0.0,0.0,0.0
1696254848495,-0.05859375,0.95214844,0.2861328,0.28125,-0.03125,-0.0625,0.0,0.0,0.0
1696254848540,-0.05859375,0.95214844,0.27734375,0.09375,0.09375,0.0,-21.4375,66.625,-206.4375
1696254848573,-0.057617188,0.94628906,0.27734375,-0.03125,-0.03125,-0.0625,0.0,0.0,0.0
1696254848619,-0.057617188,0.9472656,0.2705078,-0.09375,-0.03125,-0.125,0.0,0.0,0.0
1696254848663,-0.06640625,0.9404297,0.28320312,0.03125,0.03125,0.0625,0.0,0.0,0.0
1696254848697,-0.0625,0.9482422,0.28027344,0.15625,0.03125,0.0,0.0,0.0,0.0
1696254848731,-0.055664062,0.94433594,0.28710938,0.03125,0.21875,-0.0625,0.0,0.0,0.0
1696254848787,-0.05078125,0.9511719,0.28515625,0.09375,0.03125,0.0625,0.0,0.0,0.0
1696254848824,-0.049804688,0.953125,0.2783203,-0.03125,-0.09375,-0.125,0.0,0.0,0.0
1696254848855,-0.055664062,0.9580078,0.27246094,0.09375,-0.03125,0.125,0.0,0.0,0.0
1696254848900,-0.059570312,0.9472656,0.2939453,-0.09375,-0.03125,0.1875,0.0,0.0,0.0
1696254848933,-0.060546875,0.9482422,0.28222656,-0.21875,0.03125,0.1875,0.0,0.0,0.0
1696254848978,-0.06542969,0.94140625,0.28125,-0.21875,-0.09375,-0.125,0.0,0.0,0.0
1696254849012,-0.057617188,0.94140625,0.28222656,0.03125,-0.03125,-0.25,-21.4375,69.0625,-207.8125
1696254849057,-0.052734375,0.9511719,0.26660156,0.15625,0.03125,-0.125,0.0,0.0,0.0
1696254849102,-0.060546875,0.9580078,0.27539062,0.03125,0.09375,-0.125,0.0,0.0,0.0
1696254849136,-0.048828125,0.94921875,0.265625,0.28125,-0.15625,0.0625,0.0,0.0,0.0
1696254849181,-0.057617188,0.9511719,0.2890625,-0.15625,-0.03125,0.125,0.0,0.0,0.0
1696254849215,-0.060546875,0.9433594,0.2763672,-0.28125,-0.15625,0.0,0.0,0.0,0.0
1696254849271,-0.059570312,0.9472656,0.28320312,-0.03125,-0.15625,0.0625,0.0,0.0,0.0
1696254849293,-0.060546875,0.94433594,0.28710938,0.09375,-0.09375,0.0,0.0,0.0,0.0
1696254849338,-0.059570312,0.94433594,0.28125,0.15625,0.03125,-0.125,0.0,0.0,0.0
1696254849372,-0.055664062,0.9404297,0.27929688,0.15625,-0.03125,-0.125,0.0,0.0,0.0
1696254849428,-0.0546875,0.9560547,0.26757812,0.28125,0.15625,-0.0625,0.0,0.0,0.0
1696254849451,-0.055664062,0.94921875,0.2763672,-0.15625,-0.09375,0.0625,0.0,0.0,0.0
1696254849497,-0.056640625,0.94921875,0.2890625,-0.03125,-0.15625,0.0625,0.0,0.0,0.0
1696254849541,-0.048828125,0.9482422,0.28222656,0.15625,0.03125,-0.125,-20.375,67.6875,-208.5625
1696254849575,-0.055664062,0.9482422,0.2734375,-0.03125,-0.03125,0.0625,0.0,0.0,0.0
1696254849619,-0.055664062,0.9580078,0.28222656,-0.03125,-0.09375,0.0625,0.0,0.0,0.0
1696254849653,-0.053710938,0.9501953,0.28710938,0.40625,0.03125,-0.0625,0.0,0.0,0.0
1696254849699,-0.056640625,0.9482422,0.28710938,0.15625,-0.03125,-0.0625,0.0,0.0,0.0
1696254849732,-0.055664062,0.94628906,0.29589844,0.09375,-0.21875,-0.1875,0.0,0.0,0.0
1696254849777,-0.053710938,0.95703125,0.2841797,0.09375,-0.21875,0.0625,0.0,0.0,0.0
1696254849811,-0.057617188,0.9589844,0.28320312,-0.21875,-0.03125,0.0625,0.0,0.0,0.0
1696254849856,-0.061523438,0.94921875,0.26660156,-0.03125,-0.15625,-0.125,0.0,0.0,0.0
1696254849903,-0.055664062,0.94433594,0.2783203,0.15625,-0.15625,-0.1875,0.0,0.0,0.0
1696254849936,-0.05859375,0.94921875,0.28222656,0.28125,0.03125,0.0,0.0,0.0,0.0
1696254849980,-0.056640625,0.9580078,0.2626953,-0.03125,0.125,-0.0625,0.0,0.0,0.0
1696254850013,-0.055664062,0.9472656,0.27929688,-0.03125,-0.0625,-0.1875,-22.0625,67.375,-208.125
1696254850058,-0.060546875,0.9511719,0.2734375,0.15625,0.0625,0.0,0.0,0.0,0.0
1696254850092,-0.056640625,0.94921875,0.28125,-0.03125,0.0625,-0.0625,0.0,0.0,0.0
1696254850137,-0.051757812,0.9453125,0.28320312,-0.09375,0.0,-0.0625,0.0,0.0,0.0
1696254850193,-0.0546875,0.9511719,0.2841797,-0.09375,-0.0625,-0.0625,0.0,0.0,0.0
1696254850217,-0.056640625,0.9453125,0.2783203,-0.15625,0.0,-0.125,0.0,0.0,0.0
1696254850295,-0.057617188,0.9472656,0.27539062,-0.03125,0.125,-0.0625,0.0,0.0,0.0
1696254850297,-0.057617188,0.9560547,0.28222656,0.03125,0.125,0.0625,0.0,0.0,0.0
1696254850340,-0.059570312,0.94433594,0.2763672,-0.03125,0.0625,0.0625,0.0,0.0,0.0
1696254850373,-0.059570312,0.953125,0.2861328,-0.03125,0.125,-0.125,0.0,0.0,0.0
1696254850419,-0.06347656,0.9511719,0.29101562,-0.21875,0.0,0.25,0.0,0.0,0.0
1696254850454,-0.064453125,0.9453125,0.29003906,-0.15625,0.0,0.125,0.0,0.0,0.0
1696254850497,-0.051757812,0.9404297,0.29101562,-0.09375,0.1875,0.0,0.0,0.0,0.0
1696254850553,-0.0546875,0.9501953,0.2734375,-0.03125,0.1875,-0.125,-19.9375,67.6875,-209.125
1696254850576,-0.06347656,0.95214844,0.2734375,0.28125,0.125,-0.125,0.0,0.0,0.0
1696254850621,-0.052734375,0.9511719,0.28222656,-0.09375,-0.0625,0.1875,0.0,0.0,0.0
1696254850655,-0.060546875,0.953125,0.26953125,-0.15625,0.0625,0.0,0.0,0.0,0.0
1696254850700,-0.056640625,0.9453125,0.26660156,-0.28125,0.0,0.0625,0.0,0.0,0.0
1696254850733,-0.0625,0.95214844,0.2939453,-0.21875,0.0,-0.0625,0.0,0.0,0.0
1696254850778,-0.064453125,0.9511719,0.2861328,0.03125,0.0625,-0.125,0.0,0.0,0.0
1696254850812,-0.0625,0.9511719,0.29492188,-0.03125,0.1875,-0.125,0.0,0.0,0.0
1696254850857,-0.052734375,0.9472656,0.26660156,-0.09375,0.0625,0.0,0.0,0.0,0.0
1696254850902,-0.057617188,0.95214844,0.27929688,-0.03125,-0.0625,0.1875,0.0,0.0,0.0
1696254850947,-0.068359375,0.953125,0.27929688,-0.09375,0.0625,0.0,0.0,0.0,0.0
1696254850980,-0.06542969,0.9433594,0.28710938,-0.28125,0.125,-0.0625,0.0,0.0,0.0
1696254851015,-0.057617188,0.94140625,0.28515625,-0.15625,0.125,0.0,-19.8125,68.3125,-207.9375
1696254851060,-0.05078125,0.9482422,0.28125,-0.09375,0.0,-0.0625,0.0,0.0,0.0
1696254851094,-0.057617188,0.9482422,0.27246094,0.03125,0.125,-0.0625,0.0,0.0,0.0
1696254851139,-0.061523438,0.95214844,0.26660156,-0.09375,0.0625,-0.125,0.0,0.0,0.0
1696254851172,-0.052734375,0.953125,0.28808594,0.03125,0.125,0.125,0.0,0.0,0.0
1696254851217,-0.049804688,0.9511719,0.28027344,-0.03125,0.125,0.0,0.0,0.0,0.0
1696254851262,-0.055664062,0.9482422,0.28125,-0.34375,-0.125,0.0625,0.0,0.0,0.0
1696254851296,-0.06640625,0.94921875,0.2890625,-0.03125,0.0625,0.0,0.0,0.0,0.0
1696254851352,-0.0625,0.9482422,0.27929688,-0.03125,0.0625,0.0625,0.0,0.0,0.0
1696254851374,-0.0625,0.9482422,0.28027344,-0.09375,0.0,0.0625,0.0,0.0,0.0
1696254851420,-0.05859375,0.9580078,0.27734375,0.03125,0.25,0.0,0.0,0.0,0.0
1696254851453,-0.057617188,0.9501953,0.27734375,-0.09375,0.0625,-0.125,0.0,0.0,0.0
1696254851498,-0.052734375,0.9501953,0.28027344,-0.03125,0.0,-0.0625,0.0,0.0,0.0
1696254851532,-0.052734375,0.95214844,0.27148438,0.03125,-0.0625,-0.0625,-21.75,67.375,-208.125
1696254851577,-0.06640625,0.9472656,0.27539062,-0.28125,0.0625,0.0625,0.0,0.0,0.0
1696254851623,-0.056640625,0.9472656,0.29492188,-0.375,-0.1875,0.0,0.0,0.0,0.0
1696254851656,-0.0546875,0.9511719,0.2890625,-0.21875,-0.25,-0.125,0.0,0.0,0.0
1696254851712,-0.0546875,0.9453125,0.2861328,-0.03125,0.0625,-0.125,0.0,0.0,0.0
1696254851735,-0.052734375,0.95410156,0.2861328,-0.09375,0.0,-0.0625,0.0,0.0,0.0
1696254851780,-0.0625,0.95214844,0.2734375,0.15625,0.125,-0.0625,0.0,0.0,0.0
1696254851813,-0.060546875,0.9433594,0.2841797,0.09375,-0.125,0.0625,0.0,0.0,0.0
1696254851858,-0.060546875,0.9550781,0.28027344,-0.34375,0.0,0.0,0.0,0.0,0.0
1696254851892,-0.049804688,0.94628906,0.28222656,-0.09375,-0.0625,0.125,0.0,0.0,0.0
1696254851937,-0.0625,0.9472656,0.28027344,-0.09375,-0.0625,-0.125,0.0,0.0,0.0
1696254851982,-0.049804688,0.96191406,0.27246094,0.09375,0.0,0.0625,0.0,0.0,0.0
1696254852016,-0.060546875,0.9511719,0.28125,-0.09375,0.0625,0.0625,-21.4375,68.0,-208.875
1696254852060,-0.05078125,0.9472656,0.27246094,0.15625,0.0625,0.0625,0.0,0.0,0.0
1696254852094,-0.05859375,0.9501953,0.27441406,-0.03125,0.0625,-0.125,0.0,0.0,0.0
1696254852140,-0.06640625,0.9580078,0.27246094,-0.28125,-0.125,-0.125,0.0,0.0,0.0
1696254852173,-0.052734375,0.953125,0.28515625,-0.21875,0.0,0.125,0.0,0.0,0.0
1696254852218,-0.056640625,0.94921875,0.2783203,-0.03125,0.0,0.0,0.0,0.0,0.0
1696254852252,-0.06347656,0.9472656,0.2841797,0.09375,0.0625,0.0,0.0,0.0,0.0
