,timestamp,accel_x,accel_y,accel_z,gyro_x,gyro_y,gyro_z,mag_x,mag_y,mag_z
0,1696254810699,-0.052734375,0.9501953,0.28222656,0.125,0.25,0.03125,0.0,0.0,0.0
1,1696254810739,-0.051757812,0.9453125,0.28515625,0.0625,0.1875,0.03125,0.0,0.0,0.0
2,1696254810779,-0.06347656,0.94921875,0.27246094,0.0625,0.3125,0.03125,0.0,0.0,0.0
3,1696254810819,-0.048828125,0.95410156,0.26953125,0.0625,0.25,0.21875,0.0,0.0,0.0
4,1696254810859,-0.055664062,0.9482422,0.27734375,0.0,-0.125,0.09375,0.0,0.0,0.0
5,1696254810899,-0.05859375,0.95214844,0.2734375,0.25,0.25,0.09375,0.0,0.0,0.0
6,1696254810939,-0.0546875,0.9453125,0.27734375,0.0625,0.25,0.28125,0.0,0.0,0.0
7,1696254810979,-0.060546875,0.94921875,0.27246094,-0.25,0.0625,0.21875,0.0,0.0,0.0
8,1696254811019,-0.059570312,0.9472656,0.28515625,0.125,0.0625,-0.03125,-20.6875,68.4375,-207.8125
9,1696254811059,-0.057617188,0.9423828,0.2763672,0.0625,0.125,0.09375,0.0,0.0,0.0
10,1696254811099,-0.05859375,0.94628906,0.28320312,0.0,0.1875,0.03125,0.0,0.0,0.0
11,1696254811139,-0.045898438,0.9501953,0.2705078,-0.0625,0.0,0.21875,0.0,0.0,0.0
12,1696254811179,-0.060546875,0.9560547,0.28222656,0.0625,0.1875,0.15625,0.0,0.0,0.0
13,1696254811219,-0.059570312,0.9560547,0.2841797,0.0,0.1875,0.15625,0.0,0.0,0.0
14,1696254811259,-0.05078125,0.95703125,0.28222656,-0.1875,0.0625,0.15625,0.0,0.0,0.0
15,1696254811299,-0.057617188,0.9501953,0.27148438,0.0,0.0,0.34375,0.0,0.0,0.0
16,1696254811339,-0.05078125,0.9433594,0.2734375,0.25,0.0,0.21875,0.0,0.0,0.0
17,1696254811379,-0.060546875,0.94433594,0.27148438,0.0625,0.1875,0.09375,0.0,0.0,0.0
18,1696254811419,-0.048828125,0.9394531,0.2685547,0.1875,0.375,0.15625,0.0,0.0,0.0
19,1696254811459,-0.060546875,0.9609375,0.28125,0.0625,0.125,0.09375,0.0,0.0,0.0
20,1696254811499,-0.051757812,0.9511719,0.27539062,0.1875,0.0625,0.28125,0.0,0.0,0.0
21,1696254811539,-0.057617188,0.9511719,0.28125,0.125,-0.125,0.15625,-19.625,66.9375,-209.125
22,1696254811579,-0.064453125,0.9609375,0.2685547,0.125,0.125,-0.09375,0.0,0.0,0.0
23,1696254811619,-0.060546875,0.94921875,0.28222656,-0.1875,-0.0625,0.15625,0.0,0.0,0.0
24,1696254811659,-0.05859375,0.95703125,0.28222656,-0.1875,-0.0625,0.03125,0.0,0.0,0.0
25,1696254811699,-0.068359375,0.9482422,0.27441406,0.0625,-0.0625,0.21875,0.0,0.0,0.0
26,1696254811739,-0.059570312,0.94921875,0.27929688,0.0,0.0625,0.21875,0.0,0.0,0.0
27,1696254811779,-0.0546875,0.95703125,0.28027344,0.125,0.0625,0.03125,0.0,0.0,0.0
28,1696254811819,-0.0546875,0.95214844,0.27539062,0.25,-0.0625,0.03125,0.0,0.0,0.0
29,1696254811859,-0.0546875,0.9482422,0.2890625,0.1875,0.3125,0.15625,0.0,0.0,0.0
30,1696254811899,-0.057617188,0.9453125,0.28808594,-0.25,0.125,0.21875,0.0,0.0,0.0
31,1696254811939,-0.055664062,0.9433594,0.2705078,-0.25,0.1875,0.15625,0.0,0.0,0.0
32,1696254811979,-0.055664062,0.9472656,0.28222656,0.0,0.0625,0.03125,0.0,0.0,0.0
33,1696254812019,-0.056640625,0.9501953,0.28320312,0.1875,0.125,-0.03125,-21.875,69.3125,-207.625
34,1696254812059,-0.056640625,0.95410156,0.28027344,0.25,0.125,0.09375,0.0,0.0,0.0
35,1696254812099,-0.057617188,0.9550781,0.26953125,0.1875,0.1875,-0.03125,0.0,0.0,0.0
36,1696254812139,-0.05078125,0.9501953,0.27734375,0.0625,0.3125,-0.03125,0.0,0.0,0.0
37,1696254812179,-0.05859375,0.9433594,0.2763672,0.0,0.0625,0.28125,0.0,0.0,0.0
38,1696254812219,-0.052734375,0.94921875,0.2783203,0.125,-0.0625,0.28125,0.0,0.0,0.0
39,1696254812259,-0.060546875,0.9394531,0.26367188,0.1875,0.3125,0.03125,0.0,0.0,0.0
40,1696254812299,-0.055664062,0.94628906,0.27246094,0.0,0.0625,0.09375,0.0,0.0,0.0
41,1696254812339,-0.06347656,0.9511719,0.28320312,0.0,0.0,0.15625,0.0,0.0,0.0
42,1696254812379,-0.0546875,0.953125,0.27441406,0.0,0.125,0.09375,0.0,0.0,0.0
43,1696254812419,-0.05859375,0.9580078,0.2763672,-0.0625,0.1875,0.03125,0.0,0.0,0.0
44,1696254812459,-0.0625,0.9501953,0.26757812,0.0625,0.125,0.28125,0.0,0.0,0.0
45,1696254812499,-0.059570312,0.94921875,0.2939453,0.1875,0.1875,0.09375,0.0,0.0,0.0
46,1696254812539,-0.06640625,0.95214844,0.28320312,0.0625,0.1875,0.03125,-19.9375,67.375,-208.125
47,1696254812579,-0.064453125,0.9482422,0.27734375,-0.125,0.0625,0.09375,0.0,0.0,0.0
48,1696254812619,-0.05859375,0.94921875,0.2734375,0.0,0.0625,0.03125,0.0,0.0,0.0
49,1696254812659,-0.052734375,0.9511719,0.27539062,0.0625,0.0625,0.09375,0.0,0.0,0.0
50,1696254812699,-0.052734375,0.9482422,0.28515625,-0.125,0.0625,0.15625,0.0,0.0,0.0
51,1696254812739,-0.06542969,0.9472656,0.28320312,0.125,0.125,0.15625,0.0,0.0,0.0
52,1696254812779,-0.06738281,0.94433594,0.2763672,0.1875,0.125,0.21875,0.0,0.0,0.0
53,1696254812819,-0.052734375,0.9482422,0.26464844,0.0625,0.375,0.03125,0.0,0.0,0.0
54,1696254812859,-0.056640625,0.9550781,0.27539062,0.0625,0.3125,0.09375,0.0,0.0,0.0
55,1696254812899,-0.057617188,0.9511719,0.26660156,0.3125,0.125,0.09375,0.0,0.0,0.0
56,1696254812939,-0.064453125,0.9550781,0.28808594,0.1875,0.1875,0.09375,0.0,0.0,0.0
57,1696254812979,-0.056640625,0.9550781,0.28027344,-0.1875,0.1875,0.28125,0.0,0.0,0.0
58,1696254813019,-0.059570312,0.9501953,0.28808594,-0.34375,0.0625,0.09375,-21.4375,67.6875,-207.1875
59,1696254813059,-0.059570312,0.94921875,0.2685547,-0.125,0.0625,0.15625,0.0,0.0,0.0
60,1696254813099,-0.059570312,0.94921875,0.27929688,0.0625,0.125,0.03125,0.0,0.0,0.0
61,1696254813139,-0.053710938,0.9589844,0.27539062,0.0,0.25,0.15625,0.0,0.0,0.0
62,1696254813179,-0.047851562,0.94921875,0.2763672,0.0,0.0625,0.15625,0.0,0.0,0.0
63,1696254813219,-0.06738281,0.953125,0.27148438,0.125,0.125,0.28125,0.0,0.0,0.0
64,1696254813259,-0.051757812,0.9453125,0.26464844,0.0625,0.25,0.28125,0.0,0.0,0.0
65,1696254813299,-0.064453125,0.94921875,0.2705078,-0.25,0.1875,0.34375,0.0,0.0,0.0
66,1696254813339,-0.057617188,0.9472656,0.28320312,-0.0625,0.25,0.15625,0.0,0.0,0.0
67,1696254813379,-0.047851562,0.9501953,0.27441406,0.0,0.125,0.15625,0.0,0.0,0.0
68,1696254813419,-0.053710938,0.953125,0.2705078,0.0625,0.3125,-0.03125,0.0,0.0,0.0
69,1696254813459,-0.061523438,0.9482422,0.27246094,0.25,0.25,0.03125,0.0,0.0,0.0
70,1696254813499,-0.05859375,0.9560547,0.28027344,0.125,0.25,0.15625,0.0,0.0,0.0
71,1696254813539,-0.06347656,0.9423828,0.28222656,0.0625,0.375,0.15625,-20.6875,68.0,-207.1875
72,1696254813579,-0.05859375,0.9501953,0.2783203,-0.125,0.25,0.34375,0.0,0.0,0.0
73,1696254813619,-0.055664062,0.94921875,0.265625,0.0,0.0625,0.15625,0.0,0.0,0.0
74,1696254813659,-0.053710938,0.9433594,0.29003906,0.1875,0.25,0.21875,0.0,0.0,0.0
75,1696254813699,-0.064453125,0.9472656,0.27929688,0.0,0.1875,0.15625,0.0,0.0,0.0
76,1696254813739,-0.047851562,0.9482422,0.2705078,-0.1875,0.0,0.21875,0.0,0.0,0.0
77,1696254813779,-0.049804688,0.95214844,0.27734375,0.0,0.125,0.09375,0.0,0.0,0.0
78,1696254813819,-0.053710938,0.9482422,0.26757812,-0.0625,0.125,0.21875,0.0,0.0,0.0
79,1696254813859,-0.06640625,0.9511719,0.26953125,0.0625,0.25,0.15625,0.0,0.0,0.0
80,1696254813899,-0.05078125,0.95703125,0.2705078,-0.0625,0.125,0.09375,0.0,0.0,0.0
81,1696254813939,-0.056640625,0.9560547,0.28027344,0.0625,0.125,0.21875,0.0,0.0,0.0
82,1696254813979,-0.06640625,0.95703125,0.27734375,-0.1875,0.1875,0.21875,0.0,0.0,0.0
83,1696254814019,-0.059570312,0.94921875,0.27929688,-0.0625,0.1875,0.15625,-21.0,68.75,-209.625
84,1696254814059,-0.059570312,0.94628906,0.2734375,0.0625,0.1875,0.09375,0.0,0.0,0.0
85,1696254814099,-0.060546875,0.94921875,0.2685547,-0.125,0.25,0.21875,0.0,0.0,0.0
86,1696254814139,-0.059570312,0.9589844,0.2705078,0.0,0.1875,0.21875,0.0,0.0,0.0
87,1696254814179,-0.06542969,0.9501953,0.26367188,0.0625,0.25,0.09375,0.0,0.0,0.0
88,1696254814219,-0.0625,0.9482422,0.28125,0.0625,0.125,0.09375,0.0,0.0,0.0
89,1696254814259,-0.057617188,0.9472656,0.28125,-0.0625,0.375,0.28125,0.0,0.0,0.0
90,1696254814299,-0.06347656,0.9609375,0.27929688,-0.34375,0.3125,0.21875,0.0,0.0,0.0
91,1696254814339,-0.056640625,0.9511719,0.2763672,0.0,0.125,0.28125,0.0,0.0,0.0
92,1696254814379,-0.0546875,0.9628906,0.2763672,0.0625,0.125,0.15625,0.0,0.0,0.0
93,1696254814419,-0.059570312,0.9472656,0.27734375,0.0,0.25,0.03125,0.0,0.0,0.0
94,1696254814459,-0.060546875,0.95214844,0.2763672,-0.1875,0.25,0.15625,0.0,0.0,0.0
95,1696254814499,-0.052734375,0.953125,0.27539062,-0.28125,0.125,0.09375,0.0,0.0,0.0
96,1696254814539,-0.059570312,0.95214844,0.26757812,-0.0625,-0.0625,0.34375,-20.875,69.3125,-206.875
97,1696254814579,-0.055664062,0.953125,0.26953125,0.0,0.1875,0.28125,0.0,0.0,0.0
98,1696254814619,-0.051757812,0.9511719,0.27246094,-0.0625,0.0,0.15625,0.0,0.0,0.0
99,1696254814659,-0.059570312,0.9472656,0.2919922,0.0625,0.125,0.15625,0.0,0.0,0.0
100,1696254814699,-0.059570312,0.9482422,0.29101562,-0.0625,0.25,0.09375,0.0,0.0,0.0
101,1696254814739,-0.057617188,0.9511719,0.28125,-0.28125,0.1875,0.15625,0.0,0.0,0.0
102,1696254814779,-0.053710938,0.953125,0.28222656,-0.125,0.1875,0.21875,0.0,0.0,0.0
103,1696254814819,-0.061523438,0.94628906,0.25195312,0.0625,0.25,0.03125,0.0,0.0,0.0
104,1696254814859,-0.055664062,0.94921875,0.265625,-0.0625,0.125,0.15625,0.0,0.0,0.0
105,1696254814899,-0.05859375,0.9511719,0.2841797,0.0625,0.1875,0.21875,0.0,0.0,0.0
106,1696254814939,-0.0625,0.94140625,0.2783203,0.125,0.3125,0.09375,0.0,0.0,0.0
107,1696254814979,-0.059570312,0.94921875,0.27539062,0.0,0.25,0.21875,0.0,0.0,0.0
108,1696254815019,-0.057617188,0.9511719,0.27734375,-0.34375,0.4375,0.21875,-20.375,68.4375,-207.8125
109,1696254815059,-0.056640625,0.953125,0.2783203,-0.0625,0.0,0.21875,0.0,0.0,0.0
110,1696254815099,-0.053710938,0.94433594,0.27148438,0.0,0.0,0.15625,0.0,0.0,0.0
111,1696254815139,-0.060546875,0.95703125,0.27929688,0.0625,0.25,0.21875,0.0,0.0,0.0
112,1696254815179,-0.060546875,0.953125,0.27929688,0.125,0.1875,0.15625,0.0,0.0,0.0
113,1696254815219,-0.060546875,0.94921875,0.2763672,-0.34375,0.0625,0.21875,0.0,0.0,0.0
114,1696254815259,-0.057617188,0.9560547,0.2939453,0.0,0.125,0.03125,0.0,0.0,0.0
115,1696254815299,-0.053710938,0.9453125,0.25976562,-0.0625,0.125,0.09375,0.0,0.0,0.0
116,1696254815339,-0.057617188,0.9453125,0.27734375,0.0,0.125,0.09375,0.0,0.0,0.0
117,1696254815379,-0.0625,0.93652344,0.26660156,0.0,-0.125,0.03125,0.0,0.0,0.0
118,1696254815419,-0.056640625,0.9472656,0.2705078,0.0,0.1875,0.21875,0.0,0.0,0.0
119,1696254815459,-0.053710938,0.9472656,0.27929688,-0.0625,0.25,0.15625,0.0,0.0,0.0
120,1696254815499,-0.051757812,0.9472656,0.28027344,-0.125,0.1875,0.21875,-20.125,69.625,-207.375
121,1696254815539,-0.05859375,0.9472656,0.28515625,0.0625,0.125,0.21875,0.0,0.0,0.0
122,1696254815579,-0.049804688,0.95214844,0.2607422,0.0,0.1875,0.15625,0.0,0.0,0.0
123,1696254815619,-0.053710938,0.95214844,0.2783203,-0.0625,0.125,0.15625,0.0,0.0,0.0
124,1696254815659,-0.0625,0.9433594,0.27441406,0.125,0.1875,0.15625,0.0,0.0,0.0
125,1696254815699,-0.0546875,0.9550781,0.26953125,0.0625,0.125,0.03125,0.0,0.0,0.0
126,1696254815739,-0.060546875,0.94628906,0.28027344,-0.0625,0.125,0.15625,0.0,0.0,0.0
127,1696254815779,-0.044921875,0.94628906,0.27246094,0.0625,0.3125,0.15625,0.0,0.0,0.0
128,1696254815819,-0.057617188,0.9580078,0.26953125,0.0625,0.1875,0.15625,0.0,0.0,0.0
129,1696254815859,-0.06347656,0.94628906,0.27539062,-0.0625,-0.0625,0.15625,0.0,0.0,0.0
130,1696254815899,-0.056640625,0.9511719,0.28808594,0.125,-0.0625,-0.0625,0.0,0.0,0.0
131,1696254815939,-0.052734375,0.94140625,0.27246094,0.0,0.0,0.0,0.0,0.0,0.0
132,1696254815979,-0.0546875,0.953125,0.28125,0.0,0.0,0.125,0.0,0.0,0.0
133,1696254816019,-0.0546875,0.9580078,0.2841797,-0.125,0.0,-0.0625,-20.5625,68.875,-207.625
134,1696254816059,-0.055664062,0.9453125,0.2861328,0.0,0.0,0.0,0.0,0.0,0.0
135,1696254816099,-0.061523438,0.9482422,0.2705078,0.0,-0.125,-0.125,0.0,0.0,0.0
136,1696254816139,-0.051757812,0.9511719,0.2734375,0.0625,-0.21875,0.0,0.0,0.0,0.0
137,1696254816179,-0.056640625,0.9511719,0.27734375,0.25,-0.125,0.0,0.0,0.0,0.0
138,1696254816219,-0.055664062,0.9580078,0.26367188,0.0625,0.125,0.0625,0.0,0.0,0.0
139,1696254816259,-0.060546875,0.9433594,0.27148438,-0.1875,0.0625,0.0625,0.0,0.0,0.0
140,1696254816299,-0.059570312,0.94921875,0.28808594,0.0,-0.1875,-0.0625,0.0,0.0,0.0
141,1696254816339,-0.049804688,0.95410156,0.2919922,-0.125,-0.125,0.0625,0.0,0.0,0.0
142,1696254816379,-0.05859375,0.9550781,0.28222656,-0.0625,0.0,0.125,0.0,0.0,0.0
143,1696254816419,-0.060546875,0.9580078,0.2861328,-0.0625,0.0,0.0,0.0,0.0,0.0
144,1696254816459,-0.060546875,0.9472656,0.2783203,0.0,-0.0625,0.0,0.0,0.0,0.0
145,1696254816499,-0.059570312,0.9472656,0.2685547,0.0,-0.125,0.125,0.0,0.0,0.0
146,1696254816539,-0.06347656,0.9628906,0.28125,0.0625,0.0625,0.0,-21.875,67.5625,-207.375
147,1696254816579,-0.052734375,0.94433594,0.26660156,-0.0625,-0.125,-0.0625,0.0,0.0,0.0
148,1696254816619,-0.057617188,0.9482422,0.27246094,0.125,-0.1875,-0.0625,0.0,0.0,0.0
149,1696254816659,-0.060546875,0.94433594,0.27539062,0.1875,0.0,0.0,0.0,0.0,0.0
150,1696254816699,-0.05859375,0.953125,0.27441406,-0.0625,-0.0625,-0.125,0.0,0.0,0.0
151,1696254816739,-0.059570312,0.9482422,0.27929688,-0.28125,-0.125,0.0,0.0,0.0,0.0
152,1696254816779,-0.05078125,0.9501953,0.27441406,0.0625,0.0,-0.125,0.0,0.0,0.0
153,1696254816819,-0.06640625,0.9453125,0.2841797,-0.0625,-0.125,0.0,0.0,0.0,0.0
154,1696254816859,-0.05078125,0.9482422,0.2841797,0.1875,-0.0625,0.0625,0.0,0.0,0.0
155,1696254816899,-0.0625,0.9472656,0.27246094,0.125,-0.1875,-0.125,0.0,0.0,0.0
156,1696254816939,-0.06347656,0.9453125,0.28125,0.125,-0.0625,0.0,0.0,0.0,0.0
157,1696254816979,-0.05859375,0.9482422,0.28222656,0.0,-0.0625,-0.0625,0.0,0.0,0.0
158,1696254817019,-0.056640625,0.95996094,0.26953125,-0.1875,-0.0625,0.0625,-21.4375,68.4375,-206.75
159,1696254817059,-0.057617188,0.9511719,0.28808594,0.0,-0.21875,0.125,0.0,0.0,0.0
160,1696254817099,-0.056640625,0.94433594,0.28710938,0.0625,-0.28125,-0.0625,0.0,0.0,0.0
161,1696254817139,-0.064453125,0.95214844,0.28222656,0.0,-0.125,0.0,0.0,0.0,0.0
162,1696254817179,-0.057617188,0.9472656,0.27441406,0.1875,0.0,-0.0625,0.0,0.0,0.0
163,1696254817219,-0.060546875,0.9433594,0.29003906,0.25,-0.0625,-0.0625,0.0,0.0,0.0
164,1696254817259,-0.05859375,0.94921875,0.2626953,0.125,0.0,0.0,0.0,0.0,0.0
165,1696254817299,-0.05859375,0.95214844,0.26757812,0.0,0.0625,-0.0625,0.0,0.0,0.0
166,1696254817339,-0.0625,0.9482422,0.27539062,0.0,-0.0625,-0.125,0.0,0.0,0.0
167,1696254817379,-0.053710938,0.94140625,0.28320312,0.375,-0.1875,-0.0625,0.0,0.0,0.0
168,1696254817419,-0.056640625,0.95410156,0.27441406,0.0625,-0.1875,-0.0625,0.0,0.0,0.0
169,1696254817459,-0.055664062,0.9560547,0.28027344,-0.0625,-0.125,-0.0625,0.0,0.0,0.0
170,1696254817499,-0.055664062,0.9609375,0.2734375,0.0,-0.1875,0.0,0.0,0.0,0.0
171,1696254817539,-0.05078125,0.9511719,0.29882812,-0.0625,-0.1875,-0.0625,-20.6875,68.0,-206.4375
172,1696254817579,-0.0546875,0.94628906,0.28125,0.0625,0.0,-0.0625,0.0,0.0,0.0
173,1696254817619,-0.06738281,0.94921875,0.27929688,-0.1875,0.0625,0.0,0.0,0.0,0.0
174,1696254817659,-0.05859375,0.9404297,0.2734375,0.0625,-0.125,-0.125,0.0,0.0,0.0
175,1696254817699,-0.049804688,0.95410156,0.27929688,0.3125,-0.1875,-0.0625,0.0,0.0,0.0
176,1696254817739,-0.059570312,0.95214844,0.28710938,0.125,0.0625,-0.0625,0.0,0.0,0.0
177,1696254817779,-0.06933594,0.9482422,0.2685547,-0.0625,-0.0625,0.0,0.0,0.0,0.0
178,1696254817819,-0.060546875,0.94628906,0.27441406,0.0,-0.1875,0.0625,0.0,0.0,0.0
179,1696254817859,-0.052734375,0.94433594,0.27148438,-0.125,-0.1875,0.125,0.0,0.0,0.0
180,1696254817899,-0.055664062,0.9580078,0.28125,-0.0625,0.0,-0.0625,0.0,0.0,0.0
181,1696254817939,-0.05078125,0.9550781,0.2734375,0.125,-0.0625,-0.125,0.0,0.0,0.0
182,1696254817979,-0.052734375,0.94433594,0.28027344,0.125,-0.0625,0.0,0.0,0.0,0.0
183,1696254818019,-0.059570312,0.9550781,0.27539062,0.0625,0.0,0.0625,-21.125,67.8125,-207.9375
184,1696254818059,-0.05859375,0.953125,0.2734375,0.0625,0.1875,-0.1875,0.0,0.0,0.0
185,1696254818099,-0.051757812,0.9482422,0.2705078,0.0625,-0.0625,-0.0625,0.0,0.0,0.0
186,1696254818139,-0.049804688,0.9550781,0.27929688,0.125,-0.1875,0.0,0.0,0.0,0.0
187,1696254818179,-0.055664062,0.95410156,0.2763672,0.125,-0.0625,0.0625,0.0,0.0,0.0
188,1696254818219,-0.053710938,0.9433594,0.27441406,-0.125,-0.21875,0.0625,0.0,0.0,0.0
189,1696254818259,-0.051757812,0.9482422,0.2919922,-0.125,-0.28125,0.125,0.0,0.0,0.0
190,1696254818299,-0.05859375,0.9511719,0.27734375,0.0,-0.1875,-0.125,0.0,0.0,0.0
191,1696254818339,-0.060546875,0.9589844,0.26953125,0.0,-0.125,-0.1875,0.0,0.0,0.0
192,1696254818379,-0.0546875,0.95703125,0.27734375,-0.0625,-0.1875,0.0625,0.0,0.0,0.0
193,1696254818419,-0.060546875,0.9609375,0.27734375,0.0,-0.1875,0.0,0.0,0.0,0.0
194,1696254818459,-0.05859375,0.94433594,0.28515625,0.125,-0.125,0.0,0.0,0.0,0.0
195,1696254818499,-0.056640625,0.9433594,0.27148438,-0.0625,-0.0625,0.0,0.0,0.0,0.0
196,1696254818539,-0.056640625,0.953125,0.28222656,-0.0625,-0.0625,0.0625,-20.875,67.0625,-206.625
197,1696254818579,-0.064453125,0.9472656,0.28808594,0.0625,0.0,0.0625,0.0,0.0,0.0
198,1696254818619,-0.05078125,0.94433594,0.27929688,-0.0625,-0.21875,0.0,0.0,0.0,0.0
199,1696254818659,-0.049804688,0.953125,0.28027344,-0.125,-0.0625,-0.125,0.0,0.0,0.0
200,1696254818699,-0.0625,0.94433594,0.28222656,0.125,0.0,-0.0625,0.0,0.0,0.0
201,1696254818739,-0.056640625,0.95214844,0.27734375,0.125,-0.0625,0.0625,0.0,0.0,0.0
202,1696254818779,-0.053710938,0.94921875,0.26953125,-0.0625,-0.0625,0.125,0.0,0.0,0.0
203,1696254818819,-0.055664062,0.94433594,0.28320312,0.0,0.125,0.0,0.0,0.0,0.0
204,1696254818859,-0.0546875,0.953125,0.2763672,-0.125,-0.0625,0.0,0.0,0.0,0.0
205,1696254818899,-0.0546875,0.953125,0.28222656,0.0625,-0.1875,0.0,0.0,0.0,0.0
206,1696254818939,-0.055664062,0.9472656,0.28222656,0.0625,-0.1875,0.0625,0.0,0.0,0.0
207,1696254818979,-0.06347656,0.9501953,0.2685547,0.0,0.0,0.0625,0.0,0.0,0.0
208,1696254819019,-0.05859375,0.9404297,0.28515625,-0.25,-0.125,0.0,-21.4375,67.6875,-207.8125
209,1696254819059,-0.061523438,0.9589844,0.2919922,-0.1875,-0.125,-0.1875,0.0,0.0,0.0
210,1696254819099,-0.05859375,0.9511719,0.2734375,0.0625,-0.0625,-0.25,0.0,0.0,0.0
211,1696254819139,-0.047851562,0.9589844,0.2763672,0.125,0.0625,-0.0625,0.0,0.0,0.0
212,1696254819179,-0.053710938,0.9511719,0.2783203,-0.0625,-0.40625,-0.0625,0.0,0.0,0.0
213,1696254819219,-0.0625,0.953125,0.27929688,0.0,-0.125,-0.0625,0.0,0.0,0.0
214,1696254819259,-0.055664062,0.9482422,0.2705078,-0.0625,0.0,0.0,0.0,0.0,0.0
215,1696254819299,-0.055664062,0.9511719,0.28222656,-0.28125,0.0625,-0.0625,0.0,0.0,0.0
216,1696254819339,-0.055664062,0.9433594,0.2763672,0.0,-0.125,0.0625,0.0,0.0,0.0
217,1696254819379,-0.057617188,0.9550781,0.27246094,-0.0625,-0.1875,0.125,0.0,0.0,0.0
218,1696254819419,-0.057617188,0.9589844,0.27441406,-0.28125,-0.125,0.0,0.0,0.0,0.0
219,1696254819459,-0.051757812,0.9433594,0.27539062,0.0625,0.125,0.0,0.0,0.0,0.0
220,1696254819499,-0.064453125,0.9501953,0.2763672,-0.0625,-0.125,-0.0625,0.0,0.0,0.0
221,1696254819539,-0.06347656,0.9511719,0.27734375,0.0,0.0625,0.0,-21.4375,68.4375,-207.1875
222,1696254819579,-0.056640625,0.94921875,0.29101562,-0.0625,0.0625,0.0,0.0,0.0,0.0
223,1696254819619,-0.056640625,0.9550781,0.28710938,-0.1875,-0.125,0.0625,0.0,0.0,0.0
224,1696254819659,-0.06933594,0.9404297,0.2861328,0.0,-0.21875,-0.0625,0.0,0.0,0.0
225,1696254819699,-0.059570312,0.94433594,0.27734375,0.0,-0.1875,0.0,0.0,0.0,0.0
226,1696254819739,-0.0546875,0.94921875,0.27539062,-0.1875,-0.125,0.0625,0.0,0.0,0.0
227,1696254819779,-0.057617188,0.953125,0.27441406,-0.28125,-0.125,0.0,0.0,0.0,0.0
228,1696254819819,-0.053710938,0.9550781,0.2890625,-0.25,-0.21875,0.0,0.0,0.0,0.0
229,1696254819859,-0.052734375,0.9472656,0.29101562,-0.0625,0.125,0.0625,0.0,0.0,0.0
230,1696254819899,-0.05859375,0.9501953,0.27148438,0.0625,0.0625,0.125,0.0,0.0,0.0
231,1696254819939,-0.0546875,0.94921875,0.2705078,0.09375,0.0,-0.125,0.0,0.0,0.0
232,1696254819979,-0.0625,0.9453125,0.28320312,0.09375,-0.09375,0.0,0.0,0.0,0.0
233,1696254820019,-0.061523438,0.9472656,0.2763672,0.0625,-0.0625,0.1875,-20.375,66.9375,-208.5625
234,1696254820059,-0.056640625,0.9404297,0.2705078,0.0625,0.0625,0.1875,0.0,0.0,0.0
235,1696254820099,-0.055664062,0.95703125,0.28125,0.0,-0.09375,0.0,0.0,0.0,0.0
236,1696254820139,-0.057617188,0.953125,0.26953125,0.15625,0.0625,0.125,0.0,0.0,0.0
237,1696254820179,-0.055664062,0.9560547,0.26757812,-0.0625,0.0,0.0625,0.0,0.0,0.0
238,1696254820219,-0.05078125,0.9501953,0.27929688,0.09375,0.0,-0.0625,0.0,0.0,0.0
239,1696254820259,-0.06542969,0.94628906,0.26367188,0.0625,-0.0625,-0.125,0.0,0.0,0.0
240,1696254820299,-0.057617188,0.953125,0.26464844,0.0625,-0.15625,0.0,0.0,0.0,0.0
241,1696254820339,-0.0625,0.94433594,0.27441406,0.0625,-0.0625,0.125,0.0,0.0,0.0
242,1696254820379,-0.057617188,0.9501953,0.2890625,0.09375,0.1875,-0.0625,0.0,0.0,0.0
243,1696254820419,-0.055664062,0.9482422,0.2919922,0.0,0.0625,0.0625,0.0,0.0,0.0
244,1696254820459,-0.05859375,0.9423828,0.27441406,0.0625,-0.09375,0.125,0.0,0.0,0.0
245,1696254820499,-0.0625,0.9550781,0.2783203,0.15625,-0.09375,-0.0625,0.0,0.0,0.0
246,1696254820539,-0.059570312,0.953125,0.27441406,0.09375,0.1875,0.0625,-21.0,68.4375,-207.5
247,1696254820579,-0.06738281,0.9550781,0.28125,-0.125,-0.15625,0.0625,0.0,0.0,0.0
248,1696254820619,-0.061523438,0.9423828,0.28222656,-0.0625,-0.21875,0.0,0.0,0.0,0.0
249,1696254820659,-0.057617188,0.9453125,0.28710938,0.0625,-0.09375,-0.0625,0.0,0.0,0.0
250,1696254820699,-0.056640625,0.9453125,0.27539062,-0.0625,0.0625,-0.0625,0.0,0.0,0.0
251,1696254820739,-0.05859375,0.95410156,0.2763672,0.0625,0.0,-0.0625,0.0,0.0,0.0
252,1696254820779,-0.059570312,0.94628906,0.2734375,0.15625,-0.09375,-0.0625,0.0,0.0,0.0
253,1696254820819,-0.055664062,0.9560547,0.28125,0.0,-0.0625,-0.0625,0.0,0.0,0.0
254,1696254820859,-0.059570312,0.9511719,0.27539062,0.0625,0.0625,0.0625,0.0,0.0,0.0
255,1696254820899,-0.056640625,0.9501953,0.27246094,-0.125,-0.0625,0.0,0.0,0.0,0.0
256,1696254820939,-0.068359375,0.9472656,0.2841797,0.0,-0.0625,0.0625,0.0,0.0,0.0
257,1696254820979,-0.059570312,0.95214844,0.27929688,0.0,0.0,-0.0625,0.0,0.0,0.0
258,1696254821019,-0.059570312,0.95703125,0.27148438,0.0625,-0.0625,-0.0625,-21.4375,69.0625,-206.4375
259,1696254821059,-0.059570312,0.94140625,0.2841797,0.09375,0.0625,0.125,0.0,0.0,0.0
260,1696254821099,-0.056640625,0.9453125,0.28027344,0.15625,0.0,0.0,0.0,0.0,0.0
261,1696254821139,-0.061523438,0.9638672,0.26757812,0.0,-0.21875,0.0,0.0,0.0,0.0
262,1696254821179,-0.055664062,0.95214844,0.28320312,0.0625,0.0,0.125,0.0,0.0,0.0
263,1696254821219,-0.05859375,0.9433594,0.28515625,0.09375,0.0625,-0.125,0.0,0.0,0.0
264,1696254821259,-0.061523438,0.9472656,0.27539062,-0.0625,0.0,0.0,0.0,0.0,0.0
265,1696254821299,-0.0546875,0.9550781,0.26660156,0.21875,-0.21875,-0.125,0.0,0.0,0.0
266,1696254821339,-0.057617188,0.94433594,0.27734375,0.15625,-0.09375,-0.0625,0.0,0.0,0.0
267,1696254821379,-0.0703125,0.9589844,0.2783203,-0.0625,-0.0625,0.0625,0.0,0.0,0.0
268,1696254821419,-0.060546875,0.94921875,0.28320312,-0.3125,-0.0625,0.0625,0.0,0.0,0.0
269,1696254821459,-0.06640625,0.9453125,0.2763672,-0.0625,-0.15625,-0.125,0.0,0.0,0.0
270,1696254821499,-0.057617188,0.9433594,0.2919922,0.0625,-0.0625,-0.0625,0.0,0.0,0.0
271,1696254821539,-0.052734375,0.95703125,0.28320312,0.0,-0.0625,0.0625,-20.375,68.4375,-206.75
272,1696254821579,-0.060546875,0.94433594,0.2734375,0.0625,-0.0625,-0.0625,0.0,0.0,0.0
273,1696254821619,-0.059570312,0.9560547,0.2763672,0.09375,-0.09375,-0.125,0.0,0.0,0.0
274,1696254821659,-0.057617188,0.95214844,0.2763672,0.09375,0.0,0.0625,0.0,0.0,0.0
275,1696254821699,-0.0546875,0.94921875,0.27246094,-0.3125,0.0,0.125,0.0,0.0,0.0
276,1696254821739,-0.060546875,0.9453125,0.2890625,-0.3125,-0.0625,0.0625,0.0,0.0,0.0
277,1696254821779,-0.059570312,0.95410156,0.28808594,0.0625,-0.15625,0.0,0.0,0.0,0.0
278,1696254821819,-0.052734375,0.9511719,0.26757812,0.0625,-0.0625,-0.125,0.0,0.0,0.0
279,1696254821859,-0.0546875,0.9482422,0.29101562,0.09375,0.0625,-0.1875,0.0,0.0,0.0
280,1696254821899,-0.06347656,0.95996094,0.27441406,0.21875,0.0,-0.125,0.0,0.0,0.0
281,1696254821939,-0.053710938,0.9501953,0.2734375,0.0,-0.21875,0.0625,0.0,0.0,0.0
282,1696254821979,-0.055664062,0.9472656,0.2734375,-0.0625,-0.28125,-0.0625,0.0,0.0,0.0
283,1696254822019,-0.060546875,0.9482422,0.29101562,0.0,-0.21875,0.0625,-20.5625,65.75,-207.375
284,1696254822059,-0.0546875,0.94921875,0.2861328,0.15625,0.0625,-0.0625,0.0,0.0,0.0
285,1696254822099,-0.057617188,0.9394531,0.29003906,-0.125,-0.0625,0.0,0.0,0.0,0.0
286,1696254822139,-0.049804688,0.9501953,0.2705078,0.0,-0.34375,0.0,0.0,0.0,0.0
287,1696254822179,-0.053710938,0.9511719,0.2705078,0.28125,-0.28125,-0.0625,0.0,0.0,0.0
288,1696254822219,-0.056640625,0.9560547,0.28027344,0.09375,0.0,0.0,0.0,0.0,0.0
289,1696254822259,-0.056640625,0.9550781,0.28808594,0.0625,-0.15625,0.0,0.0,0.0,0.0
290,1696254822299,-0.055664062,0.94628906,0.2861328,0.0625,-0.09375,-0.125,0.0,0.0,0.0
291,1696254822339,-0.056640625,0.94921875,0.2861328,0.09375,-0.21875,-0.1875,0.0,0.0,0.0
292,1696254822379,-0.05859375,0.9550781,0.2734375,-0.0625,-0.15625,-0.25,0.0,0.0,0.0
293,1696254822419,-0.064453125,0.95214844,0.28027344,0.0625,-0.09375,0.0,0.0,0.0,0.0
294,1696254822459,-0.045898438,0.94628906,0.27148438,0.1875,0.03125,0.09375,0.0,0.0,0.0
295,1696254822499,-0.06347656,0.9453125,0.27734375,0.0,0.03125,0.03125,0.0,0.0,0.0
296,1696254822539,-0.06347656,0.9482422,0.28320312,-0.0625,-0.09375,0.03125,-20.6875,67.6875,-207.1875
297,1696254822579,-0.057617188,0.9550781,0.29101562,0.0625,0.09375,-0.09375,0.0,0.0,0.0
298,1696254822619,-0.057617188,0.953125,0.28222656,0.125,-0.09375,-0.15625,0.0,0.0,0.0
299,1696254822659,-0.0625,0.9550781,0.2783203,-0.1875,-0.09375,0.09375,0.0,0.0,0.0
300,1696254822699,-0.05078125,0.9472656,0.2705078,0.0,0.03125,-0.09375,0.0,0.0,0.0
301,1696254822739,-0.048828125,0.9394531,0.27539062,0.0,0.03125,-0.03125,0.0,0.0,0.0
302,1696254822779,-0.051757812,0.94921875,0.28320312,0.0,0.03125,-0.03125,0.0,0.0,0.0
303,1696254822819,-0.05859375,0.9453125,0.2890625,0.0625,0.15625,-0.09375,0.0,0.0,0.0
304,1696254822859,-0.051757812,0.9511719,0.2841797,0.3125,-0.03125,-0.09375,0.0,0.0,0.0
305,1696254822899,-0.055664062,0.9501953,0.28222656,0.125,0.15625,-0.03125,0.0,0.0,0.0
306,1696254822939,-0.059570312,0.9550781,0.2890625,0.0,0.09375,-0.15625,0.0,0.0,0.0
307,1696254822979,-0.046875,0.94628906,0.2861328,0.0,-0.03125,-0.09375,0.0,0.0,0.0
308,1696254823019,-0.0625,0.9511719,0.27929688,0.3125,0.09375,0.03125,-21.0,67.6875,-207.8125
309,1696254823059,-0.061523438,0.94921875,0.27539062,0.0,-0.21875,0.03125,0.0,0.0,0.0
310,1696254823099,-0.06738281,0.95214844,0.28125,-0.125,0.03125,0.03125,0.0,0.0,0.0
311,1696254823139,-0.060546875,0.94921875,0.29003906,-0.0625,-0.15625,-0.03125,0.0,0.0,0.0
312,1696254823179,-0.051757812,0.9453125,0.28710938,-0.125,-0.15625,-0.09375,0.0,0.0,0.0
313,1696254823219,-0.0625,0.94921875,0.27539062,0.0,-0.03125,-0.09375,0.0,0.0,0.0
314,1696254823259,-0.059570312,0.9453125,0.2861328,-0.1875,0.03125,-0.09375,0.0,0.0,0.0
315,1696254823299,-0.055664062,0.9550781,0.27148438,0.0625,-0.09375,0.03125,0.0,0.0,0.0
316,1696254823339,-0.060546875,0.953125,0.2705078,0.3125,-0.03125,-0.15625,0.0,0.0,0.0
317,1696254823379,-0.057617188,0.94433594,0.26660156,0.1875,0.09375,-0.09375,0.0,0.0,0.0
318,1696254823419,-0.061523438,0.9501953,0.27148438,0.1875,0.09375,0.09375,0.0,0.0,0.0
319,1696254823459,-0.060546875,0.95410156,0.2919922,-0.0625,-0.03125,0.03125,0.0,0.0,0.0
320,1696254823499,-0.046875,0.9404297,0.28222656,0.0,-0.03125,0.03125,0.0,0.0,0.0
321,1696254823539,-0.05859375,0.94628906,0.2705078,0.0,-0.03125,0.03125,-20.875,67.8125,-207.375
322,1696254823579,-0.0625,0.9550781,0.28320312,0.0625,0.09375,-0.09375,0.0,0.0,0.0
323,1696254823619,-0.0546875,0.9560547,0.2734375,0.1875,0.15625,-0.03125,0.0,0.0,0.0
324,1696254823659,-0.06738281,0.953125,0.28222656,0.1875,0.03125,0.03125,0.0,0.0,0.0
325,1696254823699,-0.05859375,0.95996094,0.27734375,-0.125,0.03125,0.15625,0.0,0.0,0.0
326,1696254823739,-0.06640625,0.9511719,0.27734375,-0.0625,0.15625,0.03125,0.0,0.0,0.0
327,1696254823779,-0.06640625,0.95410156,0.28125,-0.0625,0.21875,-0.03125,0.0,0.0,0.0
328,1696254823819,-0.059570312,0.9580078,0.27246094,0.125,0.09375,-0.09375,0.0,0.0,0.0
329,1696254823859,-0.0546875,0.94140625,0.26953125,0.0,0.03125,0.09375,0.0,0.0,0.0
330,1696254823899,-0.05859375,0.953125,0.28710938,0.125,0.15625,0.15625,0.0,0.0,0.0
331,1696254823939,-0.064453125,0.94628906,0.28027344,-0.125,0.03125,0.09375,0.0,0.0,0.0
332,1696254823979,-0.06347656,0.9472656,0.27929688,-0.40625,0.03125,-0.03125,0.0,0.0,0.0
333,1696254824019,-0.05859375,0.9482422,0.2734375,-0.0625,-0.03125,-0.03125,-21.875,66.5,-206.625
334,1696254824059,-0.060546875,0.9550781,0.27246094,-0.25,0.15625,0.03125,0.0,0.0,0.0
335,1696254824099,-0.0546875,0.94921875,0.27734375,-0.125,0.09375,-0.09375,0.0,0.0,0.0
336,1696254824139,-0.05859375,0.9472656,0.28125,0.0,0.03125,0.15625,0.0,0.0,0.0
337,1696254824179,-0.056640625,0.953125,0.26757812,-0.25,0.09375,0.09375,0.0,0.0,0.0
338,1696254824219,-0.06640625,0.9550781,0.27929688,0.0,0.15625,-0.03125,0.0,0.0,0.0
339,1696254824259,-0.057617188,0.953125,0.27148438,-0.0625,0.03125,0.09375,0.0,0.0,0.0
340,1696254824299,-0.05859375,0.953125,0.27734375,-0.0625,0.09375,0.15625,0.0,0.0,0.0
341,1696254824339,-0.059570312,0.9511719,0.28320312,-0.1875,0.09375,0.09375,0.0,0.0,0.0
342,1696254824379,-0.056640625,0.95214844,0.28125,0.0625,0.28125,0.03125,0.0,0.0,0.0
343,1696254824419,-0.053710938,0.95410156,0.2734375,0.0625,0.28125,-0.03125,0.0,0.0,0.0
344,1696254824459,-0.059570312,0.95214844,0.2841797,0.0625,0.15625,0.09375,0.0,0.0,0.0
345,1696254824499,-0.059570312,0.9472656,0.26757812,-0.25,0.03125,0.15625,0.0,0.0,0.0
346,1696254824539,-0.060546875,0.95214844,0.2841797,-0.0625,0.21875,0.03125,-21.4375,68.0,-207.5
347,1696254824579,-0.045898438,0.9453125,0.2734375,-0.0625,0.15625,0.03125,0.0,0.0,0.0
348,1696254824619,-0.056640625,0.94921875,0.2685547,0.0,-0.03125,0.21875,0.0,0.0,0.0
349,1696254824659,-0.059570312,0.95996094,0.27246094,0.0,0.15625,0.09375,0.0,0.0,0.0
350,1696254824699,-0.057617188,0.94921875,0.27734375,-0.1875,-0.03125,0.15625,0.0,0.0,0.0
351,1696254824739,-0.056640625,0.94921875,0.28320312,-0.25,-0.03125,0.15625,0.0,0.0,0.0
352,1696254824779,-0.053710938,0.9560547,0.27246094,-0.3125,-0.09375,0.09375,0.0,0.0,0.0
353,1696254824819,-0.05078125,0.95214844,0.2783203,0.0625,0.15625,0.09375,0.0,0.0,0.0
354,1696254824859,-0.060546875,0.9433594,0.28710938,-0.0625,0.09375,-0.03125,0.0,0.0,0.0
355,1696254824899,-0.056640625,0.9423828,0.26660156,0.0,-0.03125,0.15625,0.0,0.0,0.0
356,1696254824939,-0.06640625,0.95703125,0.2685547,-0.0625,-0.03125,0.09375,0.0,0.0,0.0
357,1696254824979,-0.068359375,0.93847656,0.28515625,0.0625,0.09375,0.09375,0.0,0.0,0.0
358,1696254825019,-0.055664062,0.9482422,0.28125,-0.125,0.21875,0.03125,-20.6875,69.5,-208.5625
359,1696254825059,-0.052734375,0.9423828,0.27246094,-0.1875,-0.03125,0.09375,0.0,0.0,0.0
360,1696254825099,-0.053710938,0.9453125,0.265625,0.0625,-0.0625,-0.0625,0.0,0.0,0.0
361,1696254825139,-0.061523438,0.94433594,0.27441406,0.0625,0.0625,0.0625,0.0,0.0,0.0
362,1696254825179,-0.052734375,0.94433594,0.27929688,0.125,0.0,0.0,0.0,0.0,0.0
363,1696254825219,-0.06640625,0.95214844,0.27929688,0.25,0.0625,0.0625,0.0,0.0,0.0
364,1696254825259,-0.05859375,0.95996094,0.265625,0.0625,-0.0625,0.0625,0.0,0.0,0.0
365,1696254825299,-0.056640625,0.9472656,0.2734375,-0.0625,-0.1875,-0.0625,0.0,0.0,0.0
366,1696254825339,-0.06640625,0.94628906,0.27929688,0.125,0.1875,-0.25,0.0,0.0,0.0
367,1696254825379,-0.055664062,0.953125,0.28710938,-0.0625,0.0625,-0.0625,0.0,0.0,0.0
368,1696254825419,-0.06347656,0.9404297,0.2626953,-0.0625,-0.25,0.0,0.0,0.0,0.0
369,1696254825459,-0.053710938,0.94433594,0.2705078,0.1875,0.0,-0.125,0.0,0.0,0.0
370,1696254825499,-0.0625,0.9609375,0.29589844,0.0625,-0.0625,-0.0625,0.0,0.0,0.0
371,1696254825539,-0.0546875,0.9423828,0.26757812,-0.25,0.0,-0.0625,-20.875,66.8125,-206.0
372,1696254825579,-0.0625,0.94433594,0.28222656,-0.1875,-0.125,0.0625,0.0,0.0,0.0
373,1696254825619,-0.053710938,0.9580078,0.28710938,0.0,-0.125,-0.0625,0.0,0.0,0.0
374,1696254825659,-0.05859375,0.95214844,0.28710938,0.0,-0.125,-0.0625,0.0,0.0,0.0
375,1696254825699,-0.055664062,0.94433594,0.28515625,0.125,0.0,-0.0625,0.0,0.0,0.0
376,1696254825739,-0.060546875,0.953125,0.2783203,0.25,-0.0625,-0.0625,0.0,0.0,0.0
377,1696254825779,-0.059570312,0.95214844,0.27441406,-0.0625,0.0,0.0,0.0,0.0,0.0
378,1696254825819,-0.05859375,0.95214844,0.2705078,-0.25,-0.125,-0.0625,0.0,0.0,0.0
379,1696254825859,-0.057617188,0.94433594,0.27734375,0.125,0.0,-0.0625,0.0,0.0,0.0
380,1696254825899,-0.05859375,0.94921875,0.2783203,0.0625,-0.0625,-0.125,0.0,0.0,0.0
381,1696254825939,-0.060546875,0.94140625,0.2734375,0.0625,-0.0625,-0.0625,0.0,0.0,0.0
382,1696254825979,-0.05859375,0.9560547,0.27734375,0.125,0.0,-0.1875,0.0,0.0,0.0
383,1696254826019,-0.059570312,0.9453125,0.2861328,0.1875,-0.125,-0.125,-21.0,67.6875,-206.4375
384,1696254826059,-0.06640625,0.94921875,0.2705078,0.125,-0.25,0.0,0.0,0.0,0.0
385,1696254826099,-0.057617188,0.953125,0.27441406,-0.0625,-0.1875,0.0,0.0,0.0,0.0
386,1696254826139,-0.05859375,0.9423828,0.27734375,-0.0625,0.1875,-0.0625,0.0,0.0,0.0
387,1696254826179,-0.051757812,0.9433594,0.2763672,-0.0625,-0.0625,-0.125,0.0,0.0,0.0
388,1696254826219,-0.049804688,0.95214844,0.27246094,0.125,-0.1875,-0.3125,0.0,0.0,0.0
389,1696254826259,-0.056640625,0.94628906,0.27734375,0.4375,-0.1875,-0.1875,0.0,0.0,0.0
390,1696254826299,-0.056640625,0.95214844,0.2734375,0.25,0.0,-0.1875,0.0,0.0,0.0
391,1696254826339,-0.057617188,0.94433594,0.28027344,0.0625,-0.1875,-0.0625,0.0,0.0,0.0
392,1696254826379,-0.052734375,0.9511719,0.28125,0.0,-0.3125,-0.125,0.0,0.0,0.0
393,1696254826419,-0.064453125,0.94921875,0.2890625,0.125,0.0,-0.0625,0.0,0.0,0.0
394,1696254826459,-0.05078125,0.94628906,0.27246094,0.0625,-0.1875,-0.125,0.0,0.0,0.0
395,1696254826499,-0.052734375,0.9560547,0.28808594,0.5,-0.0625,-0.25,0.0,0.0,0.0
396,1696254826539,-0.0625,0.953125,0.27441406,0.3125,-0.3125,-0.1875,-21.625,69.3125,-208.375
397,1696254826579,-0.051757812,0.9482422,0.2685547,0.0,-0.1875,-0.125,0.0,0.0,0.0
398,1696254826619,-0.060546875,0.9482422,0.2939453,0.125,0.0625,-0.1875,0.0,0.0,0.0
399,1696254826659,-0.053710938,0.9580078,0.28808594,0.0625,-0.25,-0.125,0.0,0.0,0.0
400,1696254826699,-0.05859375,0.94628906,0.27539062,-0.1875,-0.3125,-0.0625,0.0,0.0,0.0
401,1696254826739,-0.055664062,0.94433594,0.27246094,0.0625,-0.1875,-0.0625,0.0,0.0,0.0
402,1696254826779,-0.057617188,0.93652344,0.2685547,0.3125,0.0,-0.0625,0.0,0.0,0.0
403,1696254826819,-0.068359375,0.9501953,0.2734375,0.25,0.0,-0.3125,0.0,0.0,0.0
404,1696254826859,-0.06933594,0.9550781,0.2578125,0.1875,0.0625,-0.3125,0.0,0.0,0.0
405,1696254826899,-0.059570312,0.94433594,0.28320312,0.25,0.0,-0.125,0.0,0.0,0.0
406,1696254826939,-0.0546875,0.9501953,0.27539062,0.125,0.0,-0.1875,0.0,0.0,0.0
407,1696254826979,-0.053710938,0.9482422,0.2734375,-0.1875,-0.125,-0.0625,0.0,0.0,0.0
408,1696254827019,-0.060546875,0.94628906,0.27929688,0.25,-0.1875,-0.125,-19.9375,68.0,-206.125
409,1696254827059,-0.056640625,0.94921875,0.27929688,0.4375,-0.125,-0.1875,0.0,0.0,0.0
410,1696254827099,-0.06542969,0.95996094,0.26660156,-0.0625,-0.0625,-0.125,0.0,0.0,0.0
411,1696254827139,-0.05078125,0.95214844,0.2734375,0.0625,-0.125,-0.0625,0.0,0.0,0.0
412,1696254827179,-0.056640625,0.95703125,0.28027344,0.0625,-0.25,-0.1875,0.0,0.0,0.0
413,1696254827219,-0.0546875,0.9482422,0.28222656,0.125,0.0625,-0.125,0.0,0.0,0.0
414,1696254827259,-0.05859375,0.953125,0.29003906,0.125,0.0625,-0.25,0.0,0.0,0.0
415,1696254827299,-0.044921875,0.9589844,0.28222656,0.0625,-0.125,-0.1875,0.0,0.0,0.0
416,1696254827339,-0.05859375,0.953125,0.28027344,0.1875,-0.125,-0.125,0.0,0.0,0.0
417,1696254827379,-0.056640625,0.94628906,0.28710938,-0.0625,-0.0625,-0.125,0.0,0.0,0.0
418,1696254827419,-0.059570312,0.9501953,0.2763672,0.0,-0.0625,-0.1875,0.0,0.0,0.0
419,1696254827459,-0.056640625,0.9453125,0.28027344,0.0625,-0.0625,0.0,0.0,0.0,0.0
420,1696254827499,-0.05078125,0.9511719,0.2763672,0.3125,-0.0625,-0.1875,0.0,0.0,0.0
421,1696254827539,-0.055664062,0.953125,0.2861328,0.0625,0.0,-0.25,-20.5625,67.8125,-209.3125
422,1696254827579,-0.053710938,0.9560547,0.265625,0.125,0.25,-0.1875,0.0,0.0,0.0
423,1696254827619,-0.06542969,0.9609375,0.2841797,0.1875,0.1875,-0.1875,0.0,0.0,0.0
424,1696254827659,-0.059570312,0.9550781,0.29003906,0.1875,-0.0625,-0.0625,0.0,0.0,0.0
425,1696254827699,-0.056640625,0.9550781,0.27929688,-0.1875,0.0625,0.0625,0.0,0.0,0.0
426,1696254827739,-0.057617188,0.9482422,0.28320312,0.125,0.25,-0.125,0.0,0.0,0.0
427,1696254827779,-0.055664062,0.94921875,0.28320312,0.125,0.0625,-0.0625,0.0,0.0,0.0
428,1696254827819,-0.05078125,0.9511719,0.28222656,0.1875,0.0625,-0.1875,0.0,0.0,0.0
429,1696254827859,-0.05859375,0.94921875,0.28808594,0.3125,-0.0625,-0.1875,0.0,0.0,0.0
430,1696254827899,-0.061523438,0.9580078,0.26660156,0.125,0.0,-0.125,0.0,0.0,0.0
431,1696254827939,-0.055664062,0.94921875,0.2763672,-0.125,-0.1875,-0.0625,0.0,0.0,0.0
432,1696254827979,-0.047851562,0.9482422,0.27539062,-0.25,-0.3125,0.0,0.0,0.0,0.0
433,1696254828019,-0.0546875,0.9501953,0.2783203,0.125,-0.0625,-0.25,-19.8125,68.5625,-207.625
434,1696254828059,-0.051757812,0.94628906,0.28515625,0.0625,-0.0625,-0.0625,0.0,0.0,0.0
435,1696254828099,-0.05078125,0.9482422,0.27539062,0.0625,-0.0625,-0.1875,0.0,0.0,0.0
436,1696254828139,-0.059570312,0.94921875,0.2734375,0.3125,-0.1875,0.0,0.0,0.0,0.0
437,1696254828179,-0.052734375,0.94921875,0.2763672,0.125,0.25,-0.1875,0.0,0.0,0.0
438,1696254828219,-0.06542969,0.9511719,0.26367188,-0.0625,0.125,-0.0625,0.0,0.0,0.0
439,1696254828259,-0.0546875,0.95410156,0.2734375,0.0,-0.125,-0.125,0.0,0.0,0.0
440,1696254828299,-0.053710938,0.9433594,0.2734375,0.0,-0.1875,-0.125,0.0,0.0,0.0
441,1696254828339,-0.064453125,0.9501953,0.2626953,0.0,0.0625,-0.0625,0.0,0.0,0.0
442,1696254828379,-0.061523438,0.9550781,0.25683594,-0.125,-0.0625,-0.1875,0.0,0.0,0.0
443,1696254828419,-0.049804688,0.9472656,0.27246094,0.25,-0.0625,-0.25,0.0,0.0,0.0
444,1696254828459,-0.064453125,0.95410156,0.27929688,0.125,-0.0625,-0.0625,0.0,0.0,0.0
445,1696254828499,-0.053710938,0.9453125,0.27734375,-0.1875,0.0,-0.0625,0.0,0.0,0.0
446,1696254828539,-0.064453125,0.94628906,0.29101562,0.125,0.1875,-0.125,-20.6875,66.9375,-208.5625
447,1696254828579,-0.060546875,0.9482422,0.28222656,0.0625,0.0,-0.25,0.0,0.0,0.0
448,1696254828619,-0.060546875,0.9511719,0.27734375,0.0625,-0.25,-0.0625,0.0,0.0,0.0
449,1696254828659,-0.052734375,0.9482422,0.27929688,0.1875,0.0,-0.1875,0.0,0.0,0.0
450,1696254828699,-0.052734375,0.9472656,0.2841797,0.125,0.0625,-0.125,0.0,0.0,0.0
451,1696254828739,-0.06738281,0.9433594,0.2685547,0.0625,-0.0625,-0.0625,0.0,0.0,0.0
452,1696254828779,-0.060546875,0.9453125,0.26757812,0.25,0.0,-0.1875,0.0,0.0,0.0
453,1696254828819,-0.051757812,0.9501953,0.28515625,0.0,-0.125,-0.125,0.0,0.0,0.0
454,1696254828859,-0.057617188,0.9433594,0.28710938,0.125,0.0625,-0.1875,0.0,0.0,0.0
455,1696254828899,-0.060546875,0.95703125,0.27246094,0.125,-0.125,-0.125,0.0,0.0,0.0
456,1696254828939,-0.057617188,0.9511719,0.28222656,0.0625,-0.0625,-0.125,0.0,0.0,0.0
457,1696254828979,-0.0625,0.9472656,0.2783203,0.125,0.0625,-0.0625,0.0,0.0,0.0
458,1696254829019,-0.059570312,0.9433594,0.27441406,-0.09375,-0.09375,-0.125,-20.375,67.375,-208.125
459,1696254829059,-0.059570312,0.9501953,0.28320312,0.03125,0.03125,0.125,0.0,0.0,0.0
460,1696254829099,-0.059570312,0.9501953,0.27929688,0.03125,0.03125,0.0,0.0,0.0,0.0
461,1696254829139,-0.055664062,0.9453125,0.27441406,-0.09375,-0.03125,0.125,0.0,0.0,0.0
462,1696254829179,-0.05078125,0.95410156,0.26660156,0.03125,0.03125,0.0,0.0,0.0,0.0
463,1696254829219,-0.053710938,0.9423828,0.27246094,0.28125,0.09375,0.0,0.0,0.0,0.0
464,1696254829259,-0.059570312,0.9501953,0.27148438,-0.09375,-0.15625,0.0625,0.0,0.0,0.0
465,1696254829299,-0.0546875,0.9511719,0.28222656,-0.09375,-0.03125,0.0,0.0,0.0,0.0
466,1696254829339,-0.056640625,0.9472656,0.29101562,-0.09375,0.09375,0.0,0.0,0.0,0.0
467,1696254829379,-0.049804688,0.9453125,0.27441406,-0.03125,-0.15625,0.0625,0.0,0.0,0.0
468,1696254829419,-0.05078125,0.94433594,0.2705078,0.09375,-0.15625,0.0625,0.0,0.0,0.0
469,1696254829459,-0.05859375,0.9560547,0.28515625,0.21875,0.03125,0.125,0.0,0.0,0.0
470,1696254829499,-0.064453125,0.95703125,0.2705078,0.03125,0.03125,0.0,0.0,0.0,0.0
471,1696254829539,-0.06640625,0.94140625,0.2705078,-0.03125,-0.21875,0.0,-20.125,68.3125,-207.625
472,1696254829579,-0.059570312,0.9433594,0.28125,-0.03125,-0.15625,0.125,0.0,0.0,0.0
473,1696254829619,-0.053710938,0.9472656,0.2841797,-0.03125,-0.09375,-0.0625,0.0,0.0,0.0
474,1696254829659,-0.051757812,0.953125,0.27539062,0.03125,0.03125,0.0,0.0,0.0,0.0
475,1696254829699,-0.061523438,0.953125,0.28027344,0.15625,-0.28125,-0.0625,0.0,0.0,0.0
476,1696254829739,-0.048828125,0.95214844,0.26953125,0.15625,-0.03125,0.0,0.0,0.0,0.0
477,1696254829779,-0.06542969,0.94921875,0.27734375,-0.03125,-0.03125,0.0,0.0,0.0,0.0
478,1696254829819,-0.057617188,0.9472656,0.2734375,-0.15625,-0.15625,0.0625,0.0,0.0,0.0
479,1696254829859,-0.05859375,0.9580078,0.29589844,0.21875,-0.15625,-0.0625,0.0,0.0,0.0
480,1696254829899,-0.0546875,0.9453125,0.2919922,0.21875,0.03125,-0.1875,0.0,0.0,0.0
481,1696254829939,-0.053710938,0.94433594,0.28027344,0.03125,0.03125,-0.0625,0.0,0.0,0.0
482,1696254829979,-0.07421875,0.9482422,0.28125,0.09375,0.03125,-0.0625,0.0,0.0,0.0
483,1696254830019,-0.064453125,0.9482422,0.27929688,0.09375,-0.09375,0.0,-20.375,68.4375,-207.1875
484,1696254830059,-0.05859375,0.94921875,0.28027344,0.03125,0.15625,0.125,0.0,0.0,0.0
485,1696254830099,-0.053710938,0.9453125,0.2763672,0.03125,0.15625,-0.0625,0.0,0.0,0.0
486,1696254830139,-0.05859375,0.953125,0.27734375,-0.03125,-0.09375,0.0,0.0,0.0,0.0
487,1696254830179,-0.056640625,0.9511719,0.2734375,0.15625,-0.21875,-0.0625,0.0,0.0,0.0
488,1696254830219,-0.055664062,0.9453125,0.27441406,0.03125,0.03125,0.0,0.0,0.0,0.0
489,1696254830259,-0.05859375,0.95410156,0.28125,0.03125,0.03125,0.0625,0.0,0.0,0.0
490,1696254830299,-0.0625,0.94628906,0.2763672,-0.03125,-0.15625,0.0,0.0,0.0,0.0
491,1696254830339,-0.05859375,0.9482422,0.2705078,-0.03125,-0.28125,0.0,0.0,0.0,0.0
492,1696254830379,-0.05859375,0.94921875,0.2841797,-0.03125,-0.03125,-0.0625,0.0,0.0,0.0
493,1696254830419,-0.05859375,0.94433594,0.27441406,-0.09375,-0.03125,-0.0625,0.0,0.0,0.0
494,1696254830459,-0.053710938,0.95996094,0.2763672,0.21875,-0.09375,0.0,0.0,0.0,0.0
495,1696254830499,-0.05078125,0.9472656,0.28222656,0.15625,0.03125,0.0625,0.0,0.0,0.0
496,1696254830539,-0.051757812,0.95214844,0.27734375,-0.03125,-0.03125,0.0,-21.125,68.875,-209.3125
497,1696254830579,-0.064453125,0.94921875,0.27246094,-0.03125,0.03125,-0.0625,0.0,0.0,0.0
498,1696254830619,-0.05859375,0.953125,0.28320312,0.21875,0.03125,0.0625,0.0,0.0,0.0
499,1696254830659,-0.057617188,0.9482422,0.27539062,-0.09375,-0.09375,-0.0625,0.0,0.0,0.0
500,1696254830699,-0.059570312,0.9501953,0.27441406,-0.15625,-0.03125,0.0,0.0,0.0,0.0
501,1696254830739,-0.057617188,0.9472656,0.27441406,0.15625,0.03125,0.0,0.0,0.0,0.0
502,1696254830779,-0.061523438,0.9501953,0.28222656,0.03125,0.15625,0.0,0.0,0.0,0.0
503,1696254830819,-0.055664062,0.9482422,0.28125,-0.09375,-0.03125,0.0,0.0,0.0,0.0
504,1696254830859,-0.059570312,0.9560547,0.2705078,0.09375,0.21875,-0.0625,0.0,0.0,0.0
505,1696254830899,-0.049804688,0.9501953,0.2763672,-0.03125,0.09375,-0.0625,0.0,0.0,0.0
506,1696254830939,-0.046875,0.94921875,0.28125,0.28125,-0.15625,-0.0625,0.0,0.0,0.0
507,1696254830979,-0.055664062,0.9511719,0.27539062,0.09375,-0.15625,-0.0625,0.0,0.0,0.0
508,1696254831019,-0.06347656,0.95410156,0.27539062,-0.09375,0.03125,0.0625,-20.875,67.0625,-207.625
509,1696254831059,-0.060546875,0.9482422,0.27441406,-0.21875,-0.15625,0.0,0.0,0.0,0.0
510,1696254831099,-0.064453125,0.9472656,0.27929688,-0.34375,-0.15625,-0.125,0.0,0.0,0.0
511,1696254831139,-0.060546875,0.9482422,0.28710938,-0.09375,-0.09375,-0.125,0.0,0.0,0.0
512,1696254831179,-0.061523438,0.9453125,0.26953125,-0.03125,0.21875,0.0,0.0,0.0,0.0
513,1696254831219,-0.057617188,0.9482422,0.27246094,-0.21875,-0.03125,0.0,0.0,0.0,0.0
514,1696254831259,-0.055664062,0.95703125,0.2841797,0.03125,-0.03125,-0.0625,0.0,0.0,0.0
515,1696254831299,-0.06347656,0.9433594,0.27734375,0.03125,0.03125,0.0,0.0,0.0,0.0
516,1696254831339,-0.0625,0.9482422,0.26953125,-0.34375,0.03125,0.0625,0.0,0.0,0.0
517,1696254831379,-0.053710938,0.9472656,0.28222656,-0.15625,-0.15625,0.15625,0.0,0.0,0.0
518,1696254831419,-0.052734375,0.9511719,0.28222656,0.09375,0.03125,0.0,0.0,0.0,0.0
519,1696254831459,-0.05078125,0.95703125,0.27441406,-0.03125,-0.03125,-0.0625,0.0,0.0,0.0
520,1696254831499,-0.064453125,0.953125,0.2705078,-0.03125,0.09375,-0.125,0.0,0.0,0.0
521,1696254831539,-0.0625,0.9472656,0.27148438,0.15625,0.15625,-0.125,-21.4375,69.5,-206.75
522,1696254831579,-0.051757812,0.9472656,0.265625,0.09375,0.21875,0.0,0.0,0.0,0.0
523,1696254831619,-0.0625,0.9482422,0.29003906,0.09375,0.03125,0.0,0.0,0.0,0.0
524,1696254831659,-0.056640625,0.94921875,0.28710938,0.09375,0.21875,0.0,0.0,0.0,0.0
525,1696254831699,-0.05859375,0.9453125,0.28027344,-0.09375,0.15625,0.0625,0.0,0.0,0.0
526,1696254831739,-0.05859375,0.9472656,0.28710938,-0.15625,-0.03125,0.0625,0.0,0.0,0.0
527,1696254831779,-0.059570312,0.94628906,0.26660156,0.09375,-0.28125,-0.0625,0.0,0.0,0.0
528,1696254831819,-0.056640625,0.94921875,0.27539062,0.15625,0.21875,0.0,0.0,0.0,0.0
529,1696254831859,-0.052734375,0.9482422,0.2763672,-0.21875,0.03125,0.0625,0.0,0.0,0.0
530,1696254831899,-0.064453125,0.9511719,0.27441406,-0.09375,-0.09375,0.15625,0.0,0.0,0.0
531,1696254831939,-0.053710938,0.94628906,0.28222656,-0.09375,-0.21875,0.0,0.0,0.0,0.0
532,1696254831979,-0.053710938,0.9472656,0.2763672,-0.15625,-0.21875,0.0,0.0,0.0,0.0
533,1696254832019,-0.056640625,0.9550781,0.2841797,0.15625,0.21875,-0.125,-19.8125,67.8125,-207.375
534,1696254832059,-0.06542969,0.9511719,0.2734375,0.34375,0.03125,-0.125,0.0,0.0,0.0
535,1696254832099,-0.060546875,0.94921875,0.2861328,0.15625,-0.03125,-0.0625,0.0,0.0,0.0
536,1696254832139,-0.05859375,0.95214844,0.28125,-0.28125,-0.03125,0.15625,0.0,0.0,0.0
537,1696254832179,-0.06347656,0.9511719,0.29003906,-0.15625,0.03125,0.0625,0.0,0.0,0.0
538,1696254832219,-0.053710938,0.9511719,0.28515625,-0.09375,-0.09375,0.0,0.0,0.0,0.0
539,1696254832259,-0.061523438,0.9550781,0.28027344,0.09375,0.03125,0.0,0.0,0.0,0.0
540,1696254832299,-0.0546875,0.9580078,0.28222656,-0.15625,0.03125,-0.0625,0.0,0.0,0.0
541,1696254832339,-0.0546875,0.9472656,0.2763672,0.03125,0.03125,-0.0625,0.0,0.0,0.0
542,1696254832379,-0.06542969,0.94921875,0.26660156,0.09375,-0.09375,0.0,0.0,0.0,0.0
543,1696254832419,-0.055664062,0.9511719,0.29003906,0.03125,-0.03125,-0.125,0.0,0.0,0.0
544,1696254832459,-0.051757812,0.9550781,0.28125,-0.28125,-0.21875,0.15625,0.0,0.0,0.0
545,1696254832499,-0.060546875,0.9580078,0.26660156,0.15625,-0.09375,-0.0625,0.0,0.0,0.0
546,1696254832539,-0.060546875,0.9511719,0.26953125,-0.5625,0.09375,-0.3125,-20.125,68.3125,-206.625
547,1696254832579,-0.060546875,0.94628906,0.27246094,-0.34375,-0.40625,0.0,0.0,0.0,0.0
548,1696254832619,-0.061523438,0.95214844,0.28320312,0.53125,-0.09375,-0.0625,0.0,0.0,0.0
549,1696254832659,-0.060546875,0.95214844,0.27734375,0.03125,-0.21875,-0.0625,0.0,0.0,0.0
550,1696254832699,-0.05859375,0.94921875,0.2705078,-0.40625,-0.21875,-0.0625,0.0,0.0,0.0
551,1696254832739,-0.059570312,0.95410156,0.27539062,0.03125,-0.03125,-0.0625,0.0,0.0,0.0
552,1696254832779,-0.064453125,0.9433594,0.26757812,-0.15625,-0.09375,-0.0625,0.0,0.0,0.0
553,1696254832819,-0.057617188,0.95996094,0.28027344,-0.03125,-0.09375,-0.125,0.0,0.0,0.0
554,1696254832859,-0.057617188,0.9472656,0.27734375,0.03125,0.03125,0.0,0.0,0.0,0.0
555,1696254832899,-0.0546875,0.96191406,0.27441406,0.46875,-0.15625,-0.1875,0.0,0.0,0.0
556,1696254832939,-0.060546875,0.9482422,0.28515625,-0.21875,-0.15625,0.0625,0.0,0.0,0.0
557,1696254832979,-0.06542969,0.94628906,0.28125,-0.03125,0.03125,0.0625,0.0,0.0,0.0
558,1696254833019,-0.064453125,0.9472656,0.27929688,-0.03125,-0.09375,-0.0625,-20.5625,67.8125,-208.6875
559,1696254833059,-0.05859375,0.94921875,0.2861328,-0.03125,-0.28125,0.0,0.0,0.0,0.0
560,1696254833099,-0.057617188,0.9472656,0.28125,-0.03125,-0.15625,0.125,0.0,0.0,0.0
561,1696254833139,-0.0546875,0.9472656,0.27441406,-0.03125,-0.15625,0.0625,0.0,0.0,0.0
562,1696254833179,-0.051757812,0.9472656,0.29003906,-0.09375,-0.15625,-0.125,0.0,0.0,0.0
563,1696254833219,-0.059570312,0.953125,0.27441406,0.03125,0.09375,0.0625,0.0,0.0,0.0
564,1696254833259,-0.064453125,0.9550781,0.28027344,-0.09375,-0.03125,-0.0625,0.0,0.0,0.0
565,1696254833299,-0.06640625,0.9472656,0.27539062,-0.09375,-0.09375,-0.0625,0.0,0.0,0.0
566,1696254833339,-0.05859375,0.94921875,0.28027344,0.03125,-0.03125,-0.0625,0.0,0.0,0.0
567,1696254833379,-0.060546875,0.95410156,0.2890625,0.03125,0.09375,-0.125,0.0,0.0,0.0
568,1696254833419,-0.057617188,0.9550781,0.27539062,-0.15625,-0.03125,-0.0625,0.0,0.0,0.0
569,1696254833459,-0.060546875,0.9501953,0.2763672,0.03125,-0.21875,0.0625,0.0,0.0,0.0
570,1696254833499,-0.059570312,0.94140625,0.27148438,0.15625,-0.21875,-0.0625,0.0,0.0,0.0
571,1696254833539,-0.05859375,0.9511719,0.27148438,0.15625,0.03125,-0.0625,-21.125,67.0625,-206.625
572,1696254833579,-0.064453125,0.9453125,0.29003906,-0.15625,-0.15625,0.0,0.0,0.0,0.0
573,1696254833619,-0.052734375,0.94433594,0.2919922,-0.03125,-0.09375,-0.0625,0.0,0.0,0.0
574,1696254833659,-0.055664062,0.9482422,0.27539062,-0.03125,-0.15625,-0.125,0.0,0.0,0.0
575,1696254833699,-0.059570312,0.95214844,0.265625,0.03125,0.03125,-0.1875,0.0,0.0,0.0
576,1696254833739,-0.059570312,0.9560547,0.26953125,-0.09375,-0.21875,-0.125,0.0,0.0,0.0
577,1696254833779,-0.055664062,0.94628906,0.27148438,0.21875,-0.15625,0.125,0.0,0.0,0.0
578,1696254833819,-0.056640625,0.9404297,0.27929688,0.09375,0.09375,0.0,0.0,0.0,0.0
579,1696254833859,-0.06738281,0.953125,0.2734375,-0.09375,0.09375,0.125,0.0,0.0,0.0
580,1696254833899,-0.06738281,0.9375,0.2763672,0.03125,0.03125,-0.0625,0.0,0.0,0.0
581,1696254833939,-0.055664062,0.9472656,0.27246094,0.03125,-0.03125,0.0625,0.0,0.0,0.0
582,1696254833979,-0.052734375,0.9433594,0.2763672,-0.03125,-0.03125,0.0,0.0,0.0,0.0
583,1696254834019,-0.0546875,0.94921875,0.28027344,0.03125,0.03125,0.0625,-21.625,66.8125,-207.9375
584,1696254834059,-0.052734375,0.9560547,0.2841797,0.03125,0.09375,-0.0625,0.0,0.0,0.0
585,1696254834099,-0.064453125,0.9550781,0.27441406,0.15625,0.09375,-0.1875,0.0,0.0,0.0
586,1696254834139,-0.056640625,0.9511719,0.27539062,-0.03125,-0.09375,0.0625,0.0,0.0,0.0
587,1696254834179,-0.0546875,0.95996094,0.2861328,-0.03125,-0.09375,0.0625,0.0,0.0,0.0
588,1696254834219,-0.052734375,0.953125,0.26953125,0.0,0.25,0.0625,0.0,0.0,0.0
589,1696254834259,-0.056640625,0.94433594,0.28027344,-0.15625,0.125,-0.125,0.0,0.0,0.0
590,1696254834299,-0.052734375,0.95214844,0.2705078,0.1875,0.125,-0.125,0.0,0.0,0.0
591,1696254834339,-0.057617188,0.94433594,0.2783203,0.0,0.0625,0.0,0.0,0.0,0.0
592,1696254834379,-0.06542969,0.9453125,0.2705078,-0.03125,0.125,0.0,0.0,0.0,0.0
593,1696254834419,-0.06542969,0.95214844,0.26660156,-0.09375,0.0625,0.1875,0.0,0.0,0.0
594,1696254834459,-0.06933594,0.9453125,0.27148438,-0.09375,-0.0625,-0.0625,0.0,0.0,0.0
595,1696254834499,-0.059570312,0.953125,0.27929688,-0.03125,0.0,0.0,0.0,0.0,0.0
596,1696254834539,-0.060546875,0.953125,0.2734375,-0.09375,-0.0625,-0.1875,-20.125,67.5625,-208.6875
597,1696254834579,-0.0546875,0.95703125,0.2734375,0.0,-0.125,0.0,0.0,0.0,0.0
598,1696254834619,-0.061523438,0.95214844,0.2763672,-0.03125,-0.125,0.0,0.0,0.0,0.0
599,1696254834659,-0.0546875,0.9511719,0.27734375,-0.09375,0.0625,0.125,0.0,0.0,0.0
600,1696254834699,-0.061523438,0.9472656,0.28515625,-0.15625,0.3125,0.0625,0.0,0.0,0.0
601,1696254834739,-0.060546875,0.95703125,0.26953125,-0.15625,0.0,0.0,0.0,0.0,0.0
602,1696254834779,-0.068359375,0.93359375,0.28710938,-0.03125,-0.0625,0.125,0.0,0.0,0.0
603,1696254834819,-0.05859375,0.9453125,0.28320312,-0.09375,0.0,-0.0625,0.0,0.0,0.0
604,1696254834859,-0.06347656,0.9433594,0.2841797,0.0625,0.125,-0.0625,0.0,0.0,0.0
605,1696254834899,-0.0625,0.9580078,0.2685547,0.0625,0.0,0.0,0.0,0.0,0.0
606,1696254834939,-0.051757812,0.953125,0.2861328,0.0,0.1875,0.0625,0.0,0.0,0.0
607,1696254834979,-0.06347656,0.953125,0.26660156,-0.21875,-0.0625,0.0625,0.0,0.0,0.0
608,1696254835019,-0.051757812,0.9511719,0.27441406,0.0625,0.0625,-0.0625,-19.625,68.4375,-208.125
609,1696254835059,-0.052734375,0.9560547,0.2734375,0.0625,0.125,0.0,0.0,0.0,0.0
610,1696254835099,-0.0546875,0.9511719,0.28515625,-0.09375,-0.0625,0.0625,0.0,0.0,0.0
611,1696254835139,-0.060546875,0.94628906,0.27734375,-0.15625,0.3125,-0.125,0.0,0.0,0.0
612,1696254835179,-0.0546875,0.94433594,0.27734375,0.0,0.1875,-0.0625,0.0,0.0,0.0
613,1696254835219,-0.06738281,0.9423828,0.2890625,0.125,-0.125,0.0,0.0,0.0,0.0
614,1696254835259,-0.059570312,0.9511719,0.28222656,0.1875,0.0625,0.0,0.0,0.0,0.0
615,1696254835299,-0.056640625,0.9501953,0.2861328,-0.03125,0.1875,0.0,0.0,0.0,0.0
616,1696254835339,-0.059570312,0.94628906,0.28515625,-0.34375,-0.0625,0.125,0.0,0.0,0.0
617,1696254835379,-0.05859375,0.93847656,0.28027344,-0.15625,-0.125,0.0,0.0,0.0,0.0
618,1696254835419,-0.059570312,0.9472656,0.27929688,0.0,0.0,-0.0625,0.0,0.0,0.0
619,1696254835459,-0.056640625,0.9472656,0.26464844,0.0,0.125,-0.0625,0.0,0.0,0.0
620,1696254835499,-0.05859375,0.9580078,0.27441406,0.125,-0.0625,-0.0625,0.0,0.0,0.0
621,1696254835539,-0.047851562,0.9433594,0.26660156,0.125,0.0,0.0,-21.0,68.0,-207.1875
622,1696254835579,-0.060546875,0.9423828,0.27539062,-0.15625,0.0,0.0625,0.0,0.0,0.0
623,1696254835619,-0.05859375,0.95214844,0.28515625,-0.03125,0.125,0.0625,0.0,0.0,0.0
624,1696254835659,-0.057617188,0.94140625,0.2841797,-0.03125,-0.0625,0.0625,0.0,0.0,0.0
625,1696254835699,-0.052734375,0.9394531,0.28515625,0.125,0.0625,0.0625,0.0,0.0,0.0
626,1696254835739,-0.057617188,0.9472656,0.27929688,0.1875,0.25,-0.125,0.0,0.0,0.0
627,1696254835779,-0.051757812,0.94921875,0.28125,0.0,0.125,0.0,0.0,0.0,0.0
628,1696254835819,-0.053710938,0.9472656,0.28125,0.0,0.0,0.0,0.0,0.0,0.0
629,1696254835859,-0.05859375,0.9501953,0.28027344,0.0,-0.0625,-0.0625,0.0,0.0,0.0
630,1696254835899,-0.053710938,0.94921875,0.2841797,-0.03125,-0.1875,0.3125,0.0,0.0,0.0
631,1696254835939,-0.06933594,0.9560547,0.28710938,-0.15625,-0.0625,0.0625,0.0,0.0,0.0
632,1696254835979,-0.053710938,0.953125,0.27539062,0.0,0.375,0.0625,0.0,0.0,0.0
633,1696254836019,-0.052734375,0.95410156,0.27539062,-0.03125,0.0,-0.0625,-20.375,66.625,-205.6875
634,1696254836059,-0.056640625,0.94433594,0.2861328,0.3125,-0.125,-0.0625,0.0,0.0,0.0
635,1696254836099,-0.05078125,0.9501953,0.28320312,0.1875,-0.125,-0.0625,0.0,0.0,0.0
636,1696254836139,-0.060546875,0.9550781,0.28320312,-0.21875,0.0,0.0625,0.0,0.0,0.0
637,1696254836179,-0.06347656,0.9560547,0.28320312,-0.15625,-0.0625,0.0,0.0,0.0,0.0
638,1696254836219,-0.05859375,0.9511719,0.2763672,0.0625,-0.1875,-0.125,0.0,0.0,0.0
639,1696254836259,-0.057617188,0.95410156,0.27441406,0.1875,0.0,-0.1875,0.0,0.0,0.0
640,1696254836299,-0.055664062,0.95410156,0.28710938,0.0,0.0625,-0.125,0.0,0.0,0.0
641,1696254836339,-0.05078125,0.9580078,0.27734375,0.25,-0.25,-0.0625,0.0,0.0,0.0
642,1696254836379,-0.055664062,0.9482422,0.2861328,0.0625,-0.1875,0.0,0.0,0.0,0.0
643,1696254836419,-0.047851562,0.9550781,0.265625,0.0,0.0,0.0625,0.0,0.0,0.0
644,1696254836459,-0.051757812,0.94921875,0.2861328,-0.03125,-0.0625,-0.0625,0.0,0.0,0.0
645,1696254836499,-0.057617188,0.95214844,0.2861328,-0.03125,-0.0625,0.0,0.0,0.0,0.0
646,1696254836539,-0.059570312,0.9482422,0.2890625,0.0,-0.0625,-0.0625,-19.625,67.375,-208.5625
647,1696254836579,-0.056640625,0.95410156,0.26953125,0.0,-0.0625,0.0,0.0,0.0,0.0
648,1696254836619,-0.05078125,0.9482422,0.27246094,0.125,0.125,-0.1875,0.0,0.0,0.0
649,1696254836659,-0.0625,0.9501953,0.2861328,0.3125,0.0625,-0.0625,0.0,0.0,0.0
650,1696254836699,-0.057617188,0.95214844,0.28515625,0.0625,0.125,-0.0625,0.0,0.0,0.0
651,1696254836739,-0.061523438,0.95410156,0.2685547,-0.15625,-0.125,-0.0625,0.0,0.0,0.0
652,1696254836779,-0.0546875,0.9511719,0.27734375,0.0625,0.125,-0.0625,0.0,0.0,0.0
653,1696254836819,-0.055664062,0.94140625,0.29003906,-0.03125,0.125,-0.1875,0.0,0.0,0.0
654,1696254836859,-0.060546875,0.9550781,0.28222656,-0.03125,-0.125,-0.125,0.0,0.0,0.0
655,1696254836899,-0.057617188,0.9482422,0.28320312,0.125,-0.125,-0.125,0.0,0.0,0.0
656,1696254836939,-0.05859375,0.94921875,0.27148438,0.125,-0.125,0.0,0.0,0.0,0.0
657,1696254836979,-0.056640625,0.9511719,0.27929688,-0.09375,-0.125,0.125,0.0,0.0,0.0
658,1696254837019,-0.060546875,0.95703125,0.28027344,-0.28125,-0.25,0.0625,-22.0625,68.4375,-207.1875
659,1696254837059,-0.06640625,0.94140625,0.28027344,0.0,-0.0625,-0.1875,0.0,0.0,0.0
660,1696254837099,-0.064453125,0.9501953,0.2919922,0.0,0.125,-0.0625,0.0,0.0,0.0
661,1696254837139,-0.05078125,0.953125,0.26660156,-0.03125,-0.0625,-0.0625,0.0,0.0,0.0
662,1696254837179,-0.060546875,0.94628906,0.27148438,0.125,-0.125,-0.0625,0.0,0.0,0.0
663,1696254837219,-0.057617188,0.95214844,0.28710938,0.0625,0.0625,0.0625,0.0,0.0,0.0
664,1696254837259,-0.0625,0.9482422,0.2763672,0.0,0.125,-0.0625,0.0,0.0,0.0
665,1696254837299,-0.068359375,0.953125,0.2841797,-0.09375,0.0625,-0.0625,0.0,0.0,0.0
666,1696254837339,-0.060546875,0.94921875,0.28222656,-0.21875,0.0,0.0,0.0,0.0,0.0
667,1696254837379,-0.055664062,0.9404297,0.26464844,0.0,0.0625,0.125,0.0,0.0,0.0
668,1696254837419,-0.0546875,0.9472656,0.27246094,-0.09375,0.1875,0.0,0.0,0.0,0.0
669,1696254837459,-0.057617188,0.95703125,0.28222656,0.3125,0.1875,-0.0625,0.0,0.0,0.0
670,1696254837499,-0.06738281,0.9511719,0.28320312,0.0,0.25,-0.125,0.0,0.0,0.0
671,1696254837539,-0.05859375,0.9482422,0.27734375,-0.21875,-0.0625,0.1875,-20.5625,67.0625,-207.375
672,1696254837579,-0.05859375,0.94921875,0.28515625,-0.03125,0.125,0.125,0.0,0.0,0.0
673,1696254837619,-0.052734375,0.953125,0.27734375,-0.03125,0.125,0.0625,0.0,0.0,0.0
674,1696254837659,-0.056640625,0.95214844,0.27148438,0.1875,0.125,0.0,0.0,0.0,0.0
675,1696254837699,-0.055664062,0.953125,0.26367188,0.125,0.0625,-0.125,0.0,0.0,0.0
676,1696254837739,-0.0625,0.9609375,0.28027344,0.0625,0.125,-0.0625,0.0,0.0,0.0
677,1696254837779,-0.055664062,0.9501953,0.28125,-0.15625,-0.0625,0.0,0.0,0.0,0.0
678,1696254837819,-0.064453125,0.95703125,0.2841797,-0.40625,-0.0625,0.0625,0.0,0.0,0.0
679,1696254837859,-0.051757812,0.9482422,0.27929688,0.0625,0.125,-0.25,0.0,0.0,0.0
680,1696254837899,-0.051757812,0.9511719,0.2763672,-0.15625,0.1875,-0.125,0.0,0.0,0.0
681,1696254837939,-0.052734375,0.9589844,0.26953125,0.0,0.0625,-0.0625,0.0,0.0,0.0
682,1696254837979,-0.05859375,0.9501953,0.2841797,-0.03125,-0.125,0.0,0.0,0.0,0.0
683,1696254838019,-0.051757812,0.94628906,0.27929688,0.0,0.1875,0.0,-21.125,68.5625,-209.0
684,1696254838059,-0.053710938,0.9560547,0.27734375,0.0,0.25,0.0,0.0,0.0,0.0
685,1696254838099,-0.051757812,0.9453125,0.28125,0.0,0.0625,-0.0625,0.0,0.0,0.0
686,1696254838139,-0.06542969,0.9472656,0.2841797,0.03125,0.0,0.0625,0.0,0.0,0.0
687,1696254838179,-0.046875,0.9472656,0.29785156,0.03125,0.125,0.0625,0.0,0.0,0.0
688,1696254838219,-0.057617188,0.94921875,0.2841797,-0.15625,-0.0625,0.0625,0.0,0.0,0.0
689,1696254838259,-0.057617188,0.9482422,0.296875,0.0625,0.0,0.0,0.0,0.0,0.0
690,1696254838299,-0.056640625,0.9453125,0.2763672,0.03125,0.0625,-0.0625,0.0,0.0,0.0
691,1696254838339,-0.059570312,0.94628906,0.28125,0.0625,0.0,0.0625,0.0,0.0,0.0
692,1696254838379,-0.05859375,0.9423828,0.3017578,0.03125,0.125,0.0,0.0,0.0,0.0
693,1696254838419,-0.052734375,0.9511719,0.28710938,-0.03125,0.0625,0.0,0.0,0.0,0.0
694,1696254838459,-0.052734375,0.94921875,0.27929688,-0.03125,-0.1875,0.125,0.0,0.0,0.0
695,1696254838499,-0.059570312,0.9482422,0.2734375,0.1875,-0.1875,0.0625,0.0,0.0,0.0
696,1696254838539,-0.05859375,0.9501953,0.27441406,0.03125,0.125,-0.125,-21.75,69.0625,-208.125
697,1696254838579,-0.055664062,0.9423828,0.27539062,-0.21875,-0.0625,0.0625,0.0,0.0,0.0
698,1696254838619,-0.05859375,0.9501953,0.2861328,-0.15625,-0.1875,0.125,0.0,0.0,0.0
699,1696254838659,-0.06347656,0.94921875,0.26953125,-0.09375,-0.0625,0.0,0.0,0.0,0.0
700,1696254838699,-0.0546875,0.94921875,0.2841797,0.03125,0.0,-0.125,0.0,0.0,0.0
701,1696254838739,-0.056640625,0.9501953,0.2841797,-0.03125,0.0,-0.125,0.0,0.0,0.0
702,1696254838779,-0.052734375,0.953125,0.2705078,-0.03125,-0.125,0.0,0.0,0.0,0.0
703,1696254838819,-0.0546875,0.94433594,0.28515625,0.03125,-0.0625,0.0,0.0,0.0,0.0
704,1696254838859,-0.0546875,0.94628906,0.26953125,0.03125,0.0625,0.0625,0.0,0.0,0.0
705,1696254838899,-0.0625,0.95214844,0.2841797,-0.09375,-0.0625,-0.0625,0.0,0.0,0.0
706,1696254838939,-0.059570312,0.9453125,0.2685547,-0.03125,-0.1875,0.0,0.0,0.0,0.0
707,1696254838979,-0.060546875,0.94140625,0.2861328,-0.03125,-0.125,0.0,0.0,0.0,0.0
708,1696254839019,-0.053710938,0.94921875,0.26367188,-0.03125,0.0,0.0,-22.5,68.0,-208.5625
709,1696254839059,-0.060546875,0.9560547,0.2763672,0.03125,0.125,-0.0625,0.0,0.0,0.0
710,1696254839099,-0.056640625,0.9550781,0.26953125,-0.03125,-0.125,0.0,0.0,0.0,0.0
711,1696254839139,-0.05859375,0.94433594,0.2861328,-0.15625,-0.1875,0.0,0.0,0.0,0.0
712,1696254839179,-0.064453125,0.9589844,0.2919922,-0.03125,-0.25,0.0625,0.0,0.0,0.0
713,1696254839219,-0.05859375,0.9560547,0.27734375,0.0625,0.1875,0.0625,0.0,0.0,0.0
714,1696254839259,-0.056640625,0.9472656,0.28027344,-0.15625,0.1875,-0.0625,0.0,0.0,0.0
715,1696254839299,-0.05859375,0.9550781,0.28027344,0.03125,-0.0625,0.0625,0.0,0.0,0.0
716,1696254839339,-0.052734375,0.9472656,0.29101562,0.25,-0.25,-0.125,0.0,0.0,0.0
717,1696254839379,-0.06347656,0.95996094,0.2705078,0.1875,0.0,-0.125,0.0,0.0,0.0
718,1696254839419,-0.064453125,0.94628906,0.28515625,-0.28125,-0.0625,0.0,0.0,0.0,0.0
719,1696254839459,-0.060546875,0.9580078,0.28515625,-0.15625,-0.3125,-0.0625,0.0,0.0,0.0
720,1696254839499,-0.049804688,0.953125,0.28710938,0.03125,-0.1875,-0.1875,0.0,0.0,0.0
721,1696254839539,-0.05859375,0.9472656,0.27929688,0.03125,0.0625,-0.25,-21.125,67.8125,-207.9375
722,1696254839579,-0.051757812,0.9511719,0.2763672,0.03125,0.0,-0.125,0.0,0.0,0.0
723,1696254839619,-0.059570312,0.94921875,0.27929688,0.0625,-0.125,-0.0625,0.0,0.0,0.0
724,1696254839659,-0.051757812,0.95410156,0.28222656,0.0625,-0.125,0.0,0.0,0.0,0.0
725,1696254839699,-0.05859375,0.94628906,0.28125,0.0625,0.0,-0.0625,0.0,0.0,0.0
726,1696254839739,-0.06347656,0.95214844,0.28710938,-0.09375,-0.0625,0.0625,0.0,0.0,0.0
727,1696254839779,-0.059570312,0.9453125,0.28320312,-0.03125,-0.3125,0.125,0.0,0.0,0.0
728,1696254839819,-0.0546875,0.9472656,0.28222656,0.0625,-0.0625,-0.0625,0.0,0.0,0.0
729,1696254839859,-0.05078125,0.94628906,0.2841797,-0.03125,-0.1875,-0.0625,0.0,0.0,0.0
730,1696254839899,-0.0546875,0.9511719,0.28125,0.0625,-0.0625,-0.125,0.0,0.0,0.0
731,1696254839939,-0.05859375,0.94433594,0.27148438,0.0625,0.0,0.0,0.0,0.0,0.0
732,1696254839979,-0.057617188,0.94140625,0.2763672,0.03125,-0.125,-0.0625,0.0,0.0,0.0
733,1696254840019,-0.053710938,0.95214844,0.2705078,-0.03125,-0.1875,0.0,-20.375,68.75,-207.1875
734,1696254840059,-0.05859375,0.94921875,0.28027344,0.03125,0.1875,-0.0625,0.0,0.0,0.0
735,1696254840099,-0.05859375,0.9501953,0.2861328,-0.03125,0.125,-0.25,0.0,0.0,0.0
736,1696254840139,-0.056640625,0.93847656,0.2783203,0.0625,-0.25,0.0,0.0,0.0,0.0
737,1696254840179,-0.057617188,0.9511719,0.2734375,0.1875,-0.25,-0.0625,0.0,0.0,0.0
738,1696254840219,-0.06347656,0.94140625,0.29101562,0.1875,-0.0625,0.0,0.0,0.0,0.0
739,1696254840259,-0.055664062,0.95214844,0.2763672,-0.53125,-0.1875,-0.0625,0.0,0.0,0.0
740,1696254840299,-0.060546875,0.9501953,0.27441406,0.0625,-0.4375,0.0625,0.0,0.0,0.0
741,1696254840339,-0.055664062,0.9472656,0.2783203,-0.03125,-0.1875,0.0,0.0,0.0,0.0
742,1696254840379,-0.0546875,0.9501953,0.28027344,-0.34375,-0.0625,-0.0625,0.0,0.0,0.0
743,1696254840419,-0.057617188,0.94628906,0.2783203,0.0625,-0.0625,-0.0625,0.0,0.0,0.0
744,1696254840459,-0.049804688,0.94628906,0.27929688,0.0625,-0.25,0.0,0.0,0.0,0.0
745,1696254840499,-0.06640625,0.94921875,0.26757812,-0.03125,-0.0625,0.0625,0.0,0.0,0.0
746,1696254840539,-0.047851562,0.95214844,0.28027344,-0.15625,-0.0625,-0.125,-20.875,67.0625,-207.625
747,1696254840579,-0.05859375,0.94921875,0.28320312,0.0625,0.1875,-0.0625,0.0,0.0,0.0
748,1696254840619,-0.0625,0.9404297,0.2734375,-0.09375,0.0,-0.0625,0.0,0.0,0.0
749,1696254840659,-0.0546875,0.94628906,0.29296875,-0.21875,-0.0625,0.0625,0.0,0.0,0.0
750,1696254840699,-0.0625,0.9560547,0.2705078,0.03125,0.0,0.0625,0.0,0.0,0.0
751,1696254840739,-0.057617188,0.95996094,0.28027344,0.375,0.1875,-0.0625,0.0,0.0,0.0
752,1696254840779,-0.057617188,0.9560547,0.28808594,0.125,0.25,0.03125,0.0,0.0,0.0
753,1696254840819,-0.056640625,0.94140625,0.2626953,-0.1875,-0.1875,0.28125,0.0,0.0,0.0
754,1696254840859,-0.064453125,0.94628906,0.27539062,-0.125,0.0,0.03125,0.0,0.0,0.0
755,1696254840899,-0.052734375,0.9433594,0.28027344,0.0,0.34375,-0.15625,0.0,0.0,0.0
756,1696254840939,-0.057617188,0.953125,0.2783203,0.0,0.125,0.15625,0.0,0.0,0.0
757,1696254840979,-0.046875,0.953125,0.29003906,0.25,0.125,0.09375,0.0,0.0,0.0
758,1696254841019,-0.05859375,0.9472656,0.265625,0.1875,-0.125,-0.03125,-19.625,66.9375,-208.5625
759,1696254841059,-0.06738281,0.94921875,0.28027344,-0.125,-0.0625,-0.09375,0.0,0.0,0.0
