,timestamp,accel_x,accel_y,accel_z,gyro_x,gyro_y,gyro_z,ind
0,1696244154108,-0.73535156,-0.04156494,0.7770386,0.109375,-0.515625,0.421875,0
1,1696244154148,-0.734375,-0.05303955,0.774353,-0.21875,-0.53125,0.046875,1
2,1696244154188,-0.7416992,-0.04083252,0.76776123,0.15625,-0.828125,0.046875,2
3,1696244154228,-0.73413086,-0.0413208,0.7572632,0.203125,-0.578125,0.515625,3
4,1696244154268,-0.74194336,-0.047424316,0.77142334,0.390625,-0.421875,0.359375,4
5,1696244154308,-0.73461914,-0.043273926,0.7728882,0.078125,-0.375,0.265625,5
6,1696244154348,-0.7404785,-0.055236816,0.77020264,-0.078125,-0.484375,0.21875,6
7,1696244154388,-0.74365234,-0.039123535,0.76678467,0.109375,-0.65625,0.34375,7
8,1696244154428,-0.7355957,-0.055725098,0.7753296,0.3125,-0.296875,0.375,8
9,1696244154468,-0.7463379,-0.05230713,0.7694702,-0.328125,-0.296875,0.34375,9
10,1696244154508,-0.73217773,-0.050598145,0.76483154,-0.40625,0.265625,0.375,10
11,1696244154548,-0.7438965,-0.05718994,0.78704834,0.71875,-1.1875,0.4375,11
12,1696244154588,-0.7272949,-0.04058838,0.7509155,-1.171875,0.40625,0.21875,12
13,1696244154628,-0.74609375,-0.05596924,0.78656006,0.65625,-0.671875,0.546875,13
14,1696244154668,-0.7363281,-0.058166504,0.75701904,0.171875,-0.4375,0.234375,14
15,1696244154708,-0.7404785,-0.04034424,0.76727295,-0.28125,-0.3125,0.203125,15
16,1696244154748,-0.74731445,-0.04888916,0.78045654,0.140625,-0.484375,0.34375,16
17,1696244154788,-0.72875977,-0.051574707,0.7723999,0.140625,-0.046875,0.453125,17
18,1696244154828,-0.7458496,-0.054260254,0.7753296,0.328125,-0.5,0.578125,18
19,1696244154868,-0.72387695,-0.046936035,0.76190186,-0.25,-0.1875,0.109375,19
20,1696244154908,-0.7319336,-0.04449463,0.77020264,0.046875,-0.40625,0.15625,20
21,1696244154948,-0.74121094,-0.05328369,0.7711792,0.09375,-0.265625,0.453125,21
22,1696244154988,-0.73413086,-0.047668457,0.7819214,0.28125,-0.984375,0.265625,22
23,1696244155028,-0.73413086,-0.04449463,0.7555542,-0.34375,-0.453125,-0.03125,23
24,1696244155068,-0.73999023,-0.054016113,0.7692261,0.03125,-0.75,0.109375,24
25,1696244155108,-0.7270508,-0.047668457,0.7670288,0.15625,-0.71875,0.296875,25
26,1696244155148,-0.74243164,-0.04547119,0.76605225,-0.0625,-0.328125,0.296875,26
27,1696244155188,-0.73339844,-0.05206299,0.7555542,-0.375,0.140625,0.28125,27
28,1696244155228,-0.73168945,-0.046691895,0.7711792,-0.265625,0.015625,0.375,28
29,1696244155268,-0.73168945,-0.04473877,0.77801514,0.140625,-0.234375,0.375,29
30,1696244155308,-0.73706055,-0.051330566,0.77874756,0.125,-0.265625,0.140625,30
31,1696244155348,-0.7434082,-0.055725098,0.7694702,0.0625,-0.53125,0.34375,31
32,1696244155388,-0.73999023,-0.04937744,0.7887573,-0.125,-0.578125,0.296875,32
33,1696244155428,-0.71850586,-0.035949707,0.7445679,-0.96875,0.109375,-0.03125,33
34,1696244155468,-0.74194336,-0.038146973,0.77142334,-0.015625,-0.546875,0.203125,34
35,1696244155508,-0.7338867,-0.058410645,0.7836304,0.78125,-0.125,0.546875,35
36,1696244155548,-0.7307129,-0.050109863,0.777771,0.140625,-0.078125,0.453125,36
37,1696244155588,-0.73413086,-0.039611816,0.7782593,0.21875,-0.515625,0.140625,37
38,1696244155628,-0.7241211,-0.04425049,0.77801514,0.03125,-0.296875,0.265625,38
39,1696244155668,-0.7404785,-0.05718994,0.774353,0.046875,-0.78125,0.4375,39
40,1696244155708,-0.7277832,-0.049621582,0.7680054,-0.203125,0.21875,0.296875,40
41,1696244155748,-0.73046875,-0.047424316,0.7723999,-0.03125,-0.21875,0.234375,41
42,1696244155788,-0.7368164,-0.055480957,0.78289795,0.25,-0.4375,0.15625,42
43,1696244155828,-0.73291016,-0.04888916,0.78338623,0.109375,-0.609375,0.546875,43
44,1696244155868,-0.732666,-0.042297363,0.77508545,-0.109375,-0.5625,0.40625,44
45,1696244155908,-0.73413086,-0.059387207,0.78240967,0.640625,-1.484375,0.53125,45
46,1696244155948,-0.73339844,-0.046936035,0.7706909,-0.046875,-1.0,0.1875,46
47,1696244155988,-0.7351074,-0.054992676,0.7741089,-0.140625,-0.765625,0.0,47
48,1696244156028,-0.7338867,-0.04473877,0.77215576,-0.40625,-0.0625,0.125,48
49,1696244156068,-0.73706055,-0.04522705,0.7650757,0.0,-0.359375,0.34375,49
50,1696244156108,-0.72802734,-0.055236816,0.76849365,-0.1875,-0.4375,0.40625,50
51,1696244156148,-0.73095703,-0.045715332,0.7728882,0.1875,-0.46875,0.3125,51
52,1696244156188,-0.74609375,-0.05303955,0.7797241,0.515625,-0.90625,0.40625,52
53,1696244156228,-0.7324219,-0.05279541,0.76678467,-0.125,0.234375,0.125,53
54,1696244156268,-0.7324219,-0.03643799,0.77679443,0.078125,-0.78125,-0.25,54
55,1696244156308,-0.7236328,-0.037902832,0.7628784,-0.75,0.296875,-0.078125,55
56,1696244156348,-0.74438477,-0.058410645,0.7765503,0.25,-0.75,0.484375,56
57,1696244156388,-0.7302246,-0.06378174,0.78240967,0.28125,-0.3125,0.625,57
58,1696244156428,-0.7307129,-0.047180176,0.7670288,0.046875,-0.375,0.3125,58
59,1696244156468,-0.73828125,-0.040100098,0.77337646,-0.28125,-0.78125,0.109375,59
60,1696244156508,-0.73217773,-0.051086426,0.7770386,-0.203125,-0.046875,0.421875,60
61,1696244156548,-0.7348633,-0.057434082,0.7765503,0.0,-0.171875,0.578125,61
62,1696244156588,-0.72558594,-0.05255127,0.76556396,0.09375,-0.609375,0.203125,62
63,1696244156628,-0.7272949,-0.04473877,0.76605225,-0.484375,-0.59375,-0.203125,63
64,1696244156668,-0.7319336,-0.05670166,0.76776123,-0.140625,-0.78125,-0.171875,64
65,1696244156708,-0.73535156,-0.043518066,0.78167725,-0.015625,-0.328125,0.203125,65
66,1696244156748,-0.7355957,-0.050598145,0.7711792,-0.03125,-0.265625,0.390625,66
67,1696244156788,-0.73339844,-0.04888916,0.7731323,0.3125,-0.25,0.484375,67
68,1696244156828,-0.73046875,-0.051330566,0.77459717,-0.015625,-0.578125,0.15625,68
69,1696244156868,-0.734375,-0.044006348,0.7706909,0.28125,-0.46875,0.109375,69
70,1696244156908,-0.7224121,-0.049621582,0.77752686,0.046875,0.03125,-0.046875,70
71,1696244156948,-0.7314453,-0.0569458,0.7758179,0.125,-0.078125,0.4375,71
72,1696244156988,-0.7380371,-0.049865723,0.7782593,0.25,-0.40625,0.59375,72
73,1696244157028,-0.7409668,-0.05230713,0.77874756,0.328125,-0.703125,0.125,73
74,1696244157068,-0.7253418,-0.05230713,0.774353,-0.359375,0.625,0.1875,74
75,1696244157108,-0.7241211,-0.04449463,0.7711792,-0.109375,-0.328125,0.046875,75
76,1696244157148,-0.72387695,-0.038635254,0.7682495,-0.65625,0.421875,0.09375,76
77,1696244157188,-0.7375488,-0.061584473,0.7982788,0.671875,-0.234375,0.390625,77
78,1696244157228,-0.72998047,-0.069885254,0.79437256,0.5,-0.5,0.4375,78
79,1696244157268,-0.72265625,-0.0335083,0.77630615,-0.234375,-0.484375,0.21875,79
80,1696244157308,-0.7282715,-0.04937744,0.7785034,0.140625,-0.65625,0.171875,80
81,1696244157348,-0.73339844,-0.051330566,0.7675171,-0.203125,-0.40625,0.421875,81
82,1696244157388,-0.7272949,-0.051818848,0.7567749,-0.53125,-0.3125,0.328125,82
83,1696244157428,-0.7272949,-0.046936035,0.76434326,-0.515625,-0.375,0.015625,83
84,1696244157468,-0.72802734,-0.053771973,0.76971436,0.015625,-0.21875,0.515625,84
85,1696244157508,-0.7297363,-0.058410645,0.7770386,-0.046875,-0.359375,0.3125,85
86,1696244157548,-0.7211914,-0.04156494,0.7706909,-0.34375,-0.34375,-0.109375,86
87,1696244157588,-0.7331543,-0.04083252,0.7797241,-0.171875,-0.3125,0.09375,87
88,1696244157628,-0.73217773,-0.050598145,0.7802124,0.1875,-0.359375,0.671875,88
89,1696244157668,-0.7246094,-0.047912598,0.7741089,0.09375,-0.265625,0.5,89
90,1696244157708,-0.73095703,-0.039855957,0.76898193,0.234375,-0.078125,0.640625,90
91,1696244157748,-0.7312012,-0.050109863,0.7736206,0.21875,0.515625,0.734375,91
92,1696244157788,-0.71899414,-0.049865723,0.7731323,-0.0625,0.515625,0.796875,92
93,1696244157828,-0.71655273,-0.05230713,0.7831421,0.1875,-0.40625,-0.03125,93
94,1696244157868,-0.7246094,-0.051574707,0.7831421,0.265625,-0.234375,-0.21875,94
95,1696244157908,-0.73339844,-0.05328369,0.7850952,0.34375,-0.046875,0.078125,95
96,1696244157948,-0.7233887,-0.05670166,0.7765503,-0.125,-0.359375,0.09375,96
97,1696244157988,-0.7319336,-0.046447754,0.7938843,-0.171875,-1.015625,0.109375,97
98,1696244158028,-0.72021484,-0.04058838,0.7665405,-1.140625,0.125,-0.265625,98
99,1696244158068,-0.7236328,-0.050109863,0.77996826,0.515625,-0.421875,-0.03125,99
100,1696244158108,-0.7233887,-0.073791504,0.77874756,0.078125,-0.140625,0.40625,100
101,1696244158148,-0.72265625,-0.04864502,0.78948975,-0.203125,-0.390625,0.234375,101
102,1696244158188,-0.72631836,-0.054016113,0.79803467,-0.953125,0.109375,0.0,102
103,1696244158228,-0.73095703,-0.06427002,0.7970581,-2.328125,0.46875,0.03125,103
104,1696244158268,-0.7192383,-0.051818848,0.82025146,-2.9375,-0.328125,-1.0625,104
105,1696244158308,-0.71899414,-0.04107666,0.78460693,-3.625,-0.5625,-1.0,105
106,1696244158348,-0.7236328,-0.039855957,0.78167725,-2.25,-1.890625,-0.671875,106
107,1696244158388,-0.72216797,-0.04473877,0.7711792,-2.28125,-2.375,-0.90625,107
108,1696244158428,-0.72680664,-0.028137207,0.7658081,-1.703125,-2.453125,-1.09375,108
109,1696244158468,-0.72314453,-0.010070801,0.7562866,0.34375,-2.515625,-0.6875,109
110,1696244158508,-0.720459,-0.005432129,0.7628784,0.875,-1.515625,-0.3125,110
111,1696244158548,-0.73339844,-0.020812988,0.76556396,1.59375,-1.328125,0.78125,111
112,1696244158588,-0.7397461,-0.039611816,0.77679443,3.078125,-1.546875,1.53125,112
113,1696244158628,-0.73876953,-0.0569458,0.7753296,2.546875,-1.546875,1.375,113
114,1696244158668,-0.73413086,-0.034484863,0.75579834,1.6875,-1.234375,0.53125,114
115,1696244158708,-0.720459,-0.023254395,0.78704834,1.21875,-0.921875,0.078125,115
116,1696244158748,-0.7302246,-0.040100098,0.7819214,1.15625,-0.6875,0.953125,116
117,1696244158788,-0.7272949,-0.04034424,0.77948,-0.171875,0.84375,0.5,117
118,1696244158828,-0.7272949,-0.046936035,0.75994873,-0.421875,-0.9375,0.21875,118
119,1696244158868,-0.7277832,-0.03643799,0.7592163,-0.140625,-0.234375,-0.15625,119
120,1696244158908,-0.7463379,-0.053771973,0.77923584,1.28125,-0.84375,0.421875,120
121,1696244158948,-0.73779297,-0.0491333,0.7640991,0.515625,-0.375,0.609375,121
122,1696244158988,-0.7324219,-0.03277588,0.75775146,-0.03125,-0.171875,0.046875,122
123,1696244159028,-0.7385254,-0.043518066,0.78118896,0.21875,-0.109375,0.546875,123
124,1696244159068,-0.7260742,-0.04083252,0.76483154,-0.078125,-0.171875,0.3125,124
125,1696244159108,-0.7324219,-0.04449463,0.75897217,-0.328125,-0.359375,0.53125,125
126,1696244159148,-0.72680664,-0.041809082,0.76971436,-0.359375,-0.171875,0.15625,126
127,1696244159188,-0.73339844,-0.04937744,0.78167725,0.359375,-0.625,0.359375,127
128,1696244159228,-0.72924805,-0.04156494,0.77020264,0.09375,-0.53125,0.484375,128
129,1696244159268,-0.7390137,-0.039855957,0.7699585,0.28125,-0.71875,0.328125,129
130,1696244159308,-0.73657227,-0.04425049,0.7640991,-0.078125,-0.203125,0.234375,130
131,1696244159348,-0.73535156,-0.041809082,0.75775146,-0.21875,-0.25,0.109375,131
132,1696244159388,-0.732666,-0.049865723,0.7753296,0.03125,-0.375,0.34375,132
133,1696244159428,-0.7297363,-0.05303955,0.78045654,0.046875,-0.359375,0.265625,133
134,1696244159468,-0.73046875,-0.046936035,0.77337646,-0.03125,-0.4375,0.109375,134
135,1696244159508,-0.73046875,-0.046936035,0.762146,0.046875,-0.578125,0.484375,135
136,1696244159548,-0.73583984,-0.046447754,0.7821655,0.65625,-0.671875,0.46875,136
137,1696244159588,-0.72387695,-0.039123535,0.76361084,-0.234375,0.0,0.03125,137
138,1696244159628,-0.72680664,-0.051330566,0.76678467,-0.34375,-0.21875,0.328125,138
139,1696244159668,-0.7355957,-0.0491333,0.7802124,0.0,-0.25,0.03125,139
140,1696244159708,-0.7348633,-0.057434082,0.7809448,0.546875,-0.3125,0.421875,140
141,1696244159748,-0.72998047,-0.05230713,0.7765503,0.328125,-0.5,0.5,141
142,1696244159788,-0.72875977,-0.04547119,0.76727295,0.21875,-0.5625,0.265625,142
143,1696244159828,-0.732666,-0.047180176,0.77459717,0.359375,-0.140625,0.5,143
144,1696244159868,-0.73046875,-0.054504395,0.7772827,0.28125,-0.578125,0.359375,144
145,1696244159908,-0.7331543,-0.058898926,0.7731323,-0.21875,-0.203125,0.140625,145
146,1696244159948,-0.7272949,-0.051330566,0.75897217,-0.421875,-0.21875,-0.125,146
147,1696244159988,-0.7314453,-0.054504395,0.77557373,0.078125,-0.421875,0.15625,147
148,1696244160028,-0.7307129,-0.054260254,0.7789917,0.234375,-0.53125,0.5,148
149,1696244160068,-0.734375,-0.046203613,0.7821655,0.203125,-0.296875,0.5,149
150,1696244160108,-0.7229004,-0.04937744,0.76434326,-0.1875,-0.546875,0.34375,150
151,1696244160148,-0.72558594,-0.05596924,0.7682495,-0.1875,-0.78125,0.09375,151
152,1696244160188,-0.734375,-0.05303955,0.76434326,-0.0625,-0.609375,0.125,152
153,1696244160228,-0.7265625,-0.05596924,0.7658081,-0.3125,-0.203125,0.296875,153
154,1696244160268,-0.73339844,-0.051086426,0.77337646,-0.015625,-0.328125,0.28125,154
155,1696244160308,-0.73046875,-0.0491333,0.7748413,0.03125,-0.328125,0.484375,155
156,1696244160348,-0.72875977,-0.050354004,0.77264404,0.109375,-0.484375,0.28125,156
157,1696244160388,-0.734375,-0.05206299,0.76898193,0.09375,-0.28125,0.15625,157
158,1696244160428,-0.7270508,-0.04840088,0.7704468,-0.171875,-0.34375,-0.078125,158
159,1696244160468,-0.7402344,-0.047668457,0.77386475,-0.109375,-0.578125,0.140625,159
160,1696244160508,-0.7402344,-0.061340332,0.7789917,0.375,-0.4375,0.46875,160
161,1696244160548,-0.72753906,-0.043762207,0.76678467,-0.21875,-0.28125,0.1875,161
162,1696244160588,-0.7290039,-0.050109863,0.760437,-0.484375,-0.21875,0.265625,162
163,1696244160628,-0.73339844,-0.0413208,0.77557373,-0.4375,-0.390625,-0.296875,163
164,1696244160668,-0.7373047,-0.06549072,0.77752686,0.515625,-0.125,0.765625,164
165,1696244160708,-0.72558594,-0.05206299,0.7650757,-0.140625,-0.3125,0.265625,165
166,1696244160748,-0.7319336,-0.03717041,0.77630615,-0.171875,-0.734375,0.25,166
167,1696244160788,-0.72314453,-0.051818848,0.77142334,0.078125,-0.140625,0.53125,167
168,1696244160828,-0.7294922,-0.054504395,0.7765503,0.15625,-0.46875,0.421875,168
169,1696244160868,-0.7270508,-0.05621338,0.7584839,-0.375,-0.078125,0.125,169
170,1696244160908,-0.73291016,-0.05621338,0.78338623,-1.203125,0.5,-0.15625,170
171,1696244160948,-0.72314453,-0.06793213,0.79119873,-2.515625,1.640625,-0.28125,171
172,1696244160988,-0.734375,-0.05230713,0.77752686,-2.90625,-1.296875,-0.96875,172
173,1696244161028,-0.7331543,-0.034240723,0.78582764,-3.140625,0.40625,-1.1875,173
174,1696244161068,-0.73339844,-0.031311035,0.7748413,-2.515625,-0.59375,-1.328125,174
175,1696244161108,-0.72509766,-0.031555176,0.76483154,-1.75,-2.078125,-1.375,175
176,1696244161148,-0.72265625,-0.019104004,0.7575073,-1.15625,-2.125,-1.125,176
177,1696244161188,-0.7282715,-0.026428223,0.76068115,-0.265625,-1.34375,-0.609375,177
178,1696244161228,-0.73291016,-0.016662598,0.7506714,0.734375,-0.859375,0.578125,178
179,1696244161268,-0.72753906,-0.04107666,0.78045654,2.640625,-1.53125,1.46875,179
180,1696244161308,-0.73876953,-0.040100098,0.76312256,2.984375,-1.640625,1.53125,180
181,1696244161348,-0.74731445,-0.04034424,0.76678467,1.921875,-1.53125,0.625,181
182,1696244161388,-0.73876953,-0.027404785,0.78289795,0.84375,-0.8125,0.0625,182
183,1696244161428,-0.7258301,-0.030334473,0.7848511,0.046875,-0.453125,0.03125,183
184,1696244161468,-0.7294922,-0.035461426,0.77142334,-0.015625,-0.96875,0.140625,184
185,1696244161508,-0.7380371,-0.050109863,0.7860718,0.265625,-1.109375,0.203125,185
186,1696244161548,-0.7182617,-0.043029785,0.75335693,-0.015625,0.15625,0.484375,186
187,1696244161588,-0.7375488,-0.051330566,0.7723999,0.8125,-1.015625,0.265625,187
188,1696244161628,-0.74658203,-0.05621338,0.77093506,0.703125,-0.453125,0.546875,188
189,1696244161668,-0.74194336,-0.030334473,0.7682495,0.15625,-0.453125,0.4375,189
190,1696244161708,-0.75146484,-0.029846191,0.7772827,-0.171875,-0.109375,0.328125,190
191,1696244161748,-0.7312012,-0.042053223,0.7716675,-0.25,-0.15625,0.25,191
192,1696244161788,-0.73046875,-0.0413208,0.7770386,0.109375,-0.84375,0.1875,192
193,1696244161828,-0.72265625,-0.038635254,0.7550659,-0.359375,-0.421875,0.0625,193
194,1696244161868,-0.73168945,-0.046691895,0.77752686,0.21875,-0.3125,0.140625,194
195,1696244161908,-0.73828125,-0.050598145,0.7868042,0.5,-0.40625,0.953125,195
196,1696244161948,-0.73535156,-0.03692627,0.7680054,0.21875,-0.734375,0.234375,196
197,1696244161988,-0.7495117,-0.04083252,0.7633667,0.0625,-0.671875,0.15625,197
198,1696244162028,-0.73339844,-0.045715332,0.7687378,-0.234375,-0.421875,0.0625,198
199,1696244162068,-0.73779297,-0.04888916,0.7704468,0.046875,-0.640625,0.234375,199
200,1696244162108,-0.7282715,-0.04547119,0.774353,0.234375,-0.328125,0.25,200
201,1696244162148,-0.736084,-0.046936035,0.77215576,0.09375,-0.125,0.5625,201
202,1696244162188,-0.734375,-0.04840088,0.774353,0.3125,-0.53125,0.453125,202
203,1696244162228,-0.734375,-0.034729004,0.7687378,0.34375,-0.4375,0.59375,203
204,1696244162268,-0.7385254,-0.045715332,0.76605225,0.09375,-0.484375,0.40625,204
205,1696244162308,-0.7368164,-0.042785645,0.7694702,0.0625,-0.84375,0.171875,205
206,1696244162348,-0.736084,-0.047424316,0.7670288,0.15625,-0.453125,0.3125,206
207,1696244162388,-0.73950195,-0.050109863,0.77948,0.234375,-0.625,0.4375,207
208,1696244162428,-0.72924805,-0.043762207,0.7579956,-0.125,0.140625,0.171875,208
209,1696244162468,-0.73095703,-0.04425049,0.7758179,0.234375,-0.890625,0.21875,209
210,1696244162508,-0.7167969,-0.03717041,0.76678467,-0.640625,0.4375,0.125,210
211,1696244162548,-0.7468262,-0.04498291,0.77923584,0.640625,-0.234375,0.75,211
212,1696244162588,-0.7314453,-0.058410645,0.77801514,0.46875,-0.484375,0.625,212
213,1696244162628,-0.73413086,-0.04034424,0.76898193,0.0,-0.34375,0.03125,213
214,1696244162668,-0.7282715,-0.04034424,0.76312256,0.09375,-0.4375,0.34375,214
215,1696244162708,-0.7272949,-0.043518066,0.76849365,-0.265625,-0.265625,0.421875,215
216,1696244162748,-0.74243164,-0.047424316,0.7855835,0.265625,-0.6875,0.5625,216
217,1696244162788,-0.73706055,-0.046203613,0.7616577,-0.1875,0.140625,0.4375,217
218,1696244162828,-0.732666,-0.058898926,0.77630615,0.203125,-0.34375,0.296875,218
219,1696244162868,-0.734375,-0.057678223,0.77752686,0.28125,-0.765625,0.4375,219
220,1696244162908,-0.73413086,-0.042297363,0.7850952,0.0625,-0.546875,0.15625,220
221,1696244162948,-0.73339844,-0.03765869,0.7692261,-0.046875,-0.453125,0.1875,221
222,1696244162988,-0.7338867,-0.04547119,0.7665405,-0.015625,-0.796875,0.109375,222
223,1696244163028,-0.73217773,-0.047424316,0.7711792,-0.21875,-0.734375,0.25,223
224,1696244163068,-0.7307129,-0.04473877,0.77508545,0.03125,-0.359375,0.578125,224
225,1696244163108,-0.7336426,-0.05645752,0.7728882,0.109375,0.09375,0.359375,225
226,1696244163148,-0.7265625,-0.049865723,0.7706909,-0.171875,-0.296875,0.28125,226
227,1696244163188,-0.732666,-0.042785645,0.77215576,0.0625,-0.3125,0.25,227
228,1696244163228,-0.7363281,-0.04547119,0.77264404,0.15625,-0.609375,0.171875,228
229,1696244163268,-0.72998047,-0.043273926,0.7758179,0.015625,-0.5625,0.3125,229
230,1696244163308,-0.73168945,-0.05206299,0.76678467,0.140625,-0.46875,0.453125,230
231,1696244163348,-0.72924805,-0.054260254,0.76971436,0.1875,-0.484375,0.453125,231
232,1696244163388,-0.73339844,-0.04888916,0.7819214,0.203125,-0.46875,0.15625,232
233,1696244163428,-0.7216797,-0.043029785,0.75286865,-0.34375,0.546875,0.15625,233
234,1696244163468,-0.7331543,-0.06109619,0.7758179,0.359375,-0.4375,0.734375,234
235,1696244163508,-0.7241211,-0.038635254,0.7704468,-0.171875,-0.28125,-0.125,235
236,1696244163548,-0.73779297,-0.05621338,0.78045654,0.3125,-0.578125,0.359375,236
237,1696244163588,-0.7265625,-0.06573486,0.7838745,0.203125,-0.375,0.328125,237
238,1696244163628,-0.73095703,-0.04425049,0.7609253,-0.078125,-0.5625,0.015625,238
239,1696244163668,-0.73706055,-0.049621582,0.77557373,0.140625,-0.3125,0.4375,239
240,1696244163708,-0.72924805,-0.04937744,0.77264404,0.125,-0.359375,0.484375,240
241,1696244163748,-0.73046875,-0.05621338,0.77630615,0.390625,-0.59375,0.5,241
242,1696244163788,-0.73095703,-0.04498291,0.7736206,-0.375,-0.203125,0.140625,242
243,1696244163828,-0.72558594,-0.04156494,0.77923584,-0.34375,-0.765625,0.109375,243
244,1696244163868,-0.7351074,-0.06329346,0.77386475,-0.03125,-0.796875,0.390625,244
245,1696244163908,-0.7297363,-0.04937744,0.7758179,0.265625,-0.90625,0.375,245
246,1696244163948,-0.73339844,-0.050598145,0.7704468,0.203125,-0.640625,0.390625,246
247,1696244163988,-0.7404785,-0.05303955,0.7653198,0.3125,-0.78125,0.140625,247
248,1696244164028,-0.73168945,-0.053527832,0.7579956,-0.109375,-1.203125,-0.1875,248
249,1696244164068,-0.736084,-0.051330566,0.76898193,0.234375,-0.921875,-0.53125,249
250,1696244164108,-0.7385254,-0.039611816,0.76556396,-0.015625,0.296875,0.03125,250
251,1696244164148,-0.7307129,-0.05230713,0.77923584,0.6875,-0.03125,0.328125,251
252,1696244164188,-0.7312012,-0.061340332,0.7772827,0.453125,-0.4375,0.46875,252
253,1696244164228,-0.7307129,-0.062316895,0.78118896,0.09375,-0.671875,0.03125,253
254,1696244164268,-0.7282715,-0.054016113,0.77215576,-0.125,-0.75,-0.03125,254
255,1696244164308,-0.7294922,-0.04425049,0.7758179,0.0,-0.78125,0.078125,255
256,1696244164348,-0.734375,-0.057434082,0.7658081,0.078125,-0.515625,0.203125,256
257,1696244164388,-0.7475586,-0.05328369,0.7802124,0.359375,-0.578125,0.28125,257
258,1696244164428,-0.72436523,-0.051086426,0.7609253,-0.59375,-0.03125,0.078125,258
259,1696244164468,-0.72143555,-0.049865723,0.7562866,-0.65625,-0.0625,0.0,259
260,1696244164508,-0.7314453,-0.05670166,0.7748413,-0.109375,0.0625,0.296875,260
261,1696244164548,-0.73657227,-0.05987549,0.7736206,0.28125,-0.34375,0.59375,261
262,1696244164588,-0.7375488,-0.057922363,0.7653198,0.25,-0.578125,0.296875,262
263,1696244164628,-0.7302246,-0.04547119,0.7706909,-0.171875,-0.71875,0.296875,263
264,1696244164668,-0.7373047,-0.055725098,0.7797241,0.21875,-0.171875,0.484375,264
265,1696244164708,-0.73706055,-0.05279541,0.7716675,0.1875,-0.84375,0.25,265
266,1696244164748,-0.7285156,-0.05303955,0.7614136,-0.625,-0.5,-0.15625,266
267,1696244164788,-0.72753906,-0.049621582,0.7694702,-0.53125,-0.234375,-0.25,267
268,1696244164828,-0.72875977,-0.050354004,0.7719116,-0.15625,-0.0625,0.296875,268
269,1696244164868,-0.7282715,-0.057678223,0.7772827,0.125,-0.4375,0.5625,269
270,1696244164908,-0.72631836,-0.044006348,0.7782593,0.125,-0.546875,0.375,270
271,1696244164948,-0.7385254,-0.054748535,0.77801514,-0.046875,-0.09375,0.40625,271
272,1696244164988,-0.72998047,-0.05255127,0.77142334,-0.125,-0.328125,0.1875,272
273,1696244165028,-0.73535156,-0.05328369,0.7694702,-0.515625,-0.15625,0.21875,273
274,1696244165068,-0.7338867,-0.04888916,0.7785034,-0.734375,-0.09375,-0.1875,274
275,1696244165108,-0.7302246,-0.050109863,0.77679443,-0.703125,0.234375,0.09375,275
276,1696244165148,-0.72509766,-0.05621338,0.7748413,-0.40625,0.0625,0.484375,276
277,1696244165188,-0.73046875,-0.053527832,0.774353,-0.296875,-0.28125,0.25,277
278,1696244165228,-0.7270508,-0.04864502,0.7789917,-0.046875,-0.390625,0.09375,278
279,1696244165268,-0.7319336,-0.04522705,0.77948,0.015625,-0.46875,0.125,279
280,1696244165308,-0.7260742,-0.046203613,0.7855835,-1.53125,0.78125,-0.171875,280
281,1696244165348,-0.7270508,-0.06842041,0.77630615,-1.203125,-0.421875,-0.203125,281
282,1696244165388,-0.73461914,-0.046936035,0.7772827,-1.671875,-1.34375,-0.5,282
283,1696244165428,-0.7324219,-0.035949707,0.7946167,-1.703125,-0.984375,-0.453125,283
284,1696244165468,-0.7314453,-0.041809082,0.78167725,-1.703125,0.53125,0.234375,284
285,1696244165508,-0.7272949,-0.043273926,0.7748413,-1.078125,-0.921875,0.015625,285
286,1696244165548,-0.7175293,-0.049621582,0.7633667,-0.984375,-1.65625,-0.5625,286
287,1696244165588,-0.7314453,-0.030822754,0.76727295,-0.484375,-1.765625,-0.46875,287
288,1696244165628,-0.73217773,-0.026428223,0.76434326,-0.0625,-0.859375,0.09375,288
289,1696244165668,-0.7270508,-0.028869629,0.763855,0.34375,-0.546875,0.421875,289
290,1696244165708,-0.7416992,-0.03765869,0.77337646,0.59375,-0.5,0.828125,290
291,1696244165748,-0.7375488,-0.0413208,0.7626343,0.625,-0.625,0.5625,291
292,1696244165788,-0.73706055,-0.035461426,0.774353,0.8125,-0.859375,0.1875,292
293,1696244165828,-0.7297363,-0.04083252,0.78240967,0.515625,-0.34375,0.265625,293
294,1696244165868,-0.7270508,-0.035461426,0.76678467,0.59375,-0.796875,0.28125,294
295,1696244165908,-0.7314453,-0.029846191,0.7770386,0.546875,-0.46875,0.40625,295
296,1696244165948,-0.73168945,-0.04425049,0.76605225,0.109375,-0.328125,0.484375,296
297,1696244165988,-0.72998047,-0.04937744,0.7765503,0.0625,-0.875,0.046875,297
298,1696244166028,-0.7392578,-0.04473877,0.7699585,0.28125,-0.84375,0.15625,298
299,1696244166068,-0.73876953,-0.03741455,0.7682495,0.140625,-0.203125,0.265625,299
300,1696244166108,-0.7338867,-0.046447754,0.78338623,0.390625,-0.328125,0.390625,300
301,1696244166148,-0.732666,-0.038146973,0.76483154,0.265625,-0.546875,0.296875,301
302,1696244166188,-0.7270508,-0.044006348,0.7628784,-0.015625,-0.4375,0.046875,302
303,1696244166228,-0.7348633,-0.037902832,0.77801514,0.109375,-0.390625,0.375,303
304,1696244166268,-0.734375,-0.044006348,0.7719116,0.359375,-0.6875,0.40625,304
305,1696244166308,-0.73291016,-0.050842285,0.76312256,0.390625,-0.671875,0.296875,305
306,1696244166348,-0.73999023,-0.04473877,0.7880249,0.484375,-0.84375,0.234375,306
307,1696244166388,-0.73339844,-0.041809082,0.75408936,-0.28125,0.046875,0.171875,307
308,1696244166428,-0.73999023,-0.047668457,0.7848511,0.6875,-0.5625,0.25,308
309,1696244166468,-0.7373047,-0.05303955,0.76898193,0.296875,-0.296875,0.53125,309
310,1696244166508,-0.73095703,-0.03643799,0.76849365,-0.109375,-0.328125,0.234375,310
311,1696244166548,-0.73461914,-0.041809082,0.7723999,0.25,-0.53125,0.484375,311
312,1696244166588,-0.7290039,-0.0491333,0.76898193,0.125,-0.34375,0.453125,312
313,1696244166628,-0.7348633,-0.04449463,0.7807007,0.125,-0.625,0.40625,313
314,1696244166668,-0.7282715,-0.04498291,0.7614136,-0.1875,-0.1875,0.46875,314
315,1696244166708,-0.7375488,-0.051574707,0.7753296,0.09375,-0.75,0.453125,315
316,1696244166748,-0.7434082,-0.05303955,0.7807007,0.265625,-0.671875,0.359375,316
317,1696244166788,-0.7392578,-0.04425049,0.776062,0.15625,-0.578125,0.265625,317
318,1696244166828,-0.7302246,-0.043518066,0.7723999,-0.0625,-0.453125,-0.125,318
319,1696244166868,-0.72924805,-0.04449463,0.7711792,0.0625,-0.40625,0.25,319
320,1696244166908,-0.7297363,-0.04888916,0.76849365,0.125,-0.375,0.421875,320
321,1696244166948,-0.7355957,-0.051086426,0.7711792,0.125,-0.421875,0.453125,321
322,1696244166988,-0.73291016,-0.054992676,0.7692261,0.078125,-0.359375,0.203125,322
323,1696244167028,-0.73339844,-0.04156494,0.7765503,-0.015625,-0.40625,0.109375,323
324,1696244167068,-0.73999023,-0.04083252,0.7687378,0.015625,-0.421875,0.3125,324
325,1696244167108,-0.7277832,-0.046691895,0.7699585,0.0625,-0.484375,0.296875,325
326,1696244167148,-0.73583984,-0.04449463,0.77020264,0.015625,-0.421875,0.3125,326
327,1696244167188,-0.7285156,-0.04840088,0.77923584,0.046875,-0.375,0.125,327
328,1696244167228,-0.72802734,-0.053527832,0.7616577,-0.265625,-0.3125,0.25,328
329,1696244167268,-0.7446289,-0.04888916,0.791687,0.484375,-0.609375,0.46875,329
330,1696244167308,-0.72753906,-0.034729004,0.76483154,-0.40625,0.3125,0.203125,330
331,1696244167348,-0.7355957,-0.055480957,0.77459717,0.625,-0.6875,0.3125,331
332,1696244167388,-0.73217773,-0.06451416,0.77142334,0.390625,-0.296875,0.453125,332
333,1696244167428,-0.7319336,-0.049621582,0.7736206,0.078125,-0.28125,0.28125,333
334,1696244167468,-0.7338867,-0.04522705,0.7802124,-0.046875,-0.5,0.078125,334
335,1696244167508,-0.7331543,-0.054260254,0.7687378,0.171875,-0.265625,0.484375,335
336,1696244167548,-0.73339844,-0.05255127,0.76776123,0.15625,-0.40625,0.328125,336
337,1696244167588,-0.7312012,-0.05670166,0.7706909,-0.03125,-0.015625,0.21875,337
338,1696244167628,-0.7312012,-0.050109863,0.776062,-0.25,0.109375,0.375,338
339,1696244167668,-0.73950195,-0.057922363,0.77508545,0.078125,-0.484375,0.140625,339
340,1696244167708,-0.7258301,-0.054992676,0.76678467,-0.078125,-0.453125,0.1875,340
341,1696244167748,-0.7312012,-0.043273926,0.7821655,0.1875,-0.328125,0.21875,341
342,1696244167788,-0.72631836,-0.050109863,0.7675171,-0.03125,-0.296875,0.265625,342
343,1696244167828,-0.72924805,-0.061828613,0.7736206,0.03125,-0.765625,0.328125,343
344,1696244167868,-0.7265625,-0.050598145,0.7711792,-0.15625,-0.703125,0.265625,344
345,1696244167908,-0.73046875,-0.05645752,0.7789917,-0.0625,-0.3125,-0.046875,345
346,1696244167948,-0.7324219,-0.05279541,0.7753296,-0.21875,-0.078125,0.34375,346
347,1696244167988,-0.7319336,-0.046447754,0.7716675,-0.09375,-0.234375,0.3125,347
348,1696244168028,-0.73095703,-0.04937744,0.7728882,-0.109375,-0.4375,0.328125,348
349,1696244168068,-0.7285156,-0.046203613,0.7772827,0.125,-0.21875,0.3125,349
350,1696244168108,-0.73046875,-0.047912598,0.78045654,-0.078125,-0.546875,0.203125,350
351,1696244168148,-0.7272949,-0.037902832,0.78338623,0.265625,-0.59375,0.03125,351
352,1696244168188,-0.71875,-0.055725098,0.77801514,-0.296875,0.328125,0.390625,352
353,1696244168228,-0.72387695,-0.05230713,0.77508545,0.109375,-0.578125,0.34375,353
354,1696244168268,-0.7182617,-0.046691895,0.7658081,-0.71875,0.5,0.25,354
355,1696244168308,-0.73413086,-0.06573486,0.78240967,0.375,-0.28125,0.34375,355
356,1696244168348,-0.72314453,-0.054016113,0.7860718,0.25,-0.578125,0.359375,356
357,1696244168388,-0.72924805,-0.035461426,0.78289795,-0.203125,-0.578125,-0.03125,357
358,1696244168428,-0.7319336,-0.043029785,0.777771,-0.109375,-0.296875,0.09375,358
359,1696244168468,-0.72631836,-0.047912598,0.7863159,0.03125,-0.203125,0.65625,359
360,1696244168508,-0.7294922,-0.050354004,0.7909546,0.203125,-0.484375,0.53125,360
361,1696244168548,-0.7163086,-0.046203613,0.77386475,-0.25,-0.328125,0.15625,361
362,1696244168588,-0.7207031,-0.051330566,0.7719116,-0.390625,-0.28125,0.328125,362
363,1696244168628,-0.7324219,-0.046203613,0.7843628,0.078125,-0.46875,0.4375,363
364,1696244168668,-0.7290039,-0.05230713,0.77923584,-0.046875,-0.421875,0.5,364
365,1696244168708,-0.72314453,-0.04425049,0.77996826,-0.09375,-0.671875,0.296875,365
366,1696244168748,-0.72680664,-0.047424316,0.7626343,-0.46875,-0.65625,0.015625,366
367,1696244168788,-0.72436523,-0.04498291,0.7807007,-0.375,0.0,0.328125,367
368,1696244168828,-0.7241211,-0.05230713,0.7809448,-0.46875,-0.21875,0.390625,368
369,1696244168868,-0.7246094,-0.041809082,0.77215576,-0.1875,-0.515625,0.171875,369
370,1696244168908,-0.7290039,-0.04473877,0.7814331,-0.203125,-0.390625,0.359375,370
371,1696244168948,-0.73046875,-0.04522705,0.78240967,-0.234375,-0.5,0.328125,371
372,1696244168988,-0.71972656,-0.045959473,0.77264404,-0.5,-0.359375,0.40625,372
373,1696244169028,-0.72094727,-0.04522705,0.77630615,-0.515625,-0.296875,0.078125,373
374,1696244169068,-0.7246094,-0.042541504,0.7782593,-0.296875,-0.09375,0.21875,374
375,1696244169108,-0.72998047,-0.043762207,0.78118896,0.046875,-0.4375,0.46875,375
376,1696244169148,-0.72314453,-0.055480957,0.76605225,-0.265625,-0.234375,0.484375,376
377,1696244169188,-0.72680664,-0.043762207,0.7941284,0.09375,-0.640625,0.46875,377
378,1696244169228,-0.71850586,-0.03643799,0.75775146,-0.90625,-0.015625,0.09375,378
379,1696244169268,-0.7294922,-0.046447754,0.7897339,0.40625,-0.203125,0.390625,379
380,1696244169308,-0.7277832,-0.06744385,0.77630615,0.140625,-0.765625,0.4375,380
381,1696244169348,-0.71850586,-0.04815674,0.7848511,-0.171875,-0.3125,0.15625,381
382,1696244169388,-0.7219238,-0.044006348,0.7831421,-0.3125,-0.453125,0.078125,382
383,1696244169428,-0.7246094,-0.041809082,0.7814331,0.421875,-0.546875,0.46875,383
384,1696244169468,-0.7248535,-0.053527832,0.7758179,0.125,-0.5625,0.453125,384
385,1696244169508,-0.71875,-0.051086426,0.7719116,-0.578125,-0.25,0.109375,385
386,1696244169548,-0.72631836,-0.04840088,0.7819214,-0.328125,-0.625,-0.015625,386
387,1696244169588,-0.72143555,-0.054504395,0.78045654,0.046875,-0.140625,0.25,387
388,1696244169628,-0.71972656,-0.050598145,0.7765503,0.140625,-0.515625,0.234375,388
389,1696244169668,-0.7219238,-0.042785645,0.78411865,-0.171875,-0.4375,0.078125,389
390,1696244169708,-0.7236328,-0.043518066,0.7809448,-0.09375,-0.390625,-0.0625,390
391,1696244169748,-0.72558594,-0.04547119,0.7819214,-0.1875,-0.515625,0.203125,391
392,1696244169788,-0.7229004,-0.042785645,0.7821655,0.09375,-0.5625,-0.046875,392
393,1696244169828,-0.7297363,-0.058166504,0.7819214,-0.96875,0.609375,-0.109375,393
394,1696244169868,-0.7314453,-0.06573486,0.78167725,-2.59375,-0.140625,-0.1875,394
395,1696244169908,-0.71069336,-0.030334473,0.78118896,-2.109375,-1.515625,-1.890625,395
396,1696244169948,-0.73291016,-0.016418457,0.78289795,-1.6875,-1.3125,-1.265625,396
397,1696244169988,-0.7260742,-0.035461426,0.7850952,-0.28125,-1.890625,-0.734375,397
398,1696244170028,-0.72314453,-0.04034424,0.7848511,0.109375,-2.984375,-0.765625,398
399,1696244170068,-0.7258301,-0.039611816,0.7687378,-0.234375,-3.15625,-1.234375,399
400,1696244170108,-0.73339844,-0.038391113,0.7662964,-0.046875,-2.84375,-0.78125,400
401,1696244170148,-0.73535156,-0.024963379,0.7665405,-0.40625,-1.78125,-0.359375,401
402,1696244170188,-0.73828125,-0.011047363,0.7706909,-0.0625,-2.15625,-0.265625,402
403,1696244170228,-0.73999023,-0.015686035,0.75408936,-0.171875,-0.5625,0.078125,403
404,1696244170268,-0.7385254,-0.03326416,0.76971436,1.125,-0.75,0.453125,404
405,1696244170308,-0.7373047,-0.047912598,0.774353,2.28125,-0.6875,1.109375,405
406,1696244170348,-0.7451172,-0.042053223,0.75994873,2.25,-1.078125,0.984375,406
407,1696244170388,-0.7380371,-0.023742676,0.763855,1.421875,-0.765625,0.6875,407
408,1696244170428,-0.72802734,-0.031311035,0.76312256,1.09375,-0.328125,0.90625,408
409,1696244170468,-0.7336426,-0.03668213,0.7785034,1.359375,-0.671875,0.765625,409
410,1696244170508,-0.7392578,-0.04425049,0.77093506,0.3125,-0.34375,0.453125,410
411,1696244170548,-0.7363281,-0.045959473,0.7692261,0.21875,-0.03125,0.265625,411
412,1696244170588,-0.74121094,-0.055480957,0.76190186,0.375,-0.46875,0.515625,412
413,1696244170628,-0.7392578,-0.043762207,0.7592163,0.578125,-0.734375,0.578125,413
414,1696244170668,-0.7380371,-0.03253174,0.7645874,0.484375,-0.734375,0.3125,414
415,1696244170708,-0.7416992,-0.03668213,0.77557373,0.359375,-0.171875,0.375,415
416,1696244170748,-0.7404785,-0.04864502,0.75653076,-0.234375,-0.265625,0.3125,416
417,1696244170788,-0.7426758,-0.05621338,0.77020264,-0.078125,-0.515625,0.125,417
418,1696244170828,-0.74438477,-0.043029785,0.7765503,0.109375,-0.6875,0.203125,418
419,1696244170868,-0.72875977,-0.043029785,0.7670288,0.0625,-0.3125,0.234375,419
420,1696244170908,-0.7302246,-0.047180176,0.7716675,0.40625,-0.34375,0.453125,420
421,1696244170948,-0.7312012,-0.0413208,0.760437,0.0,-0.3125,0.4375,421
422,1696244170988,-0.7409668,-0.050354004,0.77264404,0.453125,-0.375,0.34375,422
423,1696244171028,-0.73876953,-0.047668457,0.7687378,0.0,0.203125,0.40625,423
424,1696244171068,-0.7348633,-0.047424316,0.78411865,0.359375,-1.09375,0.28125,424
425,1696244171108,-0.7270508,-0.044006348,0.7560425,-0.5,0.484375,0.171875,425
426,1696244171148,-0.7397461,-0.057922363,0.7772827,0.5625,-0.390625,0.515625,426
427,1696244171188,-0.73583984,-0.05328369,0.76727295,0.0,-0.515625,0.265625,427
428,1696244171228,-0.734375,-0.042785645,0.7614136,-0.15625,-0.609375,-0.03125,428
429,1696244171268,-0.7348633,-0.040100098,0.76776123,0.21875,-0.515625,0.28125,429
430,1696244171308,-0.7272949,-0.050598145,0.75946045,0.0625,-0.171875,0.578125,430
431,1696244171348,-0.7404785,-0.058166504,0.76190186,0.203125,-0.46875,0.546875,431
432,1696244171388,-0.7355957,-0.04840088,0.762146,-0.390625,-0.203125,0.140625,432
433,1696244171428,-0.7351074,-0.047912598,0.7675171,-0.078125,-0.3125,0.140625,433
434,1696244171468,-0.73779297,-0.053771973,0.77215576,0.125,-0.71875,0.359375,434
435,1696244171508,-0.7314453,-0.04425049,0.7616577,-0.0625,-0.796875,0.375,435
436,1696244171548,-0.73291016,-0.038879395,0.7633667,-0.203125,-0.640625,0.046875,436
437,1696244171588,-0.7253418,-0.049865723,0.7716675,-0.1875,-0.125,0.140625,437
438,1696244171628,-0.72875977,-0.0413208,0.7640991,-0.046875,-0.546875,0.4375,438
439,1696244171668,-0.73950195,-0.06036377,0.7704468,0.3125,-0.390625,0.578125,439
440,1696244171708,-0.7331543,-0.0491333,0.7694702,0.125,-0.25,0.390625,440
441,1696244171748,-0.73461914,-0.051330566,0.7670288,0.203125,-0.484375,0.28125,441
442,1696244171788,-0.73876953,-0.046203613,0.76068115,-0.28125,-0.109375,0.015625,442
443,1696244171828,-0.73046875,-0.04449463,0.76483154,-0.171875,-0.1875,0.203125,443
444,1696244171868,-0.74609375,-0.054992676,0.7863159,0.34375,-0.40625,0.546875,444
445,1696244171908,-0.72265625,-0.054992676,0.76434326,-0.375,0.4375,0.265625,445
446,1696244171948,-0.73095703,-0.047668457,0.7728882,0.359375,-0.75,0.46875,446
447,1696244171988,-0.7272949,-0.042297363,0.7687378,-0.40625,0.265625,0.03125,447
448,1696244172028,-0.732666,-0.053771973,0.7711792,0.375,-0.078125,0.453125,448
449,1696244172068,-0.7368164,-0.054016113,0.77142334,0.03125,-0.421875,0.390625,449
450,1696244172108,-0.73461914,-0.0413208,0.7628784,-0.0625,-0.328125,0.203125,450
451,1696244172148,-0.7373047,-0.061828613,0.777771,0.34375,-0.1875,0.359375,451
452,1696244172188,-0.7211914,-0.04937744,0.7653198,-0.15625,-0.25,0.28125,452
453,1696244172228,-0.73291016,-0.05303955,0.7831421,0.390625,-0.40625,0.578125,453
454,1696244172268,-0.7270508,-0.04888916,0.77630615,0.0625,-0.34375,0.28125,454
455,1696244172308,-0.72924805,-0.054504395,0.7699585,0.078125,-0.21875,0.25,455
456,1696244172348,-0.7336426,-0.061340332,0.77630615,0.40625,-0.375,0.515625,456
457,1696244172388,-0.72924805,-0.047180176,0.76849365,-0.015625,-0.609375,0.3125,457
458,1696244172428,-0.7336426,-0.05621338,0.7772827,-0.0625,-0.296875,0.046875,458
459,1696244172468,-0.7270508,-0.051086426,0.7662964,0.03125,-0.53125,0.203125,459
460,1696244172508,-0.73413086,-0.050109863,0.77142334,-0.140625,-0.484375,0.390625,460
461,1696244172548,-0.73291016,-0.054748535,0.7765503,0.0,-0.140625,0.40625,461
462,1696244172588,-0.734375,-0.050842285,0.77752686,-0.078125,-0.171875,0.6875,462
463,1696244172628,-0.73461914,-0.053771973,0.77386475,-0.53125,0.421875,0.34375,463
464,1696244172668,-0.7272949,-0.051574707,0.7741089,-0.328125,0.03125,0.578125,464
465,1696244172708,-0.7282715,-0.05670166,0.7723999,-0.265625,-0.1875,0.671875,465
466,1696244172748,-0.734375,-0.054748535,0.7770386,0.03125,-0.28125,0.515625,466
467,1696244172788,-0.7265625,-0.051818848,0.7741089,0.09375,-0.296875,0.28125,467
468,1696244172828,-0.7272949,-0.057434082,0.7863159,0.03125,-0.484375,0.328125,468
469,1696244172868,-0.734375,-0.051574707,0.7741089,0.1875,-0.4375,0.21875,469
470,1696244172908,-0.7270508,-0.054748535,0.762146,-0.234375,0.1875,0.4375,470
471,1696244172948,-0.72998047,-0.054748535,0.77923584,0.3125,-0.046875,0.09375,471
472,1696244172988,-0.7277832,-0.07525635,0.79730225,-0.171875,0.65625,0.359375,472
473,1696244173028,-0.72436523,-0.07208252,0.77679443,-2.734375,0.96875,0.0625,473
474,1696244173068,-0.73999023,-0.0491333,0.7850952,-2.78125,-0.546875,-1.171875,474
475,1696244173108,-0.7253418,-0.026672363,0.77752686,-2.328125,-1.34375,-1.09375,475
476,1696244173148,-0.72875977,-0.04449463,0.78778076,-0.6875,-1.734375,-0.71875,476
477,1696244173188,-0.7348633,-0.05206299,0.7675171,-1.5625,-1.015625,-0.59375,477
478,1696244173228,-0.7229004,-0.042785645,0.76605225,-2.046875,-0.234375,-0.609375,478
479,1696244173268,-0.72509766,-0.046447754,0.78045654,-1.171875,-0.609375,-0.75,479
480,1696244173308,-0.72924805,-0.034729004,0.7650757,-1.03125,-1.390625,-1.109375,480
481,1696244173348,-0.7338867,-0.021057129,0.7765503,0.59375,-2.21875,-0.515625,481
482,1696244173388,-0.72875977,-0.014953613,0.7592163,0.296875,-1.609375,-0.34375,482
483,1696244173428,-0.73217773,-0.022766113,0.7601929,0.234375,-1.296875,-0.03125,483
484,1696244173468,-0.7253418,-0.0335083,0.763855,1.34375,-1.171875,0.75,484
485,1696244173508,-0.732666,-0.05206299,0.7748413,2.640625,-2.03125,1.609375,485
486,1696244173548,-0.7331543,-0.04473877,0.7680054,1.5,-1.59375,0.875,486
487,1696244173588,-0.7272949,-0.03253174,0.76727295,0.265625,-0.578125,0.28125,487
488,1696244173628,-0.736084,-0.031311035,0.78411865,0.046875,-0.40625,0.5,488
489,1696244173668,-0.74609375,-0.035461426,0.7838745,0.265625,-0.59375,0.5,489
490,1696244173708,-0.74072266,-0.04522705,0.7658081,0.015625,-1.21875,0.28125,490
491,1696244173748,-0.7426758,-0.038879395,0.77752686,0.109375,-1.921875,0.078125,491
492,1696244173788,-0.7368164,-0.04498291,0.7584839,-0.203125,-0.453125,0.375,492
493,1696244173828,-0.7409668,-0.042297363,0.7687378,0.375,-0.296875,0.5,493
494,1696244173868,-0.73876953,-0.04449463,0.76898193,0.546875,-0.453125,0.578125,494
495,1696244173908,-0.7451172,-0.035705566,0.7736206,0.21875,-0.65625,0.328125,495
496,1696244173948,-0.74072266,-0.035949707,0.7719116,-0.359375,-0.203125,0.078125,496
497,1696244173988,-0.72998047,-0.041809082,0.7592163,-0.4375,-0.09375,0.109375,497
498,1696244174028,-0.7368164,-0.04034424,0.77020264,-0.3125,-0.46875,0.265625,498
499,1696244174068,-0.73583984,-0.045959473,0.758728,0.109375,-0.484375,0.5625,499
500,1696244174108,-0.7355957,-0.046203613,0.76849365,0.140625,-0.296875,0.234375,500
501,1696244174148,-0.7434082,-0.043273926,0.7731323,-0.078125,-0.203125,0.296875,501
502,1696244174188,-0.7416992,-0.051086426,0.7741089,-0.125,-0.265625,0.46875,502
503,1696244174228,-0.7487793,-0.03302002,0.77093506,-0.25,-0.6875,0.265625,503
504,1696244174268,-0.7348633,-0.043029785,0.7772827,-0.203125,-0.1875,0.328125,504
505,1696244174308,-0.7336426,-0.051818848,0.763855,-0.0625,-0.421875,0.46875,505
506,1696244174348,-0.73657227,-0.04815674,0.76605225,-0.28125,-0.328125,0.171875,506
507,1696244174388,-0.7219238,-0.039123535,0.7704468,-0.046875,-0.390625,0.265625,507
508,1696244174428,-0.73657227,-0.039123535,0.76971436,0.28125,-0.421875,0.390625,508
509,1696244174468,-0.74121094,-0.049621582,0.774353,0.890625,-0.34375,0.78125,509
510,1696244174508,-0.7402344,-0.04815674,0.76898193,0.515625,-0.515625,0.515625,510
511,1696244174548,-0.73583984,-0.053527832,0.7711792,-0.5,0.328125,0.109375,511
512,1696244174588,-0.7404785,-0.051086426,0.76678467,-0.28125,-1.328125,0.109375,512
513,1696244174628,-0.7260742,-0.032287598,0.7509155,-0.8125,0.234375,0.171875,513
514,1696244174668,-0.7375488,-0.050598145,0.77679443,0.421875,-0.671875,0.375,514
515,1696244174708,-0.7355957,-0.055480957,0.77093506,0.3125,-0.59375,0.421875,515
516,1696244174748,-0.7355957,-0.03668213,0.7609253,0.171875,-0.671875,0.296875,516
517,1696244174788,-0.7409668,-0.027404785,0.7831421,-0.25,-0.578125,0.140625,517
518,1696244174828,-0.72998047,-0.04083252,0.7728882,-0.28125,0.203125,0.234375,518
519,1696244174868,-0.73657227,-0.043273926,0.7640991,-0.40625,-0.375,0.40625,519
520,1696244174908,-0.7312012,-0.04840088,0.75946045,-0.390625,-0.0625,0.265625,520
521,1696244174948,-0.7248535,-0.047180176,0.77142334,-0.546875,0.0625,0.3125,521
522,1696244174988,-0.7331543,-0.04522705,0.7807007,-0.53125,0.40625,0.359375,522
523,1696244175028,-0.7312012,-0.04888916,0.77264404,-1.046875,-0.125,0.1875,523
524,1696244175068,-0.7426758,-0.04034424,0.7836304,-1.203125,-0.71875,-0.4375,524
525,1696244175108,-0.734375,-0.031066895,0.77948,-1.421875,-0.15625,-0.359375,525
526,1696244175148,-0.73535156,-0.04034424,0.7785034,-1.859375,-0.078125,-0.046875,526
527,1696244175188,-0.7285156,-0.0491333,0.7741089,-2.28125,0.578125,-0.328125,527
528,1696244175228,-0.73413086,-0.039611816,0.7782593,-2.671875,0.34375,-0.5,528
529,1696244175268,-0.72924805,-0.029846191,0.7650757,-2.421875,-0.28125,-0.796875,529
530,1696244175308,-0.72436523,-0.018371582,0.77264404,-1.53125,-0.203125,-0.515625,530
531,1696244175348,-0.7277832,-0.026184082,0.77948,-0.875,0.125,-0.1875,531
532,1696244175388,-0.72265625,-0.01739502,0.7628784,-1.484375,-0.21875,-0.4375,532
533,1696244175428,-0.73583984,-0.014221191,0.76483154,-0.171875,-0.59375,-0.296875,533
534,1696244175468,-0.7297363,-0.023254395,0.78533936,0.40625,-0.859375,-0.078125,534
535,1696244175508,-0.7258301,-0.0154418945,0.7543335,1.15625,-1.609375,0.484375,535
536,1696244175548,-0.7363281,-0.029846191,0.77996826,3.65625,-2.28125,1.265625,536
537,1696244175588,-0.7302246,-0.024719238,0.7662964,2.109375,-1.546875,1.359375,537
538,1696244175628,-0.7270508,-0.028625488,0.76849365,0.765625,-0.53125,0.296875,538
539,1696244175668,-0.73413086,-0.028137207,0.7797241,-0.328125,-0.203125,0.140625,539
540,1696244175708,-0.73876953,-0.039367676,0.7670288,0.03125,-0.828125,0.5,540
541,1696244175748,-0.7375488,-0.026672363,0.7880249,0.234375,-0.296875,0.5625,541
542,1696244175788,-0.7324219,-0.04522705,0.77386475,0.53125,-0.578125,0.515625,542
543,1696244175828,-0.72143555,-0.03717041,0.7509155,0.078125,-1.171875,0.15625,543
544,1696244175868,-0.72509766,-0.030334473,0.7584839,0.28125,-1.1875,0.265625,544
545,1696244175908,-0.72998047,-0.028625488,0.7658081,0.171875,-0.328125,0.3125,545
546,1696244175948,-0.7429199,-0.03277588,0.7736206,-0.03125,-0.328125,0.65625,546
547,1696244175988,-0.73535156,-0.034484863,0.7692261,-0.34375,-0.578125,0.328125,547
548,1696244176028,-0.7402344,-0.038391113,0.7748413,-0.078125,-0.40625,0.40625,548
549,1696244176068,-0.7314453,-0.03326416,0.7687378,0.03125,-0.09375,0.28125,549
550,1696244176108,-0.7373047,-0.03717041,0.78338623,0.71875,-0.90625,0.4375,550
551,1696244176148,-0.7253418,-0.028625488,0.7592163,-0.609375,-0.21875,-0.09375,551
552,1696244176188,-0.73657227,-0.033996582,0.75164795,-0.421875,-0.15625,0.1875,552
553,1696244176228,-0.7260742,-0.023498535,0.77142334,-0.140625,-0.40625,0.140625,553
554,1696244176268,-0.73876953,-0.042541504,0.78045654,0.328125,-0.609375,0.359375,554
555,1696244176308,-0.734375,-0.04425049,0.7728882,0.484375,-0.53125,0.40625,555
556,1696244176348,-0.7429199,-0.0335083,0.77459717,0.265625,-0.484375,0.34375,556
557,1696244176388,-0.72753906,-0.035217285,0.7687378,0.390625,-0.796875,0.453125,557
558,1696244176428,-0.7272949,-0.033996582,0.7699585,0.125,-0.453125,0.21875,558
559,1696244176468,-0.73291016,-0.043029785,0.7706909,-0.15625,-0.4375,0.453125,559
560,1696244176508,-0.7285156,-0.026184082,0.76239014,-0.78125,0.140625,-0.046875,560
561,1696244176548,-0.74072266,-0.030822754,0.7855835,0.328125,-0.3125,0.3125,561
562,1696244176588,-0.73535156,-0.046447754,0.77508545,0.390625,-0.765625,0.5625,562
563,1696244176628,-0.73706055,-0.027160645,0.77093506,0.171875,-0.796875,0.140625,563
564,1696244176668,-0.72680664,-0.026184082,0.75994873,-0.109375,-0.421875,0.203125,564
565,1696244176708,-0.7392578,-0.03717041,0.7692261,0.21875,-0.484375,0.109375,565
566,1696244176748,-0.73046875,-0.039611816,0.76434326,0.28125,-0.34375,0.328125,566
567,1696244176788,-0.73168945,-0.04107666,0.77093506,-0.03125,-0.46875,0.421875,567
568,1696244176828,-0.7351074,-0.047424316,0.76483154,0.171875,-0.171875,0.359375,568
569,1696244176868,-0.7272949,-0.034973145,0.76434326,-0.234375,-0.234375,0.046875,569
570,1696244176908,-0.7385254,-0.04107666,0.78118896,0.140625,-0.71875,0.390625,570
571,1696244176948,-0.7302246,-0.031311035,0.7645874,0.015625,-0.34375,0.390625,571
572,1696244176988,-0.72753906,-0.04473877,0.76898193,0.140625,0.046875,0.484375,572
573,1696244177028,-0.7331543,-0.03643799,0.774353,0.140625,0.75,0.5,573
574,1696244177068,-0.732666,-0.051818848,0.776062,0.078125,0.03125,0.640625,574
575,1696244177108,-0.734375,-0.0413208,0.7626343,0.046875,-0.265625,0.296875,575
576,1696244177148,-0.7446289,-0.030578613,0.76971436,0.34375,-0.34375,0.578125,576
577,1696244177188,-0.73779297,-0.039123535,0.76483154,0.375,-0.53125,0.59375,577
578,1696244177228,-0.73339844,-0.04425049,0.7682495,0.125,-1.015625,0.484375,578
579,1696244177268,-0.72094727,-0.05303955,0.7736206,-0.234375,-0.375,0.03125,579
580,1696244177308,-0.73095703,-0.035461426,0.763855,-0.609375,-0.03125,0.203125,580
581,1696244177348,-0.7319336,-0.03643799,0.7675171,0.09375,-0.484375,0.5625,581
582,1696244177388,-0.7302246,-0.057434082,0.7640991,0.25,-0.765625,0.625,582
583,1696244177428,-0.74072266,-0.03741455,0.7682495,0.28125,-0.796875,0.203125,583
584,1696244177468,-0.7302246,-0.045959473,0.7687378,0.234375,-0.328125,0.265625,584
585,1696244177508,-0.72680664,-0.0413208,0.77020264,-0.125,-0.390625,-0.03125,585
586,1696244177548,-0.7404785,-0.04547119,0.7748413,0.203125,-0.65625,0.359375,586
587,1696244177588,-0.7351074,-0.04815674,0.7736206,0.265625,-0.46875,0.265625,587
588,1696244177628,-0.73413086,-0.051574707,0.7797241,0.078125,-0.046875,0.28125,588
589,1696244177668,-0.73217773,-0.04107666,0.77093506,-0.03125,-0.328125,0.46875,589
590,1696244177708,-0.73217773,-0.04083252,0.7802124,-0.015625,-0.515625,0.1875,590
591,1696244177748,-0.72680664,-0.043029785,0.777771,-0.09375,-0.375,0.109375,591
592,1696244177788,-0.7380371,-0.043029785,0.7836304,0.21875,-0.71875,0.328125,592
593,1696244177828,-0.7180176,-0.04425049,0.75579834,-0.34375,0.03125,0.0625,593
594,1696244177868,-0.73339844,-0.046691895,0.75653076,0.109375,-0.5,0.28125,594
595,1696244177908,-0.72998047,-0.04083252,0.77630615,0.109375,0.03125,0.046875,595
596,1696244177948,-0.73657227,-0.05645752,0.7748413,0.296875,-0.171875,0.578125,596
597,1696244177988,-0.72924805,-0.045959473,0.7633667,0.078125,-0.359375,0.234375,597
598,1696244178028,-0.7314453,-0.02935791,0.7765503,0.109375,-0.625,0.53125,598
599,1696244178068,-0.7282715,-0.04449463,0.77459717,0.359375,-0.75,0.5625,599
600,1696244178108,-0.73095703,-0.05279541,0.77557373,0.171875,-0.921875,0.40625,600
601,1696244178148,-0.7324219,-0.047424316,0.77801514,0.046875,-0.375,0.203125,601
602,1696244178188,-0.7336426,-0.039611816,0.7626343,-0.265625,-0.265625,0.09375,602
603,1696244178228,-0.732666,-0.04815674,0.77093506,-0.046875,-0.578125,0.078125,603
604,1696244178268,-0.7385254,-0.046447754,0.7704468,-0.109375,-0.140625,0.21875,604
605,1696244178308,-0.74072266,-0.039855957,0.7809448,0.28125,-0.453125,0.46875,605
606,1696244178348,-0.7324219,-0.04864502,0.7748413,-0.015625,-0.53125,0.34375,606
607,1696244178388,-0.7302246,-0.04815674,0.7731323,0.15625,-0.53125,0.25,607
608,1696244178428,-0.72802734,-0.04473877,0.76849365,-0.140625,-0.890625,0.09375,608
609,1696244178468,-0.7392578,-0.05621338,0.7716675,-0.109375,-0.390625,0.140625,609
610,1696244178508,-0.7331543,-0.045959473,0.7765503,0.046875,-0.296875,0.25,610
611,1696244178548,-0.73339844,-0.040100098,0.776062,0.34375,-0.328125,0.53125,611
612,1696244178588,-0.7319336,-0.051086426,0.76556396,-0.0625,-0.3125,0.3125,612
613,1696244178628,-0.7348633,-0.049621582,0.77142334,-0.234375,-0.296875,0.171875,613
614,1696244178668,-0.7373047,-0.042053223,0.77679443,-0.125,-0.46875,-0.125,614
615,1696244178708,-0.7319336,-0.04156494,0.77337646,0.171875,-0.578125,0.09375,615
616,1696244178748,-0.732666,-0.051086426,0.7645874,-0.140625,-0.53125,0.328125,616
617,1696244178788,-0.7390137,-0.038391113,0.774353,-0.140625,-0.875,0.1875,617
618,1696244178828,-0.72924805,-0.042785645,0.7526245,-0.546875,-0.046875,0.296875,618
619,1696244178868,-0.7355957,-0.04449463,0.7809448,0.4375,-0.5,0.328125,619
620,1696244178908,-0.73657227,-0.06011963,0.776062,0.46875,-0.578125,0.375,620
621,1696244178948,-0.7277832,-0.042541504,0.7741089,0.125,-0.734375,0.078125,621
622,1696244178988,-0.7282715,-0.038635254,0.7692261,0.265625,-0.8125,0.125,622
623,1696244179028,-0.7336426,-0.04425049,0.7770386,0.21875,-0.484375,0.453125,623
624,1696244179068,-0.7285156,-0.04937744,0.7653198,0.015625,-0.671875,0.4375,624
625,1696244179108,-0.72436523,-0.058410645,0.763855,-0.21875,-0.03125,0.078125,625
626,1696244179148,-0.7363281,-0.04840088,0.76849365,-0.0625,-0.4375,0.109375,626
627,1696244179188,-0.73461914,-0.046447754,0.77020264,-0.03125,-0.28125,0.21875,627
628,1696244179228,-0.72875977,-0.049865723,0.7716675,-0.078125,-0.4375,0.34375,628
629,1696244179268,-0.7368164,-0.04864502,0.77557373,-0.109375,-0.328125,0.40625,629
630,1696244179308,-0.7258301,-0.054016113,0.7741089,-0.046875,-0.1875,0.359375,630
631,1696244179348,-0.7297363,-0.046447754,0.7645874,0.015625,-0.484375,-0.046875,631
632,1696244179388,-0.7270508,-0.04547119,0.7731323,0.203125,-0.515625,0.28125,632
633,1696244179428,-0.7319336,-0.04815674,0.7694702,0.0,-0.34375,0.15625,633
634,1696244179468,-0.7363281,-0.0491333,0.7821655,0.09375,-0.25,0.40625,634
635,1696244179508,-0.72753906,-0.053527832,0.7741089,0.015625,-0.421875,0.328125,635
636,1696244179548,-0.732666,-0.050842285,0.7719116,-0.078125,-0.515625,0.171875,636
637,1696244179588,-0.7290039,-0.050354004,0.7758179,0.0625,-0.46875,0.421875,637
638,1696244179628,-0.7290039,-0.045959473,0.7758179,0.015625,-0.515625,0.15625,638
639,1696244179668,-0.7302246,-0.050109863,0.7711792,-0.125,-0.453125,0.375,639
640,1696244179708,-0.72631836,-0.05279541,0.75701904,-0.015625,-0.046875,0.21875,640
641,1696244179748,-0.7492676,-0.050109863,0.8012085,0.578125,-1.171875,0.59375,641
642,1696244179788,-0.7216797,-0.045715332,0.7682495,-0.453125,0.140625,0.3125,642
643,1696244179828,-0.73291016,-0.04864502,0.7836304,0.078125,-0.328125,0.046875,643
644,1696244179868,-0.7285156,-0.054504395,0.7731323,0.265625,-0.296875,0.484375,644
645,1696244179908,-0.72924805,-0.042785645,0.78118896,-0.015625,-0.5625,0.203125,645
646,1696244179948,-0.7314453,-0.04156494,0.7826538,0.125,-0.390625,0.21875,646
647,1696244179988,-0.72753906,-0.053527832,0.7807007,0.234375,-0.40625,0.546875,647
648,1696244180028,-0.7277832,-0.051330566,0.7682495,-0.046875,-0.453125,0.296875,648
649,1696244180068,-0.72558594,-0.059387207,0.76434326,-0.15625,0.03125,0.21875,649
650,1696244180108,-0.7253418,-0.051818848,0.77142334,-0.171875,-0.546875,0.234375,650
651,1696244180148,-0.7294922,-0.046203613,0.78289795,-0.0625,-0.453125,0.234375,651
652,1696244180188,-0.72753906,-0.054260254,0.77215576,-0.25,-0.84375,0.109375,652
653,1696244180228,-0.73168945,-0.049621582,0.76483154,-0.515625,-0.3125,0.078125,653
654,1696244180268,-0.7265625,-0.055480957,0.7719116,-0.234375,-0.3125,0.125,654
655,1696244180308,-0.7338867,-0.055236816,0.774353,0.078125,-0.671875,0.390625,655
656,1696244180348,-0.73583984,-0.05328369,0.777771,0.15625,-0.46875,0.421875,656
657,1696244180388,-0.73046875,-0.05303955,0.7694702,-0.125,-0.078125,0.296875,657
658,1696244180428,-0.7270508,-0.045959473,0.7797241,-0.15625,-0.03125,0.234375,658
659,1696244180468,-0.7260742,-0.04498291,0.7728882,-0.0625,-0.171875,0.34375,659
660,1696244180508,-0.72631836,-0.04425049,0.7797241,-0.03125,-0.421875,0.265625,660
661,1696244180548,-0.73046875,-0.04937744,0.7758179,-0.328125,-0.171875,0.109375,661
662,1696244180588,-0.7241211,-0.046447754,0.78045654,-0.1875,-0.1875,0.09375,662
663,1696244180628,-0.734375,-0.0491333,0.79193115,0.203125,-0.59375,0.15625,663
664,1696244180668,-0.72143555,-0.043518066,0.76556396,-0.9375,0.515625,-0.078125,664
665,1696244180708,-0.7307129,-0.051086426,0.774353,-0.234375,-0.25,0.6875,665
666,1696244180748,-0.72436523,-0.036193848,0.7741089,-0.34375,0.40625,0.28125,666
667,1696244180788,-0.72802734,-0.05670166,0.78118896,0.578125,-0.15625,0.671875,667
668,1696244180828,-0.72631836,-0.05670166,0.77874756,0.484375,-0.40625,0.46875,668
669,1696244180868,-0.7294922,-0.045959473,0.77386475,0.15625,-0.25,0.46875,669
670,1696244180908,-0.72558594,-0.051574707,0.78826904,-0.046875,-0.03125,0.34375,670
671,1696244180948,-0.71728516,-0.061828613,0.7941284,-1.125,0.640625,0.375,671
672,1696244180988,-0.7272949,-0.06695557,0.7904663,-1.421875,-0.984375,0.09375,672
673,1696244181028,-0.7285156,-0.036193848,0.77630615,-1.984375,-1.546875,-1.296875,673
674,1696244181068,-0.7297363,-0.03643799,0.7836304,-1.53125,-1.0,-1.125,674
675,1696244181108,-0.72753906,-0.05328369,0.7821655,-1.40625,-1.4375,-0.609375,675
676,1696244181148,-0.73168945,-0.04083252,0.77923584,-0.90625,-1.734375,-0.703125,676
677,1696244181188,-0.7290039,-0.042053223,0.76971436,-1.078125,-1.015625,-0.734375,677
678,1696244181228,-0.7229004,-0.03302002,0.7680054,-1.46875,-0.53125,-0.921875,678
679,1696244181268,-0.7336426,-0.031555176,0.7765503,-1.265625,-0.578125,-0.4375,679
680,1696244181308,-0.73413086,-0.026916504,0.77874756,-0.84375,-0.609375,-0.28125,680
681,1696244181348,-0.73339844,-0.028869629,0.77093506,-0.5625,-1.0,-0.171875,681
682,1696244181388,-0.7307129,-0.026672363,0.7609253,-0.203125,-0.8125,-0.203125,682
683,1696244181428,-0.7312012,-0.02520752,0.76776123,0.6875,-1.203125,0.328125,683
684,1696244181468,-0.73095703,-0.039855957,0.77557373,2.015625,-1.28125,0.9375,684
685,1696244181508,-0.7355957,-0.035705566,0.77459717,2.109375,-1.578125,0.96875,685
686,1696244181548,-0.71362305,-0.032287598,0.76898193,0.71875,-0.53125,0.3125,686
687,1696244181588,-0.7319336,-0.028625488,0.7680054,0.109375,-0.3125,0.359375,687
688,1696244181628,-0.7270508,-0.02960205,0.7741089,-0.3125,0.5625,0.546875,688
689,1696244181668,-0.7414551,-0.051818848,0.7860718,0.34375,-0.515625,0.875,689
690,1696244181708,-0.7277832,-0.04840088,0.75946045,0.34375,-0.828125,0.265625,690
691,1696244181748,-0.73535156,-0.033996582,0.77093506,0.671875,-1.03125,0.25,691
692,1696244181788,-0.7319336,-0.03741455,0.77093506,0.859375,-1.0,0.46875,692
693,1696244181828,-0.7219238,-0.02960205,0.76727295,0.109375,-0.3125,0.40625,693
694,1696244181868,-0.7331543,-0.05670166,0.7848511,0.0625,-0.5625,0.296875,694
695,1696244181908,-0.73046875,-0.034240723,0.7633667,-0.75,0.0625,0.015625,695
696,1696244181948,-0.74072266,-0.042053223,0.7802124,-0.078125,-0.046875,0.515625,696
697,1696244181988,-0.732666,-0.050842285,0.774353,0.53125,-0.625,0.578125,697
698,1696244182028,-0.72924805,-0.035217285,0.7741089,0.53125,-0.734375,0.171875,698
699,1696244182068,-0.73339844,-0.04034424,0.77557373,0.546875,-0.765625,0.484375,699
700,1696244182108,-0.7270508,-0.038635254,0.75994873,-0.046875,-0.578125,0.296875,700
701,1696244182148,-0.74365234,-0.043029785,0.7640991,0.265625,-0.359375,0.546875,701
702,1696244182188,-0.7402344,-0.050598145,0.76434326,-0.171875,-0.234375,0.546875,702
703,1696244182228,-0.732666,-0.043029785,0.76727295,-0.015625,-0.21875,0.3125,703
704,1696244182268,-0.7272949,-0.050354004,0.7662964,-0.09375,-0.3125,0.234375,704
705,1696244182308,-0.7285156,-0.041809082,0.75897217,-0.109375,-0.28125,0.203125,705
706,1696244182348,-0.73583984,-0.043762207,0.7770386,0.171875,-0.546875,0.375,706
707,1696244182388,-0.72680664,-0.042053223,0.7692261,-0.09375,-0.203125,0.640625,707
708,1696244182428,-0.74487305,-0.042541504,0.78704834,0.828125,-1.484375,0.40625,708
709,1696244182468,-0.7319336,-0.03741455,0.7665405,-0.578125,0.40625,0.359375,709
710,1696244182508,-0.7429199,-0.047424316,0.7887573,0.640625,-0.203125,0.484375,710
711,1696244182548,-0.7324219,-0.058654785,0.7758179,0.375,-0.28125,0.59375,711
712,1696244182588,-0.73217773,-0.04083252,0.77093506,0.046875,-0.390625,0.15625,712
713,1696244182628,-0.7390137,-0.04473877,0.77142334,0.140625,-0.359375,0.359375,713
714,1696244182668,-0.71972656,-0.041809082,0.76312256,0.171875,-0.234375,0.40625,714
715,1696244182708,-0.7294922,-0.0569458,0.7753296,0.078125,-0.421875,0.78125,715
716,1696244182748,-0.7363281,-0.05596924,0.7616577,-0.234375,-0.046875,0.375,716
717,1696244182788,-0.74121094,-0.04449463,0.774353,-0.09375,0.109375,0.296875,717
718,1696244182828,-0.7277832,-0.04156494,0.7838745,0.21875,-0.40625,0.3125,718
719,1696244182868,-0.7363281,-0.051574707,0.77948,0.390625,-0.875,0.25,719
720,1696244182908,-0.73217773,-0.046691895,0.7809448,0.0,-0.640625,0.390625,720
721,1696244182948,-0.7229004,-0.050354004,0.7719116,-0.078125,-0.4375,0.171875,721
722,1696244182988,-0.7294922,-0.044006348,0.7704468,-0.0625,-0.796875,0.203125,722
723,1696244183028,-0.7258301,-0.042053223,0.77264404,0.09375,-0.53125,0.03125,723
724,1696244183068,-0.7363281,-0.04888916,0.78704834,0.140625,-0.0625,0.3125,724
725,1696244183108,-0.73095703,-0.059143066,0.7814331,0.0,-0.21875,0.46875,725
726,1696244183148,-0.7348633,-0.04425049,0.75701904,-0.078125,-0.359375,0.421875,726
727,1696244183188,-0.73657227,-0.050109863,0.7782593,0.0,-0.578125,0.4375,727
728,1696244183228,-0.7307129,-0.050598145,0.7728882,0.0,0.046875,0.359375,728
729,1696244183268,-0.7338867,-0.04840088,0.7782593,0.328125,-0.5,0.328125,729
730,1696244183308,-0.7224121,-0.03692627,0.75653076,-0.328125,0.140625,0.015625,730
731,1696244183348,-0.7272949,-0.050842285,0.763855,-0.171875,-0.453125,0.4375,731
732,1696244183388,-0.73168945,-0.042541504,0.78240967,-0.078125,-0.171875,0.03125,732
733,1696244183428,-0.734375,-0.059631348,0.77996826,0.40625,-0.109375,0.5625,733
734,1696244183468,-0.7294922,-0.057434082,0.78167725,0.140625,-0.40625,0.234375,734
735,1696244183508,-0.7336426,-0.034729004,0.776062,-0.1875,-0.5,0.046875,735
736,1696244183548,-0.72753906,-0.05206299,0.7753296,0.265625,-0.390625,0.5,736
737,1696244183588,-0.7336426,-0.054016113,0.77459717,0.25,-0.703125,0.515625,737
738,1696244183628,-0.72680664,-0.051818848,0.77996826,0.234375,-0.265625,0.21875,738
739,1696244183668,-0.72436523,-0.04473877,0.7838745,-0.796875,0.609375,0.015625,739
740,1696244183708,-0.7297363,-0.05255127,0.7838745,-1.3125,0.75,-0.0625,740
741,1696244183748,-0.72924805,-0.0491333,0.7826538,-0.984375,-0.921875,-0.140625,741
742,1696244183788,-0.72875977,-0.03668213,0.7809448,-1.015625,-0.859375,-0.546875,742
743,1696244183828,-0.734375,-0.04547119,0.7838745,-0.96875,0.265625,-0.28125,743
744,1696244183868,-0.72143555,-0.04449463,0.7772827,-0.9375,-0.078125,-0.15625,744
745,1696244183908,-0.7248535,-0.042785645,0.77337646,-0.875,-0.5,-0.3125,745
746,1696244183948,-0.7265625,-0.043762207,0.77801514,-0.9375,-0.46875,-0.453125,746
747,1696244183988,-0.72680664,-0.03692627,0.7821655,-0.890625,-0.0625,-0.1875,747
748,1696244184028,-0.7285156,-0.034240723,0.7809448,-0.640625,0.015625,-0.21875,748
749,1696244184068,-0.7265625,-0.030822754,0.7814331,-0.484375,-0.359375,-0.125,749
750,1696244184108,-0.72143555,-0.03375244,0.78167725,-0.65625,-0.234375,-0.375,750
751,1696244184148,-0.72753906,-0.03668213,0.7753296,-0.828125,-0.296875,-0.546875,751
752,1696244184188,-0.7229004,-0.034240723,0.7975464,-0.25,-0.53125,-0.015625,752
753,1696244184228,-0.71069336,-0.03253174,0.77630615,-1.125,0.46875,-0.5,753
754,1696244184268,-0.73095703,-0.026672363,0.7753296,-0.546875,-0.015625,-0.1875,754
755,1696244184308,-0.7241211,-0.035217285,0.7814331,-0.125,0.390625,-0.140625,755
756,1696244184348,-0.7270508,-0.042785645,0.7802124,-0.234375,-0.3125,-0.203125,756
757,1696244184388,-0.71850586,-0.0256958,0.7785034,-0.640625,-0.515625,-0.421875,757
758,1696244184428,-0.72998047,-0.019836426,0.78240967,-0.15625,-0.640625,-0.40625,758
759,1696244184468,-0.7248535,-0.024963379,0.77508545,-0.078125,-0.703125,-0.09375,759
