,timestamp,accel_x,accel_y,accel_z,gyro_x,gyro_y,gyro_z,ind
0,1696244383155,-0.6945801,-0.06695557,-0.7131958,-0.046875,-0.0625,0.171875,60
1,1696244383195,-0.6953125,-0.0725708,-0.7163696,-0.234375,-0.171875,0.171875,61
2,1696244383235,-0.6916504,-0.06719971,-0.7131958,-0.109375,0.078125,0.3125,62
3,1696244383275,-0.6960449,-0.070373535,-0.7151489,-0.125,-0.265625,0.203125,63
4,1696244383315,-0.6850586,-0.06964111,-0.7102661,-0.0625,-0.078125,0.25,64
5,1696244383355,-0.68652344,-0.07720947,-0.7090454,-0.1875,0.140625,0.328125,65
6,1696244383395,-0.68774414,-0.069885254,-0.70928955,-0.125,-0.09375,0.3125,66
7,1696244383435,-0.6936035,-0.0725708,-0.7185669,-0.046875,-0.203125,0.296875,67
8,1696244383475,-0.6899414,-0.0725708,-0.7127075,0.015625,-0.546875,0.296875,68
9,1696244383515,-0.69018555,-0.06451416,-0.68927,-0.34375,0.28125,0.46875,69
10,1696244383555,-0.69555664,-0.066223145,-0.7246704,-0.671875,0.234375,0.5,70
11,1696244383595,-0.6916504,-0.07525635,-0.6929321,-0.609375,1.0,0.671875,71
12,1696244383635,-0.69262695,-0.070617676,-0.71051025,0.109375,-0.390625,0.203125,72
13,1696244383675,-0.68310547,-0.07159424,-0.6975708,0.078125,-0.03125,0.203125,73
14,1696244383715,-0.6958008,-0.074035645,-0.71051025,0.109375,-0.140625,0.171875,74
15,1696244383755,-0.6945801,-0.07330322,-0.7102661,-0.171875,-0.046875,0.234375,75
16,1696244383795,-0.6982422,-0.06842041,-0.71221924,-0.328125,0.09375,0.375,76
17,1696244383835,-0.6894531,-0.07086182,-0.70562744,-0.484375,-0.015625,0.421875,77
18,1696244383875,-0.69311523,-0.08282471,-0.70098877,-0.3125,0.09375,0.390625,78
19,1696244383915,-0.701416,-0.07891846,-0.71832275,0.046875,-0.671875,0.203125,79
20,1696244383955,-0.6899414,-0.070373535,-0.7058716,-0.28125,-0.375,0.265625,80
21,1696244383995,-0.68896484,-0.074523926,-0.7005005,-0.015625,-0.375,0.203125,81
22,1696244384035,-0.6894531,-0.069885254,-0.7029419,0.09375,-0.390625,0.28125,82
23,1696244384075,-0.7011719,-0.07354736,-0.710022,-0.1875,0.140625,0.25,83
24,1696244384115,-0.69140625,-0.07305908,-0.7112427,-0.171875,-0.0625,0.453125,84
25,1696244384155,-0.6982422,-0.073791504,-0.70318604,-0.03125,-0.015625,0.453125,85
26,1696244384195,-0.7019043,-0.08135986,-0.70562744,-0.34375,0.609375,0.46875,86
27,1696244384235,-0.7043457,-0.06817627,-0.7041626,-0.234375,0.71875,0.390625,87
28,1696244384275,-0.7060547,-0.069885254,-0.7046509,-0.171875,0.296875,0.546875,88
29,1696244384315,-0.6989746,-0.07574463,-0.7107544,-0.4375,0.5625,0.4375,89
30,1696244384355,-0.6999512,-0.07965088,-0.7161255,-0.046875,-0.171875,0.40625,90
31,1696244384395,-0.7038574,-0.08087158,-0.6995239,-0.828125,1.453125,0.65625,91
32,1696244384435,-0.6989746,-0.082336426,-0.6963501,0.15625,0.03125,0.40625,92
33,1696244384475,-0.70654297,-0.07989502,-0.6980591,0.21875,-0.328125,0.140625,93
34,1696244384515,-0.70458984,-0.07965088,-0.6934204,0.0,0.078125,0.296875,94
35,1696244384555,-0.7055664,-0.081848145,-0.69854736,-0.0625,-0.046875,0.34375,95
36,1696244384595,-0.7043457,-0.078186035,-0.7029419,-0.296875,0.15625,0.40625,96
37,1696244384635,-0.7060547,-0.07696533,-0.7058716,-0.375,-0.46875,0.359375,97
38,1696244384675,-0.6948242,-0.08258057,-0.68927,-0.515625,0.453125,0.4375,98
39,1696244384715,-0.6999512,-0.08258057,-0.6890259,0.03125,0.03125,0.125,99
40,1696244384755,-0.70874023,-0.08721924,-0.6968384,0.0,-0.46875,0.359375,100
41,1696244384795,-0.70458984,-0.08404541,-0.69537354,0.265625,-0.453125,0.140625,101
42,1696244384835,-0.7077637,-0.081848145,-0.70318604,-0.0625,0.03125,0.265625,102
43,1696244384875,-0.70214844,-0.08306885,-0.6904907,-0.140625,0.125,0.203125,103
44,1696244384915,-0.7080078,-0.08135986,-0.6970825,-0.140625,0.171875,0.453125,104
45,1696244384955,-0.7036133,-0.08428955,-0.6878052,0.0,0.125,0.265625,105
46,1696244384995,-0.6972656,-0.08917236,-0.6902466,-0.21875,0.28125,0.484375,106
47,1696244385035,-0.6999512,-0.082336426,-0.6860962,0.0625,-0.0625,0.5,107
48,1696244385075,-0.7080078,-0.0803833,-0.6873169,0.28125,-0.546875,0.265625,108
49,1696244385115,-0.7067871,-0.0791626,-0.6802368,-0.0625,0.296875,0.453125,109
50,1696244385155,-0.7141113,-0.07867432,-0.7085571,-0.671875,0.53125,0.515625,110
51,1696244385195,-0.7128906,-0.089416504,-0.6826782,-0.265625,1.234375,0.625,111
52,1696244385235,-0.71313477,-0.086242676,-0.68707275,0.234375,-0.140625,0.453125,112
53,1696244385275,-0.71191406,-0.08380127,-0.6917114,0.03125,-0.375,0.109375,113
54,1696244385315,-0.7175293,-0.08306885,-0.6885376,-0.140625,-0.328125,0.34375,114
55,1696244385355,-0.701416,-0.08795166,-0.6807251,0.15625,-0.59375,0.25,115
56,1696244385395,-0.71484375,-0.08135986,-0.6921997,0.03125,-0.75,0.234375,116
57,1696244385435,-0.7080078,-0.08013916,-0.6865845,-0.546875,-0.390625,0.421875,117
58,1696244385475,-0.71191406,-0.08477783,-0.6914673,-0.265625,-0.21875,0.3125,118
59,1696244385515,-0.7145996,-0.08135986,-0.7007446,-0.203125,-0.078125,0.390625,119
60,1696244385555,-0.6965332,-0.07501221,-0.7053833,-0.1875,-0.234375,0.046875,151
61,1696244385595,-0.6994629,-0.08282471,-0.7053833,-0.03125,-0.125,0.109375,152
62,1696244385635,-0.6994629,-0.07745361,-0.69732666,-0.21875,-0.125,0.109375,153
63,1696244385675,-0.69311523,-0.07330322,-0.706604,-0.03125,-0.640625,0.171875,154
64,1696244385715,-0.69262695,-0.07550049,-0.7112427,-0.234375,-0.5,0.234375,155
65,1696244385755,-0.69506836,-0.07745361,-0.71295166,-0.03125,-0.890625,0.109375,156
66,1696244385795,-0.69311523,-0.081604004,-0.7041626,-0.34375,-0.359375,0.25,157
67,1696244385835,-0.6948242,-0.08380127,-0.7046509,0.1875,-0.515625,0.234375,158
68,1696244385875,-0.69140625,-0.07476807,-0.7022095,0.015625,-0.46875,0.15625,159
69,1696244385915,-0.6882324,-0.07354736,-0.70806885,0.15625,-0.484375,0.09375,160
70,1696244385955,-0.69140625,-0.08062744,-0.71173096,0.140625,-0.40625,0.140625,161
71,1696244385995,-0.68969727,-0.07647705,-0.7073364,-0.015625,-0.390625,0.234375,162
72,1696244386035,-0.69970703,-0.07623291,-0.71221924,-0.171875,-0.3125,0.0625,163
73,1696244386075,-0.70214844,-0.07891846,-0.7090454,-0.203125,-0.359375,0.265625,164
74,1696244386115,-0.68847656,-0.077941895,-0.7073364,-0.21875,0.015625,0.328125,165
75,1696244386155,-0.6904297,-0.082336426,-0.7005005,0.0,-0.203125,0.125,166
76,1696244386195,-0.6850586,-0.08331299,-0.7005005,-0.046875,-0.59375,0.125,167
77,1696244386235,-0.6989746,-0.07720947,-0.70977783,-0.171875,0.109375,0.21875,168
78,1696244386275,-0.69433594,-0.08135986,-0.7173462,0.03125,-0.671875,0.171875,169
79,1696244386315,-0.6970215,-0.08331299,-0.7007446,-0.84375,0.6875,0.375,170
80,1696244386355,-0.6977539,-0.07965088,-0.70391846,-0.03125,-0.625,0.109375,171
81,1696244386395,-0.68652344,-0.08135986,-0.7024536,-0.1875,-0.0625,0.3125,172
82,1696244386435,-0.6970215,-0.0791626,-0.7022095,-0.125,-0.359375,0.09375,173
83,1696244386475,-0.6933594,-0.082336426,-0.7007446,-0.140625,-0.1875,0.21875,174
84,1696244386515,-0.69555664,-0.082092285,-0.706604,-0.21875,-0.125,0.25,175
85,1696244386555,-0.69750977,-0.07989502,-0.6995239,-0.171875,-0.46875,0.140625,176
86,1696244386595,-0.6904297,-0.07891846,-0.7029419,-0.21875,-0.296875,0.125,177
87,1696244386635,-0.6940918,-0.07476807,-0.69976807,-0.125,-0.140625,0.171875,178
88,1696244386675,-0.69799805,-0.08087158,-0.7053833,-0.0625,-0.484375,0.078125,179
89,1696244386715,-0.6953125,-0.08013916,-0.708313,0.09375,-0.546875,0.265625,180
90,1696244386755,-0.69433594,-0.07867432,-0.7058716,0.03125,-0.46875,0.234375,181
91,1696244386795,-0.701416,-0.08135986,-0.7007446,-0.03125,-0.1875,0.21875,182
92,1696244386835,-0.69433594,-0.08502197,-0.70196533,-0.140625,-0.328125,0.21875,183
93,1696244386875,-0.69970703,-0.07574463,-0.7022095,-0.109375,-0.34375,0.3125,184
94,1696244386915,-0.69921875,-0.08453369,-0.6987915,-0.296875,-0.078125,0.109375,185
95,1696244386955,-0.69750977,-0.08135986,-0.70147705,-0.265625,0.046875,0.234375,186
96,1696244386995,-0.69921875,-0.081848145,-0.70025635,-0.265625,-0.390625,0.171875,187
97,1696244387035,-0.6940918,-0.082092285,-0.6975708,-0.3125,-0.265625,0.265625,188
98,1696244387075,-0.6933594,-0.07867432,-0.7073364,-0.546875,0.234375,0.234375,189
99,1696244387115,-0.69921875,-0.08062744,-0.6987915,-0.328125,-0.078125,0.1875,190
100,1696244387155,-0.6921387,-0.07720947,-0.70684814,-0.09375,-0.09375,0.234375,191
101,1696244387195,-0.69873047,-0.081604004,-0.71099854,0.15625,-0.53125,0.25,192
102,1696244387235,-0.7036133,-0.08673096,-0.70440674,-0.90625,0.9375,0.421875,193
103,1696244387275,-0.6972656,-0.081848145,-0.69610596,0.09375,-0.203125,0.03125,194
104,1696244387315,-0.6999512,-0.078430176,-0.70269775,0.125,-0.46875,0.21875,195
105,1696244387355,-0.69555664,-0.08306885,-0.69903564,0.09375,-0.171875,0.203125,196
106,1696244387395,-0.7006836,-0.085510254,-0.69195557,-0.09375,-0.203125,0.328125,197
107,1696244387435,-0.7055664,-0.08380127,-0.7017212,-0.25,-0.28125,0.15625,198
108,1696244387475,-0.6899414,-0.086242676,-0.6856079,-0.078125,-0.125,0.359375,199
109,1696244387515,-0.703125,-0.08673096,-0.6939087,-0.484375,0.296875,0.328125,200
110,1696244387555,-0.6999512,-0.08721924,-0.69415283,-0.046875,-0.375,0.21875,201
111,1696244387595,-0.7026367,-0.08258057,-0.7017212,0.3125,-0.65625,0.203125,202
112,1696244387635,-0.70166016,-0.08306885,-0.69366455,0.109375,-0.484375,0.171875,203
113,1696244387675,-0.701416,-0.0869751,-0.69854736,0.078125,0.0,0.1875,204
114,1696244387715,-0.69555664,-0.08453369,-0.6958618,-0.234375,-0.28125,0.234375,205
115,1696244387755,-0.6999512,-0.077697754,-0.7022095,-0.140625,-0.109375,0.21875,206
116,1696244387795,-0.7001953,-0.08770752,-0.70147705,-0.5,0.109375,0.328125,207
117,1696244387835,-0.69873047,-0.08673096,-0.69903564,-0.171875,-0.34375,0.140625,208
118,1696244387875,-0.7043457,-0.08404541,-0.69195557,-0.25,-0.3125,0.28125,209
119,1696244387915,-0.6965332,-0.0791626,-0.69732666,0.0625,-0.625,0.25,210
120,1696244387955,-0.704834,-0.082336426,-0.70025635,-0.15625,-0.578125,0.265625,211
121,1696244387995,-0.6945801,-0.08404541,-0.692688,0.078125,-0.25,0.21875,212
122,1696244388035,-0.70751953,-0.08355713,-0.6951294,-0.15625,-0.21875,0.171875,213
123,1696244388075,-0.6933594,-0.08868408,-0.690979,-0.078125,-0.578125,0.15625,214
124,1696244388115,-0.7055664,-0.08673096,-0.69659424,0.0625,-0.171875,0.171875,215
125,1696244388155,-0.70336914,-0.08453369,-0.70391846,-0.28125,-0.140625,0.359375,216
126,1696244388195,-0.69921875,-0.08477783,-0.6812134,-0.578125,0.78125,0.453125,217
127,1696244388235,-0.70166016,-0.086242676,-0.6921997,0.265625,-0.859375,0.328125,218
128,1696244388275,-0.69970703,-0.0869751,-0.69488525,0.15625,-0.296875,0.34375,219
129,1696244388315,-0.703125,-0.085998535,-0.6914673,-0.0625,-0.28125,0.28125,220
130,1696244388355,-0.7072754,-0.081604004,-0.6983032,-0.171875,0.125,0.1875,221
131,1696244388395,-0.7036133,-0.08477783,-0.69659424,-0.421875,-0.140625,0.1875,222
132,1696244388435,-0.6994629,-0.07867432,-0.6970825,-0.3125,-0.34375,0.34375,223
133,1696244388475,-0.7092285,-0.09088135,-0.69366455,-0.1875,-0.09375,0.453125,224
134,1696244388515,-0.7006836,-0.089660645,-0.68829346,0.25,-0.765625,0.265625,225
135,1696244388555,-0.7026367,-0.08746338,-0.69659424,0.265625,-0.234375,0.25,226
136,1696244388595,-0.70703125,-0.08721924,-0.6983032,0.203125,-0.40625,0.265625,227
137,1696244388635,-0.7060547,-0.09063721,-0.6921997,0.046875,-0.21875,0.125,228
138,1696244388675,-0.7019043,-0.08477783,-0.69659424,-0.296875,-0.09375,0.34375,229
139,1696244388715,-0.704834,-0.0869751,-0.6968384,-0.421875,-0.03125,0.328125,230
140,1696244388755,-0.7116699,-0.08013916,-0.6921997,-0.34375,-0.140625,0.40625,231
141,1696244388795,-0.70458984,-0.089904785,-0.6956177,-0.265625,-0.34375,0.390625,232
142,1696244388835,-0.7126465,-0.09112549,-0.690979,-0.21875,0.375,0.4375,233
143,1696244388875,-0.70703125,-0.08404541,-0.68756104,-0.25,0.21875,0.53125,234
144,1696244388915,-0.7084961,-0.08917236,-0.6914673,-0.296875,0.21875,0.375,235
145,1696244388955,-0.7060547,-0.09307861,-0.69195557,-0.234375,-0.125,0.328125,236
146,1696244388995,-0.72094727,-0.08404541,-0.6939087,-0.09375,-0.046875,0.25,237
147,1696244389035,-0.7055664,-0.09210205,-0.6848755,-0.1875,-0.03125,0.34375,238
148,1696244389075,-0.7062988,-0.09576416,-0.69659424,-0.265625,-0.40625,0.171875,239
149,1696244389115,-0.71435547,-0.09283447,-0.69122314,-1.078125,1.1875,0.453125,240
150,1696244389155,-0.70996094,-0.09625244,-0.6826782,-0.046875,0.015625,0.296875,241
151,1696244389195,-0.71728516,-0.09210205,-0.68756104,0.234375,-0.46875,0.046875,242
152,1696244389235,-0.70996094,-0.09210205,-0.69537354,0.09375,-0.03125,0.1875,243
153,1696244389275,-0.71313477,-0.086242676,-0.6890259,0.03125,0.21875,0.203125,244
154,1696244389315,-0.71899414,-0.09161377,-0.6890259,-0.28125,0.1875,0.109375,245
155,1696244389355,-0.7104492,-0.09210205,-0.6790161,-0.265625,0.03125,0.203125,246
156,1696244389395,-0.70874023,-0.09283447,-0.6860962,-0.4375,0.40625,0.421875,247
157,1696244389435,-0.7114258,-0.093322754,-0.6802368,-0.203125,-0.25,0.375,248
158,1696244389475,-0.7167969,-0.09259033,-0.6856079,-0.078125,-0.125,0.359375,249
159,1696244389515,-0.7158203,-0.09820557,-0.68292236,0.234375,-0.46875,0.1875,250
160,1696244389555,-0.7224121,-0.0947876,-0.69073486,0.1875,-0.125,0.078125,251
161,1696244389595,-0.71655273,-0.093322754,-0.67755127,0.0,-0.0625,0.15625,252
162,1696244389635,-0.7194824,-0.08892822,-0.69000244,-0.09375,-0.609375,0.203125,253
163,1696244389675,-0.71191406,-0.09527588,-0.6799927,-0.046875,-0.84375,0.125,254
164,1696244389715,-0.70996094,-0.09649658,-0.67974854,0.453125,-1.46875,-0.140625,255
165,1696244389755,-0.71191406,-0.0881958,-0.66534424,1.28125,-2.71875,-0.25,256
166,1696244389795,-0.71313477,-0.08917236,-0.6848755,1.234375,-4.375,-0.15625,257
167,1696244389835,-0.7097168,-0.08502197,-0.6951294,0.890625,-3.5625,0.125,258
168,1696244389875,-0.7023926,-0.08404541,-0.70562744,-0.359375,-0.734375,0.21875,259
169,1696244389915,-0.6999512,-0.089904785,-0.68634033,-0.140625,-1.8125,0.171875,260
170,1696244389955,-0.7089844,-0.09210205,-0.6946411,-0.4375,-1.453125,0.1875,261
171,1696244389995,-0.704834,-0.089660645,-0.69317627,-0.046875,-1.0625,-0.078125,262
172,1696244390035,-0.69384766,-0.09112549,-0.6795044,0.234375,-2.4375,0.09375,263
173,1696244390075,-0.6965332,-0.08746338,-0.70562744,1.03125,-3.5,0.0,264
174,1696244390115,-0.70043945,-0.08477783,-0.7119751,0.84375,-2.625,-0.15625,265
175,1696244390155,-0.69970703,-0.085998535,-0.6992798,0.5625,-1.6875,-0.203125,266
176,1696244390195,-0.6965332,-0.078430176,-0.7073364,-0.015625,-1.734375,0.0625,267
177,1696244390235,-0.6923828,-0.08453369,-0.710022,-0.65625,-0.671875,0.40625,268
178,1696244390275,-0.69262695,-0.08917236,-0.7124634,0.171875,-1.078125,0.265625,269
179,1696244390315,-0.6845703,-0.082336426,-0.70025635,-0.03125,-0.625,0.1875,270
180,1696244390355,-0.67529297,-0.08868408,-0.7034302,0.15625,-0.984375,0.109375,271
181,1696244390395,-0.68969727,-0.08673096,-0.7139282,0.140625,-0.40625,0.125,272
182,1696244390435,-0.6906738,-0.08526611,-0.71051025,0.046875,-0.296875,0.0,273
183,1696244390475,-0.6945801,-0.08428955,-0.7124634,0.1875,-0.09375,-0.0625,274
184,1696244390515,-0.6936035,-0.086242676,-0.7127075,-0.0625,0.0,0.203125,275
185,1696244390555,-0.69799805,-0.085510254,-0.71539307,-0.25,-0.015625,0.078125,276
186,1696244390595,-0.6933594,-0.085998535,-0.7012329,-0.046875,-0.15625,0.109375,277
187,1696244390635,-0.6958008,-0.082336426,-0.7036743,-0.0625,-0.015625,0.09375,278
188,1696244390675,-0.6911621,-0.082092285,-0.704895,-0.09375,-0.3125,0.109375,279
189,1696244390715,-0.6887207,-0.08380127,-0.69366455,0.34375,-0.71875,0.125,280
190,1696244390755,-0.6882324,-0.08477783,-0.71343994,-0.15625,-0.234375,0.0,281
191,1696244390795,-0.6965332,-0.07989502,-0.71954346,0.328125,-0.8125,0.171875,282
192,1696244390835,-0.68969727,-0.07965088,-0.7107544,-0.5625,0.578125,0.15625,283
193,1696244390875,-0.6994629,-0.081848145,-0.70684814,0.109375,0.0625,0.046875,284
194,1696244390915,-0.69091797,-0.08087158,-0.7017212,0.1875,0.078125,-0.125,285
195,1696244390955,-0.6845703,-0.085510254,-0.7017212,-0.125,0.234375,0.03125,286
196,1696244390995,-0.69433594,-0.07989502,-0.6970825,0.203125,-0.40625,0.09375,287
197,1696244391035,-0.6906738,-0.08282471,-0.7053833,0.03125,-0.46875,-0.046875,288
198,1696244391075,-0.68652344,-0.085754395,-0.69317627,-0.015625,-0.546875,0.21875,289
199,1696244391115,-0.69921875,-0.08258057,-0.7053833,0.0,-0.296875,0.296875,290
200,1696244391155,-0.6899414,-0.08673096,-0.70147705,-0.03125,-0.5,0.28125,291
201,1696244391195,-0.6875,-0.0803833,-0.70977783,0.296875,-0.796875,0.09375,292
202,1696244391235,-0.7006836,-0.08087158,-0.7070923,0.125,-0.65625,0.171875,293
203,1696244391275,-0.6879883,-0.08355713,-0.70440674,0.265625,-0.71875,0.0625,294
204,1696244391315,-0.6945801,-0.07672119,-0.70977783,-0.03125,-0.0625,0.140625,295
205,1696244391355,-0.6977539,-0.082336426,-0.7070923,-0.15625,-0.25,0.296875,296
206,1696244391395,-0.6923828,-0.07574463,-0.70806885,-0.046875,-0.375,0.203125,297
207,1696244391435,-0.703125,-0.07867432,-0.7078247,-0.125,0.125,0.109375,298
208,1696244391475,-0.6887207,-0.081604004,-0.69854736,-0.078125,-0.078125,0.1875,299
209,1696244391515,-0.68481445,-0.0869751,-0.7173462,-0.578125,0.578125,0.359375,300
210,1696244391555,-0.70092773,-0.07940674,-0.7131958,-0.140625,-0.109375,0.265625,301
211,1696244391595,-0.69311523,-0.08428955,-0.70318604,-1.203125,1.4375,0.328125,302
212,1696244391635,-0.6911621,-0.081848145,-0.6902466,0.328125,-0.40625,0.078125,303
213,1696244391675,-0.7006836,-0.08282471,-0.70684814,0.140625,-0.5625,0.1875,304
214,1696244391715,-0.6911621,-0.08428955,-0.6958618,0.125,-0.484375,0.15625,305
215,1696244391755,-0.69262695,-0.07867432,-0.6968384,0.15625,-0.546875,0.1875,306
216,1696244391795,-0.7006836,-0.08087158,-0.7078247,-0.25,-0.5625,0.28125,307
217,1696244391835,-0.69628906,-0.08770752,-0.6946411,-0.203125,-0.453125,0.25,308
218,1696244391875,-0.6960449,-0.090148926,-0.69732666,-0.3125,-0.09375,0.34375,309
219,1696244391915,-0.69189453,-0.085998535,-0.6980591,-0.0625,-0.375,0.1875,310
220,1696244391955,-0.69506836,-0.08404541,-0.7085571,0.265625,-0.8125,0.078125,311
221,1696244391995,-0.6850586,-0.082336426,-0.6992798,0.25,-0.34375,0.15625,312
222,1696244392035,-0.7055664,-0.08331299,-0.71343994,0.359375,-0.609375,0.046875,313
223,1696244392075,-0.6940918,-0.08453369,-0.70391846,0.0625,-0.453125,0.140625,314
224,1696244392115,-0.7062988,-0.08111572,-0.710022,-0.078125,-0.375,0.140625,315
225,1696244392155,-0.6989746,-0.081848145,-0.704895,-0.09375,-0.03125,0.25,316
226,1696244392195,-0.69384766,-0.08258057,-0.70025635,0.125,-0.421875,0.234375,317
227,1696244392235,-0.6960449,-0.08135986,-0.69244385,-0.015625,-0.578125,0.390625,318
228,1696244392275,-0.6977539,-0.08404541,-0.7073364,-0.1875,0.0625,0.21875,319
229,1696244392315,-0.6984863,-0.085510254,-0.71343994,0.21875,-0.984375,0.1875,320
230,1696244392355,-0.6928711,-0.0803833,-0.6983032,-0.53125,0.265625,0.28125,321
231,1696244392395,-0.6958008,-0.08428955,-0.7053833,0.25,-0.59375,0.09375,322
232,1696244392435,-0.69677734,-0.07940674,-0.70098877,0.09375,-0.671875,0.203125,323
233,1696244392475,-0.7023926,-0.07891846,-0.7107544,-0.015625,-0.453125,0.109375,324
234,1696244392515,-0.703125,-0.07623291,-0.7046509,-0.078125,0.0,0.125,325
235,1696244392555,-0.6958008,-0.08135986,-0.7046509,-0.1875,-0.421875,0.234375,326
236,1696244392595,-0.6958008,-0.08380127,-0.70758057,0.15625,-0.625,0.109375,327
237,1696244392635,-0.6906738,-0.08428955,-0.7090454,-0.21875,-0.0625,0.21875,328
238,1696244392675,-0.70288086,-0.081848145,-0.69976807,0.171875,-0.34375,0.140625,329
239,1696244392715,-0.6936035,-0.0869751,-0.706604,-0.046875,-0.28125,0.109375,330
240,1696244392755,-0.69921875,-0.0803833,-0.7000122,-0.046875,-0.265625,0.171875,331
241,1696244392795,-0.6984863,-0.077941895,-0.69976807,0.109375,-0.390625,0.171875,332
242,1696244392835,-0.69384766,-0.082092285,-0.7029419,0.015625,-0.46875,0.328125,333
243,1696244392875,-0.6958008,-0.08135986,-0.70391846,-0.171875,-0.5625,0.328125,334
244,1696244392915,-0.70043945,-0.08331299,-0.69976807,-0.265625,-0.359375,0.265625,335
245,1696244392955,-0.6999512,-0.08355713,-0.7005005,-0.203125,-0.421875,0.265625,336
246,1696244392995,-0.704834,-0.08135986,-0.7041626,-0.109375,-0.359375,0.203125,337
247,1696244393035,-0.7001953,-0.08331299,-0.69537354,0.03125,-0.34375,0.171875,338
248,1696244393075,-0.69384766,-0.08282471,-0.70806885,-0.328125,0.15625,0.1875,339
249,1696244393115,-0.70410156,-0.07989502,-0.7136841,0.125,-0.515625,0.234375,340
250,1696244393155,-0.70214844,-0.07891846,-0.70147705,-0.53125,0.671875,0.328125,341
251,1696244393195,-0.7026367,-0.08404541,-0.6992798,0.171875,-0.4375,0.15625,342
252,1696244393235,-0.6994629,-0.082092285,-0.69903564,-0.09375,-0.234375,0.21875,343
253,1696244393275,-0.70336914,-0.08282471,-0.69537354,0.09375,-0.4375,0.234375,344
254,1696244393315,-0.69799805,-0.082092285,-0.70684814,-0.328125,-0.234375,0.171875,345
255,1696244393355,-0.69873047,-0.08795166,-0.70758057,-0.34375,-0.015625,0.328125,346
256,1696244393395,-0.6965332,-0.08380127,-0.70758057,-0.09375,-0.71875,0.125,347
257,1696244393435,-0.7055664,-0.086242676,-0.69488525,-0.359375,-0.140625,0.234375,348
258,1696244393475,-0.6965332,-0.085998535,-0.694397,-0.265625,-0.328125,0.1875,349
259,1696244393515,-0.7084961,-0.08673096,-0.7012329,0.125,-0.625,0.203125,350
260,1696244393555,-0.69750977,-0.08526611,-0.7000122,0.0625,-0.625,0.15625,351
261,1696244393595,-0.7011719,-0.08648682,-0.7022095,0.15625,-0.328125,0.203125,352
262,1696244393635,-0.7062988,-0.08502197,-0.69903564,0.078125,-0.25,0.15625,353
263,1696244393675,-0.6999512,-0.08843994,-0.6970825,-0.140625,-0.40625,0.21875,354
264,1696244393715,-0.70043945,-0.086242676,-0.704895,-0.21875,-0.234375,0.125,355
265,1696244393755,-0.70092773,-0.089904785,-0.70269775,-0.171875,-0.140625,0.203125,356
266,1696244393795,-0.69628906,-0.08013916,-0.6946411,0.0,-0.359375,0.03125,357
267,1696244393835,-0.6984863,-0.08355713,-0.69610596,-0.09375,-0.09375,0.09375,358
268,1696244393875,-0.6948242,-0.0803833,-0.6939087,-0.046875,-0.140625,0.296875,359
269,1696244393915,-0.7026367,-0.0803833,-0.70269775,0.0,-0.421875,0.21875,360
270,1696244393955,-0.701416,-0.08380127,-0.6716919,0.046875,-0.484375,0.453125,361
271,1696244393995,-0.7097168,-0.081604004,-0.71417236,-0.625,0.28125,0.578125,362
272,1696244394035,-0.69799805,-0.09136963,-0.6799927,-0.078125,-0.09375,0.21875,363
273,1696244394075,-0.70043945,-0.086242676,-0.6958618,0.1875,-0.75,0.140625,364
274,1696244394115,-0.7038574,-0.08648682,-0.69000244,-0.234375,-0.453125,0.21875,365
275,1696244394155,-0.70581055,-0.090148926,-0.6970825,-0.078125,-0.4375,0.203125,366
276,1696244394195,-0.6984863,-0.08648682,-0.6956177,-0.078125,0.09375,0.296875,367
277,1696244394235,-0.7104492,-0.08306885,-0.6939087,-0.390625,0.140625,0.453125,368
278,1696244394275,-0.7067871,-0.08843994,-0.7029419,-0.46875,0.09375,0.34375,369
279,1696244394315,-0.69799805,-0.09063721,-0.6921997,-0.125,-0.21875,0.25,370
280,1696244394355,-0.70458984,-0.086242676,-0.69976807,0.125,-0.65625,0.296875,371
281,1696244394395,-0.7043457,-0.09039307,-0.69659424,0.0,-0.265625,0.15625,372
282,1696244394435,-0.70410156,-0.08843994,-0.6980591,0.109375,-0.265625,0.109375,373
283,1696244394475,-0.7060547,-0.08453369,-0.69366455,0.0,-0.140625,0.1875,374
284,1696244394515,-0.7043457,-0.085754395,-0.6975708,0.03125,-0.25,0.234375,375
285,1696244394555,-0.7089844,-0.08917236,-0.6939087,-0.25,0.078125,0.515625,376
286,1696244394595,-0.704834,-0.093322754,-0.6970825,-0.03125,-0.015625,0.328125,377
287,1696244394635,-0.7128906,-0.08428955,-0.6921997,0.0625,0.0,0.234375,378
288,1696244394675,-0.7026367,-0.08526611,-0.6880493,-0.234375,-0.265625,0.28125,379
289,1696244394715,-0.70166016,-0.09039307,-0.6790161,0.109375,-0.546875,0.15625,380
290,1696244394755,-0.7043457,-0.08868408,-0.6885376,0.21875,-1.078125,0.234375,381
291,1696244394795,-0.7080078,-0.08380127,-0.6992798,-0.203125,-0.328125,0.25,382
292,1696244394835,-0.70654297,-0.082336426,-0.7139282,0.0,-0.890625,0.203125,383
293,1696244394875,-0.70751953,-0.085754395,-0.6970825,-0.609375,0.359375,0.34375,384
294,1696244394915,-0.7104492,-0.08355713,-0.6968384,-0.140625,-0.296875,0.28125,385
295,1696244394955,-0.7023926,-0.08453369,-0.6939087,-0.234375,0.203125,0.1875,386
296,1696244394995,-0.7080078,-0.08648682,-0.69244385,-0.046875,0.28125,0.296875,387
297,1696244395035,-0.70874023,-0.08331299,-0.69122314,-0.328125,0.59375,0.328125,388
298,1696244395075,-0.7077637,-0.08428955,-0.690979,-0.125,-0.046875,0.3125,389
299,1696244395115,-0.7194824,-0.08673096,-0.7112427,-0.234375,-0.734375,0.265625,390
300,1696244395155,-0.7084961,-0.08770752,-0.692688,-0.671875,1.1875,0.65625,391
301,1696244395195,-0.7084961,-0.09112549,-0.6799927,-0.171875,0.703125,0.5625,392
302,1696244395235,-0.703125,-0.08746338,-0.6929321,0.03125,0.046875,0.375,393
303,1696244395275,-0.7077637,-0.093811035,-0.69122314,0.078125,-0.15625,0.234375,394
304,1696244395315,-0.71972656,-0.09161377,-0.69000244,0.078125,0.015625,0.234375,395
305,1696244395355,-0.7109375,-0.081848145,-0.6807251,-0.109375,-0.25,0.09375,396
306,1696244395395,-0.71728516,-0.0881958,-0.69000244,-0.046875,-0.40625,0.296875,397
307,1696244395435,-0.7175293,-0.089904785,-0.6865845,-0.03125,-0.46875,0.296875,398
308,1696244395475,-0.70825195,-0.093811035,-0.68878174,-0.03125,-0.53125,0.359375,399
309,1696244395515,-0.70874023,-0.0869751,-0.68341064,-0.25,-0.3125,0.234375,400
310,1696244395555,-0.7104492,-0.085998535,-0.68634033,-0.296875,0.0,0.234375,401
311,1696244395595,-0.7104492,-0.09234619,-0.67803955,0.125,-0.203125,0.328125,402
312,1696244395635,-0.7038574,-0.08502197,-0.68536377,-0.09375,0.03125,-0.109375,403
313,1696244395675,-0.7175293,-0.09063721,-0.6902466,0.328125,-0.890625,0.203125,404
314,1696244395715,-0.7116699,-0.085754395,-0.6851196,0.15625,-0.59375,-0.0625,405
315,1696244395755,-0.7121582,-0.085998535,-0.6856079,1.234375,-3.765625,-0.359375,406
316,1696244395795,-0.7128906,-0.08258057,-0.6939087,0.109375,-3.46875,-0.265625,407
317,1696244395835,-0.7019043,-0.08673096,-0.6897583,1.6875,-3.734375,-0.234375,408
318,1696244395875,-0.7104492,-0.08135986,-0.7053833,1.21875,-2.375,-0.15625,409
319,1696244395915,-0.70288086,-0.085510254,-0.6946411,-0.015625,-1.375,0.171875,410
320,1696244395955,-0.6999512,-0.08868408,-0.6963501,0.796875,-1.609375,0.09375,411
321,1696244395995,-0.6972656,-0.086242676,-0.6921997,-0.109375,-0.671875,0.21875,412
322,1696244396035,-0.6989746,-0.08453369,-0.70147705,-0.125,-0.609375,0.171875,413
323,1696244396075,-0.6989746,-0.089660645,-0.6958618,-0.1875,-0.28125,0.234375,414
324,1696244396115,-0.7011719,-0.0791626,-0.70025635,0.34375,-0.6875,0.171875,415
325,1696244396155,-0.6953125,-0.08380127,-0.7005005,-0.0625,-0.328125,0.21875,416
326,1696244396195,-0.6882324,-0.081604004,-0.7017212,-0.09375,-0.3125,0.21875,417
327,1696244396235,-0.69433594,-0.08282471,-0.69854736,-0.46875,-0.015625,0.25,418
328,1696244396275,-0.704834,-0.08502197,-0.69537354,-0.15625,-0.359375,0.171875,419
329,1696244396315,-0.69750977,-0.08111572,-0.69610596,-0.234375,-0.125,0.25,420
330,1696244396355,-0.69506836,-0.08843994,-0.6980591,0.09375,-0.59375,0.171875,421
331,1696244396395,-0.70532227,-0.08380127,-0.6968384,-0.046875,-0.578125,0.09375,422
332,1696244396435,-0.70043945,-0.08721924,-0.70098877,0.21875,-0.34375,0.09375,423
333,1696244396475,-0.69921875,-0.08380127,-0.7070923,0.078125,-0.671875,0.171875,424
334,1696244396515,-0.6982422,-0.08331299,-0.7034302,-0.734375,0.34375,0.15625,425
335,1696244396555,-0.7011719,-0.08428955,-0.69488525,-0.09375,-0.296875,0.078125,426
336,1696244396595,-0.70458984,-0.09063721,-0.7034302,-0.046875,-0.484375,0.125,427
337,1696244396635,-0.7038574,-0.085510254,-0.70098877,-0.1875,-0.140625,0.140625,428
338,1696244396675,-0.6965332,-0.08648682,-0.69366455,-0.203125,-0.28125,0.265625,429
339,1696244396715,-0.70043945,-0.089416504,-0.7024536,-0.140625,-0.484375,0.1875,430
340,1696244396755,-0.6960449,-0.081848145,-0.69000244,0.171875,-0.6875,0.15625,431
341,1696244396795,-0.69921875,-0.08428955,-0.70147705,-0.171875,-0.328125,0.3125,432
342,1696244396835,-0.6972656,-0.08404541,-0.7007446,0.03125,-0.5625,0.125,433
343,1696244396875,-0.6984863,-0.08746338,-0.70147705,0.0,-0.53125,0.203125,434
344,1696244396915,-0.69873047,-0.08355713,-0.69610596,0.125,-0.46875,0.125,435
345,1696244396955,-0.7023926,-0.085998535,-0.69854736,-0.015625,-0.578125,0.25,436
346,1696244396995,-0.69628906,-0.08331299,-0.6980591,0.0625,-0.34375,0.03125,437
347,1696244397035,-0.6916504,-0.08306885,-0.70098877,0.265625,-0.609375,0.28125,438
348,1696244397075,-0.701416,-0.08404541,-0.70513916,-0.1875,-0.390625,0.25,439
349,1696244397115,-0.6970215,-0.08868408,-0.69537354,-0.421875,-0.28125,0.203125,440
350,1696244397155,-0.6940918,-0.08502197,-0.69537354,-0.203125,-0.265625,0.25,441
351,1696244397195,-0.6948242,-0.08404541,-0.69415283,-0.078125,-0.578125,0.203125,442
352,1696244397235,-0.6904297,-0.07940674,-0.7022095,0.03125,-0.203125,0.21875,443
353,1696244397275,-0.7084961,-0.09283447,-0.71221924,0.21875,-0.890625,0.21875,444
354,1696244397315,-0.7026367,-0.081848145,-0.69415283,-0.703125,0.53125,0.375,445
355,1696244397355,-0.6999512,-0.08721924,-0.69732666,-0.125,-0.40625,0.15625,446
356,1696244397395,-0.701416,-0.081604004,-0.6958618,0.0,-0.640625,0.15625,447
357,1696244397435,-0.701416,-0.081848145,-0.7007446,-0.09375,-0.609375,0.140625,448
358,1696244397475,-0.6989746,-0.08258057,-0.70147705,-0.078125,-0.6875,0.21875,449
359,1696244397515,-0.6870117,-0.08380127,-0.6746216,0.234375,-1.140625,0.015625,450
360,1696244397555,-0.69970703,-0.08770752,-0.7041626,-0.109375,-2.3125,0.234375,451
361,1696244397595,-0.7084961,-0.08721924,-0.6983032,-0.1875,-1.78125,-0.078125,452
362,1696244397635,-0.6994629,-0.08502197,-0.7000122,0.609375,-3.015625,-0.625,453
363,1696244397675,-0.6833496,-0.09259033,-0.70806885,0.234375,-3.078125,-0.25,454
364,1696244397715,-0.6887207,-0.08282471,-0.71051025,-0.21875,-2.296875,-0.109375,455
365,1696244397755,-0.6916504,-0.08306885,-0.71221924,-0.59375,-1.71875,0.125,456
366,1696244397795,-0.689209,-0.08135986,-0.706604,-0.25,-1.328125,0.046875,457
367,1696244397835,-0.6875,-0.08258057,-0.70684814,0.296875,-1.3125,0.15625,458
368,1696244397875,-0.685791,-0.08355713,-0.7180786,0.015625,-0.90625,0.078125,459
369,1696244397915,-0.6911621,-0.08673096,-0.70318604,0.46875,-0.875,0.03125,460
370,1696244397955,-0.68408203,-0.077697754,-0.70928955,0.703125,-1.28125,-0.046875,461
371,1696244397995,-0.67944336,-0.07623291,-0.708313,0.46875,-0.984375,0.109375,462
372,1696244398035,-0.673584,-0.07891846,-0.70025635,-0.328125,0.1875,0.125,463
373,1696244398075,-0.6879883,-0.07086182,-0.72076416,-0.265625,0.140625,0.3125,464
374,1696244398115,-0.6867676,-0.08428955,-0.7046509,0.09375,0.15625,0.046875,465
375,1696244398155,-0.6838379,-0.08282471,-0.71710205,0.40625,-0.734375,-0.03125,466
376,1696244398195,-0.69140625,-0.08404541,-0.7178345,-0.125,0.109375,0.09375,467
377,1696244398235,-0.6945801,-0.077697754,-0.70928955,0.015625,-0.25,0.109375,468
378,1696244398275,-0.67407227,-0.078186035,-0.7073364,0.015625,-0.515625,0.125,469
379,1696244398315,-0.6862793,-0.082092285,-0.70880127,0.015625,-0.34375,0.3125,470
380,1696244398355,-0.68237305,-0.085754395,-0.7180786,-0.140625,-0.78125,0.109375,471
381,1696244398395,-0.6845703,-0.07354736,-0.70635986,-0.375,-0.34375,0.203125,472
382,1696244398435,-0.6828613,-0.07891846,-0.7168579,0.171875,-0.90625,-0.0625,473
383,1696244398475,-0.6813965,-0.07354736,-0.71173096,0.03125,-0.515625,0.171875,474
384,1696244398515,-0.68847656,-0.07965088,-0.71661377,0.171875,-0.546875,0.015625,475
385,1696244398555,-0.68188477,-0.07672119,-0.7151489,0.046875,-0.390625,0.09375,476
386,1696244398595,-0.68652344,-0.07476807,-0.7173462,-0.09375,-0.234375,0.125,477
387,1696244398635,-0.6765137,-0.07891846,-0.70635986,-0.09375,-0.21875,0.25,478
388,1696244398675,-0.6945801,-0.07525635,-0.7144165,-0.09375,-0.40625,0.328125,479
389,1696244398715,-0.68603516,-0.08087158,-0.7090454,0.015625,-0.453125,0.109375,480
390,1696244398755,-0.69311523,-0.07720947,-0.7190552,0.203125,-0.609375,0.171875,481
391,1696244398795,-0.6748047,-0.07989502,-0.68707275,0.234375,-0.765625,0.109375,482
392,1696244398835,-0.6948242,-0.07989502,-0.7258911,-0.375,-0.328125,0.203125,483
393,1696244398875,-0.6887207,-0.077941895,-0.6975708,-0.046875,-0.3125,0.0625,484
394,1696244398915,-0.68652344,-0.082336426,-0.72198486,0.125,-0.390625,0.203125,485
395,1696244398955,-0.6813965,-0.08306885,-0.69976807,0.25,-0.234375,0.203125,486
396,1696244398995,-0.6828613,-0.077941895,-0.7131958,0.03125,-0.515625,0.109375,487
397,1696244399035,-0.68408203,-0.07940674,-0.7149048,-0.140625,-0.109375,0.1875,488
398,1696244399075,-0.6945801,-0.08258057,-0.71295166,-0.3125,-0.140625,0.265625,489
399,1696244399115,-0.68237305,-0.078430176,-0.71417236,0.03125,-0.40625,0.28125,490
400,1696244399155,-0.6833496,-0.08258057,-0.71051025,-0.1875,-0.109375,0.234375,491
401,1696244399195,-0.67944336,-0.08306885,-0.704895,0.296875,-0.484375,0.140625,492
402,1696244399235,-0.67993164,-0.07672119,-0.706604,0.078125,-0.34375,0.0625,493
403,1696244399275,-0.6879883,-0.078186035,-0.7136841,0.203125,-0.390625,0.109375,494
404,1696244399315,-0.68603516,-0.07574463,-0.7168579,0.015625,-0.40625,0.046875,495
405,1696244399355,-0.6945801,-0.07965088,-0.7163696,0.03125,-0.21875,0.21875,496
406,1696244399395,-0.6826172,-0.08135986,-0.7102661,0.015625,-0.3125,0.15625,497
407,1696244399435,-0.6801758,-0.082336426,-0.7112427,-0.078125,-0.265625,0.1875,498
408,1696244399475,-0.69262695,-0.07574463,-0.7127075,-0.25,-0.25,0.1875,499
409,1696244399515,-0.68408203,-0.07965088,-0.7058716,-0.125,-0.078125,0.234375,500
410,1696244399555,-0.6821289,-0.07672119,-0.70318604,0.21875,-0.3125,0.1875,501
411,1696244399595,-0.689209,-0.082092285,-0.7058716,-0.171875,0.125,0.09375,502
412,1696244399635,-0.6953125,-0.07501221,-0.725647,-0.390625,-0.3125,0.125,503
413,1696244399675,-0.6870117,-0.07672119,-0.7012329,-0.609375,0.859375,0.265625,504
414,1696244399715,-0.6894531,-0.08013916,-0.7112427,0.265625,-0.875,0.203125,505
415,1696244399755,-0.68530273,-0.07598877,-0.7127075,-0.203125,-0.1875,0.265625,506
416,1696244399795,-0.68969727,-0.08135986,-0.708313,0.0625,-0.484375,0.09375,507
417,1696244399835,-0.69018555,-0.07672119,-0.7107544,-0.125,-0.265625,-0.046875,508
418,1696244399875,-0.6911621,-0.074279785,-0.7090454,-0.1875,-0.453125,0.3125,509
419,1696244399915,-0.6867676,-0.0881958,-0.72320557,0.03125,-0.703125,0.140625,510
420,1696244399955,-0.6921387,-0.08258057,-0.7053833,-0.109375,-0.125,0.265625,511
421,1696244399995,-0.6879883,-0.081848145,-0.7112427,-0.140625,-0.171875,0.265625,512
422,1696244400035,-0.69433594,-0.08428955,-0.7112427,0.03125,-0.4375,0.203125,513
423,1696244400075,-0.6833496,-0.08062744,-0.70318604,-0.015625,-0.390625,0.15625,514
424,1696244400115,-0.6999512,-0.08526611,-0.71539307,-0.171875,-0.15625,-0.03125,515
425,1696244400155,-0.6870117,-0.0803833,-0.7036743,-0.1875,-0.171875,0.203125,516
426,1696244400195,-0.69262695,-0.082336426,-0.704895,-0.1875,-0.203125,0.15625,517
427,1696244400235,-0.685791,-0.082092285,-0.70758057,0.125,-0.296875,0.1875,518
428,1696244400275,-0.6972656,-0.07965088,-0.7073364,-0.09375,-0.171875,0.3125,519
429,1696244400315,-0.6894531,-0.081848145,-0.71221924,-0.125,-0.140625,0.25,520
430,1696244400355,-0.69262695,-0.08306885,-0.7046509,-0.4375,0.15625,0.375,521
431,1696244400395,-0.6960449,-0.08453369,-0.70806885,0.046875,-0.390625,0.125,522
432,1696244400435,-0.6916504,-0.08282471,-0.70928955,-0.546875,0.375,0.203125,523
433,1696244400475,-0.6933594,-0.077941895,-0.71832275,-0.015625,-0.5,0.25,524
434,1696244400515,-0.69091797,-0.07501221,-0.70513916,-0.984375,1.09375,0.359375,525
435,1696244400555,-0.68969727,-0.08770752,-0.6980591,0.15625,-0.421875,0.171875,526
436,1696244400595,-0.69140625,-0.0791626,-0.706604,0.078125,-0.203125,0.15625,527
437,1696244400635,-0.69921875,-0.078430176,-0.70758057,-0.171875,-0.265625,0.40625,528
438,1696244400675,-0.6970215,-0.08380127,-0.7061157,-0.171875,-0.171875,0.171875,529
439,1696244400715,-0.69750977,-0.07940674,-0.7085571,-0.1875,-0.03125,0.21875,530
440,1696244400755,-0.6916504,-0.07598877,-0.7053833,-0.0625,-0.546875,0.0625,531
441,1696244400795,-0.6984863,-0.08306885,-0.7061157,-0.390625,-0.015625,0.15625,532
442,1696244400835,-0.6948242,-0.085998535,-0.70196533,0.015625,-0.390625,0.3125,533
443,1696244400875,-0.6911621,-0.07891846,-0.7095337,0.15625,-0.59375,0.265625,534
444,1696244400915,-0.6958008,-0.07623291,-0.7046509,0.03125,-0.453125,0.15625,535
445,1696244400955,-0.6972656,-0.08135986,-0.7022095,0.28125,-0.265625,0.21875,536
446,1696244400995,-0.69506836,-0.08404541,-0.7107544,0.203125,-0.453125,0.296875,537
447,1696244401035,-0.6940918,-0.077941895,-0.7046509,-0.15625,-0.1875,0.375,538
448,1696244401075,-0.69799805,-0.07550049,-0.704895,-0.28125,-0.109375,0.359375,539
449,1696244401115,-0.69921875,-0.078430176,-0.7041626,-0.09375,-0.1875,0.296875,540
450,1696244401155,-0.6887207,-0.085754395,-0.7029419,-0.03125,-0.03125,0.140625,541
451,1696244401195,-0.6911621,-0.078430176,-0.69976807,-0.171875,0.0,0.34375,542
452,1696244401235,-0.70043945,-0.08355713,-0.6987915,0.046875,-0.625,0.21875,543
453,1696244401275,-0.7001953,-0.07965088,-0.7149048,0.0,-0.5625,0.265625,544
454,1696244401315,-0.69555664,-0.08331299,-0.6914673,0.3125,-1.046875,0.328125,545
455,1696244401355,-0.6970215,-0.08111572,-0.7095337,-0.765625,0.40625,0.453125,546
456,1696244401395,-0.70410156,-0.08673096,-0.69976807,-0.25,0.046875,0.3125,547
457,1696244401435,-0.6940918,-0.085754395,-0.6983032,0.046875,-0.5625,0.03125,548
458,1696244401475,-0.6965332,-0.0803833,-0.70269775,0.0,-0.3125,0.265625,549
459,1696244401515,-0.69750977,-0.082336426,-0.7029419,-0.0625,-0.421875,0.203125,550
460,1696244401555,-0.7023926,-0.082336426,-0.70196533,0.0,-0.140625,0.171875,551
461,1696244401595,-0.70214844,-0.08135986,-0.70098877,-0.140625,-0.328125,0.3125,552
462,1696244401635,-0.703125,-0.08331299,-0.70758057,-0.59375,0.359375,0.328125,553
463,1696244401675,-0.70336914,-0.08306885,-0.6956177,-0.375,0.171875,0.4375,554
464,1696244401715,-0.6953125,-0.08721924,-0.70318604,-0.046875,-0.5,0.328125,555
465,1696244401755,-0.69750977,-0.081604004,-0.70440674,0.0625,-0.140625,0.15625,556
466,1696244401795,-0.6984863,-0.085998535,-0.6939087,0.109375,-0.34375,0.265625,557
467,1696244401835,-0.7038574,-0.08111572,-0.7022095,-0.21875,-0.203125,0.296875,558
468,1696244401875,-0.70043945,-0.08355713,-0.7000122,-0.25,-0.234375,0.15625,559
469,1696244401915,-0.6977539,-0.08721924,-0.69659424,-0.171875,-0.140625,0.390625,560
470,1696244401955,-0.7133789,-0.089660645,-0.7061157,-0.1875,-0.328125,0.265625,561
471,1696244401995,-0.6999512,-0.08526611,-0.6995239,-0.109375,-0.140625,0.203125,562
472,1696244402035,-0.69384766,-0.0869751,-0.70025635,0.0,-0.03125,0.171875,563
473,1696244402075,-0.69311523,-0.08770752,-0.69122314,-0.03125,-0.109375,0.125,564
474,1696244402115,-0.7055664,-0.08673096,-0.69854736,0.078125,-0.234375,0.140625,565
475,1696244402155,-0.7001953,-0.081604004,-0.7005005,-0.15625,-0.171875,0.140625,566
476,1696244402195,-0.7097168,-0.08673096,-0.7036743,0.078125,-0.6875,0.25,567
477,1696244402235,-0.7067871,-0.08868408,-0.7022095,-0.84375,1.015625,0.546875,568
478,1696244402275,-0.7072754,-0.08843994,-0.6934204,0.015625,-0.09375,0.078125,569
479,1696244402315,-0.6984863,-0.09527588,-0.70025635,0.15625,-0.53125,-0.03125,570
480,1696244402355,-0.7019043,-0.09039307,-0.6992798,0.046875,-0.46875,0.046875,571
481,1696244402395,-0.70581055,-0.08868408,-0.6975708,-0.015625,-0.28125,0.234375,572
482,1696244402435,-0.70092773,-0.08721924,-0.6968384,-0.078125,-0.453125,0.125,573
483,1696244402475,-0.69433594,-0.08648682,-0.68707275,0.046875,-0.484375,0.296875,574
484,1696244402515,-0.7050781,-0.08917236,-0.69244385,-0.28125,-0.0625,0.265625,575
485,1696244402555,-0.70532227,-0.085510254,-0.68927,0.125,-0.265625,0.265625,576
486,1696244402595,-0.7023926,-0.08453369,-0.6987915,-0.078125,-0.40625,0.15625,577
487,1696244402635,-0.70336914,-0.085998535,-0.69366455,0.09375,-0.296875,0.09375,578
488,1696244402675,-0.70874023,-0.086242676,-0.69610596,-0.046875,-0.078125,0.359375,579
489,1696244402715,-0.6972656,-0.085510254,-0.69903564,0.09375,-0.0625,0.125,580
490,1696244402755,-0.7067871,-0.08770752,-0.69610596,-0.203125,-0.046875,0.421875,581
491,1696244402795,-0.7060547,-0.08258057,-0.6934204,-0.265625,-0.171875,0.203125,582
492,1696244402835,-0.7060547,-0.085998535,-0.6917114,-0.359375,0.234375,0.328125,583
493,1696244402875,-0.70703125,-0.081604004,-0.69366455,-0.234375,-0.015625,0.265625,584
494,1696244402915,-0.70410156,-0.09039307,-0.692688,0.234375,-0.484375,0.234375,585
495,1696244402955,-0.7060547,-0.093811035,-0.6917114,0.09375,-0.59375,0.09375,586
496,1696244402995,-0.703125,-0.08892822,-0.6716919,0.09375,-0.625,0.09375,587
497,1696244403035,-0.70874023,-0.07745361,-0.6958618,-0.140625,-0.9375,0.171875,588
498,1696244403075,-0.70581055,-0.08721924,-0.6878052,0.28125,-1.671875,0.203125,589
499,1696244403115,-0.7080078,-0.08673096,-0.69317627,0.890625,-3.765625,0.125,590
500,1696244403155,-0.7019043,-0.08746338,-0.69976807,0.515625,-2.3125,0.25,591
501,1696244403195,-0.6972656,-0.081604004,-0.70196533,0.59375,-2.359375,0.25,592
502,1696244403235,-0.69311523,-0.07989502,-0.692688,1.09375,-2.28125,-0.171875,593
503,1696244403275,-0.6843262,-0.085754395,-0.69537354,1.8125,-3.609375,-0.390625,594
504,1696244403315,-0.6843262,-0.073791504,-0.7185669,0.671875,-2.71875,0.078125,595
505,1696244403355,-0.6867676,-0.08355713,-0.70025635,1.15625,-1.890625,-0.15625,596
506,1696244403395,-0.69140625,-0.07647705,-0.7127075,2.015625,-3.03125,-0.390625,597
507,1696244403435,-0.68847656,-0.07110596,-0.72662354,1.140625,-2.53125,-0.265625,598
508,1696244403475,-0.68603516,-0.078430176,-0.72442627,0.828125,-1.65625,0.0625,599
509,1696244403515,-0.68847656,-0.07647705,-0.7295532,0.296875,-1.203125,-0.203125,600
510,1696244403555,-0.6730957,-0.073791504,-0.7058716,-0.34375,-0.234375,-0.109375,601
511,1696244403595,-0.67993164,-0.070617676,-0.71099854,-0.25,-0.921875,-0.171875,602
512,1696244403635,-0.6813965,-0.07672119,-0.70758057,-0.34375,-1.015625,-0.140625,603
513,1696244403675,-0.67871094,-0.07208252,-0.71954346,-0.28125,-1.296875,0.03125,604
514,1696244403715,-0.6789551,-0.07232666,-0.72076416,-0.640625,-1.046875,-0.046875,605
515,1696244403755,-0.68237305,-0.06719971,-0.7288208,-0.359375,-1.453125,-0.046875,606
516,1696244403795,-0.6843262,-0.07965088,-0.7329712,-0.40625,-0.28125,-0.015625,607
517,1696244403835,-0.6789551,-0.06890869,-0.7197876,0.15625,-0.796875,0.03125,608
518,1696244403875,-0.6743164,-0.07598877,-0.72198486,0.203125,-1.015625,0.15625,609
519,1696244403915,-0.6621094,-0.07281494,-0.6995239,0.671875,-0.78125,0.125,610
520,1696244403955,-0.6687012,-0.06866455,-0.7202759,0.28125,-1.0,0.125,611
521,1696244403995,-0.67749023,-0.06427002,-0.7197876,0.078125,-0.25,0.0625,612
522,1696244404035,-0.6706543,-0.07232666,-0.70880127,0.21875,-0.390625,0.171875,613
523,1696244404075,-0.67163086,-0.07305908,-0.71954346,-0.171875,-0.640625,0.234375,614
524,1696244404115,-0.6828613,-0.06964111,-0.7161255,0.046875,-0.59375,0.109375,615
525,1696244404155,-0.68774414,-0.07525635,-0.7288208,0.078125,-0.84375,0.0625,616
526,1696244404195,-0.67944336,-0.07696533,-0.72003174,0.03125,-0.796875,0.40625,617
527,1696244404235,-0.6694336,-0.07183838,-0.7156372,0.234375,-0.640625,0.03125,618
528,1696244404275,-0.66967773,-0.06744385,-0.7151489,-0.03125,-0.546875,0.125,619
529,1696244404315,-0.6665039,-0.06573486,-0.725647,-0.109375,-0.625,0.1875,620
530,1696244404355,-0.67871094,-0.06964111,-0.7280884,-0.0625,-0.609375,0.234375,621
531,1696244404395,-0.67163086,-0.070617676,-0.7202759,0.3125,-0.859375,0.0625,622
532,1696244404435,-0.66796875,-0.06695557,-0.72125244,-0.296875,-0.5,0.203125,623
533,1696244404475,-0.6765137,-0.0725708,-0.7305298,-0.296875,-0.625,0.296875,624
534,1696244404515,-0.6711426,-0.07232666,-0.7112427,-0.234375,0.421875,0.234375,625
535,1696244404555,-0.6635742,-0.06500244,-0.72540283,-0.109375,-0.28125,0.203125,626
536,1696244404595,-0.6689453,-0.07525635,-0.72125244,-0.03125,-0.140625,0.078125,627
537,1696244404635,-0.671875,-0.06500244,-0.7151489,0.421875,-0.8125,0.0625,628
538,1696244404675,-0.67993164,-0.066467285,-0.73321533,0.078125,-1.171875,0.171875,629
539,1696244404715,-0.67822266,-0.06939697,-0.7258911,-0.21875,-0.484375,0.265625,630
540,1696244404755,-0.6738281,-0.07720947,-0.7337036,0.046875,-1.28125,0.25,631
541,1696244404795,-0.673584,-0.0725708,-0.7246704,-0.15625,-0.359375,0.078125,632
542,1696244404835,-0.671875,-0.07159424,-0.7214966,0.0625,-0.546875,0.203125,633
543,1696244404875,-0.67041016,-0.077697754,-0.72125244,-0.046875,-0.46875,0.21875,634
544,1696244404915,-0.67333984,-0.07183838,-0.7185669,0.40625,-0.46875,0.15625,635
545,1696244404955,-0.6699219,-0.06402588,-0.72442627,0.25,-0.671875,0.140625,636
546,1696244404995,-0.6750488,-0.070373535,-0.7307739,-0.015625,-0.359375,0.234375,637
547,1696244405035,-0.6779785,-0.07354736,-0.7300415,-0.296875,-0.09375,0.21875,638
548,1696244405075,-0.6706543,-0.065979004,-0.7268677,-0.140625,-0.40625,0.1875,639
549,1696244405115,-0.6723633,-0.070617676,-0.7329712,0.1875,-0.6875,0.0625,640
550,1696244405155,-0.66015625,-0.07281494,-0.7112427,0.34375,-1.140625,0.078125,641
551,1696244405195,-0.67871094,-0.06793213,-0.73321533,-0.21875,-0.34375,0.203125,642
552,1696244405235,-0.67041016,-0.070373535,-0.71881104,0.140625,-0.1875,-0.078125,643
553,1696244405275,-0.6821289,-0.07598877,-0.73809814,0.140625,-0.546875,0.125,644
554,1696244405315,-0.67822266,-0.0713501,-0.7258911,0.0,-0.328125,0.140625,645
555,1696244405355,-0.6711426,-0.069885254,-0.72735596,0.125,-0.359375,0.3125,646
556,1696244405395,-0.6750488,-0.06890869,-0.73101807,-0.125,-0.4375,0.25,647
557,1696244405435,-0.6750488,-0.07354736,-0.72247314,-0.078125,-0.40625,0.359375,648
558,1696244405475,-0.6730957,-0.07574463,-0.7288208,-0.265625,-0.34375,0.25,649
559,1696244405515,-0.6713867,-0.066223145,-0.7156372,-0.203125,-0.328125,0.203125,650
560,1696244405555,-0.66674805,-0.065979004,-0.7234497,0.109375,-0.484375,-0.015625,651
561,1696244405595,-0.671875,-0.06744385,-0.72076416,0.03125,-0.34375,0.0,652
562,1696244405635,-0.6760254,-0.074523926,-0.71881104,0.015625,-0.484375,0.015625,653
563,1696244405675,-0.6750488,-0.07110596,-0.72735596,-0.015625,-0.234375,0.140625,654
564,1696244405715,-0.6730957,-0.070129395,-0.7197876,-0.28125,-0.140625,0.265625,655
565,1696244405755,-0.66748047,-0.0713501,-0.72198486,-0.1875,-0.25,0.28125,656
566,1696244405795,-0.6796875,-0.070617676,-0.72442627,-0.234375,-0.4375,0.109375,657
567,1696244405835,-0.6713867,-0.06842041,-0.7280884,-0.125,-0.1875,0.21875,658
568,1696244405875,-0.6730957,-0.073791504,-0.71710205,0.234375,-0.578125,0.171875,659
569,1696244405915,-0.6743164,-0.07305908,-0.70440674,-0.28125,-0.09375,0.25,660
570,1696244405955,-0.6767578,-0.06768799,-0.7341919,-0.21875,-0.296875,0.078125,661
571,1696244405995,-0.66967773,-0.07232666,-0.7180786,-0.40625,0.453125,0.25,662
572,1696244406035,-0.6772461,-0.069885254,-0.7305298,0.171875,-0.484375,0.140625,663
573,1696244406075,-0.67529297,-0.069885254,-0.7185669,0.03125,-0.1875,0.03125,664
574,1696244406115,-0.6672363,-0.06842041,-0.7234497,0.125,-0.453125,0.03125,665
575,1696244406155,-0.67529297,-0.06964111,-0.7271118,-0.03125,-0.359375,0.234375,666
576,1696244406195,-0.6765137,-0.06719971,-0.7217407,-0.296875,-0.0625,0.234375,667
577,1696244406235,-0.6760254,-0.07501221,-0.73565674,0.1875,-0.75,0.28125,668
578,1696244406275,-0.6723633,-0.0725708,-0.72491455,-0.1875,-0.015625,0.28125,669
579,1696244406315,-0.66796875,-0.07696533,-0.7214966,0.28125,-0.140625,0.03125,670
580,1696244406355,-0.67285156,-0.07183838,-0.723938,0.1875,-0.453125,-0.015625,671
581,1696244406395,-0.6743164,-0.07330322,-0.72247314,-0.109375,-0.28125,0.03125,672
582,1696244406435,-0.6706543,-0.0713501,-0.7180786,0.078125,-0.375,0.125,673
583,1696244406475,-0.66674805,-0.06915283,-0.71759033,0.015625,-0.53125,0.140625,674
584,1696244406515,-0.68481445,-0.06939697,-0.73101807,-0.203125,-0.375,0.15625,675
585,1696244406555,-0.6755371,-0.06915283,-0.7163696,0.0,-0.34375,0.28125,676
586,1696244406595,-0.67529297,-0.07281494,-0.72369385,0.03125,-0.46875,0.140625,677
587,1696244406635,-0.6750488,-0.07110596,-0.7246704,0.0625,-0.546875,0.09375,678
588,1696244406675,-0.67041016,-0.0713501,-0.7185669,-0.109375,-0.390625,0.0,679
589,1696244406715,-0.6804199,-0.07159424,-0.7280884,-0.21875,-0.234375,0.1875,680
590,1696244406755,-0.6743164,-0.07598877,-0.71954346,0.0,-0.34375,0.140625,681
591,1696244406795,-0.67993164,-0.06573486,-0.7346802,0.15625,-0.46875,0.21875,682
592,1696244406835,-0.66845703,-0.069885254,-0.69610596,0.4375,-0.640625,0.15625,683
593,1696244406875,-0.6711426,-0.06866455,-0.7385864,-0.234375,0.0,0.234375,684
594,1696244406915,-0.6791992,-0.07110596,-0.7114868,0.015625,0.21875,-0.046875,685
595,1696244406955,-0.6813965,-0.06573486,-0.7271118,0.171875,-0.453125,0.03125,686
596,1696244406995,-0.6738281,-0.062805176,-0.7227173,0.1875,-0.109375,0.125,687
597,1696244407035,-0.6838379,-0.06549072,-0.7217407,-0.03125,-0.5,0.171875,688
598,1696244407075,-0.673584,-0.065979004,-0.7178345,-0.046875,-0.375,0.265625,689
599,1696244407115,-0.6772461,-0.07110596,-0.72125244,-0.21875,-0.328125,0.265625,690
600,1696244407155,-0.6850586,-0.08062744,-0.72613525,-0.0625,-0.5625,0.171875,691
601,1696244407195,-0.6755371,-0.06915283,-0.7202759,-0.390625,-0.09375,0.171875,692
602,1696244407235,-0.6784668,-0.0725708,-0.71661377,0.265625,-0.734375,0.03125,693
603,1696244407275,-0.67700195,-0.070129395,-0.723938,0.0625,-0.34375,0.09375,694
604,1696244407315,-0.6738281,-0.07110596,-0.7180786,0.0,-0.234375,0.21875,695
605,1696244407355,-0.67993164,-0.06915283,-0.72320557,0.015625,-0.015625,0.046875,696
606,1696244407395,-0.6750488,-0.07086182,-0.71051025,0.03125,-0.140625,0.109375,697
607,1696244407435,-0.6916504,-0.06939697,-0.73028564,-0.03125,-0.3125,0.234375,698
608,1696244407475,-0.68066406,-0.07208252,-0.7149048,-0.453125,0.390625,0.21875,699
609,1696244407515,-0.6772461,-0.07183838,-0.72369385,0.09375,-0.296875,0.125,700
610,1696244407555,-0.6789551,-0.06768799,-0.7151489,0.109375,-0.796875,0.09375,701
611,1696244407595,-0.67749023,-0.06573486,-0.72076416,0.171875,-0.953125,0.171875,702
612,1696244407635,-0.68188477,-0.061340332,-0.71881104,0.0,-0.625,0.171875,703
613,1696244407675,-0.6772461,-0.0713501,-0.7234497,-0.09375,-0.75,0.21875,704
614,1696244407715,-0.66918945,-0.070617676,-0.7190552,0.015625,-0.828125,0.265625,705
615,1696244407755,-0.6738281,-0.06768799,-0.72613525,-0.40625,-0.171875,0.28125,706
616,1696244407795,-0.68603516,-0.07550049,-0.72125244,0.265625,-1.296875,0.0625,707
617,1696244407835,-0.6804199,-0.06378174,-0.72052,-0.0625,-0.28125,0.25,708
618,1696244407875,-0.6711426,-0.06695557,-0.7163696,0.140625,-0.59375,0.078125,709
619,1696244407915,-0.6772461,-0.06866455,-0.72979736,-0.234375,-0.09375,0.21875,710
620,1696244407955,-0.6726074,-0.062561035,-0.7112427,-0.390625,0.015625,0.09375,711
621,1696244407995,-0.6743164,-0.06817627,-0.72247314,-0.0625,-0.21875,0.234375,712
622,1696244408035,-0.67993164,-0.06890869,-0.72979736,-0.15625,-0.4375,0.125,713
623,1696244408075,-0.67700195,-0.070373535,-0.7180786,0.140625,-0.78125,0.125,714
624,1696244408115,-0.6765137,-0.074523926,-0.72125244,-0.328125,-0.25,0.125,715
625,1696244408155,-0.6713867,-0.06939697,-0.7161255,-0.09375,-0.4375,-0.015625,716
626,1696244408195,-0.67285156,-0.07745361,-0.71539307,0.0625,-0.515625,0.171875,717
627,1696244408235,-0.68310547,-0.074035645,-0.71832275,0.0625,-0.40625,0.125,718
628,1696244408275,-0.68530273,-0.07305908,-0.7251587,0.0625,-0.625,0.140625,719
629,1696244408315,-0.6765137,-0.065979004,-0.7192993,-0.03125,-0.171875,0.171875,720
630,1696244408355,-0.6809082,-0.06915283,-0.72320557,-0.1875,-0.078125,0.203125,721
631,1696244408395,-0.67333984,-0.06842041,-0.72003174,-0.234375,-0.296875,0.203125,722
632,1696244408435,-0.6777344,-0.073791504,-0.7185669,0.15625,-0.421875,0.125,723
633,1696244408475,-0.67700195,-0.06549072,-0.71954346,0.0625,-0.40625,0.09375,724
634,1696244408515,-0.67822266,-0.069885254,-0.7241821,0.0625,-0.34375,0.265625,725
635,1696244408555,-0.67822266,-0.07330322,-0.72247314,-0.03125,-0.5625,0.171875,726
636,1696244408595,-0.67456055,-0.074279785,-0.71832275,-0.09375,-0.296875,0.21875,727
637,1696244408635,-0.68774414,-0.077697754,-0.72662354,-0.125,-0.375,0.28125,728
638,1696244408675,-0.6689453,-0.06866455,-0.71417236,-0.171875,0.0,0.15625,729
639,1696244408715,-0.6816406,-0.06866455,-0.7349243,0.125,-0.53125,0.140625,730
640,1696244408755,-0.6791992,-0.0725708,-0.72784424,-0.6875,0.109375,0.296875,731
641,1696244408795,-0.6723633,-0.07305908,-0.7180786,0.234375,-0.625,0.109375,732
642,1696244408835,-0.68115234,-0.0725708,-0.7178345,0.109375,-0.546875,0.015625,733
643,1696244408875,-0.6767578,-0.06378174,-0.7202759,0.0625,-0.078125,0.109375,734
644,1696244408915,-0.6796875,-0.06842041,-0.72125244,-0.125,-0.21875,0.171875,735
645,1696244408955,-0.67871094,-0.06427002,-0.72125244,-0.328125,-0.03125,0.140625,736
646,1696244408995,-0.6850586,-0.06890869,-0.7168579,-0.15625,-0.453125,0.1875,737
647,1696244409035,-0.6809082,-0.07672119,-0.7246704,-0.234375,-0.171875,0.25,738
648,1696244409075,-0.673584,-0.06964111,-0.7090454,-0.1875,-0.109375,0.140625,739
649,1696244409115,-0.68530273,-0.070617676,-0.7258911,0.21875,-0.71875,-0.015625,740
650,1696244409155,-0.6784668,-0.07208252,-0.7246704,-0.09375,-0.390625,0.21875,741
651,1696244409195,-0.66796875,-0.06866455,-0.7144165,0.0,-0.59375,0.015625,742
652,1696244409235,-0.6875,-0.07281494,-0.7263794,-0.171875,-0.28125,0.109375,743
653,1696244409275,-0.6755371,-0.06549072,-0.7202759,-0.125,-0.328125,0.171875,744
654,1696244409315,-0.6850586,-0.07086182,-0.7197876,-0.078125,-0.515625,0.359375,745
655,1696244409355,-0.67529297,-0.07232666,-0.7124634,-0.15625,-0.359375,0.078125,746
656,1696244409395,-0.67871094,-0.078430176,-0.7185669,-0.015625,-0.328125,0.3125,747
657,1696244409435,-0.6789551,-0.07110596,-0.7114868,-0.015625,-0.3125,0.03125,748
658,1696244409475,-0.6816406,-0.07208252,-0.7202759,0.03125,-0.359375,0.171875,749
659,1696244409515,-0.67993164,-0.066223145,-0.71417236,0.03125,-0.375,0.265625,750
660,1696244409555,-0.68115234,-0.070129395,-0.7173462,0.0625,-0.40625,0.046875,751
661,1696244409595,-0.6845703,-0.06842041,-0.71417236,-0.09375,-0.40625,0.21875,752
662,1696244409635,-0.67211914,-0.06890869,-0.7161255,-0.390625,0.453125,0.296875,753
663,1696244409675,-0.6862793,-0.07110596,-0.7300415,-0.015625,-0.59375,0.1875,754
664,1696244409715,-0.6796875,-0.07232666,-0.71661377,-0.796875,0.609375,0.15625,755
665,1696244409755,-0.68481445,-0.07720947,-0.71539307,0.140625,-0.25,0.03125,756
666,1696244409795,-0.68310547,-0.065979004,-0.71954346,-0.03125,-0.40625,0.28125,757
667,1696244409835,-0.6772461,-0.06768799,-0.71661377,0.0,-0.1875,0.046875,758
668,1696244409875,-0.69311523,-0.07110596,-0.7178345,-0.03125,-0.3125,0.109375,759
669,1696244409915,-0.6838379,-0.07159424,-0.72052,0.015625,-0.34375,0.171875,760
670,1696244409955,-0.6838379,-0.06939697,-0.7151489,-0.234375,-0.484375,0.125,761
671,1696244409995,-0.6882324,-0.06866455,-0.7217407,-0.28125,0.140625,0.265625,762
672,1696244410035,-0.6760254,-0.062805176,-0.7102661,-0.109375,0.0625,-0.03125,763
673,1696244410075,-0.67578125,-0.06768799,-0.7102661,0.171875,-0.609375,0.09375,764
674,1696244410115,-0.6933594,-0.07086182,-0.71832275,0.015625,-0.25,0.09375,765
675,1696244410155,-0.6765137,-0.06695557,-0.7090454,0.015625,-0.28125,0.078125,766
676,1696244410195,-0.68969727,-0.06744385,-0.72442627,-0.046875,-0.3125,0.171875,767
677,1696244410235,-0.69189453,-0.066711426,-0.722229,-0.109375,-0.546875,0.265625,768
678,1696244410275,-0.6826172,-0.07305908,-0.7139282,-0.09375,-0.234375,0.171875,769
679,1696244410315,-0.68603516,-0.066711426,-0.7180786,-0.140625,-0.328125,0.171875,770
680,1696244410355,-0.6870117,-0.07159424,-0.72003174,-0.125,-0.125,0.15625,771
681,1696244410395,-0.6765137,-0.06768799,-0.7107544,-0.234375,-0.3125,0.265625,772
682,1696244410435,-0.6906738,-0.07623291,-0.7178345,-0.125,-0.296875,0.03125,773
683,1696244410475,-0.68774414,-0.069885254,-0.71954346,-0.078125,-0.109375,0.171875,774
684,1696244410515,-0.68774414,-0.065979004,-0.7227173,0.015625,-0.34375,0.1875,775
685,1696244410555,-0.6862793,-0.06964111,-0.71051025,0.078125,-0.375,0.21875,776
686,1696244410595,-0.6870117,-0.07525635,-0.72076416,-0.640625,1.203125,0.125,777
687,1696244410635,-0.69628906,-0.07232666,-0.72052,-0.015625,0.0,0.03125,778
688,1696244410675,-0.685791,-0.06768799,-0.71221924,-0.859375,1.28125,0.34375,779
689,1696244410715,-0.68359375,-0.07501221,-0.7017212,-0.125,-0.390625,0.203125,780
690,1696244410755,-0.68310547,-0.074035645,-0.7053833,0.125,-0.484375,0.140625,781
691,1696244410795,-0.69628906,-0.06915283,-0.71466064,-0.109375,-0.671875,0.25,782
692,1696244410835,-0.6904297,-0.074523926,-0.71588135,0.03125,-0.65625,0.1875,783
693,1696244410875,-0.685791,-0.06817627,-0.7078247,-0.078125,-0.34375,0.171875,784
694,1696244410915,-0.6826172,-0.070129395,-0.6975708,0.15625,-0.546875,0.15625,785
695,1696244410955,-0.6789551,-0.070129395,-0.704895,-0.03125,-0.5,0.234375,786
696,1696244410995,-0.6911621,-0.07305908,-0.7131958,-0.234375,-0.28125,0.15625,787
697,1696244411035,-0.689209,-0.066467285,-0.7090454,0.078125,-0.765625,0.1875,788
698,1696244411075,-0.6870117,-0.07305908,-0.7114868,0.046875,-0.53125,0.234375,789
699,1696244411115,-0.6921387,-0.065979004,-0.7139282,0.125,-0.59375,0.140625,790
700,1696244411155,-0.68774414,-0.06768799,-0.70977783,-0.109375,-0.328125,0.234375,791
701,1696244411195,-0.6879883,-0.07110596,-0.71221924,-0.03125,-0.46875,0.203125,792
702,1696244411235,-0.69140625,-0.07525635,-0.71343994,0.015625,-0.28125,0.234375,793
703,1696244411275,-0.6862793,-0.06890869,-0.7112427,-0.046875,-0.390625,0.1875,794
704,1696244411315,-0.68896484,-0.07159424,-0.70880127,-0.125,-0.25,0.140625,795
705,1696244411355,-0.68603516,-0.06817627,-0.7127075,0.046875,-0.40625,0.25,796
706,1696244411395,-0.67822266,-0.07281494,-0.7073364,-0.03125,-0.296875,0.25,797
707,1696244411435,-0.6965332,-0.06964111,-0.7136841,-0.140625,-0.15625,0.25,798
708,1696244411475,-0.69140625,-0.0713501,-0.70562744,0.203125,-0.46875,0.109375,799
709,1696244411515,-0.6904297,-0.07330322,-0.71173096,-0.4375,0.328125,0.234375,800
710,1696244411555,-0.68847656,-0.07183838,-0.7241821,0.140625,0.609375,0.21875,801
711,1696244411595,-0.68188477,-0.077941895,-0.6987915,-0.921875,1.140625,0.515625,802
712,1696244411635,-0.6970215,-0.074035645,-0.6992798,-0.21875,-0.546875,0.203125,803
713,1696244411675,-0.6887207,-0.07281494,-0.70928955,-0.09375,-0.4375,0.234375,804
714,1696244411715,-0.69140625,-0.07305908,-0.7112427,0.03125,-0.515625,0.203125,805
715,1696244411755,-0.6870117,-0.07720947,-0.7114868,-0.25,-0.34375,0.25,806
716,1696244411795,-0.69433594,-0.07305908,-0.70684814,-0.171875,-0.359375,0.5,807
717,1696244411835,-0.6882324,-0.07354736,-0.7151489,0.0,-0.71875,0.203125,808
718,1696244411875,-0.6911621,-0.07159424,-0.70635986,-0.4375,-0.1875,0.140625,809
719,1696244411915,-0.6904297,-0.07672119,-0.7034302,0.046875,-0.34375,0.125,810
720,1696244411955,-0.6882324,-0.066467285,-0.70562744,0.09375,-0.421875,0.296875,811
721,1696244411995,-0.6928711,-0.0713501,-0.71051025,0.203125,-0.53125,0.15625,812
722,1696244412035,-0.68896484,-0.07525635,-0.710022,-0.015625,-0.375,0.15625,813
723,1696244412075,-0.69750977,-0.07281494,-0.70880127,-0.203125,-0.296875,0.203125,814
724,1696244412115,-0.69750977,-0.07208252,-0.7073364,-0.28125,-0.234375,0.25,815
725,1696244412155,-0.6867676,-0.070373535,-0.7058716,-0.296875,-0.296875,0.15625,816
726,1696244412195,-0.6953125,-0.07696533,-0.7095337,-0.375,-0.1875,0.21875,817
727,1696244412235,-0.69091797,-0.074523926,-0.7095337,-0.328125,-0.15625,0.1875,818
728,1696244412275,-0.69433594,-0.07647705,-0.71051025,-0.34375,-0.265625,0.25,819
729,1696244412315,-0.6970215,-0.077941895,-0.7036743,0.09375,-0.375,0.03125,820
730,1696244412355,-0.69433594,-0.07720947,-0.7024536,-0.03125,-0.34375,0.203125,821
731,1696244412395,-0.6870117,-0.074279785,-0.7119751,-0.328125,0.125,0.234375,822
732,1696244412435,-0.6965332,-0.07110596,-0.7124634,0.0,-0.609375,0.3125,823
733,1696244412475,-0.6960449,-0.07574463,-0.7090454,-1.09375,0.75,0.59375,824
734,1696244412515,-0.6960449,-0.07965088,-0.7005005,-0.140625,-0.09375,0.140625,825
735,1696244412555,-0.6972656,-0.07574463,-0.70562744,0.0,-0.359375,0.203125,826
736,1696244412595,-0.6982422,-0.07330322,-0.7085571,0.109375,1.0625,0.125,827
737,1696244412635,-0.69873047,-0.07745361,-0.70318604,-0.015625,-0.609375,0.15625,828
738,1696244412675,-0.6911621,-0.07867432,-0.70635986,-0.265625,-0.890625,0.265625,829
739,1696244412715,-0.6870117,-0.074279785,-0.6980591,0.046875,-0.4375,0.25,830
740,1696244412755,-0.6982422,-0.07891846,-0.70391846,-0.375,-0.28125,0.265625,831
741,1696244412795,-0.6948242,-0.07672119,-0.7000122,-0.0625,-0.546875,0.234375,832
742,1696244412835,-0.6960449,-0.07696533,-0.7073364,-0.078125,-0.59375,0.203125,833
743,1696244412875,-0.69189453,-0.07867432,-0.7017212,-0.1875,-0.3125,0.15625,834
744,1696244412915,-0.703125,-0.07745361,-0.7058716,0.09375,-0.4375,0.21875,835
745,1696244412955,-0.6984863,-0.077941895,-0.70318604,-0.046875,-0.65625,0.203125,836
746,1696244412995,-0.69384766,-0.08013916,-0.70928955,-0.03125,-0.515625,0.3125,837
747,1696244413035,-0.69506836,-0.07989502,-0.7095337,-0.171875,-0.390625,0.359375,838
748,1696244413075,-0.69921875,-0.07696533,-0.7058716,-0.328125,-0.375,0.25,839
749,1696244413115,-0.6945801,-0.078430176,-0.7029419,-0.46875,-0.296875,0.40625,840
750,1696244413155,-0.69799805,-0.08087158,-0.7005005,-0.1875,-0.234375,0.25,841
751,1696244413195,-0.69091797,-0.077697754,-0.6975708,0.078125,-0.484375,0.234375,842
752,1696244413235,-0.6965332,-0.08453369,-0.7112427,-0.375,0.171875,0.171875,843
753,1696244413275,-0.6958008,-0.07305908,-0.7180786,-0.015625,-0.3125,0.234375,844
754,1696244413315,-0.701416,-0.08428955,-0.70440674,-0.984375,0.78125,0.390625,845
755,1696244413355,-0.6982422,-0.07867432,-0.70098877,-0.140625,-0.1875,0.25,846
756,1696244413395,-0.6945801,-0.081848145,-0.7034302,-0.078125,-0.28125,0.34375,847
757,1696244413435,-0.69677734,-0.08111572,-0.70318604,-0.109375,-0.4375,0.28125,848
758,1696244413475,-0.6972656,-0.078430176,-0.7034302,-0.203125,0.078125,0.171875,849
759,1696244413515,-0.6928711,-0.08135986,-0.6992798,-0.28125,-0.234375,0.234375,850
