# Sensor type: Respeck
# Activity type: Sitting
# Activity subtype: Eating
# Subject id: s2104454
# Notes: unprocessed
timestamp,accel_x,accel_y,accel_z,gyro_x,gyro_y,gyro_z
1696245269044,-0.017822266,-0.97735596,0.10784912,0.234375,-0.46875,0.375
1696245269105,-0.0031738281,-0.9783325,0.10760498,-0.75,-0.859375,0.390625
1696245269125,-0.01953125,-1.0027466,0.090026855,-2.140625,-0.671875,-0.015625
1696245269145,-0.018798828,-0.9834595,0.11663818,0.859375,-0.625,0.90625
1696245269206,-0.01171875,-0.9927368,0.09442139,-0.890625,-0.796875,0.40625
1696245269246,-0.0041503906,-0.9824829,0.1083374,-0.421875,-0.5,0.796875
1696245269265,-0.013427734,-0.9800415,0.1083374,0.84375,-0.34375,0.859375
1696245269306,-0.0012207031,-1.0027466,0.08148193,-1.390625,-0.90625,0.515625
1696245269346,0.0056152344,-0.9746704,0.124938965,0.40625,-0.5,0.421875
1696245269387,-0.041748047,-0.9812622,0.1005249,0.640625,-1.890625,1.484375
1696245269447,-0.0012207031,-0.98272705,0.0914917,-0.625,0.203125,0.5
1696245269466,0.028808594,-1.0010376,0.10369873,-0.25,-0.8125,0.890625
1696245269507,-0.037109375,-0.98883057,0.12713623,2.375,-1.1875,0.359375
1696245269547,0.0021972656,-0.9807739,0.05657959,-3.109375,-1.765625,0.46875
1696245269587,0.013916016,-0.97784424,0.12030029,1.171875,-1.375,0.5625
1696245269649,-0.009521484,-0.9871216,0.07098389,-2.703125,-3.0625,0.125
1696245269688,0.010253906,-0.9661255,0.101989746,-0.984375,-0.796875,-1.125
1696245269705,4.8828125E-4,-1.0029907,0.105895996,-0.875,-1.640625,0.234375
1696245269772,-0.025634766,-0.9883423,0.12200928,2.265625,-0.96875,-0.75
1696245269785,-0.010498047,-0.9939575,0.094177246,-0.59375,-0.6875,0.21875
1696245269851,-0.009521484,-0.98565674,0.12225342,1.46875,-0.328125,-0.75
1696245269885,-0.053466797,-0.9656372,0.12298584,3.25,-0.734375,0.984375
1696245269905,0.024658203,-1.0059204,0.08441162,-1.375,0.9375,-0.875
1696245269971,0.010009766,-0.98223877,0.09173584,0.671875,-0.046875,-0.09375
1696245269985,-0.038085938,-0.9788208,0.11029053,2.15625,-0.734375,0.28125
1696245270028,-0.022705078,-1.0010376,0.09637451,2.484375,-0.109375,0.78125
1696245270086,-0.0068359375,-1.0020142,0.090026855,2.453125,-0.078125,0.59375
1696245270106,-0.012207031,-0.9812622,0.08001709,0.40625,-0.21875,-0.359375
1696245270147,-0.013183594,-0.9834595,0.08660889,1.296875,-0.546875,0.296875
1696245270186,-0.010009766,-1.0015259,0.07635498,0.3125,-0.453125,0.328125
1696245270228,-0.0053710938,-0.9776001,0.0836792,1.609375,-0.4375,0.3125
1696245270289,-0.012939453,-0.99420166,0.09100342,1.9375,0.03125,0.59375
1696245270305,-0.0126953125,-0.9973755,0.08099365,1.046875,0.453125,0.25
1696245270345,2.4414062E-4,-0.99224854,0.078308105,1.328125,-0.234375,0.46875
1696245270407,-0.030761719,-0.9841919,0.0914917,3.296875,-0.6875,0.78125
1696245270426,0.01977539,-1.0039673,0.04534912,-1.53125,1.34375,0.21875
1696245270448,0.0041503906,-0.9817505,0.07269287,1.171875,-0.078125,0.03125
1696245270487,-0.02368164,-1.0071411,0.078063965,0.734375,-0.46875,0.546875
1696245270527,-0.0031738281,-0.9771118,0.07244873,-0.484375,0.09375,-0.03125
1696245270566,-0.014892578,-0.99102783,0.0836792,1.046875,-1.09375,0.25
1696245270607,-0.01953125,-1.0095825,0.051940918,-1.40625,-0.59375,-0.140625
1696245270646,-2.4414062E-4,-0.9763794,0.077819824,-0.3125,-0.6875,-0.25
1696245270686,-0.016113281,-0.99298096,0.0602417,-1.203125,-0.59375,0.171875
1696245270726,-0.008056641,-0.98638916,0.078308105,-0.0625,0.03125,0.34375
1696245270766,-0.015136719,-0.9924927,0.07122803,0.140625,-0.578125,0.46875
1696245270806,-0.0041503906,-0.9734497,0.08123779,-0.234375,0.078125,0.453125
1696245270846,-0.018554688,-0.99884033,0.07342529,0.640625,-1.140625,0.859375
1696245270886,0.008300781,-0.9956665,0.066345215,-0.578125,0.03125,-0.125
1696245270926,-0.010009766,-0.98394775,0.06585693,0.03125,-0.8125,-0.015625
1696245270969,-0.009277344,-0.9973755,0.07684326,0.25,-0.046875,0.296875
1696245271008,-0.009033203,-0.9746704,0.08050537,0.40625,-0.578125,0.78125
1696245271047,-0.018066406,-1.0012817,0.07659912,0.671875,-0.734375,0.46875
1696245271087,-0.0075683594,-0.98223877,0.07879639,0.53125,-0.5,0.09375
1696245271127,-7.324219E-4,-0.9751587,0.06756592,-0.5625,0.28125,0.15625
1696245271175,-0.0068359375,-0.98321533,0.055847168,-0.125,-0.78125,0.484375
1696245271207,0.0031738281,-0.98565674,0.073913574,0.09375,-0.328125,0.234375
1696245271246,-0.008300781,-1.0012817,0.074157715,0.515625,-0.671875,0.734375
1696245271286,-0.010498047,-0.98321533,0.06878662,-0.171875,-0.171875,0.28125
1696245271326,0.0061035156,-0.991272,0.0758667,-0.328125,-0.234375,0.09375
1696245271366,-0.013183594,-0.9771118,0.0680542,0.328125,-0.96875,0.859375
1696245271408,-0.0107421875,-0.9944458,0.06536865,0.5625,-0.6875,0.328125
1696245271446,0.020019531,-0.991272,0.06488037,-0.6875,0.15625,0.296875
1696245271485,-0.020996094,-0.98272705,0.062927246,-0.046875,-0.59375,1.0
1696245271527,-0.009033203,-0.9944458,0.08050537,0.015625,-0.328125,0.609375
1696245271567,0.0075683594,-0.98516846,0.06878662,-0.53125,-0.28125,-0.0625
1696245271606,-0.021972656,-0.9817505,0.06536865,-0.875,-0.890625,0.28125
1696245271647,-0.0041503906,-0.99224854,0.078552246,0.703125,0.03125,0.734375
1696245271688,0.014892578,-0.989563,0.070007324,-0.03125,0.09375,-0.21875
1696245271726,-0.006591797,-0.9771118,0.066833496,-0.65625,-0.875,0.375
1696245271745,0.008544922,-0.99468994,0.078308105,0.109375,-1.15625,0.96875
1696245271787,0.0026855469,-1.0007935,0.070495605,0.375,-1.28125,0.921875
1696245271826,-0.012451172,-0.9776001,0.085632324,1.875,-1.3125,0.796875
1696245271865,-0.0034179688,-0.98272705,0.090270996,1.140625,-1.015625,0.65625
1696245271928,0.011474609,-0.98883057,0.054870605,-1.125,-0.875,0.296875
1696245271945,-0.008056641,-0.9817505,0.06707764,1.671875,-1.75,-0.15625
1696245271988,0.012207031,-1.0064087,0.07098389,0.1875,-1.4375,0.171875
1696245272048,0.0014648438,-0.97784424,0.07366943,-0.4375,-1.421875,-0.28125
1696245272087,-0.014404297,-0.9944458,0.06756592,-0.53125,-1.6875,0.109375
1696245272106,-0.012939453,-0.9920044,0.08026123,0.4375,-1.828125,0.640625
1696245272148,0.0024414062,-1.0015259,0.061462402,-0.359375,-1.78125,-0.5
1696245272191,0.015136719,-0.98516846,0.066589355,-1.046875,-0.78125,-0.25
1696245272226,-0.01928711,-0.9837036,0.082214355,-0.4375,-1.453125,0.03125
1696245272295,0.0034179688,-0.9932251,0.070495605,-0.65625,-1.34375,-0.296875
1696245272327,0.0014648438,-0.9837036,0.07122803,-0.1875,-1.53125,-0.125
1696245272366,-0.015136719,-0.9873657,0.07879639,-0.546875,-1.25,-0.015625
1696245272410,-0.004638672,-0.986145,0.08074951,-1.421875,-0.90625,-0.046875
1696245272424,-0.0087890625,-0.9932251,0.07635498,-1.5625,-0.484375,0.09375
1696245272490,-0.007080078,-0.9800415,0.08660889,-1.28125,-0.078125,0.015625
1696245272505,-0.02319336,-0.9873657,0.07244873,-0.546875,-0.390625,0.90625
1696245272568,0.0043945312,-0.9937134,0.07318115,0.03125,-0.46875,-0.03125
1696245272586,0.0043945312,-0.98321533,0.09442139,-0.625,-0.25,-0.1875
1696245272626,-0.016113281,-0.99224854,0.055114746,-3.703125,0.703125,0.375
1696245272668,-0.0048828125,-0.99346924,0.10272217,-1.640625,0.984375,-0.15625
1696245272706,-0.013427734,-0.9981079,0.093688965,-0.75,0.421875,0.5
1696245272748,7.324219E-4,-0.97125244,0.0836792,-1.609375,0.875,0.359375
1696245272787,-0.0056152344,-0.9854126,0.08929443,-2.140625,0.828125,0.296875
1696245272849,0.0024414062,-0.98565674,0.09197998,-0.578125,-0.078125,0.484375
1696245272866,-0.0041503906,-0.99591064,0.089782715,-1.484375,-0.484375,0.265625
1696245272907,0.0036621094,-0.9714966,0.09124756,-1.109375,-0.203125,0.5625
1696245272946,-0.015380859,-0.98760986,0.10638428,0.203125,-0.5,0.828125
1696245272988,9.765625E-4,-0.98516846,0.08660889,-0.140625,-0.671875,0.703125
1696245273066,-0.0021972656,-0.9763794,0.09246826,0.53125,-0.84375,0.796875
1696245273069,-0.011962891,-1.0012817,0.09320068,0.78125,-1.09375,1.125
1696245273086,0.020263672,-0.9963989,0.09051514,0.140625,-0.46875,0.4375
1696245273127,-9.765625E-4,-0.98516846,0.10272217,1.234375,-0.875,0.75
1696245273165,0.0024414062,-0.9866333,0.08392334,-0.125,-0.421875,0.8125
1696245273207,-0.0029296875,-1.0027466,0.097595215,1.515625,-1.421875,1.15625
1696245273247,0.01586914,-0.98394775,0.11077881,1.703125,-0.734375,0.734375
1696245273286,0.014160156,-0.9780884,0.062438965,-1.25,0.203125,0.328125
1696245273328,-0.019042969,-1.008606,0.097595215,1.234375,-0.484375,0.90625
1696245273367,0.013671875,-0.98394775,0.097839355,1.46875,0.140625,0.3125
1696245273408,0.004638672,-0.96954346,0.07928467,0.703125,0.1875,0.34375
1696245273450,0.0029296875,-0.9819946,0.089538574,1.0625,0.265625,0.203125
1696245273487,0.007080078,-0.9932251,0.089538574,1.640625,-0.078125,0.203125
1696245273529,0.0021972656,-0.99346924,0.08807373,1.171875,-0.484375,0.46875
1696245273568,0.009521484,-0.9890747,0.08294678,0.078125,0.390625,0.078125
1696245273607,-0.011962891,-0.9697876,0.08538818,1.65625,-0.171875,0.859375
1696245273648,0.0146484375,-1.0134888,0.06976318,0.5,-0.34375,-0.1875
1696245273686,0.020996094,-0.9805298,0.07147217,0.65625,0.203125,-0.140625
1696245273727,-0.016113281,-0.9817505,0.08294678,0.90625,-0.234375,0.359375
1696245273767,-4.8828125E-4,-0.9902954,0.07904053,0.734375,-0.234375,0.734375
1696245273807,0.0031738281,-0.9902954,0.073913574,1.109375,-0.125,0.390625
1696245273850,0.0048828125,-0.9846802,0.066101074,0.046875,0.015625,0.140625
1696245273887,-0.0036621094,-0.9871216,0.0758667,0.53125,-0.671875,0.203125
1696245273926,0.010009766,-0.9944458,0.089782715,1.78125,-0.34375,0.03125
1696245273967,0.0063476562,-0.9927368,0.059509277,-1.265625,0.359375,0.0625
1696245274008,-0.0012207031,-0.9837036,0.07562256,0.59375,0.078125,0.1875
1696245274047,-0.0053710938,-0.9956665,0.07293701,0.859375,-0.171875,0.6875
1696245274087,0.0073242188,-0.97320557,0.07196045,0.46875,0.109375,0.5
1696245274126,-0.0075683594,-0.99786377,0.06536865,0.640625,-0.59375,0.796875
1696245274165,0.029785156,-0.9932251,0.059020996,-0.390625,-0.171875,0.109375
1696245274206,0.0043945312,-0.98028564,0.06097412,-0.015625,-0.625,0.265625
1696245274246,0.0075683594,-0.9866333,0.06414795,-0.6875,-0.40625,0.546875
1696245274286,0.0087890625,-0.98931885,0.07611084,-0.234375,-0.5625,0.46875
1696245274326,-0.0021972656,-0.9937134,0.07318115,0.40625,-0.59375,0.59375
1696245274367,0.015380859,-0.9824829,0.06512451,-0.578125,-0.078125,0.34375
1696245274386,-0.001953125,-0.98321533,0.06903076,-0.234375,-0.3125,0.609375
1696245274428,0.024658203,-0.9829712,0.06732178,-0.1875,-0.0625,0.40625
1696245274468,0.0056152344,-0.98809814,0.06854248,0.515625,-0.515625,0.53125
1696245274508,0.0068359375,-0.9981079,0.070739746,0.65625,-0.21875,0.265625
1696245274547,0.0126953125,-0.9885864,0.07098389,0.265625,0.015625,0.640625
1696245274592,0.0053710938,-0.9829712,0.07684326,1.3125,-0.703125,0.6875
1696245274627,0.0031738281,-0.9859009,0.08685303,0.875,-0.578125,0.265625
1696245274688,0.0031738281,-0.98516846,0.054138184,0.578125,-0.9375,0.734375
1696245274705,0.02758789,-0.99176025,0.05706787,-0.234375,-0.625,-0.125
1696245274746,-0.0014648438,-0.99298096,0.06561279,0.625,-1.25,0.359375
1696245274807,0.0036621094,-0.9776001,0.06414795,0.796875,-1.03125,0.109375
1696245274826,0.013427734,-0.9937134,0.06048584,-0.5625,-1.265625,-0.03125
1696245274889,0.0036621094,-1.0066528,0.06707764,-0.40625,-1.546875,-0.109375
1696245274907,0.02319336,-0.98272705,0.06439209,-1.4375,-1.578125,-0.703125
1696245274967,0.00390625,-0.97784424,0.06512451,-2.34375,-1.359375,-0.234375
1696245274986,0.013916016,-0.98321533,0.074645996,-3.0,-1.015625,-0.625
1696245275029,0.0053710938,-1.0046997,0.08685303,-1.875,-1.3125,-0.40625
1696245275066,0.0012207031,-0.9771118,0.081726074,-0.984375,-1.40625,-0.4375
1696245275107,-0.0036621094,-0.9807739,0.077819824,-1.046875,-0.984375,-0.296875
1696245275167,0.010009766,-0.98516846,0.08294678,-1.03125,-0.421875,0.15625
1696245275209,0.0053710938,-0.97906494,0.090026855,-0.90625,-0.46875,0.125
1696245275228,-9.765625E-4,-0.99346924,0.07659912,-0.546875,-0.9375,0.265625
1696245275267,0.018554688,-0.9871216,0.08123779,-1.171875,-0.59375,-0.390625
1696245275309,-0.010986328,-0.9883423,0.081970215,-0.40625,-1.15625,0.28125
1696245275347,-9.765625E-4,-0.9981079,0.08074951,-1.640625,-0.34375,0.46875
1696245275387,0.001953125,-0.98883057,0.09539795,-0.546875,-0.15625,0.25
1696245275429,0.009277344,-0.9846802,0.09173584,-1.359375,-0.40625,0.4375
1696245275470,-0.0073242188,-0.9915161,0.09515381,-0.703125,-1.4375,0.53125
1696245275529,0.009033203,-0.97491455,0.101257324,-0.078125,-0.921875,0.375
1696245275547,0.0029296875,-0.99005127,0.059509277,-3.0625,0.609375,-0.453125
1696245275608,-0.009765625,-0.99053955,0.113220215,-0.078125,0.15625,0.34375
1696245275626,-0.0029296875,-0.9902954,0.09320068,-0.375,-0.25,0.171875
1696245275689,0.004638672,-0.9573364,0.09051514,-0.96875,0.203125,0.265625
1696245275692,0.0087890625,-1.0088501,0.09954834,-0.9375,-0.453125,0.609375
1696245275727,0.0056152344,-1.0012817,0.09100342,-0.375,-0.46875,0.125
1696245275810,2.4414062E-4,-0.9607544,0.090270996,0.21875,-1.328125,0.453125
1696245275815,0.0017089844,-0.9717407,0.08709717,-0.328125,-0.328125,0.78125
1696245275847,0.020263672,-1.0110474,0.101989746,1.046875,-0.375,0.046875
1696245275890,-0.0029296875,-0.9812622,0.09222412,0.921875,-0.4375,0.59375
1696245275928,0.008300781,-0.97979736,0.08758545,0.921875,-0.78125,0.875
1696245275969,-0.004638672,-0.9885864,0.10076904,1.453125,-1.109375,0.6875
1696245276009,0.009521484,-0.9871216,0.094177246,1.28125,-0.40625,0.265625
1696245276048,0.005126953,-0.99053955,0.08319092,0.328125,-0.46875,0.09375
1696245276087,0.0087890625,-0.9849243,0.08514404,1.625,-0.46875,0.234375
1696245276126,-2.4414062E-4,-0.989563,0.085876465,2.0625,-0.484375,0.296875
1696245276168,-4.8828125E-4,-0.9846802,0.08319092,2.265625,0.109375,0.75
1696245276208,0.0029296875,-0.9902954,0.0770874,1.171875,0.390625,0.671875
1696245276250,-9.765625E-4,-0.99176025,0.08123779,1.28125,0.03125,0.453125
1696245276287,0.0031738281,-0.97491455,0.08782959,1.890625,-0.71875,0.8125
1696245276329,0.016113281,-0.9937134,0.053894043,-0.921875,0.84375,0.625
1696245276365,0.0234375,-0.99224854,0.07562256,0.546875,0.34375,-0.015625
1696245276405,-0.00390625,-0.99664307,0.078552246,1.265625,-0.453125,0.515625
1696245276449,0.0029296875,-0.9890747,0.07928467,0.25,-0.109375,0.40625
1696245276488,-0.0024414062,-0.98150635,0.082214355,1.578125,-0.4375,1.140625
1696245276529,-0.0017089844,-0.98931885,0.066345215,-0.09375,-0.546875,0.25
1696245276567,0.01953125,-0.97320557,0.066345215,-0.609375,-0.046875,-0.046875
1696245276607,0.009765625,-1.0254517,0.055603027,-0.859375,-0.5,0.40625
1696245276650,0.0014648438,-0.96954346,0.07196045,1.03125,0.140625,-0.1875
1696245276687,0.0061035156,-0.987854,0.07122803,0.59375,0.296875,1.609375
1696245276729,0.0078125,-0.989563,0.062683105,0.453125,-0.125,0.375
1696245276767,0.017822266,-0.99884033,0.070007324,0.34375,0.390625,0.796875
1696245276808,0.001953125,-0.9871216,0.053649902,0.625,0.28125,0.4375
1696245276846,0.017822266,-0.97442627,0.08099365,0.9375,0.296875,0.765625
1696245276890,0.0026855469,-0.9956665,0.051696777,1.03125,-0.34375,1.125
1696245276928,0.02734375,-0.98883057,0.062438965,0.328125,0.28125,0.109375
1696245276969,0.0075683594,-0.9961548,0.0692749,0.9375,-0.5,0.34375
1696245276985,0.01586914,-0.97979736,0.06854248,-0.046875,-0.4375,0.15625
1696245277046,0.009277344,-0.9907837,0.06707764,0.640625,-0.78125,0.671875
1696245277065,0.0146484375,-0.98516846,0.04876709,-0.734375,0.046875,0.578125
1696245277108,0.007080078,-0.9937134,0.06829834,1.09375,-0.890625,0.890625
1696245277147,0.03100586,-0.97369385,0.04559326,-0.140625,1.125,0.328125
1696245277189,0.0075683594,-1.000061,0.06072998,0.96875,-0.46875,1.0
1696245277230,0.020751953,-0.99176025,0.05633545,0.625,-0.1875,0.359375
1696245277269,0.01953125,-0.9783325,0.054626465,0.09375,0.15625,0.40625
1696245277308,0.015380859,-0.99298096,0.061706543,0.3125,-0.234375,0.25
1696245277370,0.017578125,-0.9885864,0.05706787,0.0625,-0.484375,0.015625
1696245277385,0.027832031,-0.9758911,0.062927246,0.203125,-0.03125,0.359375
1696245277449,0.011962891,-0.9956665,0.046325684,-0.4375,-0.546875,-0.1875
1696245277490,0.032958984,-0.98394775,0.059265137,-0.25,-0.546875,-0.25
1696245277506,0.0041503906,-0.9841919,0.058776855,0.421875,-1.5,-0.078125
1696245277547,0.01928711,-0.9932251,0.06097412,-0.609375,-1.8125,-0.609375
1696245277589,0.0041503906,-0.9824829,0.062927246,-0.46875,-2.34375,-0.546875
1696245277649,0.0026855469,-0.99957275,0.05657959,-1.96875,-1.8125,-1.0625
1696245277687,0.025390625,-0.9729614,0.06951904,-1.03125,-2.015625,-1.109375
1696245277706,-0.0043945312,-0.9990845,0.062927246,-2.125,-2.53125,-0.53125
1696245277770,0.014892578,-0.9788208,0.06365967,-2.203125,-1.890625,-0.75
1696245277785,0.0,-0.9817505,0.06951904,-1.984375,-1.6875,-0.5625
1696245277829,0.0048828125,-0.9907837,0.07098389,-2.296875,-1.28125,-0.71875
1696245277866,0.010498047,-0.9932251,0.0914917,-0.71875,-1.546875,-0.4375
1696245277905,-0.016113281,-0.99053955,0.08441162,-0.125,-1.6875,0.203125
1696245277947,0.020751953,-0.9846802,0.053649902,-3.25,1.140625,-0.765625
1696245277987,-0.015136719,-0.9819946,0.082214355,-0.4375,-0.421875,0.21875
1696245278027,-2.4414062E-4,-1.0073853,0.08538818,-0.421875,-0.515625,0.0625
1696245278067,0.0048828125,-0.9788208,0.07757568,-0.9375,0.1875,-0.0625
1696245278111,-0.0029296875,-0.9849243,0.085876465,-1.375,-0.375,-0.015625
1696245278147,-0.009765625,-0.9907837,0.08050537,-1.4375,-0.578125,0.453125
1696245278187,0.0073242188,-0.98760986,0.078308105,-2.03125,-0.421875,0.296875
1696245278229,0.001953125,-0.98101807,0.08880615,-0.65625,-0.6875,0.34375
1696245278290,0.0031738281,-0.9951782,0.09320068,-0.796875,-0.4375,0.140625
1696245278307,0.0021972656,-0.9824829,0.08758545,-0.671875,-0.4375,0.296875
1696245278325,-0.0012207031,-0.9907837,0.09222412,-0.484375,-0.421875,0.640625
1696245278366,0.0024414062,-0.98028564,0.09881592,-0.5,-0.53125,0.421875
1696245278406,7.324219E-4,-0.9849243,0.09539795,0.125,-0.625,0.78125
1696245278445,0.010009766,-1.0003052,0.08416748,-0.890625,-0.234375,-0.140625
1696245278486,0.012939453,-0.97979736,0.10296631,0.234375,-0.15625,0.65625
1696245278527,0.0,-0.98809814,0.07489014,-0.25,-1.03125,0.609375
1696245278566,0.017089844,-0.9829712,0.090270996,1.46875,-1.0,0.796875
1696245278605,0.0036621094,-0.987854,0.10003662,2.84375,-0.796875,0.578125
1696245278645,0.011962891,-0.98883057,0.062438965,-1.234375,0.5,0.234375
1696245278686,0.008300781,-0.9937134,0.09466553,0.8125,-0.390625,0.625
1696245278748,0.014160156,-0.9932251,0.08905029,0.359375,-0.5,-0.015625
1696245278786,0.008544922,-0.98272705,0.0848999,0.375,-0.203125,0.359375
1696245278807,0.0107421875,-0.98809814,0.09197998,0.828125,-0.046875,0.21875
1696245278847,0.016113281,-0.9907837,0.07684326,0.515625,-0.171875,-0.0625
1696245278909,-0.0031738281,-1.0044556,0.08514404,0.09375,-0.984375,-0.15625
1696245278948,0.014160156,-0.97857666,0.08416748,-0.109375,-0.0625,0.171875
1696245278965,-0.0026855469,-0.9898071,0.09588623,0.796875,-0.5625,0.09375
1696245279008,0.00390625,-0.9924927,0.07659912,-0.046875,-0.78125,0.171875
1696245279069,-2.4414062E-4,-0.973938,0.08758545,1.03125,-0.59375,0.28125
1696245279086,0.007080078,-0.98931885,0.08685303,0.609375,-0.59375,-0.109375
1696245279147,0.0017089844,-0.98443604,0.07342529,1.328125,-0.46875,0.421875
1696245279187,7.324219E-4,-0.9990845,0.078552246,0.46875,0.359375,0.171875
1696245279206,0.0031738281,-0.9890747,0.08074951,0.9375,0.40625,0.296875
1696245279247,-0.0043945312,-0.9885864,0.08050537,2.125,0.0,0.59375
1696245279315,-0.0014648438,-0.98809814,0.08538818,1.3125,-0.015625,0.25
1696245279326,0.011474609,-0.9885864,0.06072998,-0.5,0.234375,0.375
1696245279368,0.01171875,-0.9824829,0.07220459,0.1875,0.703125,0.015625
1696245279429,-0.005859375,-1.0027466,0.06561279,0.921875,0.65625,0.609375
1696245279446,0.013183594,-0.98809814,0.073913574,1.078125,0.765625,0.25
1696245279488,-0.0075683594,-0.99468994,0.062194824,0.421875,0.375,0.625
1696245279527,0.013183594,-0.9920044,0.06854248,0.3125,0.734375,0.3125
1696245279569,0.010253906,-0.9846802,0.062927246,0.25,-0.25,0.265625
1696245279628,-2.4414062E-4,-0.99102783,0.06390381,-0.234375,-0.140625,0.65625
1696245279646,0.021972656,-0.9846802,0.08050537,0.421875,0.015625,0.734375
1696245279667,-9.765625E-4,-0.9951782,0.06732178,0.359375,-0.890625,0.515625
1696245279709,0.0031738281,-0.9817505,0.058776855,0.296875,-0.671875,0.46875
1696245279745,0.0041503906,-0.98516846,0.077819824,0.5625,-0.3125,0.78125
1696245279788,0.005126953,-0.9890747,0.05999756,0.6875,0.203125,0.765625
1696245279835,0.025878906,-0.98638916,0.06781006,0.03125,0.28125,0.453125
1696245279869,-0.001953125,-0.9956665,0.06365967,0.96875,-0.578125,0.984375
1696245279909,0.013671875,-0.9939575,0.07269287,1.171875,-1.4375,0.28125
1696245279947,0.011230469,-0.98028564,0.074401855,1.109375,-0.890625,0.109375
1696245279986,0.020019531,-0.9944458,0.05267334,-0.765625,-0.8125,0.140625
1696245280028,0.022949219,-0.9859009,0.07562256,0.234375,-0.90625,-0.46875
1696245280067,-0.0068359375,-0.9985962,0.050476074,0.734375,-3.171875,0.6875
1696245280107,0.006591797,-1.0032349,0.06732178,0.4375,-1.109375,-0.28125
1696245280167,0.020996094,-0.9783325,0.07293701,0.078125,-1.59375,-0.359375
1696245280186,-0.0078125,-0.9998169,0.039489746,-2.0,-2.515625,-0.328125
1696245280228,-0.0034179688,-1.0022583,0.0758667,-1.03125,-1.46875,-0.71875
1696245280291,0.023925781,-0.9807739,0.05731201,-1.390625,-1.0,-0.78125
1696245280306,0.0048828125,-0.9771118,0.0758667,-0.625,-1.78125,-0.390625
1696245280346,-0.0063476562,-0.9924927,0.06976318,-1.71875,-1.59375,-0.15625
1696245280388,0.010253906,-0.9854126,0.06781006,-1.65625,-0.84375,-0.53125
1696245280426,-0.0029296875,-0.99298096,0.07562256,-1.140625,-0.921875,-0.21875
1696245280466,-0.0029296875,-0.99176025,0.08343506,-1.265625,-0.265625,-0.25
1696245280507,-0.0031738281,-0.99713135,0.07318115,-0.703125,-0.9375,0.40625
1696245280550,0.020019531,-0.98101807,0.07244873,-1.828125,-0.21875,-0.296875
1696245280586,-0.0017089844,-0.9949341,0.074157715,-1.125,-0.171875,0.046875
1696245280627,0.0024414062,-0.9837036,0.07537842,-0.625,-1.109375,0.125
1696245280689,0.013183594,-0.98028564,0.073913574,-2.359375,0.3125,-0.65625
1696245280707,-0.01586914,-1.0027466,0.098083496,0.28125,-0.953125,0.375
1696245280749,-0.0078125,-0.98150635,0.07611084,-1.46875,-0.453125,-0.421875
1696245280810,0.001953125,-0.97320557,0.08685303,-0.625,-0.234375,0.609375
1696245280827,0.0017089844,-0.9963989,0.09100342,-0.5,-0.40625,-0.15625
1696245280866,0.0036621094,-0.989563,0.07611084,1.171875,-1.0,0.140625
1696245280907,0.008300781,-0.9812622,0.08782959,0.609375,-0.1875,0.4375
1696245280946,-0.014160156,-0.98931885,0.085632324,0.484375,-0.65625,0.46875
1696245280967,-0.0017089844,-0.98565674,0.08465576,1.015625,-0.828125,0.609375
1696245281008,-0.0031738281,-0.9834595,0.08026123,0.65625,-0.453125,0.5625
1696245281047,0.0031738281,-0.99542236,0.0914917,0.125,-0.671875,0.640625
1696245281088,-2.4414062E-4,-0.9824829,0.09197998,0.953125,-0.5625,0.28125
1696245281128,-0.004638672,-1.0007935,0.06561279,0.203125,-0.640625,0.609375
1696245281166,0.011962891,-0.98687744,0.09442139,1.53125,-0.296875,0.421875
1696245281207,0.0034179688,-0.9819946,0.07757568,0.703125,0.171875,0.28125
1696245281249,-0.0043945312,-0.9973755,0.049743652,0.84375,-0.1875,0.765625
1696245281287,0.014404297,-0.9956665,0.07684326,0.1875,1.421875,-0.5625
1696245281330,-0.01171875,-0.98809814,0.09320068,2.3125,-0.53125,1.015625
1696245281369,-0.017578125,-0.99664307,0.054870605,0.328125,-0.015625,0.375
1696245281409,0.029296875,-0.9849243,0.07171631,0.515625,0.578125,0.015625
1696245281447,-0.010498047,-0.98638916,0.066101074,-0.140625,-0.25,0.40625
1696245281490,0.007080078,-0.9902954,0.059509277,-0.4375,-0.125,0.46875
1696245281527,0.016113281,-0.9768677,0.0680542,-0.25,0.453125,0.65625
1696245281568,-0.0026855469,-0.98272705,0.074401855,0.59375,0.203125,0.828125
1696245281608,-0.0026855469,-0.99420166,0.08099365,0.5,0.125,0.71875
1696245281650,0.015625,-0.9937134,0.074645996,0.609375,0.328125,0.75
1696245281687,0.001953125,-0.9883423,0.06976318,0.328125,-0.015625,0.59375
1696245281727,0.0,-0.9824829,0.06976318,0.8125,-0.015625,1.21875
1696245281767,0.0036621094,-0.9932251,0.06414795,0.90625,0.828125,1.296875
1696245281807,0.01586914,-0.9939575,0.06488037,1.6875,-0.078125,0.609375
1696245281848,0.0014648438,-0.9829712,0.08319092,1.875,-0.34375,0.8125
1696245281888,0.016113281,-0.9907837,0.038757324,-0.765625,0.03125,0.765625
1696245281929,0.030517578,-0.9763794,0.06585693,-0.171875,0.015625,-0.21875
1696245281967,-0.013916016,-1.0059204,0.057800293,0.296875,-0.625,0.640625
1696245282008,0.009033203,-0.9768677,0.06781006,0.4375,0.390625,0.53125
1696245282047,0.0068359375,-0.9981079,0.057800293,0.046875,-0.234375,0.578125
1696245282089,0.021972656,-0.98760986,0.05267334,-0.515625,-0.375,-0.109375
1696245282127,0.005126953,-0.9849243,0.05340576,-0.921875,-0.40625,0.515625
1696245282167,0.012207031,-0.987854,0.058288574,-0.5625,-0.3125,0.09375
1696245282206,0.014160156,-0.989563,0.06854248,0.28125,-0.53125,0.40625
1696245282270,0.007080078,-0.9890747,0.06732178,0.21875,-0.953125,0.09375
1696245282274,0.0087890625,-0.98028564,0.06512451,-0.03125,-0.4375,-0.140625
1696245282306,0.0073242188,-0.9873657,0.06756592,0.015625,-1.09375,0.21875
1696245282389,0.011474609,-0.9859009,0.070495605,0.484375,-1.140625,-0.078125
1696245282397,-0.004638672,-0.9949341,0.058532715,0.390625,-2.1875,0.28125
1696245282428,0.011230469,-1.00177,0.062683105,-0.125,-2.75,-0.421875
1696245282465,0.008544922,-0.98443604,0.07904053,0.890625,-2.109375,-0.96875
1696245282530,0.013671875,-0.9927368,0.038757324,-3.640625,-1.3125,-0.6875
1696245282566,0.0061035156,-0.987854,0.073913574,-0.671875,-1.5,-0.625
1696245282609,-0.0026855469,-1.0020142,0.06976318,-0.421875,-1.703125,-0.40625
1696245282626,0.0056152344,-0.9902954,0.06903076,-2.09375,-0.953125,-0.578125
1696245282687,0.0056152344,-0.95977783,0.070495605,-1.53125,-1.21875,-0.21875
1696245282706,-0.01171875,-0.9993286,0.08734131,-0.15625,-1.328125,0.171875
1696245282747,0.012939453,-0.9834595,0.061706543,-2.1875,-0.328125,-0.171875
1696245282787,-0.0031738281,-0.9776001,0.073913574,-0.765625,-0.359375,-0.125
1696245282827,-0.005126953,-0.99591064,0.08856201,-1.046875,-0.59375,0.09375
1696245282868,0.00390625,-0.9939575,0.08026123,-0.9375,-0.296875,-0.015625
1696245282906,-7.324219E-4,-0.9817505,0.08538818,-0.671875,-0.28125,-0.0625
1696245282970,-0.009277344,-0.9902954,0.07733154,-0.96875,-0.28125,0.203125
1696245282986,0.005126953,-0.9898071,0.08831787,-0.703125,-0.28125,0.140625
1696245283028,0.0031738281,-0.986145,0.074157715,-1.296875,0.03125,0.015625
1696245283067,-0.0048828125,-0.99346924,0.090026855,-0.28125,-0.78125,0.328125
1696245283130,-0.010498047,-0.9800415,0.09564209,0.578125,-0.96875,0.828125
1696245283148,0.012939453,-0.9963989,0.045837402,-2.796875,0.890625,-0.5
1696245283187,-0.0073242188,-0.9849243,0.11053467,0.9375,-0.546875,0.4375
1696245283227,-0.012939453,-0.9944458,0.07757568,-0.671875,-0.796875,0.359375
1696245283267,0.01171875,-0.9673462,0.08392334,-0.625,-0.109375,0.359375
1696245283331,-0.0056152344,-0.9937134,0.08660889,0.0625,-0.328125,0.34375
1696245283369,7.324219E-4,-1.0071411,0.09246826,0.4375,-1.0,0.375
1696245283385,0.010009766,-0.97052,0.08074951,-0.15625,-0.234375,0.828125
1696245283428,-0.0073242188,-0.98321533,0.08538818,-0.078125,-0.46875,0.984375
1696245283485,0.010498047,-0.99713135,0.0848999,0.578125,-0.96875,0.40625
1696245283529,0.0056152344,-0.9800415,0.0758667,1.203125,-0.1875,0.65625
1696245283545,0.0029296875,-0.9771118,0.089538574,1.25,-0.625,0.859375
1696245283567,0.0078125,-0.9866333,0.0836792,1.171875,-0.609375,0.578125
1696245283608,0.010986328,-0.986145,0.078063965,1.515625,-0.671875,0.890625
1696245283646,0.009033203,-0.98638916,0.06976318,0.484375,-0.203125,0.484375
1696245283688,0.00390625,-1.0007935,0.09173584,1.15625,-0.703125,0.703125
1696245283727,0.01171875,-0.98687744,0.08538818,2.125,-0.875,0.859375
1696245283769,0.02758789,-0.97735596,0.053894043,-1.1875,0.96875,-0.015625
1696245283810,-0.0031738281,-0.9924927,0.08026123,1.421875,-0.8125,0.671875
1696245283848,0.0075683594,-1.0081177,0.06951904,1.8125,-0.484375,0.78125
1696245283887,0.018066406,-0.9663696,0.06341553,1.859375,0.125,0.578125
1696245283929,0.0,-0.99346924,0.070007324,1.875,0.0625,0.703125
1696245283966,0.013427734,-1.000061,0.0836792,2.78125,-0.09375,0.328125
1696245284006,0.018798828,-0.9883423,0.066833496,1.5625,0.625,1.03125
1696245284048,0.0075683594,-0.9834595,0.058044434,0.46875,0.0,1.140625
1696245284088,0.0043945312,-0.9873657,0.06097412,1.21875,0.875,1.53125
1696245284127,0.01928711,-0.98931885,0.06317139,1.90625,1.5,1.0
1696245284167,0.0075683594,-0.98883057,0.06365967,1.328125,1.1875,1.03125
1696245284207,0.024902344,-0.98809814,0.041931152,1.453125,1.03125,1.140625
1696245284248,0.018066406,-0.99102783,0.047302246,1.15625,1.109375,1.25
1696245284288,0.020263672,-0.98687744,0.04046631,0.734375,1.359375,1.109375
1696245284327,0.014892578,-0.99420166,0.051208496,1.5,-0.0625,1.203125
1696245284366,0.026855469,-0.98443604,0.059509277,1.90625,-0.21875,0.65625
1696245284408,0.032958984,-0.98638916,0.024841309,0.03125,0.8125,0.765625
1696245284447,0.02319336,-0.9727173,0.050476074,0.90625,-0.5,0.625
1696245284486,0.010986328,-0.99664307,0.036071777,0.953125,-0.0625,0.609375
1696245284529,0.04663086,-0.989563,0.038757324,0.046875,-0.21875,-0.40625
1696245284567,0.022216797,-0.98687744,0.04046631,0.40625,-1.765625,0.265625
1696245284608,0.021484375,-0.99346924,0.049987793,-0.25,-2.203125,0.0625
1696245284648,0.016601562,-0.99298096,0.03338623,-2.046875,-3.03125,-0.515625
1696245284687,0.013427734,-0.9702759,0.03753662,-3.078125,-2.859375,-1.640625
1696245284726,0.011230469,-0.9871216,0.061706543,-2.734375,-2.890625,-1.703125
1696245284766,0.011230469,-1.0032349,0.051452637,-3.046875,-2.78125,-1.21875
1696245284807,0.018066406,-0.989563,0.057800293,-2.640625,-1.28125,-1.359375
1696245284849,0.021240234,-0.97784424,0.06072998,-2.21875,-1.484375,-0.375
1696245284886,0.010253906,-0.9854126,0.062438965,-2.015625,-1.078125,-0.1875
1696245284905,0.0126953125,-0.98687744,0.07244873,-1.359375,-0.921875,-0.046875
1696245284948,0.009277344,-0.9854126,0.058288574,-2.015625,-0.625,0.078125
1696245285010,0.015380859,-0.9907837,0.07562256,-1.5625,-0.5625,0.125
1696245285070,0.013671875,-0.98516846,0.0848999,-0.375,-0.5625,0.53125
1696245285073,0.013427734,-0.97979736,0.047790527,-2.609375,0.3125,0.28125
1696245285107,0.0029296875,-1.0071411,0.08538818,-0.140625,-0.5625,0.0
1696245285169,0.01953125,-0.98272705,0.074157715,-1.140625,-0.046875,0.171875
1696245285186,4.8828125E-4,-0.97369385,0.07879639,-0.859375,-0.453125,0.265625
1696245285249,0.017089844,-0.9944458,0.08465576,-0.5,-1.0,-0.046875
1696245285267,0.0014648438,-0.98443604,0.09075928,0.328125,-0.671875,0.328125
1696245285306,0.021240234,-0.99053955,0.070007324,-1.953125,0.03125,0.234375
1696245285370,0.009033203,-0.9927368,0.08416748,-0.859375,-0.6875,0.203125
1696245285387,0.009033203,-0.99542236,0.09051514,-0.4375,-0.75,0.296875
1696245285449,0.011962891,-0.9763794,0.08001709,-0.296875,-0.59375,0.359375
1696245285466,0.009521484,-0.98443604,0.085876465,-0.265625,-0.484375,0.34375
1696245285506,0.00390625,-0.975647,0.08392334,-0.484375,-0.75,0.296875
1696245285550,0.013916016,-0.9819946,0.093933105,-0.640625,-0.046875,0.46875
1696245285590,0.016845703,-0.9898071,0.074401855,-0.8125,-0.390625,0.03125
1696245285629,0.0075683594,-0.99713135,0.08734131,1.265625,-1.84375,0.5
1696245285669,0.01586914,-0.97857666,0.097351074,0.859375,-0.71875,0.453125
1696245285706,0.022460938,-0.9841919,0.04559326,-1.203125,0.0625,0.375
1696245285748,0.0061035156,-0.99957275,0.089538574,0.53125,-0.53125,0.328125
1696245285787,0.021484375,-0.975647,0.08880615,0.59375,-0.859375,0.40625
1696245285828,-0.0014648438,-0.9793091,0.08026123,0.5,-0.953125,0.71875
1696245285868,0.016845703,-0.9939575,0.08343506,-0.234375,-0.375,0.109375
1696245285905,0.022705078,-0.98028564,0.0758667,0.703125,-0.671875,-0.078125
1696245285969,-2.4414062E-4,-0.9915161,0.078063965,0.921875,-1.3125,0.09375
1696245285987,0.016113281,-0.989563,0.07684326,0.1875,-0.34375,0.34375
1696245286028,0.005859375,-0.989563,0.08392334,0.6875,-0.046875,0.28125
1696245286069,0.009033203,-0.9932251,0.07952881,0.953125,-0.625,0.15625
1696245286106,0.01586914,-0.9829712,0.082458496,1.1875,-0.234375,0.078125
1696245286171,0.0043945312,-0.9763794,0.066101074,1.71875,-0.671875,0.96875
1696245286190,0.021484375,-1.0076294,0.059020996,0.65625,0.125,-0.40625
1696245286208,0.034423828,-0.9824829,0.07733154,0.96875,0.09375,-0.25
1696245286248,-0.010009766,-0.9873657,0.06878662,0.1875,-0.46875,0.265625
1696245286288,0.013427734,-0.99957275,0.062927246,0.234375,-0.125,0.171875
1696245286327,0.00390625,-0.9976196,0.08709717,2.609375,-1.296875,0.796875
1696245286367,0.012939453,-0.97784424,0.035095215,-1.796875,1.109375,-0.125
1696245286409,0.011474609,-0.9907837,0.08123779,2.234375,-0.21875,0.390625
1696245286449,0.005126953,-0.9951782,0.05682373,0.953125,0.0625,0.421875
1696245286488,0.024658203,-0.9697876,0.06488037,0.84375,0.515625,0.546875
1696245286530,0.0048828125,-0.99346924,0.06365967,0.4375,0.296875,0.8125
1696245286567,0.01977539,-0.98101807,0.07635498,0.9375,0.640625,0.40625
1696245286607,0.018066406,-0.9907837,0.058776855,0.625,0.453125,0.71875
1696245286648,0.0146484375,-0.9866333,0.059265137,0.03125,0.4375,0.65625
1696245286688,0.010986328,-0.98687744,0.06781006,0.375,0.046875,0.796875
1696245286726,0.009521484,-0.9976196,0.051208496,1.078125,-0.109375,0.640625
1696245286768,0.020507812,-0.9890747,0.0680542,1.5,0.734375,0.578125
1696245286810,0.014404297,-0.9932251,0.04852295,0.609375,0.5,0.546875
1696245286847,0.012207031,-0.98883057,0.055114746,0.734375,0.3125,0.515625
1696245286888,0.020751953,-0.987854,0.05267334,0.25,0.265625,0.671875
1696245286926,0.028564453,-0.9758911,0.049743652,0.9375,-0.078125,0.40625
1696245286967,-0.006591797,-0.99884033,0.053649902,1.59375,-1.3125,1.0625
1696245287007,0.021484375,-0.98687744,0.061706543,1.59375,-0.125,0.3125
1696245287050,0.029296875,-0.986145,0.03314209,-0.03125,0.40625,0.484375
1696245287090,0.018554688,-0.9805298,0.047058105,0.34375,0.203125,-0.109375
1696245287127,0.020996094,-0.9981079,0.051452637,0.96875,-0.296875,0.5625
1696245287168,0.017578125,-0.9846802,0.044128418,0.359375,-0.40625,-0.15625
1696245287207,0.017822266,-0.9883423,0.047302246,-0.046875,-0.703125,0.484375
1696245287248,0.018798828,-0.9885864,0.04559326,0.765625,-1.453125,0.15625
1696245287288,0.024902344,-0.9871216,0.05316162,-0.78125,-2.125,-0.203125
1696245287327,0.013916016,-0.9883423,0.043151855,-0.96875,-2.59375,-0.4375
1696245287367,0.037353516,-0.9824829,0.04559326,2.015625,-2.953125,-0.640625
1696245287409,0.011230469,-1.006897,0.045837402,0.65625,-2.625,-0.03125
1696245287447,0.0029296875,-0.986145,0.047058105,-0.03125,-2.5625,-0.53125
1696245287488,0.0056152344,-0.9817505,0.03778076,-1.171875,-2.296875,0.015625
1696245287529,0.016845703,-0.98883057,0.047302246,-1.234375,-1.625,-0.28125
1696245287546,0.009033203,-0.9963989,0.04949951,-3.1875,-1.21875,-0.796875
1696245287586,-0.0048828125,-0.9949341,0.05657959,-4.15625,-0.015625,-0.03125
1696245287648,0.022949219,-0.9819946,0.061950684,-3.421875,0.125,-0.4375
1696245287665,0.02368164,-0.9990845,0.06488037,-3.25,0.28125,-0.109375
1696245287710,0.016845703,-0.99005127,0.06121826,-1.59375,-1.234375,0.0
1696245287770,0.01953125,-0.9768677,0.051208496,-3.4375,0.921875,-0.4375
1696245287787,-2.4414062E-4,-1.0005493,0.08782959,-0.28125,-0.75,0.625
1696245287827,0.014404297,-0.9885864,0.06439209,-1.71875,-0.203125,0.078125
1696245287871,0.011230469,-0.97857666,0.07269287,-1.359375,-0.015625,0.078125
1696245287910,0.0026855469,-0.987854,0.0692749,-1.0,-0.296875,0.328125
1696245287950,0.020507812,-0.9976196,0.07684326,-0.140625,-0.640625,-0.09375
1696245288010,0.014892578,-0.9812622,0.07366943,-0.921875,-0.296875,0.234375
1696245288048,0.010253906,-0.9902954,0.08123779,-0.40625,-0.703125,0.265625
1696245288066,0.0075683594,-0.9981079,0.08026123,-0.828125,-0.5,0.15625
1696245288109,0.0234375,-0.98028564,0.08807373,0.046875,-0.5,0.3125
1696245288147,0.020507812,-0.97857666,0.08319092,0.15625,-1.078125,0.46875
1696245288209,0.011962891,-0.9807739,0.0692749,-0.25,-0.796875,0.296875
1696245288247,0.017089844,-0.98394775,0.077819824,0.65625,-0.9375,0.265625
1696245288287,0.010498047,-0.9944458,0.08319092,0.5,-0.453125,0.234375
1696245288307,0.005859375,-0.9807739,0.094177246,1.421875,-0.71875,0.40625
1696245288346,0.017089844,-0.9805298,0.07977295,-1.078125,0.203125,-0.015625
1696245288388,0.011962891,-0.9873657,0.050231934,-1.09375,-0.859375,0.484375
1696245288430,0.014404297,-0.98809814,0.08856201,-0.078125,0.390625,0.109375
1696245288479,0.0034179688,-0.9849243,0.09100342,0.421875,-1.125,0.28125
1696245288506,0.016601562,-0.9834595,0.06976318,-0.625,-0.234375,-0.328125
1696245288546,0.010253906,-0.9915161,0.07122803,-0.4375,-0.015625,0.03125
1696245288588,0.014160156,-0.99664307,0.07928467,-0.390625,-0.28125,-0.171875
1696245288629,0.020996094,-0.98760986,0.082214355,-0.21875,-0.90625,0.0
1696245288668,0.0041503906,-0.98223877,0.07928467,-0.09375,-0.484375,0.46875
1696245288710,0.00390625,-0.99176025,0.085632324,-0.5625,-0.40625,0.265625
1696245288747,0.015625,-0.97857666,0.08514404,0.46875,-0.59375,0.0625
1696245288788,0.0041503906,-0.99786377,0.07293701,-0.15625,-0.59375,-0.203125
1696245288846,0.022705078,-0.97442627,0.078552246,0.09375,-0.15625,0.390625
1696245288847,0.0043945312,-0.9873657,0.07977295,-0.078125,-0.328125,0.484375
1696245288891,0.010009766,-0.991272,0.090026855,0.25,-0.296875,0.265625
1696245288966,0.0063476562,-0.99224854,0.07562256,-0.15625,-0.359375,-0.015625
1696245288968,0.0036621094,-0.9956665,0.0836792,0.125,-1.390625,0.09375
1696245289008,0.0078125,-0.9768677,0.10491943,2.25,-1.375,0.640625
1696245289046,0.010498047,-0.98638916,0.047546387,-2.109375,0.828125,-0.21875
1696245289087,0.009521484,-0.9920044,0.09100342,0.296875,0.109375,0.46875
1696245289128,0.0056152344,-0.9920044,0.08319092,0.0625,-0.796875,-0.28125
1696245289168,0.014404297,-0.9902954,0.078552246,-0.78125,0.0,-0.25
1696245289211,-0.0014648438,-0.9829712,0.08050537,0.078125,-0.75,0.125
1696245289248,0.0073242188,-0.98028564,0.085632324,0.640625,-0.875,0.0625
1696245289290,0.0012207031,-0.9924927,0.0680542,-0.46875,-0.34375,0.0
1696245289327,0.009765625,-0.9800415,0.08026123,0.015625,0.203125,0.125
1696245289368,4.8828125E-4,-0.989563,0.085632324,0.46875,-0.90625,0.234375
1696245289408,0.0126953125,-0.98638916,0.07562256,0.109375,-1.046875,0.265625
1696245289448,0.0017089844,-0.99176025,0.08343506,0.71875,-1.0,0.265625
1696245289488,-0.00390625,-0.9885864,0.07366943,-0.484375,-0.6875,-0.15625
1696245289527,0.0053710938,-0.98760986,0.08465576,-0.90625,-0.46875,0.140625
1696245289570,0.0036621094,-0.97784424,0.06854248,-0.84375,-0.40625,0.140625
1696245289608,0.00390625,-0.98760986,0.07879639,-0.140625,-1.40625,0.5
1696245289647,0.0034179688,-0.99224854,0.093688965,1.34375,-1.203125,0.671875
1696245289688,0.014892578,-0.9854126,0.05633545,-1.953125,1.078125,0.203125
1696245289728,0.0029296875,-0.9968872,0.09466553,0.734375,0.09375,0.609375
1696245289769,0.013671875,-0.98150635,0.07366943,0.078125,-0.46875,0.15625
1696245289808,0.010253906,-0.98101807,0.078552246,-0.09375,-0.0625,0.546875
1696245289848,-0.0017089844,-0.99957275,0.08074951,0.375,-0.671875,0.328125
1696245289888,0.01586914,-0.9807739,0.093688965,0.34375,-0.765625,0.015625
1696245289928,0.0078125,-0.99102783,0.07171631,-0.21875,-0.609375,0.359375
1696245289967,0.0043945312,-0.9795532,0.06854248,-0.125,-0.21875,0.25
1696245290009,0.010986328,-1.0010376,0.07977295,-0.03125,-0.578125,-0.28125
1696245290048,-0.0029296875,-0.96710205,0.07147217,0.375,-0.546875,0.265625
1696245290089,0.012207031,-0.99176025,0.0836792,-0.0625,-1.078125,0.109375
1696245290168,0.0087890625,-0.9866333,0.07904053,0.734375,-0.65625,0.203125
1696245290172,0.011962891,-0.98223877,0.077819824,0.296875,-0.828125,-0.03125
1696245290186,0.0061035156,-0.97052,0.07733154,-0.125,-0.375,0.171875
1696245290229,0.0029296875,-0.9927368,0.07098389,0.0,-0.65625,0.65625
1696245290268,-0.005859375,-1.0032349,0.08685303,1.78125,-1.5625,0.5625
1696245290307,0.02734375,-0.9834595,0.047790527,-2.34375,2.359375,-0.265625
1696245290370,-0.008544922,-1.003479,0.08831787,0.359375,0.0625,0.296875
1696245290407,0.014892578,-0.98931885,0.07757568,0.296875,0.375,-0.53125
1696245290426,0.016601562,-0.9663696,0.07904053,-0.34375,-0.28125,-0.078125
1696245290467,-0.016357422,-1.0078735,0.08392334,0.484375,-1.203125,0.453125
1696245290509,0.014892578,-0.9898071,0.08538818,0.171875,-1.0625,-0.59375
1696245290547,-0.0041503906,-0.989563,0.074157715,-0.828125,-0.265625,-0.296875
1696245290587,7.324219E-4,-0.9741821,0.08294678,-0.375,0.03125,0.359375
1696245290627,-4.8828125E-4,-1.0007935,0.082214355,0.484375,-0.640625,0.6875
1696245290668,0.008544922,-0.9824829,0.07489014,-0.15625,-0.1875,0.328125
1696245290710,-0.001953125,-0.9873657,0.07904053,-0.640625,0.0,0.359375
1696245290748,0.008300781,-0.99224854,0.07659912,-0.078125,0.0625,0.734375
1696245290788,0.013183594,-0.99298096,0.07489014,-0.078125,0.25,0.15625
1696245290827,-0.016601562,-0.9956665,0.08319092,1.796875,-1.8125,1.0
1696245290868,0.013427734,-0.9800415,0.07928467,0.96875,-0.375,0.3125
1696245290908,0.010009766,-0.9841919,0.04852295,-1.46875,1.109375,0.40625
1696245290947,0.016601562,-0.9846802,0.08001709,0.59375,0.4375,0.546875
1696245290990,-0.0036621094,-0.9976196,0.07977295,1.453125,-0.15625,0.6875
1696245291027,0.018310547,-0.98443604,0.07122803,0.765625,0.25,0.421875
1696245291067,0.0126953125,-0.9915161,0.07366943,0.25,0.09375,0.515625
1696245291108,0.016601562,-0.98565674,0.07977295,1.421875,-0.28125,0.796875
1696245291147,0.009033203,-0.9963989,0.070739746,-0.15625,-0.296875,0.453125
1696245291186,0.0078125,-0.9807739,0.06781006,-0.390625,0.234375,0.234375
1696245291229,0.011962891,-0.9927368,0.08123779,0.328125,0.09375,0.328125
1696245291267,0.009033203,-0.9883423,0.07122803,0.515625,-0.078125,0.234375
1696245291308,7.324219E-4,-0.9805298,0.07269287,0.4375,-1.15625,0.75
1696245291349,0.0068359375,-1.0003052,0.06951904,0.125,-0.28125,0.15625
1696245291387,0.010253906,-0.9907837,0.06561279,0.046875,-0.15625,0.21875
1696245291449,0.0034179688,-0.9902954,0.07562256,1.71875,-0.75,0.6875
1696245291489,0.0234375,-0.9841919,0.082214355,0.6875,0.09375,0.046875
1696245291494,0.0063476562,-0.97979736,0.05340576,-0.171875,-0.40625,0.5625
1696245291529,0.015136719,-0.9871216,0.07220459,0.109375,0.109375,0.109375
1696245291566,0.01171875,-0.987854,0.07366943,1.390625,-0.671875,0.265625
1696245291609,0.0024414062,-0.9871216,0.062683105,0.3125,-0.1875,-0.03125
1696245291646,0.010009766,-0.9849243,0.061950684,-0.03125,-0.078125,0.40625
1696245291687,0.018066406,-0.99884033,0.07318115,0.234375,0.125,0.234375
1696245291727,0.014160156,-0.9854126,0.06488037,-0.234375,-0.3125,-0.125
1696245291766,0.0063476562,-0.9849243,0.05999756,-0.28125,-0.265625,0.25
1696245291809,0.0036621094,-0.99420166,0.07562256,-0.109375,-0.421875,0.390625
1696245291852,2.4414062E-4,-0.98638916,0.0602417,0.140625,-0.296875,0.59375
1696245291892,0.0126953125,-0.9805298,0.073913574,0.21875,0.1875,0.390625
1696245291929,0.0063476562,-0.9817505,0.07147217,0.703125,0.21875,0.734375
1696245291967,0.007080078,-0.9898071,0.07098389,-0.078125,-0.203125,0.34375
1696245292006,0.015625,-0.986145,0.05706787,0.03125,-0.0625,0.671875
1696245292047,0.0073242188,-0.99420166,0.05682373,-0.046875,-1.015625,0.453125
1696245292088,0.0126953125,-0.99176025,0.07293701,1.0625,-0.734375,0.515625
1696245292129,0.024414062,-0.99468994,0.050964355,-1.859375,0.390625,0.03125
1696245292167,0.015136719,-0.9795532,0.07635498,1.25,-1.171875,0.25
1696245292208,7.324219E-4,-1.0015259,0.0602417,-0.53125,-1.71875,-0.5625
1696245292250,0.0063476562,-0.9763794,0.06439209,-0.125,-1.59375,0.15625
1696245292288,0.012451172,-1.0046997,0.06414795,-0.875,-1.65625,-0.40625
1696245292327,0.016845703,-0.9932251,0.059265137,-0.296875,-1.78125,-0.734375
1696245292388,0.0078125,-0.99053955,0.06585693,-1.859375,-1.65625,-0.421875
1696245292406,0.008056641,-0.99053955,0.06951904,-0.875,-1.421875,-0.1875
1696245292448,0.01586914,-0.9927368,0.078552246,-0.25,-1.859375,-0.15625
1696245292488,0.011474609,-0.98223877,0.06512451,-0.578125,-2.046875,0.078125
1696245292528,0.0063476562,-0.9859009,0.07122803,-1.0625,-1.265625,-0.140625
1696245292571,2.4414062E-4,-0.9854126,0.06756592,-0.6875,-1.390625,0.21875
1696245292609,-4.8828125E-4,-0.9973755,0.06463623,-0.734375,-0.953125,0.0625
1696245292647,0.0126953125,-0.9788208,0.08441162,-0.375,-0.421875,0.109375
1696245292687,-0.0012207031,-0.9849243,0.06072998,-1.0625,-0.71875,0.171875
1696245292735,-7.324219E-4,-0.9920044,0.07733154,0.03125,-1.375,0.71875
1696245292768,0.008300781,-0.9902954,0.07879639,-0.125,-1.046875,0.546875
1696245292786,0.025634766,-0.9932251,0.054626465,-3.046875,1.59375,-0.625
1696245292827,-0.0073242188,-0.99102783,0.09954834,0.9375,-0.484375,0.671875
1696245292866,0.01171875,-0.9976196,0.07659912,-0.59375,-0.46875,-0.0625
1696245292907,0.01977539,-0.9758911,0.07611084,-0.90625,-0.109375,-0.09375
1696245292946,0.0043945312,-0.99542236,0.08465576,-0.65625,-0.578125,0.03125
1696245292988,0.0126953125,-0.9927368,0.07537842,-0.78125,-1.28125,-0.15625
1696245293028,0.018066406,-0.97247314,0.08538818,-0.890625,-0.03125,0.140625
1696245293088,0.0043945312,-0.97540283,0.0993042,0.65625,-0.59375,0.609375
1696245293108,-0.0031738281,-0.9998169,0.07562256,-0.5,-1.296875,-0.03125
1696245293148,0.010986328,-0.9837036,0.081726074,-0.234375,-0.0625,0.171875
1696245293189,0.009765625,-0.99053955,0.0836792,0.5625,-0.5625,0.46875
1696245293227,0.0068359375,-0.99053955,0.077819824,-0.09375,-0.546875,0.453125
1696245293269,0.0073242188,-0.9793091,0.08392334,0.296875,-0.6875,0.4375
1696245293309,0.0043945312,-0.9829712,0.08441162,0.359375,-0.4375,0.59375
1696245293351,-0.0012207031,-0.9841919,0.07489014,-0.0625,-0.734375,0.21875
1696245293389,0.0061035156,-0.9973755,0.07952881,0.015625,-0.375,0.375
1696245293428,0.005126953,-0.98272705,0.07147217,0.9375,-1.421875,0.609375
1696245293468,0.015380859,-0.98565674,0.07269287,-0.828125,1.1875,-0.078125
1696245293508,0.009277344,-0.9937134,0.10028076,2.078125,0.0,0.828125
1696245293548,-0.012451172,-0.9807739,0.07489014,1.390625,-0.484375,0.734375
1696245293588,0.02319336,-0.98394775,0.0758667,0.59375,0.46875,0.21875
1696245293629,0.0126953125,-0.9920044,0.07220459,0.359375,-0.46875,0.125
1696245293668,0.014160156,-0.99468994,0.06732178,0.84375,-0.703125,0.5
1696245293708,0.021240234,-0.9854126,0.06536865,-0.578125,0.125,0.203125
1696245293749,0.004638672,-0.98516846,0.07220459,1.0,0.03125,0.765625
1696245293788,0.011230469,-0.98883057,0.08148193,0.859375,-0.359375,0.8125
1696245293830,0.0043945312,-0.99053955,0.06854248,-0.046875,-0.21875,0.28125
1696245293870,0.016113281,-0.99005127,0.07342529,0.34375,0.28125,0.203125
1696245293907,0.008056641,-0.98443604,0.07611084,0.15625,0.125,0.046875
1696245293947,0.010986328,-0.9873657,0.059509277,0.0,0.140625,0.4375
1696245293988,0.009521484,-0.97857666,0.06878662,0.625,0.265625,0.609375
1696245294029,0.0014648438,-0.9915161,0.070007324,0.421875,0.0,0.828125
1696245294089,0.0087890625,-0.98883057,0.085632324,1.53125,-0.296875,0.890625
1696245294106,0.0078125,-0.98150635,0.08026123,0.453125,0.3125,0.140625
1696245294126,0.017822266,-0.98931885,0.054870605,-0.1875,0.09375,0.96875
1696245294189,0.029541016,-0.9729614,0.06854248,0.109375,0.71875,0.28125
1696245294206,-0.0078125,-0.9939575,0.07757568,2.0625,-0.828125,1.453125
1696245294248,0.016357422,-0.9819946,0.0680542,0.96875,0.453125,0.28125
1696245294309,0.024169922,-0.98565674,0.059509277,0.03125,0.328125,0.75
1696245294328,0.0043945312,-0.98760986,0.05657959,-0.09375,-0.234375,0.515625
1696245294389,0.022460938,-0.9937134,0.05706787,-0.46875,-0.34375,0.453125
1696245294409,0.02368164,-0.986145,0.055358887,-0.328125,0.328125,0.40625
1696245294449,0.0075683594,-0.9834595,0.07244873,0.96875,0.015625,1.0
1696245294487,0.015625,-0.9920044,0.061950684,0.328125,-0.40625,0.5625
1696245294528,0.0146484375,-0.97784424,0.05609131,-0.046875,0.1875,0.1875
1696245294567,0.01953125,-0.98809814,0.066833496,0.421875,0.140625,0.71875
1696245294629,0.021728516,-0.99664307,0.06463623,0.09375,-0.109375,-0.015625
1696245294646,0.02368164,-0.9854126,0.06097412,1.0,0.15625,0.4375
1696245294691,0.013183594,-0.99176025,0.0602417,0.625,-0.046875,0.453125
1696245294750,0.020996094,-0.9854126,0.061950684,0.546875,0.109375,0.3125
1696245294789,0.013916016,-0.9805298,0.066101074,0.859375,-0.125,0.71875
1696245294805,0.026855469,-0.987854,0.048034668,-0.328125,0.828125,0.234375
1696245294872,0.02368164,-0.98272705,0.039978027,0.390625,-0.875,0.65625
1696245294886,0.024169922,-0.97247314,0.050964355,0.171875,0.078125,0.328125
1696245294930,0.025390625,-0.99102783,0.06512451,1.03125,-0.46875,0.53125
1696245294969,0.0234375,-0.98931885,0.050476074,0.265625,-0.328125,-0.609375
1696245295029,0.014892578,-0.9846802,0.053649902,0.0625,-0.875,0.390625
1696245295067,0.016357422,-0.99542236,0.053649902,-0.46875,-0.921875,0.140625
1696245295087,0.033447266,-0.989563,0.054870605,-0.984375,-1.03125,-0.1875
1696245295147,0.022460938,-0.9788208,0.049987793,-0.765625,-0.59375,0.203125
1696245295166,0.025146484,-0.98809814,0.058532715,-0.03125,-1.0,0.765625
1696245295209,0.0053710938,-1.0025024,0.053894043,-0.484375,-1.109375,0.28125
1696245295247,0.039794922,-0.9788208,0.06365967,0.109375,-0.34375,-0.546875
1696245295288,0.010986328,-0.98638916,0.059753418,0.078125,-1.40625,-0.203125
1696245295328,0.01953125,-1.0005493,0.06072998,0.84375,-2.25,-0.625
1696245295369,0.0234375,-0.99664307,0.06121826,0.203125,-2.078125,-0.953125
1696245295427,0.008056641,-0.9817505,0.055358887,-0.671875,-2.109375,-1.03125
1696245295447,0.006591797,-0.9837036,0.06463623,-1.8125,-1.96875,-0.828125
1696245295466,0.02368164,-0.9883423,0.070007324,-2.078125,-1.890625,-1.203125
1696245295507,0.0056152344,-0.99005127,0.058532715,-2.703125,-1.1875,-0.59375
1696245295548,0.02319336,-1.0005493,0.06097412,-2.71875,-1.828125,-0.5625
1696245295588,0.023925781,-0.97735596,0.050720215,-5.625,0.0,-1.546875
1696245295627,-0.0036621094,-0.99591064,0.09881592,-1.1875,-1.40625,-0.171875
1696245295667,-0.0075683594,-1.0025024,0.0692749,-2.296875,-0.578125,-0.59375
1696245295710,9.765625E-4,-0.96954346,0.078308105,-1.546875,-0.484375,-0.203125
1696245295749,0.0031738281,-0.98760986,0.07977295,-1.875,-0.328125,-0.21875
1696245295788,0.0078125,-0.9898071,0.08026123,-1.46875,-0.546875,-0.46875
1696245295828,0.0073242188,-0.9824829,0.07318115,-1.984375,-0.453125,-0.390625
1696245295868,-0.0031738281,-0.9793091,0.09539795,-0.71875,-0.171875,0.171875
1696245295908,-0.0041503906,-0.9849243,0.090026855,-0.65625,-0.546875,-0.203125
1696245295947,0.0075683594,-0.9812622,0.09466553,-0.421875,-0.15625,0.109375
1696245295989,-0.0036621094,-0.97979736,0.09686279,-0.140625,-0.265625,0.15625
1696245296026,-0.0036621094,-0.9841919,0.089538574,-0.484375,-0.40625,0.328125
1696245296071,0.0012207031,-0.9841919,0.08929443,-0.640625,-0.140625,0.59375
1696245296109,-0.0017089844,-0.9937134,0.09100342,0.765625,-0.6875,0.6875
1696245296148,0.0087890625,-0.97491455,0.090026855,0.359375,-0.40625,0.40625
1696245296189,-0.01171875,-0.9981079,0.0836792,0.859375,-1.046875,0.796875
1696245296230,0.022216797,-0.9763794,0.093688965,2.015625,-1.328125,0.8125
1696245296267,0.005126953,-0.99053955,0.07293701,-0.953125,-0.03125,0.3125
1696245296307,0.0078125,-0.99176025,0.10296631,0.109375,-0.3125,0.859375
1696245296345,0.0048828125,-0.987854,0.08709717,-0.171875,-0.703125,-0.171875
1696245296385,0.009521484,-0.97540283,0.09222412,0.390625,-0.65625,0.90625
1696245296426,-0.0031738281,-0.9924927,0.086364746,0.890625,-1.09375,0.609375
1696245296467,0.016113281,-0.9902954,0.08441162,1.0625,-1.1875,0.3125
1696245296506,0.009521484,-0.9824829,0.08148193,0.890625,-0.328125,0.21875
1696245296548,0.0048828125,-0.9834595,0.086364746,0.84375,-0.34375,0.34375
1696245296589,0.0075683594,-0.9873657,0.08343506,1.6875,-0.625,0.28125
1696245296629,0.010986328,-0.98687744,0.073913574,1.21875,-0.40625,0.34375
1696245296668,7.324219E-4,-0.9920044,0.081726074,1.359375,-0.484375,0.421875
1696245296707,0.006591797,-0.9800415,0.07635498,1.203125,0.046875,0.203125
1696245296749,-4.8828125E-4,-0.9819946,0.07659912,1.40625,-0.875,0.75
1696245296766,0.017333984,-0.98150635,0.06707764,0.46875,-0.078125,0.015625
1696245296807,-9.765625E-4,-0.9924927,0.0848999,2.890625,-1.34375,0.421875
1696245296847,0.009033203,-0.9819946,0.07366943,1.171875,0.1875,-0.125
1696245296886,0.017089844,-0.98321533,0.05731201,-0.09375,0.0625,0.125
1696245296948,0.0087890625,-0.9846802,0.07537842,0.21875,-0.046875,0.421875
1696245296989,-0.011474609,-1.0049438,0.07611084,1.734375,-0.890625,1.171875
1696245297007,0.014404297,-0.98394775,0.06585693,1.15625,0.46875,-0.0625
1696245297069,0.008300781,-0.98883057,0.06512451,0.625,-0.234375,0.34375
1696245297090,0.010498047,-0.9883423,0.062683105,0.078125,-0.5,0.578125
1696245297130,0.005126953,-0.99102783,0.06829834,0.03125,-0.921875,0.125
1696245297189,0.017333984,-0.9885864,0.059020996,-0.171875,-0.015625,0.140625
1696245297207,0.0061035156,-0.9854126,0.070007324,0.34375,-0.28125,0.234375
1696245297248,0.0056152344,-0.99102783,0.061706543,0.40625,-0.296875,0.234375
1696245297291,0.012451172,-0.9920044,0.06048584,0.109375,0.140625,0.40625
1696245297330,0.016845703,-0.9834595,0.06414795,1.046875,-0.59375,1.0625
1696245297368,-0.0041503906,-0.9968872,0.047058105,0.625,-0.4375,0.40625
1696245297411,0.03173828,-0.9907837,0.055603027,-0.203125,0.5625,0.09375
1696245297446,0.007080078,-0.9837036,0.0602417,0.0,-0.609375,0.171875
1696245297511,0.014892578,-0.99298096,0.048034668,-0.90625,-0.046875,0.015625
1696245297527,0.0026855469,-0.987854,0.07122803,1.546875,-0.953125,1.078125
1696245297567,0.022949219,-0.9885864,0.042663574,-1.140625,0.6875,0.09375
1696245297606,0.014404297,-0.9793091,0.0680542,0.90625,-0.125,0.40625
1696245297669,0.0043945312,-0.9990845,0.055114746,0.9375,-0.6875,0.21875
1696245297686,0.023925781,-0.9795532,0.058776855,0.34375,-0.296875,-0.15625
1696245297749,0.008056641,-0.9927368,0.053649902,0.109375,-0.109375,0.640625
1696245297767,0.02319336,-0.99176025,0.06781006,0.921875,-0.484375,0.390625
1696245297810,0.011962891,-0.9849243,0.04901123,-0.234375,-0.328125,0.453125
1696245297848,0.011230469,-0.98443604,0.06707764,0.109375,-0.25,0.546875
1696245297887,-2.4414062E-4,-0.98883057,0.049987793,0.390625,-0.8125,0.6875
1696245297927,0.03149414,-0.989563,0.051208496,-0.265625,-0.03125,-0.046875
1696245297967,0.0075683594,-0.98760986,0.05706787,0.265625,-0.046875,0.421875
1696245298008,0.013671875,-0.9949341,0.051696777,-0.421875,-0.59375,0.609375
1696245298048,0.015625,-0.9898071,0.05340576,-0.25,0.34375,0.234375
1696245298067,0.00390625,-0.9746704,0.05999756,0.09375,-0.5,0.8125
1696245298108,0.015380859,-0.9854126,0.07220459,1.21875,-1.34375,0.40625
1696245298149,0.013427734,-0.98101807,0.05731201,-0.484375,-0.28125,-0.25
1696245298187,0.018310547,-0.9859009,0.058288574,-0.28125,-1.3125,0.59375
1696245298230,0.014404297,-0.9824829,0.04071045,-1.0625,-0.078125,-0.1875
1696245298268,0.0126953125,-0.9915161,0.074401855,0.25,-1.203125,0.171875
1696245298329,0.013671875,-0.9890747,0.058532715,-1.09375,-0.96875,-0.328125
1696245298347,0.020019531,-0.98272705,0.051208496,-2.140625,-1.203125,0.109375
1696245298388,0.012451172,-0.9902954,0.058532715,-1.65625,-0.875,-0.078125
1696245298431,7.324219E-4,-0.99298096,0.06488037,-1.046875,-1.84375,0.375
1696245298467,0.029296875,-0.97979736,0.047790527,-2.1875,-0.21875,-0.546875
1696245298509,0.01171875,-0.97491455,0.07342529,-1.203125,-0.5,0.09375
1696245298548,0.0014648438,-0.99786377,0.06463623,-1.265625,-1.515625,0.34375
1696245298588,0.018310547,-0.98687744,0.07244873,-0.875,-0.84375,-0.109375
1696245298627,0.013671875,-0.98931885,0.06903076,-1.40625,-0.609375,0.078125
1696245298666,0.018066406,-0.9780884,0.078308105,-1.140625,-0.328125,0.171875
1696245298706,0.0043945312,-0.9898071,0.08807373,-0.296875,-0.890625,0.484375
1696245298746,0.0056152344,-0.98760986,0.066833496,-1.5625,-0.484375,0.3125
1696245298787,0.009765625,-0.9883423,0.08050537,0.3125,-0.859375,0.3125
1696245298827,0.01928711,-0.98809814,0.08905029,-0.84375,0.109375,-0.078125
1696245298867,0.010009766,-0.9944458,0.05340576,-2.34375,0.390625,0.234375
1696245298910,0.016601562,-0.98516846,0.08782959,-0.53125,0.34375,0.578125
1696245298950,0.005859375,-0.98931885,0.07562256,-0.234375,-0.609375,0.640625
1696245298988,0.023925781,-0.97491455,0.08001709,-0.796875,0.046875,0.375
1696245299029,0.0048828125,-0.98321533,0.09100342,-0.6875,-0.578125,0.671875
1696245299068,0.014892578,-0.99346924,0.086364746,-0.515625,-0.421875,0.078125
1696245299109,0.014160156,-0.98150635,0.06976318,-0.34375,-0.96875,0.140625
1696245299148,0.015380859,-0.9841919,0.07513428,-0.8125,-0.578125,0.3125
1696245299187,0.012451172,-0.99542236,0.08734131,0.109375,-0.34375,0.28125
1696245299228,0.0043945312,-0.9727173,0.08074951,0.234375,-0.65625,0.703125
1696245299267,0.0126953125,-0.98516846,0.08074951,-0.125,-0.703125,0.78125
1696245299308,0.020263672,-0.9807739,0.08319092,0.171875,-0.1875,0.171875
1696245299390,0.008300781,-0.9915161,0.08758545,0.34375,-0.96875,0.546875
1696245299394,0.028320312,-0.98809814,0.085876465,0.171875,-0.265625,0.421875
1696245299408,0.008056641,-0.98516846,0.093933105,0.296875,-0.671875,0.265625
1696245299447,0.025146484,-0.99176025,0.07293701,-1.546875,-0.125,0.03125
1696245299488,0.017333984,-0.98150635,0.07684326,0.421875,-1.046875,0.671875
1696245299529,0.018310547,-0.98223877,0.0836792,-0.375,0.265625,0.25
1696245299568,0.012939453,-0.99224854,0.0993042,0.453125,-0.4375,0.625
1696245299608,0.012939453,-0.98321533,0.07659912,0.328125,-0.546875,0.453125
1696245299651,0.020263672,-0.98638916,0.08538818,-0.828125,0.046875,-0.03125
1696245299687,0.013183594,-0.9920044,0.08441162,0.1875,-0.96875,0.1875
1696245299728,0.016601562,-1.0005493,0.08660889,1.140625,-1.125,0.0
1696245299788,0.023925781,-0.9788208,0.08685303,0.296875,-0.46875,-0.046875
1696245299806,0.016113281,-0.9890747,0.08319092,-0.40625,-0.734375,-0.0625
1696245299849,0.014404297,-0.98565674,0.08807373,0.4375,-1.359375,-0.28125
1696245299890,0.015136719,-0.989563,0.089538574,0.921875,-1.109375,0.015625
1696245299928,0.0073242188,-0.98809814,0.08001709,0.703125,-0.9375,-0.0625
1696245299971,0.017822266,-0.9871216,0.08514404,1.390625,-0.421875,0.03125
1696245300006,0.013671875,-0.9924927,0.08050537,1.109375,-0.140625,-0.15625
1696245300046,0.015625,-0.97979736,0.07489014,1.4375,-0.03125,0.109375
1696245300086,0.0056152344,-0.9883423,0.08709717,2.734375,-1.453125,0.65625
1696245300149,0.0053710938,-0.99591064,0.093444824,1.734375,-0.84375,0.328125
1696245300167,0.0126953125,-0.9907837,0.047302246,-1.796875,-0.625,-0.140625
1696245300209,0.014160156,-0.98394775,0.07171631,-1.40625,0.34375,0.140625
1696245300268,0.010009766,-0.9963989,0.08880615,0.09375,-1.0,0.3125
1696245300286,0.018798828,-0.9758911,0.06878662,-0.515625,0.0625,-0.125
1696245300349,0.0126953125,-0.9871216,0.07904053,-0.109375,-0.203125,0.671875
1696245300367,0.01928711,-0.97735596,0.07366943,0.453125,-0.734375,0.46875
1696245300428,0.01586914,-1.0032349,0.07537842,0.40625,-1.046875,0.34375
1696245300447,0.02368164,-0.9805298,0.06756592,-0.3125,-0.359375,0.171875
1696245300486,0.0031738281,-0.9812622,0.08416748,0.4375,-0.359375,0.71875
1696245300527,0.012939453,-0.9961548,0.07952881,0.390625,-1.015625,0.546875
1696245300568,0.014892578,-0.9890747,0.062683105,-0.1875,-0.390625,0.3125
1696245300628,0.011474609,-0.987854,0.07098389,0.515625,-0.578125,0.375
1696245300709,0.018554688,-0.9932251,0.06585693,0.4375,-0.546875,0.109375
1696245300715,0.01977539,-0.9898071,0.07318115,0.828125,-0.65625,0.1875
1696245300718,0.014160156,-0.99542236,0.06414795,0.34375,-0.421875,0.421875
1696245300748,0.017333984,-0.9963989,0.07611084,1.109375,-1.359375,0.390625
1696245300787,0.01586914,-0.97662354,0.086120605,1.90625,-0.703125,0.46875
1696245300830,0.014892578,-0.9920044,0.05267334,-1.015625,-0.609375,0.34375
1696245300869,0.016845703,-0.9780884,0.066345215,-0.328125,0.203125,0.546875
1696245300910,0.0146484375,-0.9937134,0.07122803,0.515625,-0.609375,0.09375
1696245300948,0.018066406,-0.99420166,0.05657959,-0.6875,-0.21875,-0.046875
1696245300987,0.02709961,-0.9795532,0.06903076,-0.15625,0.734375,0.296875
1696245301028,0.024414062,-0.99542236,0.058288574,0.203125,-0.53125,0.421875
1696245301067,0.017089844,-0.99224854,0.062683105,0.265625,-0.5,0.09375
1696245301109,0.013916016,-0.9817505,0.0602417,-0.078125,-0.125,0.203125
1696245301149,0.0078125,-0.9932251,0.07244873,-0.21875,-0.03125,0.09375
1696245301187,0.0075683594,-0.9866333,0.06512451,0.96875,-0.140625,0.21875
1696245301227,0.013671875,-0.9915161,0.06365967,0.46875,-0.453125,0.03125
1696245301268,0.013427734,-0.9898071,0.07562256,0.71875,-0.515625,0.203125
1696245301308,0.008544922,-0.9920044,0.06390381,0.515625,-0.421875,0.109375
1696245301349,0.021240234,-0.9890747,0.058288574,-0.046875,0.078125,0.234375
1696245301387,0.015136719,-0.98687744,0.07611084,1.96875,-1.03125,0.703125
1696245301428,0.01586914,-0.987854,0.062438965,0.15625,-0.21875,0.078125
1696245301466,0.035888672,-0.98809814,0.05316162,0.0625,-0.5,0.375
1696245301508,0.012939453,-0.9812622,0.05267334,-0.625,0.234375,-0.1875
1696245301547,0.017578125,-0.9927368,0.07269287,0.8125,-0.796875,0.71875
1696245301588,0.010986328,-0.9920044,0.058776855,1.125,-0.34375,0.078125
1696245301627,0.018554688,-0.987854,0.06048584,-0.265625,-0.28125,0.171875
1696245301668,0.020996094,-0.99005127,0.047790527,-0.484375,-0.265625,0.15625
1696245301706,0.020263672,-0.9937134,0.054870605,-0.34375,-0.390625,0.296875
1696245301747,0.01586914,-0.98638916,0.06048584,-0.171875,0.03125,0.484375
1696245301787,0.016845703,-0.9834595,0.06365967,0.234375,0.03125,0.609375
1696245301851,0.017089844,-0.98443604,0.054382324,0.359375,0.078125,0.453125
1696245301866,0.012939453,-0.9924927,0.0602417,0.40625,0.015625,0.328125
1696245301908,0.029052734,-0.9812622,0.061462402,-0.09375,-0.015625,0.3125
1696245301949,0.016845703,-0.986145,0.055603027,0.390625,-0.171875,0.578125
1696245301987,0.03125,-0.99005127,0.06439209,0.21875,-0.3125,0.59375
1696245302008,0.012207031,-0.9841919,0.06854248,0.921875,-0.625,0.515625
1696245302069,0.029052734,-0.9819946,0.055603027,-0.546875,0.265625,-0.203125
1696245302088,0.021240234,-0.9944458,0.05218506,-0.21875,-0.890625,0.671875
1696245302149,0.030029297,-0.9871216,0.04534912,-1.171875,0.9375,-0.078125
1696245302167,0.0146484375,-0.98809814,0.06903076,0.40625,-0.5,0.625
1696245302208,0.026855469,-0.98760986,0.050231934,-0.234375,-0.015625,-0.078125
1696245302249,0.013427734,-0.98321533,0.06488037,-0.328125,-0.078125,0.53125
1696245302288,0.015136719,-0.9915161,0.05731201,-0.546875,-0.421875,0.21875
1696245302328,0.018798828,-0.9920044,0.062438965,-0.25,-0.75,0.28125
1696245302371,0.022460938,-0.98565674,0.059020996,-0.1875,-0.359375,0.359375
1696245302408,0.022705078,-0.9834595,0.07147217,0.265625,-0.46875,0.4375
1696245302448,0.015625,-0.9890747,0.055114746,0.4375,-0.328125,0.390625
1696245302507,0.028320312,-0.99005127,0.06097412,0.484375,0.203125,0.375
1696245302531,0.0068359375,-0.99102783,0.05731201,0.015625,0.0625,0.609375
1696245302568,0.026855469,-0.98272705,0.054382324,0.328125,0.203125,0.5625
1696245302629,0.016845703,-0.9898071,0.05999756,0.0625,0.171875,0.34375
1696245302646,0.024169922,-0.9846802,0.050720215,-0.09375,-0.34375,0.5625
1696245302688,0.016845703,-0.9907837,0.054626465,0.5,-1.09375,0.609375
1696245302748,0.021484375,-0.9866333,0.070495605,1.40625,-0.671875,0.453125
1696245302766,0.025878906,-0.99005127,0.042419434,-1.203125,-0.15625,-0.046875
1696245302828,0.022460938,-0.9824829,0.06878662,0.40625,-0.125,0.078125
1696245302847,0.011230469,-0.99542236,0.059509277,0.265625,-1.109375,0.21875
1696245302889,0.029052734,-0.98687744,0.061706543,0.0,-0.28125,-0.125
1696245302948,0.012939453,-0.9937134,0.062438965,-0.328125,-0.328125,0.453125
1696245302966,0.017822266,-0.9915161,0.06903076,0.609375,-0.6875,-0.109375
1696245303030,0.021728516,-0.9976196,0.05706787,-0.375,-1.078125,0.0
1696245303048,0.014892578,-0.986145,0.058044434,-0.453125,-1.0625,-0.609375
1696245303088,0.024169922,-0.98443604,0.06048584,-0.25,-1.390625,-0.359375
1696245303149,0.021484375,-0.9854126,0.051696777,-0.25,-1.796875,-0.046875
1696245303187,0.016113281,-0.9873657,0.05706787,-0.265625,-1.1875,-0.21875
1696245303207,0.017822266,-0.99102783,0.055114746,-0.296875,-0.796875,-0.203125
1696245303251,0.021728516,-0.99224854,0.059753418,-0.015625,-0.609375,-0.109375
1696245303350,0.011230469,-0.991272,0.061706543,0.171875,-0.6875,0.34375
1696245303353,0.01171875,-0.98883057,0.06390381,0.84375,-1.03125,0.671875
1696245303356,0.025878906,-0.9834595,0.055603027,-0.5625,0.046875,-0.09375
1696245303387,0.017333984,-0.9939575,0.047302246,-0.25,-1.28125,0.625
1696245303431,0.024169922,-0.9800415,0.051696777,-1.125,1.265625,-0.421875
1696245303467,0.009277344,-0.9937134,0.06951904,1.375,-1.0625,0.796875
1696245303509,0.017578125,-0.98687744,0.050964355,0.4375,-0.6875,-0.640625
1696245303548,0.014892578,-0.9817505,0.06585693,0.078125,-0.65625,0.171875
1696245303587,0.014404297,-0.9949341,0.059020996,-0.21875,-0.34375,-0.25
1696245303628,0.013916016,-0.9854126,0.06097412,0.125,-0.890625,-0.1875
1696245303669,0.020507812,-0.9944458,0.046569824,-0.734375,-0.859375,0.203125
1696245303708,0.015625,-0.9890747,0.061950684,-0.296875,-0.4375,0.0625
1696245303749,0.022216797,-0.9961548,0.055114746,-0.859375,-0.796875,0.484375
1696245303789,0.018798828,-0.9751587,0.0602417,-0.15625,-0.953125,0.328125
1696245303826,0.008056641,-0.9883423,0.058288574,-0.71875,-1.328125,0.53125
1696245303868,0.014892578,-0.986145,0.06732178,0.0,-1.484375,0.3125
1696245303908,0.013671875,-0.98809814,0.0692749,0.3125,-1.265625,0.125
1696245303949,0.0146484375,-0.9873657,0.066101074,0.703125,-1.140625,0.609375
1696245303988,0.020996094,-0.9890747,0.07122803,-0.15625,-0.109375,0.125
1696245304028,0.012939453,-1.0010376,0.046081543,-1.265625,-0.21875,0.515625
1696245304067,0.020751953,-0.9915161,0.06121826,-1.578125,1.171875,-0.453125
1696245304108,0.013916016,-0.9846802,0.07537842,0.09375,-0.3125,0.21875
1696245304148,0.016357422,-0.989563,0.06707764,-0.5625,-0.421875,-0.265625
1696245304190,0.028320312,-0.98516846,0.06951904,-1.5625,-0.546875,-0.75
1696245304228,0.013671875,-0.9854126,0.07928467,-0.984375,-0.890625,-0.59375
1696245304269,0.01586914,-0.9951782,0.07318115,-1.34375,-1.375,-0.171875
1696245304308,0.020996094,-0.97125244,0.066345215,-1.9375,-0.765625,-0.46875
1696245304347,-0.0087890625,-1.0012817,0.08416748,-0.515625,-1.359375,0.453125
1696245304388,0.020263672,-0.99346924,0.07366943,-2.0625,0.109375,-0.078125
1696245304429,0.015136719,-0.9663696,0.08343506,-0.75,-0.203125,-0.421875
1696245304472,0.0014648438,-0.9944458,0.078552246,-1.125,-1.71875,-0.046875
1696245304513,-0.0012207031,-0.9937134,0.0836792,-1.296875,-0.875,-0.640625
1696245304547,0.015136719,-0.9758911,0.07757568,-1.59375,-0.4375,-0.734375
1696245304588,0.005126953,-0.97735596,0.086364746,-0.9375,0.0,-0.078125
1696245304627,0.009033203,-0.9834595,0.07757568,-0.765625,-1.25,0.21875
1696245304669,0.010986328,-0.98687744,0.07489014,-1.9375,0.890625,-0.296875
1696245304686,0.0041503906,-0.9963989,0.10321045,0.359375,-0.171875,0.515625
1696245304746,0.01586914,-0.9812622,0.07171631,-0.546875,-0.796875,-0.078125
1696245304768,0.0021972656,-0.99224854,0.074157715,-0.328125,-0.578125,0.109375
1696245304828,0.013427734,-0.9890747,0.093688965,0.890625,0.40625,0.3125
1696245304847,0.007080078,-0.9968872,0.073913574,0.484375,-0.25,0.671875
1696245304910,0.012451172,-0.9819946,0.078308105,0.5625,0.28125,0.734375
1696245304927,0.013427734,-0.9729614,0.090026855,1.546875,0.15625,1.265625
1696245304969,0.0078125,-0.9937134,0.08270264,2.296875,-0.296875,1.03125
1696245305027,0.0053710938,-0.99102783,0.07635498,2.109375,-0.34375,1.28125
1696245305046,0.0087890625,-0.9981079,0.085632324,1.171875,0.25,0.953125
1696245305089,0.022460938,-0.97320557,0.07757568,1.796875,0.171875,0.96875
1696245305126,0.008544922,-0.9834595,0.07537842,1.90625,-0.296875,1.46875
1696245305167,0.016845703,-1.0005493,0.06439209,0.5625,0.6875,1.046875
1696245305210,0.0087890625,-0.9873657,0.07342529,2.171875,-0.546875,1.15625
1696245305249,0.026123047,-0.9834595,0.04901123,-0.734375,1.03125,0.515625
1696245305308,0.015136719,-0.98809814,0.07611084,2.25,0.21875,1.078125
1696245305348,0.025146484,-0.9937134,0.07196045,1.875,0.34375,0.765625
1696245305368,0.012207031,-0.98443604,0.05657959,1.515625,-0.390625,1.25
1696245305409,0.03173828,-0.9927368,0.05682373,0.09375,0.734375,0.875
1696245305448,0.021240234,-0.98687744,0.046569824,0.421875,-0.4375,0.875
1696245305511,0.011962891,-0.9932251,0.04119873,0.484375,0.8125,0.859375
1696245305526,0.040283203,-0.99005127,0.062927246,1.546875,1.0,1.125
1696245305570,0.013916016,-0.9949341,0.043151855,0.5,-0.046875,1.328125
1696245305631,0.024414062,-0.9898071,0.050964355,0.703125,0.859375,0.921875
1696245305646,0.029052734,-0.98272705,0.05657959,1.359375,1.1875,1.03125
1696245305686,0.03149414,-0.9915161,0.042907715,0.375,0.890625,1.0
1696245305728,0.035888672,-0.9956665,0.030944824,-0.40625,1.78125,0.59375
1696245305789,0.029296875,-0.987854,0.055847168,0.359375,0.234375,1.140625
1696245305806,0.024414062,-1.0003052,0.05731201,0.890625,-0.359375,1.25
1696245305849,0.047607422,-0.9771118,0.02508545,-2.015625,1.546875,0.515625
1696245305888,0.03100586,-0.9846802,0.066345215,0.625,-0.140625,0.453125
1696245305949,0.038085938,-0.99884033,0.035095215,-0.828125,-0.46875,0.046875
1696245305953,0.03881836,-0.98516846,0.058776855,0.328125,0.453125,0.671875
1696245305988,0.03466797,-0.98638916,0.04095459,-0.71875,-0.5,0.4375
1696245306029,0.03466797,-0.9758911,0.05218506,0.28125,-0.609375,0.6875
1696245306067,0.0234375,-0.9927368,0.041931152,0.0625,-0.65625,0.625
1696245306109,0.052490234,-0.986145,0.04510498,-0.609375,-0.046875,-0.078125
1696245306147,0.020996094,-0.9871216,0.05291748,0.34375,-0.546875,0.15625
1696245306188,0.028564453,-0.9898071,0.042175293,-0.234375,-0.828125,0.421875
1696245306229,0.048828125,-0.99664307,0.06097412,0.078125,-0.5,0.234375
1696245306267,0.031982422,-0.986145,0.043395996,-0.109375,-0.390625,-0.453125
1696245306309,0.033203125,-0.986145,0.04534912,-0.4375,-0.40625,-0.03125
1696245306350,0.03466797,-0.9824829,0.050720215,0.359375,-0.921875,-0.140625
1696245306390,0.033203125,-0.98223877,0.07220459,0.75,-0.578125,-0.515625
1696245306430,0.020751953,-0.9873657,0.0368042,-0.65625,-1.796875,-1.15625
1696245306468,0.033935547,-0.98321533,0.057800293,0.59375,-2.875,-2.296875
1696245306507,0.019042969,-0.9949341,0.06536865,1.421875,-4.1875,-1.90625
1696245306550,0.01928711,-0.9846802,0.05267334,1.0,-4.015625,-1.375
1696245306589,0.024902344,-0.9829712,0.051696777,-0.484375,-2.984375,-1.234375
1696245306628,0.016113281,-0.987854,0.06488037,-0.78125,-2.796875,-0.90625
1696245306667,0.01586914,-0.99664307,0.048034668,-1.671875,-2.359375,-0.765625
1696245306708,0.028076172,-0.98565674,0.05267334,-2.015625,-1.6875,-0.34375
1696245306748,0.011962891,-0.97540283,0.07342529,-0.484375,-1.625,0.390625
1696245306790,0.015625,-0.987854,0.054870605,-1.90625,-1.84375,0.1875
1696245306828,0.021728516,-0.98394775,0.053649902,-2.03125,-1.140625,-0.015625
1696245306867,0.017333984,-0.99005127,0.06365967,-1.6875,-0.78125,-0.328125
1696245306907,0.017822266,-0.9807739,0.062194824,-1.4375,-0.4375,0.15625
1696245306950,0.020751953,-0.9898071,0.05999756,-0.609375,-0.125,0.375
1696245306987,0.010498047,-0.98101807,0.0770874,0.46875,-0.75,0.65625
1696245307029,0.018310547,-0.9849243,0.07147217,-1.1875,0.328125,-0.0625
1696245307067,0.010253906,-0.973938,0.05731201,-1.234375,-0.671875,0.71875
1696245307108,0.025878906,-0.9985962,0.06536865,-1.34375,0.09375,-0.578125
1696245307147,0.024169922,-0.9961548,0.078308105,-0.484375,-0.671875,0.03125
1696245307188,0.0126953125,-0.9746704,0.057556152,-0.8125,-0.265625,0.328125
1696245307229,0.025878906,-0.98883057,0.077819824,-1.046875,-0.3125,0.234375
1696245307268,-0.0021972656,-0.987854,0.08782959,0.59375,-0.765625,0.84375
1696245307288,0.024902344,-0.9898071,0.05999756,-1.6875,-0.53125,0.171875
1696245307351,0.028076172,-0.98809814,0.07318115,-0.828125,-0.171875,-0.265625
1696245307367,0.0063476562,-0.99053955,0.08001709,0.125,-1.0625,0.625
1696245307430,0.02758789,-0.9783325,0.0680542,0.015625,-0.671875,0.4375
1696245307447,0.016357422,-0.98687744,0.078552246,0.796875,-0.65625,0.578125
1696245307510,0.016113281,-0.9837036,0.06878662,0.515625,-0.625,0.609375
1696245307547,0.022705078,-0.9805298,0.081970215,0.796875,-0.703125,0.59375
1696245307588,0.014404297,-0.9846802,0.06536865,0.34375,-0.96875,0.875
1696245307607,0.04345703,-1.0007935,0.074157715,0.609375,-0.734375,0.3125
1696245307648,0.020507812,-0.9924927,0.07342529,-0.21875,-0.328125,-0.15625
1696245307689,0.025878906,-0.9793091,0.049987793,-1.203125,-0.28125,0.65625
1696245307728,0.025146484,-0.9841919,0.08343506,1.765625,-0.34375,0.765625
1696245307789,0.004638672,-0.9976196,0.06903076,1.78125,-1.265625,0.234375
1696245307806,0.033691406,-0.97662354,0.066589355,1.546875,0.15625,0.171875
1696245307870,0.012451172,-0.99053955,0.05999756,1.078125,-0.734375,0.34375
1696245307886,0.01953125,-0.9915161,0.07122803,0.921875,-0.234375,0.15625
1696245307928,0.020019531,-0.9873657,0.06341553,1.5625,-0.34375,0.46875
1696245307968,0.024658203,-0.9854126,0.047058105,0.265625,-0.109375,0.390625
1696245308008,0.027832031,-0.98809814,0.07244873,0.703125,0.34375,0.421875
1696245308046,0.012939453,-0.98150635,0.0602417,0.71875,-0.296875,0.8125
1696245308086,0.020263672,-0.99298096,0.055114746,1.28125,0.75,0.53125
1696245308129,0.03955078,-0.9961548,0.04949951,0.03125,0.921875,-0.0625
1696245308168,0.012207031,-0.9758911,0.047058105,0.796875,0.734375,0.5
1696245308229,0.03125,-0.98516846,0.06317139,0.8125,0.859375,1.375
1696245308268,0.018310547,-0.99542236,0.05291748,1.046875,0.296875,0.609375
1696245308285,0.022460938,-0.9824829,0.040222168,0.890625,0.109375,0.296875
1696245308350,0.024169922,-0.9871216,0.07196045,1.609375,0.78125,0.78125
1696245308388,0.033691406,-0.9944458,0.0289917,-0.953125,1.390625,0.25
1696245308406,0.031982422,-0.97125244,0.05657959,0.515625,0.96875,0.421875
1696245308471,0.01953125,-1.0020142,0.05316162,1.03125,0.109375,0.734375
1696245308509,0.026611328,-0.9800415,0.051452637,0.703125,0.515625,0.265625
1696245308526,0.033935547,-0.986145,0.051452637,0.453125,0.3125,0.765625
1696245308588,0.03100586,-0.97857666,0.05267334,1.859375,-0.171875,0.53125
1696245308607,0.01977539,-0.98760986,0.031921387,0.40625,-0.046875,0.375
1696245308627,0.028808594,-0.9993286,0.03753662,0.40625,0.5,0.75
1696245308668,0.028808594,-0.9829712,0.043884277,1.3125,0.0,0.671875
1696245308711,0.025634766,-0.98883057,0.031433105,0.53125,-0.1875,0.5625
1696245308751,0.029296875,-0.9902954,0.03387451,-0.5,0.28125,-0.046875
1696245308788,0.02709961,-0.9783325,0.04852295,0.71875,0.625,0.21875
1696245308830,0.015136719,-0.9963989,0.04046631,0.28125,-0.59375,0.421875
1696245308868,0.037353516,-0.9776001,0.027770996,-0.453125,0.078125,-0.453125
1696245308908,0.02758789,-0.98443604,0.038757324,0.015625,-0.4375,-0.171875
1696245308947,0.032226562,-0.9951782,0.03729248,-0.78125,-1.359375,-0.703125
1696245308987,0.026123047,-0.99835205,0.039978027,-0.65625,-2.75,-0.71875
1696245309028,0.032470703,-0.9807739,0.057800293,0.28125,-3.6875,-1.4375
1696245309070,0.026611328,-0.989563,0.02508545,-2.03125,-3.859375,-0.46875
1696245309109,0.028808594,-0.986145,0.04901123,-0.078125,-2.703125,-0.671875
1696245309149,0.0048828125,-0.98516846,0.047058105,0.234375,-3.125,-0.203125
1696245309188,0.011962891,-0.9949341,0.03289795,-1.703125,-2.171875,-0.25
1696245309229,0.026611328,-0.9871216,0.047058105,-1.984375,-2.171875,-0.703125
1696245309276,0.020751953,-0.97735596,0.06512451,-1.1875,-1.265625,-0.359375
1696245309311,0.021484375,-0.99468994,0.04949951,-1.578125,-1.609375,-0.125
1696245309348,0.017333984,-0.9951782,0.042907715,-1.4375,-1.765625,0.390625
1696245309388,0.018310547,-0.9871216,0.05682373,-1.375,-1.65625,-0.265625
1696245309428,0.0146484375,-0.9829712,0.05218506,-1.15625,-1.453125,0.125
1696245309468,0.020996094,-0.9812622,0.06561279,-1.59375,-0.71875,-0.0625
1696245309508,0.026123047,-0.9924927,0.06048584,-1.234375,-0.875,0.09375
1696245309547,0.020751953,-0.9846802,0.054138184,-0.984375,-0.625,0.0625
1696245309588,0.021240234,-0.9854126,0.06341553,-0.390625,0.0625,0.484375
1696245309628,0.021240234,-0.98150635,0.058532715,-0.75,0.375,0.109375
1696245309669,0.018310547,-0.9920044,0.059753418,-1.15625,0.296875,0.078125
1696245309708,0.0075683594,-0.9898071,0.07147217,0.03125,-0.015625,0.390625
1696245309747,0.021484375,-1.0042114,0.06414795,-0.46875,0.125,0.21875
1696245309788,0.032714844,-0.9883423,0.0770874,0.6875,-0.859375,0.109375
1696245309829,0.013916016,-0.99420166,0.05999756,-1.359375,-0.046875,0.203125
1696245309909,0.020019531,-0.9727173,0.078552246,0.953125,-1.84375,0.46875
1696245309913,0.025390625,-0.9849243,0.053894043,-1.125,-0.375,0.140625
1696245309927,0.013427734,-0.9846802,0.07684326,0.984375,-0.984375,0.46875
1696245309967,0.019042969,-0.97540283,0.044128418,0.828125,-0.421875,0.3125
1696245310030,0.01977539,-0.97784424,0.06781006,2.109375,-0.203125,0.78125
1696245310046,0.019042969,-0.9949341,0.059020996,1.59375,-0.765625,0.921875
1696245310110,0.01953125,-0.9859009,0.062438965,2.0625,-1.515625,0.578125
1696245310128,0.015380859,-0.989563,0.05633545,0.734375,-0.765625,0.796875
1696245310168,0.021484375,-0.98638916,0.06072998,0.515625,-0.328125,0.53125
1696245310208,0.014160156,-0.9871216,0.058776855,1.109375,-0.75,0.9375
1696245310271,0.025146484,-1.0007935,0.051696777,1.609375,-0.578125,0.734375
1696245310286,0.03466797,-0.99224854,0.03753662,2.0625,-0.25,0.90625
1696245310328,0.016601562,-0.98272705,0.035827637,1.859375,0.84375,1.15625
1696245310369,0.015625,-0.9817505,0.050231934,2.59375,0.71875,1.140625
1696245310430,0.018554688,-0.9885864,0.035827637,2.125,1.296875,0.84375
1696245310446,0.041015625,-0.987854,0.049987793,2.421875,0.90625,0.0625
1696245310488,0.037597656,-0.9968872,0.031921387,0.96875,0.46875,0.296875
1696245310529,0.016601562,-1.0100708,0.028747559,1.3125,-0.40625,-0.40625
1696245310576,0.022216797,-0.9885864,0.04901123,1.765625,0.3125,0.140625
1696245310608,0.030029297,-0.9920044,0.014099121,-1.109375,0.6875,0.21875
1696245310648,0.046875,-0.97979736,0.0446167,0.15625,-1.265625,0.453125
1696245310687,0.014160156,-1.003479,0.031433105,-0.078125,-2.78125,0.90625
1696245310729,0.029785156,-0.98150635,0.047790527,0.546875,-1.84375,0.4375
1696245310773,0.020996094,-0.9783325,0.030456543,-0.15625,-2.984375,0.828125
1696245310807,0.042236328,-0.9751587,0.028503418,0.3125,-2.765625,1.078125
1696245310849,0.053222656,-0.9924927,0.036315918,1.328125,-3.484375,1.25
1696245310888,0.032714844,-0.9834595,0.015075684,0.015625,-3.1875,1.71875
1696245310929,0.01928711,-0.98883057,0.034606934,0.921875,-1.609375,1.828125
1696245310968,0.037597656,-0.98809814,0.027526855,0.875,-1.09375,1.21875
1696245311008,0.029296875,-0.9866333,0.011169434,-0.078125,-0.421875,0.953125
1696245311049,0.02734375,-0.97979736,0.0138549805,0.65625,-0.140625,0.75
1696245311089,0.050048828,-0.98516846,0.0289917,1.125,-0.296875,0.375
1696245311126,0.030517578,-0.98809814,0.018981934,0.59375,-1.65625,0.15625
