# Sensor type: Respeck
# Activity type: Ascending stairs
# Activity subtype: Normal
# Subject id: s2104454
# Notes: unprocessed
timestamp,accel_x,accel_y,accel_z,gyro_x,gyro_y,gyro_z
1696243601872,0.053955078,-0.97076416,0.028015137,2.640625,-8.234375,0.75
1696243601913,0.045166016,-0.9561157,0.0524292,2.25,-5.828125,-0.515625
1696243601953,0.049316406,-0.9956665,-0.0012817383,-1.78125,-4.96875,0.09375
1696243601993,0.10595703,-0.94244385,0.09173584,6.765625,-6.59375,0.265625
1696243602034,0.011474609,-0.9758911,0.09832764,8.90625,0.40625,2.6875
1696243602074,-0.1262207,-0.9920044,0.04925537,3.34375,8.109375,-4.78125
1696243602113,-0.12084961,-1.0025024,-0.07501221,-1.75,12.875,-6.859375
1696243602154,0.056396484,-0.9614868,-0.13360596,-0.921875,18.703125,2.265625
1696243602193,0.025146484,-0.99713135,-0.0413208,-1.703125,7.390625,2.515625
1696243602234,-0.026855469,-1.2156372,-0.002746582,-3.84375,4.296875,1.921875
1696243602273,-0.051757812,-1.1350708,0.061462402,10.09375,5.234375,-2.1875
1696243602314,-0.032714844,-0.92315674,0.047790527,9.125,4.125,-3.625
1696243602354,0.046142578,-0.8357544,-0.026916504,8.703125,-2.703125,0.28125
1696243602394,-0.02368164,-0.95025635,-0.082336426,1.859375,-7.359375,2.578125
1696243602433,-0.0036621094,-0.96466064,-0.018127441,13.953125,-7.421875,4.703125
1696243602477,-0.15405273,-0.99713135,-0.06744385,5.671875,-6.734375,3.015625
1696243602535,-0.10864258,-0.96466064,-0.11602783,2.328125,-0.84375,2.015625
1696243602552,-0.020996094,-0.9690552,-0.06744385,1.4375,1.0625,6.203125
1696243602574,-0.040039062,-0.99420166,-0.04058838,-1.71875,-4.78125,4.578125
1696243602655,-0.05517578,-1.0437622,-0.022521973,-0.46875,-4.71875,6.859375
1696243602658,-0.04296875,-1.015686,-0.050842285,-3.28125,-4.40625,7.3125
1696243602696,0.037841797,-1.1060181,-0.08013916,-3.453125,-5.890625,8.9375
1696243602734,0.12133789,-1.2153931,-0.11065674,1.28125,-8.859375,12.34375
1696243602775,0.09326172,-1.1370239,-0.14630127,-0.25,-11.578125,10.90625
1696243602814,0.13989258,-1.1699829,-0.14898682,-5.546875,-4.203125,6.34375
1696243602853,0.24975586,-1.2463989,-0.15655518,0.046875,-1.046875,4.609375
1696243602898,0.32641602,-1.1174927,-0.0947876,-3.828125,-3.25,4.453125
1696243602933,0.24731445,-0.9768677,-0.051574707,-6.203125,-7.421875,3.859375
1696243602976,0.22509766,-0.9182739,-0.047180176,-8.078125,-9.390625,0.34375
1696243603016,0.23803711,-0.90826416,-0.031066895,-5.25,-9.984375,0.15625
1696243603055,0.2175293,-0.8748169,0.019226074,-5.390625,-11.578125,-0.375
1696243603094,0.17407227,-0.8093872,0.009216309,-5.765625,-15.3125,-2.984375
1696243603158,0.1381836,-0.78009033,0.0026245117,-4.53125,-17.46875,-3.765625
1696243603173,0.092285156,-0.7608032,-7.9345703E-4,-3.109375,-13.59375,-3.765625
1696243603214,0.123535156,-0.7415161,0.051696777,-1.125,-10.90625,-3.15625
1696243603255,0.10180664,-0.8196411,0.07318115,-1.546875,-11.171875,-4.140625
1696243603295,0.11450195,-0.9282837,0.0602417,-1.171875,-8.015625,-1.328125
1696243603355,0.12792969,-0.97198486,0.097595215,-0.1875,-4.171875,-1.0
1696243603372,0.09350586,-0.97784424,0.07879639,0.703125,-4.375,-0.421875
1696243603414,0.0859375,-0.97540283,0.07952881,-1.109375,-3.78125,-1.1875
1696243603453,0.064941406,-0.9944458,0.117614746,-1.59375,-2.9375,-0.40625
1696243603493,0.10449219,-0.97076416,0.116882324,0.078125,-1.4375,-1.703125
1696243603538,0.057861328,-0.9351196,0.13323975,-0.15625,-1.484375,-1.828125
1696243603574,0.057128906,-0.93536377,0.07366943,0.421875,-0.75,-1.796875
1696243603615,0.09057617,-0.944397,0.15863037,1.5625,4.25,-1.5
1696243603674,0.030761719,-0.97247314,0.035827637,-1.640625,1.0625,-4.234375
1696243603695,0.09814453,-0.923645,0.086364746,5.828125,-0.21875,-4.25
1696243603736,0.037353516,-0.9837036,0.07952881,5.265625,-1.28125,-2.4375
1696243603775,0.015136719,-0.9717407,0.03314209,5.9375,0.53125,-1.1875
1696243603834,0.1418457,-1.015686,0.08294678,6.640625,2.953125,-2.578125
1696243603853,0.091796875,-1.1026001,0.109313965,-0.3125,-4.046875,-0.828125
1696243603873,-0.005126953,-1.1323853,0.051452637,3.75,-5.421875,-5.171875
1696243603914,0.06201172,-1.190979,0.007751465,5.34375,-2.03125,-3.921875
1696243603954,0.1538086,-1.3001099,-0.009094238,9.109375,-1.046875,1.0625
1696243603994,0.12915039,-1.3215942,-0.057678223,11.5625,-2.859375,-3.015625
1696243604034,0.16137695,-1.217102,-0.03692627,9.140625,-0.84375,-5.375
1696243604074,0.10620117,-1.0576782,-0.13116455,4.625,-0.3125,-7.6875
1696243604114,0.11669922,-0.87384033,-0.15338135,14.125,1.8125,-3.1875
1696243604154,0.11767578,-0.8526001,-0.14117432,12.625,0.484375,-0.859375
1696243604196,0.048583984,-0.7996216,-0.13018799,3.078125,-2.84375,-2.609375
1696243604233,-0.037597656,-0.8218384,-0.1404419,-2.890625,1.328125,-3.5625
1696243604273,-0.0146484375,-0.8093872,-0.10089111,-4.375,6.828125,-4.25
1696243604314,-0.030273438,-0.86968994,-0.12896729,-2.671875,8.71875,-3.5
1696243604354,0.032958984,-0.9151001,-0.13238525,-0.21875,9.078125,-1.484375
1696243604393,0.032714844,-0.93536377,-0.08673096,0.765625,6.90625,0.03125
1696243604435,-0.0078125,-0.9495239,-0.13067627,2.734375,7.40625,0.59375
1696243604478,-0.0146484375,-0.9053345,-0.05303955,1.75,6.3125,3.421875
1696243604513,-0.09350586,-0.87750244,-0.10455322,-1.546875,0.09375,-1.078125
1696243604556,-0.033935547,-0.89141846,-0.051574707,3.171875,6.59375,1.59375
1696243604595,-0.036865234,-0.88116455,-0.13140869,-0.484375,3.75,2.359375
1696243604634,0.018554688,-0.927063,-0.06890869,0.265625,5.15625,3.140625
1696243604674,-0.017089844,-1.017395,-0.06866455,-0.984375,3.53125,4.34375
1696243604713,-0.022460938,-1.013977,-0.07745361,-1.0,1.703125,2.421875
1696243604754,-0.014160156,-0.9595337,-0.10040283,2.71875,1.46875,4.234375
1696243604793,0.00390625,-1.0120239,-0.08087158,4.140625,-0.03125,5.96875
1696243604834,0.008544922,-0.9834595,-0.054992676,0.546875,-2.453125,5.484375
1696243604875,-0.045898438,-0.95269775,-0.03765869,0.28125,-1.296875,4.15625
1696243604915,-0.038085938,-0.99835205,-0.13946533,-2.296875,-0.953125,2.96875
1696243604955,-0.017578125,-0.97052,-0.08770752,5.0,0.78125,4.03125
1696243604995,0.053222656,-1.0669556,-0.10479736,1.453125,1.34375,6.140625
1696243605035,0.042236328,-1.1062622,-0.07281494,-5.515625,-0.0625,3.828125
1696243605074,-0.057128906,-1.0684204,-0.18096924,-7.234375,-1.046875,2.6875
1696243605114,0.1262207,-1.0994263,-0.19708252,-3.828125,3.765625,5.5
1696243605155,0.1772461,-1.2532349,-0.15679932,-4.203125,-0.765625,4.5
1696243605172,0.18310547,-1.1658325,-0.18023682,-3.484375,-2.484375,2.90625
1696243605214,0.21020508,-0.99420166,-0.12823486,-2.671875,-2.796875,3.953125
1696243605254,0.15844727,-0.9155884,-0.050598145,-1.28125,-5.265625,3.359375
1696243605294,0.14208984,-0.90753174,-0.07232666,-5.125,-3.546875,-0.53125
1696243605334,0.19311523,-0.9492798,-0.12554932,-7.953125,-0.46875,-1.84375
1696243605373,0.19604492,-0.97540283,-0.07330322,-3.421875,-3.796875,-1.53125
1696243605414,0.16333008,-1.0601196,-0.019592285,-7.78125,-6.21875,-3.109375
1696243605455,0.11230469,-1.0335083,0.019958496,-10.9375,-10.609375,-3.703125
1696243605494,0.03881836,-0.92266846,-0.01373291,-9.6875,-10.640625,-6.296875
1696243605533,0.03100586,-0.7913208,-0.010314941,-5.859375,-6.0,-6.65625
1696243605574,0.0546875,-0.7608032,0.0067749023,-2.96875,-4.21875,-3.09375
1696243605613,0.09667969,-0.82232666,0.05316162,-4.609375,-4.46875,-2.734375
1696243605657,0.061767578,-0.8381958,0.07293701,-7.71875,-4.421875,-0.34375
1696243605716,-0.018310547,-0.8413696,0.06903076,-3.390625,-5.09375,-2.484375
1696243605755,0.10131836,-0.92315674,0.074645996,-1.546875,2.46875,1.421875
1696243605773,0.06542969,-0.9763794,0.06414795,-6.984375,-0.109375,-0.265625
1696243605816,0.025878906,-0.9993286,0.15496826,-0.234375,-1.921875,1.765625
1696243605856,-0.0029296875,-1.0256958,0.089538574,0.125,-1.015625,0.078125
1696243605894,0.047607422,-0.9558716,0.15447998,1.3125,2.1875,0.71875
1696243605935,-0.009277344,-0.927063,0.04046631,0.796875,-1.515625,0.765625
1696243605975,0.083740234,-0.9204712,0.10003662,4.5,0.1875,1.109375
1696243606014,0.037597656,-1.0032349,0.13397217,2.65625,2.5625,4.4375
1696243606055,-0.019042969,-0.9885864,0.054870605,4.515625,-1.46875,0.5
1696243606094,0.095703125,-0.9854126,0.14764404,6.6875,-0.5625,2.21875
1696243606157,-0.041259766,-0.96832275,0.0927124,9.296875,-3.171875,3.234375
1696243606172,0.09350586,-0.87872314,-0.09698486,20.625,-8.765625,1.875
1696243606234,0.23388672,-0.9998169,0.09857178,7.640625,-7.265625,3.359375
1696243606254,-0.052978516,-1.1463013,0.12420654,-0.3125,-4.84375,5.40625
1696243606293,-0.1159668,-1.0178833,-0.028381348,11.109375,4.515625,-4.78125
1696243606333,0.20288086,-1.0481567,-0.049865723,8.296875,5.21875,-1.78125
1696243606375,0.22290039,-1.3904419,-0.00592041,6.765625,-6.453125,1.828125
1696243606414,0.13183594,-1.4209595,-0.12286377,0.890625,-2.984375,0.59375
1696243606475,0.17822266,-1.144104,-0.14361572,10.140625,4.359375,-3.03125
1696243606479,0.12792969,-1.1482544,-0.1572876,1.53125,-0.25,-4.734375
1696243606514,0.07739258,-1.098938,-0.253479,0.125,8.578125,-3.65625
1696243606595,-0.0063476562,-1.0628052,-0.16436768,5.28125,15.640625,-5.9375
1696243606602,0.04663086,-1.0435181,-0.18463135,2.703125,11.90625,-5.78125
1696243606635,0.16113281,-0.8496704,-0.08843994,4.578125,14.703125,-5.203125
1696243606677,0.029052734,-0.5779419,0.003112793,12.8125,11.703125,-1.296875
1696243606714,-0.0146484375,-0.45440674,-0.045715332,1.1875,9.78125,-3.9375
1696243606757,-0.008544922,-0.38702393,-0.08331299,-6.375,4.453125,-6.234375
1696243606794,-0.012207031,-0.58795166,-0.12774658,-9.015625,0.21875,-5.515625
1696243606836,0.029785156,-0.9570923,-0.16607666,-9.96875,-2.125,-5.203125
1696243606873,0.08569336,-1.3389282,-0.13677979,-7.28125,-9.609375,-2.828125
1696243606915,-0.05078125,-1.284729,-0.070617676,-0.40625,-9.265625,0.265625
1696243606954,-0.14868164,-0.98809814,0.023132324,0.8125,0.75,-0.390625
1696243606994,-0.15820312,-0.7559204,0.032409668,2.140625,3.796875,0.6875
1696243607036,-0.023925781,-0.7942505,-0.03643799,3.015625,-1.78125,3.046875
1696243607075,-0.040527344,-0.96661377,-0.10333252,-3.15625,-2.234375,6.453125
1696243607114,-0.09814453,-1.0532837,-0.077697754,1.890625,-1.859375,5.25
1696243607154,-0.024658203,-1.0342407,-0.03302002,0.296875,0.078125,5.34375
1696243607193,-0.08251953,-1.031311,0.028503418,-1.0,2.0,9.03125
1696243607236,-0.15673828,-0.9907837,0.012878418,-5.84375,1.140625,4.234375
1696243607273,-0.14379883,-1.006897,-0.11529541,-4.5,2.375,5.03125
1696243607316,0.09375,-1.0962524,-0.112854004,-7.21875,4.703125,5.28125
1696243607354,0.16308594,-1.2175903,-0.030090332,-7.75,-1.703125,8.203125
1696243607394,-0.03491211,-1.2310181,-0.031066895,-6.75,-6.6875,9.828125
1696243607436,0.030517578,-1.2136841,-0.117492676,-3.3125,-3.515625,2.859375
1696243607475,0.36938477,-1.364563,-0.05255127,18.28125,5.765625,5.96875
1696243607515,0.3701172,-1.0476685,-0.16021729,10.21875,-0.296875,7.796875
1696243607554,0.18823242,-0.82598877,-0.14801025,11.5625,-10.390625,10.890625
1696243607592,0.21923828,-0.9961548,-0.14703369,5.75,-14.296875,9.078125
1696243607633,0.1862793,-1.0806274,-0.105773926,-0.125,-10.28125,5.6875
1696243607675,0.12109375,-0.98809814,-0.04425049,-7.0,-10.875,2.28125
1696243607714,0.10229492,-0.76885986,-0.042053223,-14.1875,-11.890625,-3.421875
1696243607753,0.07495117,-0.5498657,-0.05670166,-11.15625,-16.984375,-4.0
1696243607773,0.087890625,-0.4512329,-0.0010375977,-5.625,-12.578125,-1.015625
1696243607817,0.031982422,-0.5618286,-0.020080566,-0.28125,-5.625,0.046875
1696243607855,0.08544922,-0.8496704,-0.028137207,2.0625,1.84375,-5.703125
1696243607918,0.18896484,-1.2622681,0.034606934,-2.109375,2.046875,-4.890625
1696243607934,0.11230469,-1.3213501,0.07928467,-8.65625,1.515625,-1.890625
1696243607974,0.080078125,-0.93048096,0.11199951,-1.4375,-3.28125,-4.953125
1696243608016,0.060791016,-0.8279419,0.07757568,6.578125,-7.171875,0.265625
1696243608054,0.095947266,-0.7888794,0.06512451,4.25,-0.6875,-1.125
1696243608097,0.09716797,-0.88482666,0.09320068,5.296875,4.390625,-1.59375
1696243608134,0.0546875,-0.9898071,0.046325684,3.3125,3.234375,-4.171875
1696243608175,0.08300781,-1.0410767,0.06756592,5.046875,-0.390625,-4.09375
1696243608234,0.033691406,-0.9927368,-0.014709473,5.046875,-4.484375,-7.234375
1696243608273,0.18823242,-0.98883057,-0.02935791,13.5625,-4.546875,-3.15625
1696243608292,0.048095703,-1.1484985,-0.08453369,7.640625,-2.703125,3.171875
1696243608335,0.10253906,-1.1167603,-0.22686768,12.71875,2.671875,-5.640625
1696243608394,0.31982422,-1.1841431,-0.21148682,8.15625,6.671875,0.15625
1696243608412,0.12597656,-1.5982056,-0.12017822,3.15625,-4.71875,0.0
1696243608475,0.032714844,-1.4624634,-0.27593994,-6.703125,-1.625,-10.0625
1696243608493,0.23803711,-1.2778931,-0.4661255,8.109375,5.71875,-2.53125
1696243608535,0.046875,-1.3740845,-0.2966919,2.046875,4.5625,-2.375
1696243608575,-0.08984375,-1.1004028,-0.17852783,8.9375,7.546875,-9.5625
1696243608635,-0.0034179688,-0.5947876,-0.02935791,7.734375,14.984375,-11.015625
1696243608653,-0.0048828125,-0.13433838,-0.022277832,-12.0625,20.765625,-6.25
1696243608695,-0.020507812,0.10467529,-0.01763916,-9.75,18.84375,-7.6875
1696243608733,0.04711914,-0.1104126,-0.09991455,-1.796875,14.515625,-4.203125
1696243608776,0.15966797,-0.51226807,-0.27008057,-0.421875,-2.1875,9.109375
1696243608813,-0.2084961,-1.5689087,-0.14752197,-2.328125,-12.328125,7.03125
1696243608854,-0.14379883,-2.0,-0.055480957,-6.296875,2.890625,5.546875
1696243608894,-0.24145508,-0.98638916,0.06878662,-2.59375,26.6875,-7.53125
1696243608934,0.18603516,-0.3352661,-0.031555176,13.421875,21.09375,2.15625
1696243608975,0.0625,-0.77301025,-0.05255127,-0.265625,-0.75,27.921875
1696243609014,-0.22558594,-0.862854,-0.08111572,3.15625,-4.578125,3.296875
1696243609078,-0.1105957,-1.1675415,-0.13189697,1.375,4.34375,2.234375
1696243609094,-0.01171875,-1.1541138,-0.10650635,-4.078125,5.1875,10.015625
1696243609112,-0.11035156,-0.99884033,-0.04473877,-2.734375,3.125,6.109375
1696243609157,-0.08496094,-0.97784424,-0.082336426,-2.609375,8.9375,5.078125
1696243609194,0.087646484,-1.0618286,-0.14215088,-1.46875,5.609375,6.140625
1696243609235,0.09741211,-1.1011353,-0.20855713,3.28125,1.171875,12.375
1696243609275,0.18139648,-1.1782837,-0.23834229,-4.4375,-7.046875,13.796875
1696243609313,0.050048828,-1.4932251,-0.08770752,-10.875,-9.40625,10.484375
1696243609355,0.12207031,-1.250061,-0.23101807,-3.078125,-6.25,-0.375
1696243609395,0.3635254,-1.1504517,-0.16461182,-3.140625,-2.609375,-0.703125
1696243609436,0.34594727,-1.3833618,-0.11260986,-13.078125,-14.078125,1.46875
1696243609475,0.12866211,-1.1958618,-0.017150879,-17.15625,-17.796875,-2.1875
1696243609515,0.068847656,-0.8479614,-0.053771973,-10.625,-15.515625,-2.859375
1696243609555,0.12109375,-0.4175415,-0.04815674,-10.140625,-9.53125,-1.171875
1696243609594,0.08959961,-0.11260986,-0.013244629,-17.46875,-8.3125,0.328125
1696243609635,-0.025390625,-0.12384033,0.042419434,-10.6875,-3.859375,-1.3125
1696243609675,0.005859375,-0.46051025,-0.0413208,4.796875,3.96875,3.6875
1696243609716,0.2614746,-1.0261841,0.0993042,10.4375,19.1875,4.703125
1696243609754,0.34936523,-1.8357544,0.18182373,-8.8125,-8.421875,3.921875
1696243609794,0.06762695,-1.2771606,0.054138184,-4.09375,-19.6875,-10.15625
1696243609836,0.1616211,-0.77545166,0.018249512,4.78125,-9.5625,-4.703125
1696243609875,0.01586914,-0.829895,0.07733154,-0.875,-4.09375,3.71875
1696243609915,0.011962891,-0.86553955,0.09661865,-4.375,4.71875,5.296875
1696243609955,0.106933594,-0.87042236,0.08050537,1.78125,6.46875,0.171875
1696243609995,0.13671875,-0.9915161,0.09515381,4.140625,6.078125,3.625
1696243610035,0.11791992,-0.98516846,0.057800293,3.25,5.46875,2.046875
1696243610074,0.13354492,-0.9590454,0.04144287,7.15625,1.03125,1.890625
1696243610116,0.12231445,-0.9385376,0.11907959,11.59375,0.96875,3.640625
1696243610153,0.09716797,-0.93341064,0.066345215,3.71875,-0.015625,0.453125
1696243610195,0.091308594,-1.0039673,0.11029053,9.90625,0.421875,3.4375
1696243610236,0.1105957,-1.0379028,0.066101074,5.640625,-1.453125,-2.75
1696243610274,0.09667969,-1.0579224,-0.038391113,7.765625,-0.25,-4.96875
1696243610314,0.22363281,-1.1780396,0.0099487305,10.265625,1.65625,-3.90625
1696243610355,0.13720703,-1.4697876,-0.06500244,7.171875,-4.296875,-6.546875
1696243610435,0.19360352,-1.4324341,-0.09844971,12.046875,-4.640625,-11.5625
1696243610441,0.24438477,-1.1992798,-0.17218018,8.5625,-2.5,-10.046875
1696243610473,0.12792969,-1.1655884,-0.2366333,-1.859375,-7.96875,-9.890625
1696243610495,0.059814453,-0.9204712,-0.1963501,8.984375,4.9375,-10.375
1696243610534,0.10888672,-0.9031372,-0.09112549,7.75,5.65625,-8.09375
1696243610575,0.024169922,-0.8921509,-0.17071533,-3.03125,1.515625,-12.5
1696243610635,-0.021728516,-0.6970825,-0.06427002,7.6875,6.421875,-11.859375
1696243610656,7.324219E-4,-0.5928345,-0.028137207,-0.0625,8.71875,-15.421875
1696243610717,-0.0715332,-0.503479,-0.029846191,-6.140625,8.34375,-12.484375
1696243610755,-0.111572266,-0.5664673,-0.07354736,-12.640625,4.515625,-11.90625
1696243610773,-0.1081543,-0.8196411,-0.08795166,-23.625,1.234375,-16.21875
1696243610815,-0.037597656,-1.2202759,-0.05230713,-12.984375,7.484375,-2.328125
1696243610858,-0.05078125,-1.2417603,0.054626465,-1.203125,0.40625,-4.484375
1696243610895,-0.13549805,-0.9673462,0.023620605,-3.234375,-6.28125,-7.578125
1696243610934,-0.08984375,-0.93414307,-0.02520752,6.671875,-1.46875,4.921875
1696243610973,-0.24951172,-0.9048462,0.0065307617,3.890625,-1.078125,5.65625
1696243611015,-0.17578125,-0.90875244,-0.11846924,1.109375,0.140625,-0.40625
1696243611054,-0.053955078,-0.9578247,4.272461E-4,6.5625,-0.984375,7.796875
1696243611093,-0.15698242,-0.9841919,-0.015686035,0.46875,-4.625,9.609375
1696243611136,-0.12719727,-1.0110474,-0.0647583,3.9375,-4.109375,7.53125
1696243611174,-0.013183594,-1.0283813,-0.09283447,10.078125,1.8125,11.09375
1696243611216,-0.00390625,-1.079895,-0.16485596,9.140625,1.5625,15.28125
1696243611273,0.010009766,-1.2246704,-0.10406494,5.875,-4.03125,16.234375
1696243611292,-0.01928711,-1.2822876,-0.101867676,1.359375,-7.953125,15.03125
1696243611351,-0.1184082,-1.3154907,-0.21173096,-1.203125,-1.3125,9.90625
1696243611392,0.14819336,-1.3223267,-0.18218994,2.75,2.921875,5.0625
1696243611433,0.25341797,-1.1934204,-0.15533447,-1.4375,0.03125,2.125
1696243611474,0.2043457,-1.1121216,-0.19830322,-12.703125,-6.34375,-0.484375
1696243611515,0.17089844,-1.1533813,-0.0015258789,-12.046875,-9.21875,-1.78125
1696243611534,0.044921875,-1.036438,0.035827637,-18.296875,-15.296875,-6.421875
1696243611575,-0.013427734,-0.6309204,0.0014038086,-16.140625,-10.9375,-9.84375
1696243611614,0.076660156,-0.19049072,-0.025939941,-29.640625,0.15625,-4.3125
1696243611655,0.0021972656,0.039489746,0.022155762,-19.125,-0.6875,-2.953125
1696243611694,-0.0625,-0.3538208,0.06121826,-0.59375,-0.609375,0.890625
1696243611712,-0.049804688,-0.94976807,0.061462402,3.171875,0.875,3.453125
1696243611755,0.23876953,-1.9956665,0.18914795,-9.484375,1.765625,0.40625
1696243611794,-0.00390625,-1.4561157,0.21185303,-8.734375,-11.28125,1.8125
1696243611834,-0.034179688,-0.75323486,0.117126465,6.59375,-5.484375,-3.3125
1696243611875,-0.02368164,-0.67315674,0.10345459,9.921875,-8.34375,10.9375
1696243611916,-0.08178711,-0.7984009,0.09466553,8.140625,-0.921875,5.78125
1696243611954,0.075927734,-0.90289307,0.11395264,13.5,0.65625,3.03125
1696243611997,0.12475586,-1.0078735,0.12884521,9.421875,-4.25,6.1875
1696243612035,0.04272461,-1.0823364,0.21478271,8.640625,-6.53125,3.25
1696243612075,-0.01977539,-1.0874634,0.13446045,5.109375,-6.625,-1.78125
1696243612116,-0.0107421875,-1.0457153,0.14227295,10.84375,0.21875,-5.0625
1696243612155,0.056152344,-1.1436157,-0.04888916,13.46875,-1.59375,-8.78125
1696243612193,0.2849121,-1.4234009,0.02532959,2.59375,3.78125,5.234375
1696243612234,-0.015380859,-1.6467896,-0.16241455,-0.859375,-4.828125,-5.796875
1696243612273,-0.018066406,-1.2857056,-0.19390869,14.3125,12.4375,-14.234375
1696243612314,0.07714844,-1.1091919,-0.20733643,9.0,10.453125,-6.1875
1696243612353,-0.056640625,-1.071106,-0.3242798,-4.46875,7.390625,-8.265625
1696243612393,7.324219E-4,-0.92681885,-0.14898682,13.84375,14.9375,-4.0
1696243612432,0.107666016,-0.7432251,-0.10015869,22.734375,7.984375,-2.0
1696243612472,0.13549805,-0.40875244,-0.020812988,7.5,9.015625,3.8125
1696243612513,0.016113281,-0.18511963,-7.9345703E-4,-1.609375,4.78125,1.296875
1696243612552,-0.107666016,-0.37042236,-0.06768799,-4.4375,0.390625,-3.46875
1696243612593,-0.15649414,-0.6885376,-0.11407471,-9.875,-0.859375,-5.234375
1696243612633,-0.10546875,-1.2893677,-0.21514893,0.828125,5.421875,1.703125
1696243612672,-0.02734375,-1.4419556,-0.17779541,-6.296875,-6.765625,6.703125
1696243612713,-0.04296875,-1.1521606,-0.026184082,6.59375,-0.203125,3.0625
1696243612752,-0.12890625,-0.91656494,0.009460449,4.890625,8.53125,10.078125
1696243612792,-0.17211914,-0.8023071,-0.12286377,-1.671875,7.140625,6.625
1696243612833,-0.020751953,-0.8543091,-0.07330322,6.125,5.46875,7.421875
1696243612873,-0.076660156,-0.9898071,-0.1104126,4.40625,2.4375,13.34375
1696243612914,-0.13208008,-1.0230103,-0.11236572,-4.328125,5.609375,4.046875
1696243612953,-0.11401367,-1.1157837,-0.08770752,-5.1875,8.578125,8.53125
1696243612995,-0.053466797,-1.0239868,-0.14459229,-5.953125,8.21875,5.625
1696243613035,0.08276367,-1.0735474,-0.17828369,-0.171875,10.859375,8.609375
1696243613053,0.21118164,-1.2871704,-0.16021729,-7.4375,2.640625,10.5625
1696243613094,0.010986328,-1.4490356,-0.20343018,-8.359375,-9.125,10.515625
1696243613136,0.025878906,-1.3677368,-0.15753174,-5.109375,1.984375,4.375
1696243613174,0.15014648,-1.2554321,-0.16436768,-5.171875,7.84375,1.90625
1696243613215,0.24072266,-1.067688,-0.14459229,-3.109375,5.75,0.671875
1696243613254,0.27270508,-1.0159302,-0.09112549,-13.9375,4.59375,1.28125
1696243613297,0.08911133,-0.9578247,-0.057922363,-12.140625,0.65625,-0.203125
1696243613334,0.052978516,-0.75787354,-0.012512207,-10.9375,0.703125,-3.125
1696243613375,0.084472656,-0.46710205,-0.00982666,-13.1875,4.375,-2.75
1696243613418,0.043945312,-0.24542236,-0.01763916,-13.6875,4.84375,-3.03125
1696243613458,0.06762695,-0.23590088,0.043395996,-9.28125,8.15625,-2.765625
1696243613497,0.02368164,-0.58721924,0.07684326,-1.78125,12.53125,2.3125
1696243613555,0.07128906,-1.1975708,0.093688965,-5.171875,18.3125,-1.828125
1696243613572,0.1730957,-1.7783813,0.16571045,-7.8125,10.1875,0.328125
1696243613633,-0.013916016,-1.1572876,0.061950684,1.109375,4.390625,-3.8125
1696243613673,0.056152344,-0.7276001,0.10394287,8.84375,4.9375,-1.515625
1696243613693,-0.09106445,-0.7654419,0.043151855,-1.203125,8.671875,6.21875
1696243613733,-0.09277344,-0.8731079,0.078552246,-1.65625,21.5625,3.953125
1696243613773,0.14868164,-1.0598755,0.035583496,-1.921875,23.203125,2.171875
1696243613813,0.1796875,-1.1189575,0.06097412,-6.859375,17.078125,2.671875
1696243613854,0.025878906,-1.0327759,0.13275146,-3.75,16.96875,0.671875
1696243613893,-0.02368164,-0.9898071,0.07171631,0.421875,19.421875,-1.3125
1696243613933,0.08959961,-0.9102173,0.15374756,2.0,22.9375,-0.671875
1696243613972,-0.020263672,-0.92193604,0.13275146,-2.78125,21.59375,-2.671875
1696243614013,-0.14257812,-0.8936157,-0.026428223,-4.5625,31.796875,-9.0625
1696243614054,0.06225586,-1.0357056,-0.10430908,-1.40625,38.25,-9.515625
1696243614115,0.20361328,-1.1585083,-0.055480957,5.96875,32.71875,0.609375
1696243614132,-0.018310547,-1.0396118,0.0038452148,3.71875,33.234375,-3.109375
1696243614198,-0.09667969,-0.880188,-0.09210205,-8.609375,36.296875,-10.53125
1696243614212,-0.051757812,-0.8855591,-0.08746338,-0.5625,38.0,-4.859375
1696243614253,0.047851562,-0.9976196,-0.14605713,-0.890625,37.609375,-2.140625
1696243614295,0.034179688,-1.0484009,-0.06768799,1.625,33.296875,-0.625
1696243614335,-0.080078125,-1.0857544,0.014099121,5.515625,33.5625,-2.03125
1696243614353,-0.0949707,-0.9697876,-0.0095825195,4.84375,35.03125,-0.78125
1696243614395,-0.09472656,-0.89556885,-0.058410645,3.9375,34.921875,0.5
1696243614438,-0.080566406,-0.881897,-0.13092041,3.390625,34.375,2.234375
1696243614475,-0.053955078,-0.9295044,-0.13970947,5.375,32.609375,3.0
1696243614514,-0.0625,-0.987854,-0.09088135,6.125,31.140625,4.484375
1696243614556,-0.17553711,-1.0164185,-0.10723877,-0.3125,29.390625,4.609375
1696243614594,-0.1772461,-1.0264282,-0.13214111,-4.421875,30.5,3.265625
1696243614634,-0.03466797,-0.99176025,-0.086242676,-5.25,30.59375,4.015625
1696243614674,-0.025390625,-1.0332642,-3.0517578E-4,-2.4375,25.828125,7.125
1696243614714,-0.043945312,-1.0488892,0.026550293,-11.734375,18.375,5.5
1696243614754,-0.053222656,-0.9937134,0.09637451,-17.53125,9.6875,3.921875
1696243614794,-0.12573242,-1.0459595,0.08856201,-24.640625,8.515625,1.84375
1696243614833,-0.14526367,-1.1668091,-0.004699707,-18.609375,16.25,-0.8125
1696243614873,0.20996094,-1.1394653,-0.023254395,0.609375,17.828125,2.4375
1696243614912,-0.01977539,-0.91241455,-0.013244629,-4.5,13.390625,-5.3125
1696243614955,-0.10961914,-0.7625122,-0.10308838,7.515625,21.578125,-1.9375
1696243614996,0.18530273,-0.7835083,0.010681152,5.3125,31.5,8.640625
1696243615034,0.18676758,-1.1677856,0.062194824,-8.59375,20.125,4.921875
1696243615074,0.057617188,-1.2105103,0.019470215,-9.8125,22.15625,-1.359375
1696243615116,-0.034179688,-0.8916626,0.02923584,7.09375,32.546875,2.640625
1696243615154,-0.006591797,-0.819397,0.06561279,0.875,35.578125,5.0
1696243615194,0.025390625,-0.9258423,0.074645996,-1.203125,35.953125,5.828125
1696243615236,0.05419922,-1.0025024,0.04119873,1.390625,36.765625,4.546875
1696243615276,0.095947266,-0.986145,0.06341553,2.5,36.375,3.96875
1696243615314,0.052246094,-0.9553833,0.08734131,2.84375,34.1875,3.21875
1696243615354,0.012207031,-0.9480591,0.03363037,2.453125,32.03125,2.359375
1696243615394,0.059814453,-0.95880127,0.07147217,3.03125,31.453125,1.453125
1696243615435,0.10644531,-0.9807739,0.09246826,2.515625,30.515625,3.265625
1696243615475,0.08276367,-0.9607544,0.09515381,-0.84375,26.890625,1.609375
1696243615515,0.03881836,-0.9697876,0.07879639,-2.078125,23.171875,-0.1875
1696243615554,-0.04711914,-1.0213013,0.09588623,-4.03125,27.296875,-3.65625
1696243615595,-0.030029297,-1.1008911,0.0048217773,-1.640625,29.640625,-4.96875
1696243615635,0.115234375,-1.0755005,-0.034729004,-1.109375,26.078125,-3.359375
1696243615653,0.061767578,-1.0947876,0.031677246,-2.09375,22.984375,-0.140625
1696243615716,-0.08984375,-1.093811,-0.019836426,-3.765625,29.5,0.109375
1696243615735,-0.034179688,-0.925354,-0.13067627,-3.28125,35.84375,-5.859375
1696243615775,0.12084961,-0.8726196,-0.19732666,-0.15625,32.359375,2.765625
1696243615818,0.010253906,-0.9480591,-0.20513916,2.0,24.265625,0.109375
1696243615876,-0.14428711,-0.9883423,-0.11090088,2.34375,27.0625,-4.28125
1696243615892,-0.064941406,-1.0100708,-0.08428955,4.09375,34.4375,0.3125
1696243615936,-0.011474609,-0.9680786,-0.057678223,4.125,36.21875,-0.4375
1696243615977,-0.048095703,-0.9483032,-0.20367432,-3.265625,34.09375,-1.65625
1696243616015,0.018310547,-0.9480591,-0.066223145,5.359375,30.140625,1.515625
1696243616055,-0.0014648438,-1.045227,-0.10284424,2.125,22.078125,4.5
1696243616095,0.0031738281,-0.99884033,-0.05621338,-1.296875,21.53125,3.171875
1696243616135,-0.030517578,-0.97662354,-0.04034424,-2.359375,17.078125,3.671875
1696243616174,-0.06762695,-0.97979736,-0.03741455,-4.515625,15.640625,2.15625
1696243616217,-0.07104492,-0.9573364,-0.05255127,-3.4375,13.6875,2.859375
1696243616255,-0.041259766,-0.9685669,-0.04058838,-3.0625,12.578125,4.375
1696243616292,-0.07421875,-0.989563,-0.035949707,-3.4375,9.25,5.0625
1696243616334,-0.08081055,-1.006897,-0.023498535,-5.765625,7.109375,4.640625
1696243616393,-0.091796875,-1.0300903,0.03314209,-3.859375,4.53125,5.578125
1696243616412,-0.14819336,-1.0493774,0.030944824,-7.578125,3.765625,5.65625
1696243616475,-0.0126953125,-1.0525513,0.009460449,-10.59375,7.0625,5.46875
1696243616495,-0.025390625,-1.1130981,0.008483887,-0.34375,11.234375,15.09375
1696243616533,0.052978516,-1.2212524,-0.0115356445,-9.3125,2.640625,9.84375
1696243616576,-0.03173828,-1.2959595,-0.051330566,-6.359375,2.53125,4.921875
1696243616614,0.07910156,-1.2993774,-0.17437744,-1.4375,7.34375,0.015625
1696243616676,0.5041504,-1.1536255,-0.17462158,6.921875,7.796875,5.203125
1696243616693,0.44873047,-1.1013794,-0.04034424,10.328125,11.625,12.359375
1696243616735,0.08227539,-1.0742798,-0.06915283,-7.5,0.453125,4.53125
1696243616775,0.1862793,-0.9290161,0.027038574,-2.875,6.890625,4.359375
1696243616815,0.047607422,-0.7896118,0.039978027,-5.171875,13.34375,2.609375
1696243616857,0.05444336,-0.5786743,-0.051086426,-6.109375,16.609375,-4.34375
1696243616894,0.21557617,-0.4998169,-0.08306885,-6.203125,17.703125,4.234375
1696243616933,0.19262695,-0.56451416,0.035583496,-2.3125,15.578125,6.375
1696243616994,0.13549805,-0.8184204,0.04925537,-4.3125,13.171875,4.59375
1696243616997,0.16894531,-0.9841919,0.042907715,-10.796875,16.171875,3.953125
1696243617035,0.23266602,-1.0569458,0.06414795,-6.359375,12.484375,3.375
1696243617075,0.25512695,-1.0601196,0.066345215,-3.28125,10.625,4.9375
1696243617115,0.16772461,-0.9846802,0.11273193,-2.296875,6.890625,3.3125
1696243617156,0.115234375,-0.942688,0.082458496,-0.171875,7.140625,0.78125
1696243617196,0.15942383,-0.8850708,0.113220215,-0.109375,10.3125,1.671875
1696243617234,0.17163086,-0.9224243,0.04168701,0.9375,7.609375,0.15625
1696243617274,0.19238281,-0.9246216,0.082214355,2.046875,5.625,0.484375
1696243617314,0.10253906,-0.9229126,0.085632324,4.828125,4.640625,-1.5
1696243617355,0.099853516,-0.8735962,0.07122803,0.25,5.859375,-4.859375
1696243617395,0.09863281,-0.8911743,0.09100342,6.671875,8.84375,-3.640625
1696243617434,0.053466797,-0.90093994,0.07733154,8.78125,8.484375,-5.4375
1696243617474,0.1315918,-0.97442627,-0.016174316,10.234375,7.078125,-5.453125
1696243617514,0.23144531,-1.3035278,0.058288574,6.4375,7.328125,-1.265625
1696243617555,0.14892578,-1.5942993,0.019470215,6.734375,-0.203125,-6.671875
1696243617595,0.24609375,-1.602356,-0.10870361,7.59375,-0.421875,-5.09375
1696243617635,0.26245117,-1.453186,-0.12042236,10.109375,0.09375,-1.5
1696243617674,0.16577148,-0.9944458,-0.19659424,5.640625,6.84375,-4.359375
1696243617714,0.04711914,-0.78692627,-0.17510986,12.40625,16.234375,-6.203125
1696243617755,0.17089844,-0.9492798,-0.105285645,10.8125,19.1875,-3.5
1696243617796,0.18945312,-0.85601807,-0.10430908,2.390625,9.515625,-7.34375
1696243617834,0.032714844,-0.55792236,-0.019836426,2.171875,0.890625,-5.234375
1696243617874,-0.115722656,-0.48638916,-0.039611816,0.90625,3.484375,-6.765625
1696243617912,-0.08935547,-0.47198486,-0.053527832,-4.9375,7.90625,-8.375
1696243617956,0.09887695,-0.538147,-0.17242432,-7.0,3.9375,-7.734375
1696243617996,0.2619629,-0.76812744,-0.15557861,-15.890625,-10.390625,-0.34375
1696243618036,0.06640625,-1.5916138,0.016784668,-39.015625,-22.25,-3.578125
1696243618077,-0.33935547,-1.5737915,0.098083496,4.203125,-2.578125,-1.578125
1696243618114,-0.06665039,-0.72247314,-0.014221191,22.515625,12.46875,-9.515625
1696243618156,0.29956055,-0.61968994,-0.06011963,10.375,-3.46875,3.25
1696243618197,-0.15698242,-0.892395,-0.074035645,-6.453125,-16.390625,6.859375
1696243618239,-0.2043457,-0.9456177,-0.101623535,-8.71875,0.078125,-5.03125
1696243618278,-0.037109375,-0.98809814,-0.04522705,-8.390625,6.984375,-1.53125
1696243618293,-0.08618164,-1.0496216,-0.009338379,-1.140625,1.875,3.8125
1696243618334,-0.07446289,-1.0498657,0.01727295,-4.125,3.0625,3.625
1696243618374,0.0087890625,-0.9649048,0.003112793,-3.78125,0.140625,3.796875
1696243618414,0.057617188,-1.0576782,-0.034484863,-4.671875,-3.75,7.609375
1696243618457,0.0036621094,-1.27594,-0.050842285,-6.328125,-2.0625,10.140625
1696243618514,0.12207031,-1.4451294,-0.04840088,-7.15625,-8.765625,9.578125
1696243618533,0.16137695,-1.4917603,-0.020568848,5.296875,-8.96875,5.703125
1696243618598,0.22241211,-1.25177,-0.17340088,11.453125,-8.234375,-1.59375
1696243618616,0.41357422,-1.0952759,-0.101623535,13.15625,-4.453125,1.890625
1696243618655,0.20019531,-1.1309204,-0.013977051,-3.296875,-3.28125,2.25
1696243618695,0.075683594,-0.9939575,-0.15948486,-13.6875,-11.5625,-4.71875
1696243618735,0.1459961,-0.8328247,0.09320068,-0.953125,-6.484375,-2.5625
1696243618797,-0.029541016,-0.6321411,0.016052246,-6.984375,-9.21875,-4.265625
1696243618814,-0.08959961,-0.21539307,-0.0335083,-3.796875,-4.84375,-9.09375
1696243618855,0.05908203,-0.1585083,-0.0049438477,-0.796875,4.828125,-2.015625
1696243618895,0.07080078,-0.51934814,-0.047668457,-0.015625,7.875,3.671875
1696243618933,0.11450195,-1.0508423,0.11175537,-7.890625,8.390625,6.796875
1696243618974,0.115478516,-1.7305298,0.059265137,-4.59375,-1.375,6.296875
1696243619013,0.14282227,-1.1380005,0.12298584,4.5,-2.359375,-1.59375
1696243619055,0.08984375,-0.7971802,0.08856201,9.90625,-4.921875,0.9375
1696243619095,-0.05517578,-0.7737427,0.019226074,3.640625,-2.890625,5.09375
1696243619134,0.06933594,-0.87701416,0.093933105,5.5,4.625,6.28125
1696243619196,0.15234375,-1.0149536,0.08026123,-0.296875,3.890625,0.90625
1696243619213,0.064453125,-1.0896606,0.074157715,4.90625,0.8125,-0.46875
1696243619255,0.048339844,-0.98809814,0.061950684,7.328125,0.875,-0.6875
1696243619318,0.10083008,-0.95147705,-0.024963379,5.234375,-3.9375,-2.453125
1696243619334,0.17651367,-1.0310669,-0.012756348,13.078125,-4.0,4.078125
1696243619398,0.0925293,-1.2175903,-0.035461426,9.546875,-1.546875,4.171875
1696243619435,0.12060547,-1.52594,-0.12872314,12.359375,4.984375,1.71875
1696243619455,0.2944336,-1.5454712,-0.17828369,8.015625,1.609375,-2.3125
1696243619494,0.19238281,-1.3091431,-0.25860596,-2.46875,-1.84375,-6.40625
1696243619555,0.045166016,-1.0818481,-0.24005127,4.453125,2.375,-3.65625
1696243619574,0.12988281,-0.89385986,-0.12335205,6.796875,10.6875,-4.484375
1696243619593,0.13720703,-0.8179321,-0.15411377,-1.765625,6.4375,-5.796875
1696243619636,-0.017089844,-0.6436157,-0.059631348,4.59375,2.46875,-2.921875
1696243619677,-0.029052734,-0.43243408,-0.07867432,0.921875,4.5625,-5.375
1696243619717,-0.010498047,-0.39605713,-0.093811035,-0.609375,3.375,-5.0625
1696243619756,0.04272461,-0.60284424,-0.11431885,-1.96875,-0.875,-2.921875
1696243619794,0.0053710938,-0.9290161,-0.144104,-4.53125,-5.65625,-0.84375
1696243619834,-0.0043945312,-1.2510376,-0.13653564,-2.9375,-4.984375,-1.71875
1696243619874,-0.013916016,-1.196106,-0.06329346,-1.765625,-5.078125,0.4375
1696243619915,-0.07299805,-0.9561157,-0.04547119,-1.5,-1.5,-2.90625
1696243619954,-0.05419922,-0.88165283,-0.08868408,-2.859375,-0.328125,-3.03125
1696243619997,-0.030761719,-0.894104,-0.11505127,-5.828125,-3.84375,-2.9375
1696243620033,0.02368164,-0.9053345,-0.112854004,-5.609375,-4.4375,0.84375
1696243620076,0.04272461,-0.9116821,-0.04815674,-13.09375,-7.078125,1.25
1696243620114,-0.14892578,-1.0742798,0.015808105,-10.078125,-6.25,5.4375
1696243620156,-0.17480469,-1.0942993,0.0079956055,-7.671875,3.921875,2.203125
1696243620197,-0.0715332,-1.006897,-0.034973145,-5.859375,4.140625,0.75
1696243620233,-0.026123047,-1.0427856,-0.07110596,-4.578125,4.796875,3.203125
1696243620276,0.099853516,-1.1380005,0.009460449,-1.171875,9.375,10.1875
1696243620318,-0.009521484,-1.3023071,-0.07965088,1.03125,-0.140625,13.28125
1696243620358,0.07495117,-1.342102,-0.15924072,1.40625,1.03125,9.34375
1696243620415,0.2446289,-1.4597778,-0.042541504,13.890625,2.796875,9.90625
1696243620433,0.19238281,-1.2280884,-0.14654541,11.03125,0.640625,3.265625
1696243620475,0.38842773,-1.112854,-0.17071533,8.359375,3.5,4.109375
1696243620515,0.23242188,-1.1792603,-0.09039307,-10.453125,-3.5,3.28125
1696243620554,0.018310547,-1.0130005,0.035095215,-11.734375,-5.453125,-1.984375
1696243620595,-0.043701172,-0.6699829,-0.04498291,-20.9375,-6.125,-3.84375
1696243620636,0.08642578,-0.17584229,-0.08013916,-25.59375,0.609375,-7.796875
1696243620676,0.032470703,-0.0012817383,0.08001709,-9.90625,5.671875,-3.890625
1696243620717,-0.061767578,-0.1741333,0.03778076,0.46875,4.59375,-1.125
1696243620754,0.03857422,-0.6983032,-0.074523926,9.546875,14.03125,-0.3125
1696243620794,0.4423828,-1.9180298,0.14788818,-0.953125,18.390625,11.46875
1696243620837,0.0056152344,-1.6802368,0.31976318,1.546875,-11.328125,-2.125
1696243620874,-0.11401367,-0.88067627,-0.008117676,7.015625,-9.96875,-6.234375
1696243620917,-0.011474609,-0.4138794,-0.035949707,8.0625,1.1875,2.0625
1696243620934,-0.017333984,-0.71759033,0.07098389,5.15625,6.6875,12.75
1696243620976,0.10522461,-0.9944458,0.12884521,3.140625,11.0625,5.625
1696243621013,0.21142578,-1.1594849,0.12615967,8.140625,1.25,1.40625
1696243621053,0.09692383,-1.0593872,0.10003662,4.578125,-5.671875,4.484375
1696243621096,0.023925781,-0.95391846,0.08416748,6.453125,-6.328125,2.09375
1696243621136,-2.4414062E-4,-0.9373169,0.08514404,6.578125,-5.453125,0.625
1696243621175,0.06616211,-0.9055786,0.05218506,7.984375,-1.28125,0.921875
1696243621215,0.12011719,-0.97320557,0.13812256,6.328125,0.484375,0.265625
1696243621255,-0.020507812,-1.0505981,0.13201904,-0.5625,-2.5,-4.625
1696243621296,-0.03955078,-1.0886841,-0.11871338,0.25,-1.5,-11.59375
1696243621336,0.33081055,-1.2351685,-0.031555176,5.53125,-5.953125,-8.28125
1696243621396,0.21606445,-1.3025513,-0.097717285,-0.6875,-10.21875,-3.359375
1696243621414,-0.030517578,-0.9500122,-0.18096924,-7.484375,-0.390625,-13.828125
1696243621457,0.018310547,-0.7529907,-0.23370361,-0.796875,9.90625,-10.609375
1696243621495,0.17651367,-0.9644165,-0.25177002,3.390625,13.546875,-0.546875
1696243621536,0.15917969,-1.0440063,-0.120910645,1.59375,4.859375,-3.21875
1696243621576,0.068115234,-1.0271606,-0.0869751,-0.8125,-0.21875,-7.625
1696243621615,-0.0056152344,-0.90338135,-0.090148926,-2.140625,0.28125,-4.703125
1696243621656,-0.064697266,-0.8242798,-0.10089111,1.015625,2.890625,-3.8125
1696243621695,-0.044921875,-0.8533325,-0.105285645,1.75,5.28125,-1.46875
1696243621760,-0.040283203,-0.94415283,-0.09454346,1.8125,4.796875,1.25
1696243621796,-0.037109375,-0.97491455,-0.0869751,3.921875,4.640625,3.96875
1696243621813,0.0078125,-0.9421997,-0.07476807,2.828125,-0.5625,3.8125
1696243621855,0.015380859,-0.9417114,-0.10357666,1.828125,-7.75,5.171875
1696243621894,-0.014892578,-0.9585571,-0.10089111,-6.15625,-9.53125,2.265625
1696243621935,-0.123535156,-1.03302,-0.045715332,-11.375,-4.5,2.34375
1696243621975,-0.07446289,-1.0437622,-0.039367676,-14.78125,-2.1875,0.125
1696243622015,-0.036621094,-1.0508423,0.0016479492,-24.5625,-7.375,-5.265625
1696243622057,-0.095458984,-1.1948853,0.06439209,-24.515625,-3.46875,-4.765625
1696243622094,0.087646484,-1.2373657,-0.069885254,-15.53125,-1.984375,-5.1875
1696243622135,0.28173828,-1.0457153,-0.07232666,2.296875,-3.546875,-1.265625
1696243622174,0.30737305,-0.88409424,0.01727295,5.609375,-11.828125,1.34375
1696243622234,0.040527344,-0.77593994,-0.029846191,2.109375,-11.109375,2.453125
1696243622238,-0.040039062,-0.84088135,0.0033569336,-0.78125,-0.625,1.8125
1696243622274,0.13500977,-1.1069946,0.008972168,-9.96875,4.140625,0.28125
1696243622315,0.12182617,-1.0847778,0.04437256,-7.234375,2.515625,-3.0625
1696243622355,-0.011474609,-0.88238525,0.109558105,5.890625,6.890625,3.453125
1696243622396,-0.032226562,-0.8777466,0.06341553,1.671875,9.859375,3.53125
1696243622436,0.02734375,-0.9260864,0.105163574,-0.5,12.953125,2.875
1696243622474,0.029052734,-0.96099854,0.117370605,-0.296875,13.515625,3.09375
1696243622513,-0.016113281,-0.93096924,0.10076904,1.859375,15.515625,1.671875
1696243622554,-0.018310547,-0.96832275,0.13543701,6.203125,17.34375,1.671875
1696243622595,-0.021728516,-0.9680786,0.08734131,3.59375,17.234375,-1.125
1696243622636,0.057861328,-0.9624634,0.08538818,4.125,18.203125,-0.71875
1696243622674,0.06689453,-0.9883423,0.117126465,0.09375,14.828125,-1.390625
1696243622713,-0.0036621094,-0.9993286,0.14788818,-10.40625,14.046875,-3.703125
1696243622753,-0.15942383,-1.0615845,0.008972168,-16.21875,15.6875,-7.03125
1696243622796,-0.064697266,-1.020813,0.039978027,-2.796875,21.15625,-11.125
1696243622834,0.10913086,-1.1541138,0.0053100586,-3.421875,23.265625,-1.671875
1696243622874,0.11352539,-1.1558228,0.008483887,-3.53125,15.828125,-1.96875
1696243622914,0.0014648438,-0.99786377,0.0048217773,0.0,20.75,-1.1875
1696243622955,-0.032714844,-0.8555298,-0.11651611,-5.765625,21.390625,-5.515625
1696243622994,0.06274414,-0.88238525,-0.1729126,3.1875,21.625,2.453125
1696243623037,0.076416016,-1.017395,-0.074035645,8.71875,21.296875,4.421875
1696243623074,-0.001953125,-1.0518188,9.1552734E-4,11.4375,14.640625,2.296875
1696243623114,-0.060302734,-0.975647,-0.011779785,9.796875,19.1875,3.09375
1696243623155,-0.07836914,-0.927063,-0.097229004,8.03125,26.125,3.8125
1696243623217,-0.12011719,-0.9265747,-0.10430908,10.859375,28.890625,5.96875
1696243623234,0.036376953,-0.95684814,-0.15240479,10.109375,29.984375,4.328125
1696243623275,0.041503906,-1.0127563,-0.081848145,9.515625,25.671875,8.796875
1696243623315,-0.092285156,-0.9624634,-0.09088135,5.03125,23.1875,7.25
1696243623358,-0.16699219,-0.9385376,-0.10406494,0.90625,27.515625,4.4375
1696243623398,-0.13891602,-0.9841919,-0.15997314,-1.75,32.171875,2.71875
1696243623437,-0.056396484,-0.97540283,-0.16558838,-7.265625,31.03125,4.984375
1696243623474,0.0048828125,-1.0093384,-0.13189697,-9.296875,31.453125,5.984375
1696243623514,0.05834961,-1.0342407,-6.1035156E-5,-13.5625,27.203125,7.484375
1696243623534,-0.083496094,-1.0042114,-0.023986816,-19.234375,21.71875,3.34375
1696243623596,-0.16918945,-1.0952759,-0.07232666,-9.765625,28.234375,-0.546875
1696243623635,0.09423828,-1.1072388,-0.11846924,-3.109375,31.875,1.203125
1696243623654,0.078125,-0.9170532,-0.09112549,-8.9375,29.65625,-0.1875
1696243623693,-0.13574219,-0.819397,-0.089660645,0.09375,33.40625,-0.71875
1696243623735,0.1081543,-0.87750244,-0.0960083,1.921875,47.078125,-0.40625
1696243623776,0.20458984,-1.093811,-0.041809082,-7.15625,47.703125,8.21875
1696243623837,0.08300781,-1.2007446,-0.039367676,-8.1875,45.421875,1.84375
1696243623853,0.03930664,-1.0178833,-0.047424316,-5.03125,49.1875,3.484375
1696243623894,0.015380859,-0.897522,-0.02154541,-4.71875,52.828125,4.40625
1696243623956,0.05908203,-0.86846924,-0.042297363,-4.890625,53.921875,4.171875
1696243623972,0.05908203,-0.92755127,-0.035217285,-2.828125,52.71875,4.75
1696243624036,0.022216797,-0.97052,0.021911621,-0.578125,53.359375,4.25
1696243624055,0.06738281,-0.9763794,0.020202637,1.5,53.75,3.75
1696243624095,0.0925293,-0.9590454,-0.027648926,-3.59375,47.28125,2.6875
1696243624157,0.06640625,-0.9561157,0.034118652,2.453125,41.734375,3.953125
1696243624173,0.05029297,-0.99591064,0.035827637,0.859375,40.09375,5.953125
1696243624215,0.037353516,-0.9710083,0.046325684,-0.4375,39.34375,4.484375
1696243624257,0.03149414,-0.9729614,0.059509277,-3.390625,40.09375,-0.234375
1696243624315,-0.0056152344,-0.97662354,0.04876709,-2.40625,39.375,-2.53125
1696243624333,-0.01928711,-0.9949341,0.03265381,-0.5,42.375,-3.984375
1696243624376,0.02734375,-1.0342407,0.078063965,-6.03125,45.171875,-2.109375
1696243624436,-0.08300781,-1.0264282,-0.054504395,-3.6875,42.15625,-6.9375
1696243624453,0.11767578,-0.9404907,-0.0491333,1.6875,43.296875,-3.984375
1696243624494,0.049560547,-1.0308228,-0.105773926,0.03125,33.453125,-2.6875
1696243624556,0.09082031,-1.1592407,-0.16900635,-6.515625,31.96875,-2.125
1696243624573,0.03491211,-1.0305786,-0.04083252,-0.390625,30.453125,-1.90625
1696243624635,-0.044677734,-0.9456177,-0.061828613,-4.859375,26.203125,-4.765625
1696243624654,-0.10668945,-0.8308716,-0.21954346,-6.71875,28.390625,-6.015625
1696243624696,-0.01977539,-0.9590454,-0.19830322,-0.65625,37.9375,-2.859375
1696243624735,0.07348633,-1.065979,-0.09918213,8.21875,38.109375,3.0
1696243624776,-0.11816406,-1.0166626,-0.06085205,4.59375,30.21875,-2.359375
1696243624857,-0.20043945,-0.9585571,-0.11236572,4.078125,36.578125,-0.875
1696243624861,-0.111083984,-0.96051025,-0.1416626,6.125,42.921875,-0.453125
1696243624897,-0.010009766,-0.91192627,-0.1519165,5.296875,35.875,0.828125
1696243624914,0.030761719,-0.99957275,-0.1326294,2.015625,28.203125,4.046875
1696243624977,-2.4414062E-4,-1.0159302,-0.17877197,-2.984375,22.0,3.4375
1696243624994,-0.1003418,-0.98931885,-0.034240723,1.6875,20.46875,2.09375
1696243625035,-0.06518555,-0.987854,-0.066467285,1.9375,18.40625,1.890625
1696243625075,-0.021484375,-0.9541626,-0.105041504,0.03125,11.3125,1.625
1696243625135,-0.04248047,-0.942688,-0.085754395,2.25,3.828125,1.875
1696243625155,-0.13598633,-0.95758057,-0.089416504,0.484375,2.65625,1.921875
1696243625196,-0.14233398,-0.9451294,-0.101623535,-1.15625,3.484375,-0.53125
1696243625259,-0.107421875,-0.9644165,-0.077697754,-3.171875,4.578125,1.40625
1696243625276,-0.13427734,-0.98272705,-0.08404541,-3.046875,2.15625,2.640625
1696243625313,-0.13769531,-0.9819946,-0.038879395,-4.078125,1.0625,1.453125
1696243625356,-0.16821289,-0.96832275,-0.026184082,-5.125,3.453125,2.28125
1696243625395,-0.20092773,-0.97052,-0.09698486,-2.78125,4.65625,4.53125
1696243625435,-0.1459961,-0.97320557,0.00970459,-1.765625,3.0,4.40625
1696243625474,-0.22192383,-1.017395,-0.12042236,4.65625,4.359375,8.75
1696243625513,0.048339844,-0.98883057,-0.10333252,2.828125,6.015625,7.34375
1696243625556,0.016357422,-1.1516724,0.04168701,2.25,2.90625,10.21875
1696243625594,-0.20947266,-1.0872192,-0.02935791,-6.125,0.5,6.5
1696243625636,-0.060058594,-1.0632935,-0.11431885,-3.484375,6.1875,4.0
1696243625674,0.018554688,-1.2473755,-0.07183838,-8.34375,7.890625,8.171875
1696243625713,-0.088378906,-1.2092896,-0.1687622,-15.71875,2.03125,2.71875
1696243625757,0.16064453,-1.2373657,-0.1453247,-5.75,17.296875,0.265625
1696243625794,0.43823242,-1.2666626,-0.1338501,-2.890625,12.484375,-0.46875
1696243625835,0.47924805,-1.196106,-0.08673096,-8.890625,0.8125,6.171875
1696243625875,0.25170898,-1.128479,-0.01763916,-6.796875,-9.125,6.890625
1696243625916,0.12182617,-1.1738892,0.0033569336,-7.71875,-9.234375,1.765625
1696243625957,0.09692383,-0.95928955,0.026306152,-5.734375,-1.390625,3.03125
1696243625994,0.06689453,-0.61187744,0.046813965,-4.0625,0.453125,-0.796875
1696243626034,0.008300781,-0.32843018,-0.0071411133,-3.546875,0.265625,-4.796875
1696243626074,0.09472656,-0.26715088,0.03338623,-4.09375,0.59375,-1.34375
1696243626112,0.103027344,-0.46661377,0.059265137,-2.0,-3.578125,-0.75
1696243626155,0.021484375,-0.8130493,0.078063965,-6.921875,-3.671875,-2.140625
1696243626173,0.061279297,-1.2678833,0.08514404,-13.953125,1.609375,-7.953125
1696243626236,0.11035156,-1.312561,0.09100342,0.0,7.15625,-4.03125
1696243626254,0.095947266,-1.0720825,0.06097412,6.03125,-1.421875,-6.5625
1696243626295,0.10913086,-0.96954346,0.13763428,-1.0625,-7.734375,-2.90625
1696243626335,-0.06689453,-0.9168091,0.12957764,-1.5625,-1.953125,1.53125
1696243626376,-0.068359375,-0.864563,0.035827637,-5.71875,4.390625,-3.34375
1696243626414,0.104003906,-0.99591064,0.06976318,-0.5625,7.09375,2.5625
1696243626456,0.118896484,-1.0652466,0.1437378,-2.21875,2.578125,0.453125
1696243626498,-0.0056152344,-1.0161743,0.13275146,-2.703125,-2.859375,3.03125
1696243626536,-0.007080078,-0.98223877,0.10028076,2.71875,-0.03125,3.296875
1696243626575,0.049316406,-0.9458618,0.11956787,4.28125,2.96875,3.234375
1696243626616,0.017822266,-0.9558716,0.10394287,0.421875,0.84375,4.0625
1696243626656,0.0078125,-0.98101807,0.16546631,4.625,1.28125,3.265625
1696243626695,0.049316406,-0.9771118,0.18792725,2.828125,2.265625,3.390625
1696243626757,0.03881836,-0.986145,0.109802246,-4.390625,1.109375,0.078125
1696243626773,-0.0021972656,-0.95269775,0.14666748,3.90625,-0.296875,0.34375
1696243626837,0.042236328,-0.9788208,0.124694824,3.765625,2.203125,1.796875
1696243626854,0.00390625,-0.9692993,0.116882324,2.5625,2.515625,1.265625
1696243626896,0.03466797,-0.9717407,0.15887451,5.15625,2.34375,1.96875
1696243626935,0.017822266,-0.9558716,0.014343262,7.296875,-3.484375,-1.265625
1696243626975,0.15234375,-1.0269165,0.13201904,9.484375,1.125,4.84375
1696243627033,-0.09765625,-1.1204224,0.090026855,0.59375,-2.734375,0.53125
1696243627057,-0.0012207031,-1.1033325,0.0065307617,11.828125,7.75,-2.609375
1696243627118,0.28759766,-1.3081665,0.06976318,10.9375,6.765625,2.0625
1696243627133,0.14624023,-1.5366821,0.047058105,-2.46875,-9.421875,-3.109375
1696243627197,0.02709961,-1.2092896,-0.17486572,2.875,-5.15625,-8.921875
1696243627215,0.15039062,-0.9102173,-0.13946533,11.203125,6.078125,-3.09375
1696243627255,0.0871582,-0.97784424,-0.105041504,4.953125,1.515625,-0.8125
1696243627317,-0.015625,-0.9102173,-0.12774658,-0.53125,4.921875,-4.734375
1696243627356,0.08862305,-0.8792114,-0.09088135,4.59375,7.875,-5.84375
1696243627374,0.11767578,-0.84820557,-0.066711426,4.96875,6.140625,-3.609375
1696243627436,-0.010253906,-0.86553955,-0.05645752,0.453125,3.890625,-2.234375
1696243627455,-0.015380859,-0.927063,-0.05206299,-0.9375,3.90625,-3.171875
1696243627474,-0.03125,-0.911438,-0.053527832,-2.390625,1.1875,-4.546875
1696243627516,-9.765625E-4,-0.8442993,-0.018615723,1.03125,-1.96875,-3.1875
1696243627555,-0.015380859,-0.7944946,-0.039855957,6.90625,-3.421875,-2.109375
1696243627596,-0.011230469,-0.7373657,-0.022033691,7.296875,-3.875,-0.703125
1696243627636,0.028564453,-0.8855591,-0.12823486,-2.4375,-4.703125,0.078125
1696243627676,-0.032226562,-1.0361938,-0.06085205,-0.546875,-3.375,3.265625
1696243627716,-0.12207031,-1.0713501,-0.055480957,-3.78125,0.25,0.75
1696243627757,-0.0793457,-0.9907837,-0.054260254,-0.515625,5.53125,0.421875
1696243627794,-0.009521484,-0.9182739,-0.07574463,-1.296875,6.078125,0.8125
1696243627836,-0.010009766,-0.9475708,-0.04522705,-1.1875,3.234375,2.109375
1696243627875,-0.08691406,-0.96466064,-0.03643799,-2.171875,1.828125,2.984375
1696243627915,-0.118652344,-0.9470825,-0.0025024414,-5.453125,5.25,2.984375
1696243627955,-0.12207031,-1.0093384,-0.050109863,-4.09375,9.359375,4.640625
1696243627995,0.03149414,-1.000061,-0.021057129,-1.5625,13.046875,4.703125
1696243628034,0.12841797,-0.9834595,-0.0134887695,-1.0625,8.859375,6.609375
1696243628074,-0.052978516,-0.94854736,-0.040100098,-3.765625,-0.796875,9.15625
1696243628117,-0.04736328,-0.986145,-0.022033691,1.90625,4.109375,7.40625
1696243628156,0.11791992,-1.0713501,-0.023742676,1.5625,6.796875,10.421875
1696243628194,0.14868164,-1.09552,-0.049621582,1.09375,-6.171875,10.859375
1696243628234,0.045898438,-1.1763306,-0.124816895,-1.15625,-9.90625,11.640625
1696243628275,0.088134766,-1.4170532,-0.065979004,-5.75,-4.921875,7.28125
1696243628316,0.16381836,-1.4248657,-0.13433838,0.65625,-4.84375,1.703125
1696243628356,0.33203125,-1.1880493,-0.1338501,1.6875,-5.15625,1.84375
1696243628398,0.27270508,-1.0828247,-0.033996582,-3.234375,-11.53125,3.546875
1696243628436,0.16748047,-1.0454712,0.0028686523,-9.1875,-14.546875,-0.34375
1696243628476,0.119384766,-0.9631958,0.02508545,-9.8125,-15.203125,-4.453125
1696243628516,0.059570312,-0.8477173,0.043640137,-4.5,-14.96875,-4.4375
1696243628553,0.08178711,-0.6370239,-0.06329346,-6.71875,-13.5,-4.953125
1696243628594,0.06201172,-0.3977661,0.026550293,1.125,-7.71875,-2.0
1696243628636,0.059326172,-0.45562744,0.047302246,0.828125,-6.546875,0.6875
1696243628672,-0.019042969,-0.6951294,0.039978027,-4.0625,-1.34375,0.828125
1696243628738,0.050048828,-1.0066528,0.066589355,-3.28125,6.171875,-0.453125
1696243628754,0.19384766,-1.2617798,0.1239624,-6.796875,1.90625,-1.703125
1696243628776,0.14770508,-1.1355591,0.12371826,-4.484375,-4.203125,-0.6875
1696243628816,0.076171875,-0.9534302,0.093444824,4.328125,-5.09375,-1.015625
1696243628855,0.057861328,-0.89068604,0.15423584,3.703125,-0.40625,0.625
1696243628918,0.014404297,-0.92144775,0.062194824,0.53125,-2.703125,-0.90625
1696243628957,0.091796875,-0.8965454,0.10687256,5.84375,-0.84375,-1.703125
1696243628974,0.07788086,-0.94073486,0.09173584,3.21875,1.328125,0.078125
1696243629015,0.0769043,-0.9612427,0.06365967,0.296875,0.671875,-1.0625
1696243629055,0.026367188,-1.0037231,0.1486206,8.46875,-0.9375,1.890625
1696243629097,0.060791016,-1.0020142,0.08074951,6.578125,-3.609375,-1.84375
1696243629137,0.057617188,-0.99053955,0.08074951,5.703125,-0.25,-1.46875
1696243629176,0.06347656,-0.9920044,0.059753418,7.953125,1.859375,-2.0625
1696243629216,0.10839844,-0.9920044,0.049987793,6.640625,-0.546875,-1.3125
1696243629276,0.028076172,-1.0637817,0.026306152,6.0625,-6.421875,-0.75
1696243629296,0.06274414,-1.0342407,-0.1326294,10.1875,-4.515625,-6.125
1696243629376,0.33203125,-1.1619263,-0.009094238,8.671875,-7.625,-0.265625
1696243629380,0.14404297,-1.4553833,0.0040893555,-4.8125,-18.5,0.921875
1696243629415,-0.055664062,-1.3999634,-0.022766113,-1.546875,-13.421875,-9.75
1696243629475,0.09692383,-1.2786255,-0.08380127,6.28125,-2.03125,-9.40625
1696243629514,0.14135742,-1.1043091,-0.22149658,-4.875,0.640625,-11.140625
1696243629535,0.021972656,-0.97125244,-0.11920166,4.578125,5.875,-4.875
1696243629596,0.02758789,-0.92559814,-0.1362915,6.734375,0.328125,-7.84375
1696243629635,0.10083008,-0.84088135,-0.11138916,13.171875,2.671875,-2.78125
1696243629653,0.084228516,-0.64630127,0.020690918,15.890625,6.015625,0.03125
1696243629697,0.01586914,-0.5095825,-0.028381348,2.328125,0.359375,-2.78125
1696243629736,-0.07714844,-0.57037354,-0.050354004,-3.171875,-0.5,-3.6875
1696243629777,-0.14331055,-0.72784424,-0.05206299,-3.484375,0.984375,-5.46875
1696243629815,-0.1015625,-0.94122314,-0.12554932,0.546875,-0.71875,-10.421875
1696243629856,0.13500977,-1.0093384,-0.19854736,1.96875,-1.5,-0.515625
1696243629897,0.071777344,-1.0471802,-0.1362915,-2.953125,-14.9375,-2.4375
1696243629935,-0.19384766,-1.1516724,-0.1026001,0.640625,-9.5,4.8125
1696243629974,-0.21948242,-0.89678955,-0.074035645,0.734375,6.609375,-2.125
1696243630013,-0.06665039,-0.8948364,-0.058654785,3.296875,9.421875,-2.0625
1696243630074,-0.0063476562,-0.98565674,-0.13775635,2.15625,3.0,5.78125
1696243630093,-0.05859375,-0.89971924,-0.09674072,2.25,4.234375,3.578125
1696243630114,-0.0690918,-0.97784424,-0.06451416,1.65625,3.671875,3.796875
1696243630155,-0.107177734,-1.0171509,-0.09136963,0.3125,5.59375,4.5
1696243630194,-0.07299805,-0.9949341,-0.10748291,1.828125,8.53125,2.921875
1696243630235,0.010986328,-0.9902954,-0.13116455,3.109375,9.71875,5.34375
1696243630274,-0.0146484375,-0.99176025,-0.046447754,0.921875,5.984375,6.109375
1696243630314,-0.17626953,-0.98931885,-0.07086182,-1.3125,3.640625,4.546875
1696243630356,-0.061035156,-0.95880127,-0.09942627,0.703125,10.453125,1.359375
1696243630396,0.072265625,-1.0618286,-0.12213135,-5.859375,6.546875,2.078125
1696243630435,-0.087646484,-1.0510864,-0.07891846,0.890625,0.765625,4.34375
1696243630498,0.06323242,-1.0852661,-0.16925049,-1.40625,8.375,2.03125
1696243630513,0.099121094,-1.2217407,-0.0491333,-4.140625,-2.21875,5.28125
1696243630556,-0.140625,-1.1965942,-0.070373535,-9.515625,-10.671875,0.28125
1696243630618,-0.16845703,-1.0662231,-0.18951416,-4.984375,1.4375,-2.78125
1696243630634,0.060791016,-1.171936,-0.14239502,-11.125,9.265625,-1.984375
1696243630676,0.042236328,-1.175354,-0.20880127,-20.46875,-2.734375,-3.890625
1696243630716,0.21142578,-1.31427,-0.08502197,-14.28125,-6.0,-8.671875
1696243630754,0.18920898,-1.3599243,0.040222168,-12.125,-10.265625,-4.109375
1696243630795,0.013183594,-1.0125122,0.07318115,-13.984375,-6.65625,-4.6875
1696243630834,-0.04296875,-0.7529907,-0.06402588,-13.8125,-4.953125,-7.078125
1696243630898,-0.043701172,-0.5015259,-0.08135986,-13.15625,3.15625,-1.96875
1696243630914,0.07055664,-0.25445557,0.039489746,-5.375,3.828125,2.9375
1696243630955,0.034179688,-0.38409424,0.078552246,-4.5625,4.953125,4.71875
1696243630996,-0.08496094,-0.6814575,0.039001465,-0.65625,3.515625,5.703125
1696243631055,-0.026855469,-1.1480103,0.027282715,4.421875,12.609375,2.78125
1696243631074,0.21704102,-1.4458618,0.1461792,4.546875,10.03125,8.5
1696243631115,0.03564453,-1.1589966,0.105407715,2.234375,-6.859375,7.96875
1696243631158,2.4414062E-4,-0.8135376,0.038757324,6.40625,-8.984375,5.40625
1696243631195,-0.044189453,-0.8040161,0.097839355,6.046875,0.671875,9.421875
1696243631235,-0.0087890625,-0.97247314,0.07366943,0.296875,8.5,6.75
1696243631275,0.106933594,-1.0447388,0.121520996,0.5,8.640625,3.28125
1696243631338,-0.009765625,-1.0032349,0.09051514,1.6875,0.203125,1.234375
1696243631354,0.05078125,-0.94903564,0.058776855,1.453125,6.28125,-1.5
1696243631415,0.084472656,-1.0169067,0.08319092,5.828125,5.578125,4.953125
1696243631435,0.016113281,-0.9348755,0.05291748,1.40625,-1.875,1.5
1696243631455,0.029541016,-0.88946533,0.034362793,2.96875,-0.1875,2.71875
1696243631518,0.061035156,-0.9924927,0.03387451,6.140625,0.328125,4.421875
1696243631534,0.029052734,-1.0105591,0.058776855,4.796875,-0.875,2.5625
1696243631598,0.012939453,-0.9939575,0.077819824,5.921875,0.890625,1.765625
1696243631614,0.029296875,-0.97247314,-0.0049438477,6.4375,-0.84375,-0.328125
1696243631655,0.12719727,-0.96173096,0.032409668,10.25,-5.296875,0.203125
1696243631696,-0.0068359375,-0.99346924,0.040222168,7.359375,-4.96875,4.03125
1696243631758,-0.0063476562,-0.95880127,-0.012512207,7.203125,3.328125,-1.109375
1696243631774,0.16845703,-1.0237427,-0.06915283,6.296875,5.453125,3.4375
1696243631838,0.12866211,-1.0261841,0.053894043,10.859375,-2.8125,3.859375
1696243631855,0.009765625,-1.0542603,-0.016418457,11.421875,-2.296875,2.359375
1696243631896,0.10571289,-1.003479,-0.05255127,11.78125,3.453125,-0.625
1696243631936,0.1159668,-1.1436157,-0.09136963,8.046875,-0.421875,-4.1875
1696243631975,0.13354492,-1.3320923,-0.12579346,3.140625,-0.6875,-4.53125
1696243632017,0.15258789,-1.5379028,-0.17486572,-1.5,-4.515625,-0.953125
1696243632054,0.14355469,-1.2634888,-0.19586182,-5.578125,-7.359375,-6.6875
1696243632094,0.09326172,-1.0320435,-0.23492432,-13.640625,-1.375,-5.125
1696243632136,-0.057128906,-1.0293579,-0.21221924,-10.625,10.359375,-3.515625
1696243632175,0.09057617,-1.0796509,-0.16827393,-4.078125,11.890625,-6.09375
1696243632239,0.21264648,-0.89141846,-0.006652832,-0.984375,0.3125,-5.75
1696243632253,0.06933594,-0.6494751,-0.004699707,-5.015625,-2.515625,-6.21875
1696243632317,-0.049072266,-0.4439087,-0.0029907227,-1.25,-3.140625,-4.078125
1696243632333,-0.15209961,-0.40924072,-0.050109863,-4.0,2.125,-9.375
1696243632375,-0.08666992,-0.57525635,-0.06793213,-5.828125,7.5625,-7.71875
1696243632417,-2.4414062E-4,-0.9006958,-0.0947876,-1.890625,8.84375,-3.078125
1696243632456,0.0021972656,-1.2088013,-0.105285645,-3.71875,1.328125,-2.203125
1696243632494,-0.04321289,-1.1924438,-0.09063721,2.078125,0.75,-0.421875
1696243632557,0.0075683594,-1.1211548,-0.031066895,4.34375,4.65625,1.546875
1696243632594,-0.11621094,-0.9985962,0.058532715,3.265625,3.703125,3.84375
1696243632637,-0.079833984,-0.7839966,0.00970459,3.96875,1.9375,-0.953125
1696243632656,-0.01953125,-0.8303833,0.008483887,8.921875,-2.1875,4.546875
1696243632718,-0.075683594,-0.9487915,-0.05279541,0.21875,-3.15625,3.96875
1696243632734,-0.18334961,-0.9817505,-0.04449463,1.25,-2.515625,0.875
1696243632754,-0.111816406,-1.1126099,-0.08258057,3.078125,5.21875,4.3125
1696243632794,-0.039794922,-1.0357056,-0.002746582,0.296875,4.453125,3.734375
1696243632836,-0.10839844,-1.0142212,-0.062805176,-5.828125,2.078125,2.921875
1696243632876,-0.044189453,-1.0056763,-0.113342285,-6.21875,-0.390625,-1.171875
1696243632914,0.052246094,-1.0671997,-0.061828613,-0.546875,-2.609375,4.1875
1696243632954,0.025878906,-1.0664673,-0.037902832,-8.40625,-6.46875,4.828125
1696243632995,-0.091552734,-1.0696411,-0.08331299,-6.4375,-8.5625,4.84375
1696243633035,-0.049072266,-1.1392212,-0.113098145,-2.015625,0.671875,3.53125
1696243633077,0.05444336,-1.2039185,-0.10211182,-5.21875,4.203125,0.328125
1696243633158,0.12841797,-1.2539673,-0.13531494,-8.0625,-4.5,1.625
1696243633162,0.16674805,-1.1524048,-0.09088135,-8.546875,-12.28125,1.625
1696243633217,0.15527344,-1.1751099,-0.0051879883,-1.421875,-4.4375,4.609375
1696243633256,0.19091797,-1.0996704,-0.053771973,-4.546875,-5.796875,0.734375
1696243633276,0.18066406,-1.0195923,-0.019836426,-5.953125,-7.90625,2.6875
1696243633315,0.09375,-1.0523071,0.0065307617,-11.6875,-8.484375,0.09375
1696243633376,-0.012939453,-0.94854736,0.044128418,-12.578125,-7.734375,-1.6875
1696243633394,-4.8828125E-4,-0.71588135,0.026062012,-11.53125,-4.203125,-0.34375
1696243633435,0.07128906,-0.3965454,-0.0012817383,-7.53125,-5.296875,2.75
1696243633478,0.03149414,-0.36505127,0.0211792,-4.265625,2.015625,8.203125
1696243633514,0.0637207,-0.6917114,0.038513184,5.875,11.859375,11.21875
1696243633555,0.14916992,-1.1055298,0.1552124,4.90625,12.625,7.96875
1696243633596,0.15600586,-1.1963501,0.10101318,-9.015625,-1.75,4.5625
1696243633637,0.104003906,-1.060852,0.11956787,3.390625,-5.265625,4.078125
1696243633678,0.064697266,-0.9456177,0.12738037,8.4375,-0.90625,5.25
1696243633716,0.061279297,-0.86920166,0.101501465,3.03125,-3.015625,3.984375
1696243633757,0.010009766,-0.8953247,0.08660889,2.8125,-1.015625,0.03125
1696243633794,0.1081543,-0.94000244,0.06048584,0.3125,3.078125,0.53125
1696243633837,0.13696289,-0.9968872,0.105895996,3.65625,1.5625,2.671875
1696243633879,0.08618164,-0.9873657,0.11053467,1.40625,-0.125,3.09375
1696243633916,0.08178711,-0.97003174,0.09442139,5.328125,-1.734375,3.34375
1696243633954,0.095214844,-0.9824829,0.15496826,9.921875,-0.6875,3.453125
1696243633994,0.063964844,-0.96221924,0.09564209,6.109375,-0.140625,2.171875
1696243634035,0.103271484,-0.93048096,-0.0051879883,5.625,3.03125,0.65625
1696243634074,0.1303711,-0.9365845,0.08685303,12.75,4.171875,3.8125
1696243634093,0.11450195,-0.98272705,-0.010559082,9.125,-0.890625,0.4375
1696243634138,0.15942383,-0.9636841,0.01361084,9.5,-1.234375,3.515625
1696243634176,0.0715332,-0.9932251,0.019958496,11.796875,2.203125,-0.546875
1696243634217,0.14648438,-0.9534302,-0.051574707,14.6875,5.90625,0.03125
1696243634256,0.16455078,-1.0689087,-0.04522705,16.5,1.59375,2.53125
1696243634295,0.19360352,-1.2837524,-0.07305908,13.921875,-1.203125,-0.953125
1696243634337,0.17260742,-1.4573364,-0.10235596,10.140625,2.59375,0.125
1696243634376,0.19873047,-1.3208618,-0.17730713,8.453125,-1.046875,-6.578125
1696243634416,0.26171875,-1.1633911,-0.2654419,2.765625,2.796875,-6.09375
1696243634476,0.15258789,-1.0686646,-0.27886963,-1.46875,5.140625,-3.140625
1696243634514,0.056396484,-0.8689575,-0.222229,1.75,6.75,-6.265625
1696243634534,0.0703125,-0.803772,-0.18756104,2.03125,13.0625,-3.984375
1696243634575,0.122802734,-0.84039307,-0.17388916,-1.4375,11.140625,-4.0625
1696243634640,0.068359375,-0.87091064,-0.1182251,-2.796875,6.90625,-4.015625
1696243634675,0.0859375,-0.82647705,-0.0791626,-3.90625,8.578125,-5.546875
1696243634693,0.09399414,-0.7527466,-0.08428955,-3.609375,4.625,-5.09375
1696243634736,0.036865234,-0.7161255,-0.12945557,-3.453125,-0.40625,-5.5
1696243634775,-0.052490234,-0.8062134,-0.1482544,-4.375,1.640625,-5.203125
1696243634836,-0.01977539,-0.8530884,-0.14923096,-2.5625,4.875,-4.09375
1696243634853,2.4414062E-4,-0.8916626,-0.13995361,-2.9375,5.6875,-1.265625
1696243634895,0.026855469,-0.95196533,-0.15093994,-9.46875,5.0,-3.265625
1696243634934,0.017822266,-0.93634033,-0.1362915,1.078125,4.328125,-1.875
1696243634975,0.15454102,-0.93707275,-0.16143799,2.90625,-3.0625,0.96875
1696243635013,-0.0073242188,-1.0422974,-0.12286377,-1.8125,-10.1875,0.234375
1696243635057,-0.15576172,-1.038147,-0.031555176,-3.40625,-4.234375,-2.65625
1696243635098,-0.10620117,-0.88848877,-0.1026001,-1.671875,0.015625,-6.0625
1696243635135,0.027832031,-0.88775635,-0.11651611,-2.0,-1.078125,-1.765625
1696243635175,-0.010009766,-1.0046997,-0.12506104,-7.359375,-7.6875,-0.15625
1696243635236,-0.08227539,-1.036438,-0.047180176,-9.71875,-5.125,-3.171875
1696243635255,-0.049316406,-1.0422974,-0.04937744,-9.390625,-0.125,-1.734375
1696243635317,-0.039794922,-0.99224854,-5.493164E-4,-7.46875,0.3125,-0.125
1696243635355,-0.0715332,-0.9907837,-0.057678223,-8.625,-0.328125,1.015625
1696243635359,-0.06201172,-0.95880127,-0.023986816,-7.734375,-0.890625,0.4375
1696243635395,-0.05810547,-1.0584106,-0.05621338,-0.546875,3.1875,3.078125
1696243635479,0.0637207,-1.0715942,-0.10699463,-5.328125,-0.09375,3.59375
1696243635483,0.07055664,-1.1604614,-0.023254395,-5.046875,-4.265625,6.109375
1696243635517,-0.0012207031,-1.2400513,-0.038391113,-4.203125,-6.953125,9.484375
1696243635557,-0.015625,-1.3394165,-0.101379395,0.0625,-2.703125,7.65625
1696243635596,0.21606445,-1.2402954,-0.0569458,11.5,-4.546875,4.609375
1696243635636,0.14941406,-1.0823364,-0.089904785,7.96875,-5.3125,4.0
1696243635675,0.15209961,-0.98516846,-0.12384033,3.640625,-3.765625,3.515625
1696243635717,0.0925293,-0.9873657,-0.10455322,-6.125,-3.546875,-1.546875
1696243635757,0.11230469,-0.97540283,0.031433105,-5.1875,-3.015625,1.109375
1696243635796,0.056396484,-0.8574829,0.03265381,-10.890625,-4.875,-0.109375
1696243635836,0.036376953,-0.741272,0.01361084,-3.625,-4.21875,0.09375
1696243635878,0.07421875,-0.68634033,-0.030090332,-6.640625,-2.703125,0.328125
1696243635917,0.03930664,-0.74176025,0.047790527,-7.75,0.015625,1.546875
1696243635956,0.026367188,-0.8074341,0.014343262,-6.5625,4.171875,1.578125
1696243635996,0.08178711,-0.8977661,0.018981934,-5.328125,1.796875,-0.453125
1696243636034,0.14282227,-0.9793091,0.07684326,-2.203125,1.578125,2.828125
1696243636074,0.049560547,-0.9849243,0.082458496,-1.25,0.953125,3.921875
1696243636114,0.032470703,-0.9417114,0.0368042,-1.140625,-1.328125,-1.046875
1696243636156,0.03857422,-0.97198486,0.077819824,1.546875,2.1875,2.140625
1696243636193,0.01171875,-0.98394775,0.054382324,2.796875,0.40625,2.203125
1696243636234,0.09399414,-0.9199829,0.053894043,0.828125,2.375,0.734375
1696243636276,0.061767578,-0.9854126,0.11517334,4.609375,4.078125,5.546875
1696243636316,0.061523438,-0.991272,0.0914917,3.25,1.078125,3.09375
1696243636355,0.10498047,-0.9390259,0.09857178,4.484375,0.265625,3.09375
1696243636397,0.041259766,-0.9651489,0.10809326,4.203125,1.640625,2.40625
1696243636436,0.026123047,-0.97857666,0.06463623,3.890625,1.4375,1.0625
1696243636475,0.1159668,-0.99346924,0.0927124,9.03125,1.359375,1.09375
1696243636514,0.110839844,-0.95758057,0.034851074,8.671875,-2.640625,0.078125
1696243636556,0.0847168,-0.9993286,0.002380371,11.265625,-1.75,3.1875
1696243636598,0.00390625,-1.0889282,-0.00982666,13.90625,1.03125,0.984375
1696243636636,0.10180664,-1.0623169,-0.05230713,15.734375,7.75,-1.78125
1696243636653,0.2434082,-1.1917114,-0.12237549,7.3125,6.0,2.984375
1696243636695,0.19165039,-1.4949341,-0.13604736,7.140625,2.140625,3.6875
1696243636736,0.16821289,-1.473938,-0.15802002,3.65625,1.359375,-0.203125
1696243636799,0.15014648,-1.133606,-0.22540283,-3.5,5.84375,-5.5625
1696243636835,0.103271484,-0.9890747,-0.30499268,0.21875,10.46875,0.78125
1696243636854,0.060058594,-0.9546509,-0.22613525,5.09375,14.796875,-0.578125
1696243636897,0.14257812,-0.9483032,-0.14703369,3.921875,16.359375,-3.046875
1696243636955,0.09667969,-0.82525635,-0.09649658,-1.1875,8.15625,-5.03125
1696243636973,-0.038085938,-0.6465454,-0.06011963,-0.828125,8.515625,-5.21875
1696243637037,-0.026367188,-0.4907837,-0.04083252,-0.546875,10.109375,-7.625
1696243637054,0.022705078,-0.47174072,-0.042785645,-1.640625,8.484375,-5.75
1696243637095,-0.026855469,-0.6589966,-0.18878174,-8.453125,9.75,-6.625
1696243637135,-0.016601562,-0.9553833,-0.14605713,0.9375,11.359375,-4.546875
1696243637175,0.050048828,-1.2041626,-0.09283447,-1.859375,6.03125,-0.140625
1696243637215,0.109375,-1.0689087,-0.144104,-5.203125,-4.6875,-1.8125
1696243637255,-0.03100586,-0.98931885,-0.08062744,-7.890625,-6.296875,-2.125
1696243637296,-0.17089844,-0.9849243,-0.007385254,-7.734375,4.75,-4.71875
1696243637336,-0.13232422,-0.93048096,-0.042053223,-9.328125,7.15625,-8.96875
1696243637375,-0.038330078,-0.94781494,-0.082092285,-8.578125,3.828125,-2.8125
1696243637414,-0.09082031,-0.9265747,-0.07501221,-7.40625,3.84375,-1.03125
1696243637454,-0.122558594,-0.9624634,-0.07867432,-6.640625,8.390625,-0.609375
1696243637494,-0.060546875,-1.0200806,-0.047180176,-2.265625,13.78125,3.5
1696243637538,-0.052001953,-0.9873657,-0.10089111,-5.171875,11.78125,2.6875
1696243637575,-0.1105957,-0.9631958,-0.028381348,0.203125,10.109375,3.390625
1696243637616,-0.13427734,-1.02594,-0.047668457,1.125,14.796875,4.625
1696243637657,-0.07128906,-0.95269775,-0.054748535,-1.015625,15.34375,1.859375
1696243637697,-0.08251953,-0.99224854,-0.007873535,-3.109375,14.78125,3.625
1696243637736,-0.10473633,-1.0357056,0.008728027,-8.1875,15.6875,2.328125
1696243637777,-0.091308594,-1.0278931,0.06317139,-10.21875,15.375,0.875
1696243637816,-0.122802734,-1.0046997,0.08856201,-13.46875,13.734375,-0.625
1696243637856,-0.1772461,-1.0354614,0.049743652,-17.15625,14.625,-4.390625
1696243637897,-0.19311523,-1.1848755,0.0099487305,-14.328125,26.265625,-4.71875
1696243637936,0.02368164,-1.2044067,-0.06890869,-7.28125,28.984375,-0.65625
1696243637974,0.06640625,-0.942688,0.015563965,-2.84375,13.28125,-1.234375
1696243637994,-0.09838867,-0.8753052,0.00579834,-9.46875,8.359375,-1.3125
1696243638038,-0.07763672,-0.87628174,-0.009094238,4.21875,14.984375,2.734375
1696243638074,0.1303711,-0.84210205,-0.032043457,4.78125,15.234375,0.328125
1696243638115,0.09472656,-0.9060669,0.027038574,0.234375,12.40625,3.25
1696243638177,-0.029296875,-1.0066528,-7.9345703E-4,-0.3125,18.75,2.890625
1696243638193,-0.039794922,-1.0925903,0.051208496,-1.25,27.671875,2.40625
1696243638255,-0.09863281,-1.0684204,0.070495605,-1.09375,31.375,1.46875
1696243638274,-0.056152344,-0.9365845,0.06414795,0.25,35.78125,2.21875
1696243638337,-0.052246094,-0.8640747,0.06878662,2.40625,38.953125,5.4375
1696243638355,-0.048095703,-0.94488525,0.10272217,5.421875,41.421875,7.78125
1696243638395,-0.016601562,-0.9788208,0.08856201,-0.015625,40.53125,5.640625
1696243638437,-0.009765625,-0.97125244,0.02166748,-5.84375,39.3125,2.8125
1696243638475,-0.045654297,-0.9746704,0.10272217,5.890625,37.796875,3.78125
1696243638516,-0.055419922,-0.9849243,0.06390381,9.828125,38.875,6.109375
1696243638555,0.034423828,-0.9151001,0.035095215,9.203125,38.40625,4.734375
1696243638595,0.09887695,-0.94537354,0.00970459,10.3125,33.078125,2.125
1696243638635,0.13964844,-0.9924927,0.12322998,-1.203125,29.015625,1.09375
1696243638719,-0.12011719,-1.1016235,0.13763428,-7.671875,24.328125,-8.78125
1696243638722,-0.28198242,-1.1846313,-0.09234619,-10.796875,32.5625,-13.953125
1696243638758,-0.08496094,-1.2005005,-0.21783447,-1.6875,38.53125,-13.71875
1696243638816,0.06616211,-1.1726685,-0.14337158,0.21875,54.0,5.0625
1696243638835,-0.122802734,-0.71173096,-0.051330566,-2.53125,53.234375,-5.515625
1696243638896,-0.061767578,-0.7944946,-0.22027588,-0.515625,58.640625,1.765625
1696243638914,0.018310547,-0.92510986,-0.37042236,10.65625,62.28125,7.59375
1696243638956,0.0036621094,-1.1343384,-0.19830322,16.890625,61.34375,5.484375
1696243638996,0.087402344,-1.0779419,-0.078430176,6.8125,54.828125,2.234375
1696243639035,-0.068115234,-0.8960571,-0.109191895,6.109375,47.921875,7.8125
1696243639096,-0.15625,-0.81500244,-0.13433838,8.59375,50.078125,5.609375
1696243639114,-0.15063477,-0.86920166,-0.1638794,7.375,50.34375,6.109375
1696243639155,-0.044189453,-1.0003052,-0.20953369,7.484375,47.5625,6.0625
1696243639215,0.03881836,-1.0440063,-0.1687622,4.34375,37.71875,6.34375
1696243639233,-0.08691406,-0.9956665,-0.13116455,0.609375,26.03125,5.984375
1696243639275,-0.10644531,-0.9673462,-0.1326294,-0.015625,24.296875,5.6875
1696243639294,-0.057373047,-0.96759033,-0.10748291,-2.71875,19.03125,7.09375
1696243639335,-0.095214844,-0.98272705,-0.101135254,-16.171875,17.0,3.578125
1696243639375,-0.07836914,-1.017395,0.007751465,-17.046875,11.734375,3.015625
1696243639415,-0.12084961,-1.0662231,0.020202637,-26.375,6.46875,0.9375
1696243639456,-0.26000977,-1.1470337,-0.0025024414,-35.484375,15.078125,-5.59375
1696243639495,-0.22045898,-1.2686157,-0.070373535,-20.21875,26.84375,-7.015625
1696243639535,0.14282227,-0.9673462,-0.15289307,-1.3125,19.21875,-6.65625
1696243639575,0.036132812,-0.8101196,-0.09527588,6.515625,13.1875,-1.90625
1696243639615,0.09326172,-0.7246704,-0.12213135,9.609375,18.40625,4.078125
1696243639655,0.11206055,-0.9319458,-0.038146973,-2.546875,29.9375,5.71875
1696243639695,0.048828125,-1.2590942,0.016052246,-19.140625,30.140625,1.46875
1696243639736,0.080566406,-1.1489868,0.0014038086,-7.75,28.140625,0.453125
1696243639775,0.09667969,-0.8789673,-0.04522705,6.359375,31.546875,4.828125
1696243639816,0.04663086,-0.8374634,0.0446167,3.90625,26.171875,4.59375
1696243639854,0.05810547,-1.0020142,0.043395996,-0.015625,27.171875,8.109375
1696243639894,0.11230469,-0.98101807,0.02947998,-5.4375,25.4375,5.078125
1696243639935,0.11669922,-1.0205688,0.07196045,-1.890625,17.15625,5.140625
1696243639975,0.03540039,-0.98321533,0.078063965,-4.5,14.6875,3.453125
1696243640015,-0.014160156,-0.9402466,0.06732178,-0.140625,15.359375,2.4375
1696243640056,0.012939453,-0.94488525,0.07611084,4.796875,16.578125,2.953125
1696243640097,0.029785156,-0.92266846,0.11029053,5.5,15.203125,3.828125
1696243640135,0.02319336,-0.9421997,0.06097412,4.4375,11.453125,2.453125
1696243640174,0.044433594,-0.99298096,0.09124756,3.515625,9.015625,2.140625
1696243640214,-0.056152344,-0.99835205,0.13446045,4.671875,7.265625,0.484375
1696243640256,-0.048583984,-0.8987427,0.07098389,-0.46875,11.796875,-3.171875
1696243640295,0.064208984,-0.92974854,0.04852295,8.375,12.625,1.078125
1696243640338,0.06689453,-1.1055298,0.053894043,2.46875,9.265625,3.09375
1696243640375,-0.032958984,-1.1248169,-0.0115356445,5.046875,11.546875,-3.21875
1696243640413,0.203125,-1.194397,0.006286621,5.875,13.40625,1.0625
1696243640455,0.24853516,-1.4111938,0.013366699,-1.578125,0.890625,6.40625
1696243640494,0.05444336,-1.6238403,-0.17364502,-11.640625,-4.484375,-1.796875
1696243640536,0.20117188,-1.5523071,-0.20611572,6.328125,18.625,-4.125
1696243640596,-0.032470703,-1.3511353,-0.1765747,2.59375,23.90625,-15.078125
1696243640614,-0.11694336,-1.2471313,-0.11651611,12.578125,21.28125,-9.4375
1696243640635,0.02734375,-0.90582275,-0.08087158,18.0,29.0,-14.234375
1696243640696,0.037841797,-0.4060669,-0.005432129,6.96875,38.328125,-9.4375
1696243640713,-0.08959961,0.11248779,0.007507324,-6.046875,33.875,-6.34375
1696243640757,0.060791016,0.14129639,-0.10748291,1.546875,25.671875,-6.40625
1696243640795,0.33081055,-0.20269775,-0.16070557,12.28125,11.734375,13.59375
1696243640836,0.24780273,-0.8267212,-0.074279785,-9.765625,-16.765625,20.953125
1696243640875,-0.35229492,-2.0,-0.32086182,-12.375,-29.015625,-15.875
1696243640917,-0.38623047,-1.3486938,-0.18902588,-0.953125,12.21875,-0.984375
1696243640955,-0.076416016,-0.5706177,-0.014953613,8.65625,23.515625,-13.046875
1696243641017,0.35424805,-0.48638916,-0.08917236,13.015625,-2.125,4.203125
1696243641056,-0.2163086,-0.8640747,-0.07208252,3.3125,-17.609375,19.890625
1696243641073,-0.22509766,-0.94537354,-0.10333252,8.640625,-0.125,-4.609375
1696243641136,-0.111816406,-1.0979614,-0.19830322,0.609375,3.109375,5.640625
1696243641155,0.012207031,-1.0823364,-0.10699463,3.484375,-5.0625,8.609375
1696243641194,-0.107910156,-1.0686646,-0.04156494,3.140625,-2.875,9.828125
1696243641256,-0.06591797,-0.9429321,-0.11529541,2.46875,1.5625,7.046875
1696243641275,-0.031982422,-0.9846802,-0.121154785,5.328125,-0.46875,10.5
1696243641337,-0.06616211,-1.0549927,-0.12774658,0.3125,-3.234375,9.609375
1696243641355,-0.09106445,-1.0952759,-0.18267822,-1.265625,-1.875,10.421875
1696243641396,0.038330078,-1.1677856,-0.20440674,-2.578125,-0.09375,8.203125
1696243641435,0.063964844,-1.2617798,-0.24346924,-3.921875,-3.765625,8.75
1696243641475,0.12817383,-1.3430786,-0.16900635,-8.046875,-0.84375,4.734375
1696243641516,0.13378906,-1.2173462,-0.19732666,-5.90625,1.546875,-0.46875
1696243641557,0.27539062,-1.0332642,-0.17681885,-0.921875,3.75,-1.078125
1696243641595,0.3474121,-0.93218994,-0.09088135,-6.34375,-4.15625,4.203125
1696243641637,0.16479492,-0.9697876,-0.06890869,-9.296875,-10.015625,2.515625
1696243641676,0.123535156,-0.9260864,-0.055236816,-8.453125,-4.0625,-0.890625
1696243641714,0.16552734,-0.8460083,0.001159668,-8.5625,-3.984375,-1.875
1696243641756,0.12670898,-0.8074341,0.0040893555,-11.8125,-9.734375,-4.859375
1696243641815,0.048583984,-0.7451782,0.054382324,-16.015625,-8.6875,-6.875
1696243641855,-0.010009766,-0.7095337,0.059509277,-11.171875,-6.53125,-8.09375
1696243641875,0.04736328,-0.63946533,0.024597168,-6.640625,-7.46875,-8.515625
1696243641957,-0.010253906,-0.6062622,-0.07476807,-5.5,1.0,-4.140625
1696243641962,0.12426758,-0.8401489,-0.09283447,4.703125,13.71875,3.21875
1696243641974,0.3959961,-1.4021606,0.19793701,0.359375,7.578125,13.65625
1696243642016,-0.06958008,-1.3508911,0.17132568,-12.21875,-17.53125,-1.75
1696243642058,-0.12158203,-0.7346802,0.04144287,9.703125,-6.15625,-11.0
1696243642096,0.036621094,-0.65509033,0.0033569336,9.328125,6.96875,4.96875
1696243642135,0.12158203,-0.9505005,0.08050537,3.921875,6.609375,9.5625
1696243642175,0.14160156,-1.1079712,0.1408081,-5.171875,1.8125,2.59375
1696243642216,-0.010498047,-0.9866333,0.105651855,0.8125,-0.359375,-0.21875
1696243642257,0.06298828,-0.99298096,0.09906006,10.296875,2.28125,0.625
1696243642297,0.09350586,-1.0198364,0.07879639,5.46875,-1.796875,0.09375
1696243642335,0.01977539,-1.0183716,-0.003967285,4.65625,-0.265625,-0.328125
1696243642377,0.103759766,-1.0569458,-0.04864502,11.390625,-1.046875,-1.265625
1696243642415,0.16381836,-1.2891235,-0.0154418945,5.765625,-1.625,2.921875
1696243642455,0.051513672,-1.539856,-0.053771973,2.734375,-0.234375,-1.125
1696243642497,0.19189453,-1.2854614,-0.10040283,17.109375,3.390625,-5.1875
1696243642537,0.26757812,-1.0557251,-0.15484619,5.421875,-2.640625,-3.921875
1696243642574,0.11279297,-1.0078735,-0.15753174,3.25,-4.84375,-2.84375
1696243642614,0.061767578,-0.9536743,-0.15435791,9.171875,5.875,-3.640625
1696243642657,0.07543945,-0.9072876,-0.1609497,7.765625,1.078125,-6.921875
1696243642695,0.043701172,-0.8128052,-0.09918213,7.1875,2.9375,-5.625
1696243642736,0.014160156,-0.66607666,-0.0947876,0.671875,1.609375,-8.984375
1696243642777,0.02709961,-0.7041626,-0.10772705,-1.625,1.46875,-7.109375
1696243642816,0.072265625,-0.76104736,-0.07867432,-3.734375,-1.65625,-7.203125
1696243642855,-0.067871094,-0.8308716,-0.04473877,-9.0625,-5.8125,-7.375
1696243642896,-0.13574219,-0.91192627,-0.12017822,-12.640625,-0.3125,-10.890625
1696243642937,-0.052490234,-0.9194946,-0.062805176,0.734375,8.078125,-1.328125
1696243642978,-0.017578125,-0.9002075,-0.028137207,-0.875,1.78125,0.953125
1696243643015,-0.059814453,-0.91900635,-0.10284424,-1.09375,-1.46875,2.4375
1696243643057,0.009277344,-1.0110474,-0.089416504,6.046875,-4.046875,3.265625
1696243643096,-0.11035156,-1.0369263,-0.045715332,5.265625,-1.578125,7.8125
1696243643134,-0.12792969,-0.97198486,-0.03741455,4.90625,0.90625,4.4375
1696243643176,-0.076416016,-0.9714966,-0.08306885,3.59375,1.8125,6.703125
1696243643216,0.0017089844,-0.9771118,-0.07940674,2.859375,-0.703125,8.265625
1696243643235,-0.06933594,-1.0271606,-0.050354004,3.140625,-2.859375,9.078125
1696243643297,-0.07788086,-1.0371704,-0.08648682,1.53125,-2.765625,5.3125
1696243643314,0.056884766,-1.1109009,-0.15509033,-2.515625,6.03125,4.875
1696243643355,0.22485352,-1.2488403,-0.09112549,2.703125,-2.625,12.4375
1696243643417,0.025146484,-1.4993286,-0.15679932,-1.796875,-8.0625,13.578125
1696243643433,0.1862793,-1.4592896,-0.23345947,0.90625,-6.625,2.625
1696243643477,0.28735352,-1.1956177,-0.30352783,4.375,-4.203125,1.34375
1696243643516,0.26611328,-1.0071411,-0.16558838,1.984375,-9.53125,5.109375
1696243643553,0.12768555,-0.9763794,-0.1038208,-5.703125,-16.1875,2.71875
1696243643595,0.110839844,-0.8386841,-0.08502197,-7.625,-11.671875,0.328125
1696243643633,0.14282227,-0.65753174,-0.042297363,-7.765625,-12.875,2.265625
1696243643677,0.06640625,-0.46051025,0.027770996,-6.90625,-15.265625,-1.234375
1696243643716,-0.01928711,-0.39385986,0.016296387,-10.921875,-9.703125,-1.859375
1696243643755,0.07299805,-0.5491333,-0.11407471,-7.71875,-1.84375,-0.953125
1696243643794,0.23730469,-0.86383057,0.15472412,-2.1875,3.75,2.640625
1696243643835,0.10595703,-1.3389282,-0.0032348633,-6.21875,-4.640625,1.140625
1696243643876,0.14038086,-1.1992798,0.05316162,-0.3125,-4.453125,-1.125
1696243643914,0.07495117,-0.94366455,0.023132324,0.375,-7.375,0.640625
1696243643954,-0.0026855469,-0.87335205,0.06585693,0.25,-6.984375,-2.34375
1696243643995,0.0053710938,-0.83673096,0.085876465,-0.09375,-1.6875,-0.140625
1696243644034,0.0793457,-0.911438,0.031433105,0.125,0.3125,-0.5625
1696243644078,0.119384766,-0.9578247,0.09075928,5.59375,0.953125,1.1875
1696243644134,0.05517578,-0.9673462,0.05316162,5.828125,-0.5625,-2.046875
1696243644154,0.10864258,-0.9468384,0.0680542,9.765625,2.21875,-4.734375
1696243644195,0.13720703,-1.0022583,-0.08673096,5.5,-4.625,-4.03125
1696243644235,0.14892578,-1.1189575,0.03778076,8.515625,-5.359375,-5.75
1696243644276,0.04296875,-1.2544556,-0.061584473,9.234375,0.703125,0.515625
1696243644316,0.2084961,-1.3613892,-0.19366455,9.75,7.3125,-2.765625
1696243644354,0.23046875,-1.3391724,-0.17193604,2.765625,5.9375,-5.375
1696243644418,0.12915039,-1.3845825,-0.24761963,-1.9375,-2.46875,-8.609375
1696243644434,0.08862305,-1.0791626,-0.3110962,7.3125,1.0,-8.328125
1696243644496,0.10961914,-0.928772,-0.24884033,11.453125,9.125,-4.71875
1696243644514,0.12475586,-0.89556885,-0.085510254,12.5,6.515625,-2.765625
1696243644534,-0.021728516,-0.78619385,-0.14019775,2.890625,1.546875,-6.234375
1696243644577,-0.056640625,-0.67755127,-0.1350708,4.96875,5.875,-7.90625
1696243644616,-0.0041503906,-0.6123657,-0.11431885,3.890625,5.5625,-7.578125
1696243644655,-0.0034179688,-0.661438,-0.13116455,-3.34375,9.875,-7.0625
1696243644697,-0.045410156,-0.7463989,-0.15875244,0.140625,5.96875,-7.015625
1696243644735,0.024169922,-0.7918091,-0.20928955,-2.515625,5.625,-7.6875
1696243644796,0.03955078,-0.88604736,-0.21466064,-2.71875,-1.828125,-5.015625
1696243644812,0.0026855469,-0.9993286,-0.1716919,-1.84375,-9.609375,-4.875
1696243644854,-0.1550293,-1.1431274,-0.13165283,-6.4375,-9.59375,-6.0625
1696243644897,-0.21533203,-1.0874634,-0.10211182,-1.734375,0.28125,-8.5625
1696243644936,-0.087646484,-0.8406372,-0.120910645,-4.015625,-2.46875,-9.515625
1696243644976,-0.016845703,-0.8255005,-0.13653564,-6.453125,-10.6875,-6.125
1696243645015,-0.10961914,-0.96099854,-0.09112549,-4.65625,-12.703125,-2.25
1696243645054,-0.1381836,-0.986145,-0.070373535,-2.84375,-10.078125,-1.734375
1696243645093,-0.16088867,-0.9932251,-0.10284424,-6.84375,-9.703125,-1.1875
1696243645133,-0.23925781,-0.9771118,-0.066467285,-2.125,-10.859375,-1.03125
1696243645174,-0.14135742,-1.0037231,-0.09429932,0.140625,-8.703125,3.640625
1696243645215,-0.11669922,-0.94732666,-0.04864502,1.109375,-8.921875,5.03125
1696243645254,-0.24975586,-0.9741821,-0.101379395,0.375,-9.96875,6.84375
1696243645293,-0.18603516,-0.958313,-0.08917236,-0.390625,-4.765625,7.34375
1696243645333,-0.12939453,-0.99176025,-0.10089111,0.234375,-6.359375,9.765625
1696243645373,-0.07714844,-1.0130005,-0.10650635,0.265625,-7.875,10.9375
1696243645414,-0.071777344,-1.0286255,-0.0178833,-1.921875,-10.1875,13.171875
1696243645453,-0.29736328,-1.0288696,-0.08013916,-1.78125,-13.5,11.28125
1696243645493,-0.10571289,-1.0435181,-0.18927002,0.65625,-3.859375,6.890625
1696243645533,0.1496582,-1.2703247,-0.28277588,4.109375,-0.375,15.234375
1696243645573,0.36669922,-1.4893188,-0.14727783,1.78125,-22.71875,19.15625
1696243645613,0.018554688,-1.4446411,-0.10748291,-2.703125,-29.640625,7.0625
1696243645653,0.24121094,-1.1184692,-0.24029541,1.296875,-19.0625,5.5625
1696243645693,0.52001953,-0.9089966,-0.14459229,0.71875,-26.265625,4.65625
1696243645753,0.3059082,-0.9871216,-0.06304932,-2.59375,-31.484375,4.65625
