,timestamp,accel_x,accel_y,accel_z,gyro_x,gyro_y,gyro_z,ind
0,1696243354266,-0.04711914,-0.9668579,0.13665771,-2.34375,-0.234375,0.21875,0
1,1696243354306,-0.07373047,-0.9859009,0.15863037,2.8125,-1.453125,1.953125,1
2,1696243354346,-0.06689453,-0.9614868,0.13104248,1.71875,-0.140625,1.390625,2
3,1696243354386,-0.10498047,-0.9116821,0.12664795,6.078125,3.0625,1.171875,3
4,1696243354426,-0.14257812,-0.88067627,0.031921387,9.640625,10.625,4.046875,4
5,1696243354466,-0.001953125,-0.92022705,0.074645996,-6.203125,6.140625,2.59375,5
6,1696243354506,-0.20703125,-1.1624146,0.1461792,-18.21875,0.0625,-0.953125,6
7,1696243354546,-0.3149414,-1.1668091,0.20965576,-1.3125,-2.390625,-1.703125,7
8,1696243354586,-0.061279297,-0.9751587,0.15618896,1.890625,-3.421875,-4.671875,8
9,1696243354626,0.21435547,-0.9121704,0.13494873,6.796875,-8.359375,3.546875,9
10,1696243354666,0.11206055,-0.8977661,0.117370605,11.953125,-18.6875,8.203125,10
11,1696243354706,-0.14575195,-0.8428345,0.09588623,10.859375,-18.59375,6.6875,11
12,1696243354746,-0.15551758,-0.97662354,0.05633545,2.03125,-8.078125,5.1875,12
13,1696243354786,0.0859375,-1.1792603,0.17132568,6.8125,-6.234375,9.3125,13
14,1696243354826,-0.024414062,-1.1052856,0.21942139,7.203125,-9.71875,13.75,14
15,1696243354866,-0.16333008,-1.0327759,0.1281128,-0.78125,-5.84375,2.40625,15
16,1696243354906,0.041992188,-0.9944458,0.14788818,7.765625,-5.3125,9.796875,16
17,1696243354946,0.103027344,-0.9561157,0.17108154,6.6875,-8.046875,10.515625,17
18,1696243354986,-0.017822266,-0.8831177,0.20257568,1.953125,-9.078125,6.109375,18
19,1696243355026,-0.1340332,-0.8167114,0.18353271,-1.515625,-3.34375,-0.578125,19
20,1696243355066,-0.07324219,-0.79888916,0.12445068,-1.234375,5.03125,-7.46875,20
21,1696243355106,-0.0126953125,-0.73028564,0.12005615,1.234375,16.25,-7.84375,21
22,1696243355146,-0.042236328,-0.61065674,-0.008117676,1.140625,10.359375,-8.265625,22
23,1696243355186,0.12060547,-0.7349243,0.09295654,2.90625,3.625,-6.796875,23
24,1696243355226,-0.013671875,-1.0422974,0.21502686,-0.1875,-0.9375,-5.671875,24
25,1696243355266,-0.118652344,-1.0842896,0.20428467,0.84375,9.71875,-10.234375,25
26,1696243355306,-0.008056641,-0.8496704,0.14447021,0.03125,7.625,-13.609375,26
27,1696243355346,0.057861328,-1.0574341,0.20941162,1.109375,-0.78125,-6.828125,27
28,1696243355386,-0.12670898,-1.0432739,0.18719482,6.625,-4.046875,-7.96875,28
29,1696243355426,-0.021484375,-0.92681885,0.13275146,5.796875,-0.15625,-7.984375,29
30,1696243355466,0.107421875,-1.102356,0.06439209,-11.09375,-15.421875,-7.5625,30
31,1696243355506,-0.3359375,-1.7866821,-0.06842041,-44.46875,-22.28125,-2.78125,31
32,1696243355546,0.107177734,-1.6199341,-0.2456665,35.34375,-5.984375,-6.65625,32
33,1696243355586,-0.115722656,-1.0881958,0.1359253,-3.859375,3.375,19.921875,33
34,1696243355626,0.011962891,-0.56744385,0.25946045,0.953125,-9.6875,-27.59375,34
35,1696243355666,-0.28198242,-0.9710083,-0.08892822,-6.828125,-21.359375,17.421875,35
36,1696243355706,-0.009277344,-0.88287354,-0.07965088,11.625,-4.15625,3.953125,36
37,1696243355746,0.06933594,-1.0125122,0.02142334,9.328125,-6.875,2.328125,37
38,1696243355786,-0.1328125,-1.1140747,-0.03741455,-0.640625,-11.375,2.296875,38
39,1696243355826,-0.16308594,-0.95025635,-0.026916504,-1.109375,-5.078125,1.3125,39
40,1696243355866,-0.22216797,-0.98272705,-0.034973145,-0.03125,2.578125,0.828125,40
41,1696243355906,-0.052978516,-1.00177,-0.02960205,-0.0625,5.1875,1.28125,41
42,1696243355946,-0.02319336,-1.0227661,0.0045776367,1.625,-0.984375,4.25,42
43,1696243355986,-0.09399414,-0.9927368,0.027526855,4.6875,-1.796875,4.3125,43
44,1696243356026,-0.12719727,-0.94610596,0.042663574,2.453125,-0.359375,2.328125,44
45,1696243356066,-0.12231445,-0.9656372,-0.046691895,-4.078125,0.921875,-0.296875,45
46,1696243356106,-0.13110352,-0.9224243,-0.026916504,-0.828125,0.734375,-0.390625,46
47,1696243356146,-0.15795898,-0.98809814,0.024597168,0.671875,7.4375,0.859375,47
48,1696243356186,-0.10449219,-0.93878174,0.039978027,2.203125,7.28125,1.34375,48
49,1696243356226,-0.08642578,-0.93463135,-0.051330566,0.453125,7.1875,2.265625,49
50,1696243356266,0.07373047,-0.9841919,0.074401855,2.453125,7.328125,5.703125,50
51,1696243356306,-0.0769043,-1.0344849,0.09564209,-3.96875,-0.6875,4.375,51
52,1696243356346,-0.1459961,-0.9036255,0.10028076,-2.015625,-2.15625,-1.359375,52
53,1696243356386,-0.09838867,-0.7503052,0.0602417,-0.484375,-4.96875,-3.453125,53
54,1696243356426,-0.14697266,-0.725647,0.04852295,-7.203125,-5.90625,-1.953125,54
55,1696243356466,-0.17919922,-0.7527466,0.020690918,-4.421875,-3.015625,-1.671875,55
56,1696243356506,-0.080566406,-0.7859497,-0.0056762695,-9.9375,2.921875,3.921875,56
57,1696243356546,-0.060058594,-0.95025635,0.05340576,-14.828125,-0.421875,-2.125,57
58,1696243356586,-0.20361328,-1.0501099,0.0914917,-14.484375,-3.78125,-0.640625,58
59,1696243356626,-0.17626953,-0.9800415,0.13104248,-4.65625,-4.0,-5.125,59
60,1696243356666,-0.18334961,-0.9158325,-0.006164551,-12.765625,-3.03125,-6.90625,60
61,1696243356706,-0.18359375,-1.0488892,0.07904053,-5.265625,3.34375,-6.125,61
62,1696243356746,-0.0009765625,-1.3535767,0.11419678,3.78125,10.71875,0.484375,62
63,1696243356786,0.15185547,-1.3079224,-0.028381348,-2.1875,0.609375,3.890625,63
64,1696243356826,0.22998047,-1.5547485,0.2658081,-7.65625,12.953125,10.578125,64
65,1696243356866,-0.04345703,-1.2625122,0.22821045,3.828125,4.25,3.453125,65
66,1696243356906,-0.21386719,-0.9421997,0.031677246,0.84375,2.59375,-0.34375,66
67,1696243356946,0.10473633,-0.71466064,0.152771,14.828125,19.296875,11.15625,67
68,1696243356986,0.12548828,-0.99786377,0.17303467,1.296875,5.53125,17.203125,68
69,1696243357026,0.01928711,-0.9795532,0.13494873,-5.890625,-2.265625,4.484375,69
70,1696243357066,-0.037841797,-0.9265747,0.046813965,-1.15625,1.109375,2.921875,70
71,1696243357106,0.12158203,-0.99786377,0.12445068,7.046875,6.546875,8.6875,71
72,1696243357146,0.049804688,-1.0274048,0.18792725,0.15625,-2.03125,4.265625,72
73,1696243357186,-0.06713867,-0.9841919,0.1593628,-1.84375,-4.0,-0.046875,73
74,1696243357226,-0.0007324219,-0.9273071,0.10076904,0.125,-1.65625,0.1875,74
75,1696243357266,0.044433594,-0.94122314,0.1552124,0.296875,0.65625,1.03125,75
76,1696243357306,-0.06616211,-0.9932251,0.16204834,-0.859375,3.140625,0.921875,76
77,1696243357346,0.020019531,-0.9883423,0.1552124,-1.390625,3.546875,-1.828125,77
78,1696243357386,0.021240234,-0.93951416,0.16009521,-2.203125,0.78125,-1.28125,78
79,1696243357426,-0.068115234,-0.88604736,0.13079834,-0.40625,1.15625,-2.8125,79
80,1696243357466,-0.06738281,-0.79766846,0.051696777,0.875,0.53125,-5.625,80
81,1696243357506,0.05834961,-0.9002075,0.17132568,0.71875,11.5625,-0.90625,81
82,1696243357546,-0.010986328,-1.0164185,0.20477295,-1.671875,0.859375,-1.921875,82
83,1696243357586,-0.0146484375,-0.93096924,0.0836792,-1.59375,-6.0,-6.09375,83
84,1696243357626,0.052490234,-0.8364868,0.10369873,0.890625,-2.296875,-2.75,84
85,1696243357666,-0.047851562,-0.99298096,0.13934326,0.28125,-2.390625,0.40625,85
86,1696243357706,-0.031982422,-1.0894165,0.15472412,3.28125,0.265625,-2.078125,86
87,1696243357746,-0.016113281,-1.0066528,0.1852417,2.234375,-0.46875,-1.828125,87
88,1696243357786,-0.1352539,-0.97613525,0.13494873,4.671875,4.140625,-1.46875,88
89,1696243357826,0.001953125,-0.9924927,0.0993042,5.03125,6.96875,-1.09375,89
90,1696243357866,0.05444336,-1.0115356,0.15863037,2.078125,-0.90625,-0.1875,90
91,1696243357906,-0.076660156,-0.9649048,0.12542725,7.203125,-2.6875,1.453125,91
92,1696243357946,0.0034179688,-0.8882446,0.10345459,7.03125,-0.65625,1.78125,92
93,1696243357986,-0.005859375,-0.96759033,0.14178467,3.578125,-3.328125,2.5625,93
94,1696243358026,-0.011474609,-1.0083618,0.12738037,4.03125,-5.015625,6.078125,94
95,1696243358066,-0.028320312,-0.9729614,0.17034912,2.8125,-5.109375,4.078125,95
96,1696243358106,-0.04638672,-0.95635986,0.0914917,4.046875,-6.421875,1.171875,96
97,1696243358146,0.0041503906,-0.9360962,0.13201904,3.3125,-5.921875,0.078125,97
98,1696243358186,-0.009765625,-0.94781494,0.13616943,1.96875,-6.828125,-0.40625,98
99,1696243358226,-0.04296875,-0.9920044,0.03338623,-8.15625,-9.6875,-2.015625,99
100,1696243358266,-0.018066406,-1.467102,-0.012512207,-42.6875,-25.671875,-5.8125,100
101,1696243358306,0.171875,-1.5481567,0.19866943,6.296875,-24.1875,8.296875,101
102,1696243358346,-0.29077148,-1.0447388,0.18353271,18.65625,1.5625,4.734375,102
103,1696243358386,-0.022460938,-0.5442505,0.15032959,5.3125,5.21875,-16.65625,103
104,1696243358426,0.083740234,-0.8677368,0.054138184,-13.953125,-16.125,9.15625,104
105,1696243358466,-0.04296875,-1.045227,0.034118652,-2.59375,-11.796875,1.453125,105
106,1696243358506,-0.045166016,-1.0205688,0.04852295,5.546875,-2.890625,-3.78125,106
107,1696243358546,0.06567383,-1.0437622,0.031921387,0.9375,-3.296875,-1.109375,107
108,1696243358586,-0.050048828,-1.0239868,0.09051514,-4.046875,-2.4375,0.078125,108
109,1696243358626,-0.13500977,-0.9990845,0.042175293,-1.15625,3.3125,-0.84375,109
110,1696243358666,0.03149414,-0.973938,0.06781006,2.609375,1.96875,-0.0625,110
111,1696243358706,-0.016357422,-0.9807739,0.057800293,-0.640625,-4.75,1.1875,111
112,1696243358746,-0.06738281,-0.9561157,0.07244873,0.015625,-3.296875,-0.84375,112
113,1696243358786,-0.026367188,-0.95318604,0.07659912,0.625,-1.578125,0.109375,113
114,1696243358826,-0.10644531,-0.9627075,0.062927246,-1.828125,-3.328125,-3.203125,114
115,1696243358866,-0.068847656,-0.9627075,0.041931152,-0.875,-2.421875,-3.609375,115
116,1696243358906,0.0012207031,-0.9295044,0.07977295,-0.3125,-1.890625,-2.828125,116
117,1696243358946,-0.05908203,-0.9168091,0.13006592,-7.0625,-6.953125,-4.890625,117
118,1696243358986,-0.17114258,-0.8867798,0.15740967,-7.0,-5.953125,-6.21875,118
119,1696243359026,-0.19042969,-0.8521118,0.1852417,-7.953125,-0.546875,-4.953125,119
120,1696243359066,-0.1862793,-0.9451294,0.04437256,-5.453125,3.828125,-4.4375,120
121,1696243359106,-0.07080078,-0.92071533,0.18890381,0.5625,9.9375,0.71875,121
122,1696243359146,-0.04638672,-0.84991455,0.04095459,-8.46875,1.453125,-3.5625,122
123,1696243359186,-0.16577148,-0.7852173,0.062194824,-1.9375,-2.875,-0.046875,123
124,1696243359226,-0.18066406,-0.7984009,0.09124756,-1.046875,-5.609375,-2.015625,124
125,1696243359266,-0.21557617,-0.8740845,0.14178467,-3.515625,0.09375,-0.15625,125
126,1696243359306,-0.2043457,-0.8447876,0.20428467,-7.421875,4.1875,-2.625,126
127,1696243359346,-0.17553711,-0.90875244,0.18304443,-3.09375,9.296875,-4.28125,127
128,1696243359386,-0.075927734,-1.2041626,0.1005249,3.46875,10.90625,-3.96875,128
129,1696243359426,0.0126953125,-1.598938,0.19451904,-5.421875,7.9375,1.390625,129
130,1696243359466,0.22143555,-1.3521118,0.10858154,5.6875,0.5625,0.421875,130
131,1696243359506,0.06738281,-1.2627563,0.21356201,10.171875,-3.921875,6.328125,131
132,1696243359546,-0.111816406,-1.123352,0.1930542,3.203125,-12.78125,0.28125,132
133,1696243359586,-0.19970703,-0.9807739,0.1642456,5.65625,0.03125,0.875,133
134,1696243359626,-0.119384766,-0.8743286,0.152771,3.734375,7.3125,-0.796875,134
135,1696243359666,0.1003418,-0.9561157,0.12908936,-4.28125,2.6875,7.0,135
136,1696243359706,0.05102539,-0.9380493,0.14715576,-3.90625,-3.765625,4.625,136
137,1696243359746,-0.041259766,-1.0215454,0.15863037,-0.703125,-1.640625,5.171875,137
138,1696243359786,-0.0068359375,-0.99591064,0.14715576,5.46875,-1.4375,5.6875,138
139,1696243359826,-0.013183594,-0.9961548,0.20916748,5.109375,-1.921875,4.421875,139
140,1696243359866,-0.08642578,-0.97442627,0.17132568,2.71875,-4.734375,3.34375,140
141,1696243359906,-0.020996094,-0.9053345,0.14202881,4.375,1.3125,3.046875,141
142,1696243359946,-0.0031738281,-0.9390259,0.14837646,2.640625,0.234375,1.578125,142
143,1696243359986,-0.011230469,-0.91851807,0.15203857,3.875,-0.90625,0.421875,143
144,1696243360026,-0.030761719,-0.8845825,0.1408081,2.75,0.234375,-1.5,144
145,1696243360066,-0.042236328,-0.8804321,0.1449585,2.828125,0.96875,-2.953125,145
146,1696243360106,-0.052001953,-0.8936157,0.16375732,2.109375,1.65625,-3.078125,146
147,1696243360146,-0.061279297,-0.8428345,0.10736084,2.25,2.1875,-2.453125,147
148,1696243360186,0.017822266,-0.8401489,0.06121826,2.328125,1.4375,0.328125,148
149,1696243360226,-0.022460938,-0.9434204,0.18914795,1.53125,-5.34375,-2.359375,149
150,1696243360266,-0.1628418,-0.97540283,0.14544678,1.546875,1.90625,-1.65625,150
151,1696243360306,-0.087402344,-0.84210205,0.17718506,5.515625,7.53125,-4.015625,151
152,1696243360346,-0.03857422,-0.83966064,0.1395874,3.3125,3.703125,-0.21875,152
153,1696243360386,-0.051757812,-0.8557739,0.14935303,4.109375,-1.328125,-2.4375,153
154,1696243360426,-0.091796875,-0.8831177,0.13568115,3.8125,2.59375,-0.578125,154
155,1696243360466,-0.028564453,-1.0405884,0.042907715,-2.765625,-3.25,-3.84375,155
156,1696243360506,0.0871582,-1.3369751,-0.04034424,5.984375,-20.09375,-0.65625,156
157,1696243360546,-0.026611328,-1.3921509,-0.09527588,20.234375,-12.8125,9.671875,157
158,1696243360586,-0.23657227,-1.3010864,-0.09259033,8.734375,-9.875,-4.109375,158
159,1696243360626,0.14086914,-1.3259888,0.0524292,9.453125,-3.609375,0.484375,159
160,1696243360666,-0.0925293,-1.0603638,0.049987793,-2.671875,-17.875,-0.765625,160
161,1696243360706,-0.2578125,-0.9458618,-0.0020141602,0.21875,-14.109375,-8.578125,161
162,1696243360746,-0.099853516,-0.8706665,-0.03302002,4.34375,-4.484375,-0.859375,162
163,1696243360786,-0.023925781,-0.92144775,-0.01763916,2.171875,-7.140625,-2.875,163
164,1696243360826,-0.087646484,-0.9685669,0.003112793,0.875,-10.3125,-1.640625,164
165,1696243360866,-0.119140625,-0.94781494,-0.039367676,-0.953125,-7.0,-2.265625,165
166,1696243360906,-0.14868164,-0.9585571,-6.1035156e-05,-3.40625,-4.09375,-1.0625,166
167,1696243360946,-0.15258789,-0.9973755,0.039978027,-6.40625,-4.140625,-2.640625,167
168,1696243360986,-0.14160156,-0.9607544,0.051208496,-7.734375,-3.515625,-1.859375,168
169,1696243361026,-0.17089844,-0.9573364,0.05706787,-11.09375,-2.890625,-2.984375,169
170,1696243361066,-0.18066406,-1.0088501,0.0602417,-10.484375,-3.0,-4.234375,170
171,1696243361106,-0.07324219,-0.97052,0.061706543,-8.03125,-3.953125,-2.28125,171
172,1696243361146,-0.083984375,-0.8982544,0.06854248,-8.71875,-8.765625,-1.484375,172
173,1696243361186,-0.16992188,-0.9038696,0.08001709,-7.609375,-8.515625,0.15625,173
174,1696243361226,-0.203125,-0.89849854,0.0914917,-9.78125,-8.15625,-0.875,174
175,1696243361266,-0.1184082,-0.89727783,0.093444824,-6.515625,-5.15625,3.78125,175
176,1696243361306,-0.0637207,-0.8389282,0.08123779,-3.484375,-6.921875,3.203125,176
177,1696243361346,-0.09301758,-0.80474854,0.12786865,1.21875,-10.90625,6.34375,177
178,1696243361386,-0.15771484,-0.8369751,0.124694824,-0.8125,-12.015625,8.109375,178
179,1696243361426,-0.21582031,-0.8674927,0.13226318,-4.296875,-12.703125,2.625,179
180,1696243361466,-0.21923828,-0.8928833,0.1449585,-2.171875,-9.90625,5.3125,180
181,1696243361506,-0.23754883,-0.8689575,0.13079834,-6.953125,-6.625,-2.0,181
182,1696243361546,-0.22802734,-1.017395,0.16497803,0.140625,-1.109375,-3.0,182
183,1696243361586,-0.140625,-1.135315,0.030700684,1.96875,4.625,-6.3125,183
184,1696243361626,-0.091552734,-1.4324341,0.11004639,-3.328125,19.140625,-3.796875,184
185,1696243361666,-0.025390625,-0.7888794,0.07635498,-4.21875,0.5625,-5.296875,251
186,1696243361706,-0.011474609,-0.70806885,0.06732178,-1.640625,2.734375,-4.484375,252
187,1696243361746,0.09472656,-0.77130127,0.15203857,-2.65625,6.609375,-0.28125,253
188,1696243361786,0.0056152344,-0.9133911,0.09881592,-7.53125,-1.484375,-1.5625,254
189,1696243361826,-0.08666992,-0.95391846,0.070495605,-1.390625,-2.78125,-3.3125,255
190,1696243361866,-0.041259766,-0.96173096,0.09442139,-0.296875,-2.03125,-1.28125,256
191,1696243361906,-0.041503906,-0.9624634,0.15032959,0.265625,1.34375,-2.140625,257
192,1696243361946,-0.05029297,-0.91656494,0.20648193,0.453125,0.875,-2.4375,258
193,1696243361986,-0.014892578,-1.0527954,-0.0056762695,-2.53125,-4.109375,-2.96875,259
194,1696243362026,0.1665039,-1.2700806,-0.051818848,-5.3125,-10.4375,0.875,260
195,1696243362066,0.11669922,-1.3584595,-0.19195557,10.671875,-7.59375,9.59375,261
196,1696243362106,-0.09765625,-1.2420044,-0.101623535,-0.53125,-0.375,5.5,262
197,1696243362146,0.0703125,-1.295227,0.019714355,0.84375,1.09375,-0.9375,263
198,1696243362186,0.09375,-1.1707153,0.036315918,0.765625,-3.0,4.890625,264
199,1696243362226,-0.14404297,-0.90509033,0.029968262,1.859375,-4.625,-6.03125,265
200,1696243362266,-0.09472656,-0.8220825,-0.0647583,3.84375,-2.1875,-4.15625,266
201,1696243362306,0.06591797,-0.8701782,-0.101867676,5.1875,-4.546875,-1.09375,267
202,1696243362346,0.07714844,-1.0032349,-0.070617676,5.734375,-8.59375,3.5,268
203,1696243362386,0.030273438,-1.015686,-0.038146973,4.234375,-9.453125,-1.390625,269
204,1696243362426,-0.09863281,-1.029602,-0.04425049,4.203125,-9.078125,-0.546875,270
205,1696243362466,-0.10913086,-1.0064087,-0.022766113,2.671875,-6.0625,-0.0625,271
206,1696243362506,-0.06591797,-0.97247314,-0.031555176,1.21875,-3.703125,-1.4375,272
207,1696243362546,-0.0075683594,-0.96051025,-0.04156494,0.765625,-3.890625,-2.625,273
208,1696243362586,-0.05102539,-0.9480591,-0.025939941,2.140625,-3.609375,0.109375,274
209,1696243362626,-0.096191406,-0.9365845,-0.014953613,-4.71875,-3.75,-1.1875,275
210,1696243362666,-0.15966797,-1.0088501,-0.016906738,-7.65625,-3.265625,-5.65625,276
211,1696243362706,-0.11376953,-0.9651489,-0.0015258789,-10.265625,-0.03125,-4.078125,277
212,1696243362746,-0.09008789,-0.88482666,0.018493652,-15.375,-0.015625,-6.5625,278
213,1696243362786,-0.09448242,-0.95562744,0.012390137,-13.21875,1.1875,-2.484375,279
214,1696243362826,-0.084472656,-0.9192505,0.023376465,-9.984375,8.296875,-2.171875,280
215,1696243362866,-0.057128906,-0.9182739,0.06854248,-10.3125,8.203125,-4.0,281
216,1696243362906,-0.0078125,-0.9024048,0.09710693,-11.140625,5.53125,1.78125,282
217,1696243362946,-0.052246094,-0.79034424,0.062194824,-10.84375,8.84375,3.703125,283
218,1696243362986,-0.13061523,-0.8418579,0.15008545,-4.90625,6.515625,1.90625,284
219,1696243363026,-0.13671875,-0.8838501,0.13323975,-3.578125,2.28125,1.59375,285
220,1696243363066,-0.12182617,-0.8814087,0.11859131,-9.0625,1.4375,1.921875,286
221,1696243363106,-0.10229492,-0.87677,0.08831787,-4.734375,-0.078125,1.28125,287
222,1696243363146,-0.15356445,-0.86968994,0.066101074,-0.65625,1.8125,-0.0625,288
223,1696243363186,-0.07885742,-0.8789673,0.06097412,2.453125,2.5625,-2.390625,289
224,1696243363226,-0.057861328,-1.0686646,0.06048584,6.734375,11.703125,1.0625,290
225,1696243363266,0.10131836,-1.545227,0.08319092,10.71875,20.4375,4.984375,291
226,1696243363306,0.34423828,-1.604065,0.22747803,0.453125,2.03125,7.875,292
227,1696243363346,-0.06762695,-1.3528442,0.19158936,-7.71875,-9.28125,2.953125,293
228,1696243363386,-0.10668945,-0.98638916,0.034606934,4.84375,-6.640625,-5.9375,294
229,1696243363426,-0.1418457,-0.8921509,0.14642334,10.109375,9.265625,4.28125,295
230,1696243363466,-0.036865234,-0.9714966,0.12200928,1.5625,9.984375,0.265625,296
231,1696243363506,0.12939453,-0.8862915,-0.006652832,-4.296875,1.0,2.140625,297
232,1696243363546,0.076416016,-0.91656494,0.054382324,2.484375,-0.578125,5.828125,298
233,1696243363586,0.07128906,-1.0518188,0.109313965,4.421875,-1.046875,6.609375,299
234,1696243363626,0.04248047,-1.0098267,0.16156006,1.3125,-4.90625,4.28125,300
235,1696243363666,-0.041503906,-0.9417114,0.112976074,-0.15625,-9.75,1.640625,301
236,1696243363706,-0.02319336,-0.9524536,0.13861084,2.59375,-4.0625,-1.5625,302
237,1696243363746,0.048339844,-0.9644165,0.15106201,0.6875,-2.6875,-5.3125,303
238,1696243363786,-0.017333984,-0.89801025,0.14422607,1.734375,-3.4375,-4.28125,304
239,1696243363826,-0.012451172,-0.92633057,0.11932373,-0.171875,-4.953125,-8.125,305
240,1696243363866,0.022949219,-0.86920166,0.06732178,-0.953125,-6.59375,-9.03125,306
241,1696243363906,0.03955078,-0.82403564,0.06488037,0.90625,-6.734375,-3.234375,307
242,1696243363946,-0.043945312,-0.82696533,0.04534912,2.796875,-7.984375,1.078125,308
243,1696243363986,-0.0017089844,-0.86138916,0.09613037,3.46875,-6.296875,1.546875,309
244,1696243364026,-0.08520508,-0.9483032,0.15618896,-0.890625,-4.984375,1.25,310
245,1696243364066,-0.21020508,-0.97442627,0.23626709,0.625,4.515625,-0.90625,311
246,1696243364106,-0.06640625,-0.8357544,0.10223389,2.21875,1.703125,-3.703125,312
247,1696243364146,0.057373047,-0.8555298,0.074157715,7.0625,3.234375,3.234375,313
248,1696243364186,-0.045654297,-0.913147,0.09197998,13.4375,1.109375,3.65625,314
249,1696243364226,-0.05834961,-0.9336548,0.08319092,12.015625,-1.421875,-1.359375,315
250,1696243364266,0.02758789,-1.0820923,0.038757324,-6.0625,-4.96875,-0.71875,316
251,1696243364306,0.08959961,-1.1489868,0.04852295,-0.265625,-10.734375,-0.40625,317
252,1696243364346,-0.0107421875,-1.2088013,-0.08892822,-4.609375,-10.15625,6.609375,318
253,1696243364386,-0.14160156,-1.617981,-0.11456299,-24.375,-15.140625,-6.34375,319
254,1696243364426,0.19482422,-1.5735474,-0.0025024414,25.890625,0.4375,9.015625,320
255,1696243364466,-0.010498047,-0.9348755,0.22747803,11.671875,0.375,3.84375,321
256,1696243364506,-0.25830078,-0.7271118,0.07220459,-0.640625,-10.65625,-16.625,322
257,1696243364546,-0.15698242,-0.878479,-0.11529541,-1.3125,-3.359375,0.9375,323
258,1696243364586,0.12719727,-0.847229,-0.1362915,3.78125,3.453125,-3.484375,324
259,1696243364626,0.061767578,-1.0645142,-0.046447754,-1.40625,-3.296875,1.578125,325
260,1696243364666,-0.10644531,-1.1030884,-0.0051879883,-5.359375,-6.28125,-0.328125,326
261,1696243364706,-0.14892578,-1.0015259,0.012634277,-7.390625,6.09375,-1.5,327
262,1696243364746,-0.07885742,-0.9480591,0.02508545,-0.203125,7.0,-0.234375,328
263,1696243364786,-0.024658203,-0.98931885,0.0072631836,4.109375,2.734375,3.78125,329
264,1696243364826,-0.05908203,-0.9871216,0.03314209,0.953125,0.046875,3.46875,330
265,1696243364866,-0.052001953,-0.9717407,0.03704834,0.203125,1.984375,3.734375,331
266,1696243364906,-0.07739258,-0.958313,0.043884277,0.0625,0.875,2.6875,332
267,1696243364946,-0.067871094,-0.98223877,0.04949951,-2.375,0.671875,1.40625,333
268,1696243364986,-0.055419922,-0.9883423,0.050231934,-1.296875,1.265625,1.765625,334
269,1696243365026,-0.03930664,-0.98760986,0.06341553,0.109375,-1.65625,1.5,335
270,1696243365066,-0.071777344,-0.9920044,0.06439209,-2.3125,-4.734375,0.828125,336
271,1696243365106,-0.08886719,-0.9817505,0.074401855,-5.0,-5.53125,-1.578125,337
272,1696243365146,-0.10864258,-0.9356079,0.062683105,-4.96875,-4.515625,-2.21875,338
273,1696243365186,-0.09448242,-0.8699341,0.07244873,-5.5,-3.84375,-3.3125,339
274,1696243365226,-0.17822266,-0.8513794,0.08026123,-6.359375,-1.046875,-2.515625,340
275,1696243365266,-0.08276367,-0.8088989,0.0770874,-2.859375,-0.359375,-3.390625,341
276,1696243365306,-0.0063476562,-0.7114868,0.06732178,0.34375,-0.890625,3.9375,342
277,1696243365346,-0.123291016,-0.7192993,0.06951904,-7.5,-6.4375,0.625,343
278,1696243365386,-0.053955078,-0.7737427,0.05682373,-0.921875,-7.078125,1.390625,344
279,1696243365426,-0.10864258,-0.80059814,0.07147217,-4.328125,-2.5,4.703125,345
280,1696243365466,-0.12573242,-0.7744751,0.14129639,2.59375,-7.734375,-4.53125,346
281,1696243365506,-0.12060547,-0.7427368,0.03338623,-1.1875,-5.65625,-0.46875,347
282,1696243365546,-0.2084961,-0.94366455,0.08123779,-2.015625,11.671875,-10.640625,348
283,1696243365586,-0.06982422,-2.0,-0.10284424,7.171875,34.453125,-13.890625,349
284,1696243365626,0.4116211,-1.8504028,0.31341553,3.859375,-2.171875,-1.59375,350
285,1696243365666,0.040527344,-1.0567017,-0.15557861,-16.984375,-20.84375,-10.359375,351
286,1696243365706,-0.16503906,-0.90875244,-0.12359619,9.171875,-7.953125,7.671875,352
287,1696243365746,-0.45385742,-0.72857666,0.34613037,17.40625,10.90625,6.40625,353
288,1696243365786,0.05126953,-1.2449341,0.21746826,-13.546875,8.75,-9.453125,354
289,1696243365826,0.12915039,-0.74176025,0.054626465,-24.84375,-3.234375,-7.8125,355
290,1696243365866,-0.09765625,-0.83917236,-0.06524658,-1.34375,8.0625,4.515625,356
291,1696243365906,0.10864258,-1.0481567,0.06829834,9.515625,7.296875,7.296875,357
292,1696243365946,0.12158203,-1.104065,0.21380615,4.421875,-7.875,7.0625,358
293,1696243365986,-0.14331055,-0.97735596,0.113464355,-3.4375,-13.328125,4.828125,359
294,1696243366026,-0.044189453,-0.88653564,0.09124756,2.859375,-7.375,1.03125,360
295,1696243366066,0.012451172,-0.9924927,0.1395874,9.5,-5.0625,4.6875,361
296,1696243366106,-0.092041016,-0.9199829,0.12957764,1.5,-3.90625,2.90625,362
297,1696243366146,-0.11230469,-0.8130493,0.08929443,1.359375,-2.734375,-0.984375,363
298,1696243366186,-0.040283203,-0.84942627,0.101501465,3.765625,3.21875,-3.015625,364
299,1696243366226,-0.028808594,-0.8682251,0.13641357,2.75,3.75,-3.90625,365
300,1696243366266,-0.043945312,-0.78497314,0.11175537,-3.421875,2.4375,-5.96875,366
301,1696243366306,-0.06567383,-0.7163696,0.13397217,-2.453125,3.75,-6.171875,367
302,1696243366346,-0.061767578,-0.65704346,0.049743652,-2.84375,-1.71875,-2.9375,368
303,1696243366386,0.025878906,-0.77056885,0.17181396,-1.328125,-6.84375,-0.578125,369
304,1696243366426,-0.11425781,-0.81378174,0.16156006,-1.890625,-12.171875,-2.078125,370
305,1696243366466,-0.13476562,-0.7185669,0.14349365,2.8125,3.703125,-0.046875,371
306,1696243366506,-0.1459961,-1.1489868,-0.06768799,-7.28125,0.1875,-4.046875,372
307,1696243366546,0.5671387,-1.9273071,-0.16729736,3.234375,-24.03125,11.171875,373
308,1696243366586,-0.045166016,-1.9072876,-0.29815674,5.53125,-37.078125,8.359375,374
309,1696243366626,-0.19067383,-1.5317993,0.23138428,15.953125,-3.671875,13.390625,375
310,1696243366666,-0.16186523,-1.0388794,0.29193115,-3.296875,-10.109375,-13.671875,376
311,1696243366706,-0.35180664,-0.8880005,0.085632324,-11.328125,-9.90625,-3.859375,377
312,1696243366746,-0.15307617,-0.5640259,-0.10455322,12.5625,-3.578125,-5.21875,378
313,1696243366786,0.15112305,-0.6265259,-0.022766113,11.484375,4.0,-2.125,379
314,1696243366826,-0.095703125,-1.0315552,0.038757324,-2.265625,-8.71875,6.640625,380
315,1696243366866,-0.19873047,-1.1209106,-0.0022583008,-4.234375,-6.21875,-1.515625,381
316,1696243366906,-0.12060547,-1.0535278,-0.0491333,4.75,9.875,-0.84375,382
317,1696243366946,-0.014404297,-1.0466919,0.026306152,0.171875,8.375,-2.671875,383
318,1696243366986,-0.0703125,-0.975647,0.020935059,0.21875,1.078125,0.640625,384
319,1696243367026,-0.1472168,-0.9143677,-0.047424316,7.796875,1.0625,1.484375,385
320,1696243367066,-0.09838867,-0.91241455,-0.02130127,9.03125,-1.0,1.265625,386
321,1696243367106,-0.15332031,-0.99224854,-0.012268066,5.453125,-1.953125,1.703125,387
322,1696243367146,-0.16577148,-1.0274048,-0.018615723,3.265625,1.40625,1.828125,388
323,1696243367186,-0.14086914,-1.0056763,-0.008117676,0.09375,3.78125,1.859375,389
324,1696243367226,-0.09790039,-0.99176025,0.015319824,-4.203125,4.765625,1.046875,390
325,1696243367266,-0.057861328,-0.9998169,0.027282715,-5.0625,3.140625,0.953125,391
326,1696243367306,-0.09814453,-0.9944458,0.050476074,-5.3125,2.3125,0.125,392
327,1696243367346,-0.17895508,-0.9612427,0.058044434,-9.28125,2.859375,-1.234375,393
328,1696243367386,-0.19482422,-0.8987427,0.019714355,-9.375,5.765625,-2.21875,394
329,1696243367426,-0.035888672,-0.8574829,0.051696777,-1.578125,9.203125,0.765625,395
330,1696243367466,-0.034179688,-0.7788696,0.06903076,-0.328125,6.46875,2.703125,396
331,1696243367506,-0.10107422,-0.6548462,0.08807373,5.515625,1.890625,4.90625,397
332,1696243367546,-0.06933594,-0.5923462,0.047302246,0.140625,2.015625,6.140625,398
333,1696243367586,-0.10644531,-0.62701416,0.029968262,-1.390625,-0.46875,3.359375,399
334,1696243367626,-0.1159668,-0.7251587,0.054626465,-0.609375,0.171875,3.484375,400
335,1696243367666,-0.11401367,-0.69073486,0.08709717,-3.703125,3.390625,2.9375,401
336,1696243367706,-0.16870117,-0.86920166,-0.0012817383,-9.75,11.671875,0.859375,402
337,1696243367746,-0.33520508,-1.6721802,-0.12237549,12.8125,39.609375,-7.203125,403
338,1696243367786,0.94750977,-2.0,0.23919678,-16.4375,18.765625,22.078125,404
339,1696243367826,0.17480469,-1.3196411,0.20428467,-20.671875,6.9375,-3.015625,405
340,1696243367866,-0.4501953,-0.7979126,-0.23175049,0.109375,-23.796875,-6.171875,406
341,1696243367906,-0.1772461,-0.6824341,0.2506714,32.765625,28.984375,14.828125,407
342,1696243367946,-0.0036621094,-1.0886841,0.18719482,2.578125,31.140625,-0.953125,408
343,1696243367986,0.35717773,-0.9109497,-0.02911377,-10.078125,3.265625,-1.203125,409
344,1696243368026,0.056396484,-0.7061157,0.0067749023,-1.5,0.40625,4.890625,410
345,1696243368066,0.024414062,-1.0222778,0.04876709,2.921875,8.203125,7.359375,411
346,1696243368106,0.14379883,-1.0674438,0.09588623,6.703125,-5.90625,5.1875,412
347,1696243368146,0.06567383,-1.0073853,0.14935303,3.703125,-11.21875,9.03125,413
348,1696243368186,-0.080566406,-0.99468994,0.05999756,-5.375,-12.171875,1.859375,414
349,1696243368226,0.038330078,-1.0420532,0.121276855,5.390625,-7.5625,2.921875,415
350,1696243368266,0.0017089844,-0.9661255,0.06561279,3.8125,-12.0,3.65625,416
351,1696243368306,-0.05517578,-0.89434814,0.04144287,0.71875,-8.296875,1.921875,417
352,1696243368346,0.0087890625,-0.9585571,0.10687256,-0.34375,-2.984375,1.15625,418
353,1696243368386,-0.056640625,-1.0193481,0.15765381,-1.75,-1.8125,-0.234375,419
354,1696243368426,-0.01953125,-0.9644165,0.11785889,-0.375,-2.375,-1.84375,420
355,1696243368466,0.016601562,-0.93585205,0.15716553,-2.65625,-3.21875,-5.859375,421
356,1696243368506,-0.032470703,-0.92803955,0.1161499,-1.890625,-2.25,-6.375,422
357,1696243368546,0.001953125,-0.8677368,0.1149292,-0.671875,-1.578125,-8.265625,423
358,1696243368586,-0.041015625,-0.83917236,0.09490967,-3.140625,-2.515625,-11.09375,424
359,1696243368626,-0.026855469,-0.7456665,0.07366943,-3.03125,-1.984375,-9.671875,425
360,1696243368666,-0.013671875,-0.6494751,0.1227417,2.875,0.421875,-1.140625,426
361,1696243368706,-0.04663086,-0.55792236,0.08294678,4.046875,0.703125,1.53125,427
362,1696243368746,-0.0703125,-0.5913696,0.1539917,9.140625,2.46875,-0.359375,428
363,1696243368786,-0.1850586,-0.8538208,0.18328857,5.359375,9.03125,-4.8125,429
364,1696243368826,-0.030273438,-0.83551025,0.18231201,4.140625,2.234375,-6.359375,430
365,1696243368866,-0.11279297,-1.0266724,-0.10650635,11.171875,2.59375,0.421875,431
366,1696243368906,-0.18701172,-2.0,-0.49664307,-14.265625,13.8125,0.890625,432
367,1696243368946,0.5817871,-2.0,0.018493652,33.453125,-26.484375,20.96875,433
368,1696243368986,-0.34936523,-1.1113892,0.15301514,-20.734375,-25.828125,-4.640625,434
369,1696243369026,-0.1665039,-1.0025024,0.19525146,11.46875,6.71875,-17.234375,435
370,1696243369066,-0.04638672,-0.8543091,-0.11431885,-2.328125,-9.65625,-1.125,436
371,1696243369106,0.08911133,-0.5252075,-0.093566895,7.46875,-8.1875,-6.5,437
372,1696243369146,-0.05102539,-0.7359009,-0.028137207,0.484375,-11.828125,-7.21875,438
373,1696243369186,-0.17260742,-1.0891724,-0.044006348,-6.484375,-13.46875,-0.84375,439
374,1696243369226,-0.21020508,-1.1895142,-0.038879395,-2.96875,2.078125,0.65625,440
375,1696243369266,-0.1171875,-1.0213013,-0.034973145,4.09375,16.078125,0.25,441
376,1696243369306,-0.06298828,-0.9373169,0.001159668,0.578125,12.65625,0.03125,442
377,1696243369346,-0.08886719,-0.9636841,-0.007385254,-0.21875,3.765625,5.609375,443
378,1696243369386,-0.13574219,-0.8987427,0.0119018555,5.96875,7.234375,4.375,444
379,1696243369426,-0.0637207,-0.96417236,0.030944824,5.640625,7.203125,3.78125,445
380,1696243369466,-0.06323242,-0.9885864,0.012390137,-2.9375,1.703125,2.796875,446
381,1696243369506,-0.14746094,-1.0027466,0.018249512,-2.46875,3.796875,2.015625,447
382,1696243369546,-0.07836914,-1.0278931,0.022155762,-0.515625,4.890625,0.828125,448
383,1696243369586,-0.021728516,-0.94073486,0.022399902,-4.796875,-2.390625,0.015625,449
384,1696243369626,-0.11425781,-0.88775635,0.053894043,-8.171875,-7.828125,-0.96875,450
385,1696243369666,-0.2084961,-0.83551025,0.023376465,-9.640625,-7.359375,-3.375,451
386,1696243369706,-0.15551758,-0.73760986,0.011657715,-0.421875,1.9375,-0.578125,452
387,1696243369746,-0.060058594,-0.612854,0.0079956055,1.359375,8.390625,5.5625,453
388,1696243369786,-0.064941406,-0.5635376,-0.055480957,1.90625,7.875,5.96875,454
389,1696243369826,0.071777344,-0.5811157,0.014343262,5.6875,5.171875,10.296875,455
390,1696243369866,-0.057861328,-0.68927,0.13031006,-7.59375,-5.8125,9.5,456
391,1696243369906,-0.18408203,-0.7866821,0.15667725,-3.625,-8.6875,1.921875,457
392,1696243369946,-0.21582031,-0.95025635,0.078308105,-14.375,6.84375,-2.015625,458
393,1696243369986,-0.33374023,-1.8984985,-0.14581299,-16.171875,31.921875,-16.328125,459
394,1696243370026,0.8300781,-1.968811,0.27191162,-3.375,8.828125,7.53125,460
395,1696243370066,-0.03564453,-1.4136353,0.061706543,-7.015625,-12.015625,-8.46875,461
396,1696243370106,-0.45361328,-1.0994263,0.031433105,22.875,0.515625,0.359375,462
397,1696243370146,-0.19946289,-0.88165283,0.14764404,16.125,20.234375,0.0625,463
398,1696243370186,0.20117188,-0.97857666,0.066833496,0.453125,12.734375,5.078125,464
399,1696243370226,0.18920898,-0.5877075,-0.024475098,-7.015625,-4.609375,-4.84375,465
400,1696243370266,-0.0017089844,-0.6592407,-0.026672363,-2.0,-1.5625,6.4375,466
401,1696243370306,0.107421875,-1.0120239,0.051452637,6.484375,3.390625,2.859375,467
402,1696243370346,0.16040039,-1.1516724,0.10662842,0.984375,-7.609375,2.765625,468
403,1696243370386,-0.021972656,-1.0193481,0.07293701,-5.53125,-15.546875,4.328125,469
404,1696243370426,-0.060791016,-0.98565674,0.06732178,0.875,-10.46875,1.953125,470
405,1696243370466,-0.0107421875,-1.0584106,0.094177246,5.171875,-5.625,3.609375,471
406,1696243370506,-0.020507812,-1.0015259,0.10247803,3.671875,-7.515625,1.5625,472
407,1696243370546,-0.03125,-0.93951416,0.090270996,1.4375,-8.75,0.90625,473
408,1696243370586,-0.0703125,-0.9463501,0.105895996,-0.671875,-5.3125,0.046875,474
409,1696243370626,-0.03540039,-0.9429321,0.1293335,0.78125,-3.859375,-1.875,475
410,1696243370666,-0.015380859,-0.93756104,0.13250732,-0.953125,-3.015625,-2.890625,476
411,1696243370706,-0.05493164,-0.89630127,0.12445068,-2.0625,-3.703125,-6.84375,477
412,1696243370746,-0.08081055,-0.7268677,0.1005249,-0.515625,-0.609375,-8.28125,478
413,1696243370786,0.0056152344,-0.5154419,0.044128418,5.140625,-1.0,-4.5625,479
414,1696243370826,0.09448242,-0.9602661,0.1762085,9.34375,-21.734375,-4.1875,556
415,1696243370866,-0.1394043,-1.0132446,0.28729248,-1.25,-22.875,-9.703125,557
416,1696243370906,-0.37768555,-1.0264282,0.14300537,-3.296875,-6.125,-22.84375,558
417,1696243370946,-0.028320312,-1.1536255,-0.03375244,2.609375,15.140625,-22.34375,559
418,1696243370986,0.46875,-1.4614868,-0.19024658,-6.90625,-5.265625,-16.765625,560
419,1696243371026,0.4013672,-1.2605591,-0.031555176,6.625,-4.90625,13.375,561
420,1696243371066,-0.15258789,-0.6807251,-0.1795044,-6.859375,-8.0625,-12.359375,562
421,1696243371106,0.05834961,-0.91729736,-0.022521973,7.859375,-1.03125,-4.984375,563
422,1696243371146,0.23388672,-1.2305298,-0.027893066,6.6875,-8.453125,2.34375,564
423,1696243371186,0.111816406,-0.87506104,-0.015930176,2.796875,-21.046875,-5.40625,565
424,1696243371226,-0.10083008,-0.7588501,-0.027648926,3.09375,-24.921875,-1.796875,566
425,1696243371266,-0.083984375,-0.88531494,-0.024719238,1.25,-17.109375,-1.046875,567
426,1696243371306,-0.05883789,-0.95806885,-0.022277832,-2.640625,-14.328125,-1.65625,568
427,1696243371346,-0.11254883,-0.94488525,0.013122559,-10.734375,-10.796875,-4.296875,569
428,1696243371386,-0.11230469,-0.94659424,0.047058105,-5.40625,-11.4375,-2.34375,570
429,1696243371426,-0.1484375,-0.9446411,0.061706543,-7.671875,-9.40625,-1.6875,571
430,1696243371466,-0.1928711,-0.92022705,0.053894043,-10.234375,-3.046875,-1.734375,572
431,1696243371506,-0.20043945,-0.9373169,0.026062012,-12.71875,6.859375,-2.515625,573
432,1696243371546,-0.11767578,-1.0549927,0.066345215,-11.84375,9.0,0.078125,574
433,1696243371586,-0.06689453,-1.0950317,0.25286865,-13.21875,1.5625,1.140625,575
434,1696243371626,-0.21435547,-1.1072388,0.22039795,-18.390625,-8.9375,-10.21875,576
435,1696243371666,-0.015380859,-1.1377563,-0.0020141602,-3.359375,-3.4375,-9.328125,577
436,1696243371706,0.3786621,-1.2366333,0.020446777,9.75,6.65625,5.40625,578
437,1696243371746,0.24658203,-0.9229126,-0.06964111,8.890625,-29.015625,-4.640625,579
438,1696243371786,-0.057128906,-0.98516846,-0.043762207,0.296875,-18.765625,9.0625,580
439,1696243371826,-0.103515625,-1.0210571,-0.028137207,3.21875,-0.890625,3.828125,581
440,1696243371866,0.060546875,-1.0684204,0.11395264,3.453125,6.703125,10.25,582
441,1696243371906,-0.018554688,-0.9248657,0.11517334,0.28125,-8.765625,0.390625,583
442,1696243371946,-0.05102539,-0.79400635,0.020690918,-1.75,-0.15625,5.640625,584
443,1696243371986,-0.03930664,-0.82159424,0.11663818,6.890625,7.046875,8.6875,585
444,1696243372026,-0.0073242188,-0.9963989,0.13446045,3.0,6.1875,7.921875,586
445,1696243372066,-0.057617188,-0.9319458,0.17645264,-3.671875,8.40625,-0.484375,587
446,1696243372106,-0.107421875,-0.87677,0.09246826,-6.34375,9.953125,-12.140625,588
447,1696243372146,0.091308594,-0.8994751,0.12176514,4.78125,14.90625,-13.03125,589
448,1696243372186,0.14746094,-0.93756104,0.1906128,0.03125,9.4375,-5.75,590
449,1696243372226,-0.2734375,-1.229065,-0.04547119,-34.953125,-5.890625,-18.0,591
450,1696243372266,-0.044189453,-1.3748169,-0.032287598,-4.59375,5.1875,-12.234375,592
451,1696243372306,-0.048583984,-1.0579224,-0.10406494,19.8125,37.28125,6.28125,593
452,1696243372346,0.08203125,-0.68634033,-0.04083252,5.84375,14.09375,-12.515625,594
453,1696243372386,0.16088867,-1.022522,-0.015930176,-4.171875,-3.484375,9.3125,595
454,1696243372426,-0.009277344,-1.1450806,-0.022277832,6.109375,-8.171875,3.765625,596
455,1696243372466,-0.03881836,-0.9924927,0.08416748,15.71875,-2.53125,1.609375,597
456,1696243372506,-0.103515625,-0.9138794,0.024353027,6.625,-9.703125,1.140625,598
457,1696243372546,-0.15673828,-0.8792114,-0.08331299,1.359375,-6.765625,0.4375,599
458,1696243372586,-0.08154297,-0.91534424,-0.050354004,4.5,-0.953125,1.65625,600
459,1696243372626,-0.061035156,-1.0195923,-0.038635254,3.984375,-7.46875,2.875,601
460,1696243372666,-0.063964844,-1.0059204,-0.039611816,-2.0625,-9.09375,0.78125,602
461,1696243372706,-0.07470703,-1.003479,0.005065918,-4.1875,-8.125,2.109375,603
462,1696243372746,-0.15185547,-0.90753174,-6.1035156e-05,-2.359375,-8.296875,0.953125,604
463,1696243372786,-0.10839844,-0.7984009,-0.0491333,-4.390625,-5.578125,1.40625,605
464,1696243372826,-0.04345703,-0.73809814,-0.021057129,1.9375,0.046875,4.453125,606
465,1696243372866,-0.03491211,-0.7246704,0.0045776367,3.0,-2.390625,6.1875,607
466,1696243372906,-0.048095703,-0.72076416,0.020690918,-4.703125,-10.5625,3.34375,608
467,1696243372946,-0.1171875,-0.6760864,0.117614746,0.703125,-11.703125,4.390625,609
468,1696243372986,-0.21240234,-0.5889282,0.030700684,-7.703125,-10.15625,1.203125,610
469,1696243373026,-0.18383789,-0.63604736,0.032409668,-10.484375,-7.53125,-2.890625,611
470,1696243373066,-0.13720703,-0.8406372,0.03778076,-5.59375,2.734375,4.796875,612
471,1696243373106,-0.13745117,-1.1602173,0.026794434,13.15625,31.15625,1.28125,613
472,1696243373146,0.07104492,-2.0,-0.18389893,9.203125,23.078125,9.390625,614
473,1696243373186,0.55566406,-2.0,0.14422607,-19.578125,9.203125,6.109375,615
474,1696243373226,-0.2614746,-1.0491333,-0.14581299,-9.84375,-11.28125,0.53125,616
475,1696243373266,-0.22607422,-0.5286255,0.2411499,22.171875,20.84375,6.921875,617
476,1696243373306,-0.24072266,-0.8010864,0.2033081,7.59375,21.78125,4.8125,618
477,1696243373346,0.37524414,-0.9607544,-0.04522705,-7.859375,19.390625,-0.65625,619
478,1696243373386,0.20996094,-0.81622314,-0.04840088,-3.765625,3.6875,8.671875,620
479,1696243373426,0.07910156,-1.0046997,0.031433105,4.21875,-0.5,5.71875,621
480,1696243373466,0.22851562,-1.0872192,0.13226318,1.21875,-9.890625,12.375,622
481,1696243373506,-0.026367188,-1.0747681,0.15032959,-6.078125,-17.078125,2.921875,623
482,1696243373546,-0.07470703,-0.94244385,0.08416748,-1.671875,-10.34375,-0.53125,624
483,1696243373586,0.05517578,-0.88360596,0.11566162,2.046875,-3.296875,3.421875,625
484,1696243373626,0.068359375,-0.9849243,0.13446045,-1.421875,-6.625,3.046875,626
485,1696243373666,0.015380859,-0.942688,0.14593506,-1.109375,-6.75,-0.359375,627
486,1696243373706,-0.012451172,-0.88482666,0.15301514,0.421875,-3.546875,-0.5625,628
487,1696243373746,-0.03149414,-0.84503174,0.14593506,0.3125,0.453125,-4.9375,629
488,1696243373786,-0.0126953125,-0.8352661,0.1630249,1.421875,2.1875,-7.140625,630
489,1696243373826,-0.04272461,-0.74957275,0.098083496,0.65625,3.578125,-7.796875,631
490,1696243373866,0.0048828125,-0.6218872,-0.028137207,4.25,4.21875,-6.734375,632
491,1696243373906,0.10205078,-0.7761841,0.10467529,8.5,6.515625,-1.140625,633
492,1696243373946,-0.05419922,-0.944397,0.17523193,1.3125,0.09375,-4.9375,634
493,1696243373986,-0.13208008,-0.9837036,0.1749878,-0.984375,2.96875,-9.640625,635
494,1696243374026,-0.140625,-0.8936157,0.15228271,6.0,8.203125,-9.859375,636
495,1696243374066,0.031982422,-0.85894775,0.10858154,4.8125,7.796875,-7.140625,637
496,1696243374106,0.026855469,-0.92193604,-0.015197754,-7.6875,-0.265625,-4.96875,638
497,1696243374146,-0.12133789,-1.3928833,-0.12921143,-18.546875,1.203125,-1.078125,639
498,1696243374186,0.49169922,-2.0,-0.58551025,19.5,-31.703125,0.640625,640
499,1696243374226,0.25390625,-1.6443481,0.03656006,24.875,9.609375,34.90625,641
500,1696243374266,-0.51000977,-1.2588501,0.5116577,-8.0,-14.328125,-21.265625,642
501,1696243374306,-0.2211914,-0.95635986,-0.07476807,-13.40625,-10.421875,-4.84375,643
502,1696243374346,0.10424805,-0.550354,-0.19561768,11.765625,-4.25,-0.1875,644
503,1696243374386,0.25439453,-0.60284424,-0.081604004,13.15625,-10.0625,4.609375,645
504,1696243374426,-0.123291016,-1.048645,-0.06378174,-5.265625,-16.640625,0.109375,646
505,1696243374466,-0.13696289,-1.0730591,-0.022766113,-8.9375,-17.203125,3.1875,647
506,1696243374506,-0.171875,-1.005188,-0.039855957,-2.109375,-1.546875,3.015625,648
507,1696243374546,-0.05834961,-1.0159302,0.008728027,-1.453125,3.671875,-5.71875,649
508,1696243374586,-0.049560547,-1.0564575,0.048034668,-9.75,-7.453125,0.03125,650
509,1696243374626,-0.13183594,-0.9209595,0.02532959,-6.375,-8.625,-0.375,651
510,1696243374666,-0.0625,-0.8740845,0.048034668,-7.59375,-6.390625,-4.75,652
511,1696243374706,-0.08276367,-0.9326782,0.05657959,-7.78125,-11.5,-2.296875,653
512,1696243374746,-0.075683594,-0.82598877,0.032165527,-5.3125,-9.921875,-1.125,654
513,1696243374786,-0.078125,-0.76446533,0.066101074,-6.84375,-9.0625,-2.21875,655
514,1696243374826,-0.11694336,-0.725647,0.10003662,0.0625,-8.6875,-1.015625,656
515,1696243374866,-0.17114258,-0.581604,0.08734131,1.09375,-1.546875,3.015625,657
516,1696243374906,-0.21264648,-0.60357666,0.059020996,-7.359375,0.15625,-3.03125,658
517,1696243374946,-0.15478516,-0.75006104,0.07928467,-4.375,-1.578125,-0.953125,659
518,1696243374986,-0.087402344,-0.7078247,0.05291748,-0.765625,4.53125,4.125,660
519,1696243375026,-0.0234375,-0.75372314,-0.009094238,-2.640625,4.28125,0.15625,661
520,1696243375066,-0.25878906,-1.4910278,0.061462402,6.265625,28.546875,2.078125,662
521,1696243375106,0.82055664,-2.0,0.26409912,17.703125,20.421875,23.796875,663
522,1696243375146,0.19384766,-1.4458618,0.04925537,-28.0,-24.90625,-8.984375,664
523,1696243375186,-0.35009766,-1.2251587,0.105163574,10.578125,7.234375,2.359375,665
524,1696243375226,-0.18457031,-0.94317627,0.26678467,31.265625,15.5,7.578125,666
525,1696243375266,0.07080078,-1.0747681,0.16522217,0.46875,13.015625,2.890625,667
526,1696243375306,0.15234375,-0.6638794,-0.04864502,-5.546875,-3.546875,0.40625,668
527,1696243375346,-0.017089844,-0.55792236,-0.004699707,3.640625,5.375,6.515625,669
528,1696243375386,0.14208984,-0.94903564,0.061462402,9.984375,12.46875,15.109375,670
529,1696243375426,0.16503906,-1.1360474,0.19232178,-0.53125,-2.515625,3.734375,671
530,1696243375466,-0.01928711,-0.9631958,0.11102295,-3.59375,-10.421875,0.71875,672
531,1696243375506,-0.050048828,-0.9273071,0.09320068,4.234375,-1.671875,-0.140625,673
532,1696243375546,0.036376953,-1.0205688,0.14715576,2.0625,-0.015625,-3.0,674
533,1696243375586,0.0007324219,-1.0454712,0.12567139,-0.46875,-5.015625,-7.515625,675
534,1696243375626,-0.05419922,-0.881897,0.0993042,0.796875,0.171875,-8.171875,676
535,1696243375666,0.013183594,-0.8184204,0.06488037,2.5625,1.671875,-9.046875,677
536,1696243375706,0.079589844,-0.7324829,0.03314209,4.65625,-2.96875,-5.015625,678
537,1696243375746,0.05859375,-0.65338135,0.028503418,4.703125,-3.515625,-0.765625,679
538,1696243375786,0.0014648438,-0.66363525,0.07733154,6.421875,-3.34375,0.890625,680
539,1696243375826,-0.023925781,-0.7949829,0.11444092,8.875,-3.53125,-0.53125,681
540,1696243375866,-0.075927734,-0.9295044,0.2062378,1.234375,-5.453125,-5.53125,682
541,1696243375906,-0.13891602,-0.9817505,0.15032959,1.078125,-5.234375,-5.953125,683
542,1696243375946,-0.0126953125,-0.8635864,0.058288574,-3.640625,-4.0625,-3.5,684
543,1696243375986,-0.02319336,-1.1121216,-0.08013916,-10.140625,-12.609375,-5.828125,685
544,1696243376026,0.028320312,-1.8147583,-0.23272705,-15.15625,-20.015625,0.96875,686
545,1696243376066,0.2487793,-2.0,-0.2000122,11.984375,-30.984375,-0.34375,687
546,1696243376106,-0.041503906,-1.4273071,0.27850342,-6.015625,-10.078125,10.09375,688
547,1696243376146,-0.25732422,-0.7317505,0.10760498,-3.171875,-15.078125,-17.921875,689
548,1696243376186,-0.26879883,-0.7852173,-0.03643799,2.546875,-7.65625,-1.09375,690
549,1696243376226,-0.009277344,-0.71588135,-0.15045166,9.8125,0.6875,-3.03125,691
550,1696243376266,0.12011719,-0.78009033,-0.085754395,7.796875,-9.25,-2.46875,692
551,1696243376306,0.08129883,-0.9866333,-0.0032348633,-3.21875,-24.515625,4.09375,693
552,1696243376346,-0.17529297,-1.0947876,0.035827637,-11.15625,-25.296875,0.328125,694
553,1696243376386,-0.23583984,-1.069397,0.06561279,-9.234375,-11.34375,-2.859375,695
554,1696243376426,-0.08935547,-1.0186157,-0.021057129,-9.25,-7.5625,-5.953125,696
555,1696243376466,-0.05810547,-0.9290161,0.09637451,-4.578125,-13.03125,-1.21875,697
556,1696243376506,-0.18139648,-0.90460205,0.101257324,-9.75,-14.53125,0.390625,698
557,1696243376546,-0.20922852,-0.8569946,0.07659912,-12.09375,-10.5,-2.34375,699
558,1696243376586,-0.051757812,-0.86505127,0.08319092,-6.5625,-10.171875,-0.125,700
559,1696243376626,-0.015380859,-0.8213501,0.10272217,-2.96875,-13.96875,3.90625,701
560,1696243376666,-0.099121094,-0.7305298,0.06951904,-1.9375,-17.046875,5.5,702
561,1696243376706,-0.11645508,-0.68951416,0.1005249,0.3125,-13.390625,5.90625,703
562,1696243376746,-0.12402344,-0.8106079,0.15350342,-8.015625,-16.078125,4.59375,704
563,1696243376786,-0.038330078,-0.83135986,0.18475342,2.328125,13.0625,-5.515625,771
564,1696243376826,-0.04663086,-0.93878174,0.21453857,-0.65625,15.5625,-5.265625,772
565,1696243376866,0.055908203,-0.91534424,0.18841553,-4.46875,18.21875,-4.6875,773
566,1696243376906,0.09301758,-0.96417236,0.20892334,-2.484375,13.9375,-1.8125,774
567,1696243376946,-0.022460938,-1.0984497,0.2374878,0.234375,-3.890625,-6.796875,775
568,1696243376986,-0.0146484375,-1.0491333,0.27166748,-0.671875,-3.921875,-4.953125,776
569,1696243377026,-0.057617188,-0.98443604,0.22381592,-6.78125,-6.890625,-8.125,777
570,1696243377066,-0.060791016,-1.1585083,0.08831787,-9.640625,-13.21875,-9.96875,778
571,1696243377106,0.20214844,-1.3269653,-0.11627197,2.296875,-18.0625,0.359375,779
572,1696243377146,0.06347656,-1.4053345,-0.0881958,5.3125,-19.296875,7.453125,780
573,1696243377186,-0.057128906,-1.2195435,0.014831543,14.203125,-1.046875,5.4375,781
574,1696243377226,-0.15185547,-1.0222778,0.061462402,3.84375,-4.421875,1.96875,782
575,1696243377266,0.041748047,-1.0476685,-0.07598877,1.6875,-11.484375,-0.390625,783
576,1696243377306,0.013916016,-0.975647,-0.08673096,9.5625,-6.375,6.140625,784
577,1696243377346,0.0024414062,-0.88482666,-0.073791504,9.671875,-1.828125,-0.375,785
578,1696243377386,0.057617188,-0.95147705,-0.03741455,8.5,-7.3125,2.0,786
579,1696243377426,-0.025634766,-0.9439087,-0.06304932,5.0625,-10.578125,1.765625,787
580,1696243377466,-0.07836914,-0.95928955,-0.051574707,1.9375,-3.875,-2.578125,788
581,1696243377506,-0.052001953,-1.0332642,-0.03277588,0.53125,-2.640625,-3.09375,789
582,1696243377546,-0.021240234,-0.97613525,-0.032287598,-3.859375,-4.3125,-4.453125,790
583,1696243377586,-0.040771484,-0.9968872,0.022644043,-1.3125,-6.75,-4.703125,791
584,1696243377626,-0.08203125,-0.99102783,-0.0025024414,-2.421875,-7.328125,-4.8125,792
585,1696243377666,-0.061035156,-0.9529419,-0.006164551,-2.46875,-7.875,-6.359375,793
586,1696243377706,-0.07519531,-0.9727173,-0.014953613,-6.078125,-9.453125,-5.875,794
587,1696243377746,-0.10180664,-0.9834595,0.0028686523,-5.96875,-10.21875,-5.203125,795
588,1696243377786,-0.091796875,-0.96661377,0.03704834,-8.515625,-12.09375,-5.328125,796
589,1696243377826,-0.15161133,-0.9356079,0.047546387,-8.828125,-12.625,-4.5,797
590,1696243377866,-0.12084961,-0.9116821,0.018005371,-7.765625,-12.15625,-3.125,798
591,1696243377906,-0.10107422,-0.92633057,0.046813965,-9.375,-11.03125,-2.015625,799
592,1696243377946,-0.16601562,-0.944397,0.07318115,-9.546875,-9.015625,-0.546875,800
593,1696243377986,-0.15600586,-0.8411255,0.09295654,-6.0,-2.375,1.015625,801
594,1696243378026,-0.12939453,-0.7588501,0.06732178,-5.671875,0.28125,0.46875,802
595,1696243378066,-0.06933594,-0.7456665,0.120788574,2.640625,-2.0,3.28125,803
596,1696243378106,-0.21728516,-0.7161255,0.12713623,-2.515625,-2.8125,3.375,804
597,1696243378146,-0.23852539,-0.73101807,0.05682373,-6.0,5.90625,-0.5,805
598,1696243378186,-0.15063477,-0.7268677,0.07684326,1.3125,9.828125,5.25,806
599,1696243378226,-0.21704102,-0.7229614,0.10736084,-2.484375,11.125,-1.359375,807
600,1696243378266,-0.21704102,-0.9907837,0.120788574,-3.890625,22.359375,-1.15625,808
601,1696243378306,-0.04345703,-1.5010376,0.0036010742,-2.96875,30.40625,-1.109375,809
602,1696243378346,0.38842773,-2.0,0.20599365,-6.078125,11.796875,11.09375,810
603,1696243378386,0.17797852,-1.4060669,0.41033936,1.75,6.9375,2.546875,811
604,1696243378426,-0.3190918,-0.98028564,-0.12237549,3.390625,-9.203125,1.328125,812
605,1696243378466,-0.12573242,-0.8140259,0.21868896,19.09375,14.453125,4.375,813
606,1696243378506,-0.010253906,-0.92388916,0.16278076,4.390625,8.453125,5.625,814
607,1696243378546,0.106933594,-1.0181274,0.10784912,-5.046875,3.015625,1.328125,815
608,1696243378586,-0.045654297,-0.81329346,0.0368042,-4.84375,-3.03125,5.0,816
609,1696243378626,-0.018066406,-0.954895,0.06561279,3.703125,1.75,1.1875,817
610,1696243378666,0.09277344,-1.1069946,0.17596436,2.921875,0.78125,4.859375,818
611,1696243378706,-0.030761719,-1.1050415,0.15594482,-0.203125,-11.640625,3.0,819
612,1696243378746,-0.095703125,-0.92559814,0.13763428,1.109375,-8.53125,1.34375,820
613,1696243378786,-0.018066406,-0.93341064,0.08270264,-1.078125,-0.59375,-0.390625,821
614,1696243378826,0.03540039,-0.9668579,0.16009521,2.9375,0.3125,1.515625,822
615,1696243378866,-0.03955078,-0.9800415,0.17962646,-1.1875,-1.6875,1.078125,823
616,1696243378906,-0.075683594,-0.8682251,0.13104248,-2.28125,-1.65625,-2.9375,824
617,1696243378946,0.001953125,-0.9116821,0.15228271,1.703125,-0.484375,-3.328125,825
618,1696243378986,0.0036621094,-0.9702759,0.1906128,-0.0625,-2.640625,-5.140625,826
619,1696243379026,-0.019042969,-0.9290161,0.12860107,-2.359375,-5.234375,-7.203125,827
620,1696243379066,-0.08325195,-0.87384033,0.12347412,-0.859375,-7.9375,-9.5625,828
621,1696243379106,-0.055664062,-0.8130493,0.08734131,0.921875,-2.15625,-8.203125,829
622,1696243379146,-0.07421875,-0.81036377,0.109802246,-4.0,0.546875,-4.078125,830
623,1696243379186,-0.15771484,-0.79644775,0.13665771,0.0,0.59375,-3.109375,831
624,1696243379226,-0.057617188,-0.75738525,0.15228271,-0.09375,1.328125,-2.265625,832
625,1696243379266,0.024902344,-0.7913208,0.20672607,0.71875,-4.578125,-1.15625,833
626,1696243379306,-0.08105469,-0.8049927,0.18914795,2.734375,-10.53125,0.234375,834
627,1696243379346,-0.05908203,-0.72613525,0.11566162,7.6875,-8.8125,1.671875,835
628,1696243379386,-0.04736328,-0.9483032,0.04437256,-0.078125,-3.71875,3.96875,836
629,1696243379426,0.025634766,-1.3040161,-0.10845947,-8.28125,-19.890625,0.9375,837
630,1696243379466,-0.14379883,-2.0,-0.28375244,4.375,-18.859375,3.578125,838
631,1696243379506,-0.06225586,-1.576477,0.3397827,12.90625,2.921875,12.453125,839
632,1696243379546,-0.30541992,-1.0742798,0.33343506,-22.6875,-1.125,-15.03125,840
633,1696243379586,-0.26586914,-1.0769653,0.028747559,-13.09375,7.84375,-4.71875,841
634,1696243379626,0.040527344,-0.8897095,0.012390137,16.84375,5.53125,5.0625,842
635,1696243379666,0.037597656,-0.73931885,0.08758545,9.703125,2.515625,-1.703125,843
636,1696243379706,-0.07495117,-0.8809204,0.046569824,5.546875,-6.75,6.328125,844
637,1696243379746,-0.05834961,-0.9133911,0.054138184,5.90625,-5.3125,5.28125,845
638,1696243379786,-0.12426758,-0.97320557,0.028259277,8.1875,-1.65625,4.296875,846
639,1696243379826,-0.09448242,-0.99542236,0.051208496,4.796875,0.890625,2.8125,847
640,1696243379866,-0.0847168,-1.013977,0.05706787,2.3125,-1.875,2.359375,848
641,1696243379906,-0.13696289,-0.99102783,0.089538574,-1.078125,-2.890625,2.984375,849
642,1696243379946,-0.16186523,-1.0007935,0.046569824,-0.078125,-0.6875,2.0,850
643,1696243379986,-0.068847656,-0.96954346,0.08660889,2.25,-0.953125,-0.5,851
644,1696243380026,-0.095214844,-0.9212036,0.05657959,-6.390625,-2.546875,-0.546875,852
645,1696243380066,-0.22680664,-0.8882446,0.086120605,-3.953125,0.5625,-1.25,853
646,1696243380106,-0.10961914,-0.8081665,0.03314209,-2.484375,5.90625,-0.609375,854
647,1696243380146,-0.0075683594,-0.75177,0.034851074,-0.953125,2.5625,0.5,855
648,1696243380186,-0.036621094,-0.6838989,0.050720215,4.0,-1.609375,3.921875,856
649,1696243380226,-0.1105957,-0.598938,0.09661865,-3.328125,-3.46875,5.03125,857
650,1696243380266,-0.16333008,-0.66241455,0.11859131,-6.515625,-9.984375,-2.5,858
651,1696243380306,-0.14160156,-0.7510376,0.121520996,-4.90625,-7.203125,2.59375,859
652,1696243380346,-0.21533203,-0.68878174,0.025817871,-10.171875,-2.3125,-4.015625,860
653,1696243380386,-0.23291016,-1.2122192,0.02947998,0.640625,19.390625,-8.921875,861
654,1696243380426,0.4909668,-2.0,-0.026672363,8.21875,18.9375,9.8125,862
655,1696243380466,0.33007812,-2.0,0.21746826,-4.859375,-8.453125,0.390625,863
656,1696243380506,-0.13208008,-1.1902466,0.12615967,-7.234375,-9.8125,-2.5625,864
657,1696243380546,-0.22729492,-1.0947876,0.116882324,7.578125,1.265625,1.78125,865
658,1696243380586,-0.11816406,-0.9780884,0.21160889,5.875,5.0,-1.25,866
659,1696243380626,0.1315918,-1.0064087,0.13226318,-2.0,1.421875,-3.625,867
660,1696243380666,0.10668945,-0.7151489,-0.0154418945,-2.953125,-6.78125,6.25,868
661,1696243380706,-0.048095703,-0.7473755,0.09515381,0.28125,0.171875,2.734375,869
662,1696243380746,0.014404297,-0.98394775,0.12835693,1.796875,2.625,4.296875,870
663,1696243380786,0.05493164,-1.0037231,0.14227295,-0.484375,0.4375,4.984375,871
664,1696243380826,0.020996094,-0.9595337,0.19500732,1.34375,-2.890625,3.328125,872
665,1696243380866,-0.03540039,-1.0032349,0.17279053,1.390625,-6.015625,0.953125,873
666,1696243380906,-0.057861328,-0.9849243,0.15472412,2.515625,-3.765625,-1.390625,874
667,1696243380946,-0.033447266,-0.95684814,0.15570068,1.59375,-0.453125,-3.140625,875
668,1696243380986,-0.053222656,-0.9260864,0.14886475,-0.296875,0.21875,-5.484375,876
669,1696243381026,-0.051513672,-0.8377075,0.10809326,-1.171875,0.890625,-7.046875,877
670,1696243381066,-0.020507812,-0.7197876,0.07562256,0.796875,4.34375,-3.125,878
671,1696243381106,0.05078125,-0.70147705,0.06707764,1.171875,0.859375,-2.359375,879
672,1696243381146,0.017333984,-0.7234497,0.09051514,2.65625,-4.53125,-2.296875,880
673,1696243381186,-0.032226562,-0.7930298,0.19281006,1.125,-3.421875,0.0,881
674,1696243381226,-0.19165039,-0.8303833,0.23504639,0.359375,-5.9375,-5.328125,882
675,1696243381266,-0.092285156,-0.7866821,0.19647217,4.765625,-2.078125,-4.375,883
676,1696243381306,0.064208984,-0.87579346,0.09173584,-6.90625,-4.5,-0.28125,884
677,1696243381346,0.03881836,-1.1548462,-0.0491333,-15.234375,-17.828125,-4.9375,885
678,1696243381386,0.09741211,-1.795227,-0.12994385,-18.3125,-25.328125,11.5,886
679,1696243381426,-0.12695312,-1.755188,0.047302246,20.640625,-15.546875,3.46875,887
680,1696243381466,-0.3203125,-1.5288696,0.29632568,9.515625,-4.953125,-1.4375,888
681,1696243381506,-0.37768555,-1.1836548,0.23944092,-15.171875,-10.953125,-17.421875,889
682,1696243381546,-0.24536133,-1.0029907,0.020446777,-8.453125,-9.484375,-3.140625,890
683,1696243381586,0.0063476562,-0.6904907,0.0033569336,4.171875,0.453125,-5.15625,891
684,1696243381626,-0.048583984,-0.7124634,0.04852295,5.21875,-5.0625,1.953125,892
685,1696243381666,-0.07446289,-0.8272095,0.012634277,0.640625,-8.546875,3.59375,893
686,1696243381706,-0.0715332,-0.87286377,0.057800293,-1.53125,-5.734375,3.34375,894
687,1696243381746,-0.17553711,-1.0088501,0.042907715,-0.9375,-2.53125,1.09375,895
688,1696243381786,-0.14916992,-1.0252075,0.0758667,-2.203125,-0.421875,-0.6875,896
689,1696243381826,-0.1538086,-0.9841919,0.113708496,-4.515625,-2.765625,0.140625,897
690,1696243381866,-0.20703125,-0.958313,0.13006592,-1.25,-1.625,0.890625,898
691,1696243381906,-0.21069336,-0.9273071,0.121520996,1.328125,3.328125,0.65625,899
692,1696243381946,-0.18261719,-0.9043579,0.09515381,2.0625,8.71875,1.859375,900
693,1696243381986,-0.114746094,-0.85235596,0.06072998,2.9375,10.359375,2.59375,901
694,1696243382026,-0.08911133,-0.8479614,0.07879639,7.109375,11.421875,5.703125,902
695,1696243382066,-0.052734375,-0.7817993,0.08148193,7.5625,4.3125,4.71875,903
696,1696243382106,-0.047851562,-0.7107544,0.11517334,3.515625,-3.1875,6.328125,904
697,1696243382146,-0.19140625,-0.6668091,0.101501465,-3.984375,-6.546875,3.734375,905
698,1696243382186,-0.2788086,-0.71759033,0.09539795,-8.296875,-0.8125,1.234375,906
699,1696243382226,-0.1772461,-0.70635986,0.16156006,-4.71875,8.3125,-0.1875,907
700,1696243382266,-0.12963867,-0.75445557,0.15594482,-4.28125,14.390625,1.875,908
701,1696243382306,-0.2915039,-1.116272,-0.06964111,3.40625,20.765625,-2.265625,909
702,1696243382346,0.47998047,-2.0,-0.15362549,6.734375,25.765625,7.859375,910
703,1696243382386,0.5463867,-1.6685181,0.21087646,-0.890625,7.78125,8.171875,911
704,1696243382426,-0.095947266,-1.2522583,0.074157715,-11.5,-17.0,-2.78125,912
705,1696243382466,-0.32983398,-0.9859009,0.19158936,10.34375,1.90625,7.578125,913
706,1696243382506,-0.31591797,-1.0130005,0.22943115,0.796875,17.546875,-3.3125,914
707,1696243382546,0.2705078,-1.0176392,0.06732178,-2.28125,18.15625,0.171875,915
708,1696243382586,0.21533203,-0.7449341,0.013366699,-0.9375,-2.53125,4.328125,916
709,1696243382626,0.01171875,-0.7542114,0.06829834,-0.734375,0.625,6.890625,917
710,1696243382666,0.018798828,-0.9951782,0.15716553,3.75,2.0,5.046875,918
711,1696243382706,0.11010742,-1.0464478,0.12689209,0.609375,-3.3125,3.890625,919
712,1696243382746,0.036621094,-0.91656494,0.12738037,0.875,-8.1875,1.671875,920
713,1696243382786,-0.07714844,-0.93707275,0.13128662,3.59375,-6.21875,0.25,921
714,1696243382826,-0.013427734,-1.031311,0.20477295,1.15625,-3.765625,-0.78125,922
715,1696243382866,-0.057128906,-0.99957275,0.16253662,-0.828125,-2.84375,-4.015625,923
716,1696243382906,-0.033203125,-0.8706665,0.08734131,3.546875,-0.484375,-5.65625,924
717,1696243382946,0.06201172,-0.9048462,0.101745605,3.296875,-3.515625,-4.765625,925
718,1696243382986,-0.0063476562,-0.9456177,0.0927124,0.671875,-7.796875,-6.21875,926
719,1696243383026,0.0031738281,-0.8765259,0.08392334,1.4375,-5.84375,-7.53125,927
720,1696243383066,-0.04321289,-0.8411255,0.14984131,-0.859375,-6.1875,-7.28125,928
721,1696243383106,-0.11425781,-0.8086548,0.14251709,-2.609375,-5.625,-7.109375,929
722,1696243383146,-0.07495117,-0.76934814,0.15985107,-3.0,-4.640625,-6.640625,930
723,1696243383186,-0.048095703,-0.83062744,0.16107178,-1.359375,-9.46875,-7.296875,931
724,1696243383226,-0.07519531,-0.8274536,0.17010498,0.84375,-10.859375,-6.203125,932
725,1696243383266,-0.1027832,-0.80426025,0.14447021,3.28125,-12.078125,-5.5625,933
726,1696243383306,-0.040283203,-0.7949829,0.05267334,-2.703125,-11.03125,-3.46875,934
727,1696243383346,-0.04296875,-1.0186157,0.043395996,-9.953125,-15.734375,-4.734375,935
728,1696243383386,-0.017089844,-1.3162231,-0.1873169,7.65625,-16.234375,3.875,936
729,1696243383426,-0.21606445,-1.7717896,-0.18682861,-12.609375,-5.515625,1.84375,937
730,1696243383466,0.064453125,-1.7996216,0.12786865,20.125,-21.78125,1.265625,938
731,1696243383506,-0.28344727,-1.2153931,0.3607788,-0.984375,-17.609375,-2.953125,939
732,1696243383546,-0.40356445,-0.97125244,0.11224365,-14.828125,-15.828125,-12.171875,940
733,1696243383586,-0.19140625,-0.85406494,-0.053771973,3.34375,-7.890625,1.015625,941
734,1696243383626,0.010498047,-0.65753174,-0.08428955,9.703125,-0.546875,-1.265625,942
735,1696243383666,-0.14331055,-0.86138916,0.012145996,0.890625,-6.859375,0.265625,943
736,1696243383706,-0.11669922,-0.92681885,0.03656006,-4.046875,-8.109375,-0.09375,944
737,1696243383746,-0.14501953,-0.97198486,0.015563965,-3.984375,-4.53125,1.765625,945
738,1696243383786,-0.24389648,-1.0076294,0.00579834,-1.03125,-0.78125,1.703125,946
739,1696243383826,-0.17993164,-0.9937134,0.07952881,-3.1875,-0.21875,-0.09375,947
740,1696243383866,-0.18774414,-0.95391846,0.11663818,-3.90625,0.03125,3.6875,948
741,1696243383906,-0.2541504,-0.9307251,0.10858154,-1.765625,2.765625,2.6875,949
742,1696243383946,-0.21044922,-0.927063,0.0138549805,-3.28125,9.203125,1.171875,950
743,1696243383986,-0.12719727,-0.8579712,0.07513428,0.828125,11.9375,3.234375,951
744,1696243384026,-0.10522461,-0.8147583,0.06756592,2.90625,11.515625,5.5,952
745,1696243384066,-0.10571289,-0.7803345,0.07318115,1.875,10.015625,7.5,953
746,1696243384106,-0.08691406,-0.7510376,0.105407715,0.328125,6.90625,6.59375,954
747,1696243384146,-0.10986328,-0.7124634,0.11956787,-0.875,2.171875,6.65625,955
748,1696243384186,-0.21704102,-0.7542114,0.113220215,-4.09375,3.203125,6.609375,956
749,1696243384226,-0.18041992,-0.77349854,0.09173584,-5.15625,5.21875,1.484375,957
750,1696243384266,-0.11230469,-0.70880127,0.11468506,-1.375,5.5625,4.484375,958
751,1696243384306,-0.28295898,-1.0322876,0.023620605,-9.0625,22.453125,1.625,959
752,1696243384346,0.13842773,-1.78302,-0.113098145,9.21875,29.34375,5.609375,960
753,1696243384386,0.63378906,-2.0,0.16937256,4.125,18.03125,15.109375,961
754,1696243384426,-0.111572266,-1.2625122,0.12640381,-9.40625,-11.90625,3.875,962
755,1696243384466,-0.22827148,-1.1096802,0.10467529,7.25,4.890625,3.390625,963
756,1696243384506,-0.14233398,-0.8604126,0.2020874,17.515625,17.171875,11.078125,964
757,1696243384546,0.13916016,-0.99346924,0.08319092,1.375,19.96875,3.921875,965
758,1696243384586,0.27490234,-0.7515259,-0.015686035,-3.015625,5.890625,16.046875,966
759,1696243384626,0.029052734,-0.7930298,0.046569824,-0.984375,7.015625,9.203125,967
