# Sensor type: Respeck
# Activity type: Lying down on stomach
# Activity subtype: Laughing
# Subject id: s2104454
# Notes: unprocessed
timestamp,accel_x,accel_y,accel_z,gyro_x,gyro_y,gyro_z
1696248282548,0.53344727,-0.010070801,-0.65167236,-9.265625,10.203125,-3.0625
1696248282588,0.5473633,-0.002746582,-0.74102783,-7.359375,7.21875,-2.5
1696248282630,0.5991211,-0.0071411133,-0.77178955,-5.484375,3.8125,-0.8125
1696248282670,0.54345703,-0.059387207,-0.70513916,-4.71875,-0.3125,-1.78125
1696248282708,0.58081055,-0.058898926,-0.8152466,-5.71875,-0.265625,-2.65625
1696248282749,0.53344727,-0.058410645,-0.78863525,2.0,-2.578125,1.5625
1696248282790,0.62158203,-0.009338379,-0.86016846,8.03125,-1.71875,5.53125
1696248282829,0.6188965,-0.015930176,-0.8460083,8.78125,-1.75,6.359375
1696248282869,0.5202637,-0.03302002,-0.6292114,8.515625,-5.171875,5.71875
1696248282908,0.52075195,0.00579834,-0.65826416,3.53125,-3.28125,2.84375
1696248282949,0.55322266,0.058288574,-0.72052,0.375,-1.28125,0.234375
1696248282969,0.5866699,0.070251465,-0.7695923,-1.171875,-0.171875,-0.921875
1696248283032,0.6298828,0.0368042,-0.8242798,-3.28125,2.890625,-0.265625
1696248283050,0.5834961,-0.0051879883,-0.71173096,-1.5625,1.453125,1.453125
1696248283111,0.5588379,-0.011291504,-0.7527466,-0.828125,3.84375,0.78125
1696248283150,0.5749512,-0.004699707,-0.80181885,1.0,3.234375,1.046875
1696248283169,0.5720215,0.022644043,-0.8479614,0.546875,2.296875,1.171875
1696248283214,0.53344727,-0.003479004,-0.72491455,1.734375,-1.421875,0.671875
1696248283250,0.54589844,0.023864746,-0.7329712,-1.15625,1.96875,-0.796875
1696248283290,0.5437012,0.04486084,-0.73931885,-0.125,-0.765625,-0.28125
1696248283330,0.5854492,0.039489746,-0.83673096,-1.0,-1.78125,-0.28125
1696248283372,0.58447266,0.008728027,-0.7920532,-0.984375,-3.78125,0.140625
1696248283410,0.5517578,0.0040893555,-0.7564087,-2.5625,-1.03125,-1.03125
1696248283450,0.5541992,0.005065918,-0.72003174,-0.953125,-0.984375,-0.34375
1696248283489,0.5966797,0.024353027,-0.8562622,-0.765625,0.09375,-0.234375
1696248283529,0.5678711,0.005065918,-0.74176025,0.1875,-0.625,0.375
1696248283570,0.55029297,0.011169434,-0.71710205,-0.84375,1.328125,-0.625
1696248283609,0.548584,0.022888184,-0.784729,0.46875,0.609375,0.125
1696248283671,0.5554199,0.01751709,-0.802063,1.09375,1.5625,0.75
1696248283688,0.579834,0.0045776367,-0.78253174,0.0,-0.953125,0.734375
1696248283731,0.5666504,0.0060424805,-0.76641846,-0.125,1.8125,0.0625
1696248283770,0.56591797,0.012878418,-0.7966919,0.59375,0.921875,0.40625
1696248283808,0.5842285,0.010681152,-0.82476807,0.71875,-0.34375,0.765625
1696248283872,0.54418945,0.001159668,-0.69854736,0.390625,-0.796875,0.96875
1696248283889,0.5612793,0.016296387,-0.78375244,-0.375,1.03125,-0.140625
1696248283932,0.5422363,0.023864746,-0.77301025,0.375,0.34375,0.109375
1696248283971,0.578125,4.272461E-4,-0.8171997,-0.328125,-1.65625,0.40625
1696248284010,0.55908203,0.005065918,-0.7398071,-1.609375,-1.328125,-0.296875
1696248284051,0.56469727,0.015563965,-0.8064575,-1.03125,-0.890625,-0.46875
1696248284091,0.5505371,0.016540527,-0.7810669,-0.21875,-0.828125,0.15625
1696248284131,0.5661621,0.003112793,-0.7798462,-0.03125,-0.859375,0.5
1696248284191,0.56225586,-0.008361816,-0.7124634,-1.015625,-0.65625,-0.203125
1696248284194,0.57055664,0.01776123,-0.79571533,-0.421875,-0.390625,-0.234375
1696248284229,0.54907227,0.0099487305,-0.7463989,-0.125,0.0,-0.140625
1696248284268,0.5690918,0.012390137,-0.7695923,-0.21875,-0.296875,0.078125
1696248284309,0.5546875,-0.003479004,-0.741272,-0.296875,0.6875,0.078125
1696248284350,0.56884766,0.009460449,-0.7908325,-0.515625,-0.109375,-0.21875
1696248284390,0.5600586,4.272461E-4,-0.7786255,-0.640625,-0.453125,-0.015625
1696248284429,0.56469727,-3.0517578E-4,-0.76763916,-0.515625,-0.671875,0.03125
1696248284470,0.5500488,-0.0010375977,-0.75665283,0.0625,0.03125,0.328125
1696248284512,0.5600586,0.0021362305,-0.78790283,-0.15625,-0.15625,0.1875
1696248284550,0.5578613,-6.1035156E-5,-0.7959595,-0.609375,-0.703125,0.171875
1696248284592,0.5703125,0.0016479492,-0.78570557,-0.4375,-1.0625,0.390625
1696248284630,0.55371094,-0.013977051,-0.7390747,-1.046875,-0.640625,-0.140625
1696248284671,0.5583496,0.0053100586,-0.77130127,0.015625,0.0,0.03125
1696248284710,0.55566406,0.0072631836,-0.7710571,0.734375,0.109375,0.4375
1696248284751,0.5632324,0.005554199,-0.784729,0.09375,0.1875,0.15625
1696248284791,0.5527344,-0.003967285,-0.7647095,0.265625,-0.25,0.421875
1696248284833,0.5588379,4.272461E-4,-0.7703247,-0.359375,0.046875,0.203125
1696248284869,0.55859375,0.0038452148,-0.78375244,-0.96875,0.578125,-0.203125
1696248284909,0.55249023,-0.0012817383,-0.78741455,-1.46875,-0.375,-0.359375
1696248284949,0.56030273,-0.0068969727,-0.7866821,-0.9375,-0.96875,-0.109375
1696248284989,0.55810547,-0.0020141602,-0.77471924,-1.265625,-2.078125,-0.359375
1696248285029,0.5527344,-6.1035156E-5,-0.69781494,-3.828125,-0.265625,-1.40625
1696248285068,0.53881836,-0.0134887695,-0.7539673,-8.65625,5.140625,-2.015625
1696248285110,0.58740234,-0.029846191,-0.88653564,-3.25,1.71875,-0.625
1696248285150,0.5620117,-0.024719238,-0.78619385,-1.15625,0.9375,-0.53125
1696248285190,0.5488281,-0.035949707,-0.80914307,1.9375,-0.65625,1.0
1696248285231,0.5629883,-0.040100098,-0.8543091,3.875,-4.796875,2.09375
1696248285269,0.5625,-0.03375244,-0.7546997,2.296875,-10.453125,1.296875
1696248285310,0.48266602,-0.008850098,-0.6116333,0.078125,-4.640625,0.578125
1696248285349,0.57470703,-0.028625488,-0.7883911,-2.671875,0.40625,-1.15625
1696248285392,0.58325195,-0.032287598,-0.77545166,-1.953125,-0.296875,-0.625
1696248285429,0.5698242,-0.01739502,-0.78497314,0.8125,-1.234375,0.6875
1696248285490,0.62719727,-0.034973145,-0.86187744,-1.140625,-3.078125,0.15625
1696248285509,0.5644531,-0.016418457,-0.71221924,1.984375,-3.53125,1.421875
1696248285550,0.54541016,-0.016418457,-0.6921997,-1.515625,2.90625,-0.515625
1696248285567,0.57177734,-0.023742676,-0.7337036,-3.09375,0.8125,-1.65625
1696248285610,0.55078125,-0.0256958,-0.7583618,-2.96875,3.640625,-0.96875
1696248285651,0.58374023,-0.02545166,-0.7974243,1.71875,0.421875,1.015625
1696248285689,0.5710449,-0.034240723,-0.79156494,3.375,-0.828125,1.46875
1696248285753,0.5969238,-0.011291504,-0.8460083,2.828125,-2.765625,1.671875
1696248285769,0.56640625,-0.026428223,-0.7041626,0.25,-2.625,0.3125
1696248285831,0.51000977,-0.010803223,-0.64801025,-2.875,0.453125,-0.78125
1696248285869,0.5637207,-0.022766113,-0.7905884,-1.421875,-1.1875,-0.796875
1696248285910,0.57543945,-0.010070801,-0.78131104,-0.3125,0.109375,0.109375
1696248285929,0.59106445,-0.020324707,-0.80255127,1.5,-1.171875,0.984375
1696248285970,0.62939453,-0.04522705,-0.83721924,-0.03125,-7.15625,0.59375
1696248286011,0.52197266,-0.025939941,-0.6824341,1.96875,-0.71875,1.375
1696248286051,0.55615234,-0.05718994,-0.81695557,-4.765625,3.265625,-2.453125
1696248286090,0.5563965,-0.03643799,-0.7124634,-6.171875,0.4375,-2.890625
1696248286130,0.5534668,-0.028869629,-0.78375244,2.09375,1.109375,1.03125
1696248286171,0.60717773,-0.020324707,-0.8413696,1.8125,-3.890625,1.28125
1696248286210,0.62353516,-0.034240723,-0.8596802,1.578125,-3.421875,1.234375
1696248286250,0.61450195,-0.038391113,-0.7803345,1.4375,-1.03125,1.5
1696248286312,0.54711914,-0.023986816,-0.73394775,3.75,-5.140625,2.65625
1696248286328,0.5834961,-0.035949707,-0.8279419,-7.578125,0.359375,-2.890625
1696248286371,0.5534668,-0.02130127,-0.7498169,-1.453125,-1.90625,-0.1875
1696248286433,0.6201172,-0.03717041,-0.80670166,1.328125,-3.484375,1.8125
1696248286450,0.57910156,-0.015686035,-0.7161255,3.765625,-6.28125,0.9375
1696248286490,0.5695801,-0.01739502,-0.6790161,1.328125,1.546875,0.546875
1696248286551,0.5812988,-0.03765869,-0.79156494,-0.75,1.5,-0.5625
1696248286570,0.62280273,-0.012512207,-0.81915283,-0.484375,-3.015625,-0.109375
1696248286610,0.5632324,-0.032287598,-0.6555786,0.578125,-2.125,0.78125
1696248286650,0.6035156,-0.04473877,-0.8218384,-0.5625,2.53125,-0.390625
1696248286713,0.57250977,-0.018371582,-0.7542114,0.96875,0.90625,0.484375
1696248286729,0.59521484,-0.033996582,-0.77227783,-0.359375,-1.1875,-0.046875
1696248286791,0.56689453,-0.034484863,-0.708313,-0.328125,0.25,-0.09375
1696248286830,0.59033203,-0.0134887695,-0.79522705,-0.59375,-0.046875,-0.1875
1696248286834,0.58447266,-0.01763916,-0.76397705,-0.5,-0.875,-0.28125
1696248286870,0.59936523,-0.02960205,-0.7835083,0.046875,-1.75,0.1875
1696248286911,0.58813477,-0.034240723,-0.76690674,-0.640625,-3.015625,0.171875
1696248286950,0.5739746,-0.04522705,-0.72906494,-0.359375,-2.4375,0.125
1696248286990,0.6022949,-0.02178955,-0.77130127,-0.921875,-1.984375,-0.203125
1696248287032,0.5852051,-0.034729004,-0.73443604,-0.890625,-3.28125,-0.25
1696248287071,0.7038574,-0.039367676,-0.77911377,4.34375,-8.53125,0.59375
1696248287112,0.579834,-0.042297363,-0.6704712,3.21875,-3.890625,-1.046875
1696248287153,0.5505371,-0.038391113,-0.6380005,-3.171875,0.171875,-1.21875
1696248287189,0.59472656,-0.04156494,-0.74298096,-1.109375,0.84375,-0.421875
1696248287230,0.63256836,-0.023742676,-0.78790283,0.453125,-2.03125,0.375
1696248287270,0.59594727,-0.047912598,-0.66656494,-1.734375,-3.1875,-1.578125
1696248287312,0.59399414,-0.04498291,-0.7437134,0.125,1.734375,-0.234375
1696248287351,0.61987305,-0.029846191,-0.8069458,2.796875,2.625,0.953125
1696248287390,0.6291504,-0.028625488,-0.84552,1.59375,-0.28125,1.140625
1696248287430,0.58251953,-0.042541504,-0.6851196,-1.3125,-1.0,-0.109375
1696248287470,0.55566406,-0.039367676,-0.70098877,-0.640625,2.953125,-0.265625
1696248287514,0.5925293,-0.020812988,-0.7798462,0.796875,2.03125,0.03125
1696248287549,0.5839844,-0.028381348,-0.73394775,-0.40625,-0.484375,-0.3125
1696248287590,0.60717773,-0.044006348,-0.76397705,0.984375,-1.046875,0.75
1696248287629,0.5612793,-0.023986816,-0.68096924,-1.203125,2.421875,-0.671875
1696248287671,0.6052246,-0.038879395,-0.7661743,-0.390625,1.953125,-0.34375
1696248287710,0.57788086,-0.04058838,-0.7337036,1.0,1.640625,0.28125
1696248287772,0.6213379,-0.04058838,-0.7949829,1.515625,0.90625,1.03125
1696248287788,0.55200195,-0.018371582,-0.70758057,-0.203125,1.328125,0.015625
1696248287833,0.5957031,-0.018127441,-0.76031494,1.203125,1.9375,0.671875
1696248287870,0.5751953,-0.031555176,-0.7642212,0.046875,0.03125,0.3125
1696248287910,0.5878906,-0.027648926,-0.75445557,-0.1875,0.109375,0.25
1696248287951,0.5913086,-0.030090332,-0.7913208,0.859375,1.109375,0.5
1696248287994,0.5852051,-0.03277588,-0.7661743,0.484375,-0.46875,0.65625
1696248288030,0.5930176,-0.04058838,-0.75177,0.265625,-1.03125,0.65625
1696248288070,0.5859375,-0.014465332,-0.7324829,0.125,0.109375,0.1875
1696248288112,0.5888672,-0.027893066,-0.7888794,-0.53125,0.09375,0.03125
1696248288128,0.57128906,-0.02520752,-0.7637329,-0.3125,-0.65625,0.125
1696248288173,0.6047363,-0.035705566,-0.8152466,0.734375,-0.703125,0.75
1696248288210,0.56762695,-0.02960205,-0.7341919,0.046875,0.015625,0.0625
1696248288274,0.5895996,-0.030822754,-0.7241821,-1.03125,-1.421875,-0.3125
1696248288313,0.5805664,-0.03302002,-0.7781372,1.515625,-0.28125,0.890625
1696248288329,0.5979004,-0.026672363,-0.79644775,-0.375,-0.953125,-0.09375
1696248288393,0.54541016,-0.020568848,-0.7058716,0.109375,0.25,0.125
1696248288410,0.59277344,-0.012268066,-0.8098755,-0.34375,0.1875,0.015625
1696248288451,0.5637207,-0.023498535,-0.7451782,-0.1875,-0.296875,0.203125
1696248288491,0.5734863,-0.01763916,-0.74346924,0.828125,-0.203125,0.6875
1696248288530,0.58691406,-0.022277832,-0.78009033,0.84375,1.828125,0.625
1696248288570,0.57470703,-0.030822754,-0.7608032,-0.125,1.609375,0.140625
1696248288609,0.5847168,-0.014709473,-0.8057251,0.234375,1.796875,0.625
1696248288650,0.5727539,-0.02178955,-0.7727661,-1.1875,0.140625,-0.171875
1696248288690,0.5632324,-0.027648926,-0.7703247,-1.25,0.109375,-0.046875
1696248288729,0.560791,-0.030090332,-0.74835205,-0.375,0.375,0.078125
1696248288794,0.5720215,-0.023742676,-0.7920532,0.3125,0.78125,0.359375
1696248288810,0.5578613,-0.023010254,-0.7852173,0.4375,-0.328125,0.5
1696248288852,0.5539551,-0.030334473,-0.7576294,0.03125,-1.671875,0.484375
1696248288893,0.5776367,-0.012023926,-0.77423096,-0.46875,0.203125,-0.109375
1696248288930,0.5576172,-0.024719238,-0.7593384,-0.65625,-0.0625,-0.21875
1696248288970,0.5683594,-0.035705566,-0.79034424,-1.0,-0.609375,-0.171875
1696248289011,0.5673828,-0.024719238,-0.7905884,-0.3125,-0.78125,0.328125
1696248289072,0.564209,-0.024230957,-0.75787354,-0.078125,-1.296875,0.59375
1696248289089,0.5698242,-0.024475098,-0.73883057,-0.5,-0.0625,0.0625
1696248289131,0.5595703,-0.016906738,-0.73760986,-3.4375,5.734375,-0.296875
1696248289171,0.5439453,-0.040100098,-0.7893677,-0.328125,5.09375,0.3125
1696248289210,0.54833984,-0.03717041,-0.7698364,0.828125,0.234375,0.5625
1696248289250,0.59643555,-0.027160645,-0.87628174,2.8125,-4.71875,1.75
1696248289290,0.5397949,-0.0154418945,-0.7366333,4.21875,-6.921875,3.078125
1696248289332,0.55493164,-0.0095825195,-0.7234497,-2.375,-1.59375,-0.703125
1696248289392,0.5637207,-0.021057129,-0.77301025,0.03125,-1.25,0.078125
1696248289471,0.5588379,-0.017150879,-0.7788696,-0.15625,-1.359375,0.1875
1696248289474,0.6257324,-0.01739502,-0.86920166,1.140625,-5.828125,1.09375
1696248289477,0.5541992,-0.0037231445,-0.68878174,-0.46875,-6.984375,0.203125
1696248289512,0.5578613,-0.026916504,-0.7258911,-2.515625,2.5,-1.84375
1696248289553,0.6069336,-0.04034424,-0.81866455,-0.578125,-0.5,-0.328125
1696248289593,0.57421875,-0.0154418945,-0.81036377,0.875,0.3125,0.3125
1696248289628,0.5895996,-0.01763916,-0.75323486,-0.015625,-0.3125,0.4375
1696248289671,0.56884766,-0.02154541,-0.7427368,2.015625,2.46875,1.203125
1696248289714,0.57714844,-0.01739502,-0.7659302,-0.109375,3.1875,0.078125
1696248289750,0.56274414,-0.044006348,-0.8320923,-1.125,4.53125,-0.3125
1696248289790,0.56640625,-0.016906738,-0.7859497,1.078125,0.046875,0.6875
1696248289830,0.55566406,-0.032287598,-0.7695923,0.0,-1.171875,0.3125
1696248289871,0.58251953,-0.028137207,-0.7913208,0.953125,-1.890625,0.90625
1696248289910,0.5605469,-0.0178833,-0.7510376,-0.234375,-1.125,0.328125
1696248289954,0.5683594,-0.016174316,-0.76446533,-0.125,-0.5625,0.15625
1696248289990,0.5671387,-0.016418457,-0.77301025,0.1875,-0.828125,0.34375
1696248290031,0.58032227,-0.023010254,-0.79888916,0.171875,-0.875,0.375
1696248290070,0.57177734,-0.017150879,-0.7554321,-0.65625,-2.078125,0.421875
1696248290109,0.5593262,-0.010559082,-0.7305298,-1.703125,0.078125,-0.90625
1696248290150,0.5842285,-0.028625488,-0.7605591,-3.34375,1.96875,-1.734375
1696248290192,0.55444336,-0.026672363,-0.7317505,-6.90625,8.015625,-2.671875
1696248290231,0.5678711,-0.042785645,-0.8167114,0.453125,3.0625,0.4375
1696248290269,0.5554199,-0.046203613,-0.78009033,0.328125,-0.78125,0.4375
1696248290312,0.57910156,-0.03668213,-0.848938,3.171875,-3.25,1.796875
1696248290349,0.5625,-0.03765869,-0.7510376,2.625,-7.703125,2.25
1696248290389,0.52368164,-0.018859863,-0.67926025,0.34375,-1.171875,0.6875
1696248290430,0.57128906,-0.026428223,-0.79473877,-0.46875,0.640625,-0.28125
1696248290470,0.5612793,-0.022521973,-0.7581177,-0.84375,-0.8125,-0.125
1696248290510,0.58740234,-0.018615723,-0.7932739,-0.28125,-1.421875,0.25
1696248290550,0.58203125,-0.035705566,-0.7908325,0.265625,-4.921875,0.625
1696248290590,0.5529785,-0.03302002,-0.6968384,-0.359375,-2.71875,0.1875
1696248290629,0.5751953,-0.027160645,-0.8088989,-2.703125,0.6875,-1.25
1696248290670,0.5476074,-0.033996582,-0.7385864,-0.453125,2.15625,-0.421875
1696248290710,0.56689453,-0.031555176,-0.7595825,1.03125,0.546875,0.625
1696248290751,0.58618164,-0.035461426,-0.80548096,1.53125,-1.59375,1.09375
1696248290771,0.5744629,-0.026428223,-0.7481079,2.375,-3.671875,1.75
1696248290811,0.54541016,-0.021057129,-0.7163696,0.5,0.28125,0.703125
1696248290850,0.5695801,-0.03302002,-0.79571533,-1.828125,-0.046875,-1.0625
1696248290913,0.5686035,-0.043518066,-0.76226807,-3.140625,2.671875,-1.21875
1696248290929,0.57128906,-0.027160645,-0.75738525,1.140625,1.046875,1.046875
1696248290970,0.5859375,-0.042297363,-0.81085205,0.859375,-2.375,0.921875
1696248291033,0.58032227,-0.04058838,-0.7581177,1.53125,-5.015625,1.78125
1696248291049,0.53100586,-0.026428223,-0.6992798,0.6875,0.6875,0.765625
1696248291113,0.5661621,-0.03302002,-0.800354,-0.09375,0.4375,-0.109375
1696248291130,0.57250977,-0.024719238,-0.7698364,-0.203125,-1.171875,0.21875
1696248291195,0.5998535,-0.018859863,-0.80303955,0.859375,-3.703125,0.875
1696248291210,0.5637207,-0.020812988,-0.7192993,0.421875,-2.234375,0.734375
1696248291270,0.5715332,-0.03375244,-0.7490845,-1.828125,0.34375,-0.703125
1696248291288,0.59399414,-0.037902832,-0.8057251,-2.171875,-0.59375,-1.03125
1696248291332,0.56884766,-0.02545166,-0.75177,-1.15625,-0.625,-0.3125
1696248291370,0.5891113,-0.04107666,-0.7827759,0.328125,-1.609375,0.765625
1696248291410,0.5534668,-0.032287598,-0.7090454,0.703125,-2.0625,1.0
1696248291470,0.5632324,-0.031555176,-0.7461548,0.46875,1.828125,0.53125
1696248291489,0.5810547,-0.03277588,-0.74591064,-2.0,5.078125,-1.34375
1696248291530,0.56933594,-0.039855957,-0.8064575,-1.859375,4.3125,-0.875
1696248291589,0.58496094,-0.042785645,-0.7686157,-0.953125,1.671875,-0.203125
1696248291629,0.57592773,-0.042541504,-0.7893677,1.921875,-0.703125,0.984375
1696248291649,0.58154297,-0.03277588,-0.8201294,2.25,-4.03125,1.75
1696248291690,0.57958984,-0.046936035,-0.73687744,-0.03125,-3.046875,0.828125
1696248291730,0.5246582,-0.012512207,-0.6970825,0.421875,-1.046875,0.578125
1696248291769,0.5673828,-0.032043457,-0.77838135,-0.703125,-0.375,-0.390625
1696248291812,0.5810547,-0.023254395,-0.77789307,-0.546875,-1.796875,-0.015625
1696248291851,0.59106445,-0.019348145,-0.79351807,0.578125,-3.1875,0.75
1696248291913,0.6125488,-0.012268066,-0.7984009,0.828125,-10.234375,0.96875
1696248291930,0.5488281,-0.02960205,-0.6956177,-0.0625,-1.015625,1.015625
1696248291991,0.5756836,-0.04425049,-0.7461548,-1.203125,4.453125,-0.859375
1696248292010,0.58203125,-0.035705566,-0.75787354,-1.75,0.65625,-0.953125
1696248292073,0.5673828,-0.023742676,-0.74713135,0.359375,0.6875,0.109375
1696248292089,0.58374023,-0.027404785,-0.7620239,1.921875,0.328125,1.078125
1696248292110,0.6015625,-0.030578613,-0.7776489,0.875,-0.984375,0.6875
1696248292152,0.58569336,-0.028869629,-0.76885986,0.546875,-0.734375,0.375
1696248292190,0.5944824,-0.026184082,-0.7966919,0.375,0.359375,0.046875
1696248292231,0.57006836,-0.018371582,-0.75079346,0.1875,-0.09375,0.359375
1696248292270,0.5793457,-0.022033691,-0.7312622,-0.484375,-0.796875,0.4375
1696248292310,0.56518555,-0.032287598,-0.7305298,0.03125,0.234375,0.3125
1696248292349,0.5588379,-0.023498535,-0.71417236,-1.109375,1.984375,-0.421875
1696248292391,0.56225586,-0.026672363,-0.74224854,-5.921875,7.140625,-2.0
1696248292432,0.57543945,-0.046203613,-0.82891846,-3.0625,5.40625,-0.984375
1696248292472,0.56591797,-0.031799316,-0.7920532,-1.40625,0.71875,-0.328125
1696248292512,0.5654297,-0.050354004,-0.7954712,-0.796875,-0.890625,0.03125
1696248292550,0.5847168,-0.050109863,-0.82598877,0.15625,-0.5,0.53125
1696248292589,0.5546875,-0.043029785,-0.7666626,2.265625,-2.15625,2.21875
1696248292629,0.5720215,-0.038146973,-0.7991333,0.859375,-5.6875,0.984375
1696248292670,0.5390625,-0.04473877,-0.73028564,1.515625,-4.921875,1.1875
1696248292712,0.56884766,-0.035705566,-0.73516846,-1.1875,-0.296875,-0.15625
1696248292751,0.57250977,-0.03253174,-0.7971802,-0.578125,-4.8125,-0.0625
1696248292790,0.62158203,-0.028625488,-0.7883911,0.1875,-7.125,1.0
1696248292832,0.58618164,-0.022033691,-0.7346802,1.03125,-5.828125,1.390625
1696248292871,0.5720215,-0.037902832,-0.7283325,-1.28125,1.75,-0.375
1696248292911,0.595459,-0.029846191,-0.7959595,-1.75,-0.09375,-0.5625
1696248292953,0.5793457,-0.051086426,-0.7168579,-0.25,-2.515625,-0.234375
1696248292990,0.57177734,-0.04083252,-0.6914673,-0.171875,-0.171875,0.03125
1696248293034,0.56274414,-0.0413208,-0.75323486,1.78125,4.4375,0.359375
1696248293074,0.5734863,-0.03326416,-0.7503052,0.03125,2.40625,-0.15625
1696248293112,0.5891113,-0.017150879,-0.7842407,2.234375,2.75,1.078125
1696248293151,0.6062012,-0.037902832,-0.8128052,1.015625,0.59375,0.3125
1696248293193,0.58447266,-0.0335083,-0.78253174,0.625,-0.234375,0.5625
1696248293230,0.56884766,-0.03326416,-0.72735596,-1.046875,-0.671875,-0.015625
1696248293270,0.5644531,-0.035705566,-0.7659302,-1.140625,1.53125,-0.46875
1696248293310,0.5449219,-0.034484863,-0.7515259,0.28125,-0.140625,0.359375
1696248293349,0.578125,-0.031311035,-0.7756958,-0.4375,-0.875,0.1875
1696248293410,0.56396484,-0.031311035,-0.76397705,0.6875,-1.8125,0.640625
1696248293412,0.5822754,-0.02911377,-0.7649536,-0.75,-0.390625,-0.21875
1696248293475,0.5749512,-0.023986816,-0.70758057,-5.5,8.140625,-1.8125
1696248293533,0.5341797,-0.045959473,-0.80914307,-9.328125,6.921875,-2.703125
1696248293537,0.5749512,-0.06451416,-0.817688,-6.1875,5.625,-1.828125
1696248293570,0.54907227,-0.07232666,-0.79400635,-3.265625,4.4375,-0.984375
1696248293630,0.5402832,-0.08062744,-0.8076782,3.59375,-2.1875,2.078125
1696248293670,0.5529785,-0.054504395,-0.8220825,3.5,-4.703125,2.59375
1696248293689,0.5720215,-0.05279541,-0.7798462,0.203125,-4.453125,0.703125
1696248293730,0.52246094,-0.031066895,-0.6970825,-0.296875,-0.234375,-0.03125
1696248293795,0.5749512,-0.050598145,-0.8052368,-3.09375,3.03125,-1.890625
1696248293830,0.5358887,-0.053527832,-0.7744751,-2.203125,3.609375,-1.171875
1696248293850,0.5498047,-0.06866455,-0.8115845,-0.21875,0.25,0.59375
1696248293891,0.55859375,-0.06744385,-0.81085205,1.859375,-2.5625,1.515625
1696248293928,0.5505371,-0.07086182,-0.7764282,0.5625,-4.609375,1.21875
1696248293971,0.5280762,-0.06085205,-0.7439575,-0.375,-1.34375,0.21875
1696248294010,0.5241699,-0.061340332,-0.7842407,-0.53125,2.125,-0.4375
1696248294050,0.56591797,-0.066467285,-0.7893677,-2.046875,2.828125,-1.125
1696248294110,0.5500488,-0.046936035,-0.81695557,-1.640625,1.546875,-0.546875
1696248294130,0.55566406,-0.078186035,-0.81915283,-0.28125,0.171875,0.453125
1696248294170,0.5534668,-0.07525635,-0.8364868,2.46875,-3.96875,1.890625
1696248294211,0.61572266,-0.05645752,-0.7761841,2.09375,-11.296875,1.828125
1696248294251,0.49414062,-0.042297363,-0.6682739,1.453125,-3.53125,1.265625
1696248294312,0.53686523,-0.062805176,-0.71588135,0.203125,2.0625,0.015625
1696248294328,0.5698242,-0.06768799,-0.8076782,-1.203125,-0.953125,-0.78125
1696248294371,0.57373047,-0.03741455,-0.8237915,1.1875,-3.0625,0.9375
1696248294411,0.6020508,-0.053527832,-0.78692627,0.703125,-4.21875,0.625
1696248294450,0.5385742,-0.04522705,-0.7107544,1.46875,-1.515625,1.03125
1696248294491,0.560791,-0.05645752,-0.78326416,-0.46875,3.46875,-0.28125
1696248294531,0.5515137,-0.057678223,-0.75201416,-0.90625,-0.0625,-0.453125
1696248294578,0.55371094,-0.05621338,-0.76519775,0.984375,-1.078125,0.734375
1696248294610,0.5720215,-0.046203613,-0.76812744,0.484375,-0.75,0.578125
1696248294650,0.5456543,-0.04425049,-0.73223877,1.8125,0.296875,0.96875
1696248294712,0.5690918,-0.05255127,-0.8308716,-0.515625,2.796875,-0.421875
1696248294729,0.5539551,-0.04449463,-0.7637329,-1.84375,0.734375,-0.890625
1696248294750,0.55078125,-0.051818848,-0.79693604,-0.34375,-0.578125,0.109375
1696248294791,0.5734863,-0.062805176,-0.77838135,0.046875,-2.328125,0.5
1696248294830,0.55981445,-0.054992676,-0.7510376,0.375,-0.984375,0.875
1696248294871,0.54541016,-0.050598145,-0.74664307,0.203125,0.765625,0.484375
1696248294911,0.55859375,-0.053527832,-0.7788696,-0.359375,-0.375,0.109375
1696248294951,0.5541992,-0.053771973,-0.7859497,-0.15625,-1.421875,0.234375
1696248294990,0.5617676,-0.054748535,-0.7671509,0.703125,-0.703125,0.6875
1696248295029,0.5620117,-0.0413208,-0.76812744,1.1875,0.078125,0.875
1696248295068,0.55615234,-0.049865723,-0.7827759,-0.046875,0.046875,0.15625
1696248295109,0.5559082,-0.054748535,-0.78448486,-0.25,-0.921875,0.109375
1696248295149,0.59594727,-0.054260254,-0.84869385,0.484375,-2.921875,0.671875
1696248295189,0.5427246,-0.04034424,-0.74713135,2.40625,-4.4375,1.59375
1696248295229,0.55615234,-0.04840088,-0.7124634,0.359375,-1.4375,0.703125
1696248295270,0.5593262,-0.035217285,-0.78326416,-0.71875,-1.125,-0.234375
1696248295309,0.607666,-0.03643799,-0.8508911,1.96875,-6.0625,1.125
1696248295350,0.5500488,-0.02520752,-0.7161255,0.53125,-4.40625,1.15625
1696248295390,0.5822754,-0.051330566,-0.7156372,-0.015625,-1.265625,-0.0625
1696248295431,0.5571289,-0.049621582,-0.77178955,1.0,1.875,0.40625
1696248295470,0.576416,-0.050109863,-0.7595825,-0.046875,-0.25,0.109375
1696248295511,0.576416,-0.047668457,-0.75665283,0.3125,-1.28125,0.375
1696248295551,0.5629883,-0.038391113,-0.7136841,1.515625,1.25,0.421875
1696248295591,0.5744629,-0.025939941,-0.77789307,1.6875,3.03125,0.578125
1696248295631,0.5683594,-0.036193848,-0.78375244,0.859375,2.046875,0.359375
1696248295671,0.5991211,-0.032287598,-0.8023071,-0.421875,0.578125,-0.265625
1696248295710,0.5827637,-0.035217285,-0.8081665,0.6875,-1.0625,0.703125
1696248295751,0.55444336,-0.032043457,-0.72491455,-0.390625,-0.875,0.078125
1696248295791,0.56762695,-0.039123535,-0.77008057,-1.171875,-0.25,-0.40625
1696248295829,0.5578613,-0.03302002,-0.7647095,-0.21875,-0.125,0.078125
1696248295869,0.5493164,-0.035949707,-0.75372314,-0.625,0.0625,-0.21875
1696248295911,0.56152344,-0.042541504,-0.756897,-0.4375,0.390625,-0.1875
1696248295951,0.5690918,-0.041809082,-0.7710571,0.4375,-0.734375,0.359375
1696248295991,0.55688477,-0.038879395,-0.7686157,0.421875,-0.015625,0.34375
1696248296030,0.57592773,-0.03765869,-0.7954712,0.1875,0.515625,0.203125
1696248296051,0.56469727,-0.045959473,-0.78375244,0.25,-0.4375,0.4375
1696248296112,0.5617676,-0.03253174,-0.7781372,0.0625,-0.765625,0.5
1696248296127,0.54663086,-0.035217285,-0.7246704,0.453125,0.40625,0.484375
1696248296173,0.5827637,-0.03375244,-0.803772,0.0,-0.40625,0.140625
1696248296234,0.5554199,-0.04034424,-0.75177,0.578125,-1.21875,0.671875
1696248296250,0.65478516,-0.026672363,-0.8609009,0.09375,-6.5,0.65625
1696248296290,0.5595703,-0.028625488,-0.68341064,1.75,-1.359375,1.25
1696248296353,0.54125977,-0.034484863,-0.7542114,-1.015625,2.109375,-0.421875
1696248296371,0.56591797,-0.030090332,-0.7686157,-0.40625,1.390625,-0.140625
1696248296432,0.55029297,-0.024230957,-0.76348877,0.71875,0.515625,0.109375
1696248296449,0.5476074,-0.04107666,-0.7424927,-1.09375,0.515625,-0.375
1696248296493,0.57592773,-0.028381348,-0.8189087,1.390625,1.453125,0.4375
1696248296530,0.5612793,-0.03741455,-0.7505493,0.34375,-0.875,0.25
1696248296571,0.55615234,-0.03277588,-0.81866455,1.578125,0.484375,0.671875
1696248296612,0.56591797,-0.024963379,-0.7715454,1.3125,1.09375,0.6875
1696248296649,0.5427246,-0.0154418945,-0.7620239,0.046875,0.953125,0.140625
1696248296696,0.560791,-0.03643799,-0.7991333,0.078125,-0.21875,0.140625
1696248296730,0.53393555,-0.030578613,-0.74346924,0.65625,-0.09375,0.140625
1696248296790,0.56591797,-0.019348145,-0.78082275,0.421875,-0.40625,0.578125
1696248296811,0.5444336,-0.02130127,-0.75665283,1.5,0.484375,1.109375
1696248296873,0.56640625,-0.027893066,-0.8076782,-0.171875,1.28125,-0.046875
1696248296889,0.5361328,-0.0256958,-0.77423096,0.734375,-0.125,0.328125
1696248296933,0.6027832,-0.039367676,-0.8862915,1.15625,0.546875,0.546875
1696248296990,0.5349121,-0.014465332,-0.7144165,2.171875,-1.34375,1.265625
1696248297010,0.5410156,-0.02911377,-0.7576294,-1.703125,0.9375,-0.65625
1696248297074,0.5427246,-0.0134887695,-0.8062134,-0.421875,0.453125,-0.03125
1696248297091,0.5493164,-0.027648926,-0.77960205,1.6875,0.078125,0.765625
1696248297132,0.57714844,-0.043273926,-0.85479736,0.390625,-0.34375,0.5
1696248297170,0.5253906,-0.007385254,-0.7564087,0.65625,0.015625,0.546875
1696248297234,0.5632324,-0.020568848,-0.79278564,-1.5,-0.515625,-0.53125
1696248297251,0.5332031,-0.018127441,-0.7720337,-1.40625,1.140625,-0.171875
1696248297291,0.5427246,-0.02960205,-0.7749634,-0.078125,2.125,0.203125
1696248297332,0.5488281,-0.0178833,-0.798645,-1.1875,2.890625,0.125
1696248297350,0.5300293,-0.026184082,-0.78326416,-1.484375,2.59375,0.171875
1696248297391,0.5629883,-0.039611816,-0.84381104,-2.015625,0.515625,-0.1875
1696248297430,0.50561523,-0.01763916,-0.75250244,1.0,0.546875,0.8125
1696248297471,0.545166,-0.034484863,-0.7930298,-0.453125,0.34375,0.046875
1696248297534,0.5366211,-0.03643799,-0.80303955,1.234375,-0.34375,0.671875
1696248297548,0.5209961,-0.022766113,-0.75250244,0.84375,-2.15625,0.84375
1696248297593,0.5390625,-0.018859863,-0.80426025,-0.125,-1.15625,0.421875
1696248297631,0.52685547,-0.031311035,-0.74176025,-2.578125,-0.34375,-0.796875
1696248297671,0.53808594,-0.030578613,-0.83843994,-5.09375,3.0625,-0.671875
1696248297709,0.54296875,-0.021057129,-0.8201294,-5.78125,3.59375,-0.6875
1696248297753,0.53393555,-0.051574707,-0.84088135,-1.53125,0.75,-0.34375
1696248297799,0.51586914,-0.051086426,-0.8052368,1.296875,-1.21875,0.78125
1696248297831,0.5361328,-0.043518066,-0.8225708,4.234375,-2.203125,2.21875
1696248297870,0.51708984,-0.034240723,-0.7468872,4.0625,-5.03125,2.078125
1696248297911,0.5317383,-0.023010254,-0.74713135,1.578125,-2.71875,0.71875
1696248297951,0.5373535,-0.02178955,-0.7954712,-1.203125,-0.515625,-0.34375
1696248297990,0.5354004,-0.03692627,-0.79766846,-1.421875,0.375,-0.609375
1696248298031,0.548584,-0.028137207,-0.81500244,-0.25,-0.015625,-0.046875
1696248298071,0.5444336,-0.042053223,-0.83184814,0.265625,-1.921875,0.375
1696248298112,0.53393555,-0.03765869,-0.78375244,1.359375,-3.421875,0.875
1696248298150,0.5114746,-0.027648926,-0.7144165,-0.328125,-0.890625,0.21875
1696248298190,0.5505371,-0.026672363,-0.784729,-1.09375,1.984375,-0.71875
1696248298232,0.4970703,-0.024475098,-0.76690674,-3.609375,5.953125,-1.625
1696248298272,0.532959,-0.030822754,-0.8110962,-1.0,2.671875,0.109375
1696248298311,0.54345703,-0.051086426,-0.84161377,0.359375,-0.578125,0.671875
1696248298351,0.5234375,-0.04473877,-0.8032837,2.421875,-3.5,1.671875
1696248298391,0.52319336,-0.0413208,-0.7896118,0.171875,-3.359375,0.859375
1696248298432,0.51416016,-0.031311035,-0.725647,-1.015625,-0.703125,-0.390625
1696248298470,0.5373535,-0.038146973,-0.7979126,-0.828125,0.640625,-0.46875
1696248298509,0.532959,-0.023010254,-0.7984009,1.65625,-0.296875,0.953125
1696248298551,0.5439453,-0.027893066,-0.80548096,0.59375,-0.8125,0.71875
1696248298590,0.5205078,-0.047180176,-0.7854614,-0.25,-1.703125,0.25
1696248298630,0.5168457,-0.043029785,-0.76885986,-3.140625,0.15625,-1.25
1696248298671,0.52783203,-0.051818848,-0.7698364,-4.609375,3.90625,-2.046875
1696248298689,0.5097656,-0.04156494,-0.798645,-2.140625,1.671875,-0.359375
1696248298730,0.5395508,-0.054504395,-0.84088135,0.984375,0.75,1.0
1696248298770,0.5366211,-0.055725098,-0.82647705,2.9375,-2.28125,1.96875
1696248298811,0.5214844,-0.057434082,-0.82818604,2.390625,-5.078125,1.703125
1696248298850,0.51000977,-0.042297363,-0.74224854,-0.203125,-1.578125,0.15625
1696248298889,0.50634766,-0.03375244,-0.76397705,-2.84375,0.859375,-1.4375
1696248298930,0.54052734,-0.0491333,-0.8032837,-1.546875,0.765625,-0.953125
1696248298971,0.53686523,-0.031555176,-0.80596924,0.828125,-0.265625,0.875
1696248299031,0.5588379,-0.043762207,-0.8477173,0.90625,-1.765625,1.0
1696248299049,0.5275879,-0.058898926,-0.79571533,1.109375,-4.59375,1.078125
1696248299092,0.515625,-0.045959473,-0.73516846,-0.421875,-1.75,0.0
1696248299129,0.50927734,-0.042541504,-0.7468872,-3.21875,2.4375,-1.46875
1696248299190,0.53466797,-0.058166504,-0.7744751,-2.140625,1.46875,-1.203125
1696248299229,0.53027344,-0.02911377,-0.8062134,1.515625,0.15625,0.984375
1696248299250,0.5505371,-0.050109863,-0.83673096,2.453125,-2.828125,1.765625
1696248299311,0.53125,-0.04425049,-0.78497314,1.625,-3.96875,1.484375
1696248299331,0.51904297,-0.031555176,-0.7346802,-1.890625,-0.0625,-0.359375
1696248299370,0.55908203,-0.04522705,-0.8088989,-2.734375,-0.6875,-1.40625
1696248299411,0.51660156,-0.040100098,-0.7727661,-0.6875,0.140625,0.0
1696248299451,0.52685547,-0.050842285,-0.77227783,1.34375,-0.140625,0.96875
1696248299489,0.55078125,-0.039123535,-0.8189087,1.640625,-1.3125,1.203125
1696248299530,0.53930664,-0.043273926,-0.78009033,1.78125,-3.234375,1.25
1696248299573,0.52856445,-0.026916504,-0.75982666,-0.796875,-0.859375,0.015625
1696248299610,0.515625,-0.053771973,-0.77593994,-1.703125,0.21875,-0.984375
1696248299650,0.5473633,-0.054748535,-0.800354,-3.578125,2.078125,-1.59375
1696248299690,0.50805664,-0.042541504,-0.77008057,-0.8125,-0.484375,0.109375
1696248299731,0.54907227,-0.046447754,-0.815979,-0.125,-1.1875,0.5625
1696248299771,0.56933594,-0.070373535,-0.862854,0.984375,-1.0,0.875
1696248299813,0.5822754,-0.05255127,-0.84747314,1.171875,-6.125,1.21875
1696248299851,0.49023438,-0.027893066,-0.7144165,2.984375,-4.625,2.046875
1696248299891,0.513916,-0.043762207,-0.7124634,-3.0625,0.015625,-1.234375
1696248299950,0.5554199,-0.06549072,-0.79278564,-2.375,-2.390625,-1.578125
1696248299992,0.5534668,-0.02520752,-0.7852173,0.4375,-0.84375,0.53125
1696248299994,0.57910156,-0.04815674,-0.81451416,1.78125,-1.96875,1.578125
1696248300031,0.57666016,-0.046936035,-0.8057251,0.59375,-1.421875,1.0
1696248300072,0.51416016,-0.031799316,-0.6987915,-1.828125,1.640625,-0.28125
1696248300109,0.55908203,-0.06109619,-0.77545166,-2.4375,0.5625,-1.328125
1696248300151,0.5324707,-0.057434082,-0.75665283,-1.734375,1.703125,-0.890625
1696248300192,0.5410156,-0.050598145,-0.7822876,2.25,0.265625,1.359375
1696248300229,0.5593262,-0.05596924,-0.81866455,4.484375,-1.5625,2.609375
1696248300270,0.5583496,-0.049865723,-0.798645,1.828125,0.015625,1.28125
1696248300311,0.5366211,-0.043518066,-0.77471924,-1.71875,1.40625,-0.59375
1696248300351,0.55444336,-0.045715332,-0.7871704,-1.625,-0.265625,-1.0
1696248300390,0.54296875,-0.04473877,-0.79278564,0.265625,-0.28125,0.34375
1696248300434,0.5666504,-0.061340332,-0.83843994,2.265625,-3.5625,1.578125
1696248300476,0.54711914,-0.047912598,-0.770813,1.921875,-1.859375,1.6875
1696248300509,0.51049805,-0.038146973,-0.6995239,2.03125,-0.921875,1.5
1696248300550,0.5449219,-0.0491333,-0.802063,-1.703125,1.375,-0.78125
1696248300590,0.56591797,-0.0335083,-0.8206177,-1.25,-3.890625,-0.453125
1696248300631,0.5554199,-0.03765869,-0.77423096,0.78125,-4.046875,0.671875
1696248300670,0.5427246,-0.0335083,-0.72442627,0.375,-1.890625,0.71875
1696248300711,0.5671387,-0.04473877,-0.82037354,-0.78125,0.21875,-0.0625
1696248300752,0.5583496,-0.035461426,-0.7937622,-2.28125,-3.6875,-0.53125
1696248300790,0.59155273,-0.050109863,-0.88067627,-0.28125,-7.71875,0.078125
1696248300832,0.55444336,-0.03765869,-0.7058716,5.546875,-4.4375,3.40625
1696248300870,0.52490234,-0.03253174,-0.61602783,1.34375,1.609375,1.03125
1696248300910,0.55126953,-0.04547119,-0.7637329,-2.28125,2.921875,-1.109375
1696248300951,0.56274414,-0.0335083,-0.7937622,-0.1875,0.234375,-0.234375
1696248300990,0.56933594,-0.040100098,-0.788147,1.40625,-0.421875,0.578125
1696248301033,0.6062012,-0.03741455,-0.7918091,2.296875,-3.515625,1.421875
1696248301070,0.55029297,-0.027648926,-0.71295166,0.046875,0.359375,0.359375
1696248301111,0.5625,-0.032043457,-0.77301025,0.0625,2.828125,0.015625
1696248301152,0.55688477,-0.0335083,-0.7542114,-2.15625,2.40625,-0.796875
1696248301190,0.57128906,-0.038146973,-0.800354,0.421875,0.5,0.265625
1696248301229,0.5588379,-0.04425049,-0.79571533,0.515625,0.328125,0.046875
1696248301269,0.5620117,-0.042053223,-0.7842407,0.71875,-1.0625,0.46875
1696248301310,0.5437012,-0.03277588,-0.7385864,0.21875,-0.578125,0.421875
1696248301329,0.55688477,-0.03253174,-0.767395,0.125,0.9375,0.15625
1696248301371,0.5632324,-0.030822754,-0.7888794,-1.09375,1.1875,-0.1875
1696248301435,0.5529785,-0.04156494,-0.7996216,-2.0,0.8125,-0.109375
1696248301449,0.55615234,-0.046936035,-0.78082275,-0.25,-0.421875,0.1875
1696248301491,0.54956055,-0.03302002,-0.75616455,-0.3125,-0.546875,0.125
1696248301530,0.5515137,-0.04058838,-0.77911377,-0.578125,-0.109375,0.078125
1696248301573,0.56152344,-0.043518066,-0.78253174,-0.1875,0.09375,0.34375
1696248301610,0.560791,-0.038146973,-0.786438,0.921875,-0.671875,0.59375
1696248301652,0.57006836,-0.047424316,-0.7966919,1.140625,-1.78125,0.828125
1696248301692,0.5510254,-0.02960205,-0.7432251,0.15625,-1.328125,0.53125
1696248301732,0.5427246,-0.038879395,-0.7630005,-0.640625,0.71875,-0.109375
1696248301797,0.54248047,-0.04107666,-0.76104736,-1.53125,-0.078125,-0.421875
1696248301809,0.54663086,-0.037902832,-0.7842407,-0.546875,0.21875,-0.21875
1696248301873,0.55908203,-0.04034424,-0.7842407,0.078125,-0.109375,0.03125
1696248301889,0.5527344,-0.03717041,-0.7776489,0.140625,-0.53125,0.46875
1696248301930,0.5576172,-0.041809082,-0.79034424,0.125,-0.015625,0.21875
1696248301971,0.5510254,-0.04498291,-0.76885986,-0.3125,0.5,0.203125
1696248302010,0.54467773,-0.04449463,-0.7385864,-2.375,2.453125,-0.421875
1696248302074,0.52075195,-0.030578613,-0.7815552,-4.921875,2.09375,-1.359375
1696248302089,0.5493164,-0.049621582,-0.7776489,-4.953125,2.46875,-1.703125
1696248302153,0.5378418,-0.057434082,-0.7949829,-4.171875,5.4375,-1.203125
1696248302191,0.5461426,-0.078430176,-0.8284302,-0.5,0.734375,0.328125
1696248302210,0.5383301,-0.06695557,-0.81573486,3.515625,-1.78125,2.0
1696248302249,0.53881836,-0.055725098,-0.7749634,0.859375,-2.296875,1.09375
1696248302291,0.53149414,-0.04864502,-0.7686157,-0.71875,-1.984375,0.0625
1696248302329,0.54663086,-0.055236816,-0.78082275,-2.4375,0.875,-1.15625
1696248302370,0.5361328,-0.05718994,-0.7737427,-1.28125,2.78125,-0.375
1696248302410,0.52905273,-0.055480957,-0.80548096,-1.734375,1.0,0.328125
1696248302451,0.55444336,-0.054260254,-0.8423462,-2.0,-2.859375,-0.171875
1696248302490,0.55981445,-0.09454346,-0.8652954,1.890625,-4.59375,1.296875
1696248302530,0.60253906,-0.0725708,-0.84942627,1.515625,-8.296875,1.265625
1696248302593,0.5097656,-0.04547119,-0.7300415,4.296875,-8.5,3.171875
1696248302633,0.53881836,-0.06402588,-0.7078247,0.921875,-1.671875,0.671875
1696248302637,0.55981445,-0.05230713,-0.75860596,-3.171875,0.28125,-1.53125
1696248302670,0.5280762,-0.042785645,-0.7476196,-0.671875,0.0,-0.34375
1696248302752,0.5895996,-0.054016113,-0.8147583,-0.453125,-1.125,0.140625
1696248302755,0.5708008,-0.04547119,-0.7937622,-0.09375,-1.84375,0.453125
1696248302790,0.5776367,-0.057434082,-0.7805786,0.15625,-0.8125,0.328125
1696248302831,0.5390625,-0.051574707,-0.7180786,-1.53125,2.78125,-0.40625
1696248302871,0.54785156,-0.07696533,-0.74664307,-0.140625,1.265625,-0.46875
1696248302912,0.5341797,-0.059631348,-0.72979736,-1.78125,5.6875,-0.765625
1696248302952,0.53930664,-0.05279541,-0.8027954,0.109375,5.328125,0.75
1696248302991,0.5473633,-0.0569458,-0.7971802,0.671875,3.125,1.234375
1696248303030,0.5612793,-0.058898926,-0.8904419,-1.09375,0.28125,0.359375
1696248303070,0.5698242,-0.06915283,-0.85284424,3.265625,-3.21875,1.765625
1696248303111,0.5480957,-0.06427002,-0.90289307,4.921875,-6.96875,1.84375
1696248303150,0.532959,-0.057922363,-0.69854736,2.125,-8.265625,1.609375
1696248303190,0.50390625,-0.047180176,-0.6567993,0.75,-3.90625,0.828125
1696248303231,0.5576172,-0.042297363,-0.8135376,-1.53125,-1.09375,-0.859375
1696248303270,0.5534668,-0.037902832,-0.753479,-0.203125,-3.9375,-0.0625
1696248303311,0.5895996,-0.035949707,-0.81915283,-0.859375,-5.203125,-0.140625
1696248303352,0.5661621,-0.038879395,-0.7317505,1.46875,-0.875,0.796875
1696248303391,0.6062012,-0.036193848,-0.82769775,-0.796875,-2.140625,-0.265625
1696248303432,0.56689453,-0.06451416,-0.7632446,4.859375,-2.453125,2.046875
1696248303470,0.54296875,-0.04156494,-0.68536377,2.859375,1.828125,1.265625
1696248303512,0.5661621,-0.04058838,-0.7979126,-0.078125,3.359375,-0.46875
1696248303550,0.5432129,-0.02960205,-0.73638916,1.6875,-0.0625,0.859375
1696248303590,0.611084,-0.039367676,-0.8804321,4.765625,-5.921875,1.6875
1696248303633,0.50439453,-0.031799316,-0.612854,1.4375,0.71875,0.375
1696248303670,0.57910156,-0.01739502,-0.83062744,0.359375,1.375,0.421875
1696248303711,0.5751953,-0.027648926,-0.76690674,0.234375,-0.015625,0.28125
1696248303750,0.61328125,-0.031311035,-0.84039307,0.875,-2.21875,0.8125
1696248303793,0.54541016,-0.032043457,-0.68463135,0.375,0.75,0.203125
1696248303830,0.58984375,-0.0178833,-0.82598877,0.328125,0.078125,0.328125
1696248303869,0.5515137,-0.016906738,-0.7546997,-0.9375,-0.484375,-0.34375
1696248303912,0.56762695,-0.038391113,-0.7842407,-0.421875,0.765625,-0.125
1696248303931,0.5534668,-0.030090332,-0.7564087,0.3125,2.453125,0.046875
1696248303970,0.5324707,-0.012023926,-0.74102783,-3.171875,0.671875,-1.34375
1696248304034,0.5710449,-0.054992676,-0.82696533,-1.703125,0.171875,-1.203125
1696248304049,0.58325195,-0.0335083,-0.8062134,1.171875,0.953125,0.328125
1696248304090,0.5842285,-0.040100098,-0.8303833,1.5625,0.84375,0.734375
1696248304132,0.56884766,-0.038635254,-0.7896118,0.59375,-0.953125,0.375
1696248304171,0.5517578,-0.022033691,-0.76934814,1.375,0.109375,0.90625
1696248304233,0.5644531,-0.026672363,-0.7942505,0.375,0.203125,0.625
1696248304250,0.55810547,-0.030334473,-0.77056885,0.46875,-0.328125,0.484375
1696248304291,0.5437012,-0.026428223,-0.75982666,0.21875,-0.03125,0.359375
1696248304331,0.5422363,-0.026428223,-0.75323486,-0.453125,0.03125,0.171875
1696248304371,0.5407715,-0.030578613,-0.7522583,-1.203125,0.625,-0.078125
1696248304410,0.56274414,-0.027648926,-0.81134033,0.46875,0.921875,0.4375
1696248304474,0.5649414,-0.026428223,-0.7913208,0.96875,0.546875,0.65625
1696248304488,0.55737305,-0.034240723,-0.80548096,0.0,0.25,0.328125
1696248304552,0.54907227,-0.031311035,-0.79644775,-0.03125,0.1875,0.234375
1696248304569,0.55029297,-0.026184082,-0.78741455,0.125,-0.03125,0.28125
1696248304612,0.5461426,-0.024719238,-0.7774048,0.015625,0.09375,0.15625
1696248304651,0.54052734,-0.031311035,-0.77301025,-0.359375,0.046875,0.3125
1696248304710,0.5522461,-0.02911377,-0.7944946,-0.734375,0.796875,0.328125
1696248304729,0.54663086,-0.024475098,-0.7727661,-0.75,1.0625,0.171875
1696248304795,0.5427246,-0.026672363,-0.81744385,0.28125,-0.3125,0.5625
1696248304810,0.5427246,-0.026672363,-0.79034424,1.015625,0.546875,0.71875
1696248304872,0.5371094,-0.02960205,-0.7937622,-0.3125,0.421875,0.40625
1696248304913,0.53637695,-0.025939941,-0.7737427,-0.296875,-0.078125,0.21875
1696248304931,0.53515625,-0.026184082,-0.7918091,-0.09375,-0.28125,0.3125
1696248304994,0.5378418,-0.028625488,-0.79034424,0.140625,-0.75,0.34375
1696248305009,0.54003906,-0.03326416,-0.78619385,-0.5,-0.375,0.140625
1696248305071,0.54711914,-0.026184082,-0.79473877,-0.609375,0.140625,0.078125
1696248305090,0.5305176,-0.027893066,-0.7647095,-0.4375,0.1875,0.28125
1696248305153,0.5505371,-0.028869629,-0.78741455,-1.5625,0.375,-0.078125
1696248305172,0.5371094,-0.02960205,-0.7803345,-1.859375,0.96875,0.28125
1696248305210,0.53515625,-0.028381348,-0.7764282,-0.875,2.140625,0.578125
1696248305253,0.5307617,-0.038146973,-0.7984009,-0.671875,2.203125,0.546875
1696248305273,0.5336914,-0.03375244,-0.8040161,-0.90625,1.859375,0.25
1696248305311,0.52075195,-0.035949707,-0.80792236,-1.140625,0.515625,0.015625
1696248305351,0.52368164,-0.039611816,-0.8086548,0.015625,-1.59375,0.15625
1696248305393,0.55126953,-0.04107666,-0.8340454,1.015625,-2.921875,0.6875
1696248305431,0.5317383,-0.042541504,-0.83258057,4.328125,-6.0,1.78125
1696248305473,0.5776367,-0.031799316,-0.8574829,2.4375,-7.625,1.0
1696248305511,0.5036621,-0.029846191,-0.7139282,1.65625,-3.921875,1.25
1696248305551,0.5114746,-0.008605957,-0.6987915,-1.4375,-0.15625,-0.328125
1696248305594,0.5341797,-0.026672363,-0.77227783,-1.5,1.296875,-0.59375
1696248305631,0.5563965,-0.014953613,-0.7810669,-1.1875,0.109375,-0.546875
1696248305671,0.5559082,-0.023498535,-0.80133057,-0.59375,0.640625,0.03125
1696248305710,0.5427246,-0.023986816,-0.7827759,0.5,-0.859375,0.4375
1696248305750,0.5546875,-0.032043457,-0.80596924,-0.03125,-1.203125,0.453125
1696248305790,0.54174805,-0.027893066,-0.7661743,0.078125,-0.640625,0.484375
1696248305829,0.54296875,-0.036193848,-0.7839966,-0.484375,0.640625,0.1875
1696248305869,0.5319824,-0.02178955,-0.7473755,-1.734375,2.75,-0.265625
1696248305911,0.52978516,-0.03277588,-0.7732544,-1.78125,3.4375,-0.4375
1696248305973,0.5383301,-0.032287598,-0.8154907,-1.5,2.09375,-0.3125
1696248305991,0.5354004,-0.03692627,-0.8110962,-1.390625,-0.21875,-0.109375
1696248306029,0.53100586,-0.04034424,-0.80303955,-0.734375,-1.46875,0.0
1696248306070,0.56225586,-0.044006348,-0.82818604,0.6875,-1.875,0.53125
1696248306113,0.55566406,-0.034484863,-0.88604736,4.0,-6.9375,1.65625
1696248306150,0.548584,-0.04083252,-0.76275635,1.71875,-8.96875,0.703125
1696248306192,0.5185547,-0.020568848,-0.7102661,1.5625,-4.296875,1.125
1696248306230,0.55078125,-0.027648926,-0.7739868,-2.03125,-2.734375,-0.59375
1696248306271,0.5456543,-0.025939941,-0.7476196,-1.65625,-1.203125,-0.46875
1696248306314,0.53759766,-0.03326416,-0.7346802,-1.390625,1.5,-0.421875
1696248306353,0.5756836,-0.03375244,-0.7871704,-0.234375,0.421875,0.015625
1696248306391,0.55371094,-0.02911377,-0.78692627,-1.046875,0.546875,-0.09375
1696248306430,0.5498047,-0.03668213,-0.78863525,-0.46875,-0.046875,0.046875
1696248306474,0.5571289,-0.042297363,-0.7817993,-0.15625,-0.71875,0.25
1696248306510,0.54663086,-0.032287598,-0.7671509,-1.625,0.328125,-0.59375
1696248306551,0.52685547,-0.02935791,-0.7268677,-3.53125,5.890625,-1.53125
1696248306572,0.52368164,-0.04864502,-0.8088989,-2.265625,5.390625,-0.390625
1696248306614,0.5522461,-0.04473877,-0.8201294,-0.734375,-0.265625,0.078125
1696248306672,0.55688477,-0.04888916,-0.8167114,-1.9375,-0.828125,0.03125
1696248306710,0.5456543,-0.05718994,-0.7998657,1.125,-1.03125,1.140625
1696248306731,0.5275879,-0.047424316,-0.7749634,1.703125,-1.234375,1.296875
1696248306792,0.5258789,-0.045715332,-0.77178955,0.484375,-1.03125,0.5625
1696248306831,0.5473633,-0.043762207,-0.80914307,-0.671875,-1.015625,-0.15625
1696248306849,0.54174805,-0.042297363,-0.77423096,2.0,-2.359375,0.921875
1696248306891,0.5354004,-0.034484863,-0.7739868,1.390625,-1.953125,1.09375
1696248306932,0.5444336,-0.03717041,-0.7822876,-0.375,-0.96875,0.1875
1696248306971,0.5463867,-0.042297363,-0.78302,-0.84375,-0.28125,0.0
1696248307034,0.54052734,-0.047912598,-0.77471924,-1.265625,1.734375,-0.1875
1696248307055,0.5517578,-0.04815674,-0.7937622,-1.71875,2.390625,-0.65625
1696248307091,0.52978516,-0.04937744,-0.78570557,-1.875,3.5625,-0.546875
1696248307132,0.52783203,-0.04840088,-0.80596924,-0.46875,0.234375,-0.0625
1696248307170,0.5390625,-0.04522705,-0.8008423,-0.421875,-1.796875,0.125
1696248307214,0.54711914,-0.055480957,-0.81451416,-0.6875,-1.3125,0.21875
1696248307251,0.5385742,-0.05328369,-0.7984009,1.96875,-1.984375,1.375
1696248307293,0.5407715,-0.054748535,-0.81744385,2.03125,-6.65625,1.28125
1696248307332,0.5788574,-0.04888916,-0.9417114,4.015625,-15.40625,0.703125
1696248307370,0.57836914,-0.039611816,-0.6860962,7.421875,-8.90625,3.90625
1696248307410,0.5739746,-0.0049438477,-0.7468872,-1.546875,-7.671875,0.453125
1696248307451,0.5336914,-0.018127441,-0.65826416,-0.4375,1.078125,0.0625
1696248307518,0.5566406,-0.023498535,-0.77911377,-1.453125,2.484375,-0.734375
1696248307531,0.5715332,-0.024230957,-0.7793579,-0.1875,0.125,0.046875
1696248307593,0.57543945,-0.043273926,-0.7041626,1.21875,-0.296875,0.3125
1696248307609,0.57250977,-0.013977051,-0.7642212,0.484375,3.0625,-0.078125
1696248307653,0.5944824,-0.028625488,-0.81085205,0.875,0.15625,0.515625
1696248307690,0.5666504,-0.036193848,-0.84991455,4.171875,-3.71875,1.71875
1696248307731,0.5344238,-0.043762207,-0.6643677,1.234375,-2.125,0.4375
1696248307772,0.59472656,-0.022277832,-0.85943604,-0.046875,2.4375,-0.109375
1696248307812,0.55981445,-0.00592041,-0.79400635,0.046875,-1.75,-0.15625
1696248307850,0.5341797,-0.033996582,-0.68829346,-2.53125,-3.703125,-1.359375
1696248307914,0.5822754,-0.034240723,-0.8064575,1.046875,2.96875,0.234375
1696248307917,0.5563965,-0.026672363,-0.73101807,1.296875,-0.171875,0.5
1696248307951,0.57592773,-0.032043457,-0.7588501,-0.296875,-1.265625,0.234375
1696248307989,0.5644531,-0.030090332,-0.7312622,0.8125,2.78125,0.53125
1696248308032,0.5930176,-0.020080566,-0.798645,0.65625,0.015625,0.34375
1696248308071,0.5517578,-0.016906738,-0.7456665,-0.5625,0.0,-0.09375
1696248308111,0.5612793,-0.02154541,-0.74957275,0.78125,1.265625,0.5625
1696248308149,0.55126953,-0.02178955,-0.75445557,0.53125,2.578125,0.453125
1696248308191,0.5644531,-0.026916504,-0.8081665,-0.84375,3.109375,-0.09375
1696248308230,0.5686035,-0.027893066,-0.7871704,0.09375,0.15625,0.453125
1696248308270,0.5859375,-0.017150879,-0.8027954,-0.46875,-0.359375,0.296875
1696248308311,0.55493164,-0.023010254,-0.7756958,0.59375,-1.59375,0.515625
1696248308350,0.546875,-0.012512207,-0.755188,-0.296875,0.21875,0.046875
1696248308392,0.56030273,-0.0134887695,-0.7720337,-0.21875,-0.28125,0.03125
1696248308431,0.54907227,-0.022521973,-0.76031494,0.25,-0.546875,0.328125
1696248308471,0.5625,-0.017150879,-0.803772,0.5,-1.515625,0.34375
1696248308511,0.5805664,-0.027893066,-0.7998657,-1.359375,-4.984375,-0.046875
1696248308551,0.5566406,-0.014465332,-0.7415161,-2.671875,-1.03125,-0.734375
1696248308591,0.5654297,-0.020568848,-0.82818604,1.265625,1.15625,0.5625
1696248308632,0.5522461,-0.024230957,-0.74005127,-0.640625,-2.046875,-0.1875
1696248308673,0.57836914,-0.038879395,-0.78619385,-0.40625,-0.34375,-0.09375
1696248308711,0.59033203,-0.016906738,-0.8255005,-0.34375,-2.515625,0.03125
1696248308753,0.48486328,-0.019592285,-0.68292236,-2.0625,-1.625,-0.90625
1696248308793,0.5515137,-0.03375244,-0.7630005,-1.171875,2.546875,-0.703125
1696248308830,0.5571289,-0.023254395,-0.76153564,0.09375,0.421875,0.125
1696248308870,0.5673828,-0.03302002,-0.77716064,0.09375,-0.6875,-0.03125
1696248308911,0.58984375,-0.04083252,-0.8320923,0.53125,-0.890625,0.609375
1696248308950,0.5307617,-0.023254395,-0.7271118,-1.453125,-1.765625,-0.3125
1696248309011,0.57250977,-0.047180176,-0.7925415,-0.515625,2.953125,-0.53125
1696248309033,0.5546875,-0.019348145,-0.75982666,-0.21875,-0.078125,0.015625
1696248309071,0.58813477,-0.040100098,-0.8010864,-0.25,-0.515625,-0.03125
1696248309110,0.57714844,-0.055236816,-0.8052368,1.984375,-2.5625,1.4375
1696248309152,0.55566406,-0.013000488,-0.7280884,-1.078125,-2.78125,0.140625
1696248309192,0.5649414,-0.036193848,-0.7913208,-1.875,-0.84375,-0.78125
1696248309236,0.54296875,-0.04058838,-0.7217407,-1.0,-1.40625,-0.359375
1696248309250,0.5788574,-0.04058838,-0.7827759,1.125,-0.6875,0.78125
1696248309312,0.56689453,-0.045715332,-0.75616455,0.59375,-1.71875,0.53125
1696248309330,0.56933594,-0.024475098,-0.7515259,1.75,-1.3125,0.984375
1696248309394,0.5788574,-0.03375244,-0.7979126,-0.53125,1.375,-0.453125
1696248309409,0.5583496,-0.035461426,-0.7659302,-0.421875,0.859375,-0.03125
1696248309475,0.59643555,-0.039367676,-0.8093872,-0.4375,0.984375,-0.0625
1696248309493,0.5654297,-0.035461426,-0.75079346,-0.28125,0.453125,0.234375
1696248309533,0.55810547,-0.04058838,-0.7600708,-0.359375,2.65625,0.4375
1696248309571,0.5793457,-0.039855957,-0.81134033,1.5625,1.703125,0.921875
1696248309632,0.5566406,-0.03375244,-0.784729,0.328125,-0.421875,0.734375
1696248309670,0.56225586,-0.034240723,-0.79937744,1.546875,0.0,1.0
1696248309691,0.5720215,-0.027404785,-0.7793579,0.984375,-2.203125,1.1875
1696248309730,0.55444336,-0.022277832,-0.739563,-1.921875,-0.9375,-0.359375
1696248309770,0.56811523,-0.02935791,-0.769104,-1.578125,-0.609375,-0.390625
1696248309833,0.5209961,-0.03765869,-0.6592407,-3.296875,1.234375,-0.796875
1696248309849,0.5529785,-0.02520752,-0.7686157,-5.96875,3.71875,-1.421875
1696248309891,0.59228516,-0.037902832,-0.84503174,0.3125,5.6875,-0.046875
1696248309933,0.5595703,-0.054504395,-0.8052368,-0.3125,0.828125,0.140625
1696248309972,0.5649414,-0.055480957,-0.84210205,2.953125,-3.546875,1.765625
1696248310013,0.54296875,-0.039611816,-0.7527466,3.28125,-9.625,2.265625
1696248310053,0.53808594,-0.016174316,-0.68756104,-0.890625,-4.125,0.234375
1696248310091,0.56689453,-0.032287598,-0.7966919,0.078125,-1.1875,0.140625
1696248310153,0.5510254,-0.031311035,-0.7144165,0.328125,-3.5,0.125
1696248310170,0.60791016,-0.016662598,-0.89630127,-0.46875,-7.25,-0.40625
1696248310230,0.53393555,-0.044006348,-0.5864868,3.296875,-4.09375,1.40625
1696248310250,0.59375,-0.022033691,-0.71710205,-0.03125,1.421875,0.046875
1696248310313,0.5776367,-0.03668213,-0.77423096,-0.140625,4.21875,-0.34375
1696248310329,0.5932617,-0.034484863,-0.8027954,0.921875,1.015625,0.4375
1696248310393,0.5571289,-0.02520752,-0.725647,1.421875,-0.28125,0.65625
1696248310433,0.6105957,-0.024475098,-0.7546997,2.53125,-3.953125,1.46875
1696248310451,0.5563965,-0.003967285,-0.72540283,1.625,-1.53125,1.046875
1696248310492,0.5644531,-0.019836426,-0.72979736,-2.765625,-2.3125,-0.84375
1696248310511,0.57592773,-0.024719238,-0.77471924,-0.484375,0.546875,-0.140625
1696248310550,0.59375,-0.027160645,-0.76153564,1.359375,0.765625,0.890625
1696248310593,0.59155273,-0.029846191,-0.7871704,0.65625,-0.40625,0.40625
1696248310630,0.5358887,-0.029846191,-0.67315674,0.265625,-3.15625,0.5
1696248310673,0.5666504,-0.014709473,-0.80474854,-1.828125,1.9375,-0.953125
1696248310710,0.5720215,-0.022277832,-0.80352783,-0.15625,1.140625,-0.140625
1696248310751,0.53637695,-0.011047363,-0.73272705,0.859375,0.921875,0.5625
1696248310792,0.5847168,-0.024719238,-0.7822876,-0.046875,0.78125,0.015625
1696248310835,0.5510254,-0.034729004,-0.736145,1.921875,0.953125,0.671875
1696248310875,0.5605469,-0.020568848,-0.784729,3.171875,1.703125,1.421875
1696248310911,0.5842285,-0.010314941,-0.8106079,0.921875,1.796875,0.390625
1696248310952,0.5588379,-0.016662598,-0.77789307,-1.078125,1.328125,0.078125
1696248310991,0.56274414,-0.012023926,-0.82476807,-0.359375,1.203125,0.578125
1696248311031,0.57788086,-0.020080566,-0.79766846,-0.0625,-0.828125,0.59375
1696248311074,0.5397949,-0.014709473,-0.7659302,1.390625,-1.890625,1.140625
1696248311112,0.54833984,-0.007385254,-0.76153564,0.6875,-1.328125,0.578125
1696248311151,0.5476074,-0.012512207,-0.7737427,-0.296875,-2.5625,0.375
1696248311192,0.54296875,-0.020812988,-0.7349243,-1.546875,-2.890625,-0.234375
1696248311231,0.5576172,-0.006164551,-0.75079346,-1.078125,-1.25,-0.203125
1696248311271,0.5793457,-0.01373291,-0.73809814,-4.203125,1.6875,-1.546875
1696248311313,0.52490234,-0.026916504,-0.73101807,-9.984375,7.140625,-2.71875
1696248311352,0.5864258,-0.026916504,-0.81744385,-0.65625,3.359375,-0.265625
1696248311391,0.5383301,-0.027893066,-0.79034424,-0.515625,2.890625,-0.078125
1696248311434,0.560791,-0.046936035,-0.83673096,0.078125,-1.359375,0.328125
1696248311471,0.55493164,-0.039123535,-0.8110962,1.96875,-6.28125,1.46875
1696248311511,0.5432129,-0.024230957,-0.72979736,0.21875,-5.796875,0.75
1696248311551,0.5473633,-0.02130127,-0.7774048,-1.328125,-1.125,-0.4375
1696248311593,0.5644531,-0.02911377,-0.77301025,1.171875,-1.640625,0.875
1696248311632,0.5605469,-0.030822754,-0.77789307,3.0,-4.015625,1.765625
1696248311671,0.57666016,-0.031799316,-0.7703247,2.125,-3.6875,1.375
1696248311710,0.57128906,-0.022521973,-0.7329712,-0.25,-1.625,-0.09375
1696248311751,0.54296875,-0.031066895,-0.7481079,-0.234375,3.640625,-0.296875
1696248311793,0.5822754,-0.023254395,-0.7810669,-3.296875,6.71875,-1.65625
1696248311869,0.56469727,-0.012023926,-0.7883911,0.453125,3.609375,0.25
1696248311872,0.53930664,-0.02545166,-0.78985596,0.921875,3.21875,1.203125
1696248311890,0.564209,-0.042053223,-0.819397,2.09375,-1.90625,1.53125
1696248311931,0.5527344,-0.028137207,-0.82159424,1.671875,-5.234375,1.390625
1696248311971,0.5539551,-0.023010254,-0.72003174,-1.140625,-3.65625,-0.03125
1696248312035,0.53222656,-0.008850098,-0.7085571,-1.578125,-0.3125,-0.671875
1696248312071,0.5566406,-0.013000488,-0.829895,-1.1875,1.203125,-0.78125
1696248312091,0.56396484,-0.011047363,-0.8074341,0.953125,1.125,0.671875
1696248312152,0.56640625,-0.01373291,-0.80181885,1.171875,0.59375,0.875
1696248312190,0.5637207,-0.04058838,-0.79156494,-0.703125,-1.53125,0.15625
1696248312210,0.5461426,-0.030822754,-0.75860596,-1.171875,-2.296875,0.03125
1696248312254,0.5078125,-0.04058838,-0.73223877,-0.90625,2.734375,-0.671875
1696248312314,0.5576172,-0.034240723,-0.74176025,-4.0,3.421875,-1.796875
1696248312331,0.55615234,-0.017150879,-0.8464966,0.46875,1.4375,0.265625
1696248312370,0.5539551,-0.018371582,-0.7715454,1.078125,0.125,0.984375
1696248312412,0.5632324,-0.033996582,-0.8184204,1.78125,-2.046875,1.328125
1696248312452,0.5505371,-0.028381348,-0.8064575,0.078125,-5.09375,0.921875
1696248312515,0.5461426,-0.038391113,-0.7402954,-1.953125,-3.328125,-0.390625
1696248312531,0.5234375,-0.031799316,-0.7214966,-1.859375,1.453125,-0.90625
1696248312571,0.5720215,-0.030090332,-0.78131104,-1.625,0.390625,-0.671875
1696248312613,0.5517578,-0.014953613,-0.79400635,1.734375,1.390625,1.390625
1696248312652,0.55810547,-0.016418457,-0.77130127,2.328125,-0.515625,1.484375
1696248312692,0.5571289,-0.034240723,-0.8164673,0.0,-1.078125,0.59375
1696248312733,0.5439453,-0.027160645,-0.74713135,-3.03125,0.65625,-1.328125
1696248312772,0.5551758,-0.042297363,-0.7971802,-6.0625,0.125,-2.390625
1696248312811,0.5300293,-0.0335083,-0.76568604,-0.5,-0.859375,0.1875
1696248312851,0.57543945,-0.032287598,-0.8213501,2.71875,-1.609375,1.796875
1696248312890,0.56640625,-0.04522705,-0.8743286,3.609375,-3.34375,2.28125
1696248312931,0.5637207,-0.038635254,-0.78326416,0.921875,-5.75,0.984375
1696248312975,0.5234375,-0.022033691,-0.7024536,0.09375,-4.171875,0.578125
1696248313011,0.5498047,-0.031799316,-0.7485962,-0.9375,-0.953125,-0.109375
1696248313071,0.54663086,-0.022033691,-0.7319946,-1.0,-1.265625,-0.40625
1696248313091,0.5566406,-0.026672363,-0.75250244,-0.1875,2.15625,0.09375
1696248313174,0.6020508,-0.027160645,-0.83306885,-0.296875,0.609375,0.09375
1696248313178,0.5671387,-0.03692627,-0.8052368,-0.890625,-1.03125,-0.125
1696248313191,0.5749512,-0.039367676,-0.7949829,-2.109375,-2.609375,-0.484375
1696248313232,0.53515625,-0.03277588,-0.7073364,-1.453125,-0.421875,-0.21875
1696248313273,0.5593262,-0.050109863,-0.788147,0.578125,1.75,0.1875
1696248313311,0.5427246,-0.032043457,-0.75909424,0.40625,2.125,0.375
1696248313351,0.55322266,-0.02935791,-0.7788696,1.515625,0.015625,1.140625
1696248313390,0.56518555,-0.0256958,-0.7671509,0.96875,-0.75,0.765625
1696248313431,0.56274414,-0.027648926,-0.7764282,-0.1875,-1.15625,0.03125
1696248313470,0.5578613,-0.03277588,-0.7617798,-1.109375,2.0,-0.484375
1696248313510,0.5500488,-0.036193848,-0.7402954,-1.96875,4.046875,-0.796875
1696248313552,0.5637207,-0.04083252,-0.8206177,-1.453125,3.453125,-0.109375
1696248313593,0.560791,-0.02911377,-0.79571533,-1.03125,1.25,0.03125
1696248313631,0.55078125,-0.055480957,-0.81866455,-1.75,1.0625,-0.171875
1696248313672,0.5449219,-0.05328369,-0.7781372,0.296875,-1.59375,0.796875
1696248313710,0.53881836,-0.037902832,-0.77545166,1.25,-2.140625,1.28125
1696248313750,0.5378418,-0.04425049,-0.7720337,-0.390625,-1.625,0.203125
1696248313790,0.5439453,-0.039367676,-0.76690674,-0.234375,0.140625,-0.03125
1696248313831,0.5390625,-0.039611816,-0.78619385,0.046875,1.46875,0.171875
1696248313873,0.55566406,-0.04058838,-0.8040161,-0.390625,0.3125,0.265625
1696248313930,0.53271484,-0.032287598,-0.77349854,-0.40625,0.71875,0.203125
1696248313951,0.5397949,-0.037902832,-0.77056885,-1.296875,0.875,0.03125
1696248313990,0.53149414,-0.04815674,-0.7703247,-1.390625,0.765625,-0.03125
1696248314030,0.53466797,-0.05230713,-0.79571533,-0.90625,0.359375,0.078125
1696248314070,0.532959,-0.049621582,-0.7883911,1.03125,-0.59375,0.921875
1696248314110,0.5437012,-0.042053223,-0.8128052,1.9375,-1.734375,1.28125
1696248314150,0.5476074,-0.0413208,-0.7998657,0.5,-2.0,0.796875
1696248314197,0.5402832,-0.031311035,-0.79034424,0.6875,-1.953125,0.75
1696248314233,0.53222656,-0.03375244,-0.7749634,-0.28125,-1.078125,0.328125
1696248314272,0.54907227,-0.038635254,-0.80059814,-0.609375,-0.5,0.234375
1696248314311,0.53759766,-0.03692627,-0.7678833,0.3125,-0.453125,0.4375
1696248314351,0.5415039,-0.042297363,-0.77911377,0.0625,0.90625,0.21875
1696248314390,0.5480957,-0.03717041,-0.78912354,-0.40625,0.828125,-0.109375
1696248314433,0.5378418,-0.040100098,-0.7835083,-0.40625,1.078125,0.015625
1696248314471,0.5332031,-0.039855957,-0.7932739,-0.609375,2.25,0.21875
1696248314492,0.53515625,-0.03741455,-0.79473877,-0.484375,1.6875,0.59375
1696248314531,0.53686523,-0.039855957,-0.8345337,-0.5,0.03125,0.296875
1696248314571,0.54663086,-0.05255127,-0.8413696,2.5,-3.390625,0.96875
1696248314610,0.57177734,-0.028381348,-0.90802,4.578125,-9.15625,1.359375
1696248314651,0.6218262,-0.047668457,-0.878479,2.421875,-18.421875,0.953125
1696248314693,0.5046387,-0.017150879,-0.61187744,1.796875,-12.5,1.75
1696248314732,0.5554199,-0.015197754,-0.65093994,-4.234375,-2.40625,-1.359375
1696248314770,0.5703125,-0.05255127,-0.75494385,-2.84375,0.984375,-1.546875
1696248314811,0.564209,-0.032043457,-0.7468872,-1.078125,0.25,-0.4375
1696248314851,0.6032715,-0.040100098,-0.8323364,-1.5625,-3.265625,-0.859375
1696248314889,0.5773926,-0.03741455,-0.7420044,-0.203125,-1.890625,-0.28125
1696248314932,0.579834,-0.035217285,-0.7385864,2.078125,-0.078125,0.9375
1696248314971,0.5830078,-0.04425049,-0.77593994,1.109375,2.078125,0.5
1696248315012,0.5827637,-0.027160645,-0.73101807,1.484375,-0.640625,0.875
1696248315052,0.5644531,-0.03741455,-0.70513916,1.09375,1.046875,0.765625
1696248315092,0.57836914,-0.034484863,-0.77423096,-0.40625,0.34375,-0.046875
1696248315132,0.5739746,-0.042785645,-0.75079346,0.921875,-0.234375,0.28125
1696248315171,0.5739746,-0.04034424,-0.7803345,0.890625,-2.46875,0.265625
1696248315211,0.62280273,-0.02520752,-0.8460083,2.96875,-3.046875,0.078125
1696248315252,0.5422363,-0.024719238,-0.6499634,0.84375,-4.390625,0.3125
1696248315294,0.58813477,-0.01373291,-0.8076782,2.234375,5.140625,0.75
1696248315330,0.57299805,-0.009338379,-0.7139282,1.171875,-0.765625,0.734375
1696248315374,0.6010742,-0.027893066,-0.800354,0.03125,-2.53125,-0.140625
1696248315412,0.5354004,-0.026428223,-0.66485596,0.109375,1.21875,-0.1875
1696248315451,0.6052246,-0.014221191,-0.80792236,2.71875,0.53125,1.015625
1696248315490,0.56103516,-0.02911377,-0.7144165,0.109375,-1.9375,0.234375
1696248315532,0.60717773,-0.018127441,-0.80059814,-0.71875,-0.78125,-0.09375
1696248315571,0.6047363,-0.027648926,-0.8286743,3.703125,0.984375,1.828125
1696248315613,0.5620117,-0.010803223,-0.73394775,-0.171875,-1.34375,0.140625
1696248315652,0.5827637,-0.027893066,-0.7600708,-1.15625,-0.296875,-0.296875
1696248315690,0.5673828,-0.016662598,-0.7197876,0.328125,1.046875,0.46875
1696248315732,0.57128906,-0.018859863,-0.74102783,-0.28125,1.25,0.25
1696248315794,0.5661621,-0.012023926,-0.76641846,2.0625,1.828125,0.828125
1696248315811,0.5834961,-0.015197754,-0.7798462,0.890625,0.53125,0.75
1696248315853,0.59033203,-0.01739502,-0.80181885,0.328125,-0.453125,0.46875
1696248315869,0.5895996,-0.0076293945,-0.77911377,-0.78125,-0.4375,0.046875
1696248315910,0.5715332,-0.016418457,-0.7683716,-0.984375,-0.53125,0.09375
1696248315951,0.5625,-0.020812988,-0.7571411,-0.6875,-0.078125,-0.03125
1696248315990,0.5671387,-0.019592285,-0.76104736,-0.703125,-0.6875,0.015625
1696248316031,0.5673828,-0.015197754,-0.74713135,-0.390625,-2.359375,0.078125
1696248316071,0.5605469,-0.02178955,-0.74957275,0.140625,-1.328125,0.296875
1696248316110,0.57666016,-0.020568848,-0.7564087,-0.984375,-0.328125,-0.03125
1696248316150,0.55566406,-0.013000488,-0.70440674,-4.328125,4.28125,-0.734375
1696248316193,0.58813477,-0.0068969727,-0.85162354,-2.796875,4.875,-1.015625
1696248316233,0.5427246,-0.042053223,-0.79644775,-1.546875,1.921875,-0.5
1696248316273,0.5578613,-0.032287598,-0.7974243,0.21875,-0.203125,0.4375
1696248316313,0.55249023,-0.034973145,-0.7761841,1.1875,-1.78125,0.96875
1696248316352,0.5534668,-0.021057129,-0.7788696,1.453125,-4.15625,1.15625
1696248316392,0.5895996,-0.020080566,-0.76934814,2.640625,-8.328125,1.421875
1696248316432,0.5270996,-0.015930176,-0.7119751,2.15625,-2.453125,1.5
1696248316470,0.592041,-0.012023926,-0.8345337,-0.265625,-1.640625,0.21875
1696248316513,0.59643555,-0.0256958,-0.76397705,0.234375,-7.484375,0.375
1696248316551,0.57006836,-0.020568848,-0.71099854,-0.21875,-4.328125,0.359375
1696248316594,0.5539551,-0.020568848,-0.6983032,-1.296875,3.578125,-0.84375
1696248316630,0.5864258,-0.0068969727,-0.7769165,1.640625,-0.359375,0.859375
1696248316672,0.6035156,-0.019836426,-0.8562622,-0.546875,-1.5,0.09375
1696248316713,0.592041,-0.00982666,-0.7522583,0.125,-2.203125,0.34375
1696248316760,0.5629883,-0.022521973,-0.71539307,0.28125,1.265625,0.234375
1696248316790,0.57714844,-0.013977051,-0.77178955,-0.21875,0.3125,-0.234375
1696248316830,0.5666504,-0.014221191,-0.7576294,-0.5,-0.484375,-0.046875
1696248316873,0.5974121,-0.02520752,-0.753479,1.03125,-0.1875,0.5
1696248316912,0.57373047,-0.037902832,-0.74176025,-0.6875,2.484375,-0.328125
1696248316951,0.5854492,-0.0178833,-0.77960205,0.296875,-0.34375,0.140625
1696248316990,0.5529785,-0.020080566,-0.7371216,0.828125,0.5,0.46875
1696248317031,0.5932617,-0.015197754,-0.784729,1.75,0.984375,1.015625
1696248317073,0.5822754,-0.01739502,-0.7810669,0.65625,0.09375,0.40625
1696248317110,0.5683594,-0.010559082,-0.7769165,0.546875,-0.375,0.46875
1696248317131,0.5671387,-0.0015258789,-0.76153564,0.671875,-0.421875,0.328125
1696248317173,0.57592773,-0.008850098,-0.80352783,0.15625,-0.265625,0.171875
1696248317211,0.5517578,-0.011779785,-0.70025635,-1.453125,-2.34375,-0.46875
1696248317250,0.5942383,-0.029846191,-0.80792236,-1.515625,-0.65625,-0.421875
1696248317293,0.5686035,-0.012512207,-0.736145,0.3125,1.015625,0.3125
1696248317333,0.5576172,-0.016662598,-0.7324829,0.0,3.0625,0.25
1696248317371,0.56640625,-0.019348145,-0.76763916,-1.65625,2.15625,-0.390625
1696248317413,0.57788086,-0.026916504,-0.7876587,-1.9375,1.3125,-0.5
1696248317449,0.5527344,-0.026916504,-0.7659302,-1.40625,1.90625,-0.078125
1696248317491,0.55322266,-0.023986816,-0.7583618,-0.59375,0.375,0.421875
1696248317533,0.5620117,-0.015930176,-0.8088989,-2.0,1.546875,0.140625
1696248317572,0.5439453,-0.028381348,-0.7649536,-2.28125,1.75,0.078125
1696248317614,0.53564453,-0.031555176,-0.7305298,-2.671875,2.84375,0.0
1696248317650,0.5673828,-0.040100098,-0.82647705,-2.453125,2.921875,-0.40625
1696248317693,0.54907227,-0.04156494,-0.78375244,-1.9375,2.390625,-0.59375
1696248317730,0.5410156,-0.04058838,-0.80303955,-1.609375,0.75,0.015625
1696248317793,0.5732422,-0.049865723,-0.8665161,1.359375,-1.671875,0.546875
1696248317814,0.5629883,-0.03643799,-0.82476807,2.234375,-3.6875,1.265625
1696248317850,0.54833984,-0.027893066,-0.78497314,3.078125,-6.984375,1.703125
1696248317889,0.5432129,-0.03326416,-0.723938,1.09375,-4.90625,0.8125
1696248317929,0.5354004,-0.03326416,-0.7456665,-0.265625,-4.59375,0.09375
1696248317970,0.5761719,-0.016174316,-0.8184204,1.171875,-5.359375,0.5
1696248318011,0.5793457,-0.03277588,-0.7280884,1.375,-7.765625,0.84375
1696248318063,0.55126953,-0.014953613,-0.66412354,1.765625,-1.78125,0.875
1696248318093,0.57666016,-0.032287598,-0.77349854,0.453125,1.59375,0.375
1696248318172,0.5812988,-0.013000488,-0.7842407,-1.296875,-0.015625,-0.1875
1696248318174,0.57910156,-0.036193848,-0.74468994,-1.0625,-0.71875,-0.328125
1696248318212,0.5522461,-0.028625488,-0.7149048,0.703125,2.609375,0.171875
1696248318253,0.5600586,-0.018859863,-0.7659302,0.515625,1.703125,0.265625
1696248318292,0.56396484,-0.024719238,-0.75909424,-1.625,3.359375,-0.640625
1696248318351,0.5776367,-0.026916504,-0.7842407,0.953125,1.53125,0.734375
1696248318371,0.5773926,-0.034973145,-0.78912354,-0.421875,-0.078125,0.34375
1696248318410,0.5673828,-0.022277832,-0.7737427,-0.109375,-0.203125,0.375
1696248318429,0.5583496,-0.023986816,-0.76641846,-0.71875,0.171875,0.0625
1696248318469,0.54663086,-0.025939941,-0.75079346,-1.1875,0.875,0.125
1696248318510,0.5505371,-0.027160645,-0.7671509,-0.609375,0.375,0.109375
1696248318550,0.5649414,-0.028625488,-0.7920532,0.03125,-0.453125,0.296875
1696248318590,0.57543945,-0.028381348,-0.8086548,0.53125,-1.25,0.484375
1696248318634,0.55615234,-0.023742676,-0.7359009,0.859375,-2.0625,0.609375
1696248318671,0.57470703,-0.023010254,-0.78985596,0.578125,-0.640625,0.6875
1696248318712,0.56347656,-0.02154541,-0.77178955,0.15625,-0.046875,0.328125
1696248318750,0.5551758,-0.02178955,-0.767395,-0.125,-0.265625,0.21875
1696248318791,0.54711914,-0.030578613,-0.75738525,0.28125,-0.203125,0.3125
1696248318830,0.5563965,-0.02520752,-0.7625122,-0.4375,-0.546875,0.078125
1696248318871,0.5559082,-0.023010254,-0.7839966,-0.796875,-0.21875,0.0
1696248318910,0.56689453,-0.027893066,-0.7752075,-0.5625,0.0625,-0.046875
1696248318952,0.5644531,-0.029846191,-0.7810669,-0.625,0.171875,0.203125
1696248318992,0.5566406,-0.033996582,-0.7781372,-1.296875,0.328125,-0.21875
1696248319054,0.55029297,-0.027648926,-0.7620239,-1.84375,-0.03125,-0.234375
1696248319091,0.53393555,-0.034729004,-0.7305298,-2.46875,1.609375,-0.3125
1696248319133,0.5422363,-0.038879395,-0.7493286,-2.703125,2.65625,-0.140625
1696248319151,0.55859375,-0.038879395,-0.80548096,-1.84375,2.671875,-0.09375
1696248319190,0.5534668,-0.044006348,-0.7842407,-1.875,4.34375,-0.09375
1696248319233,0.5395508,-0.046691895,-0.7942505,-1.0625,4.78125,0.4375
1696248319292,0.5422363,-0.042541504,-0.8032837,-0.328125,4.21875,0.734375
1696248319310,0.5397949,-0.041809082,-0.82037354,0.1875,2.890625,0.75
1696248319352,0.52978516,-0.047668457,-0.8101196,0.28125,1.328125,0.765625
1696248319412,0.5163574,-0.03717041,-0.7942505,0.09375,1.109375,0.71875
1696248319432,0.5263672,-0.042785645,-0.79644775,-0.265625,0.375,0.453125
1696248319473,0.5136719,-0.042297363,-0.79156494,-0.328125,-0.265625,0.515625
1696248319534,0.5187988,-0.04156494,-0.788147,-0.1875,0.21875,0.4375
1696248319550,0.52734375,-0.049621582,-0.81988525,-0.421875,-0.265625,0.25
1696248319614,0.53027344,-0.038391113,-0.81036377,-0.296875,-1.0625,0.359375
1696248319630,0.5239258,-0.043518066,-0.800354,-0.171875,-2.25,0.390625
1696248319672,0.5258789,-0.045715332,-0.8101196,2.921875,-4.296875,1.546875
1696248319711,0.54589844,-0.04107666,-0.8303833,3.6875,-7.046875,1.4375
1696248319751,0.5908203,-0.025939941,-0.92193604,4.71875,-13.9375,0.859375
1696248319769,0.576416,-0.030334473,-0.7805786,2.421875,-16.40625,0.546875
1696248319811,0.5031738,-0.008117676,-0.6692505,2.21875,-7.40625,0.578125
1696248319852,0.5793457,-0.022277832,-0.7542114,-2.390625,-1.015625,-0.9375
1696248319891,0.5632324,-0.031311035,-0.7559204,-1.3125,-1.078125,-0.4375
1696248319931,0.5517578,-0.02178955,-0.68096924,0.71875,-0.4375,0.140625
1696248319972,0.58154297,-0.014709473,-0.7485962,-0.984375,1.1875,-0.609375
1696248320011,0.5930176,-0.03643799,-0.7918091,-0.9375,1.203125,-0.140625
1696248320054,0.56884766,-0.032287598,-0.74468994,-0.671875,0.859375,0.078125
1696248320093,0.5722656,-0.031311035,-0.7678833,0.171875,1.21875,0.28125
1696248320132,0.56640625,-0.027160645,-0.7595825,0.03125,0.859375,0.203125
1696248320173,0.55200195,-0.028869629,-0.74542236,-1.46875,1.0625,-0.140625
1696248320212,0.55322266,-0.029846191,-0.74176025,-1.5,1.9375,0.03125
1696248320250,0.56030273,-0.025939941,-0.7593384,-1.390625,2.640625,-0.0625
1696248320290,0.560791,-0.042297363,-0.7793579,-2.484375,3.53125,-0.515625
1696248320331,0.5629883,-0.04156494,-0.7732544,-1.4375,3.109375,0.078125
1696248320372,0.56103516,-0.043762207,-0.7996216,-1.203125,4.6875,0.203125
1696248320412,0.55688477,-0.039855957,-0.79034424,0.40625,4.34375,0.53125
1696248320452,0.5476074,-0.039611816,-0.8255005,-0.359375,3.78125,0.15625
1696248320491,0.5336914,-0.038879395,-0.784729,0.015625,2.078125,0.46875
1696248320530,0.52734375,-0.03692627,-0.786438,-0.625,1.640625,0.453125
1696248320570,0.5266113,-0.03765869,-0.78985596,-0.390625,1.03125,0.359375
1696248320611,0.5324707,-0.0413208,-0.7896118,-0.109375,0.4375,0.453125
1696248320650,0.52905273,-0.042785645,-0.81036377,-0.15625,-0.0625,0.453125
1696248320690,0.5358887,-0.03643799,-0.8027954,0.46875,-0.609375,0.484375
1696248320730,0.52490234,-0.044006348,-0.7852173,0.96875,-0.484375,0.796875
1696248320770,0.5217285,-0.042541504,-0.79351807,0.234375,-0.515625,0.515625
1696248320812,0.5324707,-0.035949707,-0.80963135,-0.5,-0.171875,0.1875
1696248320852,0.5192871,-0.039367676,-0.7744751,0.28125,-0.078125,0.296875
1696248320891,0.5266113,-0.042785645,-0.80596924,-0.25,-0.234375,0.203125
1696248320931,0.5266113,-0.03692627,-0.79229736,-0.234375,-0.296875,0.234375
1696248320971,0.5197754,-0.043762207,-0.7893677,-0.25,-0.578125,0.171875
1696248321013,0.5283203,-0.039611816,-0.7930298,-0.078125,-0.28125,0.09375
1696248321074,0.5246582,-0.042785645,-0.80792236,-0.125,-0.296875,0.15625
1696248321090,0.5288086,-0.04425049,-0.7883911,0.203125,-0.203125,0.3125
1696248321110,0.52197266,-0.03692627,-0.7932739,0.25,-0.28125,0.4375
1696248321152,0.529541,-0.04058838,-0.7954712,-0.15625,-0.75,0.40625
1696248321192,0.52075195,-0.038391113,-0.7949829,-0.0625,-0.5,0.296875
1696248321233,0.52124023,-0.038879395,-0.80133057,0.109375,-0.84375,0.234375
1696248321272,0.5292969,-0.036193848,-0.8128052,-0.296875,-0.03125,-0.125
1696248321312,0.5344238,-0.038146973,-0.8101196,0.234375,-0.609375,0.234375
1696248321374,0.5180664,-0.03765869,-0.77667236,-0.03125,-0.640625,0.265625
1696248321392,0.5317383,-0.039367676,-0.7937622,-0.21875,-0.296875,0.015625
1696248321453,0.5292969,-0.04083252,-0.802063,-0.515625,-0.53125,0.03125
1696248321470,0.5229492,-0.043518066,-0.7866821,0.140625,-0.84375,0.328125
1696248321533,0.5292969,-0.04449463,-0.80181885,0.15625,-1.125,0.375
1696248321549,0.5266113,-0.039855957,-0.8008423,0.4375,-1.03125,0.390625
1696248321592,0.52734375,-0.038879395,-0.79107666,-0.03125,-0.78125,0.4375
1696248321632,0.5251465,-0.04156494,-0.79034424,0.28125,-0.671875,0.3125
1696248321674,0.52856445,-0.04034424,-0.7998657,-0.03125,-0.59375,0.265625
1696248321735,0.53149414,-0.03717041,-0.7871704,0.265625,-0.90625,0.265625
1696248321750,0.5275879,-0.03277588,-0.79766846,0.0,-0.78125,0.328125
1696248321812,0.52905273,-0.03765869,-0.79156494,0.703125,-1.203125,0.5
1696248321830,0.5270996,-0.031066895,-0.7764282,0.09375,-1.09375,0.375
1696248321872,0.53686523,-0.042053223,-0.8052368,-0.5,-0.3125,0.1875
1696248321933,0.5336914,-0.038146973,-0.7859497,0.140625,-0.4375,0.078125
1696248321974,0.5292969,-0.038146973,-0.7974243,-0.5625,-0.09375,0.0625
1696248321991,0.529541,-0.03717041,-0.7930298,-0.09375,-0.546875,0.140625
1696248322030,0.53222656,-0.038879395,-0.7815552,0.25,-0.65625,0.375
1696248322070,0.532959,-0.038146973,-0.7966919,0.21875,-0.359375,0.25
1696248322112,0.53564453,-0.041809082,-0.7954712,0.203125,-1.078125,0.375
1696248322173,0.53393555,-0.047180176,-0.7932739,0.25,-0.828125,0.34375
1696248322191,0.5266113,-0.039367676,-0.78790283,0.59375,-0.875,0.65625
1696248322232,0.5410156,-0.03643799,-0.7918091,0.234375,-1.25,0.453125
1696248322293,0.5358887,-0.02935791,-0.79034424,0.625,-1.171875,0.5
1696248322311,0.5407715,-0.032287598,-0.8086548,-0.296875,-1.3125,0.21875
1696248322350,0.5275879,-0.031066895,-0.7984009,-0.25,-1.796875,0.234375
1696248322391,0.53149414,-0.027404785,-0.76812744,-0.1875,-1.453125,0.125
1696248322410,0.54418945,-0.031311035,-0.80059814,0.734375,-2.296875,0.59375
1696248322451,0.55615234,-0.026916504,-0.8257446,2.03125,-3.515625,1.15625
1696248322492,0.55615234,-0.023742676,-0.8543091,4.125,-10.515625,1.328125
1696248322532,0.57250977,-0.0076293945,-0.7866821,4.28125,-15.671875,1.125
1696248322571,0.64160156,-0.024963379,-0.84942627,0.109375,-16.703125,-0.484375
1696248322611,0.5168457,0.012390137,-0.6514282,0.328125,-5.796875,0.3125
1696248322652,0.5576172,-0.013000488,-0.6836548,-0.703125,3.09375,-0.4375
1696248322696,0.5847168,-0.031066895,-0.7608032,-0.53125,2.5625,-0.265625
1696248322731,0.57055664,-0.018371582,-0.7515259,0.046875,0.6875,-0.109375
1696248322771,0.59814453,-0.020324707,-0.7617798,-0.796875,0.8125,-0.484375
1696248322811,0.58935547,-0.023498535,-0.78082275,0.078125,0.5625,0.15625
1696248322852,0.56152344,-0.01373291,-0.7334595,0.375,0.171875,0.390625
1696248322905,0.6003418,-0.010559082,-0.7727661,-0.546875,2.25,-0.234375
1696248322930,0.5817871,-0.018371582,-0.79473877,-0.203125,-0.125,0.265625
1696248322972,0.5703125,-0.024475098,-0.7444458,2.1875,-2.90625,-0.046875
1696248323012,0.54711914,-0.017150879,-0.6795044,-0.046875,0.78125,-0.375
1696248323052,0.5666504,-0.024963379,-0.71759033,0.109375,-0.890625,0.15625
1696248323092,0.55908203,-0.014465332,-0.73101807,1.109375,-3.453125,-0.171875
1696248323134,0.55078125,-0.016174316,-0.6704712,0.515625,0.71875,0.28125
1696248323173,0.5983887,-0.0064086914,-0.81744385,1.875,0.171875,0.875
1696248323212,0.55200195,-0.026184082,-0.7227173,-0.0625,-0.953125,0.0625
1696248323251,0.5649414,-0.012023926,-0.7131958,-0.890625,1.4375,-0.515625
1696248323292,0.59277344,-0.0056762695,-0.8208618,1.21875,0.703125,0.65625
1696248323333,0.52905273,-0.014953613,-0.69854736,-0.578125,-0.40625,-0.203125
1696248323371,0.57006836,-0.030822754,-0.7424927,-0.515625,0.625,-0.28125
1696248323410,0.609375,-0.023986816,-0.83843994,1.828125,0.25,0.859375
1696248323454,0.53027344,-0.012023926,-0.71832275,0.96875,-0.34375,0.609375
1696248323492,0.5986328,-0.004699707,-0.7852173,-0.34375,0.84375,-0.078125
1696248323535,0.57055664,-0.009094238,-0.7871704,-1.859375,-0.375,-0.734375
1696248323573,0.5654297,-0.019836426,-0.7420044,-1.46875,0.15625,-0.46875
1696248323611,0.5769043,-0.0051879883,-0.7942505,1.3125,1.421875,1.0
1696248323653,0.57055664,-0.024475098,-0.77301025,-0.0625,1.25,0.34375
1696248323713,0.57714844,-0.018859863,-0.7727661,0.296875,2.09375,0.40625
1696248323730,0.57006836,-0.013244629,-0.80303955,0.109375,2.5625,0.28125
1696248323750,0.5620117,-0.0154418945,-0.7966919,-1.203125,0.65625,-0.078125
1696248323791,0.5595703,-0.026184082,-0.76275635,-2.203125,-1.09375,-0.125
1696248323832,0.5373535,-0.022277832,-0.7300415,-4.390625,0.625,-0.828125
1696248323874,0.5842285,-0.019104004,-0.83917236,-3.4375,2.625,-0.65625
1696248323911,0.5539551,-0.038146973,-0.80352783,-3.46875,0.375,-1.46875
1696248323952,0.54418945,-0.04498291,-0.7617798,-1.09375,-2.296875,0.203125
1696248323993,0.5666504,-0.050842285,-0.77349854,-0.171875,-3.578125,0.453125
1696248324032,0.5395508,-0.04034424,-0.73687744,0.34375,-5.234375,0.875
1696248324094,0.57543945,-0.0413208,-0.7612915,-0.734375,-0.75,-0.375
1696248324131,0.5698242,-0.038146973,-0.7595825,-1.46875,4.28125,-0.921875
1696248324171,0.5476074,-0.021057129,-0.80670166,1.71875,3.78125,0.796875
1696248324189,0.56225586,-0.042053223,-0.7918091,1.21875,0.21875,0.96875
1696248324233,0.56518555,-0.04156494,-0.79278564,0.40625,-3.3125,1.09375
1696248324271,0.52368164,-0.04840088,-0.72442627,0.296875,-4.734375,0.78125
1696248324313,0.56933594,-0.04840088,-0.7781372,-1.28125,0.15625,-0.671875
1696248324351,0.5319824,-0.03741455,-0.73321533,-1.421875,1.640625,-0.8125
1696248324413,0.5632324,-0.028137207,-0.8115845,2.265625,0.84375,1.28125
1696248324432,0.57421875,-0.038146973,-0.77960205,0.671875,-1.734375,0.734375
1696248324494,0.58496094,-0.044006348,-0.8833618,3.34375,-9.109375,2.359375
1696248324532,0.6237793,-0.051818848,-0.82647705,-1.53125,-10.578125,0.296875
1696248324573,0.5109863,-0.020080566,-0.67755127,3.984375,-12.015625,1.953125
1696248324591,0.57910156,-0.046447754,-0.7510376,-1.21875,-0.53125,-0.71875
1696248324632,0.5991211,-0.011291504,-0.73223877,-0.078125,-2.234375,0.125
1696248324674,0.6230469,-0.007873535,-0.78448486,1.578125,-3.078125,0.671875
1696248324711,0.6208496,-0.020812988,-0.6880493,5.6875,-5.484375,0.515625
1696248324770,0.5593262,-0.0095825195,-0.6213989,-2.453125,1.71875,-0.953125
1696248324791,0.6118164,-0.020080566,-0.73321533,3.28125,2.671875,1.1875
1696248324831,0.59936523,-0.026184082,-0.7090454,-1.046875,-3.65625,-1.078125
1696248324893,0.58862305,-0.037902832,-0.675354,-1.640625,-1.640625,-0.640625
1696248324931,0.6062012,-0.039855957,-0.784729,3.359375,2.765625,1.515625
1696248324950,0.60424805,-0.024719238,-0.75079346,0.890625,0.421875,0.734375
1696248325011,0.61279297,-0.0051879883,-0.72906494,-0.328125,-2.109375,0.125
1696248325030,0.6098633,-0.014221191,-0.7896118,1.859375,3.25,0.515625
1696248325050,0.611084,-0.003967285,-0.7630005,0.15625,-0.34375,0.3125
1696248325091,0.58203125,-0.01763916,-0.7554321,-2.390625,-1.96875,-0.640625
1696248325132,0.59106445,-0.027404785,-0.72857666,1.578125,3.078125,0.625
1696248325172,0.6003418,-0.022277832,-0.7546997,0.296875,-0.90625,0.34375
1696248325212,0.57592773,-0.00592041,-0.7546997,-0.625,-0.25,-0.40625
1696248325252,0.60302734,-0.016174316,-0.75250244,-0.484375,1.546875,-0.4375
1696248325290,0.57958984,-0.0064086914,-0.77545166,0.25,0.578125,0.25
1696248325334,0.5800781,-0.012023926,-0.76153564,-0.0625,-1.09375,0.171875
1696248325370,0.5847168,-0.018127441,-0.71759033,0.375,0.453125,0.234375
1696248325413,0.60961914,-0.016662598,-0.767395,-0.6875,1.90625,0.015625
1696248325453,0.578125,-0.018615723,-0.74835205,-0.875,0.890625,0.15625
1696248325491,0.5769043,-0.0256958,-0.72906494,-1.71875,0.203125,-0.375
1696248325532,0.59399414,-0.028869629,-0.7463989,1.015625,1.671875,0.671875
1696248325570,0.57373047,-0.022033691,-0.7503052,-0.046875,1.625,0.4375
1696248325610,0.55322266,-0.014953613,-0.710022,-2.8125,2.6875,-0.15625
1696248325655,0.5852051,-0.027404785,-0.7932739,-2.90625,3.0,-0.4375
1696248325692,0.5839844,-0.032043457,-0.7942505,-3.421875,4.703125,-0.625
1696248325733,0.57128906,-0.032043457,-0.77960205,-0.53125,4.203125,0.46875
1696248325770,0.56640625,-0.0335083,-0.80010986,-1.484375,1.859375,-0.28125
1696248325811,0.54907227,-0.030090332,-0.77545166,0.546875,-0.203125,0.421875
1696248325852,0.5395508,-0.027160645,-0.7781372,1.46875,-0.796875,0.84375
1696248325890,0.56469727,-0.046936035,-0.8062134,3.1875,-4.65625,1.28125
1696248325931,0.5559082,-0.018371582,-0.7659302,3.359375,-7.015625,1.703125
1696248325971,0.6398926,-0.034973145,-0.8303833,2.15625,-11.921875,0.21875
1696248326011,0.52856445,0.0138549805,-0.6021118,1.03125,-7.34375,0.34375
1696248326051,0.60424805,-0.010314941,-0.8562622,-1.734375,2.34375,-0.59375
1696248326090,0.58203125,-0.014465332,-0.7527466,-0.15625,-0.96875,0.0625
1696248326132,0.6003418,-0.02520752,-0.75201416,-1.234375,-2.046875,-0.21875
1696248326174,0.5578613,-0.026672363,-0.70025635,0.5,2.234375,0.046875
1696248326211,0.6308594,-0.0017700195,-0.8257446,0.640625,-1.484375,0.5
1696248326253,0.56518555,-0.014465332,-0.6980591,-0.421875,0.4375,0.140625
1696248326290,0.5883789,-0.028381348,-0.75177,0.828125,1.953125,0.296875
1696248326331,0.5888672,-0.016418457,-0.78741455,0.234375,1.96875,0.21875
1696248326371,0.5605469,-0.016662598,-0.7373657,-1.109375,0.265625,-0.53125
1696248326414,0.5834961,-0.023254395,-0.7822876,-0.484375,1.109375,0.0
1696248326430,0.5847168,-0.020568848,-0.77008057,-0.484375,-0.734375,0.171875
1696248326474,0.58032227,-0.026916504,-0.77301025,0.25,0.5625,0.328125
1696248326513,0.5830078,-0.020080566,-0.7698364,-0.34375,0.828125,0.359375
1696248326552,0.57373047,-0.011779785,-0.76348877,-0.703125,1.234375,0.171875
1696248326590,0.5620117,-0.026916504,-0.7839966,-1.734375,2.96875,-0.5625
1696248326632,0.5583496,-0.0178833,-0.7424927,-2.0,0.0,-0.578125
1696248326673,0.5498047,-0.023742676,-0.753479,-0.375,0.0,0.234375
1696248326712,0.5683594,-0.03375244,-0.7715454,-0.1875,0.25,0.109375
1696248326754,0.5629883,-0.03326416,-0.7871704,0.171875,-0.765625,0.296875
1696248326794,0.57788086,-0.030334473,-0.76568604,0.140625,-1.609375,0.1875
1696248326831,0.5629883,-0.014709473,-0.7463989,-1.6875,2.15625,-0.140625
1696248326873,0.5690918,-0.023254395,-0.7930298,-2.734375,1.625,-0.875
1696248326911,0.5793457,-0.035949707,-0.7839966,-1.6875,-1.328125,-0.390625
1696248326973,0.5551758,-0.03741455,-0.7671509,-0.1875,-0.375,0.375
1696248326990,0.5749512,-0.042785645,-0.80670166,2.140625,-3.078125,1.578125
1696248327032,0.6118164,-0.034240723,-0.8086548,-1.1875,-10.53125,0.015625
1696248327073,0.52612305,-0.02935791,-0.7024536,1.296875,-4.59375,1.34375
1696248327111,0.59399414,-0.028381348,-0.7761841,-0.015625,-1.640625,0.265625
1696248327150,0.5588379,-0.035949707,-0.6929321,0.78125,-0.953125,0.609375
1696248327192,0.5900879,-0.01739502,-0.79571533,0.359375,-1.421875,0.5
1696248327230,0.5986328,-0.016662598,-0.755188,-0.609375,-5.09375,0.109375
1696248327269,0.5852051,-0.040100098,-0.70928955,0.25,-4.640625,0.203125
1696248327312,0.6035156,-0.039855957,-0.77667236,0.765625,4.109375,-0.0625
1696248327352,0.5793457,-0.028137207,-0.73272705,-0.390625,-0.4375,-0.15625
1696248327393,0.5847168,-0.032287598,-0.77056885,0.390625,-0.3125,0.46875
1696248327433,0.59350586,-0.024719238,-0.72052,0.671875,0.890625,0.65625
1696248327471,0.57958984,-0.018127441,-0.7793579,1.078125,1.5625,0.796875
1696248327513,0.5961914,-0.022277832,-0.75494385,-0.078125,1.28125,-0.234375
1696248327552,0.57592773,-0.028625488,-0.77056885,-1.0,1.6875,-0.296875
1696248327591,0.5769043,-0.030334473,-0.7498169,0.8125,0.65625,0.421875
1696248327673,0.5864258,-0.030090332,-0.76153564,-0.0625,-0.078125,0.125
1696248327677,0.576416,-0.019348145,-0.7620239,0.234375,-0.21875,0.453125
1696248327691,0.57958984,-0.021057129,-0.7476196,0.765625,0.125,0.5625
1696248327731,0.57543945,-0.0256958,-0.77227783,0.109375,0.125,0.25
1696248327770,0.57666016,-0.023010254,-0.76226807,-0.296875,-1.390625,0.203125
1696248327812,0.56884766,-0.027160645,-0.7407837,0.21875,-0.984375,0.4375
1696248327852,0.57788086,-0.023254395,-0.76519775,0.828125,-1.15625,0.671875
1696248327893,0.5913086,-0.018859863,-0.7925415,-1.09375,-5.875,0.328125
1696248327953,0.5498047,-0.019348145,-0.74664307,1.71875,-2.265625,1.390625
1696248327972,0.5822754,-0.026428223,-0.70977783,-1.328125,-0.640625,-0.296875
1696248328014,0.57470703,-0.015930176,-0.7954712,-0.46875,0.40625,0.109375
1696248328051,0.6242676,-0.022766113,-0.84381104,-0.046875,-3.40625,-0.296875
1696248328092,0.56469727,-0.030090332,-0.6392212,-0.328125,-1.8125,0.328125
1696248328132,0.5839844,0.0018920898,-0.7539673,-0.140625,2.53125,-0.640625
1696248328171,0.57055664,-0.034484863,-0.72003174,-1.03125,-1.921875,-0.4375
1696248328211,0.63061523,-0.031066895,-0.85943604,0.953125,-1.59375,0.421875
1696248328251,0.59472656,-0.026184082,-0.6968384,0.796875,-1.359375,0.859375
1696248328292,0.5744629,-0.016418457,-0.76446533,-1.8125,1.015625,-0.671875
1696248328332,0.5830078,-0.021057129,-0.75567627,1.484375,0.28125,0.203125
1696248328372,0.55029297,-0.031311035,-0.7197876,0.921875,1.109375,0.78125
1696248328434,0.58496094,-0.028381348,-0.76812744,0.46875,0.890625,0.09375
1696248328450,0.5690918,-0.016662598,-0.7473755,-0.265625,0.984375,0.328125
1696248328491,0.5749512,-0.026184082,-0.74884033,0.6875,-1.515625,0.3125
1696248328533,0.5751953,-0.023986816,-0.7371216,0.625,0.125,0.71875
1696248328572,0.5883789,-0.019592285,-0.76812744,0.71875,-0.203125,0.53125
1696248328612,0.5678711,-0.026916504,-0.76397705,-0.53125,0.15625,0.0
1696248328651,0.58935547,-0.030578613,-0.7698364,-0.921875,-1.46875,-0.328125
1696248328690,0.5654297,-0.028625488,-0.72076416,-0.625,-1.5625,-0.046875
1696248328732,0.6010742,-0.033996582,-0.755188,-0.28125,1.375,-0.109375
1696248328773,0.5734863,-0.034729004,-0.75250244,-0.5625,-1.328125,0.125
1696248328813,0.5710449,-0.028869629,-0.7210083,-0.734375,-0.078125,-0.078125
1696248328854,0.58740234,-0.024719238,-0.73443604,-1.296875,3.265625,0.0625
1696248328893,0.5720215,-0.037902832,-0.7683716,-1.859375,4.296875,0.0625
1696248328932,0.57592773,-0.02960205,-0.7776489,-0.1875,3.3125,0.1875
1696248328994,0.5629883,-0.035949707,-0.769104,-0.734375,1.6875,0.0625
1696248328998,0.5456543,-0.038635254,-0.73223877,-0.5,2.9375,0.28125
1696248329033,0.57470703,-0.032287598,-0.78326416,-0.1875,2.03125,1.0625
1696248329071,0.50756836,-0.027893066,-0.7798462,-0.921875,1.65625,-0.078125
1696248329111,0.55078125,-0.032043457,-0.77008057,-0.625,2.59375,0.765625
1696248329150,0.5461426,-0.031066895,-0.7637329,-2.03125,1.421875,0.03125
1696248329191,0.5500488,-0.042297363,-0.7769165,0.0,1.0625,0.6875
1696248329231,0.56103516,-0.025939941,-0.7888794,-0.125,-0.828125,0.5
1696248329274,0.55615234,-0.03741455,-0.79522705,-0.34375,0.15625,0.140625
1696248329313,0.5527344,-0.038879395,-0.7732544,0.203125,-0.890625,0.203125
1696248329355,0.53564453,-0.046936035,-0.77349854,0.90625,0.359375,0.34375
1696248329414,0.5515137,-0.038391113,-0.7866821,1.59375,0.71875,0.890625
1696248329430,0.5522461,-0.025939941,-0.7727661,2.0625,1.125,0.796875
1696248329472,0.55444336,-0.03668213,-0.8049927,1.578125,0.890625,1.03125
1696248329511,0.5444336,-0.02178955,-0.772522,2.015625,0.15625,1.21875
1696248329553,0.53515625,-0.019592285,-0.7720337,1.875,-0.109375,1.234375
1696248329592,0.5383301,-0.020324707,-0.7788696,2.015625,-0.5,1.265625
1696248329631,0.5539551,-0.020080566,-0.7908325,0.984375,-0.671875,0.828125
1696248329671,0.5354004,-0.018371582,-0.76690674,2.03125,-0.890625,1.234375
1696248329711,0.54907227,-0.011779785,-0.77789307,1.203125,-1.265625,0.765625
1696248329751,0.55444336,-0.022521973,-0.7966919,0.609375,-1.046875,0.453125
1696248329791,0.54418945,-0.012023926,-0.76885986,1.3125,-1.78125,0.796875
1696248329831,0.5461426,-0.008605957,-0.7803345,0.8125,-1.734375,0.609375
1696248329871,0.5644531,-0.0134887695,-0.80718994,1.046875,-0.859375,0.234375
1696248329910,0.5390625,-0.0064086914,-0.76641846,1.09375,-1.765625,0.34375
