# Sensor type: Respeck
# Activity type: Lying down right
# Activity subtype: Coughing
# Subject id: s2104454
# Notes: unprocessed
timestamp,accel_x,accel_y,accel_z,gyro_x,gyro_y,gyro_z
1696246633712,0.5969238,0.0048217773,0.7411499,-0.671875,1.0,1.234375
1696246633772,0.68359375,0.090026855,0.80267334,-4.46875,11.015625,-0.015625
1696246633791,0.57177734,-0.026184082,0.87005615,0.65625,5.015625,3.8125
1696246633832,0.62890625,-0.04864502,0.8734741,-5.0,4.703125,-1.3125
1696246633873,0.65844727,-0.015930176,0.85980225,0.609375,-1.328125,-1.484375
1696246633912,0.6179199,4.272461E-4,0.7807007,-1.515625,-3.296875,-1.125
1696246633953,0.6098633,0.02557373,0.76678467,-0.078125,-4.484375,-0.625
1696246633993,0.65063477,0.004333496,0.8151245,-0.390625,-1.625,-0.921875
1696246634033,0.6525879,0.030700684,0.809021,1.265625,-1.515625,-0.265625
1696246634054,0.6166992,0.008239746,0.7987671,1.671875,-0.25,0.25
1696246634093,0.62280273,0.0119018555,0.8095093,2.1875,1.65625,1.296875
1696246634134,0.6113281,0.015319824,0.81121826,3.96875,3.203125,2.15625
1696246634173,0.5786133,0.030700684,0.7020874,3.484375,7.484375,2.53125
1696246634214,0.63500977,0.05657959,0.9154663,7.03125,15.171875,5.125
1696246634253,0.6430664,-0.09185791,0.8534546,-1.46875,11.828125,2.703125
1696246634314,0.673584,0.020446777,0.8456421,-0.171875,5.34375,-3.734375
1696246634333,0.66552734,0.039733887,0.7538452,4.78125,-0.046875,-2.75
1696246634372,0.71777344,-0.023986816,0.696228,2.4375,-5.328125,-5.171875
1696246634412,0.73706055,-0.08502197,0.7665405,1.828125,-4.140625,-4.953125
1696246634453,0.6706543,-0.06427002,0.7055054,-3.03125,-0.234375,-1.015625
1696246634493,0.68115234,0.01751709,0.7665405,-3.546875,-0.453125,2.28125
1696246634533,0.65625,-0.027404785,0.8060913,-2.453125,-2.15625,2.046875
1696246634573,0.62353516,-0.031066895,0.78704834,-3.671875,-0.890625,3.875
1696246634613,0.66552734,0.047302246,0.8300171,-0.8125,-1.953125,3.34375
1696246634653,0.64331055,0.019470215,0.8475952,-0.34375,-3.6875,2.234375
1696246634693,0.5966797,-0.030090332,0.8185425,-0.9375,0.1875,2.3125
1696246634734,0.6828613,0.027770996,0.6744995,-3.671875,6.3125,1.609375
1696246634775,0.68603516,-0.024230957,0.91156006,-0.75,2.609375,4.6875
1696246634814,0.65234375,0.002380371,0.7172241,-5.703125,8.890625,-2.34375
1696246634856,0.6899414,0.014343262,0.7284546,-4.0625,3.40625,-3.28125
1696246634893,0.6464844,0.01361084,0.80096436,-4.890625,-1.140625,-1.109375
1696246634936,0.6660156,0.003112793,0.7538452,-9.109375,-4.015625,-3.78125
1696246634975,0.7199707,-0.020324707,0.7472534,-5.328125,-3.859375,-4.390625
1696246635015,0.6748047,0.022888184,0.7814331,-5.109375,0.84375,-4.015625
1696246635053,0.6958008,0.03753662,0.76068115,-6.0,2.390625,-3.34375
1696246635094,0.75390625,0.05316162,0.79437256,-3.671875,4.953125,-2.65625
1696246635135,0.68896484,0.039489746,0.7633667,-4.421875,5.59375,-0.9375
1696246635174,0.6442871,0.07244873,0.78045654,-3.90625,4.4375,-0.4375
1696246635214,0.69018555,0.06048584,0.69525146,1.125,-4.171875,-2.359375
1696246635256,0.6464844,0.06585693,0.74823,10.296875,-8.375,-0.5
1696246635294,0.7426758,0.04901123,0.6366577,11.671875,0.4375,2.484375
1696246635358,0.67333984,0.021911621,0.8139038,14.296875,-11.34375,6.78125
1696246635373,0.6574707,-0.051330566,0.8395386,1.84375,-8.5625,5.09375
1696246635393,0.63012695,-0.07647705,0.7584839,0.234375,-3.546875,1.65625
1696246635436,0.69677734,0.018249512,0.82611084,0.828125,-1.203125,2.640625
1696246635473,0.62524414,0.022155762,0.8187866,-0.6875,-0.4375,6.40625
1696246635514,0.6220703,0.010192871,0.81073,-1.421875,0.09375,3.515625
1696246635555,0.6801758,0.04534912,0.8048706,-0.890625,-0.015625,0.109375
1696246635593,0.66308594,0.04852295,0.6798706,0.34375,0.125,-0.578125
1696246635635,0.76049805,0.14569092,1.0116577,2.171875,14.234375,0.296875
1696246635696,0.5720215,-0.057434082,0.79486084,-4.015625,1.59375,3.609375
1696246635712,0.6640625,0.018493652,0.85028076,-4.46875,1.1875,-4.359375
1696246635773,0.71533203,-0.004699707,0.7243042,0.265625,-3.546875,-0.375
1696246635794,0.6569824,0.011413574,0.680603,-0.125,-4.65625,-1.5
1696246635834,0.6621094,0.027770996,0.7802124,1.5,-4.546875,-3.046875
1696246635895,0.68066406,0.038513184,0.77679443,0.265625,-2.25,0.515625
1696246635912,0.673584,0.036315918,0.7855835,2.0,-1.09375,1.125
1696246635977,0.67529297,0.035095215,0.8161011,0.90625,-0.625,2.515625
1696246635992,0.5998535,0.024353027,0.7838745,-0.640625,1.171875,3.328125
1696246636036,0.6401367,0.058532715,0.729187,2.203125,1.6875,1.84375
1696246636093,0.7285156,0.09539795,0.9032593,3.46875,12.328125,2.921875
1696246636113,0.56811523,-0.006652832,0.6259155,0.25,-3.46875,0.390625
1696246636153,0.69262695,0.026794434,0.8085327,-2.3125,1.828125,-4.359375
1696246636193,0.6894531,0.030456543,0.730896,0.28125,-2.171875,0.046875
1696246636233,0.6713867,-0.020324707,0.75994873,0.96875,-5.140625,-0.84375
1696246636298,0.64331055,0.02557373,0.74676514,1.625,-0.890625,-3.9375
1696246636313,0.7092285,0.031921387,0.7772827,0.75,0.328125,1.078125
1696246636376,0.7116699,0.031433105,0.79486084,2.203125,-0.3125,3.203125
1696246636414,0.64453125,0.0028686523,0.7682495,0.0625,0.53125,3.40625
1696246636433,0.6520996,0.04144287,0.7687378,-0.515625,3.15625,1.890625
1696246636475,0.689209,0.036071777,0.7284546,-0.265625,4.125,2.03125
1696246636535,0.80029297,0.022888184,0.72210693,-0.90625,25.921875,1.515625
1696246636552,0.59643555,-7.9345703E-4,0.7579956,-6.984375,7.234375,1.3125
1696246636593,0.6628418,0.012390137,0.80145264,-4.4375,-2.984375,-3.0625
1696246636652,0.69262695,0.01751709,0.78045654,-8.84375,-8.265625,-4.734375
1696246636673,0.7102051,-0.003967285,0.7379761,-10.53125,-12.453125,-2.484375
1696246636693,0.70825195,-5.493164E-4,0.7321167,-7.59375,-3.234375,-3.03125
1696246636735,0.6867676,0.03729248,0.6832886,-2.890625,0.765625,-2.71875
1696246636774,0.6726074,0.05999756,0.7362671,0.171875,4.171875,-0.234375
1696246636814,0.7319336,0.0602417,0.76116943,1.3125,5.125,1.875
1696246636854,0.689209,0.0602417,0.80023193,2.28125,2.0625,2.75
1696246636895,0.6940918,0.07244873,0.75164795,3.828125,-1.453125,-0.65625
1696246636933,0.7116699,0.047546387,0.7367554,3.875,-1.8125,0.734375
1696246636974,0.67089844,0.026306152,0.72332764,5.609375,1.46875,0.734375
1696246637013,0.7331543,0.028015137,0.66326904,7.75,-0.84375,1.796875
1696246637053,0.68188477,0.043395996,0.82196045,8.453125,-6.15625,3.90625
1696246637094,0.6533203,-0.0010375977,0.7279663,1.21875,-5.265625,3.59375
1696246637134,0.7480469,0.034851074,0.82318115,-0.65625,-1.484375,0.765625
1696246637174,0.6364746,0.019714355,0.77874756,1.234375,-2.953125,3.125
1696246637213,0.6689453,0.051696777,0.72943115,-2.625,-3.828125,-1.484375
1696246637256,0.68188477,0.008972168,0.81243896,-2.953125,-0.53125,-1.234375
1696246637292,0.71240234,0.027282715,0.70062256,-4.03125,2.921875,-2.65625
1696246637334,0.68115234,0.062683105,0.7211304,3.078125,6.53125,2.265625
1696246637373,0.71240234,0.030944824,0.807312,-1.078125,8.328125,0.921875
1696246637414,0.7546387,0.028503418,0.8031616,-4.125,2.203125,-2.390625
1696246637453,0.63500977,0.018981934,0.7921753,-0.8125,-2.015625,-0.671875
1696246637494,0.64697266,0.054382324,0.7418823,-4.5,-7.15625,-2.1875
1696246637533,0.7429199,-0.0032348633,0.69744873,-0.375,-7.796875,-0.875
1696246637574,0.6496582,0.002380371,0.67840576,2.5625,-6.90625,-1.125
1696246637616,0.6958008,0.045837402,0.72943115,0.703125,-0.765625,-1.453125
1696246637656,0.7199707,0.039489746,0.8151245,3.515625,2.578125,5.109375
1696246637699,0.6828613,0.05267334,0.7706909,1.359375,1.1875,6.0625
1696246637734,0.6953125,0.028259277,0.7909546,3.640625,-0.984375,4.15625
1696246637774,0.62939453,0.027282715,0.7518921,2.390625,0.390625,3.53125
1696246637813,0.6911621,0.06048584,0.791687,0.171875,0.28125,0.296875
1696246637854,0.66259766,0.009460449,0.6039429,4.75,11.171875,1.65625
1696246637894,0.75219727,0.08074951,0.9035034,4.75,9.765625,2.375
1696246637933,0.63134766,0.024353027,0.7653198,-7.171875,2.6875,-1.8125
1696246637973,0.70458984,-0.07086182,0.78582764,-10.3125,-2.609375,-2.53125
1696246637993,0.67407227,0.043151855,0.7682495,-10.921875,-9.5625,-3.546875
1696246638035,0.7849121,0.0038452148,0.67352295,-6.1875,-7.15625,-2.0625
1696246638074,0.6699219,0.045837402,0.66448975,0.46875,-7.46875,-1.640625
1696246638136,0.6713867,0.05267334,0.7206421,2.53125,-0.765625,-1.6875
1696246638153,0.74658203,0.06951904,0.76312256,4.234375,2.625,3.421875
1696246638218,0.68725586,0.0680542,0.78778076,6.40625,0.984375,4.40625
1696246638233,0.6635742,0.05657959,0.8222046,8.359375,2.5,5.078125
1696246638276,0.69189453,0.028747559,0.7094116,8.828125,6.125,3.640625
1696246638315,0.71362305,0.032409668,0.7477417,4.953125,3.03125,0.734375
1696246638354,0.7128906,0.014831543,0.7562866,-0.3125,1.46875,0.15625
1696246638394,0.7553711,-0.0010375977,0.727478,3.828125,14.125,2.390625
1696246638434,0.64819336,0.085632324,0.7477417,-1.9375,4.25,-0.75
1696246638497,0.6916504,0.019226074,0.7892456,-7.328125,-1.65625,-2.28125
1696246638512,0.71362305,-0.070617676,0.77215576,-15.125,-9.4375,-1.328125
1696246638553,0.7282715,0.026306152,0.6913452,-15.296875,-8.984375,-4.453125
1696246638594,0.70458984,0.0524292,0.7238159,-5.671875,-8.9375,-3.40625
1696246638634,0.67529297,0.039245605,0.6637573,-3.328125,-4.0,-2.578125
1696246638674,0.6538086,0.06048584,0.6847534,0.09375,1.671875,-2.328125
1696246638737,0.75756836,0.07562256,0.744812,4.078125,3.640625,0.234375
1696246638773,0.7270508,0.066833496,0.8048706,6.03125,1.5,3.984375
1696246638815,0.6906738,0.055358887,0.7904663,5.8125,-0.75,1.875
1696246638854,0.6945801,0.055358887,0.7682495,3.609375,-2.140625,0.875
1696246638875,0.69873047,0.01751709,0.762146,2.140625,-1.875,0.796875
1696246638937,0.69433594,0.028747559,0.72991943,-0.890625,-2.640625,-2.515625
1696246638973,0.71972656,0.042419434,0.74432373,-1.78125,-0.578125,-2.9375
1696246638992,0.68530273,0.012634277,0.6937866,2.546875,0.84375,0.6875
1696246639057,0.7207031,0.07147217,0.7357788,4.59375,-1.296875,2.171875
1696246639073,0.68603516,0.0014038086,0.8016968,2.078125,-1.96875,5.171875
1696246639113,0.6689453,0.018493652,0.6491089,2.1875,3.859375,1.703125
1696246639153,0.7109375,0.055847168,0.8356323,6.203125,3.109375,1.28125
1696246639192,0.63378906,0.01727295,0.75213623,0.921875,2.234375,0.765625
1696246639234,0.74316406,0.055603027,0.730896,1.59375,0.125,0.1875
1696246639292,0.7121582,0.016296387,0.7531128,0.390625,-1.078125,1.765625
1696246639333,0.7011719,0.046569824,0.7194214,-2.984375,1.515625,-0.828125
1696246639338,0.69799805,0.0446167,0.75579834,3.546875,2.96875,2.453125
1696246639373,0.828125,0.1473999,0.6564331,2.859375,9.90625,2.15625
1696246639413,0.7050781,-0.020324707,0.7929077,-5.015625,-2.78125,1.734375
1696246639457,0.6027832,-0.04864502,0.7680054,-6.703125,-3.46875,-2.125
1696246639494,0.7492676,0.039978027,0.74261475,-10.6875,-5.25,-5.265625
1696246639536,0.74658203,0.020202637,0.57684326,-6.234375,-6.171875,-2.3125
1696246639574,0.6970215,0.03289795,0.682312,-1.421875,-7.671875,-3.078125
1696246639614,0.6882324,0.06072998,0.66278076,-1.0,0.015625,-3.1875
1696246639653,0.79003906,0.07879639,0.74017334,2.671875,-0.265625,2.171875
1696246639695,0.72436523,0.03265381,0.8070679,7.078125,-1.28125,4.640625
1696246639734,0.67578125,0.04949951,0.7543335,3.40625,0.3125,3.8125
1696246639774,0.70874023,0.029724121,0.7694702,5.5,0.625,2.578125
1696246639814,0.6796875,0.02166748,0.7267456,2.1875,-0.03125,1.703125
1696246639854,0.7114258,0.017028809,0.7965698,2.984375,-0.390625,1.078125
1696246639896,0.66381836,0.0060424805,0.7106323,-3.53125,1.375,0.25
1696246639933,0.7573242,0.06756592,0.76239014,0.625,2.984375,-0.171875
1696246639973,0.6789551,0.022888184,0.6017456,6.265625,13.828125,3.734375
1696246640013,0.7548828,0.09613037,0.8390503,4.5625,4.90625,2.5625
1696246640053,0.6154785,0.0053100586,0.80340576,-2.875,-2.859375,-0.5625
1696246640093,0.66674805,-0.07330322,0.7880249,-8.578125,-6.046875,-2.25
1696246640134,0.814209,0.06585693,0.68499756,-10.3125,-6.6875,-3.875
1696246640173,0.7480469,0.010925293,0.64227295,-7.53125,-8.625,-1.5
1696246640214,0.6230469,0.029724121,0.6881714,-0.796875,-3.6875,-2.28125
1696246640254,0.74365234,0.09588623,0.68011475,-0.546875,1.578125,-1.609375
1696246640294,0.79052734,0.059509277,0.743103,2.765625,0.640625,2.78125
1696246640333,0.6989746,0.050964355,0.75457764,4.84375,-1.296875,4.34375
1696246640375,0.69506836,0.046081543,0.7680054,4.96875,0.3125,3.734375
1696246640414,0.6916504,0.038513184,0.75042725,2.578125,0.859375,1.59375
1696246640452,0.69384766,0.024841309,0.7453003,3.640625,-0.171875,0.125
1696246640495,0.71191406,0.0289917,0.76483154,1.859375,1.1875,0.9375
1696246640536,0.70825195,0.044128418,0.70355225,1.6875,1.46875,-0.921875
1696246640573,0.73657227,0.05267334,0.78118896,1.6875,2.484375,1.03125
1696246640616,0.68359375,0.005065918,0.7123413,1.265625,2.0625,1.9375
1696246640653,0.83203125,0.0758667,0.75579834,4.328125,-0.921875,2.140625
1696246640673,0.54174805,0.015075684,0.605896,1.90625,0.3125,8.15625
1696246640714,0.88964844,0.2008667,0.8331909,12.15625,7.453125,-2.59375
1696246640753,0.6044922,-0.013244629,0.71698,-1.0625,5.859375,3.578125
1696246640794,0.66625977,-0.03277588,0.69818115,-4.890625,-0.796875,-1.546875
1696246640834,0.72802734,-0.018127441,0.77557373,-8.96875,-6.75,-1.59375
1696246640874,0.68066406,-0.007873535,0.69818115,-14.90625,-8.828125,-2.890625
1696246640936,0.80029297,0.046569824,0.6559448,-12.765625,-9.40625,-5.84375
1696246640953,0.6791992,-0.0068969727,0.6984253,-2.96875,-4.46875,-3.609375
1696246641019,0.7023926,0.12713623,0.6571655,-2.328125,1.078125,-4.421875
1696246641032,0.77685547,0.07220459,0.7230835,1.71875,1.34375,0.0625
1696246641075,0.7199707,0.06439209,0.77093506,7.234375,0.921875,0.21875
1696246641115,0.71875,0.047546387,0.75213623,6.03125,0.359375,-0.703125
1696246641154,0.7314453,0.024841309,0.7506714,4.46875,-2.125,0.8125
1696246641194,0.73876953,0.0289917,0.7184448,2.828125,-3.078125,0.578125
1696246641237,0.6760254,0.028015137,0.7304077,-0.703125,-2.5,-0.015625
1696246641273,0.6809082,0.028503418,0.744812,-0.875,-2.40625,-1.0
1696246641314,0.7402344,0.043884277,0.6571655,1.4375,4.328125,-0.859375
1696246641354,0.73657227,0.06756592,0.7133179,5.125,1.375,4.265625
1696246641394,0.72802734,0.00579834,0.7609253,5.453125,-0.4375,4.953125
1696246641433,0.7175293,0.022644043,0.7235718,2.078125,-2.34375,1.96875
1696246641476,0.71777344,-0.0022583008,0.7394409,1.578125,0.65625,3.125
1696246641513,0.68530273,0.054138184,0.7411499,4.1875,-1.6875,2.578125
1696246641553,0.6989746,0.012145996,0.7614136,0.859375,-1.234375,2.515625
1696246641593,0.7182617,0.03729248,0.7140503,-2.140625,1.546875,-0.390625
1696246641636,0.7102051,0.04510498,0.7921753,-1.234375,-0.953125,1.125
1696246641673,0.6765137,0.0033569336,0.6625366,-7.65625,0.1875,-3.015625
1696246641713,0.83813477,0.05340576,0.7057495,-3.046875,-1.03125,-2.984375
1696246641753,0.6430664,0.015563965,0.7211304,0.5,0.734375,3.375
1696246641793,0.6965332,0.07196045,0.63690186,3.125,3.734375,0.359375
1696246641833,0.7714844,0.038024902,0.8707886,3.625,5.59375,4.234375
1696246641873,0.6442871,0.0033569336,0.6976929,-3.078125,0.4375,-3.984375
1696246641936,0.72924805,-0.016662598,0.7484741,-4.65625,-1.828125,-5.15625
1696246641954,0.7194824,0.06439209,0.6625366,-4.359375,0.359375,-2.65625
1696246641993,0.7561035,0.038269043,0.6754761,-4.609375,-6.296875,-1.125
1696246642013,0.7128906,0.034606934,0.6576538,0.515625,-2.75,-0.46875
1696246642053,0.7631836,0.09515381,0.71258545,4.140625,0.171875,0.46875
1696246642093,0.73999023,0.031188965,0.758728,5.015625,0.21875,4.359375
1696246642135,0.72094727,0.0065307617,0.73651123,4.609375,-0.046875,4.640625
1696246642173,0.7109375,0.027282715,0.7548218,4.640625,-1.6875,1.4375
1696246642215,0.7019043,0.007019043,0.7387085,4.46875,-0.53125,2.90625
1696246642254,0.7102051,0.038269043,0.7301636,1.859375,-0.84375,1.078125
1696246642294,0.7397461,0.04486084,0.699646,15.625,4.640625,3.265625
1696246642355,0.6657715,0.054382324,0.711853,-2.203125,0.890625,5.09375
1696246642394,0.8635254,0.07122803,0.72772217,3.765625,7.640625,-1.046875
1696246642412,0.74194336,-0.03765869,0.7609253,-2.890625,-1.9375,0.6875
1696246642455,0.56884766,-0.0647583,0.746521,-6.890625,-5.25,-4.40625
1696246642494,0.69384766,-0.01763916,0.7098999,-13.1875,-1.78125,-9.46875
1696246642534,0.81640625,0.036315918,0.6251831,-15.703125,-2.75,-4.265625
1696246642572,0.7180176,0.016052246,0.64227295,-10.609375,-3.59375,-1.5625
1696246642615,0.71606445,0.078063965,0.64056396,-5.859375,1.5625,-4.015625
1696246642656,0.7553711,0.09490967,0.7057495,0.109375,3.0625,-0.421875
1696246642718,0.76220703,0.05657959,0.7682495,4.09375,2.71875,2.203125
1696246642753,0.7546387,0.05633545,0.7807007,5.25,-2.0625,0.734375
1696246642793,0.7441406,0.00970459,0.7548218,1.1875,-1.546875,0.28125
1696246642813,0.73168945,0.022399902,0.7079468,-1.34375,-2.234375,-0.796875
1696246642855,0.7128906,0.016540527,0.7067261,-4.03125,-0.875,0.046875
1696246642919,0.69970703,0.031677246,0.701355,-5.28125,0.265625,-0.859375
1696246642953,0.7451172,0.040222168,0.6889038,-0.375,-1.78125,0.484375
1696246642972,0.73876953,0.070251465,0.59832764,2.578125,-0.328125,1.3125
1696246643038,0.7404785,0.066345215,0.7362671,8.25,-1.6875,4.4375
1696246643053,0.6833496,-0.016662598,0.75286865,2.40625,-5.765625,2.03125
1696246643094,0.7524414,0.001159668,0.7460327,0.875,-2.125,-0.78125
1696246643135,0.7380371,0.026062012,0.72161865,-3.34375,0.84375,0.15625
1696246643195,0.72924805,0.046325684,0.7177124,-4.1875,-2.15625,1.75
1696246643276,0.6999512,0.047302246,0.7548218,-1.0625,1.578125,2.5625
1696246643293,0.72680664,0.06365967,0.70477295,-3.328125,2.703125,-0.96875
1696246643298,0.7470703,0.04852295,0.75408936,-0.140625,0.421875,1.15625
1696246643313,0.70654297,0.03656006,0.7050171,-0.4375,2.90625,0.3125
1696246643353,0.7089844,0.054870605,0.7128296,5.34375,-0.15625,1.328125
1696246643395,0.67700195,0.058532715,0.6312866,5.484375,1.890625,4.140625
1696246643434,0.84155273,0.13421631,0.8197632,16.5,10.734375,4.921875
1696246643474,0.6791992,-0.058898926,0.80096436,0.34375,-5.25,3.734375
1696246643514,0.5891113,0.010437012,0.6976929,-1.625,2.171875,-5.484375
1696246643556,0.8383789,0.051696777,0.6976929,-1.28125,3.359375,-2.453125
1696246643594,0.6843262,0.03314209,0.6959839,-6.890625,-6.0,0.078125
1696246643634,0.7258301,0.014099121,0.60931396,-6.578125,1.671875,-6.171875
1696246643674,0.78027344,0.09954834,0.6803589,-2.75,-0.3125,-2.453125
1696246643714,0.7546387,0.054870605,0.68133545,1.046875,0.765625,2.375
1696246643755,0.7854004,0.03778076,0.73236084,3.28125,0.234375,0.9375
1696246643796,0.7468262,0.0036010742,0.7313843,4.40625,-1.140625,3.3125
1696246643834,0.7512207,0.038269043,0.6762085,2.828125,0.984375,0.5625
1696246643873,0.7548828,0.03289795,0.729187,4.484375,-1.65625,2.625
1696246643915,0.6826172,0.008728027,0.6774292,0.96875,-0.046875,1.171875
1696246643953,0.7402344,0.0602417,0.7362671,0.796875,-3.984375,1.03125
1696246643994,0.689209,0.015319824,0.67303467,0.3125,-1.203125,2.625
1696246644037,0.8156738,0.085876465,0.6911011,2.5625,-0.921875,1.234375
1696246644079,0.71118164,0.014099121,0.73651123,5.796875,5.296875,5.65625
1696246644113,0.65600586,0.010192871,0.7223511,2.109375,-0.6875,-1.859375
1696246644156,0.71972656,0.0065307617,0.72332764,-1.015625,0.1875,-2.359375
1696246644194,0.7546387,0.0060424805,0.7316284,-3.515625,2.5625,-3.09375
1696246644236,0.69311523,0.020935059,0.71209717,-7.703125,-4.75,-3.953125
1696246644275,0.6867676,-0.0049438477,0.6732788,-13.609375,-4.1875,-2.890625
1696246644314,0.7631836,0.07244873,0.619812,-12.359375,1.578125,-6.171875
1696246644355,0.7766113,0.08050537,0.68426514,-1.65625,2.03125,-2.515625
1696246644394,0.7402344,0.032165527,0.75042725,3.015625,1.40625,-0.015625
1696246644434,0.7524414,0.0211792,0.7352905,0.96875,1.0,0.109375
1696246644476,0.77905273,0.03656006,0.7116089,-0.53125,0.0625,0.375
1696246644514,0.73461914,0.029724121,0.7128296,-1.40625,-1.140625,1.171875
1696246644595,0.7011719,0.030456543,0.70062256,-5.859375,-1.125,0.3125
1696246644599,0.7763672,0.061950684,0.6720581,-1.984375,-2.375,-1.140625
1696246644613,0.79052734,0.06048584,0.607605,4.046875,1.734375,0.28125
1696246644654,0.70874023,0.049987793,0.67840576,7.875,-2.75,3.5625
1696246644694,0.7192383,0.012390137,0.7160034,2.71875,-1.3125,1.34375
1696246644757,0.7529297,0.013122559,0.71502686,2.984375,-3.265625,-0.28125
1696246644773,0.7163086,0.01751709,0.72039795,1.46875,-2.328125,0.671875
1696246644835,0.74438477,0.04534912,0.67840576,-1.046875,-1.34375,1.140625
1696246644873,0.74316406,0.039733887,0.7509155,2.265625,-1.78125,1.9375
1696246644893,0.7180176,0.028259277,0.6832886,-0.953125,1.5,1.03125
1696246644933,0.7380371,0.06341553,0.7103882,4.75,-0.984375,1.3125
1696246644995,0.7182617,0.014099121,0.7037964,2.203125,-1.203125,1.328125
1696246645013,0.75390625,0.0289917,0.68621826,1.078125,-1.046875,-1.171875
1696246645054,0.74438477,0.017028809,0.74993896,3.515625,-0.796875,2.3125
1696246645094,0.6994629,0.023864746,0.6713257,0.796875,0.328125,2.125
1696246645137,0.7648926,0.062683105,0.72283936,2.59375,-1.953125,1.203125
1696246645174,0.71972656,-0.016662598,0.6473999,2.9375,2.0,6.171875
1696246645214,0.73779297,0.042175293,0.8168335,3.78125,-0.171875,3.984375
1696246645257,0.6879883,0.022155762,0.7731323,2.390625,1.34375,-1.03125
1696246645294,0.6833496,0.013366699,0.68573,-1.078125,4.984375,-1.203125
1696246645334,0.75512695,0.028259277,0.6967163,-3.4375,0.15625,-2.390625
1696246645373,0.7297363,0.005554199,0.65618896,-6.359375,-4.890625,-2.125
1696246645415,0.74731445,0.008728027,0.65374756,-2.5625,-2.21875,-3.53125
1696246645453,0.7763672,0.038024902,0.7218628,0.03125,-0.78125,-2.453125
1696246645494,0.7668457,0.027038574,0.67181396,-0.890625,0.265625,1.0
1696246645534,0.7561035,0.030944824,0.73895264,2.140625,-0.921875,2.515625
1696246645574,0.7150879,0.0053100586,0.66326904,1.453125,-0.390625,1.859375
1696246645614,0.7404785,0.053894043,0.7289429,2.8125,-2.1875,1.171875
1696246645654,0.71777344,0.0079956055,0.6869507,2.921875,-0.046875,1.453125
1696246645693,0.78100586,0.034606934,0.5734253,20.59375,8.03125,0.796875
1696246645736,0.74365234,0.03704834,0.7731323,9.671875,0.484375,3.65625
1696246645796,0.5690918,-0.030578613,0.67352295,-4.96875,4.46875,-3.296875
1696246645835,0.876709,-0.016662598,0.7592163,0.40625,2.40625,-4.65625
1696246645853,0.76782227,-0.024963379,0.69818115,1.265625,-1.6875,1.421875
1696246645894,0.732666,0.046325684,0.6671753,0.640625,2.359375,2.375
1696246645913,0.7873535,0.019470215,0.7470093,-3.671875,4.015625,3.09375
1696246645954,0.7006836,0.0072631836,0.67352295,-3.15625,2.921875,-0.921875
1696246645994,0.7585449,-0.0012817383,0.6539917,-1.328125,0.0625,-1.125
1696246646033,0.76342773,-0.010559082,0.72039795,-2.734375,-2.984375,0.03125
1696246646074,0.72753906,0.022399902,0.6112671,-3.65625,-1.5,-1.34375
1696246646115,0.79589844,0.03265381,0.63739014,-4.984375,-0.359375,-1.5
1696246646154,0.78222656,0.0018920898,0.68011475,-1.75,-3.40625,-0.84375
1696246646194,0.77685547,0.0138549805,0.66741943,-1.40625,-1.34375,0.15625
1696246646235,0.7861328,0.041931152,0.68914795,0.515625,-2.859375,1.15625
1696246646275,0.7258301,0.02142334,0.69207764,1.109375,-2.828125,0.984375
1696246646313,0.71606445,0.028015137,0.680603,0.65625,-0.40625,0.515625
1696246646354,0.74243164,0.019470215,0.68426514,2.3125,-1.140625,0.1875
1696246646394,0.74853516,9.1552734E-4,0.7267456,1.078125,-0.8125,1.015625
1696246646434,0.7531738,0.0045776367,0.64471436,2.484375,1.890625,0.125
1696246646474,0.77734375,0.027526855,0.7374878,4.8125,-1.46875,3.203125
1696246646514,0.7158203,-0.04156494,0.6390991,-3.203125,0.21875,2.0
1696246646556,0.85717773,0.032165527,0.7008667,3.890625,2.390625,1.484375
1696246646593,0.75756836,0.03729248,0.7201538,1.140625,-1.4375,6.40625
1696246646635,0.73535156,0.025817871,0.68743896,-2.9375,0.25,-0.71875
1696246646674,0.7495117,0.028015137,0.6676636,0.9375,1.59375,0.46875
1696246646713,0.7023926,0.01776123,0.6593628,-7.046875,-0.171875,-1.171875
1696246646754,0.6989746,-0.00982666,0.7157593,-8.890625,-2.34375,-3.875
1696246646793,0.7011719,-0.020324707,0.66864014,-14.390625,-3.578125,-4.953125
1696246646833,0.74658203,0.055114746,0.6342163,-13.0,-2.28125,-6.375
1696246646873,0.8474121,0.06341553,0.66400146,-4.421875,-0.328125,-2.234375
1696246646915,0.77368164,0.048034668,0.70770264,0.34375,-1.765625,-0.71875
1696246646954,0.76000977,0.039489746,0.7406616,1.828125,-2.6875,0.203125
1696246646995,0.7805176,0.027770996,0.7399292,3.46875,-1.359375,0.359375
1696246647033,0.73413086,0.029724121,0.6918335,3.421875,-1.90625,2.015625
1696246647078,0.7092285,0.030944824,0.67889404,1.640625,-1.1875,1.75
1696246647113,0.7145996,0.030212402,0.6622925,1.0,-1.09375,0.09375
1696246647154,0.7607422,0.026794434,0.65179443,2.09375,1.421875,0.234375
1696246647196,0.75219727,0.06072998,0.67059326,3.234375,-0.9375,1.65625
1696246647212,0.72924805,1.8310547E-4,0.6881714,4.21875,-0.3125,2.390625
1696246647254,0.75634766,0.031677246,0.6791382,1.84375,-0.609375,0.21875
1696246647294,0.77490234,0.027526855,0.7057495,2.84375,0.859375,1.140625
1696246647335,0.73950195,0.015808105,0.6876831,2.71875,-0.5,1.65625
1696246647377,0.7648926,0.027282715,0.6737671,0.890625,0.0625,1.6875
1696246647414,0.6779785,0.04827881,0.7477417,1.671875,-4.9375,0.25
1696246647477,0.6647949,0.012634277,0.668396,1.59375,1.90625,-1.296875
1696246647494,0.80737305,0.055603027,0.7645874,4.75,-1.84375,-0.953125
1696246647557,0.69873047,-0.043029785,0.71136475,1.0,-1.53125,2.84375
1696246647573,0.75634766,0.035339355,0.68426514,2.765625,-0.828125,0.796875
1696246647616,0.71850586,0.0040893555,0.6852417,4.0625,-0.25,4.875
1696246647675,0.8137207,0.077819824,0.71502686,2.53125,6.140625,1.84375
1696246647692,0.7583008,0.0026245117,0.75164795,-0.5,0.328125,1.921875
1696246647734,0.6933594,0.0119018555,0.6923218,-1.984375,2.53125,0.265625
1696246647773,0.73168945,0.023376465,0.68963623,-3.859375,-1.28125,-1.890625
1696246647814,0.7380371,-0.0064086914,0.63739014,-8.484375,-3.46875,-1.84375
1696246647855,0.74853516,0.030212402,0.6288452,-3.3125,-1.296875,-2.84375
1696246647893,0.7717285,0.039733887,0.69696045,-1.375,-2.71875,-2.84375
1696246647934,0.7788086,0.008483887,0.68914795,-0.390625,-1.0625,-0.625
1696246647972,0.7854004,0.02142334,0.6906128,-0.078125,-2.125,0.140625
1696246648015,0.73950195,0.026306152,0.6989136,1.3125,-2.296875,1.015625
1696246648057,0.7180176,0.036315918,0.71209717,0.3125,-1.90625,0.265625
1696246648094,0.748291,0.028747559,0.69207764,1.78125,-1.21875,-0.171875
1696246648136,0.7233887,0.022399902,0.7230835,2.53125,-2.640625,1.828125
1696246648174,0.7324219,0.013366699,0.70892334,1.84375,-1.890625,1.21875
1696246648214,0.73339844,0.019958496,0.66937256,4.3125,-1.71875,1.75
1696246648255,0.7602539,0.024841309,0.7435913,2.8125,-1.015625,2.34375
1696246648294,0.7648926,0.025817871,0.6954956,5.046875,0.203125,3.125
1696246648358,0.77685547,0.008239746,0.7008667,5.421875,1.875,4.109375
1696246648372,0.73291016,0.010437012,0.69744873,-0.8125,0.953125,1.28125
1696246648437,0.75024414,0.0040893555,0.6967163,3.125,1.015625,1.9375
1696246648453,0.70703125,0.008728027,0.72869873,-2.578125,-3.71875,2.109375
1696246648516,0.68530273,0.0119018555,0.63690186,-1.421875,2.328125,-1.15625
1696246648533,0.77978516,-5.493164E-4,0.70770264,-0.390625,-2.75,-2.359375
1696246648554,0.7609863,-0.0068969727,0.6486206,-0.390625,1.171875,0.046875
1696246648593,0.68652344,0.014831543,0.7328491,-2.28125,-2.953125,0.5625
1696246648633,0.71728516,-0.014953613,0.7025757,-4.953125,0.734375,-2.3125
1696246648674,0.79296875,0.023620605,0.7406616,-5.5,1.96875,-4.4375
1696246648713,0.69433594,-0.011047363,0.73114014,-8.796875,-2.4375,-3.953125
1696246648756,0.6743164,0.008239746,0.69573975,-10.46875,-5.90625,-3.90625
1696246648794,0.7753906,0.062683105,0.6408081,-12.4375,0.0,-3.984375
1696246648834,0.79956055,0.03704834,0.6923218,-4.6875,-0.125,-3.59375
1696246648895,0.72094727,0.0211792,0.7394409,1.046875,0.0625,-1.171875
1696246648912,0.7038574,0.019714355,0.7369995,-2.5625,1.03125,-0.328125
1696246648955,0.76171875,0.039978027,0.696228,-4.78125,1.046875,-0.71875
1696246648994,0.76708984,0.031188965,0.7262573,-1.03125,0.921875,1.21875
1696246649036,0.7211914,0.038513184,0.70428467,-2.375,1.171875,1.09375
1696246649074,0.7233887,0.03753662,0.70843506,-4.84375,0.5625,0.125
1696246649117,0.7607422,0.06463623,0.6400757,-3.796875,-1.875,-0.578125
1696246649154,0.72802734,0.054870605,0.6925659,0.375,-0.78125,-0.109375
1696246649194,0.72680664,0.042175293,0.63031006,3.25,0.46875,0.171875
1696246649235,0.76293945,0.08148193,0.6376343,9.078125,-2.296875,1.421875
1696246649275,0.74780273,0.007751465,0.7601929,8.171875,-7.328125,3.078125
1696246649313,0.70825195,-0.019348145,0.71136475,0.125,-3.640625,0.515625
1696246649354,0.75634766,0.031677246,0.7304077,0.8125,-4.59375,0.4375
1696246649394,0.71362305,0.038024902,0.76605225,-1.046875,-3.625,2.21875
1696246649435,0.6904297,0.035095215,0.68743896,-4.203125,-5.59375,1.359375
1696246649473,0.7150879,0.0692749,0.7201538,-1.953125,-1.828125,0.734375
1696246649514,0.7097168,0.05218506,0.7243042,-1.296875,-1.21875,0.03125
1696246649554,0.70874023,0.024108887,0.7387085,-0.296875,-0.203125,0.484375
1696246649593,0.71313477,0.020935059,0.71136475,-0.203125,0.515625,0.65625
1696246649636,0.73706055,0.03289795,0.701355,1.171875,0.703125,-0.390625
1696246649673,0.73461914,0.015808105,0.7225952,1.21875,-0.28125,0.828125
1696246649715,0.6933594,0.027282715,0.71136475,-3.359375,-3.09375,0.109375
1696246649756,0.78393555,0.06341553,0.59198,-5.609375,0.359375,-0.390625
1696246649796,0.7097168,0.0993042,0.85028076,5.359375,3.421875,2.921875
1696246649835,0.6376953,0.009216309,0.7272339,-0.453125,4.15625,3.21875
1696246649853,0.7319336,0.03704834,0.72039795,-1.734375,7.96875,-0.578125
1696246649915,0.72558594,0.053894043,0.6845093,-0.546875,4.0625,-1.546875
1696246649954,0.66674805,0.024353027,0.68304443,-1.671875,-1.78125,-0.546875
1696246649973,0.7907715,0.028747559,0.65911865,-1.21875,1.625,-1.484375
1696246650036,0.77001953,0.07342529,0.66571045,-0.140625,2.59375,-1.359375
1696246650074,0.7775879,0.047302246,0.711853,2.65625,0.46875,0.21875
1696246650114,0.76000977,0.024597168,0.6937866,4.234375,-0.328125,1.328125
1696246650136,0.7541504,0.039001465,0.71380615,4.640625,-1.0,1.671875
1696246650175,0.72924805,0.035827637,0.72943115,4.484375,-4.6875,2.46875
1696246650213,0.76000977,0.05633545,0.73480225,-0.40625,-2.03125,-0.15625
1696246650252,0.7663574,0.0289917,0.71990967,0.03125,-3.3125,1.703125
1696246650313,0.77319336,0.035095215,0.7147827,-2.0,-0.765625,1.078125
1696246650333,0.72924805,0.074157715,0.6437378,3.65625,-0.578125,1.9375
1696246650397,0.66064453,-0.01373291,0.758728,3.046875,-7.1875,2.421875
1696246650414,0.69311523,6.713867E-4,0.6552124,-3.671875,5.734375,-2.671875
1696246650455,0.7487793,0.06512451,0.7230835,-2.3125,4.015625,-2.0
1696246650515,0.6982422,0.024597168,0.71209717,-3.578125,0.984375,-2.5625
1696246650533,0.6755371,0.051452637,0.6547241,-4.859375,-1.4375,-1.578125
1696246650597,0.76000977,0.04876709,0.70233154,-1.03125,-1.40625,0.8125
1696246650613,0.76953125,0.046813965,0.7194214,0.65625,0.359375,-0.640625
1696246650673,0.78222656,0.04437256,0.6798706,2.609375,1.78125,0.34375
1696246650695,0.72875977,0.07293701,0.7133179,3.90625,0.109375,2.046875
1696246650755,0.7897949,0.020935059,0.70111084,3.5,2.15625,0.875
1696246650774,0.73950195,0.03704834,0.6437378,2.9375,1.078125,1.390625
1696246650814,0.70947266,0.057800293,0.7020874,4.71875,-1.609375,2.9375
1696246650853,0.74365234,9.1552734E-4,0.6935425,4.375,0.28125,0.21875
1696246650893,0.7241211,0.043151855,0.64056396,3.921875,-1.34375,1.28125
1696246650934,0.78930664,0.035827637,0.71014404,4.375,-3.5625,1.59375
1696246650973,0.7414551,-0.026428223,0.6334839,2.46875,-0.953125,2.828125
1696246651015,0.80200195,0.06121826,0.75946045,2.4375,-0.015625,0.171875
1696246651052,0.66918945,0.016296387,0.72698975,-2.953125,0.71875,-0.15625
1696246651094,0.73461914,0.011657715,0.6935425,-4.53125,2.21875,-3.171875
1696246651155,0.7270508,0.027282715,0.7157593,-5.6875,1.6875,-3.140625
1696246651172,0.6948242,0.012878418,0.68499756,-8.84375,-3.96875,-2.3125
1696246651193,0.68969727,0.02947998,0.66522217,-8.9375,-3.703125,-2.984375
1696246651236,0.7421875,0.038513184,0.67059326,-7.6875,-0.078125,-2.0625
1696246651275,0.83691406,0.04876709,0.7040405,-2.015625,-0.640625,-2.453125
1696246651313,0.74609375,0.034118652,0.7218628,0.453125,-1.046875,-0.09375
1696246651355,0.7697754,0.047302246,0.71795654,-0.21875,-1.828125,0.46875
1696246651396,0.7236328,0.04486084,0.6918335,1.734375,-5.828125,-0.515625
1696246651435,0.6855469,0.027038574,0.7094116,1.6875,-3.453125,-0.15625
1696246651475,0.73046875,0.028503418,0.7177124,-0.890625,-0.3125,0.171875
1696246651514,0.7402344,0.041931152,0.74334717,-1.375,0.6875,-0.578125
1696246651554,0.73950195,0.049743652,0.70843506,-3.390625,-0.15625,-0.65625
1696246651618,0.7355957,0.04119873,0.68011475,-5.265625,-0.375,0.046875
1696246651634,0.7233887,0.05340576,0.68621826,-2.0,-0.703125,-0.5625
1696246651674,0.8000488,0.036315918,0.6613159,2.53125,2.984375,-1.234375
1696246651714,0.74316406,0.046081543,0.65130615,5.765625,1.234375,2.765625
1696246651753,0.7675781,0.06512451,0.70477295,4.671875,-1.0625,3.53125
1696246651793,0.71728516,0.010192871,0.699646,4.984375,-3.921875,3.96875
1696246651835,0.7097168,0.00970459,0.70965576,0.28125,-1.890625,0.96875
1696246651874,0.7687988,0.029968262,0.65667725,-2.0,-3.6875,0.5625
1696246651914,0.7224121,0.07659912,0.7352905,-6.75,-3.578125,2.234375
1696246651953,0.7685547,0.028747559,0.77630615,-7.984375,-5.4375,0.734375
1696246651994,0.69262695,0.04095459,0.79974365,-3.828125,-6.75,0.640625
1696246652034,0.68408203,0.070495605,0.67767334,-3.34375,-0.78125,-1.234375
1696246652076,0.72094727,0.09075928,0.71698,3.171875,-1.421875,0.609375
1696246652114,0.64697266,0.03387451,0.68743896,1.6875,-1.15625,0.078125
1696246652154,0.7229004,0.06048584,0.6610718,2.234375,6.09375,-1.671875
1696246652194,0.68847656,0.02166748,0.7531128,2.9375,-1.484375,1.53125
1696246652234,0.69799805,0.018981934,0.7206421,1.40625,3.53125,-0.921875
1696246652275,0.7145996,0.046325684,0.732605,-0.6875,4.078125,-0.578125
1696246652314,0.7180176,0.042419434,0.71136475,-0.203125,3.890625,-0.296875
1696246652355,0.7380371,0.04486084,0.7037964,-0.234375,-0.53125,-0.59375
1696246652395,0.736084,0.035339355,0.7399292,1.78125,0.375,-0.046875
1696246652433,0.7636719,0.039245605,0.67523193,1.734375,3.71875,0.265625
1696246652474,0.7416992,0.06536865,0.72161865,5.96875,-2.109375,1.578125
1696246652493,0.7312012,0.009460449,0.6893921,2.453125,-0.125,3.203125
1696246652557,0.765625,0.05706787,0.64959717,5.90625,3.171875,0.3125
1696246652574,0.7097168,0.05316162,0.6378784,14.15625,7.71875,2.15625
1696246652615,0.7392578,0.042175293,0.69085693,17.484375,14.59375,0.859375
1696246652673,0.7675781,0.03753662,0.83514404,7.0,0.453125,2.328125
1696246652695,0.6496582,-0.08892822,0.6456909,3.796875,-0.875,1.0625
1696246652734,0.845459,-0.0020141602,0.73773193,1.03125,-1.796875,0.21875
1696246652796,0.70043945,-0.03375244,0.63812256,-4.84375,-2.1875,0.828125
1696246652814,0.7832031,0.0033569336,0.6376343,4.25,0.453125,-2.0625
1696246652855,0.76660156,-0.0029907227,0.6564331,-3.8125,-2.8125,1.21875
1696246652917,0.78027344,0.01727295,0.7555542,-1.53125,-1.046875,1.25
1696246652935,0.7036133,-0.035705566,0.6679077,-0.921875,-0.234375,1.0625
1696246652975,0.7248535,0.018005371,0.7074585,-6.0625,-0.5,-1.90625
1696246653036,0.7297363,0.02532959,0.7067261,-8.53125,-4.140625,-1.3125
1696246653053,0.7302246,0.016540527,0.6444702,-8.421875,-4.03125,-0.671875
1696246653095,0.75146484,0.031921387,0.64837646,-4.765625,-1.453125,-2.515625
1696246653158,0.77905273,0.066101074,0.70843506,-1.34375,-1.734375,-2.90625
1696246653192,0.7697754,0.0060424805,0.70306396,-0.703125,-1.234375,0.140625
1696246653213,0.77246094,0.0038452148,0.68011475,0.75,-0.46875,0.1875
1696246653277,0.7265625,0.015319824,0.7367554,1.84375,-1.6875,1.703125
1696246653294,0.70825195,0.024841309,0.6691284,-0.40625,-2.40625,1.453125
1696246653336,0.7512207,0.035827637,0.68133545,-0.359375,1.140625,0.828125
1696246653376,0.7302246,0.027526855,0.7579956,0.53125,-1.6875,2.046875
1696246653413,0.7241211,-7.9345703E-4,0.635437,0.140625,3.296875,1.09375
1696246653477,0.8046875,0.04901123,0.68011475,5.0625,-0.984375,1.765625
1696246653492,0.73950195,-0.011291504,0.7711792,0.203125,-1.375,3.359375
1696246653557,0.72753906,0.004333496,0.64642334,-3.171875,3.984375,-2.203125
1696246653594,0.79907227,0.027038574,0.70843506,-1.921875,2.96875,0.125
1696246653613,0.71850586,0.022155762,0.7045288,-4.703125,0.171875,-0.953125
1696246653654,0.7072754,0.013122559,0.67767334,-8.109375,-3.515625,-2.4375
1696246653694,0.71069336,0.02508545,0.6737671,-6.96875,-5.28125,-1.578125
1696246653736,0.7446289,0.070007324,0.6679077,-5.359375,-1.640625,-3.265625
1696246653797,0.7836914,0.035827637,0.69329834,-1.1875,-1.140625,-2.28125
1696246653813,0.7519531,0.019714355,0.715271,0.796875,-2.328125,0.5
1696246653833,0.7368164,0.023132324,0.73480225,0.75,-1.640625,0.40625
1696246653876,0.7470703,0.030700684,0.75531006,-0.390625,-0.75,0.703125
1696246653914,0.7324219,0.042663574,0.6893921,-1.5,-0.984375,-0.046875
1696246653956,0.7272949,0.032165527,0.7128296,-0.375,0.640625,0.453125
1696246653994,0.7248535,0.038024902,0.7133179,-1.078125,0.453125,-0.015625
1696246654035,0.72631836,0.025817871,0.69866943,-3.515625,1.640625,-0.921875
1696246654075,0.75024414,0.043640137,0.652771,-3.484375,-0.09375,-0.734375
1696246654115,0.7363281,0.038513184,0.6937866,-4.0625,-0.703125,0.421875
1696246654156,0.7529297,0.050964355,0.6671753,-0.9375,-1.328125,0.015625
1696246654193,0.7861328,0.039245605,0.6351929,3.46875,1.578125,-0.703125
1696246654236,0.75512695,0.08514404,0.65740967,8.1875,-1.6875,2.46875
1696246654274,0.7739258,0.043640137,0.69647217,7.796875,-3.65625,2.78125
1696246654318,0.7133789,-0.028381348,0.7250366,5.78125,-4.421875,2.5
1696246654355,0.7336426,0.022888184,0.7028198,3.125,-1.53125,-0.125
1696246654398,0.7675781,0.038269043,0.68963623,2.59375,-2.625,0.96875
1696246654437,0.6604004,0.010192871,0.78900146,2.484375,-3.5,3.328125
1696246654475,0.75561523,0.028747559,0.6845093,-2.140625,-1.09375,-1.65625
1696246654514,0.7602539,0.0138549805,0.7079468,1.296875,-2.1875,-0.921875
1696246654557,0.69921875,0.012145996,0.72283936,0.296875,-3.515625,-0.25
1696246654594,0.717041,0.035339355,0.701355,-0.40625,-0.6875,-1.734375
1696246654662,0.73876953,0.0211792,0.72454834,-0.046875,-2.78125,0.484375
1696246654695,0.6960449,0.016052246,0.7350464,1.0625,-1.328125,1.375
1696246654714,0.7272949,0.01361084,0.71551514,-0.765625,-1.015625,1.203125
1696246654774,0.7006836,0.0211792,0.7352905,0.4375,-1.984375,1.46875
1696246654792,0.70458984,0.026550293,0.69158936,2.515625,-2.09375,1.171875
1696246654855,0.8039551,0.055603027,0.6613159,1.25,7.296875,0.140625
1696246654873,0.7163086,0.015075684,0.8119507,2.453125,2.765625,4.3125
1696246654913,0.6591797,-0.0049438477,0.72528076,-0.171875,4.15625,1.296875
1696246654975,0.7207031,0.02532959,0.7079468,-1.421875,4.109375,-0.03125
1696246654993,0.7368164,0.008483887,0.6898804,-2.671875,-0.15625,0.140625
1696246655034,0.7199707,0.021911621,0.68182373,-2.953125,0.375,-1.375
1696246655075,0.76293945,0.041931152,0.67889404,-1.96875,-0.21875,-1.640625
1696246655114,0.7788086,0.03314209,0.7040405,0.90625,-0.015625,-0.640625
1696246655133,0.7648926,0.027526855,0.6930542,0.65625,-0.1875,0.59375
1696246655198,0.74853516,0.042663574,0.70306396,1.21875,-0.53125,1.015625
1696246655214,0.7421875,0.016052246,0.70477295,3.921875,-0.359375,0.875
1696246655254,0.7453613,0.018981934,0.6828003,3.46875,0.921875,0.609375
1696246655294,0.73535156,0.034606934,0.7069702,4.171875,-2.546875,1.46875
1696246655332,0.76000977,0.010681152,0.7020874,4.546875,-0.28125,1.109375
1696246655377,0.73291016,0.05999756,0.7086792,3.890625,0.734375,3.140625
1696246655420,0.7734375,0.03753662,0.7514038,5.578125,-0.90625,5.3125
1696246655454,0.71362305,-0.027404785,0.6481323,2.140625,1.453125,2.96875
1696246655496,0.7116699,-0.011779785,0.6967163,2.078125,1.234375,2.8125
1696246655533,0.7128906,-0.0076293945,0.7145386,-1.34375,2.359375,-0.671875
1696246655574,0.74072266,-0.008605957,0.69158936,-3.328125,0.265625,-3.234375
1696246655615,0.7351074,0.0028686523,0.63812256,-5.015625,-1.34375,-3.328125
1696246655655,0.765625,0.035095215,0.66082764,-4.671875,-0.03125,-2.234375
1696246655697,0.74658203,0.016296387,0.67181396,-2.1875,-1.46875,-1.421875
1696246655733,0.78637695,0.014831543,0.6989136,-0.078125,1.625,-0.71875
1696246655774,0.76342773,0.038513184,0.6832886,-0.015625,1.34375,1.3125
1696246655813,0.76708984,0.023132324,0.68670654,2.015625,0.3125,1.390625
1696246655854,0.7507324,0.02532959,0.6610718,4.375,1.40625,0.734375
1696246655916,0.76000977,0.029724121,0.69085693,4.6875,-0.03125,1.015625
1696246655933,0.77001953,0.008239746,0.6642456,6.328125,-1.5,1.5625
1696246655975,0.7248535,0.023132324,0.6522827,6.96875,2.875,0.796875
1696246656016,0.7973633,0.014343262,0.6976929,12.59375,0.5,4.53125
1696246656055,0.66796875,-0.04107666,0.75897217,1.28125,-2.984375,2.78125
1696246656094,0.76904297,-0.023254395,0.6486206,-8.84375,3.265625,-1.96875
1696246656135,0.78759766,-0.0044555664,0.682312,-4.546875,0.125,-1.59375
1696246656175,0.73876953,0.0028686523,0.6769409,-10.03125,-2.4375,-2.21875
1696246656216,0.7294922,0.02557373,0.6727905,-15.0,-5.25,-3.703125
1696246656256,0.7348633,0.030212402,0.6828003,-11.78125,-3.265625,-1.796875
1696246656294,0.75927734,0.040222168,0.68865967,-4.640625,-2.9375,-2.546875
1696246656336,0.80029297,0.034362793,0.68011475,-2.734375,-0.015625,-1.484375
1696246656375,0.75512695,0.01751709,0.70843506,-0.84375,-0.9375,1.640625
1696246656415,0.7416992,0.012145996,0.71087646,0.453125,0.1875,1.4375
1696246656434,0.7380371,0.028015137,0.68499756,-2.484375,-0.078125,-0.15625
1696246656475,0.7626953,0.029724121,0.68865967,-2.25,0.46875,-0.28125
1696246656515,0.74194336,0.04071045,0.6637573,-3.09375,-0.1875,-0.6875
1696246656554,0.7692871,0.039245605,0.70184326,-1.203125,0.40625,-0.953125
1696246656595,0.76000977,0.0053100586,0.6659546,-4.75,-1.078125,-2.109375
1696246656633,0.7402344,0.024353027,0.68084717,-6.5625,0.03125,-2.03125
1696246656675,0.7553711,0.054382324,0.65960693,-0.953125,-1.421875,-1.578125
1696246656714,0.81640625,0.040222168,0.5985718,3.328125,0.328125,-0.3125
1696246656775,0.7402344,0.07757568,0.6486206,11.84375,-0.09375,3.84375
1696246656794,0.72314453,0.0138549805,0.7160034,10.625,-3.875,3.078125
1696246656855,0.7907715,6.713867E-4,0.69281006,8.015625,-3.21875,1.03125
1696246656873,0.7194824,0.004333496,0.699646,6.859375,-4.296875,2.34375
1696246656937,0.73413086,0.015319824,0.7223511,4.640625,-4.671875,1.5
1696246656954,0.7800293,-0.0010375977,0.70526123,-3.703125,-4.703125,1.125
1696246656995,0.8063965,0.0016479492,0.7496948,3.828125,-5.515625,0.234375
1696246657036,0.6999512,-0.006652832,0.6786499,1.375,-0.40625,2.03125
1696246657096,0.67871094,0.019714355,0.73480225,2.96875,0.921875,-0.40625
1696246657115,0.72436523,0.018249512,0.668396,-0.5,2.796875,-1.140625
1696246657157,0.76123047,-0.009094238,0.72283936,0.015625,2.015625,-0.109375
1696246657194,0.72924805,4.272461E-4,0.70965576,-1.25,0.484375,0.875
1696246657237,0.7084961,0.038757324,0.682312,-1.09375,-1.0625,-0.546875
1696246657296,0.8208008,0.024353027,0.7147827,-0.28125,2.328125,-0.3125
1696246657317,0.6201172,-0.026184082,0.69940186,-0.1875,-0.34375,2.25
1696246657375,0.66137695,0.0065307617,0.6984253,-4.640625,5.484375,-0.65625
1696246657393,0.82470703,-0.014953613,0.71136475,-8.5,5.34375,-2.84375
1696246657456,0.74316406,0.007019043,0.6625366,-10.234375,-1.515625,-1.0625
1696246657496,0.77075195,0.03363037,0.6234741,-6.25,-1.28125,-0.390625
1696246657515,0.78271484,0.05316162,0.69451904,-2.015625,-0.109375,-1.640625
1696246657555,0.7861328,0.01776123,0.69818115,0.5625,-0.046875,-0.84375
1696246657615,0.7487793,0.047302246,0.6715698,1.625,-0.75,0.421875
1696246657633,0.7668457,0.018737793,0.68255615,5.34375,0.984375,2.203125
1696246657674,0.7597656,0.023376465,0.6876831,6.78125,2.6875,2.40625
1696246657738,0.78125,0.01751709,0.66326904,10.609375,1.265625,1.59375
1696246657753,0.7741699,0.007019043,0.6720581,8.421875,-0.53125,2.03125
1696246657774,0.7919922,0.0072631836,0.65374756,9.875,3.421875,1.109375
1696246657814,0.87231445,-0.011779785,0.74432373,7.796875,-2.984375,2.828125
1696246657855,0.64941406,-0.054748535,0.7045288,4.671875,-4.59375,4.203125
1696246657895,0.7302246,0.06072998,0.6168823,-3.84375,-2.359375,-1.53125
1696246657934,0.77685547,-0.003967285,0.7975464,-0.875,-0.875,1.640625
1696246657974,0.64868164,-0.050598145,0.69036865,-0.53125,1.78125,1.578125
1696246658013,0.6713867,0.030212402,0.6703491,-9.65625,0.375,-2.84375
1696246658055,0.7368164,-0.0032348633,0.6898804,-12.78125,-0.5,-3.71875
1696246658094,0.71728516,0.013366699,0.6793823,-15.0625,-2.953125,-2.921875
1696246658136,0.7626953,0.02508545,0.6564331,-12.015625,-2.296875,-2.5625
1696246658175,0.76293945,0.039001465,0.682312,-6.5625,0.046875,-0.15625
1696246658214,0.74780273,0.025817871,0.727478,-1.484375,0.359375,-0.625
1696246658255,0.80200195,0.038513184,0.7003784,-2.53125,3.140625,-1.0625
1696246658294,0.7998047,0.024108887,0.727478,-0.015625,2.890625,1.203125
1696246658334,0.7441406,0.018981934,0.69818115,-1.4375,0.796875,1.0625
1696246658375,0.7561035,0.039489746,0.63079834,-6.40625,1.390625,-0.296875
1696246658416,0.7819824,0.062194824,0.6630249,-3.640625,-0.0625,0.8125
1696246658454,0.75,0.030212402,0.64056396,-3.890625,-1.734375,0.078125
1696246658494,0.7910156,0.04510498,0.6022339,2.5625,-1.375,-1.59375
1696246658535,0.751709,0.07684326,0.63153076,8.890625,-0.828125,1.34375
1696246658575,0.8034668,0.04901123,0.666687,9.234375,-1.890625,1.9375
1696246658613,0.78271484,0.009216309,0.7074585,10.078125,-4.75,2.46875
1696246658655,0.734375,-7.9345703E-4,0.6991577,8.609375,-2.703125,1.375
1696246658695,0.7741699,0.008972168,0.6757202,5.5,-0.59375,-2.34375
1696246658733,0.7915039,0.04534912,0.6810913,0.5,-3.546875,0.59375
1696246658777,0.6633301,0.039733887,0.7094116,3.53125,-7.40625,-2.046875
1696246658813,0.6862793,-0.022521973,0.74627686,-5.828125,-3.59375,-4.375
1696246658854,0.7883301,0.009216309,0.65618896,-0.09375,0.640625,-3.0
1696246658894,0.7192383,0.028015137,0.69403076,-0.421875,-1.25,0.5
1696246658935,0.6984863,-0.028137207,0.69573975,0.40625,-1.15625,0.671875
1696246658974,0.75683594,0.026550293,0.69573975,-1.9375,0.828125,-0.65625
1696246659014,0.7626953,6.713867E-4,0.74139404,-0.09375,-2.09375,2.359375
1696246659055,0.7109375,0.016540527,0.6954956,0.828125,5.203125,2.15625
1696246659073,0.68408203,0.0033569336,0.69207764,-1.640625,3.890625,0.640625
1696246659135,0.77197266,-0.010559082,0.70526123,-1.859375,5.84375,0.234375
1696246659153,0.7402344,0.0045776367,0.6852417,-4.296875,2.859375,0.453125
1696246659218,0.7258301,0.026306152,0.6588745,-8.421875,-0.328125,0.953125
1696246659232,0.7470703,0.025817871,0.6400757,-6.453125,-1.609375,1.90625
1696246659276,0.78027344,0.058776855,0.67840576,-4.125,-1.15625,-0.421875
1696246659318,0.76171875,0.040222168,0.6893921,-1.34375,-0.296875,0.078125
1696246659356,0.81884766,0.042419434,0.7172241,1.5625,1.84375,1.125
1696246659396,0.7919922,0.024841309,0.6918335,-0.296875,-0.046875,-0.359375
1696246659434,0.7932129,0.013122559,0.6408081,-4.515625,0.390625,-0.296875
1696246659474,0.78344727,0.027282715,0.7050171,-5.03125,-1.65625,0.46875
1696246659518,0.72753906,0.023376465,0.6412964,-6.78125,-3.515625,0.859375
1696246659555,0.7915039,0.05657959,0.60369873,-1.578125,1.1875,-1.984375
1696246659619,0.7607422,0.07122803,0.60614014,4.109375,-2.28125,0.5625
1696246659633,0.720459,0.04876709,0.6918335,7.265625,-4.171875,2.46875
1696246659676,0.76416016,-0.008117676,0.69085693,4.21875,-5.109375,-0.328125
1696246659713,0.7697754,0.016052246,0.67230225,3.53125,-3.1875,-0.65625
1696246659754,0.7373047,0.039245605,0.6703491,1.828125,-4.078125,-0.40625
1696246659818,0.76171875,0.027526855,0.73236084,-0.46875,-3.921875,0.6875
1696246659834,0.6879883,0.015075684,0.73553467,-3.421875,-5.578125,-1.25
1696246659894,0.736084,0.046081543,0.6923218,-4.71875,-2.9375,-2.734375
1696246659913,0.7324219,0.070739746,0.7123413,-1.3125,-2.21875,-1.125
1696246659954,0.7060547,0.039245605,0.7201538,0.5625,-2.734375,-0.03125
1696246659993,0.72631836,0.021911621,0.6947632,0.6875,-0.03125,-0.1875
1696246660034,0.73999023,0.036071777,0.7145386,1.875,-1.0625,1.375
1696246660078,0.73291016,0.0289917,0.7091675,3.625,-0.15625,1.46875
1696246660114,0.74853516,0.014831543,0.6869507,-0.1875,2.515625,-0.96875
1696246660154,0.79174805,0.047546387,0.68963623,1.796875,-1.65625,1.140625
1696246660217,0.7416992,0.040222168,0.7369995,2.71875,2.640625,1.703125
1696246660254,0.7077637,0.016296387,0.7028198,1.21875,7.21875,0.53125
1696246660295,0.7832031,0.023132324,0.6876831,-1.109375,3.578125,1.4375
1696246660314,0.65722656,0.012878418,0.71307373,-0.28125,0.984375,1.84375
1696246660377,0.6972656,0.010192871,0.65252686,-4.90625,0.671875,1.234375
1696246660396,0.7866211,0.03265381,0.6625366,-0.609375,0.375,-0.359375
1696246660414,0.7504883,0.047302246,0.70428467,1.328125,-1.9375,-0.28125
1696246660456,0.7751465,0.0289917,0.6769409,0.359375,0.03125,-0.609375
1696246660494,0.78149414,0.038757324,0.6954956,1.140625,-0.625,0.703125
1696246660534,0.75634766,0.041931152,0.70526123,2.265625,-1.96875,0.703125
1696246660575,0.7597656,0.020690918,0.6889038,0.921875,-0.4375,0.453125
1696246660616,0.7348633,0.04119873,0.7050171,2.171875,-2.59375,1.421875
1696246660657,0.734375,0.013366699,0.66448975,2.421875,0.234375,1.375
1696246660696,0.74487305,0.053894043,0.682312,1.3125,-0.078125,-0.125
1696246660736,0.74072266,0.020202637,0.6930542,4.578125,-1.25,1.71875
1696246660775,0.7438965,0.018981934,0.6923218,3.140625,-1.3125,0.21875
1696246660815,0.7565918,0.032165527,0.69940186,4.234375,-3.375,1.15625
1696246660854,0.7531738,0.003112793,0.70111084,5.0625,0.359375,1.4375
1696246660897,0.8334961,0.04827881,0.684021,1.140625,-4.375,2.828125
1696246660934,0.72802734,-0.012512207,0.6754761,2.328125,-6.203125,4.46875
1696246660975,0.6809082,0.029724121,0.72528076,4.796875,0.625,1.4375
1696246661017,0.65966797,0.016540527,0.6635132,-0.890625,2.734375,-0.140625
1696246661055,0.7133789,0.0014038086,0.7145386,-3.25,4.90625,-0.90625
1696246661096,0.7155762,0.0016479492,0.6774292,-3.078125,-1.09375,-2.375
1696246661136,0.720459,0.024108887,0.6329956,-8.171875,-2.25,-1.0
1696246661177,0.7648926,0.03314209,0.7103882,-5.15625,-0.828125,-0.78125
1696246661215,0.7763672,0.026794434,0.71698,-1.34375,0.484375,-1.203125
1696246661257,0.8017578,0.049743652,0.7177124,0.015625,1.0625,-0.21875
1696246661295,0.78271484,0.01361084,0.70526123,1.09375,0.6875,1.296875
1696246661334,0.7380371,0.026062012,0.6871948,2.25,1.515625,1.90625
1696246661374,0.73583984,0.04437256,0.6786499,0.15625,1.859375,0.734375
1696246661414,0.7260742,0.02508545,0.6742554,3.875,0.859375,1.078125
1696246661454,0.75512695,0.023376465,0.63739014,6.4375,4.296875,0.875
1696246661494,0.7780762,0.06463623,0.6264038,21.078125,13.375,3.796875
1696246661535,0.795166,0.01751709,0.77020264,25.109375,3.0625,4.984375
1696246661575,0.75634766,-0.05645752,0.66082764,10.703125,-0.6875,4.34375
1696246661616,0.8972168,-0.03326416,0.7250366,7.5,-4.90625,-0.25
1696246661654,0.7229004,-0.05621338,0.63201904,3.3125,-4.578125,4.8125
1696246661696,0.72265625,0.0119018555,0.6310425,-1.59375,-2.65625,-1.578125
1696246661714,0.7573242,-3.0517578E-4,0.73651123,-4.484375,-0.890625,-0.328125
1696246661779,0.71899414,-0.019836426,0.64105225,-8.015625,-3.90625,-0.453125
1696246661794,0.7001953,-0.0076293945,0.66204834,-7.390625,-0.21875,-3.09375
1696246661834,0.7077637,-0.031066895,0.7033081,-9.96875,0.765625,-5.078125
1696246661893,0.77783203,-0.030090332,0.71380615,-13.96875,-3.390625,-7.28125
1696246661914,0.7524414,0.0119018555,0.67889404,-16.546875,-4.78125,-3.75
1696246661955,0.7583008,0.022155762,0.69158936,-12.578125,-3.765625,-1.59375
1696246661993,0.76416016,0.02923584,0.68011475,-8.484375,-1.0625,-1.9375
1696246662035,0.7788086,0.041931152,0.7008667,-5.390625,0.859375,0.125
1696246662075,0.7348633,0.026062012,0.7103882,-2.53125,0.90625,1.453125
1696246662115,0.72558594,0.022399902,0.6967163,-4.34375,1.59375,-0.03125
1696246662156,0.79003906,0.04949951,0.6832886,-3.546875,0.265625,-1.734375
1696246662194,0.7565918,0.038757324,0.68084717,-4.3125,-0.53125,1.21875
1696246662234,0.75927734,0.032409668,0.66571045,-4.28125,0.75,0.71875
1696246662276,0.77734375,0.04901123,0.6847534,-3.671875,0.84375,0.359375
1696246662313,0.76123047,0.04510498,0.66156006,-3.84375,-1.953125,0.9375
1696246662355,0.76904297,0.057800293,0.6430054,-0.984375,-1.75,-0.796875
1696246662416,0.732666,0.05633545,0.6610718,5.40625,-2.078125,-0.25
1696246662434,0.73168945,0.07952881,0.6359253,5.140625,-1.4375,1.15625
1696246662496,0.7897949,0.035827637,0.66156006,5.234375,-2.734375,0.75
1696246662535,0.7297363,-0.0056762695,0.7340698,8.296875,-4.703125,0.875
1696246662553,0.7531738,0.023864746,0.71746826,0.953125,-0.171875,-1.59375
1696246662615,0.7817383,0.043395996,0.75164795,0.015625,-4.703125,-0.03125
1696246662634,0.75,0.016052246,0.7160034,-2.28125,-5.28125,-0.515625
1696246662696,0.7927246,0.035339355,0.6725464,-1.0625,-3.3125,-2.375
1696246662715,0.74194336,0.034851074,0.6947632,2.703125,-5.578125,0.046875
1696246662755,0.6713867,0.034851074,0.6871948,1.421875,-5.25,-0.484375
1696246662816,0.703125,0.031921387,0.71209717,2.109375,-2.953125,-0.9375
1696246662833,0.73095703,0.013366699,0.68548584,1.90625,-3.78125,-0.328125
1696246662874,0.6376953,0.039733887,0.6832886,1.234375,-5.234375,1.609375
1696246662914,0.75512695,0.005554199,0.69403076,-0.84375,-3.125,0.109375
1696246662977,0.65649414,0.050476074,0.7382202,2.34375,3.9375,-1.140625
1696246663016,0.69799805,0.04437256,0.78778076,1.40625,3.078125,3.40625
1696246663020,0.7385254,-0.050354004,0.78948975,-1.15625,4.921875,0.328125
1696246663056,0.68652344,0.030456543,0.6786499,-2.921875,5.703125,0.125
1696246663094,0.689209,0.05731201,0.7284546,-1.203125,3.65625,2.21875
1696246663136,0.7495117,-0.022033691,0.7086792,-2.828125,3.5,-0.453125
1696246663174,0.748291,0.051452637,0.64105225,-1.484375,4.421875,-1.609375
1696246663215,0.7644043,0.05316162,0.73773193,2.578125,-0.546875,1.921875
1696246663255,0.81518555,-0.026916504,0.64593506,3.765625,2.75,-0.515625
1696246663294,0.74438477,0.055603027,0.6564331,13.59375,1.984375,0.828125
1696246663334,0.82250977,0.02557373,0.73065186,13.59375,2.203125,2.578125
1696246663376,0.7697754,-0.016906738,0.6415405,12.53125,0.4375,3.71875
1696246663414,0.72558594,0.046569824,0.71209717,10.453125,-2.84375,4.390625
1696246663454,0.7956543,-0.051574707,0.7628784,2.0625,-5.953125,1.609375
1696246663496,0.70751953,-0.007385254,0.6276245,2.796875,-2.140625,0.390625
1696246663538,0.6328125,0.04437256,0.69451904,-1.28125,-1.65625,0.84375
1696246663576,0.8120117,-0.06866455,0.6950073,-2.171875,-0.640625,-1.34375
1696246663615,0.7036133,-0.014709473,0.68621826,-0.53125,-0.015625,-1.015625
1696246663657,0.6750488,0.007019043,0.70111084,-7.390625,0.21875,0.328125
1696246663697,0.76904297,-0.051086426,0.7494507,-12.09375,-0.015625,-3.84375
1696246663734,0.72680664,0.009216309,0.7106323,-17.390625,-1.53125,-3.421875
1696246663774,0.7236328,0.058532715,0.649353,-15.15625,-1.515625,-1.671875
1696246663814,0.76782227,0.049743652,0.6852417,-8.21875,2.265625,-0.359375
1696246663855,0.72143555,0.034851074,0.6859741,-2.796875,1.078125,-0.046875
1696246663895,0.74975586,0.04437256,0.6942749,-0.03125,1.75,-0.484375
1696246663936,0.78881836,0.04168701,0.6588745,2.71875,1.375,0.609375
1696246663975,0.7631836,0.026794434,0.70111084,4.21875,1.5,1.859375
1696246664014,0.77368164,0.011169434,0.6586304,6.265625,-0.03125,2.0
1696246664054,0.7548828,0.010681152,0.6654663,5.546875,1.9375,2.453125
1696246664094,0.7770996,0.016784668,0.696228,5.359375,-1.453125,1.640625
1696246664136,0.73706055,0.014831543,0.6930542,7.828125,-3.0,2.3125
1696246664174,0.78100586,0.029968262,0.65179443,9.859375,-2.546875,0.46875
1696246664214,0.732666,0.031433105,0.69281006,7.671875,-2.171875,3.25
1696246664254,0.7351074,0.001159668,0.71209717,6.78125,-1.046875,2.625
1696246664294,0.75390625,-0.0010375977,0.6901245,5.9375,-3.34375,2.21875
1696246664334,0.7270508,0.016296387,0.7247925,0.40625,-3.671875,1.265625
1696246664354,0.69384766,-0.011779785,0.73553467,-1.9375,1.65625,2.40625
1696246664396,0.7277832,-0.02911377,0.7001343,-2.1875,2.515625,-0.296875
1696246664458,0.703125,-0.0012817383,0.6869507,-6.578125,1.890625,-1.875
1696246664494,0.71875,-0.007385254,0.7040405,-10.765625,-0.453125,-4.265625
1696246664517,0.7451172,0.00970459,0.6884155,-14.921875,-1.53125,-6.265625
1696246664577,0.72924805,0.035339355,0.67718506,-13.484375,-1.859375,-3.359375
1696246664593,0.76708984,0.055847168,0.6876831,-7.25,-2.5,-0.234375
1696246664635,0.72924805,0.038269043,0.7157593,-5.390625,1.046875,0.421875
1696246664674,0.77441406,0.046081543,0.7157593,-2.453125,2.75,-0.4375
1696246664714,0.7841797,0.043151855,0.70599365,-0.8125,1.109375,0.4375
1696246664755,0.7597656,0.03753662,0.6947632,-0.921875,0.78125,0.984375
1696246664796,0.736084,0.030456543,0.6906128,-1.390625,0.03125,-0.328125
1696246664837,0.7570801,0.04144287,0.6793823,-1.84375,-0.234375,0.015625
1696246664876,0.7468262,0.053894043,0.6742554,-4.171875,-1.09375,0.078125
1696246664914,0.7236328,0.039001465,0.62908936,-3.65625,-1.0625,0.34375
1696246664954,0.80078125,0.034362793,0.6264038,5.515625,-1.015625,-0.328125
1696246664996,0.7595215,0.08099365,0.6046753,7.125,-0.359375,0.53125
1696246665037,0.7421875,0.050476074,0.7399292,11.78125,-5.3125,4.734375
1696246665075,0.73950195,0.0028686523,0.6881714,4.484375,-5.359375,0.765625
1696246665115,0.75268555,0.0211792,0.727478,6.6875,-2.46875,0.640625
1696246665154,0.7397461,0.019958496,0.72454834,4.15625,-2.46875,-0.609375
1696246665218,0.72924805,0.03729248,0.70428467,4.046875,-3.109375,1.0625
1696246665253,0.68408203,0.02166748,0.7379761,3.03125,-2.875,1.703125
1696246665273,0.7163086,0.015563965,0.71136475,-0.375,-2.828125,-0.953125
1696246665315,0.76049805,0.008728027,0.68743896,0.140625,-2.21875,-0.046875
1696246665356,0.7290039,0.019470215,0.7194214,2.34375,-1.703125,0.0
1696246665416,0.7109375,0.0040893555,0.7133179,0.21875,-2.359375,0.5
1696246665433,0.7519531,-0.0017700195,0.7062378,-1.5,-1.140625,-0.09375
1696246665476,0.73339844,0.005554199,0.69647217,0.265625,-1.984375,0.46875
1696246665516,0.7023926,0.049987793,0.72698975,-1.21875,4.234375,-0.015625
1696246665554,0.7314453,6.713867E-4,0.7333374,-0.53125,3.5625,0.21875
1696246665619,0.73291016,-0.020080566,0.7106323,-3.71875,2.328125,-0.765625
1696246665635,0.7199707,0.027770996,0.69573975,-3.484375,1.0,-0.421875
1696246665654,0.73413086,0.029724121,0.6828003,-3.703125,-0.3125,-0.359375
1696246665697,0.71777344,0.035827637,0.68914795,-3.75,-0.09375,-0.6875
1696246665735,0.7265625,0.030212402,0.7098999,-2.203125,-0.40625,-1.625
1696246665776,0.73291016,0.017028809,0.696228,-1.75,0.859375,-1.84375
1696246665814,0.7409668,0.02142334,0.6991577,-0.71875,1.671875,-0.765625
1696246665856,0.7331543,0.012878418,0.70111084,-0.578125,1.28125,-0.140625
1696246665894,0.7619629,0.019714355,0.70965576,0.65625,0.953125,-1.0
1696246665936,0.7607422,0.007507324,0.696228,-0.640625,-0.25,-1.046875
1696246665976,0.7458496,0.015563965,0.70721436,-1.0625,-1.90625,-0.6875
1696246666016,0.7504883,0.023864746,0.71868896,-0.5625,-1.578125,0.203125
1696246666056,0.74365234,0.02166748,0.6972046,-0.4375,-0.640625,0.390625
1696246666095,0.71875,0.02532959,0.71209717,1.25,-0.921875,1.34375
1696246666135,0.7368164,0.010437012,0.70111084,0.40625,-0.046875,0.875
1696246666175,0.7480469,0.02532959,0.6959839,-0.171875,-1.328125,-0.71875
1696246666215,0.7429199,0.019958496,0.7020874,-0.5,-1.546875,-0.640625
1696246666256,0.7380371,0.016296387,0.70184326,-0.234375,-1.25,0.078125
1696246666295,0.7290039,0.018005371,0.68548584,-1.046875,-0.28125,0.625
1696246666336,0.7416992,0.02508545,0.6972046,0.078125,-0.8125,0.46875
1696246666374,0.73217773,0.02142334,0.7055054,1.265625,-0.65625,0.328125
1696246666415,0.7531738,0.023132324,0.69940186,0.796875,-0.953125,-0.21875
1696246666455,0.73876953,0.019226074,0.71990967,0.859375,-1.203125,0.140625
1696246666496,0.7363281,0.01727295,0.699646,-0.546875,-1.125,0.421875
1696246666537,0.73779297,0.024108887,0.7206421,-0.203125,-0.53125,0.453125
1696246666574,0.73876953,0.022644043,0.70062256,-1.75,-0.078125,0.15625
1696246666616,0.732666,0.023620605,0.6893921,-1.546875,-0.671875,0.578125
1696246666655,0.7270508,0.022399902,0.69744873,-0.015625,-0.578125,0.765625
1696246666695,0.72680664,0.02166748,0.72210693,1.46875,-0.390625,0.578125
1696246666735,0.72924805,0.014587402,0.6991577,0.0625,-0.359375,-0.1875
1696246666777,0.74975586,0.022155762,0.69744873,-0.171875,-0.0625,0.0
1696246666814,0.7441406,0.016296387,0.70721436,0.140625,-0.921875,0.453125
1696246666854,0.7363281,0.022644043,0.70892334,-0.96875,-0.328125,0.4375
1696246666894,0.732666,0.024597168,0.697937,-0.625,-0.109375,-0.203125
1696246666957,0.73461914,0.022644043,0.7015991,0.09375,-0.25,-0.265625
1696246666975,0.736084,0.012878418,0.7003784,0.234375,-0.5625,0.46875
1696246666994,0.732666,0.024597168,0.70599365,0.6875,-0.203125,0.25
1696246667035,0.7248535,0.022888184,0.7062378,0.203125,-0.78125,0.375
1696246667095,0.732666,0.020446777,0.6991577,-0.1875,-0.375,-0.25
1696246667135,0.7277832,0.024108887,0.7206421,0.484375,-1.546875,-0.03125
1696246667153,0.73828125,0.018981934,0.72454834,0.0,-1.46875,-0.34375
1696246667215,0.74121094,0.014343262,0.6786499,-1.640625,0.21875,-0.40625
1696246667234,0.73217773,0.022644043,0.7211304,1.421875,0.46875,0.265625
1696246667275,0.7260742,0.0067749023,0.7001343,0.78125,-0.09375,0.53125
1696246667339,0.74560547,0.014587402,0.6989136,-0.4375,-0.109375,0.03125
1696246667355,0.7458496,0.014099121,0.70062256,-0.328125,-0.4375,0.203125
1696246667395,0.7355957,0.018493652,0.7062378,0.21875,-0.78125,0.359375
1696246667455,0.73779297,0.023376465,0.69696045,-0.265625,-0.421875,0.15625
1696246667473,0.74121094,0.021911621,0.7069702,-0.109375,-0.75,0.328125
1696246667515,0.7351074,0.01776123,0.7086792,0.484375,-0.84375,0.0625
1696246667555,0.7348633,0.022155762,0.70062256,-0.09375,-0.75,0.109375
1696246667595,0.7312012,0.018493652,0.7055054,0.140625,-0.75,0.390625
1696246667638,0.7307129,0.014099121,0.7040405,-0.03125,-0.296875,0.140625
1696246667674,0.72924805,0.016784668,0.71209717,0.65625,-1.3125,0.40625
1696246667715,0.74194336,0.015075684,0.7086792,-0.0625,-0.84375,0.1875
1696246667755,0.74365234,0.020202637,0.68182373,-1.765625,0.65625,-0.171875
1696246667794,0.72387695,0.019226074,0.71746826,0.75,0.0,0.234375
1696246667835,0.734375,0.013366699,0.70306396,0.890625,-0.265625,0.328125
1696246667876,0.7409668,0.01751709,0.7028198,-0.265625,-0.234375,0.078125
1696246667915,0.73876953,0.0138549805,0.6991577,0.453125,-0.484375,0.234375
1696246667977,0.7312012,0.021911621,0.71698,0.359375,-0.265625,0.21875
1696246667994,0.7409668,0.019226074,0.69940186,-0.015625,-0.25,0.0625
1696246668036,0.7336426,0.0099487305,0.7028198,-0.3125,-0.53125,0.21875
1696246668098,0.7314453,0.011169434,0.713562,0.578125,-0.640625,0.1875
1696246668135,0.734375,0.011413574,0.7015991,-0.078125,-0.84375,0.359375
1696246668153,0.7324219,0.018737793,0.7045288,-0.015625,-0.75,0.484375
1696246668220,0.72802734,0.019470215,0.7081909,0.0,-0.734375,0.421875
1696246668256,0.74121094,0.021911621,0.70062256,-0.640625,-0.59375,0.21875
1696246668274,0.7363281,0.019226074,0.70965576,0.015625,-1.046875,0.125
1696246668294,0.73583984,0.022644043,0.7116089,-0.046875,-1.171875,0.15625
1696246668335,0.7385254,0.010925293,0.6815796,-1.65625,0.09375,0.109375
1696246668376,0.7260742,0.02947998,0.7313843,1.140625,0.21875,0.125
1696246668414,0.73413086,0.009460449,0.7050171,0.265625,-0.1875,0.515625
1696246668454,0.7373047,0.020202637,0.6976929,-0.21875,-0.4375,-0.109375
1696246668494,0.73950195,0.01727295,0.70599365,-0.46875,-0.5625,0.0625
1696246668534,0.7348633,0.009460449,0.70648193,-0.03125,-0.40625,0.265625
1696246668574,0.7385254,0.016296387,0.6967163,-0.703125,-0.203125,0.046875
1696246668614,0.73217773,0.019470215,0.7128296,-0.1875,-0.390625,0.15625
1696246668653,0.7368164,0.010437012,0.70721436,0.4375,-0.578125,0.28125
1696246668697,0.73828125,0.015808105,0.69744873,0.0,-0.59375,0.359375
1696246668734,0.72509766,0.012634277,0.70428467,0.140625,-0.515625,0.28125
1696246668774,0.7385254,0.018737793,0.70526123,-0.21875,-0.46875,0.328125
1696246668814,0.7414551,0.020202637,0.697937,-0.4375,-0.40625,0.078125
1696246668853,0.7253418,0.015808105,0.71551514,0.921875,-1.234375,0.359375
1696246668896,0.7429199,0.026794434,0.7147827,-0.3125,-0.328125,0.015625
1696246668936,0.7416992,0.01361084,0.6786499,-1.328125,0.140625,0.0625
1696246668974,0.72924805,0.025817871,0.70892334,0.6875,-0.046875,0.203125
1696246669017,0.72875977,0.013122559,0.7094116,1.09375,-0.328125,0.3125
1696246669055,0.7355957,0.015563965,0.6923218,-0.171875,-0.53125,-0.140625
1696246669094,0.73535156,0.01776123,0.7111206,-0.28125,-0.59375,0.21875
1696246669135,0.7302246,0.018737793,0.69696045,-0.703125,-0.34375,0.21875
1696246669174,0.7458496,0.020690918,0.6889038,-0.46875,-0.578125,-0.03125
1696246669217,0.7390137,0.018005371,0.70062256,-0.34375,-0.71875,0.234375
1696246669254,0.7265625,0.018249512,0.71551514,0.53125,-0.296875,0.34375
1696246669296,0.73779297,0.0045776367,0.699646,0.15625,-0.828125,0.453125
1696246669334,0.7297363,0.0119018555,0.7067261,0.296875,-0.65625,0.53125
1696246669376,0.7294922,0.016784668,0.70648193,-0.03125,-0.390625,0.328125
1696246669414,0.7338867,0.018493652,0.69818115,-0.375,-0.46875,0.109375
1696246669454,0.7355957,0.02166748,0.6984253,-0.46875,-0.671875,0.0625
1696246669494,0.73413086,0.02142334,0.71258545,0.234375,-0.46875,0.234375
1696246669534,0.7402344,0.0099487305,0.70721436,0.375,-0.59375,0.359375
1696246669597,0.7475586,0.012878418,0.6815796,-1.375,0.0625,-0.015625
1696246669615,0.7307129,0.014831543,0.696228,-0.109375,-0.796875,0.515625
1696246669634,0.73828125,0.01776123,0.69940186,-0.375,-0.15625,0.421875
1696246669676,0.7272949,0.014587402,0.72650146,1.453125,-0.078125,0.1875
1696246669735,0.7348633,0.008728027,0.701355,0.015625,-0.390625,0.015625
1696246669753,0.73583984,0.013366699,0.7091675,-0.140625,-0.375,0.078125
1696246669795,0.7368164,0.015075684,0.7040405,-0.40625,-0.5,0.359375
1696246669834,0.73999023,0.018737793,0.70233154,-0.015625,-0.484375,0.21875
1696246669874,0.73999023,0.020935059,0.69866943,-0.453125,-0.296875,0.21875
1696246669914,0.734375,0.016540527,0.7045288,0.359375,-0.5,0.3125
1696246669955,0.7363281,0.012145996,0.7045288,0.65625,-0.734375,0.3125
1696246670018,0.73999023,0.0138549805,0.69744873,-0.1875,-0.578125,0.171875
1696246670033,0.7355957,0.023376465,0.70648193,0.0,-0.546875,0.15625
1696246670076,0.7368164,0.022644043,0.70721436,-0.125,-0.59375,0.125
1696246670116,0.72924805,0.012878418,0.7091675,-0.15625,-0.625,0.0625
1696246670176,0.7402344,0.014587402,0.7050171,-0.046875,-0.625,0.203125
1696246670194,0.73291016,0.0119018555,0.7003784,-0.078125,-0.53125,0.3125
1696246670237,0.73950195,0.015563965,0.69866943,0.421875,-0.515625,0.21875
1696246670298,0.7348633,0.018981934,0.7172241,0.765625,-1.046875,0.328125
1696246670314,0.7441406,0.016052246,0.6913452,-1.671875,0.34375,-0.15625
1696246670356,0.7351074,0.016540527,0.6930542,-0.96875,-0.375,0.078125
1696246670395,0.7336426,0.020202637,0.7062378,-0.25,-0.046875,0.28125
1696246670438,0.7355957,0.013122559,0.7213745,0.984375,-0.078125,0.25
1696246670474,0.73876953,0.010437012,0.6959839,0.125,-0.4375,0.15625
1696246670516,0.7416992,0.017028809,0.70648193,0.0,-0.390625,0.328125
1696246670555,0.7338867,0.012145996,0.70062256,-0.390625,-0.484375,0.484375
1696246670596,0.7397461,0.022644043,0.696228,-0.140625,-0.46875,0.28125
1696246670636,0.73657227,0.017028809,0.699646,-0.515625,-0.453125,0.125
1696246670696,0.73095703,0.020202637,0.7145386,0.03125,-0.53125,0.125
1696246670713,0.73583984,0.010192871,0.70843506,0.203125,-0.546875,0.375
1696246670778,0.7380371,0.019470215,0.7025757,-0.234375,-0.65625,0.328125
1696246670816,0.73339844,0.012878418,0.70965576,-0.171875,-0.484375,0.46875
1696246670854,0.732666,0.010192871,0.69940186,-0.09375,-0.421875,0.25
1696246670916,0.736084,0.021911621,0.7040405,-0.390625,-0.703125,0.1875
1696246670919,0.7331543,0.016540527,0.70355225,0.0625,-0.234375,0.390625
1696246670933,0.7314453,0.019470215,0.70111084,0.390625,-0.546875,0.34375
1696246670974,0.7312012,0.020690918,0.70526123,0.75,-0.125,0.484375
1696246671013,0.74072266,0.0072631836,0.7062378,0.671875,-0.78125,0.21875
1696246671056,0.7270508,0.011169434,0.71258545,0.78125,-0.25,0.5
1696246671095,0.73461914,0.018493652,0.6991577,-0.015625,0.46875,0.25
1696246671135,0.7294922,0.012390137,0.7106323,0.15625,-0.21875,0.21875
1696246671180,0.734375,0.014587402,0.7225952,-0.125,1.390625,0.0
1696246671214,0.76416016,0.00970459,0.697937,-3.8125,3.890625,0.421875
1696246671258,0.7739258,0.019470215,0.7406616,-3.5625,1.984375,-0.328125
1696246671294,0.74902344,0.024353027,0.7079468,-6.15625,0.109375,-0.609375
1696246671335,0.75390625,0.016296387,0.7079468,-6.859375,1.78125,-0.328125
1696246671375,0.76782227,0.03265381,0.68743896,-5.8125,0.328125,-0.609375
1696246671415,0.7375488,0.034851074,0.6749878,-4.875,-2.671875,-0.78125
1696246671457,0.73291016,0.046325684,0.6390991,-2.765625,-4.359375,0.359375
1696246671494,0.74194336,0.035583496,0.62420654,3.390625,-0.1875,1.046875
1696246671535,0.7583008,0.047058105,0.56903076,9.3125,0.71875,1.28125
1696246671578,0.720459,0.07904053,0.7255249,15.203125,-10.28125,2.671875
1696246671615,0.69799805,-0.043029785,0.7123413,10.578125,-9.765625,3.46875
1696246671657,0.7102051,-0.022766113,0.70184326,6.203125,-4.578125,-0.625
1696246671696,0.73779297,0.003112793,0.76434326,8.71875,-1.75,0.953125
1696246671735,0.68847656,0.0021362305,0.7411499,2.5625,-1.234375,3.484375
1696246671774,0.7207031,0.030456543,0.73724365,1.21875,1.171875,2.4375
1696246671816,0.73657227,0.00579834,0.7374878,0.765625,0.421875,1.203125
1696246671855,0.73657227,0.0138549805,0.7218628,-1.03125,0.90625,0.03125
1696246671894,0.75390625,0.009460449,0.69573975,-0.40625,-0.546875,1.328125
1696246671936,0.73339844,0.01751709,0.6376343,-2.015625,2.71875,1.578125
1696246671974,0.67529297,0.08660889,0.8954468,5.859375,8.09375,2.09375
1696246672015,0.69091797,-0.06964111,0.71698,-1.921875,4.328125,2.609375
1696246672055,0.7194824,-0.0178833,0.6893921,-3.671875,6.546875,0.65625
1696246672096,0.7248535,0.019226074,0.72088623,-4.765625,1.328125,1.109375
1696246672135,0.72753906,-0.014465332,0.65838623,-6.5,-0.984375,0.0625
1696246672174,0.7734375,0.046325684,0.6798706,-3.140625,-1.171875,-2.59375
1696246672258,0.78881836,0.066101074,0.67767334,0.546875,0.21875,-0.703125
1696246672275,0.78149414,0.059265137,0.73846436,1.5625,-0.375,0.546875
1696246672279,0.7595215,0.024841309,0.69403076,4.546875,-1.796875,2.4375
1696246672316,0.73583984,0.009216309,0.6835327,4.046875,-0.9375,2.40625
1696246672355,0.73876953,0.04925537,0.6991577,3.671875,-2.90625,3.375
1696246672396,0.7380371,0.00579834,0.69036865,4.125,-3.46875,4.40625
1696246672434,0.76000977,-0.020324707,0.559021,0.984375,-1.78125,4.421875
1696246672500,0.73876953,0.041931152,0.8900757,2.859375,0.0625,3.8125
1696246672515,0.62939453,-0.009094238,0.6779175,-1.0625,2.53125,-0.96875
1696246672555,0.7607422,0.014587402,0.732605,-3.234375,3.828125,-1.171875
1696246672616,0.74731445,-0.0032348633,0.7067261,-3.0,-1.390625,-1.03125
1696246672655,0.73876953,0.0119018555,0.6950073,-3.59375,0.28125,-2.28125
1696246672674,0.751709,0.026062012,0.6696167,-3.453125,-0.953125,-2.765625
1696246672736,0.7624512,0.06414795,0.6889038,-1.1875,0.65625,-0.703125
1696246672755,0.75512695,0.034606934,0.6847534,2.296875,0.171875,1.625
1696246672817,0.74658203,0.04852295,0.68670654,1.53125,-1.359375,1.53125
1696246672833,0.7253418,0.024353027,0.71087646,3.6875,-2.4375,3.296875
1696246672875,0.763916,0.043884277,0.63201904,-0.109375,-0.375,1.953125
1696246672936,0.8544922,0.0446167,0.7362671,7.34375,5.671875,3.03125
1696246672954,0.6220703,-0.05718994,0.7470093,2.046875,-10.53125,2.75
1696246673017,0.6608887,0.03363037,0.66278076,-5.359375,0.3125,-0.640625
1696246673056,0.7805176,0.016784668,0.72161865,-9.015625,1.21875,-3.578125
1696246673097,0.66381836,-0.018859863,0.711853,-11.953125,-3.515625,-4.203125
1696246673114,0.70092773,0.043640137,0.69744873,-15.609375,-1.234375,-9.328125
1696246673155,0.7492676,0.07342529,0.64276123,-12.34375,-0.3125,-5.375
1696246673217,0.7495117,0.08709717,0.6732788,-5.265625,1.8125,-2.5625
1696246673235,0.7939453,0.06390381,0.7206421,1.609375,2.4375,-1.421875
1696246673276,0.7585449,0.04168701,0.72332764,0.859375,3.484375,0.90625
1696246673316,0.7775879,0.03265381,0.7406616,0.53125,1.90625,1.109375
1696246673354,0.74560547,0.02947998,0.7411499,-3.453125,-0.40625,0.765625
1696246673397,0.7373047,0.034606934,0.6762085,-7.78125,-1.078125,0.0
1696246673436,0.72509766,0.05291748,0.64715576,-7.578125,-0.640625,-0.796875
1696246673475,0.79174805,0.10614014,0.67523193,-2.34375,-3.3125,0.546875
1696246673540,0.77197266,0.032409668,0.5302124,6.265625,-0.75,0.171875
1696246673555,0.72314453,0.14105225,0.6884155,15.46875,-4.34375,2.046875
1696246673575,0.7607422,0.0038452148,0.70477295,10.765625,-7.609375,3.6875
1696246673614,0.71606445,-0.06842041,0.68914795,7.359375,-6.671875,1.65625
1696246673656,0.7414551,0.004333496,0.71136475,5.21875,-2.59375,1.265625
1696246673695,0.7602539,0.08734131,0.7040405,3.375,-4.171875,2.703125
1696246673734,0.70654297,0.057800293,0.7440796,2.46875,-3.390625,5.359375
1696246673776,0.72998047,0.032165527,0.6991577,-0.609375,0.40625,-0.125
1696246673814,0.74194336,0.08074951,0.7379761,3.875,-2.921875,0.828125
1696246673855,0.7414551,0.018005371,0.6259155,1.140625,3.53125,1.875
1696246673894,0.79541016,0.05316162,0.7357788,4.21875,2.40625,1.796875
1696246673935,0.6723633,-0.04449463,0.71429443,2.09375,3.265625,0.6875
1696246673975,0.6748047,0.005065918,0.730896,-0.578125,4.78125,-0.515625
1696246674014,0.75146484,0.0033569336,0.7062378,-1.09375,0.703125,1.6875
1696246674056,0.7194824,-0.016174316,0.65960693,-2.859375,-0.734375,-0.3125
1696246674095,0.736084,0.06048584,0.6679077,-3.078125,0.171875,-2.5
1696246674134,0.7766113,0.086364746,0.6913452,-1.4375,-0.796875,-1.046875
1696246674174,0.8005371,0.050476074,0.70477295,0.375,-1.234375,-0.09375
1696246674214,0.75268555,0.04486084,0.7391968,3.015625,-1.8125,0.5625
1696246674254,0.7373047,0.051208496,0.6876831,3.359375,-2.40625,1.53125
1696246674294,0.7648926,0.03729248,0.66522217,2.515625,-1.53125,1.609375
1696246674334,0.7404785,0.022888184,0.7279663,2.828125,-3.671875,3.234375
1696246674375,0.6994629,9.1552734E-4,0.699646,-0.140625,-1.625,3.828125
1696246674415,0.8195801,0.070495605,0.7196655,0.859375,4.25,-1.921875
1696246674455,0.6784668,-0.017150879,0.75042725,2.96875,-6.578125,0.453125
1696246674495,0.62890625,0.029968262,0.69940186,0.109375,2.03125,0.109375
1696246674535,0.7624512,0.018005371,0.7172241,-2.390625,3.9375,-1.671875
1696246674575,0.7302246,0.0021362305,0.6967163,-4.515625,-2.859375,-1.75
1696246674614,0.73168945,0.036071777,0.6581421,-6.046875,-3.109375,-3.03125
1696246674654,0.7636719,0.062194824,0.6845093,-2.515625,0.84375,-1.828125
1696246674695,0.76708984,0.05999756,0.6659546,-0.140625,0.5625,-0.40625
1696246674735,0.7504883,0.048034668,0.70184326,4.453125,-0.265625,1.640625
1696246674776,0.72265625,0.018981934,0.697937,6.140625,0.5,2.84375
1696246674815,0.7565918,0.034606934,0.65374756,4.328125,1.15625,1.46875
1696246674856,0.7651367,0.049987793,0.6925659,8.5,-0.640625,3.546875
1696246674875,0.8093262,0.05633545,0.7728882,14.171875,12.015625,4.703125
1696246674918,0.6394043,0.0033569336,0.7040405,7.375,4.265625,1.671875
1696246674955,0.7331543,-0.027648926,0.74676514,-7.296875,-0.296875,-3.015625
1696246674995,0.8005371,-0.035461426,0.70965576,-4.578125,-0.203125,-0.515625
1696246675035,0.6767578,0.006286621,0.68670654,-6.828125,-2.078125,-1.734375
1696246675077,0.70947266,0.039245605,0.65252686,-13.828125,-2.421875,-10.796875
1696246675115,0.779541,0.034851074,0.66864014,-20.359375,-6.34375,-4.125
1696246675176,0.8112793,0.055603027,0.66815186,-14.265625,-3.78125,-2.625
1696246675214,0.7602539,0.035339355,0.7045288,-6.6875,-1.53125,-1.453125
1696246675236,0.7585449,0.03729248,0.7106323,-3.984375,1.59375,0.1875
1696246675275,0.7158203,0.039245605,0.72943115,-2.625,2.203125,0.875
1696246675336,0.7583008,0.046081543,0.7020874,-4.828125,1.59375,0.078125
1696246675352,0.7919922,0.039245605,0.70721436,-6.53125,0.015625,0.21875
1696246675396,0.7211914,0.0524292,0.68084717,-9.28125,-2.890625,0.59375
1696246675456,0.7636719,0.10418701,0.64471436,-4.546875,-0.390625,-1.59375
1696246675474,0.74780273,0.08294678,0.5438843,7.078125,-1.921875,1.578125
1696246675515,0.70092773,0.14593506,0.70599365,14.5625,-3.3125,1.3125
1696246675558,0.7192383,-6.1035156E-5,0.70428467,11.875,-6.671875,3.234375
1696246675618,0.7463379,-0.028381348,0.7111206,7.65625,-4.515625,-0.265625
1696246675656,0.72021484,-0.0044555664,0.70306396,3.875,-2.625,-0.046875
1696246675674,0.7729492,0.07220459,0.7213745,2.796875,-2.6875,0.6875
1696246675715,0.7121582,0.07342529,0.7579956,2.0,-5.265625,3.4375
1696246675775,0.73291016,0.05731201,0.6552124,-2.765625,3.796875,-0.421875
1696246675795,0.7531738,0.08758545,0.74139404,3.828125,0.359375,-0.0625
1696246675858,0.7050781,-0.018615723,0.70477295,4.3125,-0.734375,2.296875
1696246675873,0.75878906,0.028015137,0.7001343,1.15625,-0.140625,-0.90625
1696246675916,0.7277832,-0.0029907227,0.72772217,2.03125,-1.828125,1.125
1696246675977,0.7055664,0.016540527,0.68255615,1.03125,-0.59375,1.046875
1696246675996,0.751709,0.07269287,0.6532593,2.734375,-1.15625,1.65625
1696246676038,0.7524414,0.07757568,0.91204834,2.234375,5.046875,3.328125
1696246676074,0.68652344,-0.020324707,0.70355225,-1.296875,0.171875,-0.703125
1696246676116,0.7487793,0.0289917,0.7050171,-2.859375,6.234375,-0.328125
1696246676178,0.7158203,0.039001465,0.72772217,-2.9375,0.15625,-0.1875
1696246676193,0.7272949,0.03387451,0.6503296,-6.578125,-0.734375,-2.515625
1696246676215,0.76293945,0.031677246,0.6832886,-3.140625,-1.375,-2.03125
1696246676255,0.75927734,0.05633545,0.7003784,0.203125,-1.0,-0.953125
1696246676295,0.72509766,0.029968262,0.69281006,1.546875,-1.03125,0.0
1696246676335,0.76123047,0.038269043,0.69818115,0.875,-0.375,1.640625
1696246676374,0.720459,0.020935059,0.7098999,4.59375,-0.5625,2.453125
1696246676414,0.7512207,0.028015137,0.7020874,0.796875,-2.390625,1.578125
1696246676455,0.7302246,0.043640137,0.7067261,5.921875,-0.890625,2.734375
1696246676496,0.75390625,0.026062012,0.69744873,0.9375,-1.453125,2.4375
1696246676534,0.7819824,0.06976318,0.72454834,-1.28125,-3.328125,1.15625
1696246676575,0.6916504,0.009216309,0.6713257,-2.21875,-2.765625,3.9375
1696246676615,0.68530273,0.070495605,0.60076904,-6.265625,2.1875,-2.21875
1696246676654,0.77368164,0.042663574,0.697937,1.515625,-1.015625,-1.328125
1696246676695,0.7595215,0.022155762,0.7494507,0.890625,1.28125,-0.109375
1696246676734,0.7241211,0.01361084,0.7081909,-1.15625,2.546875,0.421875
1696246676774,0.7199707,0.03338623,0.7103882,-3.359375,0.96875,-1.3125
1696246676815,0.75561523,0.0289917,0.6688843,-3.84375,4.296875,-1.625
1696246676855,0.7988281,0.070007324,0.68792725,-2.09375,0.328125,-0.703125
1696246676896,0.7507324,0.02508545,0.67523193,0.234375,-0.015625,0.875
1696246676935,0.7705078,0.061706543,0.6828003,3.5625,2.203125,0.859375
1696246676976,0.73339844,0.042175293,0.6876831,3.78125,0.25,1.359375
1696246677015,0.7363281,0.013122559,0.66400146,4.125,0.546875,2.28125
1696246677055,0.76831055,0.04925537,0.64471436,3.703125,-1.28125,0.765625
1696246677096,0.7373047,0.04559326,0.6696167,3.390625,-2.453125,1.84375
1696246677136,0.7722168,0.0211792,0.6083374,4.609375,0.921875,2.734375
1696246677177,0.8261719,0.05731201,0.8563843,-2.953125,-3.84375,0.734375
1696246677214,0.69555664,0.002380371,0.6576538,-4.015625,2.4375,0.625
1696246677255,0.7697754,0.026550293,0.7247925,-7.921875,0.359375,-2.4375
1696246677294,0.7258301,0.013122559,0.7091675,-7.03125,-3.71875,-3.0625
1696246677336,0.7163086,0.0446167,0.66986084,-12.59375,-3.015625,-5.5625
1696246677374,0.72802734,0.04852295,0.6696167,-12.53125,-6.546875,-4.03125
1696246677415,0.77856445,0.07513428,0.6791382,-6.5,-3.34375,-2.8125
1696246677455,0.7355957,0.062438965,0.70428467,-1.9375,-1.03125,-1.46875
1696246677494,0.75097656,0.04046631,0.7418823,-0.703125,0.53125,-1.078125
1696246677514,0.7429199,0.06121826,0.71087646,-2.78125,2.71875,0.359375
1696246677560,0.76000977,0.0680542,0.73236084,-0.890625,4.0625,-0.1875
1696246677597,0.7458496,0.038757324,0.6935425,-1.015625,1.625,-0.296875
1696246677639,0.7414551,0.05999756,0.68426514,-3.109375,0.390625,0.8125
1696246677678,0.74438477,0.08099365,0.68914795,-4.75,-1.203125,-0.078125
1696246677714,0.73339844,0.066589355,0.60443115,-3.921875,-2.015625,-0.578125
1696246677760,0.7800293,0.07513428,0.65057373,7.578125,-0.625,-0.8125
1696246677793,0.7207031,0.08123779,0.6141968,14.4375,-2.21875,2.890625
1696246677835,0.7609863,0.035095215,0.67108154,12.078125,-5.65625,2.15625
1696246677879,0.7697754,-0.027404785,0.72088623,6.984375,-4.15625,2.0
1696246677916,0.72216797,0.007751465,0.70965576,0.265625,-3.796875,1.859375
1696246677977,0.8015137,0.062194824,0.6571655,-2.234375,-1.328125,-0.328125
1696246678016,0.7727051,0.058288574,0.6930542,-1.125,-4.359375,2.21875
1696246678058,0.68481445,0.027282715,0.6984253,-0.671875,4.4375,-0.640625
1696246678074,0.7832031,0.17791748,0.727478,-0.9375,0.3125,0.0625
1696246678117,0.7006836,0.006286621,0.7086792,4.0,-2.78125,3.90625
1696246678178,0.72314453,0.03753662,0.6420288,2.015625,6.015625,-0.15625
1696246678194,0.74194336,0.0045776367,0.73114014,2.21875,-1.421875,0.953125
1696246678257,0.6904297,-0.021057129,0.7147827,-2.984375,0.359375,0.4375
1696246678275,0.75805664,0.035095215,0.69085693,-2.171875,4.6875,0.0
1696246678318,0.72998047,0.06585693,0.67645264,-3.15625,1.078125,0.453125
1696246678357,0.7385254,0.038024902,0.711853,-1.484375,-1.109375,-0.390625
1696246678398,0.7590332,0.061462402,0.67840576,0.40625,-0.3125,-0.140625
1696246678456,0.7705078,0.0758667,0.6845093,1.921875,-0.15625,0.28125
1696246678475,0.779541,0.06878662,0.6744995,3.078125,-0.03125,0.609375
1696246678517,0.7553711,0.061706543,0.7003784,5.09375,-1.90625,1.8125
1696246678557,0.77124023,0.04559326,0.65740967,5.046875,0.046875,2.4375
1696246678618,0.77563477,0.04559326,0.652771,6.171875,-2.234375,2.640625
1696246678656,0.81762695,0.04559326,0.6847534,4.421875,3.25,3.953125
1696246678673,0.63671875,0.008728027,0.72406006,0.28125,-4.53125,0.90625
1696246678718,0.7619629,-0.007385254,0.6625366,-5.0,1.8125,-0.9375
1696246678777,0.73876953,0.029724121,0.7157593,-5.515625,-0.796875,-2.46875
1696246678795,0.72875977,0.070251465,0.64593506,-5.640625,0.15625,-2.375
1696246678814,0.78564453,0.061950684,0.71868896,-4.375,-1.5625,-1.1875
1696246678856,0.74658203,0.054138184,0.6598511,-1.359375,-0.484375,-0.21875
1696246678898,0.76708984,0.08709717,0.67401123,1.625,-0.53125,0.09375
1696246678935,0.7487793,0.035827637,0.7196655,4.046875,0.65625,1.171875
1696246678975,0.7512207,0.043640137,0.6593628,1.640625,1.921875,1.140625
1696246679015,0.7780762,0.04486084,0.66619873,4.75,0.5625,1.703125
1696246679054,0.7180176,0.051940918,0.62298584,5.484375,-1.1875,1.375
1696246679097,0.8688965,0.047546387,0.6376343,0.234375,0.984375,0.796875
1696246679135,0.7270508,0.0446167,0.73114014,4.03125,-0.15625,3.640625
1696246679174,0.6672363,-0.01373291,0.6618042,-1.328125,-0.984375,0.140625
1696246679216,0.77124023,0.03363037,0.6781616,-3.703125,1.546875,-2.0625
1696246679255,0.7558594,0.0368042,0.67889404,-5.515625,-0.4375,-2.09375
1696246679298,0.71069336,0.06390381,0.71429443,-11.0,0.578125,-3.984375
1696246679339,0.74560547,0.036315918,0.65960693,-9.359375,-5.078125,-3.9375
1696246679375,0.7468262,0.08074951,0.6713257,-4.1875,-4.421875,-3.578125
1696246679415,0.7529297,0.054870605,0.71795654,-2.4375,-3.46875,-1.03125
1696246679456,0.7414551,0.041931152,0.6942749,-0.53125,-1.8125,-1.25
1696246679497,0.80908203,0.042419434,0.713562,-0.921875,3.125,0.125
1696246679538,0.78393555,0.04901123,0.69940186,-3.171875,2.4375,0.71875
1696246679578,0.75,0.058532715,0.6959839,-4.453125,0.796875,-0.6875
1696246679615,0.74975586,0.07196045,0.6725464,-3.203125,0.4375,0.34375
1696246679655,0.7692871,0.06488037,0.6107788,-2.5,-1.09375,0.953125
1696246679695,0.77734375,0.05267334,0.618103,6.328125,-2.6875,0.5625
1696246679736,0.7233887,0.1071167,0.63690186,8.390625,-3.046875,0.703125
1696246679775,0.7751465,0.098083496,0.67889404,12.046875,-1.46875,3.578125
1696246679816,0.7155762,-0.0413208,0.7116089,7.1875,-9.484375,2.71875
1696246679855,0.7648926,-0.016906738,0.7164917,1.671875,-3.3125,-1.515625
1696246679896,0.748291,0.06414795,0.7116089,1.5,-2.1875,-0.234375
1696246679935,0.7314453,0.062438965,0.7218628,3.125,-4.515625,2.0
1696246679976,0.6887207,0.03338623,0.743103,-1.984375,-4.0,0.9375
1696246680014,0.7375488,0.04949951,0.6605835,-1.765625,1.03125,-2.03125
1696246680055,0.74658203,0.10491943,0.7033081,4.953125,5.609375,-0.046875
1696246680119,0.7199707,0.01751709,0.7045288,1.71875,-1.046875,1.78125
1696246680133,0.75146484,-0.03717041,0.7106323,-0.71875,5.328125,0.390625
1696246680177,0.73876953,0.034851074,0.6935425,0.21875,2.71875,0.875
1696246680193,0.75683594,0.023132324,0.68743896,0.703125,0.609375,1.21875
1696246680237,0.7109375,0.023620605,0.70355225,-0.71875,-0.0625,0.84375
1696246680276,0.763916,0.061706543,0.69403076,-0.921875,0.6875,-0.640625
1696246680315,0.7780762,0.051452637,0.6671753,0.328125,0.671875,0.125
1696246680355,0.7565918,0.0446167,0.6852417,1.453125,-0.09375,0.453125
1696246680416,0.77246094,0.031433105,0.6642456,1.5,-1.140625,-0.09375
1696246680455,0.7910156,0.028503418,0.670105,3.078125,-1.71875,1.40625
1696246680473,0.78125,0.036315918,0.711853,3.78125,-1.03125,2.421875
1696246680514,0.71606445,0.016540527,0.6989136,1.40625,-1.140625,2.21875
1696246680555,0.8535156,0.046081543,0.69866943,1.328125,-2.015625,0.328125
1696246680595,0.62841797,0.0072631836,0.6720581,5.875,-3.3125,4.734375
1696246680637,0.62646484,0.059020996,0.7350464,1.875,5.546875,0.15625
1696246680676,0.84399414,0.022399902,0.70062256,-1.734375,2.890625,-1.15625
1696246680715,0.69506836,-0.023010254,0.69940186,-1.109375,-3.734375,-0.625
1696246680755,0.70581055,0.03363037,0.6798706,-4.078125,-1.359375,-2.140625
1696246680816,0.74121094,0.03387451,0.71795654,-3.984375,-0.09375,-0.5
1696246680834,0.76782227,0.016784668,0.6642456,-3.84375,-0.75,-0.984375
1696246680874,0.7531738,0.04852295,0.7062378,0.578125,0.28125,-0.40625
1696246680935,0.7495117,0.043640137,0.6989136,0.453125,0.375,2.21875
1696246680976,0.7524414,0.026306152,0.70233154,2.671875,-0.859375,1.5
1696246680995,0.7319336,0.03289795,0.605896,8.5,-0.828125,3.890625
1696246681058,0.7480469,0.058776855,0.71502686,11.09375,1.453125,2.84375
1696246681097,0.80859375,0.025817871,0.6937866,9.375,3.75,4.203125
1696246681114,0.7937012,0.024353027,0.7196655,10.09375,1.6875,4.015625
1696246681156,0.6687012,-0.06768799,0.72454834,-1.578125,-6.640625,1.484375
1696246681196,0.7687988,-0.024719238,0.64837646,-5.671875,3.859375,-2.421875
1696246681236,0.78393555,0.019714355,0.67474365,-3.84375,2.0625,-2.046875
1696246681297,0.7504883,0.016296387,0.67401123,-7.859375,-1.09375,-3.953125
1696246681315,0.7451172,0.012634277,0.7184448,-12.765625,-3.234375,-6.40625
1696246681379,0.75024414,0.014587402,0.67767334,-18.15625,-7.65625,-6.546875
1696246681414,0.71850586,0.07879639,0.6547241,-15.46875,-6.03125,-4.859375
1696246681456,0.74658203,0.07513428,0.699646,-6.671875,-2.671875,-1.375
1696246681474,0.7763672,0.043884277,0.68621826,-4.71875,0.890625,-1.015625
1696246681494,0.7800293,0.04876709,0.7387085,-0.265625,1.1875,1.671875
1696246681536,0.72558594,0.035095215,0.6769409,-2.046875,1.40625,2.390625
1696246681575,0.76904297,0.061462402,0.6967163,-2.390625,3.28125,0.40625
1696246681617,0.7338867,0.05218506,0.680603,-2.296875,-0.875,0.640625
1696246681658,0.7368164,0.06317139,0.6876831,-0.421875,-3.109375,0.34375
1696246681695,0.7648926,0.0602417,0.6124878,4.25,-1.21875,-0.5
1696246681735,0.7475586,0.08880615,0.66864014,8.640625,-0.296875,1.84375
1696246681775,0.7145996,0.042419434,0.68182373,10.53125,-4.78125,3.1875
1696246681815,0.77734375,-0.0022583008,0.6991577,8.296875,-1.828125,1.234375
1696246681857,0.72753906,0.024353027,0.6715698,9.953125,-2.625,1.34375
1696246681895,0.7609863,0.04876709,0.6925659,18.734375,6.09375,1.140625
1696246681935,0.8383789,0.09564209,0.70648193,15.375,6.0625,2.59375
1696246681975,0.71362305,-0.039611816,0.79486084,4.046875,2.25,2.484375
1696246682016,0.6965332,-0.032043457,0.7411499,-3.609375,1.484375,-0.140625
1696246682055,0.7751465,0.02142334,0.66278076,-0.9375,-0.265625,0.640625
1696246682095,0.69018555,0.0018920898,0.6762085,-2.96875,0.9375,0.296875
1696246682136,0.75561523,-0.029846191,0.65960693,-5.53125,-1.640625,-2.375
1696246682176,0.7648926,0.019226074,0.668396,-1.40625,-2.171875,-1.109375
1696246682217,0.7565918,0.0016479492,0.68304443,0.203125,-2.1875,0.234375
1696246682256,0.77368164,0.011169434,0.67059326,-1.0,-1.078125,-0.5
1696246682294,0.78759766,0.018249512,0.70111084,1.78125,-1.6875,0.390625
1696246682334,0.75756836,0.010681152,0.666687,3.75,-0.703125,2.171875
1696246682375,0.8288574,0.028747559,0.6190796,10.703125,0.703125,2.734375
1696246682416,0.74780273,0.018005371,0.7079468,11.28125,-0.828125,4.75
1696246682458,0.6574707,-0.012512207,0.7133179,4.96875,3.765625,2.609375
1696246682494,0.78930664,0.020935059,0.697937,1.328125,1.765625,-2.953125
1696246682534,0.7402344,-0.06573486,0.7201538,0.171875,-0.734375,0.5
1696246682576,0.701416,-0.028625488,0.71868896,-4.125,-1.4375,-0.34375
1696246682615,0.7685547,-0.003967285,0.67181396,-10.046875,-0.9375,-3.25
1696246682658,0.77734375,-0.03253174,0.6828003,-9.59375,-0.96875,-1.984375
1696246682696,0.7573242,-0.00982666,0.6950073,-8.53125,-1.5,-2.953125
1696246682734,0.77856445,0.027770996,0.6820679,-8.109375,-2.109375,-2.078125
1696246682774,0.7553711,0.04486084,0.6950073,-8.640625,-1.5625,-1.015625
1696246682794,0.7402344,0.0072631836,0.6976929,-8.078125,0.921875,-0.21875
1696246682854,0.77124023,0.041931152,0.70965576,-6.828125,0.28125,-0.640625
1696246682875,0.763916,0.0446167,0.62127686,-5.609375,-1.09375,-1.28125
1696246682938,0.77441406,0.0289917,0.64227295,5.796875,-0.859375,-0.328125
1696246682954,0.76831055,0.039489746,0.6515503,14.65625,-0.890625,0.90625
1696246682996,0.8041992,0.018981934,0.61346436,21.0,1.5,2.390625
1696246683036,0.7531738,0.0053100586,0.69403076,21.953125,-0.359375,7.390625
1696246683077,0.7392578,-0.04815674,0.6876831,9.515625,0.296875,6.078125
1696246683115,0.7595215,-0.03668213,0.68914795,7.859375,-2.296875,1.703125
1696246683154,0.6960449,-0.011779785,0.701355,2.1875,-5.453125,2.421875
1696246683199,0.7241211,0.003112793,0.6901245,0.234375,-1.296875,0.46875
1696246683255,0.6826172,-0.0256958,0.7304077,-4.84375,-0.9375,2.25
1696246683276,0.7475586,-0.04937744,0.7279663,-8.5625,0.65625,-1.9375
1696246683318,0.7338867,-0.05645752,0.72454834,-7.25,1.703125,-2.3125
1696246683357,0.7409668,-0.0037231445,0.70355225,-9.796875,0.28125,-2.9375
1696246683395,0.76831055,0.005065918,0.7045288,-14.140625,-1.71875,-1.9375
1696246683455,0.7260742,0.0072631836,0.6613159,-9.40625,-2.078125,-0.65625
1696246683474,0.7595215,0.0446167,0.68182373,-7.28125,0.671875,-1.5625
1696246683538,0.77319336,0.04510498,0.6696167,-6.3125,0.375,-0.421875
1696246683554,0.7597656,0.02508545,0.67474365,-4.046875,0.296875,0.40625
1696246683594,0.72924805,0.038513184,0.668396,-3.109375,0.859375,-0.1875
