,timestamp,accel_x,accel_y,accel_z,gyro_x,gyro_y,gyro_z,ind
0,1696243227521,0.02368164,-0.987854,0.11273193,-3.671875,-1.140625,5.578125,0
1,1696243227561,-0.018310547,-0.9837036,0.12884521,0.734375,-2.984375,6.625,1
2,1696243227601,0.041015625,-0.9837036,0.11468506,3.984375,-2.453125,8.53125,2
3,1696243227641,0.14013672,-0.9631958,0.07122803,9.875,-7.40625,13.15625,3
4,1696243227681,0.15185547,-0.91729736,0.10028076,20.578125,-6.828125,19.796875,4
5,1696243227721,0.09301758,-0.8308716,0.07122803,25.046875,-5.453125,23.65625,5
6,1696243227761,0.13549805,-0.7366333,-0.0032348633,26.640625,-1.84375,29.5625,6
7,1696243227801,0.107421875,-0.6362915,0.015563965,33.8125,4.484375,36.6875,7
8,1696243227841,0.06274414,-0.61920166,-0.058654785,38.75,13.015625,42.265625,8
9,1696243227881,0.14526367,-0.536438,-0.190979,43.890625,24.203125,46.125,9
10,1696243227921,0.3725586,-0.47149658,-0.21099854,46.21875,28.859375,52.984375,10
11,1696243227961,0.5227051,-0.55670166,-0.36846924,48.8125,12.65625,52.203125,11
12,1696243228001,0.6599121,-0.6987915,-0.44366455,49.21875,9.828125,55.09375,12
13,1696243228041,0.6394043,-0.6382446,-0.4500122,37.34375,-1.8125,42.578125,13
14,1696243228081,0.71777344,-0.7161255,-0.49053955,28.0625,-6.984375,40.265625,14
15,1696243228121,0.532959,-0.7659302,-0.4800415,19.5,-9.921875,31.046875,15
16,1696243228161,0.5510254,-0.63116455,-0.42144775,12.546875,-8.78125,11.25,16
17,1696243228201,0.6320801,-0.6069946,-0.3809204,2.34375,-8.53125,4.265625,17
18,1696243228241,0.5124512,-0.65509033,-0.5117798,1.578125,-11.21875,-13.125,18
19,1696243228281,0.6154785,-0.64971924,-0.473938,-9.125,-13.6875,-25.21875,19
20,1696243228321,0.6027832,-0.69415283,-0.4968872,-15.8125,-11.90625,-34.078125,20
21,1696243228361,0.49853516,-0.86676025,-0.4397583,-22.765625,-11.0,-53.390625,21
22,1696243228401,0.61938477,-0.86676025,-0.4229126,-32.921875,-8.75,-59.296875,22
23,1696243228441,0.3544922,-1.020813,-0.39923096,-35.734375,-8.15625,-69.15625,23
24,1696243228481,0.44067383,-1.2490845,-0.33233643,-37.796875,-5.5,-70.9375,24
25,1696243228521,0.34814453,-1.3765259,-0.3196411,-32.296875,-1.328125,-73.890625,25
26,1696243228561,0.16430664,-1.36969,-0.2312622,-26.171875,6.921875,-73.40625,26
27,1696243228601,-0.04711914,-1.2832642,-0.034973145,-23.09375,9.34375,-64.390625,27
28,1696243228641,-0.1862793,-1.0752563,0.09295654,-38.796875,2.921875,-61.28125,28
29,1696243228681,-0.35766602,-0.81988525,0.12591553,-37.921875,-8.921875,-61.21875,29
30,1696243228721,-0.31591797,-0.63482666,0.25531006,-37.78125,-4.203125,-59.390625,30
31,1696243228761,-0.29833984,-0.59332275,0.15130615,-35.328125,-5.15625,-52.96875,31
32,1696243228801,-0.32495117,-0.5899048,0.30975342,-26.21875,-2.53125,-49.015625,32
33,1696243228841,-0.5024414,-0.6304321,0.25164795,-28.171875,9.671875,-47.078125,33
34,1696243228881,-0.48754883,-0.7349243,0.22869873,-24.15625,24.234375,-42.5625,34
35,1696243228921,-0.43725586,-0.8015747,0.26385498,-25.4375,28.421875,-42.28125,35
36,1696243228961,-0.6245117,-0.83184814,0.25897217,-24.84375,27.46875,-43.078125,36
37,1696243229001,-0.7072754,-0.8550415,0.39544678,-23.015625,22.375,-44.96875,37
38,1696243229041,-0.88549805,-0.83184814,0.36175537,-26.6875,13.953125,-45.484375,38
39,1696243229081,-0.99243164,-0.8543091,0.43084717,-29.03125,18.921875,-46.28125,39
40,1696243229121,-0.9602051,-0.70269775,0.42840576,-31.5,20.59375,-45.046875,40
41,1696243229161,-0.97021484,-0.5293579,0.4677124,-32.890625,19.03125,-42.59375,41
42,1696243229201,-0.9003906,-0.45513916,0.5529175,-23.4375,12.875,-41.84375,42
43,1696243229241,-0.8039551,-0.4644165,0.46795654,-23.890625,20.21875,-39.734375,43
44,1696243229281,-0.72924805,-0.34649658,0.6046753,-16.671875,19.015625,-39.046875,44
45,1696243229321,-0.7236328,-0.33770752,0.56658936,-26.203125,23.65625,-34.625,45
46,1696243229361,-0.64331055,-0.22418213,0.6727905,-24.265625,17.546875,-25.6875,46
47,1696243229401,-0.8840332,-0.28302002,0.66937256,-24.96875,18.40625,-13.359375,47
48,1696243229441,-0.7438965,-0.15142822,0.7050171,-27.34375,26.0625,-8.6875,48
49,1696243229481,-0.7565918,-0.042785645,0.885437,-20.3125,17.5625,-0.4375,49
50,1696243229521,-0.5944824,0.055358887,0.92303467,-10.203125,16.8125,7.40625,50
51,1696243229561,-0.6916504,-0.0056762695,0.97454834,2.421875,8.390625,11.296875,51
52,1696243229601,-0.56884766,-0.08477783,0.8781128,0.078125,6.25,8.734375,52
53,1696243229641,-0.48413086,-0.13775635,0.8200073,2.15625,8.0,6.28125,53
54,1696243229681,-0.47192383,-0.09185791,0.78533936,-1.40625,0.859375,1.09375,54
55,1696243229721,-0.43066406,-0.23345947,0.7992554,-11.6875,8.609375,1.125,55
56,1696243229761,-0.44067383,-0.042053223,0.6659546,-11.734375,-11.015625,-0.25,56
57,1696243229801,-0.51049805,0.07684326,0.5873413,-17.109375,5.328125,2.59375,57
58,1696243229841,-0.6027832,0.08709717,0.8617554,7.109375,-6.1875,21.75,58
59,1696243229881,-0.71899414,-0.14678955,0.85028076,19.546875,-10.640625,30.875,59
60,1696243229921,-0.9016113,-0.29278564,0.9225464,26.015625,-14.203125,28.625,60
61,1696243229961,-0.95654297,-0.20611572,0.94744873,43.875,-14.8125,38.34375,61
62,1696243230001,-0.89453125,-0.37652588,0.9476929,49.171875,-9.609375,48.21875,62
63,1696243230041,-0.7421875,-0.5396118,0.81292725,49.109375,-6.90625,45.921875,63
64,1696243230081,-0.6022949,-0.5803833,0.74871826,47.0,-8.15625,45.328125,64
65,1696243230121,-0.6508789,-0.628479,0.65374756,47.34375,-9.09375,43.78125,65
66,1696243230161,-0.5625,-0.6609497,0.5932007,42.6875,-2.140625,43.640625,66
67,1696243230201,-0.51708984,-0.6980591,0.5282593,42.984375,-3.65625,41.5,67
68,1696243230241,-0.44848633,-0.7424927,0.46136475,44.796875,-6.046875,37.5,68
69,1696243230281,-0.3959961,-0.7839966,0.4352417,39.015625,-6.640625,38.484375,69
70,1696243230321,-0.4116211,-0.75177,0.46966553,45.953125,-6.359375,40.921875,70
71,1696243230361,-0.34423828,-0.7974243,0.4225464,41.859375,-5.109375,39.546875,71
72,1696243230401,-0.39648438,-0.8533325,0.29022217,42.5625,-5.296875,43.21875,72
73,1696243230441,-0.29174805,-0.93536377,0.23724365,41.25,-3.609375,44.046875,73
74,1696243230481,-0.18139648,-0.8928833,0.2267456,42.46875,-7.390625,45.484375,74
75,1696243230521,-0.1953125,-0.9146118,0.20721436,49.359375,-9.125,49.171875,75
76,1696243230561,-0.15258789,-0.9212036,0.13665771,54.546875,-12.9375,51.75,76
77,1696243230601,-0.1550293,-0.91729736,0.07244873,61.9375,-11.78125,60.125,77
78,1696243230641,-0.095703125,-0.954895,0.074645996,62.5625,-13.578125,64.171875,78
79,1696243230681,0.009277344,-0.94122314,-0.11431885,58.125,-8.328125,64.796875,79
80,1696243230721,0.18310547,-0.9234009,-0.29327393,54.265625,0.484375,65.125,80
81,1696243230761,0.42871094,-1.0254517,-0.3616333,44.984375,4.71875,62.5,81
82,1696243230801,0.6140137,-1.013977,-0.6045532,39.09375,13.953125,50.4375,82
83,1696243230841,0.9157715,-1.0003052,-0.7119751,30.6875,-0.125,40.125,83
84,1696243230881,0.7458496,-0.80059814,-0.74713135,22.078125,-7.109375,32.46875,84
85,1696243230921,0.6738281,-0.7876587,-0.58721924,16.703125,3.515625,20.75,85
86,1696243230961,0.6738281,-0.7595825,-0.7107544,2.984375,-4.265625,7.765625,86
87,1696243231001,0.69140625,-0.76226807,-0.5581665,-3.390625,-8.078125,-2.84375,87
88,1696243231041,0.6647949,-0.79400635,-0.4890747,-15.703125,-9.0625,-18.4375,88
89,1696243231081,0.6557617,-0.6187134,-0.5147095,-17.953125,-9.859375,-23.734375,89
90,1696243231121,0.61157227,-0.6567993,-0.47125244,-19.375,-3.140625,-15.984375,90
91,1696243231161,0.5876465,-0.72369385,-0.4031372,-14.671875,-0.84375,-21.375,91
92,1696243231201,0.46044922,-0.7554321,-0.4151001,-19.546875,-0.046875,-30.453125,92
93,1696243231241,0.45532227,-0.7029419,-0.2769165,-20.3125,1.90625,-38.0,93
94,1696243231281,0.2939453,-0.7053833,-0.25372314,-28.28125,0.71875,-40.484375,94
95,1696243231321,0.21264648,-0.6199341,-0.20220947,-33.828125,6.65625,-46.59375,95
96,1696243231361,0.17114258,-0.5315552,-0.15802002,-40.390625,14.578125,-48.125,96
97,1696243231401,0.09448242,-0.46929932,-0.18658447,-43.078125,13.640625,-44.765625,97
98,1696243231441,0.06201172,-0.5430298,-0.23175049,-38.078125,16.5,-38.625,98
99,1696243231481,0.12866211,-0.67315674,-0.24176025,-32.359375,17.65625,-29.09375,99
100,1696243231521,0.17504883,-0.8364868,-0.22320557,-23.578125,24.125,-14.484375,100
101,1696243231561,0.16552734,-0.8765259,-0.19903564,-12.125,16.3125,-4.875,101
102,1696243231601,-0.19897461,-0.99835205,-0.109680176,-6.703125,16.34375,-8.03125,102
103,1696243231641,-0.36816406,-1.0039673,-0.0134887695,-2.34375,22.875,-9.53125,103
104,1696243231681,-0.36132812,-0.9199829,-0.16168213,-10.234375,31.265625,-8.671875,104
105,1696243231721,-0.36401367,-0.86968994,-0.20098877,-8.8125,40.46875,-10.46875,105
106,1696243231761,-0.26733398,-0.9194946,-0.23150635,-7.671875,51.1875,-3.796875,106
107,1696243231801,-0.09375,-0.9158325,-0.21759033,-8.703125,50.578125,0.765625,107
108,1696243231841,-0.044677734,-1.0093384,-0.10064697,-11.609375,39.859375,1.984375,108
109,1696243231881,-0.1586914,-1.0274048,0.073913574,-13.265625,34.828125,3.28125,109
110,1696243231921,-0.3232422,-1.0308228,-0.13238525,-22.8125,34.59375,-2.453125,110
111,1696243231961,-0.3022461,-1.3496704,0.047058105,-10.296875,59.078125,-5.890625,111
112,1696243232001,-0.01586914,-1.0186157,-0.14874268,0.515625,37.9375,-5.59375,112
113,1696243232041,-0.028808594,-0.96881104,-0.14605713,5.390625,45.90625,0.46875,113
114,1696243232081,0.2529297,-0.8765259,-0.10455322,13.15625,39.9375,6.953125,114
115,1696243232121,0.2644043,-0.81622314,0.026062012,5.140625,41.328125,17.125,115
116,1696243232161,0.0793457,-1.0881958,0.04095459,-7.703125,35.0,18.0,116
117,1696243232201,0.040527344,-1.017395,0.01361084,-0.453125,35.984375,9.296875,117
118,1696243232241,0.068847656,-0.8701782,0.028015137,10.4375,54.203125,19.546875,118
119,1696243232281,0.0126953125,-0.93414307,-0.0076293945,10.046875,48.421875,14.453125,119
120,1696243232321,-0.00390625,-0.8015747,-0.04888916,11.40625,50.96875,15.25,120
121,1696243232361,0.041015625,-0.78253174,-0.09893799,19.65625,55.84375,15.75,121
122,1696243232401,0.19873047,-0.91363525,-0.031555176,22.890625,64.828125,16.1875,122
123,1696243232441,0.114746094,-0.88653564,-0.089416504,17.0625,57.203125,14.96875,123
124,1696243232481,0.18920898,-0.736145,-0.10650635,18.4375,54.015625,13.0625,124
125,1696243232521,0.17333984,-0.65045166,-0.04083252,18.53125,50.6875,20.03125,125
126,1696243232561,-0.02709961,-0.50738525,-0.4397583,5.359375,41.453125,24.671875,126
127,1696243232601,0.35327148,-0.3123169,-0.48345947,22.203125,40.390625,24.75,127
128,1696243232641,0.4987793,-0.49542236,-0.20953369,49.40625,23.953125,57.0,128
129,1696243232681,0.20092773,-0.8447876,-0.25079346,46.03125,9.21875,56.765625,129
130,1696243232721,0.3154297,-0.70880127,-0.302063,29.34375,-13.953125,38.109375,130
131,1696243232761,0.17211914,-0.40289307,-0.35235596,27.90625,-25.484375,35.6875,131
132,1696243232801,0.005126953,-0.5671997,-0.7468872,37.640625,0.609375,44.890625,132
133,1696243232841,0.8178711,-0.6087036,-0.4944458,33.234375,6.859375,39.0,133
134,1696243232881,0.41503906,-1.0130005,-0.6958618,15.484375,5.265625,16.25,134
135,1696243232921,0.87719727,-0.6958618,-0.53497314,-1.6875,6.484375,19.9375,135
136,1696243232961,0.35229492,-0.7493286,-0.5183716,-0.671875,-8.359375,5.421875,136
137,1696243233001,0.5136719,-0.71295166,-0.59747314,-0.515625,-6.625,9.4375,137
138,1696243233041,0.37768555,-0.8267212,-0.57940674,0.734375,5.625,7.09375,138
139,1696243233081,0.7512207,-0.67974854,-0.6199341,-9.4375,5.40625,2.421875,139
140,1696243233121,0.5083008,-0.81036377,-0.52349854,-6.3125,-0.234375,3.359375,140
141,1696243233161,0.56396484,-0.7476196,-0.5383911,-6.1875,3.890625,-0.515625,141
142,1696243233201,0.6230469,-0.8088989,-0.64385986,-6.84375,2.140625,-2.921875,142
143,1696243233241,0.5793457,-0.79815674,-0.6062622,-11.6875,4.96875,-5.96875,143
144,1696243233281,0.5883789,-0.7984009,-0.60162354,-9.90625,2.703125,-5.265625,144
145,1696243233321,0.62719727,-0.92852783,-0.7149048,-8.796875,2.5,-5.203125,145
146,1696243233361,0.7348633,-0.9927368,-0.75201416,-8.34375,2.234375,-3.546875,146
147,1696243233401,0.82470703,-1.0244751,-0.85406494,-9.609375,-3.53125,-5.140625,147
148,1696243233441,0.8071289,-1.0737915,-0.8467407,-3.5,-0.5,-0.015625,148
149,1696243233481,0.8071289,-1.0579224,-0.77056885,3.984375,2.484375,7.203125,149
150,1696243233521,0.6748047,-1.0159302,-0.6921997,12.65625,5.765625,4.359375,150
151,1696243233561,0.6418457,-0.92926025,-0.60772705,11.203125,7.515625,3.265625,151
152,1696243233601,0.56933594,-0.878479,-0.56451416,6.5,1.359375,0.8125,152
153,1696243233641,0.5217285,-0.8320923,-0.5125122,-4.1875,-4.140625,-2.953125,153
154,1696243233681,0.5275879,-0.8245239,-0.45343018,-6.625,-10.125,-5.71875,154
155,1696243233721,0.48510742,-0.8093872,-0.46221924,-5.640625,-6.671875,-9.15625,155
156,1696243233761,0.40161133,-0.8399048,-0.51885986,-6.421875,-1.4375,-11.984375,156
157,1696243233801,0.4440918,-0.833313,-0.4746704,-12.140625,6.234375,-11.3125,157
158,1696243233841,0.45996094,-0.8591919,-0.4439087,-18.34375,12.78125,-10.40625,158
159,1696243233881,0.40063477,-0.84332275,-0.3867798,-20.828125,18.015625,-8.015625,159
160,1696243233921,0.3022461,-0.8743286,-0.3496704,-21.109375,24.5,-4.578125,160
161,1696243233961,0.27856445,-0.82354736,-0.38555908,-26.8125,36.546875,3.171875,161
162,1696243234001,0.26586914,-0.74468994,-0.39068604,-21.796875,39.34375,8.3125,162
163,1696243234041,0.16479492,-0.56988525,-0.24298096,-25.78125,48.765625,8.09375,163
164,1696243234081,-0.09667969,-0.37799072,-0.22711182,-39.34375,52.765625,6.890625,164
165,1696243234121,-0.13256836,-0.20367432,-0.29693604,-48.046875,58.71875,-6.25,165
166,1696243234161,-0.022216797,-0.14385986,-0.37677002,-40.765625,60.78125,-13.6875,166
167,1696243234201,-0.107666016,-0.35845947,-0.47808838,-29.109375,67.1875,-2.46875,167
168,1696243234241,-0.20263672,-0.76885986,-0.5757446,-32.09375,76.984375,1.453125,168
169,1696243234281,-0.056640625,-1.0501099,-0.552063,-34.0,94.140625,-1.25,169
170,1696243234321,0.2783203,-0.9812622,-0.5281372,-40.234375,79.65625,14.296875,170
171,1696243234361,0.020996094,-0.769104,-0.4649048,-32.0625,59.171875,12.0625,171
172,1696243234401,-0.23535156,-0.75860596,-0.39239502,-18.765625,70.296875,10.25,172
173,1696243234441,-0.22387695,-0.9307251,-0.41900635,-11.71875,85.28125,8.15625,173
174,1696243234481,-0.00390625,-0.93878174,-0.36773682,-9.53125,82.671875,15.109375,174
175,1696243234521,0.17919922,-0.9104614,-0.28741455,-12.0,67.171875,13.46875,175
176,1696243234561,0.22265625,-1.0327759,-0.05255127,-7.140625,53.796875,11.8125,176
177,1696243234601,0.2434082,-0.9780884,-0.21124268,-15.828125,24.125,9.984375,177
178,1696243234641,0.009033203,-0.767395,-0.070617676,-9.109375,21.125,6.3125,178
179,1696243234681,-0.076416016,-0.8267212,-0.10650635,-10.390625,38.5625,8.609375,179
180,1696243234721,0.005859375,-1.0952759,0.07196045,-14.96875,55.859375,2.390625,180
181,1696243234761,0.049804688,-1.2756958,-0.028381348,-21.671875,37.828125,-8.703125,181
182,1696243234801,0.118652344,-1.060852,-0.010070801,-6.203125,42.78125,12.03125,182
183,1696243234841,-0.14355469,-0.77056885,-0.02154541,-3.90625,43.75,3.25,183
184,1696243234881,-0.103759766,-0.74346924,-0.02130127,2.25,51.609375,3.109375,184
185,1696243234921,0.03149414,-0.94732666,0.03387451,-4.40625,50.25,4.8125,185
186,1696243234961,-0.048339844,-1.079895,-0.014465332,-12.890625,40.84375,-5.703125,186
187,1696243235001,-0.031982422,-0.928772,0.0016479492,-12.125,44.703125,-8.03125,187
188,1696243235041,0.049804688,-0.9055786,0.03363037,-9.5625,48.390625,-3.609375,188
189,1696243235081,-0.061523438,-1.0776978,-0.03717041,-15.265625,50.828125,-1.921875,189
190,1696243235121,-0.12670898,-1.4285278,-0.078430176,-28.125,44.125,-17.9375,190
191,1696243235161,-0.1850586,-1.3106079,-0.26861572,-6.53125,34.828125,-3.328125,191
192,1696243235201,-0.034423828,-0.7893677,-0.22076416,16.203125,50.34375,0.375,192
193,1696243235241,0.00024414062,-0.85479736,-0.035949707,19.5,38.265625,-0.6875,193
194,1696243235281,-0.11010742,-1.0217896,-0.066467285,7.671875,23.3125,5.484375,194
195,1696243235321,-0.12084961,-0.7756958,-0.15679932,8.375,24.953125,5.90625,195
196,1696243235361,-0.04345703,-0.7312622,-0.17901611,6.640625,30.3125,9.234375,196
197,1696243235401,-0.017822266,-0.7444458,-0.19781494,10.234375,26.71875,10.265625,197
198,1696243235441,0.27026367,-0.7756958,-0.16607666,30.109375,34.109375,29.421875,198
199,1696243235481,0.44262695,-0.7822876,0.03387451,33.734375,31.359375,49.515625,199
200,1696243235521,0.16064453,-1.0918579,0.024841309,-3.21875,17.84375,56.234375,200
201,1696243235561,-0.068115234,-1.0269165,-0.18829346,-3.046875,28.71875,46.1875,201
202,1696243235601,0.45336914,-0.6057739,-0.14581299,24.90625,53.90625,78.4375,202
203,1696243235641,0.46679688,-0.4265747,-0.15631104,33.53125,52.703125,79.1875,203
204,1696243235681,0.26611328,-0.5852661,-0.11260986,16.1875,59.875,88.453125,204
205,1696243235721,0.044677734,-0.55670166,-0.5432739,-1.25,69.296875,80.375,205
206,1696243235761,0.5859375,-0.40875244,-0.69488525,9.171875,95.5,64.359375,206
207,1696243235801,1.0505371,-0.2630005,-0.5523071,24.140625,75.796875,92.109375,207
208,1696243235841,1.043457,-0.49298096,-0.49395752,23.140625,41.71875,87.421875,208
209,1696243235881,0.5541992,-0.75616455,-0.62286377,8.625,33.171875,62.15625,209
210,1696243235921,0.6335449,-0.6157837,-0.6572876,-16.640625,40.09375,40.203125,210
211,1696243235961,0.4465332,-0.27056885,-0.54888916,-26.234375,40.15625,31.453125,211
212,1696243236001,0.52441406,-0.58380127,-0.6602173,-35.53125,34.921875,15.828125,212
213,1696243236041,0.6281738,-0.5857544,-0.61553955,-53.015625,33.140625,-2.34375,213
214,1696243236081,0.46606445,-0.56085205,-0.82281494,-67.5625,28.46875,-18.53125,214
215,1696243236121,0.5095215,-0.51690674,-0.66192627,-74.046875,34.515625,-25.0625,215
216,1696243236161,0.2705078,-0.6008911,-0.506897,-69.984375,35.8125,-34.515625,216
217,1696243236201,0.080078125,-0.8748169,-0.57769775,-62.625,39.65625,-58.328125,217
218,1696243236241,0.17456055,-1.3672485,-0.7761841,-45.796875,43.015625,-58.96875,218
219,1696243236281,0.14648438,-1.484436,-0.8123169,-41.359375,49.703125,-54.734375,219
220,1696243236321,0.0029296875,-1.5254517,-0.49835205,-48.21875,47.265625,-43.28125,220
221,1696243236361,-0.16479492,-1.5498657,-0.33770752,-55.375,33.1875,-35.3125,221
222,1696243236401,-0.14379883,-1.3330688,0.028259277,-67.78125,32.5,-38.40625,222
223,1696243236441,-0.24633789,-0.9590454,0.21136475,-67.40625,33.96875,-39.96875,223
224,1696243236481,-0.23046875,-0.7127075,0.22406006,-57.015625,26.578125,-40.796875,224
225,1696243236521,-0.111328125,-0.5708618,0.2929077,-54.0,25.125,-31.984375,225
226,1696243236561,-0.16235352,-0.51104736,0.1461792,-49.0625,17.359375,-29.3125,226
227,1696243236601,-0.08276367,-0.43414307,0.11932373,-33.640625,15.1875,-23.59375,227
228,1696243236641,-0.10839844,-0.6712036,0.18939209,-33.8125,7.6875,-12.78125,228
229,1696243236681,-0.34301758,-0.802063,0.31951904,-37.484375,11.609375,-14.453125,229
230,1696243236721,-0.3154297,-0.9351196,0.29730225,-44.96875,8.859375,-22.265625,230
231,1696243236761,-0.42529297,-1.0569458,0.56414795,-62.265625,5.03125,-27.859375,231
232,1696243236801,-0.4729004,-0.8413696,0.26654053,-64.609375,6.0625,-34.40625,232
233,1696243236841,-0.5905762,-0.91363525,0.7765503,-54.875,4.390625,-36.96875,233
234,1696243236881,-0.7590332,-0.71221924,0.76434326,-62.171875,-1.046875,-45.84375,234
235,1696243236921,-0.77075195,-0.5383911,0.9657593,-42.671875,-13.859375,-57.5625,235
236,1696243236961,-0.8144531,-0.42144775,0.807312,-48.5,-5.34375,-58.90625,236
237,1696243237001,-0.77612305,-0.31036377,0.89349365,-37.3125,-6.796875,-55.515625,237
238,1696243237041,-0.6599121,-0.21295166,0.65179443,-36.390625,7.359375,-49.78125,238
239,1696243237081,-0.47387695,-0.097229004,0.73480225,-25.578125,-1.0,-40.515625,239
240,1696243237121,-0.7192383,-0.007385254,0.67523193,-12.3125,-6.375,-29.953125,240
241,1696243237161,-0.6062012,-0.09136963,0.68914795,-8.390625,-3.0,-18.578125,241
242,1696243237201,-0.6296387,-0.11016846,0.66571045,-5.6875,2.03125,-13.25,242
243,1696243237241,-0.7919922,0.02508545,0.8078003,-0.3125,5.609375,-2.8125,243
244,1696243237281,-0.8540039,0.09222412,0.8607788,2.640625,4.046875,3.5625,244
245,1696243237321,-0.85131836,-0.04547119,0.89593506,5.046875,2.21875,6.515625,245
246,1696243237361,-0.71606445,-0.047424316,0.8395386,3.96875,2.390625,4.15625,246
247,1696243237401,-0.61572266,-0.05718994,0.7496948,0.734375,7.234375,2.234375,247
248,1696243237441,-0.4729004,-0.085998535,0.7067261,-3.859375,11.625,4.5625,248
249,1696243237481,-0.37646484,-0.097961426,0.6100464,-9.125,4.734375,5.609375,249
250,1696243237521,-0.60424805,-0.16339111,0.7914429,-9.671875,6.140625,6.703125,250
251,1696243237561,-0.39160156,-0.04840088,0.618103,-6.65625,4.78125,14.765625,251
252,1696243237601,-0.76953125,-0.06695557,0.7626343,6.34375,-1.53125,17.28125,252
253,1696243237641,-0.7524414,-0.16729736,0.9540405,23.4375,-11.3125,27.1875,253
254,1696243237681,-0.8618164,-0.26885986,0.94403076,28.71875,-14.328125,30.6875,254
255,1696243237721,-0.84521484,-0.22735596,0.9125366,40.0625,-11.65625,36.921875,255
256,1696243237761,-0.79589844,-0.32086182,0.84832764,47.078125,-18.5,34.40625,256
257,1696243237801,-0.76904297,-0.458313,0.795105,44.421875,-10.578125,39.3125,257
258,1696243237841,-0.7402344,-0.5220337,0.7316284,43.09375,-16.265625,34.234375,258
259,1696243237881,-0.7133789,-0.56573486,0.6124878,40.9375,-12.359375,34.109375,259
260,1696243237921,-0.592041,-0.59454346,0.53900146,40.546875,-12.0,35.359375,260
261,1696243237961,-0.548584,-0.6001587,0.46966553,41.03125,-10.90625,35.0,261
262,1696243238001,-0.56274414,-0.71295166,0.40423584,43.859375,-18.515625,37.640625,262
263,1696243238041,-0.5612793,-0.81866455,0.3060913,36.40625,-13.015625,33.5625,263
264,1696243238081,-0.5229492,-0.7998657,0.35198975,32.65625,-14.65625,29.875,264
265,1696243238121,-0.453125,-0.8477173,0.3156128,31.328125,-15.71875,29.96875,265
266,1696243238161,-0.545166,-0.88848877,0.2868042,29.140625,-14.109375,32.09375,266
267,1696243238201,-0.40112305,-0.9277954,0.25897217,23.484375,-10.46875,30.546875,267
268,1696243238241,-0.47436523,-0.90216064,0.17132568,24.734375,-9.796875,32.3125,268
269,1696243238281,-0.32543945,-0.89434814,0.18939209,21.703125,-7.828125,29.828125,269
270,1696243238321,-0.29370117,-0.9182739,0.19720459,22.4375,-10.65625,33.171875,270
271,1696243238361,-0.3635254,-0.92559814,0.15447998,26.53125,-12.234375,34.625,271
272,1696243238401,-0.23144531,-0.90460205,0.12322998,27.703125,-11.328125,34.953125,272
273,1696243238441,-0.15966797,-0.94000244,0.11077881,29.171875,-16.859375,36.6875,273
274,1696243238481,-0.17651367,-0.96221924,0.042419434,27.84375,-13.1875,39.25,274
275,1696243238521,-0.091308594,-1.0010376,-0.012756348,27.78125,-13.03125,39.125,275
276,1696243238561,-0.06201172,-0.98883057,-0.0020141602,34.125,-10.6875,48.421875,276
277,1696243238601,-0.06689453,-0.97613525,-0.10406494,41.984375,-16.171875,57.875,277
278,1696243238641,0.008300781,-0.97662354,-0.0960083,41.6875,-17.59375,65.421875,278
279,1696243238681,-0.033203125,-1.0479126,-0.19268799,36.765625,-17.375,73.890625,279
280,1696243238721,-0.0048828125,-1.0484009,-0.2600708,23.875,-7.203125,58.71875,280
281,1696243238761,0.5168457,-1.1748657,-0.4607544,22.984375,0.703125,39.578125,281
282,1696243238801,1.3413086,-1.2681274,-0.5239868,4.96875,2.890625,35.953125,282
283,1696243238841,0.7067871,-1.5012817,-0.5413208,6.015625,-19.03125,-2.515625,283
284,1696243238881,0.40698242,-1.3110962,-0.6174927,-5.890625,4.15625,-12.0625,284
285,1696243238921,0.93896484,-1.3655396,-0.739563,-4.515625,15.171875,-14.34375,285
286,1696243238961,0.6894531,-1.7254028,-0.708313,-8.203125,28.78125,-25.078125,286
287,1696243239001,1.0134277,-1.9666138,-0.7842407,-35.234375,56.9375,-55.9375,287
288,1696243239041,0.81591797,-1.5784302,-0.5286255,-64.109375,66.453125,-57.515625,288
289,1696243239081,0.2626953,-0.7971802,-0.5462036,-119.875,27.78125,-55.15625,289
290,1696243239121,0.48901367,0.43670654,-0.2625122,-91.9375,-2.0,-40.0,290
291,1696243239161,-0.2758789,1.4765015,-0.3862915,-33.0625,-0.109375,-15.40625,291
292,1696243239201,0.106933594,0.3751831,-0.10308838,42.921875,-0.375,-7.671875,292
293,1696243239241,0.13696289,-0.3213501,0.03289795,34.90625,-12.453125,23.890625,293
294,1696243239281,-0.25024414,-0.42340088,0.08880615,13.9375,3.484375,16.328125,294
295,1696243239321,-0.08691406,-0.18243408,0.15618896,0.203125,23.46875,-19.15625,295
296,1696243239361,0.067871094,0.24407959,0.036315918,-4.828125,16.75,-17.9375,296
297,1696243239401,-0.040283203,0.34783936,-0.03326416,9.25,8.375,2.34375,297
298,1696243239441,-0.045898438,-0.035461426,0.028503418,22.53125,6.078125,5.28125,298
299,1696243239481,-0.011474609,-0.07501221,0.06707764,14.890625,14.734375,-0.640625,299
300,1696243239521,0.018066406,-0.12359619,-0.36505127,18.671875,3.484375,8.109375,300
301,1696243239561,0.12646484,-0.8267212,-0.5335083,56.921875,14.765625,17.234375,301
302,1696243239601,1.1721191,-2.0,-1.878479,44.34375,-36.78125,37.171875,302
303,1696243239641,0.044433594,-2.0,-0.4837036,-8.5625,-28.734375,73.828125,303
304,1696243239681,-0.64941406,-1.2485962,-0.5750122,2.453125,4.140625,-18.140625,304
305,1696243239721,0.64990234,-1.3547974,-0.59820557,26.03125,31.203125,30.796875,305
306,1696243239761,1.0715332,-2.0,-0.84698486,-2.65625,-4.0,26.78125,306
307,1696243239801,0.016113281,-2.0,-0.6033325,-17.484375,-42.34375,-19.359375,307
308,1696243239841,0.107177734,-2.0,-0.9402466,-11.671875,28.8125,-25.21875,308
309,1696243239881,0.8815918,-2.0,-0.7583618,-57.0625,31.421875,-40.921875,309
310,1696243239921,0.10839844,-1.6121216,-0.42755127,-66.0,9.6875,-40.9375,310
311,1696243239961,0.0769043,-0.6001587,-0.6026001,-115.484375,-9.296875,-39.78125,311
312,1696243240001,0.4946289,0.7094116,-0.17974854,-79.125,-22.25,-21.828125,312
313,1696243240041,0.26782227,1.2138062,-0.5828247,3.25,-27.734375,-15.078125,313
314,1696243240081,0.2319336,-0.01373291,-0.026672363,50.640625,-44.953125,25.96875,314
315,1696243240121,-0.010009766,-0.45440674,0.21600342,18.296875,-66.140625,37.234375,315
316,1696243240161,-0.5827637,-0.32305908,0.19500732,10.1875,-40.015625,4.828125,316
317,1696243240201,-0.29223633,0.08831787,0.1161499,-1.5,-10.828125,-12.28125,317
318,1696243240241,0.09082031,0.18865967,-0.026184082,1.515625,-4.9375,11.25,318
319,1696243240281,0.072265625,0.036071777,0.024841309,10.375,-16.421875,19.515625,319
320,1696243240321,-0.00390625,0.01751709,-0.11114502,6.578125,-19.734375,3.015625,320
321,1696243240361,0.07299805,-0.06549072,-0.15826416,-0.015625,-21.109375,-1.171875,321
322,1696243240401,0.04345703,-0.7974243,-0.23199463,13.453125,-16.375,-0.421875,322
323,1696243240441,1.4685059,-2.0,-0.850647,25.28125,-27.90625,44.484375,323
324,1696243240481,0.15063477,-2.0,0.3554077,6.84375,11.265625,14.921875,324
325,1696243240521,0.38305664,-2.0,-0.58062744,-4.1875,-25.703125,-23.421875,325
326,1696243240561,-0.48706055,-1.8667603,0.034118652,2.796875,-26.96875,-12.703125,326
327,1696243240601,0.09008789,-1.0283813,-0.20367432,-8.5625,2.171875,-22.921875,327
328,1696243240641,0.74560547,-0.4973755,0.011413574,11.453125,-15.484375,6.734375,328
329,1696243240681,0.35986328,-0.2798462,-0.14263916,5.984375,-55.328125,13.34375,329
330,1696243240721,-0.09277344,-1.6299438,-0.534729,-10.15625,17.609375,-9.15625,526
331,1696243240761,0.31860352,-0.77667236,-0.09967041,0.8125,11.6875,-12.640625,527
332,1696243240801,0.0007324219,-0.03668213,-0.17462158,-18.53125,-1.796875,10.0625,528
333,1696243240841,0.28588867,0.8468628,-0.010559082,-18.546875,-29.484375,-15.4375,529
334,1696243240881,-0.17773438,0.48016357,-0.06793213,9.296875,-68.109375,-11.03125,530
335,1696243240921,-0.54663086,-0.3652954,-0.008361816,-2.796875,-55.171875,-14.90625,531
336,1696243240961,-0.24316406,-0.7974243,0.041931152,-3.40625,-3.109375,-12.328125,532
337,1696243241001,0.040771484,-2.0,-0.36553955,25.109375,46.875,7.640625,533
338,1696243241041,0.5583496,-2.0,0.8930054,19.234375,29.703125,-15.84375,534
339,1696243241081,-0.125,-0.7437134,-0.6265259,-31.125,46.65625,-7.828125,535
340,1696243241121,-0.27490234,1.2875366,0.16766357,-19.703125,81.75,17.484375,536
341,1696243241161,0.049804688,0.30633545,-0.66851807,10.765625,4.109375,-10.265625,537
342,1696243241201,0.1015625,-1.6585083,-0.33746338,44.453125,2.21875,-1.984375,538
343,1696243241241,0.44995117,-2.0,0.39666748,0.6875,-18.078125,6.96875,539
344,1696243241281,-0.86279297,-0.989563,-0.12530518,24.390625,46.28125,-22.546875,540
345,1696243241321,0.6296387,0.26531982,-0.10015869,-29.75,1.234375,-43.765625,541
346,1696243241361,0.56689453,-0.25933838,-0.03717041,-2.0,-46.28125,33.25,542
347,1696243241401,-0.38061523,-0.04058838,-0.006652832,-14.625,-64.5,-9.21875,543
348,1696243241441,-0.13085938,0.34124756,-0.22125244,-10.5625,-54.875,-11.625,544
349,1696243241481,-0.1484375,-0.7515259,-0.5647583,53.0,-16.828125,6.78125,545
350,1696243241521,1.999939,-2.0,1.999939,54.0625,26.296875,39.984375,546
351,1696243241561,-0.8161621,-1.6047974,-0.8838501,-34.109375,-31.71875,-26.3125,547
352,1696243241601,-0.20727539,0.09906006,-0.27618408,-29.140625,58.921875,-42.265625,548
353,1696243241641,0.84350586,0.5956421,0.20281982,-7.34375,59.359375,24.5625,549
354,1696243241681,-0.2980957,-0.10821533,0.37615967,-9.359375,27.203125,42.890625,550
355,1696243241721,-0.45117188,-0.74786377,-0.34796143,-3.3125,3.265625,-32.0625,551
356,1696243241761,0.69189453,-2.0,-1.0132446,21.84375,0.015625,1.6875,552
357,1696243241801,0.060791016,-2.0,0.24627686,-39.9375,-31.34375,9.640625,553
358,1696243241841,-0.60498047,-0.67559814,0.30706787,11.734375,45.5625,-10.125,554
359,1696243241881,0.5632324,-0.34796143,-0.046203613,-9.703125,13.859375,-32.203125,555
360,1696243241921,0.46069336,-0.88238525,-0.21343994,-12.84375,-35.78125,33.03125,556
361,1696243241961,-0.13452148,0.04046631,-0.10675049,28.890625,-24.546875,2.9375,557
362,1696243242001,-0.14453125,0.06048584,-0.017150879,-22.90625,-37.765625,-15.890625,558
363,1696243242041,-0.07397461,-0.15753174,0.04534912,14.890625,10.828125,13.75,559
364,1696243242081,-0.13500977,-1.1384888,-0.12408447,23.15625,36.953125,27.53125,560
365,1696243242121,1.2905273,-2.0,0.19622803,10.15625,39.078125,61.0,561
366,1696243242161,0.23754883,-2.0,0.26971436,-23.8125,0.0625,-1.703125,562
367,1696243242201,-0.04321289,-1.3030396,0.1708374,0.890625,16.1875,-3.625,563
368,1696243242241,0.072509766,-1.0686646,0.12957764,-9.390625,39.265625,10.359375,564
369,1696243242281,-0.029785156,-0.5274048,-0.05596924,-13.125,45.1875,6.65625,565
370,1696243242321,0.08154297,-0.20611572,-0.15826416,-11.515625,66.890625,-10.75,566
371,1696243242361,0.18554688,-0.08673096,-0.10675049,-3.65625,71.875,-1.890625,567
372,1696243242401,0.119384766,-0.06817627,0.058532715,4.875,62.71875,12.4375,568
373,1696243242441,-0.052001953,-0.44439697,-0.37261963,6.078125,52.984375,7.4375,569
374,1696243242481,0.19165039,-1.1033325,-0.38946533,8.078125,60.828125,4.234375,570
375,1696243242521,0.62841797,-2.0,-0.2786255,-0.921875,55.609375,27.09375,571
376,1696243242561,0.43432617,-2.0,0.121520996,-18.25,14.515625,-1.671875,572
377,1696243242601,0.04736328,-1.2803345,-0.2029419,-19.40625,22.109375,-11.609375,573
378,1696243242641,0.17700195,-0.92266846,-0.16680908,-11.65625,26.984375,-1.734375,574
379,1696243242681,0.25439453,-0.7073364,-0.20880127,-11.734375,12.015625,2.4375,575
380,1696243242721,0.23071289,-0.36505127,-0.16119385,-4.03125,-2.328125,-6.4375,576
381,1696243242761,-0.01928711,-0.105529785,-0.14337158,-3.90625,-15.296875,-6.109375,577
382,1696243242801,0.011962891,0.11541748,-0.007385254,-2.859375,-9.890625,-2.734375,578
383,1696243242841,-0.18920898,-0.1963501,0.10223389,4.15625,11.234375,8.375,579
384,1696243242881,0.029296875,-1.2659302,-0.30792236,12.625,39.421875,7.671875,580
385,1696243242921,0.83862305,-2.0,0.7584839,13.53125,16.65625,20.890625,581
386,1696243242961,-0.045898438,-1.7315063,0.16131592,-18.203125,-7.578125,-12.359375,582
387,1696243243001,-0.23486328,-0.65093994,0.08294678,15.921875,3.390625,-29.65625,583
388,1696243243041,0.17211914,-0.85479736,0.25726318,4.640625,16.84375,2.6875,584
389,1696243243081,0.020263672,-0.90948486,0.018249512,-6.96875,20.53125,17.046875,585
390,1696243243121,0.2133789,-0.71661377,-0.09161377,-3.515625,20.796875,-23.1875,586
391,1696243243161,0.16186523,-0.59869385,-0.23980713,0.265625,20.890625,6.125,587
392,1696243243201,0.115722656,-0.7180786,-0.34503174,10.46875,3.03125,18.921875,588
393,1696243243241,0.08618164,-1.0127563,-0.2883911,8.3125,16.53125,32.78125,589
394,1696243243281,-0.37280273,-1.3704224,-0.27911377,15.4375,21.0,8.640625,590
395,1696243243321,0.046875,-1.1575317,-0.19708252,20.09375,39.46875,-5.5,591
396,1696243243361,0.08984375,-0.69073486,-0.4031372,8.28125,17.921875,12.8125,592
397,1696243243401,-0.013916016,-0.5845337,-0.25494385,17.46875,26.671875,8.6875,593
398,1696243243441,0.06225586,-0.4763794,-0.23614502,15.25,21.3125,17.515625,594
399,1696243243481,0.24047852,-0.3633423,-0.25982666,19.90625,13.3125,23.859375,595
400,1696243243521,0.31420898,-0.45977783,-0.25665283,28.1875,-4.734375,30.890625,596
401,1696243243561,0.43139648,-0.61309814,-0.29766846,24.765625,-21.4375,34.15625,597
402,1696243243601,0.16772461,-0.7373657,-0.28936768,14.921875,-30.953125,33.78125,598
403,1696243243641,0.08105469,-0.7503052,-0.39752197,9.59375,-23.328125,10.859375,599
404,1696243243681,0.3737793,-0.80059814,-0.38653564,8.078125,1.734375,15.625,600
405,1696243243721,0.54467773,-0.83917236,-0.43756104,-5.78125,2.875,14.546875,601
406,1696243243761,0.48608398,-0.80255127,-0.32989502,-12.3125,-2.359375,3.484375,602
407,1696243243801,0.17944336,-0.66534424,-0.29400635,-21.234375,-1.078125,-6.75,603
408,1696243243841,0.18969727,-0.73883057,-0.2798462,-23.671875,8.828125,-25.234375,604
409,1696243243881,0.39819336,-1.1360474,-0.2954712,-26.28125,5.546875,-28.375,605
410,1696243243921,0.47045898,-1.5996704,-0.47125244,-23.453125,-2.671875,-36.8125,606
411,1696243243961,0.34350586,-1.7869263,-0.4649048,-26.765625,0.84375,-42.6875,607
412,1696243244001,0.25,-1.9185181,-0.3670044,-17.59375,13.078125,-40.703125,608
413,1696243244041,0.123046875,-1.7727661,-0.21148682,-30.359375,18.0,-35.0625,609
414,1696243244081,-0.23657227,-1.3782349,0.023376465,-31.71875,19.203125,-31.8125,610
415,1696243244121,-0.22729492,-1.0198364,0.1515503,-24.90625,26.03125,-26.421875,611
416,1696243244161,-0.033203125,-0.769104,0.035827637,-34.15625,22.578125,-32.046875,612
417,1696243244201,-0.029541016,-0.45635986,0.14422607,-30.640625,11.265625,-19.9375,613
418,1696243244241,-0.1171875,-0.33843994,0.14398193,-16.8125,-0.546875,-8.71875,614
419,1696243244281,-0.09106445,-0.44366455,0.081970215,-10.40625,-2.6875,-11.375,615
420,1696243244321,-0.07299805,-0.65289307,0.13323975,-4.5,-4.96875,-5.390625,616
421,1696243244361,-0.20532227,-0.80133057,0.0680542,-4.265625,0.484375,-1.828125,617
422,1696243244401,-0.10620117,-0.88482666,0.062438965,-1.40625,0.546875,-3.65625,618
423,1696243244441,-0.1262207,-1.1560669,0.081726074,8.125,-5.515625,5.046875,619
424,1696243244481,-0.14990234,-1.4207153,0.02557373,5.125,-5.84375,2.046875,620
425,1696243244521,-0.05078125,-1.6682739,0.036315918,7.046875,-3.921875,3.390625,621
426,1696243244561,-0.30297852,-1.3352661,0.101257324,-0.03125,3.859375,-4.78125,622
427,1696243244601,-0.1875,-1.0879517,0.06390381,-0.390625,6.515625,0.21875,623
428,1696243244641,-0.064208984,-0.96832275,0.06707764,0.40625,5.03125,3.234375,624
429,1696243244681,-0.09741211,-0.86602783,0.14813232,0.71875,0.25,0.71875,625
430,1696243244721,-0.20263672,-0.70684814,0.07122803,-0.203125,4.0625,3.859375,626
431,1696243244761,-0.09350586,-0.5918579,0.078308105,2.21875,4.453125,3.0,627
432,1696243244801,0.0,-0.6338501,0.1281128,7.546875,-3.71875,5.90625,628
433,1696243244841,-0.079589844,-0.7727661,0.030212402,9.203125,-9.609375,11.234375,629
434,1696243244881,-0.052246094,-0.954895,-0.0051879883,9.953125,-10.15625,14.140625,630
435,1696243244921,-0.17651367,-1.1182251,0.039001465,13.640625,-14.046875,16.125,631
436,1696243244961,-0.099121094,-1.2893677,-0.08843994,15.703125,-12.984375,11.390625,632
437,1696243245001,0.04736328,-1.3718872,-0.11773682,9.859375,-9.796875,10.34375,633
438,1696243245041,0.07470703,-1.3342896,-0.10870361,3.765625,-9.28125,5.609375,634
439,1696243245081,-0.005126953,-1.1863403,-0.047668457,-1.15625,-2.671875,0.453125,635
440,1696243245121,-0.07519531,-0.95758057,-0.08770752,-2.375,4.265625,5.0625,636
441,1696243245161,-0.008300781,-0.77667236,-0.0647583,-1.546875,8.171875,5.984375,637
442,1696243245201,0.099365234,-0.7058716,-0.06085205,-0.75,5.828125,5.859375,638
443,1696243245241,0.13867188,-0.6980591,-0.06378174,1.203125,1.296875,6.734375,639
444,1696243245281,0.08276367,-0.7324829,-0.04156494,2.140625,0.59375,5.921875,640
445,1696243245321,0.06640625,-0.7588501,-0.059143066,1.578125,0.640625,7.0,641
446,1696243245361,0.091308594,-0.8989868,-0.050598145,3.53125,1.578125,6.734375,642
447,1696243245401,-0.008300781,-1.0078735,0.02532959,11.359375,0.234375,10.90625,643
448,1696243245441,0.06689453,-1.0110474,-0.07696533,9.84375,-4.15625,15.75,644
449,1696243245481,0.09423828,-1.177063,-0.043762207,17.4375,-6.53125,17.921875,645
450,1696243245521,0.029541016,-1.2349243,-0.074035645,18.765625,-5.09375,21.34375,646
451,1696243245561,0.076660156,-1.1936646,-0.073791504,19.34375,-1.203125,23.328125,647
452,1696243245601,0.11987305,-1.0662231,-0.08770752,20.671875,-1.15625,26.453125,648
453,1696243245641,0.11645508,-0.9783325,-0.0803833,25.125,-0.84375,31.609375,649
454,1696243245681,0.12963867,-0.83258057,-0.14093018,29.046875,-2.875,36.75,650
455,1696243245721,0.24121094,-0.7920532,-0.17388916,33.484375,-4.46875,40.421875,651
456,1696243245761,0.20019531,-0.8838501,-0.22930908,33.015625,-7.1875,40.28125,652
457,1696243245801,0.3684082,-0.95098877,-0.40948486,36.21875,-7.921875,37.453125,653
458,1696243245841,0.7453613,-0.9937134,-0.57647705,26.265625,0.203125,37.4375,654
459,1696243245881,0.9086914,-1.2244263,-0.75079346,17.953125,0.5625,30.75,655
460,1696243245921,0.91381836,-1.1902466,-0.73028564,3.875,6.65625,13.421875,656
461,1696243245961,0.6203613,-0.9299927,-0.62286377,-4.953125,3.640625,3.109375,657
462,1696243246001,0.59228516,-0.76934814,-0.5220337,-9.15625,8.1875,5.78125,658
463,1696243246041,0.4284668,-0.70513916,-0.4282837,-7.953125,10.671875,5.875,659
464,1696243246081,0.50024414,-0.6572876,-0.3867798,-12.96875,16.1875,-2.671875,660
465,1696243246121,0.53930664,-0.614563,-0.30181885,-13.5,15.453125,-7.71875,661
466,1696243246161,0.4494629,-0.6553345,-0.30841064,-21.71875,15.125,-10.03125,662
467,1696243246201,0.33496094,-0.65948486,-0.34698486,-28.3125,16.921875,-14.328125,663
468,1696243246241,0.25854492,-0.6824341,-0.29888916,-28.046875,24.484375,-15.875,664
469,1696243246281,0.23632812,-0.6699829,-0.2991333,-33.4375,28.84375,-16.9375,665
470,1696243246321,0.20019531,-0.66119385,-0.3171997,-38.625,39.53125,-16.515625,666
471,1696243246361,0.049072266,-0.72735596,-0.33135986,-38.03125,46.703125,-14.71875,667
472,1696243246401,0.099609375,-0.72442627,-0.3899536,-38.140625,51.953125,-19.671875,668
473,1696243246441,0.18847656,-0.7444458,-0.3340454,-33.203125,49.21875,-11.875,669
474,1696243246481,0.2319336,-0.78131104,-0.2341919,-29.59375,41.90625,-4.4375,670
475,1696243246521,0.016357422,-0.7815552,-0.18756104,-29.765625,37.453125,-3.453125,671
476,1696243246561,-0.24243164,-0.77960205,-0.27667236,-31.265625,47.75,-5.90625,672
477,1696243246601,-0.1274414,-0.82769775,-0.32208252,-17.375,64.71875,-3.71875,673
478,1696243246641,0.103027344,-0.8723755,-0.21881104,-15.125,60.578125,7.171875,674
479,1696243246681,0.02319336,-0.91290283,-0.17706299,-20.40625,42.90625,3.75,675
480,1696243246721,-0.11035156,-0.89556885,-0.17193604,-16.0625,39.828125,6.90625,676
481,1696243246761,-0.103271484,-0.9199829,-0.15118408,-13.609375,43.5,5.484375,677
482,1696243246801,-0.072509766,-1.0286255,-0.2053833,-12.640625,56.28125,3.890625,678
483,1696243246841,0.08959961,-1.1399536,-0.22540283,-15.59375,42.6875,7.25,679
484,1696243246881,0.20092773,-1.2366333,-0.21929932,-14.546875,35.328125,4.0,680
485,1696243246921,0.22485352,-1.0271606,-0.13848877,0.09375,24.03125,12.40625,681
486,1696243246961,0.39526367,-0.77471924,-0.08843994,-2.953125,18.09375,8.890625,682
487,1696243247001,0.31323242,-0.88409424,-0.047912598,-13.8125,3.71875,16.34375,683
488,1696243247041,0.13549805,-1.0703735,-0.07647705,-16.203125,0.34375,8.359375,684
489,1696243247081,0.22485352,-0.9505005,-0.010314941,-10.140625,8.0625,9.0625,685
490,1696243247121,0.12866211,-0.8045044,0.005554199,-10.3125,7.8125,7.0625,686
491,1696243247161,0.08984375,-0.8491821,-0.005432129,-0.1875,10.203125,4.109375,687
492,1696243247201,0.21044922,-0.79351807,0.04852295,3.453125,15.140625,6.5625,688
493,1696243247241,0.16210938,-0.8740845,0.070739746,4.078125,13.640625,0.796875,689
494,1696243247281,0.099365234,-0.90826416,0.0048217773,-5.046875,11.734375,-2.484375,690
495,1696243247321,0.072753906,-0.866272,0.061706543,2.171875,14.484375,-6.390625,691
496,1696243247361,0.13134766,-0.98809814,0.085876465,0.21875,13.4375,-6.0,692
497,1696243247401,0.09863281,-0.9944458,0.07977295,-2.421875,8.4375,-7.375,693
498,1696243247441,0.083496094,-0.99835205,0.14129639,2.359375,7.171875,-8.21875,694
499,1696243247481,-0.03125,-0.98028564,0.1359253,2.34375,8.515625,-7.125,695
500,1696243247521,-0.06225586,-0.9356079,0.15032959,7.375,18.984375,-7.265625,696
501,1696243247561,0.08276367,-1.1052856,-0.30133057,8.03125,10.515625,-5.21875,697
502,1696243247601,0.51049805,-1.0352173,-0.14605713,22.984375,24.734375,15.109375,698
503,1696243247641,0.05419922,-0.9036255,-0.39141846,16.03125,12.203125,32.328125,699
504,1696243247681,0.059326172,-0.72247314,-0.66534424,31.609375,27.890625,15.34375,700
505,1696243247721,0.6791992,-0.89727783,-0.3501587,48.71875,29.625,42.265625,701
506,1696243247761,0.4416504,-1.1533813,-0.42852783,27.328125,-6.515625,38.828125,702
507,1696243247801,0.01953125,-0.9680786,-0.4180298,17.875,1.03125,26.78125,703
508,1696243247841,0.17919922,-0.6140747,-0.51568604,21.140625,15.484375,34.859375,704
509,1696243247881,0.51220703,-0.61065674,-0.47906494,16.109375,-0.484375,30.703125,705
510,1696243247921,0.57055664,-0.81085205,-0.4570923,16.0,-21.59375,22.84375,706
511,1696243247961,0.3762207,-0.7949829,-0.43121338,10.15625,-22.28125,10.96875,707
512,1696243248001,0.21533203,-0.71710205,-0.5046997,10.765625,-16.84375,6.359375,708
513,1696243248041,0.43725586,-0.83966064,-0.45880127,10.75,5.484375,17.859375,709
514,1696243248081,0.6660156,-0.92437744,-0.41973877,4.34375,-4.9375,12.671875,710
515,1696243248121,0.3947754,-0.7283325,-0.48492432,6.6875,-5.3125,4.65625,711
516,1696243248161,0.5019531,-0.6265259,-0.44708252,9.09375,0.984375,8.671875,712
517,1696243248201,0.51220703,-0.73565674,-0.45928955,0.96875,1.5625,7.5625,713
518,1696243248241,0.5876465,-0.6929321,-0.44854736,3.21875,-1.375,1.671875,714
519,1696243248281,0.50927734,-0.6404419,-0.3867798,2.578125,-3.34375,0.265625,715
520,1696243248321,0.47680664,-0.6182251,-0.42730713,4.453125,-4.796875,1.96875,716
521,1696243248361,0.5378418,-0.71661377,-0.43341064,7.203125,0.34375,-0.359375,717
522,1696243248401,0.5776367,-0.69610596,-0.47027588,4.84375,-2.875,1.96875,718
523,1696243248441,0.5344238,-0.70440674,-0.43634033,5.15625,0.71875,0.421875,719
524,1696243248481,0.50756836,-0.6934204,-0.42730713,5.296875,-1.15625,0.34375,720
525,1696243248521,0.5500488,-0.6902466,-0.43463135,5.546875,-2.296875,0.453125,721
526,1696243248561,0.47070312,-0.7227173,-0.48614502,3.6875,-3.71875,1.15625,722
527,1696243248601,0.5361328,-0.6729126,-0.4446411,2.421875,0.4375,0.109375,723
528,1696243248641,0.5061035,-0.70880127,-0.41827393,2.203125,-1.796875,1.578125,724
529,1696243248681,0.45654297,-0.6741333,-0.4524536,-0.53125,-2.90625,-0.9375,725
530,1696243248721,0.54541016,-0.70513916,-0.45074463,-1.421875,0.6875,2.0625,726
531,1696243248761,0.46679688,-0.6980591,-0.43951416,0.03125,0.421875,2.78125,727
532,1696243248801,0.48950195,-0.7424927,-0.4500122,1.515625,0.0625,-0.296875,728
533,1696243248841,0.47753906,-0.71417236,-0.46514893,-2.1875,1.125,-0.390625,729
534,1696243248881,0.4807129,-0.704895,-0.45758057,-1.1875,2.0625,-1.78125,730
535,1696243248921,0.50341797,-0.7776489,-0.47125244,0.375,0.5,-0.328125,731
536,1696243248961,0.51708984,-0.7354126,-0.45733643,-4.296875,-0.1875,-3.765625,732
537,1696243249001,0.5410156,-0.7439575,-0.43096924,-5.140625,0.921875,-3.484375,733
538,1696243249041,0.4699707,-0.7161255,-0.4043579,-5.28125,-2.90625,-5.265625,734
539,1696243249081,0.42797852,-0.7136841,-0.4500122,-4.03125,-4.171875,-6.546875,735
540,1696243249121,0.5114746,-0.69244385,-0.4060669,-7.328125,-3.40625,-4.796875,736
541,1696243249161,0.44506836,-0.69122314,-0.39605713,-2.390625,-5.671875,-6.4375,737
542,1696243249201,0.49731445,-0.70562744,-0.39605713,-5.25,-0.78125,-7.3125,738
543,1696243249241,0.4350586,-0.6345825,-0.42364502,-3.75,1.625,-3.75,739
544,1696243249281,0.3955078,-0.5942993,-0.3640747,2.5625,0.1875,-0.96875,740
545,1696243249321,0.44335938,-0.600647,-0.40093994,5.5,-1.296875,3.765625,741
546,1696243249361,0.4790039,-0.65411377,-0.37554932,7.578125,-0.515625,8.265625,742
547,1696243249401,0.5007324,-0.6956177,-0.3850708,11.734375,-5.71875,8.1875,743
548,1696243249441,0.44799805,-0.7373657,-0.45758057,8.921875,-3.34375,7.59375,744
549,1696243249481,0.50024414,-0.7227173,-0.409729,12.109375,0.078125,8.125,745
550,1696243249521,0.50390625,-0.7227173,-0.43121338,9.5,-0.71875,8.234375,746
551,1696243249561,0.5527344,-0.66778564,-0.4541626,6.421875,0.265625,5.40625,747
552,1696243249601,0.57910156,-0.6655884,-0.427063,6.71875,0.421875,6.828125,748
553,1696243249641,0.53515625,-0.663147,-0.50445557,4.171875,-5.0,2.84375,749
554,1696243249681,0.48608398,-0.67144775,-0.44073486,4.140625,-2.4375,1.859375,750
555,1696243249721,0.51538086,-0.66241455,-0.56817627,0.5,-0.671875,0.984375,751
556,1696243249761,0.56225586,-0.6309204,-0.45220947,4.03125,-2.21875,3.28125,752
557,1696243249801,0.52734375,-0.6616821,-0.52301025,3.875,-3.265625,2.515625,753
558,1696243249841,0.5739746,-0.62872314,-0.47613525,2.75,-0.6875,2.625,754
559,1696243249881,0.5270996,-0.6350708,-0.49053955,2.59375,-2.015625,4.265625,755
560,1696243249921,0.54345703,-0.64141846,-0.5220337,1.421875,0.765625,1.765625,756
561,1696243249961,0.6035156,-0.63067627,-0.46246338,-1.171875,2.203125,3.375,757
562,1696243250001,0.5625,-0.661438,-0.54156494,-1.9375,-2.5,-1.453125,758
563,1696243250041,0.57421875,-0.59503174,-0.48760986,-2.078125,1.84375,-0.359375,759
564,1696243250081,0.5246582,-0.6199341,-0.49908447,0.390625,0.25,0.453125,760
565,1696243250121,0.54833984,-0.6104126,-0.4981079,-0.609375,2.421875,-3.296875,761
566,1696243250161,0.58618164,-0.6096802,-0.5252075,-0.875,-0.578125,-2.828125,762
567,1696243250201,0.59375,-0.6362915,-0.5418091,-0.34375,-2.984375,-9.6875,763
568,1696243250241,0.6411133,-0.690979,-0.5540161,-2.59375,-7.578125,-13.421875,764
569,1696243250281,0.58935547,-0.71051025,-0.53570557,-1.328125,-14.453125,-19.59375,765
570,1696243250321,0.5739746,-0.72735596,-0.519104,-1.515625,-16.390625,-27.234375,766
571,1696243250361,0.58691406,-0.76690674,-0.47808838,-4.90625,-21.421875,-32.140625,767
572,1696243250401,0.54663086,-0.7503052,-0.440979,-6.0,-29.203125,-41.25,768
573,1696243250441,0.43286133,-0.6992798,-0.41973877,-7.0625,-32.84375,-45.828125,769
574,1696243250481,0.36889648,-0.65631104,-0.40997314,-6.765625,-38.234375,-47.046875,770
575,1696243250521,0.31323242,-0.71051025,-0.4265747,-3.234375,-47.5,-44.375,771
576,1696243250561,0.31518555,-0.76641846,-0.44366455,1.0625,-60.578125,-43.5625,772
577,1696243250601,0.4675293,-0.74102783,-0.43511963,13.015625,-70.5,-31.640625,773
578,1696243250641,0.3425293,-0.8765259,-0.21026611,9.765625,-63.65625,-20.8125,774
579,1696243250681,0.33447266,-0.9529419,-0.20220947,-6.109375,-67.90625,-24.546875,775
580,1696243250721,0.021728516,-0.87286377,-0.2703247,-3.015625,-60.65625,-27.40625,776
581,1696243250761,0.40966797,-0.7424927,-0.21759033,16.125,-49.53125,-24.796875,777
582,1696243250801,0.59106445,-0.94659424,-0.051330566,17.796875,-57.5625,-13.171875,778
583,1696243250841,0.23510742,-1.0252075,-0.05987549,2.21875,-80.953125,-24.328125,779
584,1696243250881,0.10571289,-0.8755493,-0.12896729,-1.984375,-73.625,-35.359375,780
585,1696243250921,0.24169922,-0.8272095,-0.062561035,1.78125,-58.96875,-24.421875,781
586,1696243250961,0.2097168,-0.9312134,-0.03692627,3.015625,-58.890625,-25.109375,782
587,1696243251001,0.21826172,-0.88897705,0.0038452148,5.9375,-62.796875,-25.765625,783
588,1696243251041,0.16137695,-0.91070557,0.035095215,5.03125,-61.5625,-22.453125,784
589,1696243251081,0.16796875,-0.9639282,0.04071045,6.21875,-60.0625,-22.640625,785
590,1696243251121,0.14038086,-0.9524536,0.10638428,4.65625,-55.546875,-21.6875,786
591,1696243251161,0.045166016,-0.93218994,0.13226318,5.015625,-53.03125,-23.296875,787
592,1696243251201,0.05859375,-0.91973877,-0.040100098,-1.546875,-50.984375,-23.578125,788
593,1696243251241,0.3100586,-1.0352173,-0.042053223,-4.6875,-57.359375,-25.03125,789
594,1696243251281,0.19995117,-1.1316528,0.036315918,-1.515625,-52.875,-2.734375,790
595,1696243251321,-0.096191406,-0.9578247,0.0006713867,-4.78125,-63.296875,-23.0625,791
596,1696243251361,0.0061035156,-1.0227661,-0.09967041,-6.640625,-62.4375,-14.5625,792
597,1696243251401,0.03491211,-0.9649048,-0.16412354,-1.71875,-53.90625,-6.390625,793
598,1696243251441,-0.08496094,-1.0071411,-0.058166504,4.5,-43.53125,-4.375,794
599,1696243251481,-0.13598633,-0.9421997,-0.028381348,6.421875,-47.578125,-5.65625,795
600,1696243251521,-0.1003418,-0.94415283,-0.0044555664,9.25,-45.3125,-4.140625,796
601,1696243251561,-0.05517578,-0.9573364,0.044128418,4.03125,-40.984375,-0.765625,797
602,1696243251601,-0.1352539,-0.9470825,0.022155762,-3.890625,-42.859375,0.578125,798
603,1696243251641,-0.23852539,-0.9649048,0.030700684,-3.75,-33.515625,-1.203125,799
604,1696243251681,-0.23266602,-0.9602661,0.05291748,2.328125,-23.25,-1.15625,800
605,1696243251721,-0.16210938,-0.9248657,0.07196045,0.453125,-19.34375,-0.21875,801
606,1696243251761,-0.17333984,-0.98443604,0.058532715,-10.09375,-12.421875,-1.53125,802
607,1696243251801,-0.21777344,-1.0213013,0.11932373,-6.515625,-8.34375,-0.71875,803
608,1696243251841,-0.17260742,-1.0449829,0.116882324,-10.53125,-4.71875,-1.90625,804
609,1696243251881,-0.17358398,-1.020813,0.12640381,-16.515625,-11.890625,-4.75,805
610,1696243251921,-0.2614746,-1.2424927,0.1486206,-8.53125,2.109375,-6.203125,806
611,1696243251961,0.0056152344,-1.2747192,0.11444092,1.09375,-3.15625,-5.515625,807
612,1696243252001,0.087890625,-0.9854126,0.02557373,-6.859375,-16.28125,-10.140625,808
613,1696243252041,0.020263672,-0.79693604,-0.0413208,12.5625,-12.8125,-0.65625,809
614,1696243252081,0.2121582,-0.7859497,-0.031555176,17.890625,-2.46875,10.4375,810
615,1696243252121,0.1171875,-1.0899048,0.05291748,-2.359375,-11.390625,11.578125,811
616,1696243252161,-0.16870117,-1.1777954,0.070739746,-16.0625,-11.90625,2.96875,812
617,1696243252201,-0.10473633,-0.913147,0.032409668,3.671875,1.015625,1.859375,813
618,1696243252241,-0.0715332,-0.800354,0.098083496,13.5625,12.5,8.9375,814
619,1696243252281,-0.10498047,-0.84161377,0.1071167,6.4375,13.609375,8.9375,815
620,1696243252321,-0.03173828,-0.96295166,0.11932373,4.265625,14.5,9.8125,816
621,1696243252361,-0.023925781,-1.0037231,0.10736084,-0.546875,13.109375,4.265625,817
622,1696243252401,-0.0012207031,-0.9439087,0.09320068,-6.46875,13.109375,-2.765625,818
623,1696243252441,0.025146484,-0.92266846,0.074645996,-0.015625,12.265625,-7.25,819
624,1696243252481,0.043701172,-0.9338989,0.24139404,2.34375,26.6875,1.125,820
625,1696243252521,-0.22973633,-1.177063,-0.054748535,-26.640625,14.453125,-12.921875,821
626,1696243252561,0.10864258,-1.2981567,-0.081848145,4.578125,15.4375,-10.40625,822
627,1696243252601,0.12158203,-1.0908813,-0.19488525,10.03125,51.109375,15.34375,823
628,1696243252641,0.1665039,-0.6404419,-0.17755127,8.3125,14.328125,-13.859375,824
629,1696243252681,0.2746582,-1.0991821,-0.011291504,13.578125,1.65625,15.828125,825
630,1696243252721,0.029541016,-1.3189087,-0.08453369,9.03125,-7.78125,1.890625,826
631,1696243252761,-0.06225586,-0.92681885,-0.06964111,13.609375,-9.875,-5.515625,827
632,1696243252801,-0.061279297,-0.70635986,-0.14703369,13.296875,-16.453125,-0.09375,828
633,1696243252841,0.076171875,-0.90167236,-0.21539307,15.453125,-23.21875,5.15625,829
634,1696243252881,0.18457031,-0.95562744,-0.22393799,9.171875,-38.0,1.21875,830
635,1696243252921,0.15722656,-1.067688,-0.1428833,-3.859375,-48.890625,-0.203125,831
636,1696243252961,-0.001953125,-1.000061,-0.17364502,-5.4375,-59.203125,2.46875,832
637,1696243253001,0.095214844,-0.9788208,-0.13555908,6.3125,-55.15625,4.578125,833
638,1696243253041,0.23168945,-0.94732666,-0.062316895,7.796875,-57.171875,14.53125,834
639,1696243253081,0.06323242,-0.9282837,-0.093566895,4.375,-57.09375,13.390625,835
640,1696243253121,-0.012451172,-0.9360962,-0.10235596,5.15625,-50.6875,2.71875,836
641,1696243253161,0.055664062,-1.0960083,-0.01373291,4.71875,-33.265625,6.953125,837
642,1696243253201,-0.0024414062,-0.98809814,-0.039367676,3.234375,-23.640625,6.40625,838
643,1696243253241,0.08911133,-0.84552,-0.049865723,5.265625,-15.0,4.453125,839
644,1696243253281,0.12036133,-0.90509033,-0.078430176,7.8125,-6.75,15.125,840
645,1696243253321,0.12426758,-0.91656494,-0.03326416,10.8125,1.09375,15.796875,841
646,1696243253361,0.1616211,-0.90460205,-0.044006348,13.171875,5.0625,17.125,842
647,1696243253401,0.28051758,-0.8845825,-0.06939697,14.0625,5.578125,18.890625,843
648,1696243253441,0.23876953,-0.93170166,-0.06329346,16.890625,1.921875,22.765625,844
649,1696243253481,0.2121582,-0.9981079,-0.08013916,18.421875,5.234375,21.484375,845
650,1696243253521,0.2824707,-1.052063,-0.12261963,10.59375,9.625,13.375,846
651,1696243253561,0.39160156,-1.0422974,-0.17095947,3.609375,3.796875,5.546875,847
652,1696243253601,0.29736328,-1.0796509,-0.1975708,-1.828125,3.3125,0.65625,848
653,1696243253641,0.28930664,-0.9607544,-0.16802979,-7.109375,5.484375,-5.25,849
654,1696243253681,0.28515625,-0.8833618,-0.1795044,-10.484375,6.3125,-9.25,850
655,1696243253721,0.28125,-0.9067993,-0.15802002,-13.703125,9.140625,-10.859375,851
656,1696243253761,0.25146484,-0.9116821,-0.16363525,-15.546875,13.4375,-11.984375,852
657,1696243253801,0.24365234,-0.8887329,-0.23101807,-15.921875,15.53125,-10.953125,853
658,1696243253841,0.19873047,-0.88726807,-0.12921143,-10.0,16.578125,-9.375,854
659,1696243253881,0.15722656,-0.9116821,-0.17266846,-7.9375,15.9375,-3.34375,855
660,1696243253921,0.20166016,-0.8855591,-0.1585083,-4.71875,17.28125,-1.078125,856
661,1696243253961,0.23120117,-0.9089966,-0.14654541,-2.46875,14.453125,3.3125,857
662,1696243254001,0.2434082,-0.9458618,-0.13311768,-1.828125,10.09375,2.921875,858
663,1696243254041,0.19995117,-0.9458618,-0.11016846,0.390625,6.515625,5.671875,859
664,1696243254081,0.1730957,-0.9446411,-0.11114502,2.296875,8.578125,4.09375,860
665,1696243254121,0.18701172,-0.91363525,-0.1482544,0.625,6.890625,3.59375,861
666,1696243254161,0.20239258,-0.9302368,-0.14849854,4.375,6.765625,5.421875,862
667,1696243254201,0.1574707,-0.86309814,-0.15557861,8.53125,6.71875,9.0,863
668,1696243254241,0.1730957,-0.8213501,-0.16339111,17.234375,4.46875,12.796875,864
669,1696243254281,0.32348633,-0.8711548,-0.124572754,19.875,2.234375,19.703125,865
670,1696243254321,0.24243164,-1.0271606,-0.29058838,10.546875,-9.609375,15.515625,866
671,1696243254361,0.24243164,-1.08844,-0.144104,9.9375,-7.015625,9.46875,867
672,1696243254401,0.22070312,-1.0513306,-0.21588135,3.609375,-9.96875,4.0,868
673,1696243254441,0.2602539,-0.928772,-0.24176025,-0.109375,-3.609375,-3.078125,869
674,1696243254481,0.2541504,-0.9429321,-0.21636963,0.59375,-3.0625,-2.203125,870
675,1696243254521,0.26904297,-0.94732666,-0.20880127,-5.5625,-2.71875,-5.84375,871
676,1696243254561,0.2602539,-0.8987427,-0.23028564,-6.1875,-3.078125,-8.515625,872
677,1696243254601,0.25830078,-0.88653564,-0.20562744,-4.859375,-0.78125,-7.046875,873
678,1696243254641,0.25830078,-0.87823486,-0.20367432,-1.984375,0.765625,-3.75,874
679,1696243254681,0.24169922,-0.878479,-0.21490479,-2.390625,-1.078125,-3.171875,875
680,1696243254721,0.2541504,-0.89849854,-0.21832275,1.765625,-0.125,-0.3125,876
681,1696243254761,0.25585938,-0.9194946,-0.19049072,4.78125,0.1875,2.03125,877
682,1696243254801,0.23901367,-0.90826416,-0.18878174,3.59375,-1.328125,1.21875,878
683,1696243254841,0.25732422,-0.9168091,-0.237854,-2.65625,0.953125,1.3125,879
684,1696243254881,0.24145508,-0.9092407,-0.18145752,4.84375,-0.234375,1.46875,880
685,1696243254921,0.24316406,-0.94244385,-0.20318604,3.984375,-0.3125,1.875,881
686,1696243254961,0.234375,-0.9031372,-0.22149658,1.53125,-0.671875,-0.046875,882
687,1696243255001,0.25854492,-0.92144775,-0.20758057,2.296875,1.453125,0.40625,883
688,1696243255041,0.25952148,-0.9055786,-0.21954346,2.0,0.34375,0.671875,884
689,1696243255081,0.23828125,-0.89849854,-0.22393799,1.40625,-1.125,-0.109375,885
690,1696243255121,0.26464844,-0.9221802,-0.222229,1.265625,-1.8125,0.796875,886
691,1696243255161,0.24389648,-0.92071533,-0.23321533,0.953125,-1.578125,-0.03125,887
692,1696243255201,0.2541504,-0.9282837,-0.21661377,0.234375,-1.71875,-0.609375,888
693,1696243255241,0.24169922,-0.94244385,-0.22271729,-0.890625,-1.453125,-1.3125,889
694,1696243255281,0.23803711,-0.94415283,-0.21392822,-1.015625,-1.40625,-2.28125,890
695,1696243255321,0.24389648,-0.9570923,-0.20758057,-1.96875,-1.421875,-3.59375,891
696,1696243255361,0.24584961,-0.9536743,-0.21661377,-9.265625,0.515625,-6.09375,892
697,1696243255401,0.22192383,-0.96661377,-0.17095947,-6.046875,-1.0625,-7.1875,893
698,1696243255441,0.20043945,-0.9500122,-0.19000244,-9.078125,-1.5625,-9.1875,894
699,1696243255481,0.19946289,-0.90704346,-0.16729736,-9.03125,1.40625,-8.765625,895
700,1696243255521,0.19873047,-0.88946533,-0.18243408,-8.015625,0.734375,-7.234375,896
701,1696243255561,0.18847656,-0.8892212,-0.1885376,-5.6875,-0.984375,-5.171875,897
702,1696243255601,0.19360352,-0.90997314,-0.15582275,-2.046875,0.015625,-1.375,898
703,1696243255641,0.17333984,-0.9182739,-0.15264893,-1.75,-1.734375,-1.765625,899
704,1696243255681,0.18554688,-0.90093994,-0.18511963,0.53125,-1.84375,0.125,900
705,1696243255721,0.20678711,-0.89849854,-0.16021729,3.75,-1.90625,1.703125,901
706,1696243255761,0.18164062,-0.87579346,-0.1572876,4.625,-3.359375,2.21875,902
707,1696243255801,0.17333984,-0.8052368,-0.15045166,11.015625,-2.3125,4.5,903
708,1696243255841,0.21240234,-0.72906494,-0.18707275,17.1875,-1.59375,9.96875,904
709,1696243255881,0.28051758,-0.68292236,-0.18121338,17.296875,0.0625,15.234375,905
710,1696243255921,0.22949219,-0.69903564,-0.22979736,25.234375,-13.828125,20.328125,906
711,1696243255961,0.22363281,-0.7930298,-0.29962158,34.703125,-14.546875,26.609375,907
712,1696243256001,0.38598633,-0.7966919,-0.20709229,49.75,-3.265625,34.9375,908
713,1696243256041,0.39135742,-0.8477173,-0.30010986,41.328125,4.0,61.6875,909
714,1696243256081,0.19140625,-0.614563,-0.39678955,33.59375,4.0,54.703125,910
715,1696243256121,0.5463867,-0.53082275,-0.39630127,39.390625,0.8125,55.4375,911
716,1696243256161,0.6345215,-0.6008911,-0.39117432,44.203125,-5.328125,67.3125,912
717,1696243256201,0.111816406,-0.5593872,-0.54229736,43.703125,5.140625,50.171875,913
718,1696243256241,0.9267578,-0.45489502,-0.40167236,41.15625,1.71875,60.296875,914
719,1696243256281,0.35742188,-0.33306885,-0.51226807,49.578125,-2.53125,63.59375,915
720,1696243256321,0.6442871,-0.3718872,-0.63897705,47.328125,0.765625,54.953125,916
721,1696243256361,0.8847656,-0.24542236,-0.53741455,39.296875,4.171875,53.765625,917
722,1696243256401,0.61083984,-0.2835083,-0.67559814,33.953125,6.6875,36.78125,918
723,1696243256441,0.88305664,-0.1560669,-0.7000122,24.265625,1.203125,32.484375,919
724,1696243256481,0.93481445,-0.01373291,-0.8496704,24.578125,3.59375,28.875,920
725,1696243256521,0.76660156,-0.013977051,-0.84088135,19.734375,6.265625,20.859375,921
726,1696243256561,0.92407227,0.039001465,-0.8496704,10.328125,3.734375,14.828125,922
727,1696243256601,1.0412598,0.1942749,-0.9180298,7.296875,2.703125,9.0,923
728,1696243256641,0.86816406,0.093688965,-0.99884033,-1.015625,2.515625,3.09375,924
729,1696243256681,1.0981445,0.20965576,-1.0308228,-4.40625,1.171875,-0.765625,925
730,1696243256721,1.0029297,0.0927124,-1.0357056,-7.78125,3.71875,-9.390625,926
731,1696243256761,1.0239258,0.07220459,-0.96466064,-14.46875,0.8125,-16.71875,927
732,1696243256801,0.9379883,-0.057678223,-0.8777466,-24.34375,-4.984375,-25.734375,928
733,1696243256841,0.8703613,-0.101623535,-0.82037354,-31.40625,-9.375,-35.171875,929
734,1696243256881,0.79345703,-0.15875244,-0.73809814,-34.625,-9.765625,-44.1875,930
735,1696243256921,0.74316406,-0.24591064,-0.65167236,-38.84375,-10.921875,-55.671875,931
736,1696243256961,0.65112305,-0.29693604,-0.59991455,-45.921875,-13.09375,-59.953125,932
737,1696243257001,0.68188477,-0.3357544,-0.47930908,-47.390625,-10.1875,-60.25,933
738,1696243257041,0.5073242,-0.3892212,-0.39361572,-50.0,-8.578125,-58.734375,934
739,1696243257081,0.38134766,-0.4368286,-0.28424072,-48.421875,-0.046875,-57.609375,935
740,1696243257121,0.32788086,-0.4331665,-0.2942505,-51.640625,4.546875,-55.484375,936
741,1696243257161,0.35913086,-0.3291626,-0.3928833,-51.390625,1.625,-50.5,937
742,1696243257201,0.41577148,-0.34918213,-0.3357544,-39.46875,1.421875,-42.234375,938
743,1696243257241,0.3305664,-0.49176025,-0.2852173,-21.390625,-0.53125,-23.109375,939
744,1696243257281,0.35961914,-0.5877075,-0.25421143,-12.65625,-0.34375,-14.9375,940
745,1696243257321,0.39331055,-0.66485596,-0.28131104,-4.25,0.46875,-6.546875,941
746,1696243257361,0.4326172,-0.65826416,-0.30792236,2.5,0.0,5.96875,942
747,1696243257401,0.44262695,-0.65338135,-0.28131104,14.90625,-1.640625,19.9375,943
748,1696243257441,0.39501953,-0.58062744,-0.27618408,21.375,1.671875,22.8125,944
749,1696243257481,0.37182617,-0.51641846,-0.17218018,31.15625,4.328125,34.34375,945
750,1696243257521,0.3347168,-0.5100708,-0.19488525,33.375,-0.484375,46.46875,946
751,1696243257561,0.15820312,-0.35064697,-0.41485596,35.96875,2.4375,47.234375,947
752,1696243257601,0.48876953,-0.32843018,-0.3657837,49.984375,9.546875,61.734375,948
753,1696243257641,0.72509766,-0.5774536,-0.47442627,43.625,0.734375,59.046875,949
754,1696243257681,0.7573242,-0.41046143,-0.52545166,48.65625,3.453125,58.734375,950
755,1696243257721,0.6557617,-0.40093994,-0.47198486,49.265625,4.03125,52.09375,951
756,1696243257761,0.52563477,-0.3027954,-0.76226807,34.296875,0.53125,46.84375,952
757,1696243257801,1.1054688,-0.26568604,-0.6506958,33.21875,3.265625,41.8125,953
758,1696243257841,0.77612305,-0.33746338,-0.80474854,28.125,2.390625,31.703125,954
759,1696243257881,0.888916,-0.065979004,-0.7468872,24.265625,5.359375,14.5,955
