# Sensor type: Respeck
# Activity type: Normal walking
# Activity subtype: Normal
# Subject id: s2104454
# Notes: unprocessed
timestamp,accel_x,accel_y,accel_z,gyro_x,gyro_y,gyro_z
1696243450408,0.65771484,-0.9890747,-0.31378174,8.3125,23.765625,14.078125
1696243450469,0.28149414,-1.076477,-0.36309814,-4.125,-4.609375,-4.890625
1696243450488,0.13256836,-0.98443604,-0.12701416,6.734375,3.484375,9.875
1696243450529,0.1459961,-1.0476685,-0.04840088,10.359375,5.984375,-0.78125
1696243450590,0.12402344,-0.7798462,-0.06060791,5.234375,-3.34375,-1.75
1696243450609,-0.08325195,-0.503479,-0.10040283,3.84375,2.140625,5.03125
1696243450649,-0.10131836,-0.5877075,-0.09259033,2.34375,7.0625,1.890625
1696243450689,-0.05126953,-0.7542114,-0.05718994,0.21875,6.53125,5.296875
1696243450730,0.0126953125,-0.90631104,-0.10626221,2.46875,2.421875,4.34375
1696243450770,7.324219E-4,-1.0298462,-0.13555908,1.71875,-1.578125,6.171875
1696243450810,0.049804688,-1.2227173,-0.024719238,-7.90625,2.078125,5.578125
1696243450850,-0.15576172,-1.4512329,0.005065918,-21.90625,-6.40625,-3.59375
1696243450890,-0.14477539,-1.2778931,-0.11529541,-20.625,-10.90625,-10.953125
1696243450953,0.07006836,-1.1470337,-0.30914307,9.078125,5.890625,-6.921875
1696243450989,0.779541,-1.128479,-0.1428833,1.71875,7.3125,2.46875
1696243451010,0.35986328,-1.1724243,-0.06085205,-8.203125,-1.4375,8.546875
1696243451050,-0.115478516,-0.94317627,-0.09503174,-5.53125,-5.90625,-4.25
1696243451111,0.1027832,-0.84820557,-0.070617676,-2.375,1.859375,-0.828125
1696243451128,0.18115234,-0.725647,0.0033569336,5.25,9.546875,9.46875
1696243451171,-0.0056152344,-0.5112915,-0.032043457,1.484375,4.390625,-0.28125
1696243451233,0.0625,-0.46417236,0.059265137,6.859375,7.765625,5.4375
1696243451248,0.07763672,-0.6514282,0.09100342,3.28125,2.734375,9.1875
1696243451290,0.06762695,-0.87335205,0.0368042,-0.125,-4.203125,3.140625
1696243451330,0.14990234,-1.0703735,0.15692139,-8.078125,-9.84375,-6.1875
1696243451391,0.13867188,-1.2041626,0.14105225,3.71875,-6.015625,-4.390625
1696243451409,-0.17333984,-1.1887817,0.37982178,-9.109375,1.953125,-12.28125
1696243451429,-0.32495117,-1.3167114,-0.39483643,-17.015625,-7.9375,-39.96875
1696243451469,1.3884277,-1.3128052,-0.581604,15.5,-4.890625,10.140625
1696243451510,0.3293457,-1.513977,-0.42852783,-2.90625,-10.90625,1.921875
1696243451553,-0.3227539,-1.2781372,0.11248779,1.609375,-0.421875,-0.765625
1696243451590,0.22973633,-0.9805298,0.18133545,16.203125,5.875,-5.3125
1696243451630,0.30908203,-0.63482666,-0.09942627,0.0625,-14.34375,-2.96875
1696243451670,-0.15112305,-0.3723755,-0.08062744,8.65625,-14.203125,3.125
1696243451711,-0.17822266,-0.48468018,-0.046447754,10.609375,-6.515625,-6.234375
1696243451753,0.0390625,-0.6765747,0.04510498,3.84375,-7.03125,1.4375
1696243451791,-0.06542969,-0.74591064,-0.09503174,0.65625,-14.609375,2.171875
1696243451833,-0.15234375,-0.9417114,0.0211792,0.40625,2.203125,-1.9375
1696243451873,-0.12475586,-1.3338013,-0.10723877,-6.328125,8.609375,0.546875
1696243451910,0.0769043,-1.5391235,-0.12188721,-14.84375,5.890625,7.71875
1696243451951,0.12036133,-1.5215454,0.03778076,-1.25,9.78125,9.875
1696243451991,0.39892578,-1.2800903,-0.25030518,-9.28125,-2.46875,-1.875
1696243452029,0.4050293,-0.98760986,-0.23809814,18.234375,8.625,7.359375
1696243452071,0.20532227,-0.91290283,-0.094055176,3.828125,0.046875,12.59375
1696243452115,0.034423828,-0.98223877,-0.078186035,-4.96875,-4.09375,1.421875
1696243452150,0.091308594,-0.70977783,-0.11920166,5.453125,3.078125,1.140625
1696243452191,0.07446289,-0.4439087,-0.0154418945,7.546875,6.84375,7.3125
1696243452230,0.03955078,-0.4385376,0.03387451,6.0,4.53125,8.34375
1696243452274,0.053710938,-0.6621704,0.12030029,1.015625,-2.6875,6.921875
1696243452310,-0.06762695,-0.9143677,0.014099121,-1.796875,-1.296875,2.890625
1696243452350,0.04272461,-1.2149048,0.0079956055,-6.75,12.640625,-2.59375
1696243452390,0.2919922,-1.2925415,0.030700684,-8.203125,12.640625,-2.0625
1696243452431,0.21191406,-1.2566528,0.46917725,-8.96875,5.953125,2.984375
1696243452473,-0.43481445,-1.2163696,-0.24884033,-33.96875,-18.546875,-26.28125
1696243452510,0.6159668,-0.92437744,-0.6633911,3.09375,11.359375,-7.46875
1696243452550,0.4807129,-1.2564087,-0.47198486,-1.15625,2.984375,21.640625
1696243452590,-0.22436523,-1.4243774,-0.07623291,-9.90625,-0.421875,-5.296875
1696243452630,0.05029297,-0.9312134,0.10345459,14.28125,10.609375,-5.84375
1696243452670,0.18920898,-0.66851807,-0.14508057,9.96875,10.90625,4.5625
1696243452709,-0.0043945312,-0.43511963,-0.045715332,13.015625,6.984375,8.515625
1696243452731,-0.110839844,-0.49786377,-0.05987549,8.078125,5.703125,1.359375
1696243452772,0.056152344,-0.7490845,-0.09234619,2.671875,1.171875,0.078125
1696243452830,0.047851562,-0.9089966,-0.11260986,5.265625,-12.828125,7.453125
1696243452849,-0.1003418,-1.1257935,0.0028686523,-0.25,-8.78125,-4.140625
1696243452892,-0.123046875,-1.1524048,-0.10626221,-17.734375,1.75,-4.484375
1696243452929,-0.11816406,-1.0535278,-0.13116455,-21.859375,3.234375,-18.96875
1696243452970,-0.0625,-1.4717407,-0.008605957,-3.765625,25.4375,-7.078125
1696243453010,0.54418945,-1.4373169,-0.4241333,-2.828125,19.4375,-19.40625
1696243453070,1.0390625,-1.1460571,-0.2625122,-4.1875,-18.140625,3.5
1696243453088,-0.118896484,-1.4092407,-0.032287598,-15.9375,-37.234375,13.015625
1696243453131,-0.31396484,-0.90411377,-0.06036377,0.96875,-7.40625,-13.796875
1696243453170,0.10546875,-0.38726807,0.031433105,0.828125,14.734375,7.953125
1696243453211,-0.009765625,-0.35479736,0.028747559,0.421875,9.828125,6.71875
1696243453250,-0.038085938,-0.48468018,0.019714355,2.171875,16.515625,3.890625
1696243453289,0.14013672,-0.64508057,0.11004639,8.203125,13.953125,10.65625
1696243453331,0.07373047,-0.9998169,0.08392334,4.75,2.8125,11.265625
1696243453370,0.030029297,-1.2415161,0.14178467,-9.875,-1.421875,-6.625
1696243453409,0.2475586,-1.2261353,0.12908936,6.609375,9.953125,-6.65625
1696243453471,-0.016845703,-1.2073364,0.35736084,-3.0,4.171875,-1.78125
1696243453510,-0.5480957,-1.4546509,-0.28131104,-27.09375,-10.015625,-42.09375
1696243453529,0.79125977,-1.1629028,-0.39727783,10.671875,20.265625,4.65625
1696243453572,0.22875977,-1.072815,-0.42974854,6.96875,-1.71875,8.234375
1696243453610,-0.13183594,-1.3345337,-0.12042236,1.015625,0.125,-6.921875
1696243453673,0.15649414,-0.9055786,0.086120605,9.875,8.859375,3.765625
1696243453691,0.07421875,-0.85894775,-3.0517578E-4,10.109375,3.609375,1.734375
1696243453751,0.01928711,-0.5286255,-0.050598145,12.921875,-3.046875,4.828125
1696243453773,-0.033447266,-0.44732666,-0.016906738,9.03125,-7.359375,6.15625
1696243453808,-0.06762695,-0.7095337,-0.010314941,-6.1875,-11.15625,4.75
1696243453848,-0.1586914,-0.8609009,-0.04107666,-3.921875,-12.328125,3.484375
1696243453888,-0.15014648,-0.9492798,-0.02520752,-6.90625,-0.6875,-2.96875
1696243453929,-0.17626953,-1.1863403,0.038024902,-13.234375,14.515625,-2.703125
1696243453969,-0.2163086,-1.2810669,-0.04449463,-19.46875,5.078125,-8.515625
1696243454009,0.016357422,-1.2573853,0.06781006,-7.9375,11.90625,1.90625
1696243454029,0.14746094,-1.4924927,-0.3267212,4.78125,7.375,-9.921875
1696243454070,1.0131836,-1.2036743,-0.28179932,12.53125,2.09375,2.6875
1696243454114,0.09790039,-1.3550415,0.023864746,-8.5625,-15.5,16.65625
1696243454149,-0.35546875,-1.0647583,-0.1609497,1.953125,-6.09375,-8.015625
1696243454189,0.12573242,-0.5652466,-0.073791504,6.09375,17.046875,3.421875
1696243454231,0.08959961,-0.4463501,0.08319092,2.625,13.4375,9.125
1696243454269,-0.09106445,-0.47857666,0.050476074,-0.703125,10.5,2.03125
1696243454309,0.05053711,-0.55792236,0.07904053,1.5,12.078125,5.203125
1696243454391,0.079833984,-0.8189087,0.09222412,2.875,5.375,6.296875
1696243454395,0.013427734,-1.1401978,0.15692139,-5.484375,-7.34375,-1.125
1696243454430,-0.055664062,-1.2302856,-0.04058838,2.625,-7.078125,-6.625
1696243454469,0.49780273,-1.177063,0.37908936,-3.046875,5.765625,4.15625
1696243454509,-0.4814453,-1.5813599,0.07513428,-41.984375,-24.25,-17.453125
1696243454550,-0.16625977,-1.2024536,-0.23492432,-2.21875,-0.140625,-37.65625
1696243454589,0.64624023,-1.0112915,-0.5523071,5.546875,14.421875,13.65625
1696243454629,0.11376953,-1.3416138,-0.28741455,-4.34375,2.65625,-0.0625
1696243454670,-0.12475586,-1.1511841,0.07977295,1.875,4.140625,-1.28125
1696243454711,0.12182617,-0.9024048,0.105163574,26.1875,6.359375,-4.703125
1696243454750,0.115722656,-0.6331177,-0.034484863,11.71875,4.390625,6.09375
1696243454791,-0.049804688,-0.35211182,-0.05206299,10.265625,-3.5,5.453125
1696243454830,-0.044921875,-0.616272,-0.035461426,9.328125,-11.875,3.8125
1696243454870,-0.064453125,-0.86383057,0.043151855,1.09375,-14.546875,8.203125
1696243454911,-0.25976562,-0.9602661,-0.1038208,1.09375,-14.90625,4.375
1696243454949,-0.2097168,-1.0403442,0.011169434,1.046875,2.9375,-3.546875
1696243454991,-0.12182617,-1.2129517,-0.08843994,-11.046875,13.484375,4.890625
1696243455031,-0.08520508,-1.1792603,-0.04083252,-19.703125,8.015625,-6.078125
1696243455071,-0.034423828,-1.411438,0.1708374,-5.765625,17.875,-1.34375
1696243455110,0.2548828,-1.3338013,-0.29742432,-1.390625,9.125,-16.828125
1696243455153,0.7961426,-0.9846802,-0.24810791,2.96875,-0.6875,7.46875
1696243455189,0.008300781,-1.281311,-0.038391113,-2.328125,-33.1875,9.390625
1696243455232,-0.29711914,-1.0413208,-0.09942627,3.484375,-13.0625,-4.4375
1696243455271,0.037109375,-0.56134033,-0.024475098,8.609375,8.21875,5.796875
1696243455310,0.12695312,-0.46002197,0.032165527,7.078125,2.03125,8.828125
1696243455330,-0.056396484,-0.6399536,0.07318115,5.921875,0.0,4.609375
1696243455372,-0.022949219,-0.7202759,0.06536865,1.453125,5.53125,1.984375
1696243455431,0.07861328,-0.8479614,0.074645996,-0.546875,0.515625,2.984375
1696243455449,-0.05883789,-1.050354,0.18719482,-9.03125,-3.8125,-1.390625
1696243455511,-0.02709961,-1.1187134,-0.05230713,3.546875,-8.734375,-8.46875
1696243455528,0.35180664,-1.1887817,0.49578857,-8.9375,3.984375,10.53125
1696243455570,-0.82836914,-1.581604,-0.17462158,-38.21875,-26.078125,-37.71875
1696243455631,0.21948242,-1.3845825,-0.2962036,-0.71875,32.09375,-19.1875
1696243455650,0.9067383,-0.99346924,-0.37530518,-1.609375,0.78125,14.515625
1696243455714,0.19189453,-1.3069458,-0.29937744,-2.484375,-21.765625,-2.25
1696243455750,-0.4248047,-1.0796509,0.18475342,18.890625,10.5,7.546875
1696243455771,0.09838867,-0.9898071,0.12835693,22.703125,9.984375,-3.03125
1696243455812,0.17504883,-0.6148071,-0.085510254,-2.71875,-3.5,-2.203125
1696243455851,-0.08886719,-0.3196411,-0.053527832,3.65625,-3.453125,4.671875
1696243455891,-0.107910156,-0.6499634,0.012634277,2.609375,-3.203125,4.828125
1696243455931,-0.075683594,-0.9002075,0.09197998,-0.3125,-9.734375,7.5
1696243455971,-0.26733398,-0.96466064,0.0067749023,-2.5,-11.484375,3.25
1696243456010,-0.1887207,-1.0071411,0.05291748,-0.9375,4.125,-1.84375
1696243456050,-0.21850586,-1.2515259,-0.020568848,-17.953125,11.984375,1.296875
1696243456097,-0.11767578,-1.3115845,-0.12628174,-17.375,-3.953125,-4.65625
1696243456130,0.17578125,-1.5078735,0.12567139,7.796875,12.703125,10.25
1696243456172,0.3479004,-1.248352,-0.14190674,-3.125,-19.9375,-6.453125
1696243456209,0.4753418,-1.0369263,-0.18389893,1.34375,-5.59375,7.03125
1696243456251,-0.039794922,-1.2114868,-0.0012817383,-5.078125,-8.078125,6.5625
1696243456291,-0.11230469,-0.97320557,-0.053771973,4.96875,-2.296875,-0.296875
1696243456333,9.765625E-4,-0.58013916,-0.0071411133,5.953125,8.09375,4.046875
1696243456370,-0.017578125,-0.45367432,0.020202637,4.765625,12.921875,7.359375
1696243456411,-0.049804688,-0.5366821,0.09906006,6.5,19.1875,8.921875
1696243456452,0.060791016,-0.6983032,0.1293335,3.484375,14.671875,5.875
1696243456490,0.06933594,-0.85894775,0.07342529,-1.421875,1.234375,4.515625
1696243456532,0.12768555,-1.0459595,0.22601318,-15.859375,-4.171875,0.28125
1696243456571,-0.08496094,-1.1321411,-0.0154418945,9.578125,-10.046875,-11.46875
1696243456610,0.1940918,-1.0886841,0.3781128,9.109375,6.265625,10.75
1696243456653,-0.592041,-1.6797485,-0.2617798,-14.390625,-33.21875,-32.796875
1696243456670,0.7404785,-1.4439087,-0.22979736,29.71875,14.0625,16.9375
1696243456709,0.1159668,-0.98638916,-0.30670166,3.390625,3.90625,-7.5625
1696243456752,0.060546875,-1.1636353,-0.21270752,4.65625,2.75,-4.90625
1696243456789,0.19946289,-1.0437622,0.028259277,18.671875,6.46875,10.53125
1696243456834,0.13623047,-0.9522095,0.038269043,18.328125,5.34375,-6.96875
1696243456893,-0.06616211,-0.51690674,-0.07598877,6.765625,1.09375,-0.3125
1696243456909,-0.14916992,-0.35772705,-0.09112549,4.359375,-2.484375,-0.4375
1696243456973,-0.015136719,-0.67633057,-0.046203613,-5.15625,-10.015625,0.71875
1696243456989,-0.07739258,-0.88116455,0.010192871,-9.96875,-14.171875,2.625
1696243457031,-0.22363281,-0.99957275,-0.047424316,-6.265625,-12.875,-2.046875
1696243457074,-0.20410156,-1.0679321,0.039978027,-3.96875,8.5,0.671875
1696243457110,-0.17285156,-1.24469,-0.13116455,-21.765625,4.515625,-1.703125
1696243457174,-0.015625,-1.303772,0.018981934,-15.125,-4.21875,-1.359375
1696243457191,0.10424805,-1.491272,-0.032287598,1.5625,5.390625,-8.21875
1696243457231,0.7380371,-1.1248169,-0.30230713,0.125,-3.4375,-7.609375
1696243457271,0.5280762,-1.1882935,-0.020568848,-8.046875,-25.671875,20.859375
1696243457312,-0.52490234,-1.3911743,-0.04083252,-6.921875,-23.703125,2.421875
1696243457352,-0.05102539,-0.72442627,-0.06915283,8.21875,9.765625,1.34375
1696243457390,0.16503906,-0.46099854,0.1005249,0.984375,14.203125,21.0
1696243457429,-0.12060547,-0.56378174,0.10101318,-2.84375,4.5,5.046875
1696243457470,-0.10473633,-0.48931885,0.07513428,3.359375,18.71875,6.28125
1696243457511,0.07861328,-0.6189575,0.10076904,7.046875,20.65625,12.703125
1696243457572,0.021728516,-0.99346924,0.16644287,-3.28125,10.078125,4.171875
1696243457590,0.088378906,-1.1255493,-0.14019775,10.296875,1.984375,-10.21875
1696243457630,0.49438477,-1.3198853,0.5543823,5.5,23.328125,8.671875
1696243457670,-0.5834961,-1.5410767,-0.1026001,-28.09375,-27.640625,-28.875
1696243457711,0.07324219,-1.1968384,-0.44683838,0.765625,16.5625,-32.3125
1696243457772,0.7421875,-0.9788208,-0.37652588,7.296875,13.890625,14.9375
1696243457810,0.14892578,-1.4812622,-0.34552002,-0.359375,-7.015625,-7.03125
1696243457829,-0.030029297,-1.2258911,0.12689209,4.171875,2.453125,-0.953125
1696243457870,0.14501953,-0.9014282,0.101501465,15.203125,-7.53125,-8.890625
1696243457911,0.11010742,-0.472229,-0.058898926,2.484375,-18.78125,-1.125
1696243457972,-0.17529297,-0.28302002,-0.062316895,4.21875,-16.546875,3.203125
1696243457988,-0.16845703,-0.6116333,-0.05255127,5.1875,-7.890625,0.796875
1696243458011,-0.049072266,-0.81622314,0.0065307617,-1.953125,-10.09375,5.375
1696243458052,-0.20141602,-0.9619751,-0.12188721,-2.234375,-15.40625,-0.828125
1696243458090,-0.17993164,-1.1467896,0.093933105,0.03125,17.59375,2.90625
1696243458131,-0.24047852,-1.3001099,-0.02178955,-22.828125,10.953125,-5.640625
1696243458171,0.049316406,-1.2910767,-0.07550049,-6.75,-0.5,-2.046875
1696243458212,0.390625,-1.5911255,-0.02935791,13.125,8.234375,3.078125
1696243458250,0.68896484,-1.1577759,-0.18023682,4.40625,-10.203125,1.140625
1696243458291,0.013671875,-1.1572876,-0.049621582,-13.1875,-29.671875,18.1875
1696243458330,-0.31298828,-1.0838013,-0.07330322,1.03125,-15.265625,-5.328125
1696243458371,0.084228516,-0.645813,-0.058410645,1.671875,7.71875,8.28125
1696243458411,0.12915039,-0.43023682,0.059753418,6.296875,3.796875,15.875
1696243458450,-0.013183594,-0.579895,0.078063965,1.046875,2.296875,5.15625
1696243458494,0.0087890625,-0.6062622,0.11199951,4.546875,7.0625,8.625
1696243458529,-0.00390625,-0.8569946,0.055847168,0.953125,5.296875,10.953125
1696243458571,-0.009521484,-1.1194458,0.12762451,-0.09375,3.59375,3.9375
1696243458610,0.10058594,-1.1067505,-0.04498291,9.5625,5.140625,-8.890625
1696243458650,0.32836914,-1.2070923,0.46307373,11.828125,10.890625,5.375
1696243458691,-0.68408203,-1.5422974,-0.17559814,-19.109375,-20.359375,-26.359375
1696243458730,0.22802734,-1.0427856,-0.4866333,13.734375,44.453125,-30.78125
1696243458772,0.76586914,-1.0491333,-0.4385376,5.15625,18.953125,11.78125
1696243458811,0.3137207,-1.4619751,-0.30743408,-18.171875,-12.515625,5.046875
1696243458851,0.13232422,-1.0779419,0.019958496,-1.0625,5.0,4.28125
1696243458891,0.1418457,-0.84698486,0.043151855,1.40625,-7.96875,-1.53125
1696243458930,0.07714844,-0.63482666,-0.12335205,17.671875,-12.4375,6.203125
1696243458970,-0.08129883,-0.35894775,-0.031311035,16.3125,-13.328125,7.890625
1696243459011,-0.20947266,-0.66778564,0.008483887,13.265625,-18.046875,-0.484375
1696243459051,-0.13745117,-0.8726196,0.031188965,4.265625,-15.71875,1.328125
1696243459091,-0.10498047,-1.0044556,-0.027648926,7.171875,-13.796875,2.5625
1696243459131,-0.1628418,-1.1345825,0.12640381,-14.4375,2.6875,-4.96875
1696243459171,-0.21240234,-1.2109985,-0.062805176,-27.859375,-2.671875,-13.28125
1696243459212,0.19726562,-1.2681274,-0.17437744,-24.640625,-16.671875,-3.640625
1696243459270,0.29858398,-1.4026489,-0.14263916,-2.09375,0.828125,-1.046875
1696243459289,0.70336914,-1.2964478,-0.19683838,-9.15625,-29.796875,-8.234375
1696243459309,0.42504883,-1.2651978,-0.15240479,-7.1875,-15.59375,13.890625
1696243459372,-0.58618164,-1.1843872,-0.14239502,-1.53125,-5.515625,-6.375
1696243459389,-0.1081543,-0.6585083,-0.15093994,11.265625,18.890625,-5.109375
1696243459450,0.3022461,-0.46002197,0.0848999,-3.703125,21.546875,17.359375
1696243459469,-0.09326172,-0.5261841,0.097839355,-9.828125,8.40625,3.390625
1696243459510,-0.07885742,-0.41680908,0.08660889,-1.6875,20.328125,-0.109375
1696243459550,0.119140625,-0.64678955,0.08538818,4.546875,18.875,7.578125
1696243459591,0.2019043,-1.1838989,0.22943115,-14.78125,5.03125,0.25
1696243459632,-0.013183594,-1.3643188,0.0138549805,-2.9375,-14.84375,-13.90625
1696243459671,0.36621094,-1.0628052,0.4545288,12.171875,11.421875,9.171875
1696243459710,-0.6640625,-1.4631958,-0.34039307,-17.71875,-28.90625,-27.640625
1696243459749,0.4802246,-1.5278931,-0.34527588,3.40625,15.421875,-17.9375
1696243459810,0.35620117,-0.9380493,-0.395813,7.5,28.71875,12.484375
1696243459828,0.11425781,-1.1846313,-0.016906738,7.75,5.140625,-5.875
1696243459869,0.08691406,-1.083313,0.029968262,8.90625,-10.34375,6.0625
1696243459931,-0.020019531,-0.7739868,0.039001465,9.515625,-8.03125,-4.828125
1696243459950,-0.0073242188,-0.45611572,-0.047912598,10.28125,-2.859375,2.4375
1696243459988,-0.046142578,-0.37017822,-0.058898926,10.109375,-10.046875,2.90625
1696243460028,-0.056884766,-0.7180786,-0.020812988,1.734375,-14.296875,3.078125
1696243460068,-0.15039062,-0.960022,0.085876465,-5.5625,-15.15625,5.546875
1696243460128,-0.24829102,-0.98638916,-0.012268066,-0.875,-6.859375,-1.71875
1696243460168,-0.19042969,-1.0784302,0.04852295,-1.421875,10.671875,2.78125
1696243460188,-0.1105957,-1.3765259,-0.027893066,-22.3125,2.140625,0.109375
1696243460231,-0.064208984,-1.4724731,1.8310547E-4,-5.90625,-0.25,3.25
1696243460270,0.28564453,-1.479065,-0.113098145,7.40625,10.921875,-3.640625
1696243460312,0.7927246,-1.0703735,-0.26324463,2.046875,-2.5625,-3.5
1696243460349,0.13647461,-1.2068481,-0.047912598,-7.203125,-17.421875,14.59375
1696243460390,-0.26245117,-1.1001587,-0.07354736,3.390625,-13.4375,-3.9375
1696243460432,0.009521484,-0.5342407,-0.022277832,5.609375,11.28125,5.46875
1696243460470,0.02758789,-0.32818604,0.047546387,2.625,12.421875,8.53125
1696243460511,-0.07324219,-0.442688,0.09222412,2.0,13.640625,1.6875
1696243460552,0.044921875,-0.6057739,0.14910889,1.625,16.0,5.1875
1696243460593,0.044189453,-0.8792114,0.10076904,-1.359375,5.953125,6.0
1696243460609,-0.050048828,-1.2051392,0.14691162,-5.25,0.328125,-5.875
1696243460649,0.17236328,-1.2583618,0.007019043,9.359375,1.890625,-10.28125
1696243460689,0.15917969,-1.2930298,0.39471436,6.109375,3.96875,6.640625
1696243460732,-0.5847168,-1.5342407,-0.3110962,-20.953125,-16.984375,-41.953125
1696243460770,0.71728516,-1.0615845,-0.5471802,12.609375,17.3125,8.984375
1696243460811,0.3244629,-1.0564575,-0.43121338,-2.9375,-2.203125,11.625
1696243460850,0.028564453,-1.4927368,0.012634277,-7.390625,-4.03125,-2.6875
1696243460911,0.103027344,-0.90631104,0.16912842,10.6875,-2.203125,-8.3125
1696243460930,-0.01586914,-0.60821533,-0.034729004,8.59375,0.21875,-5.734375
1696243460970,-0.099365234,-0.35943604,-0.09088135,10.484375,-1.9375,4.71875
1696243461011,-0.08203125,-0.4385376,-0.05230713,6.34375,-10.1875,5.34375
1696243461050,-0.064453125,-0.77911377,0.013122559,-3.734375,-21.34375,-0.640625
1696243461090,-0.1328125,-0.99786377,-0.07305908,-4.1875,-24.109375,3.296875
1696243461129,-0.28930664,-1.1331177,0.12322998,-7.296875,4.4375,-4.234375
1696243461178,-0.43676758,-1.2600708,0.009216309,-24.796875,13.859375,-7.390625
1696243461208,0.02709961,-1.1558228,-0.15655518,-5.546875,-6.15625,-5.859375
1696243461249,0.3371582,-1.5974731,-0.14678955,16.421875,21.40625,12.1875
1696243461288,0.7102051,-1.2805786,-0.18121338,1.640625,-12.078125,-8.78125
1696243461328,0.39379883,-1.2319946,-0.10748291,-9.421875,-22.171875,24.625
1696243461369,-0.21606445,-1.3394165,-0.11480713,-7.984375,-29.640625,-4.375
1696243461408,-0.07421875,-0.80963135,-0.05987549,6.96875,-1.875,0.25
1696243461448,0.024414062,-0.36895752,0.10467529,-3.53125,6.859375,16.4375
1696243461489,-0.1328125,-0.42022705,0.06463623,-6.296875,5.375,2.578125
1696243461529,-0.064453125,-0.440979,0.08270264,5.65625,18.921875,0.9375
1696243461568,0.1027832,-0.6248169,0.082458496,4.890625,13.8125,7.109375
1696243461608,0.0056152344,-0.9480591,0.12176514,-3.59375,6.9375,4.046875
1696243461648,0.04248047,-1.147522,-0.15142822,18.734375,-3.546875,-15.5625
1696243461688,0.45581055,-1.3914185,0.56707764,8.984375,18.921875,2.046875
1696243461731,-0.592041,-1.7229614,-0.2234497,-28.5625,-25.796875,-17.640625
1696243461770,0.23388672,-1.4053345,-0.4043579,6.015625,3.3125,-32.78125
1696243461812,0.75,-0.8687134,-0.23443604,4.390625,15.578125,26.921875
1696243461852,-0.17529297,-1.079895,-0.29327393,-3.75,-19.421875,-17.765625
1696243461891,0.061767578,-1.1001587,0.050720215,13.0,-3.734375,15.109375
1696243461909,0.13647461,-0.9338989,0.06756592,5.625,-20.671875,-4.328125
1696243461951,-0.100097656,-0.6565552,-0.04815674,4.53125,-12.078125,1.25
1696243461990,-0.24316406,-0.36676025,-0.081848145,8.515625,0.078125,2.0
1696243462031,-0.03930664,-0.62286377,-0.015930176,5.234375,4.25,-1.65625
1696243462071,-0.036132812,-0.8401489,0.042907715,-5.203125,-3.53125,3.328125
1696243462112,-0.23486328,-0.8779907,-0.0071411133,-7.34375,-7.171875,-5.96875
1696243462151,-0.16552734,-1.0276489,0.034851074,-8.4375,11.984375,-4.828125
1696243462197,-0.25268555,-1.284729,-0.051574707,-13.828125,13.78125,-4.0625
1696243462233,-7.324219E-4,-1.2146606,-0.034973145,-20.875,-1.0,-3.4375
1696243462270,0.11303711,-1.4807739,0.008728027,3.09375,12.296875,-8.59375
1696243462313,0.82299805,-1.2908325,-0.26348877,7.890625,-1.890625,-3.59375
1696243462350,0.47558594,-1.4265747,-0.04547119,-11.734375,-25.703125,23.625
1696243462391,-0.45214844,-1.2451782,-0.06744385,3.5,-22.9375,-4.21875
1696243462431,-0.099853516,-0.5679321,-0.070129395,4.40625,6.765625,-1.796875
1696243462469,0.09716797,-0.3274536,0.08441162,4.671875,8.609375,14.421875
1696243462512,-0.06640625,-0.45562744,0.062927246,3.375,5.15625,5.65625
1696243462551,-0.049560547,-0.4578247,0.12957764,3.84375,13.53125,5.890625
1696243462590,0.0146484375,-0.7036743,0.10809326,6.03125,11.796875,8.640625
1696243462630,-0.0061035156,-1.175354,0.11810303,5.75,9.125,5.65625
1696243462671,0.21972656,-1.357727,-0.12994385,6.640625,-5.390625,-9.875
1696243462711,0.30664062,-1.4431763,0.52679443,4.40625,-2.21875,2.484375
1696243462752,-0.62475586,-1.6450806,-0.28448486,-28.828125,-43.0,-29.71875
1696243462790,0.45654297,-1.1299438,-0.26715088,15.203125,14.453125,-0.421875
1696243462831,0.2680664,-0.74420166,-0.44610596,-3.03125,0.40625,3.921875
1696243462869,-0.1184082,-1.4453735,-0.19171143,-4.546875,12.5625,-6.515625
1696243462910,0.13867188,-1.0420532,0.090270996,4.59375,13.03125,7.546875
1696243462950,0.100097656,-0.8110962,-0.011291504,5.828125,10.625,-10.5625
1696243462988,-0.09082031,-0.53375244,-0.055480957,8.609375,8.296875,4.546875
1696243463029,-0.21044922,-0.3880005,-0.051086426,10.21875,6.859375,5.65625
1696243463072,-0.021728516,-0.63653564,-0.028869629,1.9375,-3.9375,1.921875
1696243463112,-0.036621094,-0.8406372,-0.046936035,1.15625,-17.703125,5.40625
1696243463153,-0.27246094,-0.9783325,0.014343262,-4.4375,-6.953125,-2.5625
1696243463191,-0.32006836,-1.1707153,0.105163574,-13.28125,34.1875,1.71875
1696243463232,-0.19433594,-1.2766724,-0.04864502,-19.125,16.5625,-9.265625
1696243463249,0.0390625,-1.2700806,-0.033996582,-12.1875,7.484375,-3.3125
1696243463291,0.12133789,-1.5791626,-0.30108643,6.359375,5.515625,-7.9375
1696243463330,1.2495117,-1.2964478,-0.18267822,7.53125,-5.9375,4.28125
1696243463372,-0.010498047,-1.4385376,-0.016174316,-20.40625,-45.546875,14.421875
1696243463410,-0.39160156,-1.0100708,-0.15045166,-0.140625,-28.921875,-15.546875
1696243463449,-0.055908203,-0.4175415,-0.058654785,3.078125,1.171875,2.109375
1696243463489,-0.03173828,-0.348938,0.10760498,-4.546875,2.9375,10.4375
1696243463530,-0.15332031,-0.4360962,0.08050537,1.25,8.859375,4.140625
1696243463569,-0.017089844,-0.5256958,0.03778076,9.0625,21.875,6.921875
1696243463610,0.119384766,-0.8574829,0.089538574,16.578125,21.28125,8.109375
1696243463655,0.05859375,-1.2002563,0.27874756,-9.65625,6.328125,3.0625
1696243463691,0.1184082,-1.2693481,-0.038391113,12.125,-19.375,-16.0625
1696243463731,0.22094727,-1.4143677,0.32904053,11.140625,-0.953125,13.203125
1696243463771,-0.7351074,-1.6921997,-0.3320923,-22.5625,-36.953125,-39.15625
1696243463812,0.6435547,-1.1746216,-0.17364502,4.9375,28.234375,17.8125
1696243463850,0.068115234,-0.8423462,-0.39678955,-1.96875,5.390625,-11.71875
1696243463892,0.04321289,-1.3218384,-0.07330322,-2.296875,3.484375,6.15625
1696243463930,0.21875,-0.93927,0.14813232,5.3125,-13.828125,-4.09375
1696243463974,-0.016113281,-0.69537354,0.058044434,12.453125,-9.234375,-6.6875
1696243464010,-0.13476562,-0.38458252,-0.10479736,8.359375,-3.03125,4.0
1696243464051,-0.07495117,-0.44293213,-0.03375244,11.25,-5.5625,4.953125
1696243464089,-0.06713867,-0.74542236,0.04534912,-1.453125,-17.9375,6.09375
1696243464130,-0.29052734,-0.95977783,0.0021362305,-7.453125,-17.65625,3.546875
1696243464170,-0.27661133,-0.960022,-0.08843994,-2.578125,-3.8125,-2.125
1696243464212,-0.19897461,-1.0628052,-0.020568848,-4.171875,17.75,4.28125
1696243464251,-0.13769531,-1.3618774,0.13250732,-22.984375,4.234375,-1.90625
1696243464290,-0.36572266,-1.4785767,0.013122559,-6.265625,13.5625,-2.671875
1696243464331,0.34570312,-1.3650513,-0.17095947,3.75,17.609375,-15.078125
1696243464372,1.232666,-1.2979126,-0.14117432,6.046875,2.1875,12.9375
1696243464411,-0.15917969,-1.4099731,-0.035949707,-11.09375,-38.203125,13.671875
1696243464449,-0.34350586,-0.99664307,-0.1531372,5.734375,-13.4375,-6.46875
1696243464490,0.087890625,-0.47247314,-0.01763916,6.625,10.25,10.875
1696243464529,-0.044189453,-0.32452393,0.042663574,-1.03125,7.546875,14.140625
1696243464552,-0.20678711,-0.4109497,0.105407715,3.640625,13.859375,6.859375
1696243464590,-0.05859375,-0.5730591,0.08685303,7.78125,28.125,9.8125
1696243464632,0.17504883,-0.92974854,0.081970215,8.40625,27.25,8.984375
1696243464670,0.24121094,-1.3030396,0.20574951,-10.28125,2.1875,-2.25
1696243464710,0.25439453,-1.2561646,0.06585693,8.0,-12.484375,-12.828125
1696243464750,0.05834961,-1.3779907,0.19085693,-5.234375,-13.5625,3.484375
1696243464791,-0.4855957,-1.5547485,-0.222229,-19.1875,-29.65625,-40.703125
1696243464829,0.5041504,-1.1907349,-0.35333252,-8.03125,27.453125,10.21875
1696243464872,0.05493164,-0.99420166,-0.4602661,-3.25,3.734375,-14.5625
1696243464910,0.21118164,-1.3582153,-0.0020141602,5.625,3.15625,8.578125
1696243464950,0.19897461,-0.8587036,0.18377686,20.109375,-10.15625,-6.109375
1696243464993,0.020263672,-0.63897705,0.04486084,9.515625,-10.0625,-1.265625
1696243465030,-0.12670898,-0.34918213,-0.09942627,2.125,-9.0625,4.421875
1696243465071,-0.057861328,-0.42315674,0.003112793,5.640625,-14.75,3.265625
1696243465110,-0.109375,-0.78375244,0.046569824,-7.171875,-20.140625,2.953125
1696243465151,-0.3137207,-0.9702759,-0.08502197,-11.75,-18.875,-1.515625
1696243465190,-0.29760742,-1.02594,0.024108887,-5.28125,5.234375,-4.0
1696243465232,-0.28735352,-1.1106567,-0.0029907227,-12.890625,19.015625,-0.375
1696243465270,-0.1003418,-1.3025513,-0.003479004,-16.515625,-1.0,-4.296875
1696243465310,-0.07080078,-1.5823364,0.08929443,11.34375,26.484375,-1.359375
1696243465353,0.69189453,-1.3938599,-0.21466064,13.359375,13.828125,-8.640625
1696243465391,0.64331055,-1.1321411,-0.19586182,0.328125,-12.734375,14.15625
1696243465432,-0.30639648,-1.3479614,-0.05596924,-8.921875,-36.46875,6.609375
1696243465469,-0.22607422,-0.7671509,-0.15167236,2.078125,-5.109375,-1.765625
1696243465511,-0.018310547,-0.42510986,0.027770996,2.0,11.265625,11.265625
1696243465550,-0.05029297,-0.43389893,0.020446777,-2.71875,12.484375,10.328125
1696243465592,-0.12084961,-0.43096924,0.12030029,4.640625,19.125,6.078125
1696243465633,0.095214844,-0.6865845,0.14984131,5.09375,18.671875,9.65625
1696243465670,0.17675781,-1.083313,0.20941162,2.515625,11.6875,10.90625
1696243465710,0.043945312,-1.2073364,-0.070129395,-5.5,-7.28125,-1.28125
1696243465752,0.59887695,-1.1038208,0.29852295,7.421875,-1.796875,7.265625
1696243465790,-0.5944824,-1.5505981,0.34490967,-19.65625,-22.734375,2.390625
1696243465832,-0.6357422,-1.171936,-0.31988525,11.78125,13.71875,-56.984375
1696243465850,1.2492676,-1.0042114,-0.6345825,-2.1875,27.921875,11.296875
1696243465890,0.36816406,-1.5542603,-0.42218018,-4.0,-15.6875,17.234375
1696243465931,-0.28515625,-1.1743774,0.07977295,-12.34375,-20.4375,-14.015625
1696243465972,0.053222656,-0.8123169,0.21697998,30.921875,4.3125,-6.8125
1696243466010,0.29492188,-0.7178345,0.0040893555,15.859375,3.078125,0.171875
1696243466048,0.045410156,-0.4151001,-0.06768799,7.15625,-8.28125,6.125
1696243466088,-0.2133789,-0.4212036,-0.012756348,12.09375,-26.03125,0.46875
1696243466129,-0.23339844,-0.7774048,0.0099487305,4.0625,-26.140625,-0.546875
1696243466169,-0.22314453,-0.93341064,-0.12286377,4.890625,-12.015625,8.484375
1696243466209,-0.22338867,-1.0830688,0.062438965,-5.46875,3.390625,-1.4375
1696243466249,-0.2409668,-1.2351685,-0.043029785,-13.859375,12.125,-4.25
1696243466288,0.04711914,-1.1958618,-0.0869751,-21.09375,4.53125,-4.609375
1696243466328,0.25463867,-1.5266724,-0.07354736,-10.234375,9.921875,2.578125
1696243466369,0.74243164,-1.5081177,-0.35479736,2.234375,-2.078125,-3.734375
1696243466408,0.40307617,-1.2835083,-0.17852783,-8.65625,-38.09375,10.140625
1696243466448,-0.28344727,-1.2283325,-0.03692627,-1.65625,-26.09375,2.453125
1696243466488,-0.14916992,-0.7229614,-0.07086182,-2.15625,-5.140625,0.25
1696243466528,-0.020263672,-0.32354736,0.12567139,3.921875,4.984375,10.484375
1696243466568,-0.15966797,-0.35577393,0.05706787,5.0625,12.015625,2.234375
1696243466608,-0.032470703,-0.42999268,0.10394287,8.5625,22.140625,1.421875
1696243466648,0.095458984,-0.6663208,0.06488037,7.03125,19.09375,9.265625
1696243466688,0.091308594,-1.0403442,0.09906006,1.515625,7.59375,-1.828125
1696243466730,0.107910156,-1.2454224,0.1317749,-19.59375,-2.359375,-11.359375
1696243466769,0.34570312,-1.3604126,0.32611084,-7.953125,-5.453125,-8.328125
1696243466809,-0.19848633,-1.4851685,0.045837402,-20.484375,-20.359375,3.703125
1696243466851,-0.65649414,-1.4341431,-0.34136963,-26.453125,-0.171875,-45.515625
1696243466890,0.82910156,-0.9258423,-0.49908447,3.9375,27.3125,22.21875
1696243466932,0.16625977,-1.4121704,-0.22857666,4.234375,0.78125,-3.578125
1696243466970,-0.0871582,-1.3223267,0.24969482,15.625,7.453125,6.5
1696243467014,-2.4414062E-4,-0.81695557,0.12249756,14.9375,0.34375,-9.4375
1696243467050,-0.02758789,-0.506897,-0.051574707,7.1875,2.765625,1.03125
1696243467089,-0.05810547,-0.22589111,-0.12286377,5.9375,4.390625,6.484375
1696243467128,0.029785156,-0.53131104,-0.020324707,8.203125,-6.578125,4.421875
1696243467169,-0.037353516,-0.8530884,-0.01739502,4.03125,-16.703125,10.515625
1696243467189,-0.2836914,-0.9763794,-0.059631348,-3.671875,-14.0625,4.65625
1696243467229,-0.30273438,-1.086731,0.11395264,-5.703125,16.328125,-0.203125
1696243467269,-0.33422852,-1.248352,0.057800293,-13.671875,11.453125,-3.9375
1696243467308,-0.099365234,-1.3806763,-0.1921997,-0.421875,-1.15625,-0.265625
1696243467349,0.46484375,-1.7241821,-0.33233643,25.28125,17.640625,7.078125
1696243467391,1.0776367,-1.2747192,-0.10650635,0.609375,-3.734375,5.84375
1696243467431,-0.11352539,-1.2991333,-0.11114502,-10.171875,-21.125,11.875
1696243467471,-0.048583984,-1.031311,-0.07623291,6.765625,-12.84375,-8.71875
1696243467511,0.095214844,-0.66363525,-0.06524658,5.8125,-0.609375,11.625
1696243467548,-0.079833984,-0.4180298,0.058776855,-0.46875,12.609375,6.1875
1696243467588,-0.029785156,-0.28692627,0.018249512,-0.359375,21.359375,4.28125
1696243467628,0.09277344,-0.4295044,0.11273193,5.59375,11.703125,4.46875
1696243467669,0.083496094,-0.8838501,0.1774292,-5.15625,6.4375,5.875
1696243467710,-0.049316406,-1.263977,0.08514404,-13.40625,-0.59375,-7.15625
1696243467751,0.1586914,-1.0830688,-0.07354736,4.671875,-11.15625,-17.09375
1696243467790,0.37475586,-1.1565552,0.39520264,7.5,-7.171875,6.203125
1696243467830,-0.7265625,-1.7124634,-0.14337158,-32.8125,-35.828125,-16.859375
1696243467870,0.36816406,-1.2293091,-0.49517822,13.703125,0.65625,-25.171875
1696243467912,0.63061523,-0.91192627,-0.3809204,6.9375,15.265625,22.078125
1696243467951,0.087890625,-1.4309692,-0.07867432,-6.25,-6.53125,-2.890625
1696243467990,-0.04345703,-1.1394653,0.13641357,-1.828125,-4.15625,1.75
1696243468030,-0.0034179688,-0.6536255,0.014587402,5.21875,6.359375,-10.578125
1696243468072,-0.013916016,-0.40093994,-0.046203613,11.421875,-0.6875,4.21875
1696243468113,-0.06982422,-0.39312744,-0.06329346,11.25,-6.515625,3.046875
1696243468151,-0.12011719,-0.7539673,0.036315918,13.984375,-11.625,0.625
1696243468190,-0.088134766,-1.0264282,-0.09161377,6.140625,-13.109375,8.234375
1696243468230,-0.28222656,-0.9902954,-0.028625488,8.4375,-5.03125,1.0
1696243468291,-0.265625,-1.1177368,-0.027893066,-6.890625,20.46875,2.71875
1696243468309,-0.23046875,-1.2249146,-0.11505127,-34.65625,16.828125,-9.796875
1696243468350,-0.024658203,-1.3909302,0.07366943,-5.765625,26.03125,0.203125
1696243468388,0.48999023,-1.5493774,-0.37530518,-5.203125,24.125,-10.453125
1696243468429,1.2189941,-1.2893677,-0.10870361,-2.40625,-7.265625,4.453125
1696243468470,-0.021484375,-1.4363403,-0.044006348,-13.96875,-52.0625,8.578125
1696243468488,-0.48120117,-1.0200806,-0.14630127,5.046875,-18.90625,-10.359375
1696243468529,0.043945312,-0.23565674,0.002380371,2.3125,8.828125,6.515625
1696243468612,0.06738281,-0.18951416,0.09051514,0.875,0.6875,14.265625
1696243468617,-0.1340332,-0.37994385,0.13104248,4.390625,2.265625,3.34375
1696243468648,-0.07714844,-0.5510864,0.101257324,7.796875,14.15625,1.890625
1696243468689,0.17089844,-0.96221924,0.042663574,12.640625,18.21875,7.359375
1696243468730,0.12475586,-1.3091431,0.2506714,-11.328125,-7.3125,-4.84375
1696243468771,0.118896484,-1.2820435,0.027038574,-5.390625,-22.09375,-16.671875
1696243468813,0.06738281,-1.3130493,0.4328003,4.71875,-0.109375,13.5625
1696243468853,-0.75341797,-1.6524048,-0.28131104,-20.609375,-34.09375,-43.421875
1696243468893,0.92163086,-1.1577759,-0.24224854,-9.53125,5.3125,6.625
1696243468932,0.35205078,-1.1829224,-0.50982666,18.3125,-1.8125,12.90625
1696243468969,-0.2849121,-1.3626099,0.008972168,16.9375,10.375,2.8125
1696243469008,0.110839844,-0.7324829,0.16351318,17.765625,11.296875,-1.78125
1696243469050,0.16357422,-0.6409302,-0.012512207,-2.640625,-4.5,-3.78125
1696243469089,-0.049804688,-0.33746338,-0.16900635,-1.234375,-9.59375,6.671875
1696243469131,-0.040283203,-0.30718994,-0.08721924,8.515625,-12.453125,4.484375
1696243469171,-0.056396484,-0.8440552,0.026794434,3.390625,-18.703125,8.703125
1696243469212,-0.1796875,-1.1716919,-0.07281494,-9.8125,-20.390625,3.46875
1696243469250,-0.33447266,-1.1472778,0.11419678,-9.109375,11.96875,-6.671875
1696243469289,-0.3947754,-1.1690063,0.19622803,-13.46875,27.03125,-6.90625
1696243469350,-0.1418457,-1.2315063,-0.28033447,-14.296875,3.296875,-9.734375
1696243469369,0.32128906,-1.5205688,-0.27178955,14.96875,22.9375,1.703125
1696243469412,1.1330566,-1.3845825,-0.19830322,19.4375,-8.125,7.90625
1696243469449,0.23095703,-1.5540161,-0.04888916,-18.6875,-20.4375,23.296875
1696243469488,-0.24536133,-1.12677,-0.21783447,-11.640625,-38.421875,-14.21875
1696243469529,-0.024902344,-0.5935669,-0.09527588,-8.609375,-12.609375,-1.8125
1696243469570,-0.18359375,-0.18341064,0.09979248,-7.140625,0.609375,16.4375
1696243469611,-0.1965332,-0.12530518,0.054382324,-2.53125,15.09375,6.09375
1696243469650,-0.043701172,-0.40777588,0.12689209,15.484375,25.375,3.015625
1696243469689,0.22241211,-0.86309814,0.11126709,12.421875,27.375,14.09375
1696243469729,0.35083008,-1.4546509,0.16912842,-13.125,0.78125,6.03125
1696243469791,-0.08178711,-1.2542114,-0.06109619,8.859375,-19.109375,-22.34375
1696243469810,0.22338867,-1.0874634,0.45672607,10.078125,25.390625,5.9375
1696243469830,-0.82373047,-1.5759888,-0.37750244,-27.375,-13.203125,-37.796875
1696243469872,0.76953125,-1.3250122,-0.32281494,-8.375,22.828125,-7.9375
1696243469910,0.6452637,-1.0447388,-0.45855713,13.125,15.875,13.890625
1696243469951,-0.115478516,-1.3208618,-0.14508057,6.078125,-3.75,-3.984375
1696243469992,0.15112305,-1.0564575,0.16497803,18.59375,-0.34375,2.328125
1696243470033,0.23608398,-0.8167114,0.07659912,11.796875,-4.84375,-3.171875
1696243470071,-0.07788086,-0.4968872,-0.10821533,6.453125,-14.46875,3.046875
1696243470111,-0.14550781,-0.3250122,-0.11383057,10.75,-8.703125,7.828125
1696243470150,-0.06274414,-0.64385986,0.04144287,7.90625,-18.46875,7.609375
1696243470190,-0.12646484,-0.9092407,0.0026245117,-1.8125,-30.703125,5.921875
1696243470231,-0.3894043,-1.0335083,-0.06793213,-3.703125,-10.0625,-1.6875
1696243470271,-0.22680664,-1.2005005,-0.12530518,-9.34375,21.765625,0.0
1696243470311,-0.029052734,-1.3450317,-0.085510254,-28.15625,-3.953125,-7.765625
1696243470354,-0.08129883,-1.484436,-0.0029907227,-6.78125,18.484375,2.40625
1696243470391,0.47143555,-1.3369751,-0.28424072,7.96875,11.34375,-10.859375
1696243470435,1.2504883,-1.2781372,-0.12432861,-2.359375,3.546875,9.078125
1696243470472,-0.22680664,-1.4434204,-0.012756348,-7.203125,-34.484375,3.4375
1696243470511,-0.3154297,-0.9116821,-0.1765747,2.296875,-4.390625,-9.78125
1696243470550,0.099609375,-0.38555908,-0.002746582,0.6875,18.453125,9.6875
1696243470590,-0.060058594,-0.2876587,0.08538818,0.625,13.796875,6.484375
1696243470630,-0.14453125,-0.32843018,0.07928467,-0.5,20.796875,0.734375
1696243470671,0.060302734,-0.47564697,0.16644287,3.15625,22.765625,4.953125
1696243470711,0.083984375,-0.9163208,0.06976318,1.3125,14.921875,9.578125
1696243470752,0.11621094,-1.3804321,0.046081543,1.53125,-1.0,-3.21875
1696243470790,0.44970703,-1.3950806,0.2982788,5.453125,-0.59375,-5.0
1696243470832,-0.32836914,-1.53302,0.08465576,-18.0,-21.09375,-3.5625
1696243470872,-0.4724121,-1.3296509,-0.35894775,-0.46875,6.625,-39.21875
1696243470912,0.8510742,-0.88360596,-0.43658447,-0.359375,21.921875,21.109375
1696243470950,0.1459961,-1.2625122,-0.35113525,-4.359375,-3.234375,4.515625
1696243470990,0.08227539,-1.3809204,0.09075928,6.84375,-3.5,4.9375
1696243471032,0.10180664,-0.7666626,0.08905029,8.515625,0.359375,-11.8125
1696243471071,-0.043701172,-0.548645,-0.019104004,4.84375,-2.421875,-2.546875
1696243471113,-0.15161133,-0.3418579,-0.08673096,7.65625,-6.46875,5.703125
1696243471129,-0.07910156,-0.46954346,-0.040100098,3.6875,-11.4375,3.703125
1696243471170,-0.0043945312,-0.80474854,0.022644043,3.28125,-22.109375,7.3125
1696243471210,-0.13085938,-1.0557251,-0.09503174,3.71875,-27.578125,4.140625
1696243471251,-0.20825195,-1.15802,0.06317139,-4.4375,-0.9375,-2.765625
1696243471291,-0.36621094,-1.3079224,0.07684326,-16.546875,8.8125,-0.625
1696243471330,-0.19384766,-1.1963501,-0.16119385,-20.921875,-4.109375,-14.359375
1696243471370,0.49829102,-1.5640259,-0.23248291,5.859375,24.359375,-3.09375
1696243471410,0.9003906,-1.3294067,-0.12017822,1.015625,1.515625,7.15625
1696243471451,0.1928711,-1.4053345,-0.022033691,-5.15625,-22.03125,12.234375
1696243471491,-0.014404297,-1.2105103,-0.08135986,0.078125,-27.09375,-8.921875
1696243471530,0.05908203,-0.58428955,-0.027893066,-1.578125,-13.375,2.625
1696243471571,-0.13989258,-0.2876587,0.11151123,-4.390625,-10.1875,10.796875
1696243471611,-0.23046875,-0.21905518,0.08123779,-1.5625,2.953125,-1.890625
1696243471650,-0.06518555,-0.37554932,0.11566162,9.875,22.609375,-1.015625
1696243471691,0.088134766,-0.7854614,0.078063965,13.21875,26.34375,8.890625
1696243471732,0.18310547,-1.2236938,0.24261475,-4.734375,13.65625,-0.796875
1696243471770,0.048095703,-1.336731,-0.066711426,10.28125,-9.671875,-19.0
1696243471811,0.1730957,-1.3418579,0.36688232,0.171875,12.234375,-1.125
1696243471852,-0.4711914,-1.6543579,-0.3850708,-27.625,-26.8125,-30.5625
1696243471891,0.73217773,-1.319397,-0.2468872,5.875,9.40625,3.53125
1696243471934,0.12060547,-1.0459595,-0.4763794,2.640625,5.3125,2.5625
1696243471973,-0.052246094,-1.319397,-0.077941895,10.15625,11.4375,0.0625
1696243472014,0.22290039,-0.9487915,0.13470459,12.078125,-6.859375,-6.828125
1696243472050,0.053955078,-0.7073364,-0.012268066,-0.390625,-13.703125,0.71875
1696243472090,-0.14086914,-0.34527588,-0.11920166,5.421875,-11.796875,6.6875
1696243472130,-0.05834961,-0.29351807,-0.085510254,16.484375,-13.15625,3.890625
1696243472169,0.0073242188,-0.63604736,-7.9345703E-4,6.09375,-24.890625,7.875
1696243472210,-0.22875977,-0.9951782,-0.06768799,7.328125,-31.6875,10.703125
1696243472249,-0.27294922,-1.2393188,-0.034484863,4.171875,-0.34375,2.953125
1696243472290,-0.29174805,-1.3865356,-0.02520752,-14.796875,12.640625,6.609375
1696243472331,-0.21166992,-1.4197388,0.0289917,-27.6875,5.390625,-8.640625
1696243472371,-0.021972656,-1.4243774,-0.33770752,19.9375,22.484375,1.578125
1696243472435,0.77783203,-1.0396118,-0.24810791,3.703125,20.0,-8.609375
1696243472452,0.8022461,-1.4126587,-0.066467285,-3.359375,1.109375,19.90625
1696243472471,-0.17211914,-1.3638306,-0.105041504,-4.46875,-31.1875,-2.546875
1696243472510,0.039794922,-0.7793579,-0.1831665,0.40625,-9.8125,3.765625
1696243472550,0.09301758,-0.48150635,-0.0115356445,-2.015625,1.171875,7.40625
1696243472613,-0.16674805,-0.3274536,0.028259277,-1.296875,3.5,2.375
1696243472632,-0.083984375,-0.3040161,0.090026855,5.21875,12.421875,6.0625
1696243472670,0.087890625,-0.517395,0.11810303,1.703125,17.25,10.296875
1696243472711,0.028564453,-0.9480591,0.12713623,2.125,8.59375,7.40625
1696243472750,0.056884766,-1.2634888,0.02142334,0.296875,5.296875,-1.25
1696243472790,0.52783203,-1.447815,0.11468506,13.109375,-3.765625,-6.421875
1696243472853,-0.04321289,-1.5952759,0.44744873,-9.671875,-16.015625,6.109375
1696243472869,-0.9914551,-1.2954712,-0.2654419,-13.5625,-7.265625,-58.375
1696243472911,0.7800293,-0.628479,-0.49371338,4.5,26.984375,-3.359375
1696243472953,0.9082031,-1.1314087,-0.5093384,9.0,-9.1875,26.265625
1696243472990,-0.0847168,-1.8508911,-0.14996338,-8.875,-19.96875,-6.046875
1696243473032,-0.12573242,-0.8726196,0.24627686,5.65625,-5.953125,-11.890625
1696243473073,0.17822266,-0.579895,-0.07989502,1.109375,0.484375,-9.84375
1696243473111,-0.010986328,-0.409729,-0.15167236,13.21875,-12.875,7.09375
1696243473152,-0.11450195,-0.4121704,-0.059143066,16.078125,-17.359375,8.5
1696243473191,-0.049316406,-0.7251587,0.08343506,8.515625,-23.375,5.5
1696243473231,-0.052001953,-1.00177,0.01361084,12.328125,-30.015625,10.65625
1696243473273,-0.39208984,-1.1069946,-0.08258057,2.234375,-9.328125,2.390625
1696243473332,-0.36816406,-1.1677856,-0.17706299,-19.53125,15.59375,-6.703125
1696243473350,-0.0012207031,-1.317688,-0.08453369,-31.484375,4.734375,-15.125
1696243473411,0.07885742,-1.4111938,-0.13336182,-8.609375,5.578125,7.15625
1696243473429,0.31323242,-1.1734009,-0.42730713,-7.1875,12.40625,-13.703125
1696243473492,1.1079102,-1.3496704,-0.11968994,-9.234375,11.078125,6.0
1696243473511,-0.095703125,-1.5562134,0.0048217773,-15.453125,-17.171875,10.890625
1696243473571,-0.29467773,-0.94732666,-0.18927002,6.0,-3.515625,-11.28125
1696243473590,-4.8828125E-4,-0.42071533,-0.06573486,4.078125,19.484375,0.84375
1696243473653,-0.015380859,-0.3267212,0.06097412,0.609375,17.078125,9.640625
1696243473670,-0.027832031,-0.25689697,0.058288574,0.0,19.0,10.25
1696243473709,0.06323242,-0.45269775,0.10614014,3.859375,26.1875,10.578125
1696243473750,7.324219E-4,-0.84942627,0.015075684,11.390625,17.234375,7.171875
1696243473771,0.16796875,-1.3528442,0.19329834,-5.03125,14.609375,2.765625
1696243473809,0.041015625,-1.4553833,-0.062561035,5.15625,-12.234375,-6.953125
1696243473851,0.10913086,-1.1050415,0.3546753,-1.09375,3.875,-0.390625
1696243473891,-0.685791,-1.336731,-0.36602783,-21.421875,-19.5,-32.4375
1696243473931,0.6359863,-1.3809204,-0.42218018,6.703125,25.828125,-1.421875
1696243473972,0.5046387,-1.065979,-0.5120239,6.15625,13.875,7.4375
1696243474010,0.019042969,-1.3174438,-0.23883057,9.65625,0.96875,4.46875
1696243474050,0.1430664,-1.0491333,0.08343506,19.078125,-7.34375,-0.9375
1696243474091,0.13354492,-0.75079346,0.012878418,12.28125,-7.625,-1.28125
1696243474131,-0.010253906,-0.4036255,-0.10406494,6.609375,-15.390625,8.984375
1696243474170,-0.12182617,-0.3147583,-0.117492676,9.046875,-15.875,4.734375
1696243474210,-0.11816406,-0.6409302,-0.03253174,-0.59375,-15.265625,2.265625
1696243474251,-0.22558594,-0.9558716,-0.07672119,0.828125,-20.265625,4.125
1696243474291,-0.21142578,-1.0542603,-0.13238525,1.234375,-12.734375,-4.03125
1696243474332,-0.2133789,-1.2676392,0.03289795,-4.78125,14.140625,1.515625
1696243474375,-0.27197266,-1.3550415,-0.035949707,-29.3125,7.75,-9.328125
1696243474408,-0.1027832,-1.2036743,-0.112854004,-19.515625,1.453125,-10.375
1696243474452,0.24731445,-1.2424927,-0.15753174,0.671875,13.453125,-9.265625
1696243474492,1.0036621,-1.1819458,-0.3147583,-3.484375,21.890625,-6.796875
1696243474532,0.38134766,-1.6287231,-0.028869629,-18.609375,-28.078125,14.90625
1696243474571,-0.35839844,-1.1936646,-0.12530518,-1.921875,-20.421875,-6.171875
1696243474610,-0.028320312,-0.4109497,-0.097229004,3.25,-0.71875,-7.328125
1696243474652,-0.07055664,-0.33355713,0.039733887,1.234375,0.65625,12.953125
1696243474690,-0.19921875,-0.48492432,0.098083496,3.078125,6.34375,6.921875
1696243474730,-0.09057617,-0.42218018,0.018493652,0.421875,20.65625,3.234375
1696243474771,0.103027344,-0.61016846,0.11224365,8.71875,22.34375,8.984375
1696243474811,0.21728516,-1.0464478,0.09124756,-5.15625,11.578125,13.71875
1696243474853,0.35253906,-1.4324341,0.11956787,15.21875,-9.9375,10.453125
1696243474890,-0.08203125,-1.5325317,0.43670654,3.828125,-19.046875,5.9375
1696243474930,-0.91430664,-1.3928833,-0.44122314,-2.96875,-8.71875,-46.890625
1696243474970,1.0385742,-1.1133423,-0.5105591,27.75,25.796875,7.140625
1696243475011,0.62719727,-1.4158325,-0.45465088,-13.046875,-8.109375,19.078125
1696243475051,-0.21582031,-1.3997192,-0.055725098,-11.4375,-8.484375,-10.4375
1696243475069,0.2290039,-0.9505005,0.08050537,15.578125,0.5625,1.671875
1696243475110,0.24365234,-0.7632446,-0.010803223,10.09375,-8.0,-5.375
1696243475151,-0.033203125,-0.37384033,-0.09820557,2.734375,-16.046875,-1.046875
1696243475190,-0.17675781,-0.19244385,-0.08795166,-5.5625,-19.125,-5.8125
1696243475229,-0.07324219,-0.51519775,-0.010559082,-5.875,-23.78125,-9.078125
1696243475270,-0.14135742,-0.7996216,-0.046203613,8.515625,-28.640625,0.453125
1696243475310,-0.31274414,-1.1165161,0.03338623,-0.703125,1.875,-5.71875
1696243475352,-0.44091797,-1.3936157,-0.07720947,-17.3125,23.203125,-8.0625
1696243475391,-0.22705078,-1.2300415,-0.1572876,-30.921875,18.703125,-28.671875
1696243475432,0.1821289,-1.3347778,-0.22271729,15.78125,32.03125,-3.84375
1696243475492,1.3430176,-1.5081177,-0.09942627,-1.484375,-8.015625,-1.65625
1696243475512,-0.032958984,-1.6692505,-0.20391846,-20.25,-33.0625,27.96875
1696243475550,-0.48388672,-1.1851196,-0.14215088,3.625,-10.0625,-14.90625
1696243475613,0.017089844,-0.7918091,-0.12042236,-4.125,10.34375,-0.65625
1696243475628,0.08154297,-0.5628052,0.013366699,-9.453125,10.59375,10.125
1696243475691,-0.048339844,-0.23077393,0.07293701,-7.640625,7.6875,9.15625
1696243475712,-0.014892578,-0.13726807,0.101501465,6.15625,13.3125,4.828125
1696243475749,0.03540039,-0.5366821,0.07244873,11.59375,22.421875,10.734375
1696243475791,0.0,-1.0418091,0.1605835,10.71875,25.0,8.578125
1696243475830,0.024169922,-1.4666138,0.058044434,0.9375,2.8125,-2.984375
1696243475871,0.32861328,-1.3648071,0.2675171,-3.625,-9.609375,-1.0
1696243475930,-0.13769531,-1.4890747,0.1395874,-10.6875,-23.28125,-5.328125
1696243475951,-0.4152832,-1.312561,-0.21783447,-10.9375,-22.875,-38.71875
1696243475994,0.7397461,-1.0640259,-0.41656494,-6.5,-1.640625,16.46875
1696243476030,0.07324219,-1.133606,-0.48077393,2.890625,-1.84375,1.625
1696243476072,-0.1665039,-1.2627563,-0.051330566,5.75,5.421875,9.8125
1696243476114,0.17749023,-0.97442627,0.14276123,14.015625,-7.46875,-7.671875
1696243476152,0.15917969,-0.6729126,-0.024475098,14.171875,-6.0625,4.171875
1696243476191,-0.1328125,-0.35113525,-0.07183838,12.75,-6.03125,10.484375
1696243476251,-0.1159668,-0.44708252,-0.04840088,12.46875,-2.703125,9.453125
1696243476291,-0.008544922,-0.7131958,-0.019592285,1.265625,-10.71875,5.203125
1696243476311,-0.11352539,-0.97320557,-0.06011963,8.34375,-21.515625,6.90625
1696243476353,-0.23022461,-1.1187134,-0.054748535,3.515625,-3.546875,1.359375
1696243476370,-0.27563477,-1.2747192,-0.13824463,-16.015625,4.78125,0.21875
1696243476411,-0.18847656,-1.2244263,-0.12945557,-26.015625,-2.546875,-10.703125
1696243476453,0.0087890625,-1.4421997,-0.0022583008,2.96875,25.984375,-3.109375
1696243476491,0.53125,-1.3052368,-0.23712158,3.53125,19.203125,-14.25
1696243476531,1.0168457,-1.1294556,-0.15679932,-1.09375,-12.875,12.125
1696243476572,-0.29101562,-1.3587036,-0.09185791,-3.609375,-31.203125,2.34375
1696243476611,-0.07421875,-0.8123169,-0.09454346,7.265625,-7.40625,-3.515625
1696243476651,0.13330078,-0.41583252,0.03363037,4.390625,-0.953125,11.1875
1696243476690,-0.028076172,-0.42633057,0.08294678,6.40625,-10.609375,11.34375
1696243476732,-0.13891602,-0.5256958,0.06976318,7.78125,1.109375,3.96875
1696243476772,-0.03540039,-0.6609497,0.06781006,5.0625,17.515625,4.90625
1696243476811,0.051757812,-0.88482666,0.09295654,4.15625,14.84375,0.953125
1696243476853,-0.04272461,-1.145813,-0.0095825195,0.421875,11.265625,-8.890625
1696243476889,0.35180664,-1.2578735,0.19036865,1.546875,14.359375,-17.25
1696243476929,-0.068115234,-1.7224731,0.23944092,-17.8125,-3.28125,3.640625
1696243476971,-0.48657227,-1.3840942,-0.3809204,-24.125,-11.390625,-49.25
1696243477010,0.9489746,-1.0750122,-0.5401001,15.4375,14.9375,15.6875
1696243477049,0.21777344,-1.0488892,-0.4348755,-2.75,-17.09375,7.484375
1696243477092,-0.55322266,-1.409729,0.12689209,-3.15625,1.78125,-6.125
1696243477130,0.1472168,-0.8574829,0.07122803,12.09375,14.90625,0.625
1696243477171,0.20214844,-0.6626587,-0.058410645,5.0,2.171875,1.296875
1696243477212,-0.12670898,-0.31817627,-0.065979004,13.53125,-3.171875,8.859375
1696243477249,-0.24389648,-0.4649048,-0.006164551,5.84375,-2.546875,7.03125
1696243477293,-0.05810547,-0.77423096,-0.057922363,-3.9375,-9.796875,4.140625
1696243477332,-0.056396484,-0.9187622,0.008972168,-0.96875,-13.1875,10.421875
1696243477372,-0.28515625,-1.111145,-0.02911377,-1.171875,-0.828125,2.34375
1696243477411,-0.37451172,-1.2627563,-0.15533447,-11.640625,11.5,-3.546875
1696243477451,0.04272461,-1.3267212,-0.005432129,-22.84375,0.625,-7.125
1696243477493,-0.109375,-1.4407349,-0.014221191,-1.953125,7.609375,-5.46875
1696243477531,0.595459,-1.1531372,-0.32354736,3.34375,15.71875,-14.953125
1696243477575,1.1540527,-1.4900513,-0.077941895,1.546875,-16.59375,30.53125
1696243477610,-0.49389648,-1.4143677,-0.012756348,-10.71875,-39.375,-1.671875
1696243477651,-0.18066406,-0.63946533,-0.120910645,8.28125,-5.109375,-4.875
1696243477691,0.09301758,-0.39971924,0.06561279,4.296875,7.1875,10.53125
1696243477712,-0.055419922,-0.4133911,0.086120605,0.59375,-0.90625,7.109375
1696243477750,-0.12915039,-0.39361572,0.08026123,3.375,8.90625,3.203125
1696243477791,-0.012939453,-0.6030884,0.01776123,6.421875,12.421875,9.625
1696243477830,0.055664062,-0.9534302,0.18597412,3.609375,11.984375,1.890625
1696243477869,-0.08227539,-1.4331665,-0.00982666,10.015625,7.578125,-12.9375
1696243477929,0.33203125,-1.3711548,0.31292725,3.828125,25.546875,-1.296875
1696243477949,-0.2626953,-1.5928345,-0.35772705,-24.140625,-23.859375,-27.625
1696243478011,0.67993164,-1.5315552,-0.40118408,19.40625,0.78125,6.546875
1696243478051,0.088134766,-0.97784424,-0.56744385,-20.84375,-4.765625,-0.21875
1696243478069,-0.23022461,-1.2322388,-0.10284424,-0.734375,0.484375,-6.515625
1696243478112,0.37353516,-0.9661255,0.07977295,10.4375,-9.859375,5.09375
1696243478151,0.072753906,-0.64923096,-0.034484863,13.828125,-9.953125,0.96875
1696243478191,-0.14697266,-0.4517212,-0.042785645,17.25,-5.84375,8.5625
1696243478233,-0.09814453,-0.40093994,-0.059143066,10.625,-5.625,8.921875
1696243478271,-0.057617188,-0.58795166,-0.0064086914,-1.296875,-18.359375,7.359375
1696243478309,-0.15014648,-0.7842407,-0.15093994,-5.84375,-17.09375,9.828125
1696243478348,-0.15161133,-1.0322876,-0.008117676,7.453125,2.328125,8.8125
1696243478392,-0.20776367,-1.3601685,-0.08477783,-7.125,11.4375,6.25
1696243478449,-0.15405273,-1.3486938,-0.05328369,-29.109375,-3.328125,-6.765625
1696243478470,-0.016601562,-1.4160767,-0.09625244,-1.25,17.8125,-10.65625
1696243478508,0.9030762,-1.4846802,-0.34796143,1.03125,4.890625,0.828125
1696243478548,0.8208008,-1.3167114,-0.25177002,-4.265625,-11.0,7.15625
1696243478590,-0.30932617,-1.288147,-0.10040283,2.828125,-21.890625,-2.46875
1696243478630,-0.12231445,-0.9385376,-0.1963501,2.59375,3.09375,-10.15625
1696243478670,0.061523438,-0.4524536,0.0289917,0.703125,12.734375,11.921875
1696243478712,-0.016601562,-0.38360596,0.057556152,-1.34375,9.265625,0.9375
1696243478751,-0.050048828,-0.3435669,0.06878662,-1.015625,13.734375,0.1875
1696243478792,0.061523438,-0.48687744,0.09661865,5.15625,13.25,6.328125
1696243478831,0.053710938,-0.8286743,0.031677246,-0.46875,7.609375,5.515625
1696243478873,0.079833984,-1.097229,0.03753662,-5.9375,-3.0,-6.015625
1696243478911,0.36035156,-1.3794556,0.17401123,-3.8125,-5.953125,2.8125
1696243478951,-0.12231445,-1.7966919,0.40179443,-10.328125,-10.203125,9.4375
1696243478993,-0.6660156,-1.4661255,-0.23809814,-15.40625,-10.265625,-48.234375
1696243479011,0.8076172,-0.8401489,-0.37774658,-4.953125,14.890625,9.46875
1696243479050,0.53881836,-0.99957275,-0.5640259,1.859375,-9.1875,0.625
1696243479130,-0.37963867,-1.4019165,-0.16802979,4.890625,0.40625,7.15625
1696243479133,-0.045654297,-0.92803955,0.12908936,16.796875,12.765625,-0.578125
1696243479169,0.19873047,-0.81427,-0.02960205,8.765625,2.4375,-3.28125
1696243479209,-0.0949707,-0.48687744,-0.08770752,13.78125,2.421875,10.296875
1696243479249,-0.15014648,-0.36480713,-0.03326416,14.546875,5.96875,7.546875
1696243479289,0.009277344,-0.65826416,-0.038635254,3.90625,-2.5625,3.296875
1696243479329,-0.024902344,-0.92974854,-0.1194458,0.75,-16.546875,7.0625
1696243479370,-0.16748047,-1.0930786,-0.003967285,-9.828125,-2.46875,-1.265625
1696243479410,-0.35766602,-1.1814575,-0.12554932,-27.34375,6.578125,-4.5625
1696243479449,-0.25610352,-1.2459106,-0.18585205,-22.296875,2.015625,-17.125
1696243479488,0.095458984,-1.6101685,-0.2654419,15.234375,53.96875,7.96875
1696243479529,1.0405273,-1.4055786,-0.17633057,22.796875,7.421875,-3.359375
1696243479571,0.45996094,-1.3010864,-0.15142822,-13.40625,-18.6875,24.484375
1696243479612,-0.072021484,-1.0386353,-0.113342285,-8.296875,-37.875,-7.765625
1696243479651,0.045166016,-0.70562744,-0.11456299,0.796875,-19.375,-6.265625
1696243479690,0.06591797,-0.506897,0.07098389,-0.3125,-5.953125,6.109375
1696243479751,-0.13208008,-0.31402588,0.031188965,-5.015625,-6.234375,1.53125
1696243479769,-0.08081055,-0.33111572,0.026306152,6.71875,2.109375,-2.734375
1696243479810,-0.017333984,-0.67755127,0.11517334,10.21875,15.015625,7.09375
1696243479850,0.056640625,-1.1314087,0.13323975,-5.21875,16.4375,4.90625
1696243479888,0.0146484375,-1.2254028,0.06463623,0.4375,2.171875,-6.75
1696243479931,0.31884766,-1.1331177,0.08074951,6.125,1.953125,-10.40625
1696243479969,0.008300781,-1.5935669,0.17425537,1.265625,-0.59375,8.0
1696243480014,-0.4958496,-1.4526978,-0.13677979,-15.953125,-14.6875,-40.234375
1696243480051,0.7739258,-1.0930786,-0.2805786,9.421875,8.15625,10.984375
1696243480095,0.27783203,-0.8792114,-0.5684204,-7.921875,-18.84375,-10.375
1696243480131,-0.14135742,-1.3023071,-0.18829346,-1.765625,-1.234375,6.484375
1696243480171,0.15405273,-0.9578247,0.11883545,15.1875,3.4375,4.546875
1696243480216,0.13256836,-0.8557739,0.066345215,14.5625,-0.984375,-5.734375
1696243480250,-0.07470703,-0.5117798,-0.089416504,4.59375,-3.46875,5.328125
1696243480292,-0.12597656,-0.40289307,-0.077941895,4.25,-5.015625,5.40625
1696243480310,-0.06933594,-0.659729,0.007507324,-2.328125,-12.546875,1.609375
1696243480353,-0.11401367,-0.8110962,-0.09649658,-3.890625,-16.890625,0.125
1696243480390,-0.14111328,-1.0403442,-0.034484863,1.71875,-5.859375,2.484375
1696243480432,-0.20996094,-1.2822876,-0.09503174,-11.4375,10.5625,3.40625
1696243480491,-0.17285156,-1.4343872,0.0065307617,-27.90625,6.859375,-6.859375
1696243480510,-0.061035156,-1.6589966,-0.13018799,-10.203125,9.90625,-5.4375
1696243480550,0.4765625,-1.2844849,-0.16192627,9.0625,7.609375,-12.84375
1696243480589,0.76782227,-1.060852,-0.08477783,6.703125,5.84375,11.65625
1696243480629,-0.05419922,-1.0354614,-0.034484863,-7.859375,-30.953125,3.609375
1696243480671,-0.17993164,-0.9212036,-0.038391113,-4.546875,-12.203125,-3.03125
1696243480710,0.12524414,-0.5906372,0.047058105,9.390625,8.296875,12.6875
1696243480752,-0.018310547,-0.31304932,0.06365967,3.390625,0.234375,1.953125
1696243480792,-0.044433594,-0.4048462,0.0053100586,2.59375,-2.78125,-1.1875
1696243480831,-0.1081543,-0.65704346,0.08294678,4.9375,-0.0625,-0.078125
1696243480869,-0.09350586,-0.9246216,-0.008850098,8.265625,8.53125,0.625
1696243480928,0.18261719,-1.1235962,0.097839355,11.109375,8.0625,4.59375
1696243480948,0.020263672,-1.4939575,0.15789795,14.96875,-2.0625,-12.265625
1696243480990,-0.30419922,-1.7422485,0.2723999,-1.265625,-5.484375,2.78125
1696243481031,-0.36743164,-1.1802368,-0.29864502,2.046875,5.65625,-45.171875
1696243481070,0.6672363,-0.8858032,-0.5811157,-0.0625,14.828125,5.90625
1696243481110,0.4387207,-1.1990356,-0.5215454,5.71875,6.015625,15.015625
1696243481151,-0.1862793,-1.2971802,-0.004211426,-10.171875,-5.265625,6.328125
1696243481190,-0.021972656,-0.7949829,-0.019836426,3.65625,11.109375,-7.046875
1696243481231,0.032226562,-0.64434814,-0.097961426,3.375,14.109375,2.46875
1696243481269,0.008300781,-0.4981079,-0.07598877,4.609375,7.703125,11.375
1696243481310,-0.00390625,-0.5342407,-0.05255127,2.796875,-7.671875,5.203125
1696243481349,-0.06713867,-0.77593994,-0.05596924,-2.453125,-17.875,5.328125
1696243481391,-0.234375,-0.9690552,-0.093811035,4.203125,-19.171875,10.421875
1696243481428,-0.21923828,-1.0254517,-0.028137207,-2.875,-0.8125,3.1875
1696243481469,-0.21484375,-1.3308716,-0.18951416,-20.875,2.265625,0.46875
1696243481508,-0.18261719,-1.3215942,-0.0178833,-26.28125,-1.5,-9.15625
1696243481548,0.0041503906,-1.479065,-0.058166504,-0.46875,18.796875,-4.109375
1696243481589,0.6123047,-1.1521606,-0.29180908,-6.90625,25.34375,-11.265625
1696243481629,0.9501953,-1.1377563,-0.117248535,8.1875,-26.640625,23.28125
1696243481649,-0.47021484,-1.4143677,-0.08062744,-4.25,-37.78125,-2.015625
1696243481691,-0.110839844,-0.7420044,-0.117004395,5.75,-4.140625,4.890625
1696243481731,0.11401367,-0.3303833,0.051452637,6.0,3.765625,11.671875
1696243481769,-0.087402344,-0.37286377,0.04949951,4.5,-2.046875,7.578125
1696243481812,-0.14111328,-0.44415283,0.06121826,5.609375,10.578125,3.5625
1696243481854,-4.8828125E-4,-0.6687622,0.038513184,9.234375,13.96875,10.984375
1696243481892,0.06640625,-0.9932251,0.0040893555,4.78125,6.28125,7.5
1696243481932,0.20166016,-1.3677368,0.039978027,4.40625,2.71875,-6.03125
1696243481972,0.23608398,-1.6253052,0.32757568,2.984375,10.265625,-3.609375
1696243482011,-0.35791016,-1.4627075,0.09661865,-23.59375,-8.0625,-17.890625
1696243482052,-0.33007812,-1.0205688,-0.30230713,-2.59375,15.375,-46.078125
1696243482091,0.79541016,-0.8484497,-0.5784302,-12.625,15.421875,1.765625
1696243482131,0.67993164,-1.4378052,-0.4397583,1.578125,-1.703125,25.421875
1696243482170,-0.4958496,-1.3027954,0.12957764,0.28125,-10.890625,-3.71875
1696243482212,-0.008300781,-0.8040161,0.10101318,9.9375,11.71875,-10.421875
1696243482252,0.17651367,-0.65997314,-0.14849854,7.96875,5.21875,2.84375
1696243482293,0.013183594,-0.4031372,-0.073791504,18.109375,1.53125,10.203125
1696243482331,-0.064697266,-0.5459595,-0.02911377,8.671875,-13.671875,5.875
1696243482370,-0.10546875,-0.802063,-0.018859863,-1.578125,-25.640625,1.296875
1696243482411,-0.11450195,-0.9199829,-0.10845947,1.28125,-24.5,8.65625
1696243482452,-0.21191406,-1.1045532,0.050964355,-10.484375,-0.828125,1.359375
1696243482492,-0.32714844,-1.3745728,-0.07720947,-23.578125,-2.515625,-8.0
1696243482532,-0.07373047,-1.2752075,-0.07208252,-31.46875,-8.46875,-15.46875
1696243482569,0.08496094,-1.5151978,-0.13800049,6.5625,16.328125,0.828125
1696243482608,0.7133789,-1.1851196,-0.12799072,3.28125,4.21875,-5.359375
1696243482650,0.4909668,-1.2407837,-0.054504395,-7.34375,-19.8125,15.375
1696243482690,-0.3239746,-1.2293091,-0.07891846,-2.078125,-21.890625,-2.578125
1696243482730,-0.056884766,-0.66363525,-0.089416504,11.0625,3.171875,3.765625
1696243482771,0.060058594,-0.44171143,0.09051514,5.9375,11.34375,10.203125
1696243482811,-0.1105957,-0.4343872,0.06707764,0.53125,12.09375,5.484375
1696243482850,-0.028564453,-0.49395752,0.078308105,6.34375,21.015625,6.453125
1696243482891,0.08935547,-0.6638794,0.02142334,6.765625,15.5625,11.09375
1696243482930,0.12182617,-0.97784424,0.08929443,-10.484375,5.15625,0.125
1696243482950,0.036132812,-1.3152466,-0.025939941,2.078125,-9.78125,-9.25
1696243482990,0.4025879,-1.4268188,0.3163452,6.0,11.671875,14.328125
1696243483032,-0.13500977,-1.5276489,-0.3098755,-27.8125,-56.03125,-24.09375
1696243483072,0.6374512,-1.5083618,-0.09112549,31.078125,-3.21875,25.625
1696243483110,-0.07519531,-0.7739868,-0.4331665,-3.75,-11.40625,-17.65625
1696243483152,-0.059326172,-0.9204712,-0.19073486,5.34375,7.015625,-8.0625
1696243483190,0.4169922,-1.1069946,-0.08258057,16.203125,2.296875,26.390625
1696243483230,0.026123047,-0.9102173,0.00579834,15.0,-2.953125,-7.5
1696243483271,-0.099365234,-0.583313,-0.057678223,10.125,-2.65625,4.59375
1696243483311,-0.08496094,-0.46929932,-0.11260986,3.703125,2.3125,-0.15625
1696243483354,0.030029297,-0.61016846,-0.035217285,3.25,-1.59375,1.453125
1696243483391,-0.1105957,-0.79473877,-0.082092285,-2.8125,-6.296875,3.03125
1696243483432,-0.084472656,-0.94732666,-0.18341064,-6.46875,-6.671875,-5.171875
1696243483473,0.08178711,-1.1863403,0.062438965,-8.40625,5.59375,1.578125
1696243483510,-0.2770996,-1.3545532,0.024353027,-28.9375,-2.40625,-2.375
1696243483552,-0.1784668,-1.0791626,0.016540527,-21.375,-17.375,-16.71875
1696243483592,-0.08569336,-1.2144165,0.11541748,-4.0,12.8125,-11.515625
1696243483630,0.6279297,-1.2776489,-0.4109497,25.421875,43.125,2.09375
1696243483670,1.4621582,-1.4016724,0.043640137,-13.828125,-20.890625,10.09375
1696243483712,-0.55688477,-1.4966431,-0.22198486,-11.9375,-43.75,11.546875
1696243483750,-0.14355469,-0.4993286,-0.14801025,26.734375,-0.84375,-13.75
1696243483791,0.32348633,-0.43218994,0.1149292,8.0,3.125,24.328125
1696243483831,-0.010986328,-0.62677,0.121276855,3.625,-19.0625,1.859375
1696243483871,-0.12670898,-0.51641846,0.05609131,3.265625,-3.890625,-1.15625
1696243483911,-7.324219E-4,-0.6604614,0.07098389,10.609375,12.546875,11.390625
1696243483953,0.063964844,-0.99053955,0.04071045,1.046875,9.828125,1.140625
1696243483991,0.03466797,-1.135315,0.078552246,-5.875,1.25,-16.859375
1696243484031,0.24902344,-1.2979126,0.3234253,-0.953125,16.296875,-8.75
1696243484073,-0.34277344,-1.4805298,0.0138549805,-26.78125,-3.421875,-12.1875
1696243484113,-0.11791992,-1.2415161,-0.2522583,-14.828125,5.609375,-41.359375
1696243484152,1.0266113,-1.2131958,-0.45489502,16.40625,21.1875,26.9375
1696243484194,-0.12475586,-1.1465454,-0.3814087,-19.34375,-21.75,-10.390625
1696243484268,-0.043701172,-1.2136841,0.11102295,7.453125,7.109375,6.90625
1696243484273,0.23046875,-0.9109497,0.047302246,18.90625,2.53125,-4.0
1696243484290,0.11791992,-0.68414307,-0.04937744,13.5625,-7.4375,1.625
1696243484332,-0.08300781,-0.38433838,-0.06011963,13.5625,-11.0,8.984375
1696243484372,-0.12768555,-0.52178955,-0.04547119,4.21875,-13.984375,0.765625
1696243484412,-0.09472656,-0.7476196,-3.0517578E-4,-2.546875,-18.75,5.078125
1696243484451,-0.14233398,-0.9036255,-0.10040283,1.078125,-21.015625,6.375
1696243484490,-0.19750977,-1.0291138,-0.029846191,-8.421875,-7.625,-2.328125
1696243484530,-0.32177734,-1.2949829,-0.03765869,-15.609375,8.96875,0.8125
1696243484570,-0.18408203,-1.2525024,-0.074279785,-27.640625,-0.0625,-13.015625
1696243484610,0.029052734,-1.5742798,-0.20513916,7.609375,26.5,-3.78125
1696243484650,0.9526367,-1.3731079,-0.14337158,1.96875,-2.828125,-3.046875
1696243484693,0.38989258,-1.2998657,-0.11920166,-7.046875,-14.421875,17.9375
1696243484730,-0.234375,-1.1101685,-0.023742676,7.015625,-16.9375,1.3125
1696243484771,-0.013427734,-0.8399048,-0.082336426,2.84375,-2.59375,1.6875
1696243484811,0.08129883,-0.52545166,0.0045776367,2.234375,9.265625,8.609375
1696243484852,-0.06225586,-0.34283447,0.012634277,-1.828125,12.21875,7.0625
1696243484890,0.004638672,-0.37579346,0.09442139,3.78125,18.703125,9.140625
1696243484931,0.0036621094,-0.5967407,0.09320068,6.734375,13.375,10.203125
1696243484972,-0.028076172,-0.989563,0.06829834,0.890625,12.265625,6.171875
1696243485009,0.11816406,-1.2276001,0.042175293,-6.40625,6.328125,-6.359375
1696243485052,0.40161133,-1.3091431,0.1798706,7.703125,-4.3125,-8.546875
1696243485090,-0.26049805,-1.451477,0.32659912,-13.5,-4.25,-7.40625
1696243485132,-0.5209961,-1.3911743,-0.2642212,-16.546875,-8.1875,-46.640625
1696243485171,0.9074707,-1.0283813,-0.39801025,-2.328125,11.3125,6.34375
1696243485211,0.44067383,-1.1826782,-0.46051025,7.71875,-11.90625,12.0625
1696243485255,-0.37353516,-1.2820435,0.018005371,15.59375,3.015625,3.65625
1696243485290,0.15405273,-1.0335083,0.16864014,28.34375,4.515625,4.046875
1696243485331,0.19433594,-0.7112427,-0.09576416,2.53125,-6.71875,3.234375
1696243485392,-0.056640625,-0.33087158,-0.07281494,4.765625,-6.40625,8.84375
1696243485410,-0.21582031,-0.36846924,0.03363037,2.484375,-4.578125,2.59375
1696243485451,-0.034179688,-0.7229614,-0.03717041,-2.71875,-11.265625,3.96875
1696243485493,-0.06298828,-0.87164307,-0.038146973,-3.96875,-18.953125,4.625
1696243485532,-0.24365234,-1.1401978,-0.023986816,-3.796875,0.21875,-1.53125
1696243485570,-0.2980957,-1.2910767,-0.09625244,-18.9375,10.953125,-6.6875
1696243485596,0.032714844,-1.3106079,-0.03692627,-29.515625,-2.609375,-9.90625
1696243485630,0.07397461,-1.4839478,-0.006652832,-6.796875,15.25,-1.703125
1696243485672,0.84277344,-1.2571411,-0.023986816,-5.796875,-16.609375,-4.9375
1696243485712,0.4033203,-1.2998657,-0.08770752,-13.65625,-6.328125,17.359375
1696243485753,-0.29125977,-1.2293091,-0.0134887695,9.421875,-16.4375,-3.96875
1696243485791,0.13085938,-0.8069458,-0.06500244,6.140625,-3.671875,3.59375
1696243485831,-0.00390625,-0.62213135,0.047058105,5.828125,-1.5625,5.25
1696243485873,-0.14746094,-0.37091064,0.01776123,4.546875,2.0625,4.140625
1696243485910,-0.018066406,-0.2786255,0.09442139,9.46875,12.328125,4.234375
1696243485951,0.044433594,-0.5466919,0.12445068,10.515625,14.328125,11.046875
1696243485991,0.07910156,-0.9006958,0.082214355,6.171875,6.328125,3.65625
1696243486031,0.13232422,-1.2576294,0.14544678,-4.296875,1.546875,-6.46875
1696243486070,0.34057617,-1.4668579,0.338562,1.03125,4.9375,-0.34375
1696243486110,-0.41308594,-1.546936,-0.054016113,-21.6875,-18.703125,-11.984375
1696243486153,0.20874023,-1.2261353,-0.4282837,8.46875,-11.0625,-30.046875
1696243486196,0.7312012,-1.2896118,-0.26031494,4.8125,16.03125,34.09375
1696243486232,-0.3005371,-1.0535278,-0.26397705,-13.640625,-17.3125,-13.015625
1696243486273,0.19799805,-1.1069946,0.016540527,15.15625,8.921875,16.046875
1696243486310,0.15185547,-0.90045166,-0.0025024414,10.59375,6.5625,6.6875
1696243486351,-0.032470703,-0.644104,-0.045959473,8.0,4.9375,4.109375
1696243486393,-0.05493164,-0.36749268,-0.06939697,7.40625,5.09375,3.546875
1696243486430,-0.0056152344,-0.5137329,-0.022766113,1.734375,-2.09375,2.265625
1696243486470,-0.010253906,-0.75665283,-0.0012817383,-4.734375,-9.609375,7.8125
1696243486509,-0.04248047,-0.9053345,-0.09552002,-3.0625,-11.0625,0.171875
1696243486551,-0.076171875,-1.0847778,0.042419434,-21.78125,-7.59375,-7.375
1696243486593,-0.24121094,-1.3674927,0.0211792,-32.84375,4.296875,-10.0625
1696243486632,-0.13671875,-1.4871216,-0.07867432,-25.5625,14.03125,-15.25
1696243486672,0.4404297,-1.5552368,-0.206604,11.6875,13.15625,-8.671875
1696243486710,1.065918,-1.2732544,-0.12945557,16.46875,0.40625,0.96875
1696243486752,0.039794922,-1.2197876,-0.018615723,-6.78125,-20.328125,17.703125
1696243486791,-0.11303711,-1.0584106,-0.010803223,3.421875,-16.5625,-5.796875
1696243486831,0.10571289,-0.7617798,0.020446777,3.078125,-5.328125,3.71875
1696243486873,-0.07006836,-0.42095947,0.031433105,5.453125,3.171875,0.78125
1696243486892,-0.08666992,-0.26617432,0.05218506,10.3125,8.203125,5.03125
1696243486932,0.012451172,-0.36309814,0.12322998,11.03125,13.625,2.78125
1696243486972,-0.033203125,-0.6453247,0.0927124,9.03125,13.203125,3.46875
1696243487013,0.06591797,-1.0095825,-0.025939941,4.8125,12.75,-2.046875
1696243487052,0.3725586,-1.2756958,0.066101074,6.03125,-1.109375,-4.078125
1696243487090,0.09008789,-1.7346802,0.4472046,7.4375,-3.34375,8.0625
1696243487130,-0.59887695,-1.4609985,-0.27764893,-15.34375,-25.84375,-33.125
1696243487171,0.59277344,-1.2363892,-0.31280518,6.84375,-0.90625,-7.4375
1696243487213,0.4880371,-1.0327759,-0.5022583,-5.3125,-7.96875,9.828125
1696243487255,-0.12524414,-1.2730103,-0.36773682,-9.390625,-1.359375,-6.40625
1696243487291,0.09326172,-1.0491333,0.054382324,11.5625,6.1875,9.5
1696243487333,0.19311523,-0.8687134,0.1437378,13.484375,-0.359375,-6.125
1696243487374,-0.04663086,-0.56256104,-0.02911377,3.21875,-7.46875,0.8125
1696243487412,-0.22802734,-0.29229736,-0.08673096,2.0625,-0.46875,-1.03125
1696243487450,-0.00390625,-0.4776001,-0.05328369,-1.125,-3.34375,2.6875
1696243487492,-0.046142578,-0.76812744,-0.03302002,-6.0625,-18.21875,5.078125
1696243487533,-0.21411133,-0.98028564,-0.05670166,-2.90625,-8.8125,2.5
1696243487573,-0.22387695,-1.2034302,-0.06011963,-4.546875,10.046875,3.421875
1696243487610,-0.2043457,-1.3599243,0.07879639,-22.015625,0.0625,-4.625
1696243487652,-0.1940918,-1.394104,0.008728027,-31.859375,-0.90625,-12.890625
1696243487691,0.013183594,-1.4072876,-0.20855713,7.375,28.5,-12.046875
1696243487731,1.2854004,-1.3325806,-0.06402588,0.421875,16.546875,0.453125
1696243487773,0.16137695,-1.5266724,-0.046203613,-20.5625,-24.265625,12.375
1696243487810,-0.3466797,-1.0789185,-0.12677002,6.375,-19.15625,-3.3125
1696243487851,0.038085938,-0.4907837,-0.090148926,10.171875,3.609375,6.828125
1696243487892,0.03515625,-0.40045166,0.08001709,8.359375,7.03125,9.609375
1696243487931,-0.1237793,-0.32061768,0.09906006,6.734375,12.78125,3.84375
1696243487974,0.040527344,-0.35040283,0.0524292,7.34375,16.078125,7.625
1696243488011,0.091552734,-0.6367798,0.0848999,7.625,9.9375,13.125
1696243488051,0.10180664,-1.1887817,0.113220215,2.40625,-3.828125,5.640625
1696243488093,0.18408203,-1.545227,0.074645996,6.53125,-21.5625,-8.125
1696243488130,0.28100586,-1.4614868,0.59002686,7.75,-10.796875,16.546875
1696243488172,-1.0241699,-1.4224243,-0.35577393,-36.28125,-36.8125,-54.1875
1696243488211,0.37231445,-1.1096802,-0.5532837,9.28125,34.515625,-37.171875
1696243488229,1.3154297,-1.2930298,-0.2276001,4.90625,22.203125,38.84375
1696243488272,-0.37817383,-1.4255981,-0.21685791,-23.34375,-29.75,-23.84375
1696243488311,-0.42333984,-0.78790283,0.17645264,19.890625,20.765625,4.359375
1696243488351,0.4555664,-0.74298096,0.015563965,14.96875,20.5,-0.734375
1696243488391,0.24951172,-0.4356079,-0.10479736,6.28125,-13.46875,4.046875
1696243488431,-0.16918945,-0.28131104,-0.06915283,13.03125,-20.625,8.96875
1696243488472,-0.2121582,-0.6934204,0.040222168,4.71875,-14.9375,4.671875
1696243488514,-0.12402344,-0.91192627,-0.054016113,0.375,-13.671875,5.171875
1696243488550,-0.14111328,-1.08844,0.014343262,-7.578125,-2.765625,-2.96875
1696243488614,-0.25195312,-1.3792114,0.020935059,-8.640625,9.5625,-2.609375
1696243488630,-0.21069336,-1.2988892,0.03753662,-21.921875,-6.875,-8.625
1696243488671,-0.08178711,-1.2793579,-0.113586426,-8.484375,5.34375,-12.125
1696243488711,0.69189453,-1.3220825,-0.36968994,22.03125,11.171875,-4.15625
1696243488772,1.0024414,-1.5603638,-0.039611816,-3.921875,-10.09375,21.75
1696243488791,-0.3701172,-1.2686157,-0.12335205,-7.6875,-36.734375,-4.484375
1696243488833,-0.12988281,-0.7268677,-0.15118408,10.15625,-9.0,-5.453125
1696243488871,0.046142578,-0.46514893,0.035583496,2.453125,5.765625,8.71875
1696243488912,-0.10424805,-0.4019165,0.09320068,-4.3125,4.734375,8.078125
1696243488973,-0.111083984,-0.348938,0.10028076,3.84375,14.84375,4.1875
1696243488992,0.057128906,-0.51812744,0.053894043,13.8125,14.140625,11.0625
1696243489036,0.046142578,-0.85528564,0.07513428,9.890625,4.53125,11.515625
1696243489092,0.11401367,-1.3015747,0.093933105,0.65625,-1.9375,-1.546875
1696243489109,0.30322266,-1.4065552,0.17303467,5.8125,-12.125,-5.953125
1696243489151,-0.15429688,-1.6763306,0.12835693,-15.046875,-21.65625,-2.984375
1696243489192,-0.030761719,-1.4160767,-0.48712158,3.640625,-21.078125,-33.03125
1696243489231,0.5378418,-1.072815,-0.33843994,4.453125,8.296875,6.703125
1696243489272,-0.107177734,-1.0718384,-0.33795166,-13.453125,-7.421875,-11.25
1696243489312,0.12475586,-1.1189575,1.8310547E-4,5.765625,3.109375,6.8125
1696243489352,0.17797852,-0.8335571,0.058044434,13.140625,-4.828125,-7.28125
1696243489391,-0.008300781,-0.59210205,-0.06842041,7.46875,-7.265625,-1.46875
1696243489430,-0.10205078,-0.37872314,-0.09063721,5.640625,-7.84375,2.703125
1696243489471,-0.068847656,-0.5401001,-0.06427002,-1.203125,-13.703125,5.640625
1696243489551,-0.20361328,-0.74298096,-0.047668457,-1.625,-16.796875,6.328125
1696243489554,-0.22924805,-0.9273071,-0.07965088,-0.28125,-6.28125,6.78125
1696243489571,-0.17944336,-1.1526489,-0.034729004,6.859375,12.5,4.109375
1696243489692,-0.17749023,-1.3355103,0.031433105,-14.96875,18.53125,0.15625
1696243489694,-0.17333984,-1.3464966,-0.10064697,-24.09375,18.140625,-7.8125
1696243489698,0.20703125,-1.505188,-0.28741455,-4.796875,26.9375,-2.953125
1696243489752,0.85131836,-1.1387329,-0.34649658,4.078125,18.109375,-4.875
1696243489771,0.3935547,-1.4011841,-0.10455322,-5.625,-21.9375,23.40625
1696243489814,-0.15429688,-1.1421509,-0.10235596,-1.765625,-20.5,0.984375
1696243489853,0.0546875,-0.710022,-0.06817627,3.375,-6.265625,6.28125
1696243489892,-0.02319336,-0.45343018,0.05657959,3.96875,-4.21875,13.015625
1696243489930,-0.16723633,-0.38067627,0.08294678,0.375,4.625,2.453125
1696243489971,-0.14111328,-0.40631104,0.07098389,-1.328125,18.546875,3.875
1696243490013,0.013427734,-0.6152954,0.06317139,9.578125,21.890625,6.546875
1696243490054,0.0769043,-1.0369263,0.093933105,9.28125,15.03125,3.359375
1696243490091,0.052978516,-1.3699341,-0.025939941,7.328125,4.359375,-6.015625
1696243490151,0.40576172,-1.3157349,0.25213623,13.71875,8.921875,-4.265625
1696243490173,-0.1940918,-1.6082153,-0.08306885,-29.921875,-25.84375,-6.03125
1696243490211,-0.48291016,-1.2219849,-0.54351807,-10.5625,6.203125,-61.1875
1696243490251,1.1057129,-1.1206665,-0.5125122,-1.546875,35.78125,40.59375
1696243490314,0.16113281,-1.3616333,-0.32940674,-3.625,-7.0625,-10.453125
1696243490332,-0.10424805,-1.1470337,0.17718506,15.96875,5.765625,9.421875
1696243490371,0.044433594,-0.7202759,0.057556152,9.28125,1.671875,-4.609375
1696243490411,0.045410156,-0.4121704,-0.13946533,-3.6875,0.421875,3.5
1696243490449,-0.080322266,-0.190979,-0.09503174,4.21875,-3.296875,10.40625
1696243490491,-0.06640625,-0.5828247,-0.035949707,4.890625,-12.578125,4.5625
1696243490530,-0.08496094,-0.99835205,-0.054748535,-3.984375,-19.765625,6.953125
1696243490571,-0.2434082,-1.1536255,-0.08917236,-4.546875,-15.640625,0.84375
1696243490608,-0.24316406,-1.2244263,0.012878418,-6.046875,16.90625,3.328125
1696243490649,-0.23779297,-1.3762817,-0.04034424,-23.09375,0.71875,-1.640625
1696243490689,-0.20336914,-1.388977,-0.14434814,-12.34375,-1.28125,-12.328125
1696243490728,0.43676758,-1.3738403,-0.2942505,18.90625,31.34375,-5.890625
1696243490769,1.1245117,-1.0908813,-0.22467041,17.625,18.578125,9.640625
1696243490831,0.0637207,-1.2637329,-0.06036377,-20.453125,-21.453125,8.859375
1696243490850,-0.1887207,-0.97320557,-0.175354,-7.5,-18.484375,-13.5
1696243490870,0.1538086,-0.58258057,-0.032287598,0.828125,0.859375,5.34375
1696243490912,-0.044677734,-0.5298462,0.09051514,-5.125,6.421875,9.453125
1696243490974,-0.23852539,-0.427063,0.08148193,-4.59375,12.53125,-2.40625
1696243490989,-0.019042969,-0.47052002,0.11883545,7.046875,22.625,6.546875
1696243491033,0.09838867,-0.7034302,0.1005249,3.75,17.546875,12.46875
1696243491072,0.0703125,-0.9883423,0.11810303,-8.375,2.171875,0.984375
1696243491110,0.13427734,-1.3467407,0.039978027,12.703125,0.828125,-7.625
1696243491152,0.23266602,-1.6052856,0.47503662,15.015625,5.09375,19.078125
1696243491192,-0.91259766,-1.4746704,-0.15631104,-23.375,-29.234375,-52.65625
1696243491231,0.6501465,-1.0256958,-0.5100708,13.296875,22.484375,-14.84375
1696243491273,0.7351074,-1.1287231,-0.5059204,-9.015625,-2.328125,13.59375
1696243491313,-0.26708984,-1.5303345,-0.16339111,-7.78125,-7.4375,-0.0625
1696243491351,0.103027344,-1.0083618,0.19866943,11.703125,1.234375,-2.015625
1696243491391,0.38916016,-0.76104736,0.074645996,10.15625,-7.78125,-3.734375
1696243491433,-0.03930664,-0.37774658,-0.105529785,6.609375,-25.890625,3.859375
1696243491471,-0.2915039,-0.2774048,-0.13067627,11.6875,-20.265625,3.796875
1696243491513,-0.049316406,-0.6399536,-0.02545166,10.5625,-18.125,8.84375
1696243491552,-0.018554688,-0.8960571,-0.047668457,3.53125,-31.09375,6.03125
1696243491591,-0.28076172,-1.071106,-0.051330566,0.28125,-19.609375,5.953125
1696243491632,-0.34301758,-1.204895,-0.08404541,-8.765625,9.46875,2.734375
1696243491670,-0.06762695,-1.3130493,-0.13189697,-25.828125,4.109375,-11.8125
1696243491711,0.025146484,-1.633606,-0.105285645,11.8125,23.625,4.8125
1696243491750,0.56933594,-1.2854614,-0.25201416,0.40625,19.5,-14.234375
1696243491790,0.9177246,-1.2610474,-0.14190674,3.140625,0.359375,13.0625
1696243491830,-0.23046875,-1.3411255,-0.047668457,-6.671875,-24.96875,1.3125
1696243491891,-0.107666016,-0.7698364,-0.19366455,0.34375,-5.625,-5.21875
1696243491909,0.16796875,-0.4192505,0.029968262,5.140625,8.4375,9.625
1696243491950,-0.016357422,-0.31451416,0.10394287,1.3125,6.453125,9.46875
1696243491991,-0.1303711,-0.3340454,0.15325928,0.265625,11.140625,4.53125
1696243492031,-0.053466797,-0.6018677,0.12835693,1.4375,18.484375,9.34375
1696243492091,0.0871582,-0.9951782,0.13250732,-1.0625,16.671875,8.65625
1696243492150,0.044921875,-1.4993286,-0.113342285,3.15625,8.234375,-11.9375
1696243492171,0.48046875,-1.388977,0.24945068,18.796875,16.828125,1.34375
1696243492175,-0.36914062,-1.5872192,-0.17144775,-27.3125,-26.390625,-8.359375
1696243492211,-0.1862793,-1.0337524,-0.46099854,-11.171875,3.0,-47.203125
1696243492251,0.90771484,-0.8765259,-0.7012329,-14.515625,14.390625,16.90625
1696243492291,0.3010254,-1.4622192,-0.34405518,0.609375,-5.65625,9.40625
1696243492331,-0.16601562,-1.3557739,0.28460693,8.78125,-1.9375,1.0
1696243492372,0.099121094,-0.8179321,0.08758545,1.734375,-11.0625,-11.484375
1696243492412,-0.057128906,-0.4602661,-0.089660645,-5.609375,-8.78125,-3.953125
1696243492450,-0.08642578,-0.17877197,-0.06549072,7.609375,-4.09375,4.890625
1696243492490,-0.061035156,-0.49786377,-0.05206299,9.234375,-11.8125,4.390625
1696243492530,-0.05419922,-0.8032837,-0.05596924,4.15625,-25.84375,5.53125
1696243492570,-0.26586914,-1.0596313,-0.08380127,-6.984375,-20.734375,2.390625
1696243492611,-0.31689453,-1.3196411,-0.030822754,-10.8125,11.734375,2.15625
1696243492651,-0.2331543,-1.3692017,4.272461E-4,-15.296875,2.921875,-4.3125
1696243492691,-0.022949219,-1.5059204,-0.07550049,-6.875,16.5625,-4.515625
1696243492733,0.62475586,-1.3494263,-0.30743408,9.140625,20.390625,-9.65625
1696243492771,0.97436523,-1.3049927,-0.030822754,-5.140625,2.546875,14.34375
1696243492812,-0.16430664,-1.2549438,-0.07940674,-16.359375,-30.578125,-4.5625
1696243492850,-0.08911133,-0.78326416,-0.14801025,3.015625,-11.109375,-8.671875
1696243492913,0.0949707,-0.40802002,0.039001465,6.578125,2.609375,9.59375
1696243492930,-0.10644531,-0.378479,0.10369873,-0.625,2.421875,9.078125
1696243492972,-0.2109375,-0.3735962,0.06463623,1.703125,16.296875,0.328125
1696243493010,-2.4414062E-4,-0.62994385,0.06585693,9.625,27.53125,6.90625
1696243493053,0.140625,-1.020813,0.19598389,0.265625,25.421875,10.640625
1696243493092,-0.04345703,-1.3018188,-0.0015258789,0.6875,4.625,-2.5
1696243493130,0.4140625,-1.1358032,0.117126465,10.03125,3.0,-9.265625
1696243493173,0.107910156,-1.7359009,0.25238037,1.421875,-15.828125,12.203125
1696243493210,-0.5698242,-1.4348755,-0.21710205,-15.609375,-37.828125,-50.21875
1696243493251,0.8952637,-0.83843994,-0.43951416,12.859375,16.328125,18.90625
1696243493290,0.20825195,-0.9685669,-0.44000244,-5.8125,-14.34375,-4.734375
1696243493331,-0.20727539,-1.4397583,0.0033569336,7.65625,0.609375,7.640625
1696243493372,0.21899414,-0.91070557,0.14105225,16.5,-3.34375,-3.265625
1696243493410,0.13476562,-0.6265259,-0.034973145,7.96875,-7.421875,-3.53125
1696243493449,-0.14013672,-0.33380127,-0.10992432,7.59375,-12.0,8.890625
1696243493470,-0.16455078,-0.48223877,-0.06402588,6.546875,-6.09375,7.84375
1696243493513,-0.0859375,-0.80963135,-0.016662598,8.484375,-13.796875,6.0
1696243493555,-0.125,-0.9944458,-0.0960083,4.109375,-18.75,7.171875
1696243493589,-0.17089844,-1.1480103,-0.057678223,-2.015625,0.46875,4.640625
1696243493632,-0.21777344,-1.3963013,-0.13189697,-19.953125,4.28125,-0.078125
1696243493670,-0.020996094,-1.3486938,-0.13775635,-24.03125,-0.109375,-4.84375
1696243493711,0.0073242188,-1.3086548,-0.1104126,7.65625,22.546875,-3.515625
1696243493754,0.70947266,-1.045227,-0.2546997,2.171875,22.40625,-11.796875
1696243493791,0.93188477,-1.4402466,-0.09942627,-5.25,-13.46875,18.5625
1696243493833,-0.13183594,-1.2903442,-0.09136963,-3.59375,-30.796875,-6.390625
1696243493872,-2.4414062E-4,-0.7515259,-0.112854004,9.5,-8.625,0.171875
1696243493911,0.05053711,-0.48199463,0.043640137,3.328125,-1.078125,6.578125
1696243493951,-0.09277344,-0.34136963,0.08734131,0.109375,-0.28125,3.4375
1696243493992,-0.079833984,-0.31036377,0.06854248,1.890625,7.625,4.40625
1696243494030,0.020996094,-0.54571533,0.07733154,3.859375,12.21875,6.140625
1696243494073,0.07299805,-0.91363525,0.053649902,4.953125,6.25,2.828125
1696243494111,0.083496094,-1.2857056,0.014587402,-0.296875,-2.640625,-7.984375
1696243494152,0.23657227,-1.4817505,0.22943115,2.265625,-3.375,-3.859375
1696243494192,-0.23730469,-1.6358032,0.32928467,-14.21875,-3.421875,-1.828125
1696243494232,-0.56030273,-1.2354126,-0.2185669,-11.171875,1.328125,-53.265625
1696243494271,0.751709,-1.019104,-0.36993408,-12.578125,12.265625,-11.765625
1696243494310,0.8000488,-1.1248169,-0.442688,-3.84375,-14.90625,15.640625
1696243494352,-0.41577148,-1.2102661,-0.1765747,-1.875,-7.0625,3.9375
1696243494392,-0.1027832,-0.9024048,0.26849365,27.078125,18.375,3.8125
1696243494435,0.21655273,-0.87701416,-7.9345703E-4,-1.546875,2.4375,-4.15625
1696243494471,-0.0690918,-0.47418213,-0.16534424,-2.046875,-4.234375,5.453125
1696243494510,-0.11767578,-0.37164307,-0.05230713,15.6875,3.171875,9.578125
1696243494554,0.028808594,-0.73760986,-0.008605957,11.609375,-5.109375,8.90625
1696243494613,-0.08300781,-0.90997314,-0.08453369,-0.875,-22.0,8.71875
1696243494630,-0.27001953,-1.0200806,-0.035461426,-4.34375,-4.84375,2.1875
1696243494670,-0.28149414,-1.317688,-0.05645752,-12.078125,14.328125,0.15625
1696243494711,-0.09448242,-1.4221802,-0.07574463,-17.09375,-6.546875,-1.59375
1696243494751,0.016113281,-1.361145,-0.0178833,-5.65625,4.265625,0.03125
1696243494790,0.42871094,-1.2376099,-0.22833252,5.03125,7.046875,-9.25
1696243494811,0.79467773,-1.3760376,-0.06402588,4.78125,16.59375,13.015625
1696243494855,0.0014648438,-1.2490845,-0.0881958,-11.3125,-22.90625,-2.15625
1696243494891,-0.02709961,-0.86920166,-0.16827393,-0.46875,-16.171875,-4.859375
1696243494933,-0.020507812,-0.4710083,-0.059387207,1.1875,-0.421875,2.96875
1696243494976,-0.115234375,-0.29815674,0.05999756,-1.796875,10.21875,8.03125
1696243495010,-0.076171875,-0.35772705,0.08734131,1.046875,16.25,5.203125
1696243495051,0.030273438,-0.5886841,0.12005615,5.109375,17.546875,4.6875
1696243495093,0.10546875,-0.90753174,0.09173584,3.390625,12.375,6.859375
1696243495132,0.15283203,-1.1607056,0.10882568,2.09375,0.65625,0.46875
1696243495172,0.2055664,-1.3657837,0.14642334,2.34375,-4.375,-1.34375
1696243495211,-0.14233398,-1.6050415,0.23114014,-1.28125,-3.546875,2.796875
1696243495253,-0.43774414,-1.4490356,-0.1975708,-8.8125,-17.8125,-40.046875
1696243495291,0.71191406,-1.0039673,-0.34332275,5.125,12.234375,7.75
1696243495331,0.2836914,-0.9402466,-0.49517822,-3.296875,-8.8125,-0.046875
1696243495372,-0.13500977,-1.2971802,-0.13897705,2.875,4.484375,10.078125
1696243495412,0.16064453,-0.9553833,0.13372803,12.015625,0.328125,-3.015625
1696243495451,0.13134766,-0.71832275,0.0026245117,8.234375,-1.0,-1.59375
1696243495492,-0.13549805,-0.41070557,-0.061584473,8.765625,-3.546875,7.3125
1696243495531,-0.09423828,-0.41461182,-0.06817627,9.96875,-5.0,8.296875
1696243495571,-0.0073242188,-0.6880493,-0.020568848,3.953125,-17.09375,10.109375
1696243495612,-0.08081055,-0.95758057,-0.121154785,5.71875,-23.5,10.71875
1696243495652,-0.1352539,-1.2127075,-0.074279785,3.703125,-3.3125,6.75
1696243495691,-0.27075195,-1.4338989,-0.043762207,-12.0625,0.375,8.296875
1696243495732,-0.25097656,-1.4085083,-0.18243408,-30.90625,-6.046875,-12.859375
1696243495773,0.15185547,-1.3848267,-0.27764893,13.828125,22.4375,-5.5625
1696243495835,0.9658203,-1.1604614,-0.17559814,3.328125,14.5625,-4.515625
1696243495851,0.55810547,-1.4006958,-0.061828613,-15.4375,-8.0,16.46875
1696243495892,-0.14233398,-1.0935669,-0.11187744,-4.46875,-19.84375,-10.96875
1696243495933,0.19335938,-0.7214966,-0.046936035,4.015625,-8.328125,-1.859375
1696243495991,0.05859375,-0.42633057,0.013366699,-5.125,-3.390625,4.15625
1696243496011,-0.18701172,-0.21612549,0.032165527,-5.09375,0.734375,0.4375
1696243496051,-0.05102539,-0.31378174,0.078552246,6.625,12.671875,5.4375
1696243496092,0.042236328,-0.642395,0.08929443,12.171875,16.828125,10.53125
1696243496151,0.09838867,-1.0994263,0.070739746,5.609375,12.5,8.984375
1696243496155,0.22143555,-1.3967896,0.07537842,0.984375,-2.1875,-7.9375
1696243496209,0.25976562,-1.5361938,0.14154053,4.78125,1.609375,-1.578125
1696243496229,-0.15039062,-1.5022583,-0.20098877,-12.015625,-22.421875,-21.96875
1696243496291,0.47070312,-1.366272,-0.31817627,8.265625,-31.640625,-17.34375
1696243496329,0.42895508,-1.0237427,-0.49786377,-6.671875,6.234375,0.203125
1696243496350,-0.14013672,-1.0877075,-0.2649536,-1.78125,4.3125,-9.15625
1696243496391,0.2980957,-1.0615845,0.022399902,24.265625,3.0625,11.15625
1696243496450,0.11303711,-0.76397705,0.016296387,9.109375,-9.890625,-9.390625
1696243496469,-0.036621094,-0.43927002,-0.04449463,4.015625,-6.734375,3.21875
1696243496509,-0.103759766,-0.2937622,-0.11383057,3.578125,-8.25,4.078125
1696243496551,-0.0859375,-0.5667114,-0.04840088,5.46875,-13.953125,3.390625
1696243496611,-0.114746094,-0.96051025,-0.18878174,9.390625,-14.53125,7.125
1696243496629,-0.023925781,-1.1983032,-0.12432861,3.84375,1.015625,-0.578125
1696243496671,-0.111083984,-1.333313,-0.06573486,-18.28125,-2.859375,2.28125
1696243496711,-0.171875,-1.2088013,-0.2539673,-29.0,-14.296875,-21.0625
1696243496751,0.14013672,-1.3919067,-0.18585205,22.234375,26.21875,-0.890625
1696243496790,1.0461426,-1.0796509,-0.03692627,2.59375,24.015625,1.96875
1696243496832,0.17333984,-1.4817505,-0.09039307,-25.46875,-32.765625,9.828125
1696243496873,-0.11254883,-1.109436,-0.22808838,4.546875,-20.90625,-4.203125
1696243496911,0.21166992,-0.59381104,-0.09454346,6.140625,-0.109375,4.75
1696243496952,0.043701172,-0.43121338,0.08294678,1.765625,-6.453125,15.09375
1696243496991,-0.14672852,-0.40411377,0.051940918,1.671875,-6.734375,2.453125
1696243497031,-0.061035156,-0.39971924,0.02508545,4.875,8.1875,7.703125
1696243497073,0.020996094,-0.7210083,0.089538574,5.703125,14.421875,12.140625
1696243497110,0.048583984,-1.180481,0.0211792,-0.484375,9.53125,4.625
1696243497151,0.14770508,-1.3130493,-0.04547119,5.125,0.515625,-16.796875
1696243497191,0.29052734,-1.4185181,0.30023193,15.296875,13.25,5.953125
1696243497230,-0.36645508,-1.3796997,-0.050842285,-24.640625,-18.125,-19.78125
1696243497270,0.016113281,-1.1638794,-0.3665161,-1.1875,9.953125,-41.21875
1696243497310,1.0959473,-0.9573364,-0.644104,12.15625,5.5625,19.59375
1696243497374,0.21435547,-1.3999634,-0.4331665,-12.75,-21.75,1.4375
1696243497390,-0.38623047,-1.1670532,0.07635498,-0.25,-5.125,-0.0625
1696243497411,0.22070312,-0.7630005,0.038269043,10.625,13.125,-7.21875
1696243497453,0.15942383,-0.64434814,-0.12701416,2.15625,-1.90625,2.0
1696243497493,-0.12573242,-0.37091064,-0.09039307,10.65625,-4.96875,8.0625
1696243497531,-0.13989258,-0.5081177,-0.05255127,6.9375,-7.34375,5.234375
1696243497572,0.0029296875,-0.7588501,-0.049621582,2.3125,-17.875,2.765625
1696243497612,-0.056640625,-0.9951782,-0.13555908,3.8125,-22.0625,7.5
1696243497651,-0.2043457,-1.2383423,0.03338623,-8.0,4.09375,0.65625
1696243497691,-0.33911133,-1.4553833,-0.12896729,-27.6875,4.21875,-9.0
1696243497730,-0.03515625,-1.1965942,-0.14337158,-31.453125,-13.6875,-18.453125
1696243497773,0.2084961,-1.3464966,-0.33868408,10.234375,19.890625,-5.359375
1696243497813,1.010498,-1.1856079,-0.24420166,1.640625,20.640625,1.25
1696243497851,0.2265625,-1.579895,-0.04034424,-27.265625,-16.0625,13.1875
1696243497891,-0.43286133,-1.0745239,-0.32110596,6.734375,-7.265625,-5.25
1696243497932,0.046875,-0.36553955,-0.14996338,-1.140625,13.375,5.28125
1696243497970,-0.0048828125,-0.30548096,0.109313965,-1.671875,13.640625,15.484375
1696243498015,-0.18359375,-0.3953247,0.10223389,-1.84375,22.03125,6.421875
1696243498053,-0.030761719,-0.47320557,0.09515381,7.609375,30.25,9.40625
1696243498094,0.12988281,-0.71466064,0.030456543,13.671875,31.09375,11.53125
1696243498132,0.1430664,-1.2046509,0.035583496,3.640625,19.640625,0.828125
1696243498171,0.31152344,-1.4092407,-0.043029785,10.125,7.125,-8.0
1696243498210,0.3022461,-1.515686,0.11102295,-21.90625,-21.171875,9.328125
1696243498252,-0.37402344,-1.4280396,-0.44659424,4.8125,-35.78125,-34.109375
1696243498294,0.7565918,-1.40094,-0.18658447,3.046875,25.578125,34.40625
1696243498331,-0.19458008,-0.90826416,-0.5022583,-16.28125,-13.015625,-25.703125
1696243498372,0.23291016,-1.1380005,-0.15777588,14.46875,12.609375,13.796875
1696243498412,0.2175293,-0.9841919,-0.0413208,7.9375,-1.5625,2.46875
1696243498451,0.032958984,-0.7954712,0.006286621,11.0625,-3.671875,-3.078125
1696243498492,-0.10058594,-0.4126587,-0.12286377,4.40625,1.828125,4.0
1696243498533,-0.052246094,-0.3423462,-0.09039307,0.921875,3.09375,-2.359375
1696243498571,0.013671875,-0.60821533,-0.0413208,-2.90625,-8.90625,2.53125
1696243498614,-0.11230469,-0.86553955,-0.049865723,1.703125,-18.5625,2.015625
1696243498651,-0.13867188,-1.1707153,0.050231934,-9.421875,-6.90625,-5.46875
1696243498690,-0.27148438,-1.3799438,-0.10211182,-27.140625,6.203125,0.78125
1696243498730,-0.26782227,-1.2637329,-0.14483643,-23.5625,-1.140625,-15.21875
1696243498751,0.24047852,-1.550354,-0.270813,16.359375,29.390625,3.5625
1696243498790,1.067627,-1.3391724,-0.10821533,1.34375,-0.640625,-0.75
1696243498831,0.1862793,-1.2620239,-0.11651611,-7.5,-8.6875,14.390625
1696243498871,-0.09008789,-0.9824829,-0.15142822,5.546875,-13.890625,-3.578125
1696243498910,0.16479492,-0.7827759,-0.050598145,1.375,-12.734375,1.859375
1696243498952,0.03515625,-0.55426025,0.0045776367,3.359375,-3.625,7.390625
1696243498990,-0.17749023,-0.22613525,-0.0032348633,5.09375,3.25,3.4375
1696243499053,0.056396484,-0.30645752,0.06585693,11.03125,9.0625,3.6875
1696243499070,0.07299805,-0.67388916,0.058532715,8.90625,8.390625,11.90625
1696243499112,0.091552734,-1.0769653,0.09466553,0.109375,3.90625,3.765625
1696243499150,0.16333008,-1.4160767,0.030456543,0.421875,2.84375,-7.203125
1696243499191,0.3232422,-1.4485474,0.28094482,2.984375,5.0,-2.140625
1696243499231,-0.22802734,-1.4942017,-0.16607666,-26.203125,-25.078125,-19.375
1696243499272,0.30639648,-1.21344,-0.36138916,-4.671875,-2.453125,-24.828125
1696243499311,0.4831543,-1.0496216,-0.43341064,2.03125,4.171875,13.25
1696243499350,0.006591797,-1.1846313,-0.33062744,-3.203125,-0.640625,-3.125
1696243499390,0.087402344,-1.1150513,0.038513184,16.59375,9.640625,10.734375
1696243499433,0.23291016,-0.8862915,0.04437256,14.421875,1.890625,-2.6875
1696243499472,-0.0021972656,-0.55303955,-0.055236816,0.765625,-4.125,-0.796875
1696243499537,-0.17578125,-0.34649658,-0.06695557,13.640625,0.921875,1.15625
1696243499549,0.037353516,-0.5315552,-0.04815674,6.703125,-3.5,-1.25
1696243499593,0.07055664,-0.7505493,-0.07086182,7.96875,-16.59375,4.0
1696243499632,-0.1496582,-0.96173096,-0.16168213,7.484375,-16.71875,-2.21875
1696243499671,-0.14892578,-1.2688599,-0.14508057,-5.8125,1.15625,5.203125
1696243499711,-0.27075195,-1.4854126,-0.023986816,-22.421875,-1.0,2.59375
1696243499751,-0.23486328,-1.3467407,-0.13043213,-12.609375,13.609375,-5.640625
1696243499792,0.3215332,-1.1895142,-0.33355713,-8.234375,18.25,-3.765625
1696243499853,1.0812988,-1.2293091,-0.17242432,3.453125,15.890625,8.953125
1696243499869,0.08569336,-1.2754517,-0.18145752,-12.921875,-25.71875,7.875
1696243499910,0.033691406,-1.0515747,-0.19000244,-1.21875,-10.375,-9.703125
1696243499949,0.1940918,-0.88482666,-0.0647583,2.578125,-3.84375,11.625
1696243499990,0.0073242188,-0.5393677,0.026550293,-2.171875,-3.859375,2.15625
1696243500029,-0.15625,-0.30352783,0.070495605,3.015625,2.28125,1.203125
1696243500049,-0.03930664,-0.34576416,0.090026855,4.53125,12.9375,-0.6875
1696243500090,0.033691406,-0.6260376,0.038269043,7.75,15.140625,4.5
1696243500130,0.14086914,-0.8652954,-0.03717041,1.578125,4.375,-4.1875
1696243500169,0.15942383,-1.2127075,0.06561279,4.953125,8.125,-6.421875
1696243500209,0.1574707,-1.4260864,0.18084717,-1.03125,-4.21875,-3.546875
1696243500249,-0.15014648,-1.6358032,-0.21881104,-25.328125,-31.15625,-13.796875
1696243500290,0.62353516,-1.4920044,-0.3123169,21.609375,-9.71875,1.921875
1696243500331,0.15014648,-0.8858032,-0.4085083,-26.78125,-21.828125,-4.625
1696243500372,-0.19750977,-1.1726685,-0.2942505,4.265625,9.140625,-6.734375
1696243500410,0.34326172,-1.0908813,0.059020996,17.375,13.375,18.015625
1696243500450,0.13623047,-0.97979736,-0.007873535,5.234375,-2.59375,-11.09375
1696243500492,-0.11669922,-0.59259033,-0.08453369,-0.4375,-1.671875,-0.109375
1696243500531,-0.16821289,-0.34454346,-0.10675049,1.765625,6.859375,-1.21875
1696243500570,0.012939453,-0.5130005,-0.054748535,-2.15625,-0.09375,-1.796875
1696243500609,-0.014892578,-0.7280884,-0.06427002,-5.5625,-14.671875,3.046875
1696243500650,-0.17236328,-0.95440674,-0.12408447,-9.515625,-16.546875,-3.796875
1696243500690,-0.2368164,-1.1340942,0.16986084,-20.1875,12.375,-0.421875
1696243500731,-0.3864746,-1.2537231,0.0053100586,-23.578125,14.6875,-4.90625
1696243500773,-0.15161133,-1.1714478,-0.042785645,-24.1875,2.140625,-11.015625
1696243500812,-0.17211914,-1.4065552,-0.050354004,2.234375,29.40625,-6.25
1696243500851,0.8869629,-1.0930786,-0.52911377,30.984375,26.28125,-1.78125
1696243500891,1.1115723,-1.7871704,0.17962646,-17.265625,-16.890625,29.5
1696243500931,-0.4741211,-1.4016724,-0.11138916,-10.53125,-46.390625,-0.734375
1696243500971,-0.07714844,-0.5828247,-0.12677002,16.8125,-6.09375,-3.859375
1696243501013,0.03930664,-0.47833252,0.14227295,2.453125,3.671875,16.4375
1696243501052,-0.1574707,-0.36798096,-0.0025024414,-3.203125,5.1875,1.875
1696243501092,-0.034423828,-0.25567627,0.08099365,8.296875,21.546875,6.078125
1696243501132,0.06567383,-0.54693604,0.14227295,15.140625,20.765625,15.09375
1696243501171,0.11425781,-0.9939575,0.12054443,1.515625,16.359375,7.265625
1696243501214,0.15673828,-1.2756958,0.031677246,3.78125,-6.0,-10.5625
1696243501250,0.4951172,-1.5735474,0.37786865,5.296875,12.53125,3.78125
1696243501290,-0.39575195,-1.937561,-0.21929932,-34.890625,-42.015625,-26.390625
1696243501332,0.8269043,-1.5420532,-0.4649048,45.734375,-10.171875,7.375
1696243501351,0.2175293,-0.8374634,-0.34576416,-16.0625,-15.203125,-11.28125
1696243501389,-0.26879883,-1.1172485,-0.1194458,-4.703125,6.125,-12.078125
1696243501434,0.22558594,-0.93536377,0.074157715,13.375,10.828125,11.953125
1696243501474,0.14575195,-0.62042236,-0.009338379,8.28125,6.421875,-13.5
1696243501513,-0.032714844,-0.36480713,-0.058654785,8.0625,-4.09375,3.390625
1696243501552,-0.109375,-0.3711548,-0.059387207,7.390625,-5.1875,4.03125
1696243501590,-0.056152344,-0.6890259,0.015319824,0.328125,-8.3125,2.390625
1696243501633,-0.12719727,-1.0061646,-0.12750244,-3.359375,-14.203125,7.703125
1696243501690,-0.25317383,-1.1277466,-0.008361816,0.96875,-3.328125,-1.984375
1696243501710,-0.23632812,-1.2810669,-0.06866455,-14.828125,12.75,3.734375
1696243501753,-0.12841797,-1.2825317,-0.09307861,-26.96875,2.890625,-5.46875
1696243501791,-0.041015625,-1.491272,-0.036193848,8.765625,19.9375,-1.375
1696243501831,0.8083496,-1.3120728,-0.32061768,-4.515625,18.578125,-8.84375
1696243501871,0.96899414,-1.2207642,-0.109436035,-1.5625,-16.421875,6.71875
