# Sensor type: Respeck
# Activity type: Lying down on stomach
# Activity subtype: Normal
# Subject id: s2104454
# Notes: unprocessed
timestamp,accel_x,accel_y,accel_z,gyro_x,gyro_y,gyro_z
1696243055116,0.6088867,-0.08502197,-0.7966919,0.203125,1.875,0.625
1696243055136,0.59814453,-0.07476807,-0.7854614,0.71875,0.484375,0.484375
1696243055176,0.58862305,-0.06500244,-0.7620239,0.625,-0.671875,0.5625
1696243055238,0.57299805,-0.0725708,-0.74102783,0.390625,-0.875,0.28125
1696243055257,0.5644531,-0.07183838,-0.7341919,-0.40625,-1.171875,0.109375
1696243055297,0.56518555,-0.07965088,-0.7197876,-0.359375,-1.171875,-0.078125
1696243055337,0.5788574,-0.07574463,-0.7424927,-0.234375,-0.59375,0.0
1696243055377,0.59375,-0.081604004,-0.7625122,-0.03125,-0.15625,0.125
1696243055416,0.6015625,-0.0713501,-0.7769165,0.171875,0.03125,0.296875
1696243055457,0.595459,-0.06793213,-0.7737427,0.3125,-0.03125,0.359375
1696243055518,0.5805664,-0.066467285,-0.7564087,0.171875,-0.078125,0.28125
1696243055537,0.57373047,-0.07623291,-0.7439575,-0.015625,-0.125,0.390625
1696243055579,0.5769043,-0.06842041,-0.7420044,-0.21875,-0.296875,0.234375
1696243055619,0.5739746,-0.07501221,-0.7481079,0.03125,-0.59375,0.328125
1696243055657,0.57714844,-0.07550049,-0.74591064,-0.25,-0.859375,0.1875
1696243055739,0.5895996,-0.077697754,-0.75738525,0.140625,-0.828125,0.359375
1696243055742,0.58740234,-0.07940674,-0.77056885,0.078125,-0.359375,0.359375
1696243055758,0.5900879,-0.07525635,-0.7608032,0.109375,-0.5625,0.28125
1696243055797,0.58813477,-0.07305908,-0.75201416,0.03125,-0.34375,0.3125
1696243055838,0.57470703,-0.07159424,-0.7473755,0.03125,-0.34375,0.34375
1696243055901,0.5810547,-0.0713501,-0.75079346,-0.203125,-0.484375,0.265625
1696243055939,0.5786133,-0.073791504,-0.75323486,-0.1875,-0.421875,0.1875
1696243055978,0.57592773,-0.078430176,-0.755188,0.1875,-0.25,0.34375
1696243055998,0.5866699,-0.07550049,-0.7630005,0.09375,-0.4375,0.3125
1696243056038,0.58251953,-0.07501221,-0.7529907,0.046875,-0.375,0.25
1696243056078,0.5866699,-0.0725708,-0.7600708,0.125,-0.484375,0.34375
1696243056118,0.58325195,-0.074523926,-0.7576294,0.09375,-0.390625,0.203125
1696243056180,0.5756836,-0.07159424,-0.7498169,0.078125,-0.515625,0.28125
1696243056199,0.5769043,-0.07501221,-0.7505493,-0.1875,-0.296875,0.203125
1696243056238,0.57714844,-0.06939697,-0.75250244,-0.203125,-0.515625,0.15625
1696243056278,0.5810547,-0.070129395,-0.75494385,0.109375,-0.015625,0.1875
1696243056318,0.5786133,-0.07598877,-0.756897,-0.515625,-0.3125,0.046875
1696243056359,0.5800781,-0.074035645,-0.75567627,-0.078125,0.015625,0.234375
1696243056400,0.5744629,-0.07208252,-0.7593384,-0.3125,0.453125,0.046875
1696243056439,0.5812988,-0.0725708,-0.7583618,-0.4375,-0.234375,0.140625
1696243056503,0.57836914,-0.07720947,-0.75323486,-0.21875,-0.25,0.09375
1696243056519,0.5769043,-0.07940674,-0.756897,-0.390625,-0.515625,0.125
1696243056558,0.5776367,-0.07598877,-0.75665283,-0.53125,-0.453125,0.125
1696243056599,0.57592773,-0.078430176,-0.7529907,-0.484375,-0.1875,0.125
1696243056640,0.578125,-0.074523926,-0.75201416,-0.28125,-0.09375,0.203125
1696243056682,0.58447266,-0.08087158,-0.7581177,-0.328125,-0.03125,0.203125
1696243056718,0.57592773,-0.07550049,-0.75128174,-0.28125,-0.46875,0.171875
1696243056779,0.57128906,-0.07525635,-0.7583618,-0.328125,-0.453125,0.125
1696243056797,0.579834,-0.081604004,-0.76153564,-0.3125,-0.421875,0.0625
1696243056838,0.58081055,-0.08477783,-0.76031494,-0.5,-0.21875,0.15625
1696243056879,0.58447266,-0.074523926,-0.75909424,-0.375,-0.078125,0.0625
1696243056920,0.5734863,-0.08062744,-0.7576294,-0.328125,-0.328125,0.15625
1696243056957,0.5637207,-0.08648682,-0.74542236,-0.328125,-0.28125,0.09375
1696243056999,0.58032227,-0.082092285,-0.7605591,-0.28125,-0.265625,0.078125
1696243057038,0.5678711,-0.08111572,-0.7451782,-0.078125,-0.03125,0.203125
1696243057057,0.5734863,-0.08258057,-0.7720337,-0.453125,0.015625,-0.015625
1696243057099,0.5722656,-0.07598877,-0.7647095,-0.5,-0.296875,-0.03125
1696243057157,0.5727539,-0.078430176,-0.75787354,-0.171875,-0.4375,0.03125
1696243057177,0.57470703,-0.07940674,-0.7666626,-0.453125,-0.296875,0.109375
1696243057220,0.5734863,-0.089416504,-0.76519775,-0.375,-0.0625,0.21875
1696243057258,0.56933594,-0.08795166,-0.75738525,-0.5,-0.328125,0.015625
1696243057298,0.5695801,-0.08453369,-0.7559204,-0.359375,-0.453125,0.1875
1696243057337,0.56933594,-0.08795166,-0.75616455,-0.296875,-0.609375,0.140625
1696243057378,0.56811523,-0.082336426,-0.753479,-0.28125,-0.40625,0.109375
1696243057420,0.57543945,-0.08477783,-0.7661743,-0.375,-0.421875,0.109375
1696243057457,0.5732422,-0.08111572,-0.76348877,-0.328125,-0.609375,0.140625
1696243057498,0.5671387,-0.08795166,-0.75909424,-0.390625,-0.515625,0.109375
1696243057537,0.5732422,-0.08673096,-0.7620239,-0.296875,-0.359375,0.078125
1696243057577,0.5698242,-0.08892822,-0.76690674,-0.40625,-0.421875,0.03125
1696243057618,0.57055664,-0.08843994,-0.75567627,-0.34375,-0.390625,0.09375
1696243057658,0.5678711,-0.09063721,-0.75616455,-0.375,-0.328125,0.21875
1696243057696,0.5734863,-0.0869751,-0.753479,-0.234375,-0.078125,0.046875
1696243057736,0.5776367,-0.08526611,-0.7661743,-0.40625,-0.4375,0.09375
1696243057777,0.5734863,-0.08843994,-0.75909424,-0.3125,-0.703125,0.140625
1696243057817,0.5703125,-0.09527588,-0.7632446,-0.1875,-0.484375,0.265625
1696243057856,0.57128906,-0.093322754,-0.75982666,0.078125,-0.484375,0.28125
1696243057897,0.57470703,-0.093811035,-0.77423096,-0.046875,-0.453125,0.203125
1696243057936,0.57177734,-0.09112549,-0.7647095,-0.15625,-0.390625,0.359375
1696243057976,0.57299805,-0.08673096,-0.7515259,0.375,-0.78125,0.359375
1696243058016,0.5708008,-0.08453369,-0.75616455,0.328125,-0.46875,0.359375
1696243058056,0.57470703,-0.089416504,-0.756897,0.359375,-0.828125,0.40625
1696243058096,0.57470703,-0.08135986,-0.76641846,0.1875,-0.671875,0.5625
1696243058136,0.57592773,-0.085998535,-0.7620239,0.1875,-0.625,0.4375
1696243058176,0.5805664,-0.085510254,-0.7588501,0.078125,-0.59375,0.140625
1696243058217,0.57055664,-0.09112549,-0.7539673,0.25,-0.671875,0.46875
1696243058259,0.5744629,-0.08746338,-0.75177,0.140625,-0.234375,0.265625
1696243058300,0.576416,-0.08746338,-0.7737427,-0.015625,-0.171875,0.34375
1696243058377,0.55859375,-0.08380127,-0.73931885,0.28125,-0.640625,0.390625
1696243058402,0.57250977,-0.08526611,-0.77545166,-0.171875,-0.078125,0.0625
1696243058406,0.5727539,-0.08795166,-0.76446533,0.03125,-0.5625,0.359375
1696243058477,0.57714844,-0.08380127,-0.7595825,0.21875,-0.625,0.25
1696243058480,0.5800781,-0.0869751,-0.7647095,0.171875,-0.796875,0.359375
1696243058517,0.5805664,-0.07745361,-0.7605591,0.09375,-0.8125,0.25
1696243058560,0.5727539,-0.08746338,-0.756897,0.3125,-0.796875,0.5
1696243058601,0.5661621,-0.08843994,-0.753479,0.09375,-0.625,0.28125
1696243058639,0.5686035,-0.08258057,-0.76031494,0.28125,-0.34375,0.21875
1696243058679,0.5722656,-0.08087158,-0.76519775,-0.015625,-0.265625,0.28125
1696243058719,0.57958984,-0.08477783,-0.7581177,0.234375,-0.5625,0.28125
1696243058778,0.5703125,-0.08355713,-0.76397705,0.0625,-0.53125,0.265625
1696243058798,0.57373047,-0.07940674,-0.7647095,-0.03125,-0.546875,0.234375
1696243058860,0.5761719,-0.07891846,-0.75787354,-0.046875,-0.546875,0.25
1696243058877,0.56933594,-0.085754395,-0.7522583,0.296875,-0.671875,0.4375
1696243058918,0.57177734,-0.077697754,-0.7529907,0.421875,-0.796875,0.46875
1696243058960,0.576416,-0.0803833,-0.772522,-0.109375,-0.1875,0.15625
1696243059020,0.5600586,-0.0791626,-0.74346924,0.21875,-0.53125,0.390625
1696243059038,0.57421875,-0.07501221,-0.7600708,0.0625,-0.28125,0.203125
1696243059099,0.5776367,-0.0803833,-0.767395,-0.03125,-0.515625,0.03125
1696243059117,0.5710449,-0.07598877,-0.75787354,0.15625,-0.390625,0.078125
1696243059157,0.57055664,-0.08013916,-0.7637329,0.078125,-0.5625,0.28125
1696243059203,0.57128906,-0.082336426,-0.7612915,0.1875,-0.515625,0.359375
1696243059240,0.5788574,-0.07891846,-0.75982666,-0.0625,-0.71875,0.40625
1696243059281,0.57836914,-0.07891846,-0.7476196,0.09375,-0.828125,0.28125
1696243059318,0.57177734,-0.082336426,-0.7522583,0.140625,-0.5,0.328125
1696243059359,0.5761719,-0.074279785,-0.75372314,-0.109375,-0.34375,0.28125
1696243059400,0.57470703,-0.082092285,-0.7593384,0.078125,-0.296875,0.296875
1696243059439,0.57006836,-0.07574463,-0.7617798,-0.015625,-0.34375,0.125
1696243059479,0.57666016,-0.08135986,-0.7608032,0.015625,-0.5625,0.265625
1696243059520,0.57177734,-0.07623291,-0.75738525,0.03125,-0.578125,0.359375
1696243059579,0.57128906,-0.07647705,-0.75616455,0.09375,-0.859375,0.28125
1696243059598,0.58374023,-0.07891846,-0.7678833,-0.0625,-0.328125,0.140625
1696243059637,0.57714844,-0.077941895,-0.7661743,0.0625,-0.546875,0.34375
1696243059681,0.5661621,-0.077941895,-0.75128174,0.203125,-0.78125,0.328125
1696243059696,0.5734863,-0.07965088,-0.7576294,0.078125,-0.5625,0.296875
1696243059738,0.5722656,-0.0791626,-0.76446533,-0.171875,-0.15625,0.21875
1696243059779,0.5727539,-0.07647705,-0.75738525,0.0,-0.578125,0.203125
1696243059818,0.5678711,-0.07891846,-0.75787354,0.125,-0.53125,0.3125
1696243059859,0.5761719,-0.07720947,-0.755188,0.125,-0.546875,0.15625
1696243059898,0.57373047,-0.07720947,-0.7617798,-0.078125,-0.359375,0.265625
1696243059937,0.57373047,-0.081604004,-0.75665283,-0.0625,-0.328125,0.234375
1696243059980,0.5695801,-0.07598877,-0.7546997,-0.15625,-0.359375,0.21875
1696243060041,0.5734863,-0.07525635,-0.76031494,0.0625,-0.46875,0.0625
1696243060057,0.56689453,-0.077697754,-0.7588501,-0.09375,-0.5,0.03125
1696243060099,0.57373047,-0.08135986,-0.7559204,-0.125,-0.28125,0.203125
1696243060138,0.5744629,-0.070373535,-0.7612915,-0.25,-0.140625,0.390625
1696243060198,0.56933594,-0.08013916,-0.7583618,-0.21875,-0.296875,0.203125
1696243060220,0.57299805,-0.078186035,-0.7583618,-0.203125,-0.265625,0.140625
1696243060259,0.5678711,-0.0791626,-0.75177,-0.109375,-0.3125,0.125
1696243060298,0.57836914,-0.07940674,-0.76397705,-0.40625,-0.046875,0.015625
1696243060336,0.57592773,-0.08355713,-0.7698364,-0.09375,-0.234375,0.15625
1696243060377,0.56225586,-0.08062744,-0.7490845,0.0625,-0.375,0.15625
1696243060419,0.5673828,-0.08111572,-0.7671509,-0.265625,0.328125,-0.078125
1696243060459,0.57958984,-0.07305908,-0.7744751,-0.515625,-0.140625,-0.25
1696243060499,0.5649414,-0.086242676,-0.755188,-0.125,-0.34375,0.125
1696243060538,0.5734863,-0.08111572,-0.7625122,0.234375,-0.125,0.28125
1696243060579,0.57177734,-0.08062744,-0.76104736,-0.0625,-0.5,0.1875
1696243060618,0.57592773,-0.07745361,-0.76397705,-0.296875,-0.328125,0.078125
1696243060660,0.56518555,-0.08331299,-0.75738525,-0.203125,-0.4375,0.09375
1696243060700,0.5744629,-0.08331299,-0.76226807,-0.09375,-0.3125,0.140625
1696243060742,0.5690918,-0.0803833,-0.7625122,-0.375,-0.375,0.0
1696243060780,0.5708008,-0.077697754,-0.76104736,-0.171875,-0.390625,0.3125
1696243060819,0.5617676,-0.07623291,-0.76153564,-0.328125,-0.1875,0.109375
1696243060859,0.5732422,-0.07574463,-0.77423096,-0.109375,-0.25,0.125
1696243060919,0.5710449,-0.08013916,-0.7649536,-0.265625,-0.359375,0.125
1696243060938,0.5710449,-0.07989502,-0.75909424,-0.109375,-0.484375,0.21875
1696243060980,0.564209,-0.08135986,-0.7612915,0.03125,-0.640625,0.21875
1696243061020,0.57177734,-0.08135986,-0.76690674,-0.296875,-0.328125,-0.03125
1696243061060,0.5739746,-0.08062744,-0.7810669,-0.171875,-0.421875,0.109375
1696243061078,0.5554199,-0.077941895,-0.7402954,-0.0625,-0.453125,0.15625
1696243061118,0.5703125,-0.090148926,-0.77593994,-0.609375,0.171875,-0.09375
1696243061158,0.56933594,-0.086242676,-0.76397705,-0.515625,-0.34375,-0.03125
1696243061198,0.5629883,-0.08795166,-0.75909424,-0.25,-0.25,0.03125
1696243061258,0.56469727,-0.082336426,-0.7617798,-0.0625,-0.296875,0.234375
1696243061298,0.5710449,-0.08355713,-0.75738525,0.0,-0.75,0.21875
1696243061319,0.5744629,-0.08526611,-0.76641846,-0.203125,-0.5625,0.0625
1696243061380,0.56396484,-0.08404541,-0.75445557,-0.0625,-0.625,0.125
1696243061397,0.56518555,-0.08746338,-0.75982666,0.03125,-0.734375,0.390625
1696243061438,0.57177734,-0.085998535,-0.77008057,-0.296875,-0.484375,0.15625
1696243061478,0.5673828,-0.081848145,-0.7630005,-0.21875,-0.640625,0.1875
1696243061519,0.5666504,-0.08306885,-0.7659302,-0.109375,-0.4375,0.140625
1696243061560,0.5666504,-0.081604004,-0.7698364,-0.140625,-0.390625,0.3125
1696243061601,0.5756836,-0.08062744,-0.76348877,0.109375,-0.65625,0.28125
1696243061640,0.5698242,-0.09136963,-0.7617798,0.34375,-0.71875,0.4375
1696243061722,0.5678711,-0.08673096,-0.753479,0.640625,-1.1875,0.53125
1696243061726,0.5617676,-0.089660645,-0.7642212,0.28125,-0.859375,0.46875
1696243061757,0.5710449,-0.082336426,-0.76934814,0.078125,-0.609375,0.296875
1696243061822,0.55810547,-0.07208252,-0.73760986,0.484375,-0.546875,0.375
1696243061838,0.5656738,-0.08477783,-0.7671509,0.0,-0.1875,0.046875
1696243061902,0.5720215,-0.08282471,-0.7647095,0.125,-0.1875,0.1875
1696243061939,0.5703125,-0.07867432,-0.76104736,0.125,-0.40625,0.125
1696243061957,0.5678711,-0.082336426,-0.75982666,0.25,-0.546875,0.375
1696243061999,0.56518555,-0.08770752,-0.75323486,0.125,-0.734375,0.265625
1696243062058,0.57055664,-0.07965088,-0.75616455,0.265625,-0.609375,0.328125
1696243062078,0.564209,-0.08135986,-0.7620239,0.3125,-0.5625,0.53125
1696243062121,0.5654297,-0.07891846,-0.75738525,0.421875,-0.6875,0.296875
1696243062158,0.57592773,-0.07550049,-0.7703247,0.125,-0.3125,0.296875
1696243062200,0.5703125,-0.078430176,-0.76519775,0.265625,-0.375,0.28125
1696243062241,0.5715332,-0.07525635,-0.7612915,0.171875,-0.328125,0.21875
1696243062299,0.5734863,-0.07891846,-0.7625122,0.0625,-0.3125,0.359375
1696243062303,0.56518555,-0.08258057,-0.76275635,0.015625,-0.671875,0.359375
1696243062338,0.5686035,-0.08282471,-0.7649536,0.109375,-0.6875,0.28125
1696243062378,0.5710449,-0.07672119,-0.7612915,0.21875,-0.59375,0.375
1696243062419,0.5673828,-0.08013916,-0.75323486,0.203125,-0.609375,0.328125
1696243062459,0.5715332,-0.081848145,-0.7720337,0.0,-0.296875,0.171875
1696243062499,0.5776367,-0.08062744,-0.77178955,0.03125,-0.359375,0.15625
1696243062539,0.56347656,-0.07476807,-0.75567627,0.171875,-0.578125,0.203125
1696243062581,0.5722656,-0.07525635,-0.76226807,0.015625,-0.21875,0.078125
1696243062618,0.5715332,-0.078430176,-0.7595825,0.078125,-0.140625,0.125
1696243062659,0.56811523,-0.07574463,-0.76348877,-0.015625,-0.4375,0.125
1696243062699,0.5683594,-0.077697754,-0.75787354,0.21875,-0.765625,0.4375
1696243062738,0.57470703,-0.07720947,-0.7620239,0.140625,-0.796875,0.3125
1696243062781,0.57421875,-0.08135986,-0.767395,-0.140625,-0.640625,0.3125
1696243062819,0.5703125,-0.07623291,-0.76348877,-0.015625,-0.375,0.421875
1696243062860,0.5632324,-0.08013916,-0.75860596,0.140625,-0.328125,0.28125
1696243062900,0.5673828,-0.07086182,-0.76446533,0.046875,-0.1875,0.21875
1696243062939,0.56518555,-0.07720947,-0.7612915,0.078125,-0.359375,0.21875
1696243062979,0.57177734,-0.07208252,-0.76104736,-0.03125,-0.40625,0.296875
1696243063021,0.56884766,-0.070617676,-0.76275635,-0.03125,-0.640625,0.203125
1696243063058,0.57592773,-0.07720947,-0.76104736,-0.0625,-0.640625,0.328125
1696243063099,0.5683594,-0.07476807,-0.76104736,0.015625,-0.765625,0.3125
1696243063142,0.5751953,-0.07525635,-0.76031494,0.171875,-0.5,0.140625
1696243063178,0.57006836,-0.07574463,-0.7649536,0.140625,-0.390625,0.21875
1696243063218,0.56689453,-0.074523926,-0.7593384,0.046875,-0.1875,0.28125
1696243063259,0.57373047,-0.07720947,-0.76104736,-0.015625,-0.359375,0.125
1696243063299,0.5686035,-0.074523926,-0.75909424,-0.015625,-0.671875,0.109375
1696243063338,0.57055664,-0.08135986,-0.7647095,0.015625,-0.609375,0.265625
1696243063378,0.57250977,-0.07574463,-0.75250244,0.125,-0.6875,0.25
1696243063421,0.56640625,-0.070129395,-0.7515259,0.015625,-0.65625,0.203125
1696243063479,0.57714844,-0.07232666,-0.77130127,-0.3125,-0.015625,0.140625
1696243063499,0.560791,-0.07208252,-0.75201416,-0.15625,-0.1875,0.171875
1696243063538,0.57177734,-0.07891846,-0.75860596,-0.28125,0.15625,0.03125
1696243063578,0.5698242,-0.073791504,-0.7659302,-0.546875,-0.046875,-0.046875
1696243063619,0.5708008,-0.08111572,-0.76397705,-0.28125,-0.5,0.203125
1696243063640,0.5678711,-0.07232666,-0.7612915,-0.390625,-0.46875,0.125
1696243063679,0.5686035,-0.077941895,-0.7564087,-0.28125,-0.46875,0.25
1696243063717,0.5744629,-0.07745361,-0.76348877,-0.359375,-0.265625,0.203125
1696243063760,0.5656738,-0.07696533,-0.7515259,-0.109375,-0.21875,0.203125
1696243063801,0.56762695,-0.074035645,-0.75787354,-0.109375,-0.125,0.1875
1696243063840,0.5698242,-0.07965088,-0.76397705,-0.515625,-0.1875,0.0
1696243063898,0.56518555,-0.08306885,-0.7647095,-0.234375,-0.359375,0.265625
1696243063918,0.57006836,-0.082336426,-0.7642212,-0.296875,-0.46875,0.21875
1696243063960,0.56811523,-0.08013916,-0.7698364,-0.09375,-0.53125,0.109375
1696243063998,0.5708008,-0.08453369,-0.7661743,-0.234375,-0.421875,0.328125
1696243064041,0.5654297,-0.07720947,-0.7654419,-0.25,-0.34375,0.203125
1696243064101,0.5625,-0.081604004,-0.76153564,-0.234375,-0.421875,0.109375
1696243064139,0.5661621,-0.081848145,-0.7583618,-0.15625,-0.328125,0.125
1696243064159,0.57006836,-0.0803833,-0.76397705,0.0,-0.296875,0.0
1696243064221,0.56469727,-0.078186035,-0.7620239,-0.3125,-0.578125,0.265625
1696243064237,0.57788086,-0.08282471,-0.7761841,-0.59375,-0.28125,-0.125
1696243064299,0.5661621,-0.08502197,-0.7727661,-0.328125,-0.515625,0.09375
1696243064338,0.5551758,-0.07965088,-0.75006104,-0.03125,-0.359375,0.296875
1696243064358,0.5715332,-0.082336426,-0.7671509,-0.46875,0.1875,-0.078125
1696243064398,0.56591797,-0.08673096,-0.7686157,-0.53125,-0.296875,0.078125
1696243064439,0.5654297,-0.08428955,-0.76812744,-0.296875,-0.578125,0.125
1696243064479,0.5632324,-0.07891846,-0.76568604,-0.046875,-0.5,0.1875
1696243064521,0.5661621,-0.081848145,-0.75201416,-0.0625,-0.5,0.140625
1696243064559,0.5708008,-0.086242676,-0.76397705,-0.421875,-0.4375,0.046875
1696243064623,0.56591797,-0.08795166,-0.76568604,-0.28125,-0.4375,0.109375
1696243064679,0.5617676,-0.08526611,-0.75616455,-0.046875,-0.625,0.203125
1696243064683,0.56518555,-0.08404541,-0.76690674,-0.34375,-0.453125,0.15625
1696243064720,0.564209,-0.08648682,-0.7632446,-0.296875,-0.578125,0.0
1696243064757,0.5649414,-0.09136963,-0.76226807,-0.484375,-0.46875,0.125
1696243064840,0.5695801,-0.08380127,-0.76104736,-0.40625,-0.53125,0.140625
1696243064844,0.56811523,-0.08917236,-0.76275635,-0.1875,-0.375,0.171875
1696243064880,0.56640625,-0.08892822,-0.7637329,-0.21875,-0.53125,0.15625
1696243064939,0.56762695,-0.08795166,-0.7608032,-0.234375,-0.546875,0.15625
1696243064958,0.5666504,-0.08843994,-0.7620239,-0.109375,-0.515625,0.125
1696243064977,0.5673828,-0.085754395,-0.7630005,0.03125,-0.703125,0.234375
1696243065018,0.5734863,-0.09039307,-0.7659302,-0.109375,-0.453125,0.0
1696243065081,0.56591797,-0.08746338,-0.7769165,-0.3125,-0.328125,0.265625
1696243065096,0.5510254,-0.09210205,-0.75372314,-0.109375,-0.3125,0.265625
1696243065139,0.56689453,-0.08648682,-0.77349854,-0.453125,-0.140625,0.015625
1696243065180,0.56884766,-0.08721924,-0.7695923,-0.21875,-0.484375,0.078125
1696243065219,0.5629883,-0.09161377,-0.76275635,-0.234375,-0.5625,0.0625
1696243065259,0.5656738,-0.08868408,-0.7625122,-0.203125,-0.5625,0.21875
1696243065298,0.5637207,-0.08306885,-0.7659302,-0.28125,-0.546875,0.296875
1696243065337,0.56689453,-0.09674072,-0.7744751,-0.234375,-0.671875,0.328125
1696243065378,0.564209,-0.085754395,-0.76153564,-0.015625,-0.578125,0.203125
1696243065419,0.5644531,-0.09039307,-0.7600708,0.421875,-0.671875,0.421875
1696243065460,0.56591797,-0.08673096,-0.75738525,0.40625,-0.375,0.453125
1696243065519,0.5632324,-0.09039307,-0.7608032,0.1875,-0.828125,0.21875
1696243065537,0.576416,-0.08428955,-0.7671509,0.1875,-0.53125,0.171875
1696243065580,0.5698242,-0.09039307,-0.76446533,0.359375,-0.53125,0.28125
1696243065618,0.5715332,-0.08477783,-0.7625122,0.390625,-0.515625,0.375
1696243065660,0.5673828,-0.09039307,-0.7647095,0.40625,-0.53125,0.5
1696243065697,0.56591797,-0.08721924,-0.7637329,0.46875,-0.640625,0.328125
1696243065738,0.5698242,-0.08355713,-0.7617798,0.453125,-0.5625,0.46875
1696243065779,0.56640625,-0.08306885,-0.7720337,0.328125,-0.734375,0.484375
1696243065818,0.5644531,-0.07696533,-0.7463989,0.625,-0.703125,0.484375
1696243065859,0.5720215,-0.082092285,-0.770813,-0.15625,-0.34375,0.109375
1696243065898,0.55810547,-0.085754395,-0.7546997,0.390625,-0.453125,0.265625
1696243065939,0.56396484,-0.08331299,-0.7612915,0.0625,-0.125,0.1875
1696243065979,0.56591797,-0.08404541,-0.7661743,-0.109375,-0.46875,0.09375
1696243066023,0.5629883,-0.08502197,-0.7608032,0.203125,-0.375,0.375
1696243066058,0.5644531,-0.08087158,-0.76226807,0.203125,-0.546875,0.3125
1696243066098,0.57128906,-0.07745361,-0.7605591,0.125,-0.671875,0.234375
1696243066138,0.5666504,-0.07745361,-0.767395,0.125,-0.53125,0.21875
1696243066177,0.56689453,-0.082336426,-0.76446533,0.078125,-0.5,0.421875
1696243066237,0.5617676,-0.08380127,-0.7581177,0.359375,-0.53125,0.359375
1696243066258,0.5720215,-0.08135986,-0.7715454,0.171875,-0.421875,0.390625
1696243066278,0.5710449,-0.08062744,-0.7678833,0.21875,-0.65625,0.25
1696243066318,0.5666504,-0.082092285,-0.7620239,0.125,-0.4375,0.296875
1696243066382,0.5661621,-0.08087158,-0.76568604,0.078125,-0.53125,0.140625
1696243066398,0.5673828,-0.08502197,-0.76348877,0.09375,-0.5625,0.265625
1696243066437,0.5666504,-0.07891846,-0.769104,0.15625,-0.765625,0.390625
1696243066482,0.5661621,-0.07647705,-0.7649536,0.140625,-0.515625,0.328125
1696243066541,0.5671387,-0.08306885,-0.7642212,0.0625,-0.53125,0.21875
1696243066558,0.5656738,-0.07940674,-0.7666626,0.0,-0.53125,0.15625
1696243066601,0.5654297,-0.07354736,-0.76226807,0.078125,-0.34375,0.265625
1696243066639,0.5661621,-0.07720947,-0.7632446,0.09375,-0.46875,0.296875
1696243066682,0.5708008,-0.08013916,-0.77423096,-0.109375,-0.25,0.1875
1696243066740,0.5654297,-0.081604004,-0.770813,0.15625,-0.359375,0.25
1696243066758,0.56518555,-0.08111572,-0.7581177,-0.0625,-0.625,0.109375
1696243066818,0.5649414,-0.08135986,-0.7630005,0.1875,-0.453125,0.15625
1696243066837,0.5703125,-0.07110596,-0.7727661,0.0,-0.40625,0.265625
1696243066878,0.5671387,-0.073791504,-0.76104736,-0.078125,-0.546875,0.296875
1696243066919,0.56469727,-0.07647705,-0.7617798,0.1875,-0.484375,0.1875
1696243066981,0.56469727,-0.078430176,-0.76446533,0.03125,-0.4375,0.328125
1696243066998,0.57055664,-0.0713501,-0.7564087,0.09375,-0.484375,0.25
1696243067038,0.5734863,-0.077941895,-0.7666626,-0.15625,-0.359375,0.21875
1696243067079,0.56884766,-0.07989502,-0.7612915,0.15625,-0.359375,0.296875
1696243067119,0.56689453,-0.07476807,-0.7593384,0.03125,-0.5,0.28125
1696243067180,0.5698242,-0.07965088,-0.76153564,0.046875,-0.5625,0.171875
1696243067197,0.5666504,-0.07330322,-0.76446533,-0.0625,-0.6875,0.21875
1696243067258,0.5703125,-0.078430176,-0.7642212,0.109375,-0.359375,0.25
1696243067277,0.5686035,-0.06890869,-0.76690674,0.078125,-0.5,0.34375
1696243067341,0.56811523,-0.077941895,-0.76226807,0.03125,-0.53125,0.21875
1696243067358,0.5671387,-0.073791504,-0.7617798,-0.046875,-0.578125,0.40625
1696243067398,0.5629883,-0.0713501,-0.7620239,-0.03125,-0.546875,0.25
1696243067438,0.56518555,-0.07696533,-0.7588501,0.15625,-0.46875,0.328125
1696243067480,0.57128906,-0.07965088,-0.76446533,-0.109375,-0.421875,0.1875
1696243067522,0.56469727,-0.07574463,-0.7612915,0.0,-0.328125,0.296875
1696243067558,0.5683594,-0.074523926,-0.7612915,0.03125,-0.484375,0.25
1696243067578,0.5722656,-0.077941895,-0.77716064,-0.046875,0.046875,-0.015625
1696243067618,0.5708008,-0.07745361,-0.76641846,0.078125,-0.34375,0.125
1696243067660,0.5690918,-0.07354736,-0.7612915,-0.015625,-0.46875,0.15625
1696243067699,0.5661621,-0.07281494,-0.7620239,-0.09375,-0.5,0.125
1696243067738,0.57299805,-0.07891846,-0.77130127,-0.28125,-0.328125,0.078125
1696243067800,0.5690918,-0.07183838,-0.7632446,-0.265625,-0.5625,0.203125
1696243067817,0.5673828,-0.07476807,-0.76348877,-0.125,-0.40625,0.265625
1696243067859,0.5710449,-0.07720947,-0.76226807,-0.109375,-0.59375,0.28125
1696243067901,0.5727539,-0.07598877,-0.77838135,0.015625,-0.25,0.265625
1696243067938,0.56884766,-0.070373535,-0.75787354,-0.0625,-0.578125,0.203125
1696243067979,0.5629883,-0.07598877,-0.7608032,0.03125,-0.46875,0.328125
1696243068020,0.5703125,-0.07208252,-0.76153564,0.125,-0.53125,0.203125
1696243068058,0.5666504,-0.07574463,-0.76226807,-0.0625,-0.421875,0.21875
1696243068098,0.5695801,-0.07232666,-0.7703247,-0.109375,-0.46875,0.171875
1696243068140,0.5673828,-0.074523926,-0.76397705,-0.28125,-0.171875,0.125
1696243068202,0.57421875,-0.07550049,-0.7661743,-0.375,-0.25,0.09375
1696243068217,0.5661621,-0.07647705,-0.76226807,-0.3125,-0.296875,0.015625
1696243068258,0.56884766,-0.07525635,-0.76885986,-0.296875,-0.25,0.28125
1696243068300,0.5666504,-0.0791626,-0.7600708,-0.34375,-0.25,0.15625
1696243068339,0.5666504,-0.07574463,-0.7595825,-0.25,-0.15625,-0.046875
1696243068378,0.56933594,-0.07989502,-0.7630005,-0.28125,-0.265625,0.046875
1696243068421,0.5720215,-0.0725708,-0.76885986,-0.28125,-0.515625,0.078125
1696243068457,0.56689453,-0.07965088,-0.76446533,-0.40625,-0.421875,0.109375
1696243068499,0.5673828,-0.074523926,-0.7752075,-0.1875,-0.28125,0.0625
1696243068540,0.5612793,-0.07501221,-0.7642212,-0.15625,-0.03125,0.140625
1696243068578,0.5671387,-0.08111572,-0.7661743,-0.328125,-0.328125,0.078125
1696243068620,0.5578613,-0.07159424,-0.7649536,-0.390625,-0.609375,0.125
1696243068681,0.56152344,-0.07550049,-0.7654419,-0.375,-0.34375,0.03125
1696243068698,0.5661621,-0.07647705,-0.76885986,-0.40625,-0.34375,0.0
1696243068738,0.56396484,-0.08258057,-0.7710571,-0.28125,-0.1875,0.140625
1696243068778,0.5649414,-0.08380127,-0.76763916,-0.3125,-0.265625,0.078125
1696243068818,0.5654297,-0.08404541,-0.76519775,-0.21875,-0.625,0.265625
1696243068861,0.55908203,-0.08135986,-0.76153564,-0.21875,-0.328125,0.3125
1696243068877,0.5686035,-0.078430176,-0.7647095,-0.28125,-0.53125,0.046875
1696243068920,0.55810547,-0.08087158,-0.76348877,-0.15625,-0.671875,0.03125
1696243068958,0.55981445,-0.08135986,-0.76763916,-0.234375,-0.53125,0.296875
1696243068998,0.56396484,-0.08282471,-0.76568604,-0.0625,-0.34375,0.109375
1696243069039,0.56884766,-0.078430176,-0.7600708,-0.0625,-0.5625,0.234375
1696243069080,0.5637207,-0.08453369,-0.7659302,-0.03125,-0.484375,0.1875
1696243069119,0.5656738,-0.07867432,-0.7620239,0.0,-0.5,0.1875
1696243069181,0.55981445,-0.08306885,-0.7576294,0.015625,-0.640625,0.15625
1696243069199,0.5661621,-0.08258057,-0.7715454,-0.265625,-0.421875,0.109375
1696243069239,0.5708008,-0.08306885,-0.7737427,-0.265625,-0.390625,0.234375
1696243069279,0.55371094,-0.0881958,-0.75494385,0.0,-0.5,0.1875
1696243069322,0.5686035,-0.090148926,-0.7710571,-0.375,-0.015625,-0.015625
1696243069360,0.56884766,-0.08331299,-0.76885986,-0.328125,-0.34375,0.203125
1696243069420,0.55908203,-0.08087158,-0.7605591,-0.203125,-0.5625,0.15625
1696243069436,0.5637207,-0.08868408,-0.76641846,-0.109375,-0.546875,0.125
1696243069479,0.5617676,-0.08062744,-0.76348877,-0.21875,-0.453125,0.046875
1696243069521,0.56396484,-0.08795166,-0.75982666,-0.390625,-0.59375,0.15625
1696243069561,0.56225586,-0.09259033,-0.7612915,-0.3125,-0.53125,0.140625
1696243069600,0.5593262,-0.08746338,-0.7595825,-0.03125,-0.4375,0.21875
1696243069640,0.5637207,-0.08526611,-0.7671509,-0.3125,-0.5625,0.140625
1696243069701,0.5644531,-0.08502197,-0.7617798,0.265625,-0.796875,0.34375
1696243069717,0.5671387,-0.0881958,-0.77008057,0.03125,-0.703125,0.21875
1696243069758,0.56591797,-0.09039307,-0.7620239,0.09375,-0.53125,0.390625
1696243069798,0.56469727,-0.08477783,-0.7649536,0.0,-0.484375,0.15625
1696243069838,0.5649414,-0.08380127,-0.76519775,0.03125,-0.578125,0.15625
1696243069879,0.5678711,-0.08795166,-0.76104736,-0.03125,-0.453125,0.328125
1696243069941,0.5720215,-0.08477783,-0.76885986,-0.140625,-0.65625,0.234375
1696243069980,0.57177734,-0.085754395,-0.77056885,-0.046875,-0.3125,0.3125
1696243069997,0.55981445,-0.085510254,-0.77008057,0.140625,-0.296875,0.28125
1696243070058,0.5671387,-0.08892822,-0.76519775,0.109375,-0.21875,0.234375
1696243070098,0.56811523,-0.08477783,-0.7617798,-0.015625,-0.609375,0.25
1696243070117,0.56347656,-0.08380127,-0.76104736,0.0,-0.484375,0.296875
1696243070160,0.5666504,-0.08306885,-0.767395,0.21875,-0.703125,0.296875
1696243070198,0.5690918,-0.08135986,-0.76397705,0.203125,-0.734375,0.328125
1696243070217,0.56469727,-0.085510254,-0.76690674,0.078125,-0.59375,0.21875
1696243070259,0.5690918,-0.081604004,-0.7756958,0.203125,-0.53125,0.234375
1696243070300,0.55810547,-0.081604004,-0.7581177,0.265625,-0.515625,0.40625
1696243070339,0.5605469,-0.08087158,-0.7595825,0.390625,-0.546875,0.453125
1696243070380,0.57470703,-0.08111572,-0.76641846,0.171875,-0.453125,0.5
1696243070418,0.56347656,-0.07745361,-0.76568604,0.15625,-0.765625,0.28125
1696243070460,0.5673828,-0.08453369,-0.76446533,0.15625,-0.453125,0.328125
1696243070522,0.56347656,-0.08013916,-0.7683716,0.015625,-0.515625,0.25
1696243070538,0.56396484,-0.0803833,-0.76446533,0.140625,-0.46875,0.5
1696243070578,0.5666504,-0.07940674,-0.7617798,0.046875,-0.34375,0.296875
1696243070618,0.5620117,-0.07989502,-0.76348877,0.203125,-0.5625,0.359375
1696243070659,0.56469727,-0.077697754,-0.7625122,0.28125,-0.640625,0.421875
1696243070699,0.5666504,-0.081848145,-0.7612915,0.109375,-0.5,0.359375
1696243070740,0.5620117,-0.078186035,-0.7522583,0.28125,-0.890625,0.390625
1696243070778,0.5708008,-0.08087158,-0.7769165,-0.09375,-0.328125,0.265625
1696243070822,0.5600586,-0.0803833,-0.7498169,0.3125,-0.5625,0.328125
1696243070858,0.5666504,-0.08087158,-0.7666626,0.0625,-0.40625,0.265625
1696243070900,0.5629883,-0.074523926,-0.7666626,0.0,-0.546875,0.109375
1696243070941,0.57006836,-0.08013916,-0.7661743,-0.109375,-0.40625,0.21875
1696243070978,0.5629883,-0.07989502,-0.76275635,0.078125,-0.671875,0.3125
1696243071039,0.5678711,-0.08087158,-0.767395,0.203125,-0.609375,0.453125
1696243071057,0.56762695,-0.078186035,-0.7661743,0.25,-0.578125,0.203125
1696243071098,0.56274414,-0.07745361,-0.7666626,0.109375,-0.453125,0.296875
1696243071139,0.57055664,-0.07159424,-0.7576294,0.25,-0.421875,0.375
1696243071179,0.5620117,-0.07354736,-0.7649536,-0.03125,-0.34375,0.15625
1696243071217,0.5671387,-0.073791504,-0.7588501,-0.046875,-0.546875,0.28125
1696243071257,0.5661621,-0.07696533,-0.76763916,-0.03125,-0.4375,0.125
1696243071296,0.5698242,-0.0803833,-0.7671509,-0.15625,-0.640625,0.3125
1696243071336,0.5671387,-0.0791626,-0.76446533,-0.03125,-0.515625,0.296875
1696243071377,0.5695801,-0.07330322,-0.76348877,0.078125,-0.40625,0.171875
1696243071416,0.5649414,-0.074523926,-0.7671509,0.140625,-0.40625,0.40625
1696243071456,0.5678711,-0.08111572,-0.7617798,0.140625,-0.46875,0.1875
1696243071497,0.564209,-0.073791504,-0.76348877,-0.03125,-0.5625,0.25
1696243071516,0.5644531,-0.07672119,-0.7617798,0.046875,-0.578125,0.296875
1696243071557,0.56274414,-0.07867432,-0.7666626,-0.03125,-0.421875,0.21875
1696243071617,0.56469727,-0.0713501,-0.7564087,0.171875,-0.46875,0.21875
1696243071638,0.5620117,-0.070617676,-0.7559204,0.25,-0.9375,0.296875
1696243071677,0.5749512,-0.07867432,-0.7744751,-0.171875,-0.359375,0.265625
1696243071717,0.5571289,-0.07672119,-0.75494385,0.109375,-0.625,0.171875
1696243071757,0.5649414,-0.07208252,-0.7605591,0.125,-0.484375,0.21875
1696243071798,0.5654297,-0.07501221,-0.7715454,0.109375,-0.453125,0.125
1696243071840,0.5656738,-0.07745361,-0.7686157,0.03125,-0.515625,0.3125
1696243071877,0.564209,-0.07891846,-0.7617798,0.015625,-0.5,0.234375
1696243071918,0.56347656,-0.074279785,-0.76397705,0.1875,-0.59375,0.34375
1696243071957,0.5698242,-0.07086182,-0.77130127,-0.09375,-0.5,0.3125
1696243071997,0.5690918,-0.07501221,-0.770813,-0.03125,-0.59375,0.21875
1696243072037,0.5637207,-0.07965088,-0.7617798,-0.0625,-0.4375,0.140625
1696243072077,0.5678711,-0.07159424,-0.770813,-0.015625,-0.1875,0.265625
1696243072140,0.5632324,-0.074279785,-0.767395,-0.015625,-0.453125,0.234375
1696243072179,0.56689453,-0.07720947,-0.7666626,-0.125,-0.421875,0.171875
1696243072197,0.56225586,-0.07476807,-0.7659302,0.0,-0.203125,0.078125
1696243072260,0.5656738,-0.07305908,-0.7671509,-0.171875,-0.203125,0.140625
1696243072277,0.5686035,-0.07696533,-0.76397705,-0.265625,-0.328125,-0.03125
1696243072319,0.5620117,-0.07476807,-0.76446533,-0.03125,-0.109375,0.234375
1696243072379,0.56689453,-0.07720947,-0.76153564,-0.109375,-0.25,0.265625
1696243072397,0.57055664,-0.0791626,-0.76397705,-0.171875,-0.140625,0.171875
1696243072436,0.56591797,-0.07476807,-0.7654419,-0.28125,-0.3125,0.03125
1696243072476,0.5637207,-0.07476807,-0.7686157,0.015625,-0.15625,0.1875
1696243072517,0.5703125,-0.074035645,-0.7678833,-0.171875,-0.40625,0.25
1696243072557,0.56030273,-0.078430176,-0.75079346,-0.09375,-0.59375,0.234375
1696243072597,0.5703125,-0.07745361,-0.7683716,-0.203125,-0.34375,0.171875
1696243072637,0.55688477,-0.07598877,-0.7522583,-0.109375,-0.234375,0.203125
1696243072697,0.5671387,-0.07891846,-0.772522,-0.375,-0.125,0.078125
1696243072737,0.56396484,-0.07305908,-0.7659302,-0.5,-0.34375,-0.03125
1696243072777,0.56030273,-0.08331299,-0.76568604,-0.34375,-0.359375,0.015625
1696243072797,0.56225586,-0.07476807,-0.76885986,-0.1875,-0.453125,0.265625
1696243072817,0.5649414,-0.07550049,-0.76934814,-0.015625,-0.484375,0.0625
1696243072857,0.56469727,-0.08013916,-0.77178955,-0.15625,-0.46875,0.03125
1696243072897,0.5559082,-0.08355713,-0.7649536,-0.203125,-0.5,0.09375
1696243072937,0.5625,-0.07647705,-0.7666626,-0.125,-0.453125,0.1875
1696243072976,0.5620117,-0.081604004,-0.7744751,-0.40625,-0.390625,-0.078125
1696243073018,0.5686035,-0.07965088,-0.76519775,-0.1875,-0.546875,0.078125
1696243073058,0.56762695,-0.0803833,-0.7703247,-0.3125,-0.515625,0.09375
1696243073097,0.56518555,-0.07965088,-0.76690674,-0.1875,-0.484375,0.265625
1696243073136,0.56469727,-0.07891846,-0.7666626,-0.25,-0.4375,0.0
1696243073177,0.5656738,-0.07745361,-0.7637329,-0.171875,-0.28125,0.15625
1696243073218,0.5605469,-0.08526611,-0.76397705,-0.234375,-0.421875,0.109375
1696243073257,0.55615234,-0.082092285,-0.7703247,-0.09375,-0.515625,0.21875
1696243073297,0.5637207,-0.08306885,-0.770813,-0.328125,-0.359375,0.0625
1696243073337,0.5656738,-0.08380127,-0.7752075,-0.421875,-0.359375,-0.03125
1696243073377,0.55688477,-0.08355713,-0.7659302,-0.046875,-0.359375,0.109375
1696243073417,0.56396484,-0.08746338,-0.7727661,-0.25,0.15625,-0.078125
1696243073457,0.5644531,-0.082092285,-0.7703247,-0.234375,-0.375,0.15625
1696243073497,0.56152344,-0.08380127,-0.7659302,-0.265625,-0.3125,0.171875
1696243073538,0.5661621,-0.07623291,-0.77349854,-0.21875,-0.46875,0.15625
1696243073578,0.5605469,-0.082092285,-0.76934814,-0.15625,-0.5625,0.125
1696243073618,0.5620117,-0.08770752,-0.7810669,-0.5625,-0.625,0.125
1696243073658,0.5629883,-0.08355713,-0.7774048,-0.46875,-0.359375,0.0625
1696243073697,0.55566406,-0.08673096,-0.7617798,-0.046875,-0.609375,0.078125
1696243073739,0.5595703,-0.08331299,-0.7630005,-0.15625,-0.546875,0.171875
1696243073778,0.5649414,-0.08355713,-0.76934814,-0.015625,-0.734375,0.3125
1696243073818,0.5625,-0.089416504,-0.77130127,-0.09375,-0.5625,0.171875
1696243073858,0.55908203,-0.085998535,-0.76519775,-0.171875,-0.5,0.046875
1696243073898,0.56274414,-0.08721924,-0.77056885,-0.0625,-0.53125,0.1875
1696243073938,0.5644531,-0.09112549,-0.7654419,-0.015625,-0.71875,0.34375
1696243073977,0.5617676,-0.08721924,-0.7683716,0.046875,-0.484375,0.265625
1696243074018,0.5661621,-0.08721924,-0.7805786,0.0,-0.703125,0.359375
1696243074058,0.5666504,-0.08843994,-0.76104736,0.171875,-0.640625,0.328125
1696243074098,0.56030273,-0.08526611,-0.76641846,0.171875,-0.546875,0.21875
1696243074138,0.5522461,-0.08502197,-0.76031494,0.25,-0.4375,0.328125
1696243074157,0.5686035,-0.086242676,-0.7744751,0.078125,-0.515625,0.140625
1696243074199,0.5632324,-0.08526611,-0.76641846,0.15625,-0.84375,0.171875
1696243074237,0.56469727,-0.09112549,-0.7649536,0.40625,-0.59375,0.21875
1696243074298,0.56762695,-0.0803833,-0.7649536,0.359375,-0.65625,0.375
1696243074317,0.56640625,-0.081604004,-0.7632446,0.15625,-0.625,0.234375
1696243074358,0.56591797,-0.08135986,-0.7661743,0.359375,-0.6875,0.390625
1696243074398,0.56518555,-0.082092285,-0.76031494,0.109375,-0.640625,0.421875
1696243074460,0.5605469,-0.07940674,-0.7637329,0.140625,-0.515625,0.421875
1696243074500,0.5644531,-0.08453369,-0.7727661,-0.046875,-0.46875,0.03125
1696243074517,0.56469727,-0.08355713,-0.77056885,0.125,-0.625,0.34375
1696243074557,0.56274414,-0.08526611,-0.7698364,0.203125,-0.578125,0.234375
1696243074597,0.5654297,-0.08087158,-0.76690674,0.03125,-0.375,0.359375
1696243074637,0.5644531,-0.07647705,-0.770813,0.140625,-0.609375,0.421875
1696243074679,0.5683594,-0.08135986,-0.76812744,0.1875,-0.40625,0.3125
1696243074718,0.5690918,-0.08087158,-0.76934814,0.15625,-0.390625,0.171875
1696243074758,0.5698242,-0.08135986,-0.7737427,-0.15625,-0.59375,0.21875
1696243074798,0.5649414,-0.082092285,-0.77178955,-0.078125,-0.359375,0.171875
1696243074858,0.5578613,-0.081604004,-0.7683716,0.015625,-0.5625,0.296875
1696243074877,0.5649414,-0.081848145,-0.7666626,0.203125,-0.390625,0.28125
1696243074918,0.5654297,-0.08282471,-0.7698364,-0.015625,-0.28125,0.09375
1696243074958,0.5654297,-0.07891846,-0.77130127,0.09375,-0.46875,0.0625
1696243074998,0.5612793,-0.07745361,-0.76519775,0.046875,-0.515625,0.328125
1696243075058,0.5632324,-0.08331299,-0.7671509,0.1875,-0.59375,0.234375
1696243075098,0.56469727,-0.07940674,-0.7632446,0.25,-0.578125,0.390625
1696243075117,0.5690918,-0.07720947,-0.76641846,0.125,-0.625,0.234375
1696243075158,0.56591797,-0.081604004,-0.76446533,-0.046875,-0.546875,0.234375
1696243075198,0.5637207,-0.074035645,-0.76153564,0.234375,-0.5,0.234375
1696243075259,0.5656738,-0.07574463,-0.76690674,0.0,-0.5,0.265625
1696243075298,0.56689453,-0.074523926,-0.76348877,0.046875,-0.65625,0.265625
1696243075317,0.56152344,-0.08428955,-0.7620239,0.078125,-0.453125,0.375
1696243075358,0.56103516,-0.07501221,-0.76446533,0.09375,-0.609375,0.1875
1696243075398,0.56518555,-0.07647705,-0.7678833,0.109375,-0.78125,0.296875
1696243075438,0.5629883,-0.07696533,-0.7678833,0.125,-0.546875,0.265625
1696243075457,0.56347656,-0.07476807,-0.7698364,0.234375,-0.75,0.1875
1696243075498,0.5625,-0.07672119,-0.7654419,0.21875,-0.515625,0.359375
1696243075537,0.5593262,-0.07501221,-0.7630005,0.15625,-0.6875,0.3125
1696243075578,0.57373047,-0.07476807,-0.7739868,-0.03125,-0.328125,0.203125
1696243075618,0.57666016,-0.077941895,-0.7703247,-0.0625,-0.5,0.3125
1696243075658,0.5632324,-0.0791626,-0.7678833,-0.171875,-0.671875,0.375
1696243075698,0.5656738,-0.07696533,-0.75738525,0.203125,-0.75,0.28125
1696243075737,0.5666504,-0.06890869,-0.7695923,0.0,-0.3125,0.328125
1696243075778,0.564209,-0.06964111,-0.7683716,-0.1875,-0.515625,0.1875
1696243075819,0.5605469,-0.07525635,-0.7605591,-0.03125,-0.546875,0.1875
1696243075860,0.5617676,-0.07720947,-0.76226807,0.125,-0.5,0.328125
1696243075898,0.56469727,-0.078430176,-0.7659302,-0.046875,-0.3125,0.265625
1696243075937,0.5671387,-0.07745361,-0.769104,-0.171875,-0.359375,0.203125
1696243075978,0.56396484,-0.07623291,-0.76348877,0.0,-0.3125,0.15625
1696243076019,0.56518555,-0.07281494,-0.767395,0.078125,-0.484375,0.25
1696243076059,0.56152344,-0.07623291,-0.7632446,0.015625,-0.5,0.171875
1696243076098,0.56591797,-0.07672119,-0.76519775,0.15625,-0.671875,0.3125
1696243076140,0.560791,-0.0725708,-0.7671509,0.0,-0.5,0.140625
1696243076179,0.5593262,-0.06939697,-0.767395,0.109375,-0.421875,0.1875
1696243076220,0.5649414,-0.07525635,-0.7678833,0.015625,-0.59375,0.15625
1696243076259,0.5654297,-0.07525635,-0.76763916,-0.140625,-0.390625,0.125
1696243076298,0.5620117,-0.07525635,-0.767395,-0.046875,-0.5,0.328125
1696243076338,0.56762695,-0.074035645,-0.75982666,-0.09375,-0.4375,0.15625
1696243076377,0.5683594,-0.06939697,-0.76690674,-0.046875,-0.359375,0.25
1696243076418,0.56274414,-0.0713501,-0.7671509,-0.265625,-0.328125,0.140625
1696243076459,0.5612793,-0.074035645,-0.7605591,-0.265625,-0.203125,0.125
1696243076500,0.5708008,-0.0725708,-0.76446533,-0.203125,-0.171875,0.046875
1696243076540,0.56518555,-0.073791504,-0.7588501,0.0,-0.359375,0.171875
1696243076582,0.5683594,-0.07208252,-0.7786255,-0.359375,0.125,0.0625
1696243076617,0.564209,-0.07354736,-0.75567627,-0.03125,-0.328125,0.15625
1696243076659,0.55615234,-0.07598877,-0.76641846,-0.234375,-0.046875,-0.0625
1696243076698,0.560791,-0.07696533,-0.7710571,-0.28125,-0.3125,0.171875
1696243076737,0.5620117,-0.078186035,-0.77056885,-0.1875,-0.25,0.109375
1696243076757,0.5695801,-0.07647705,-0.7710571,-0.140625,-0.421875,0.234375
1696243076798,0.56591797,-0.07696533,-0.7703247,-0.1875,-0.46875,0.03125
1696243076839,0.5661621,-0.08331299,-0.7781372,-0.625,-0.390625,0.125
1696243076879,0.5595703,-0.08135986,-0.76446533,-0.125,-0.59375,0.140625
1696243076919,0.55737305,-0.08111572,-0.7620239,-0.15625,-0.375,0.078125
1696243076959,0.56152344,-0.07965088,-0.7661743,-0.046875,-0.421875,0.03125
1696243077001,0.55737305,-0.08380127,-0.7625122,-0.1875,-0.671875,0.15625
1696243077038,0.56518555,-0.07989502,-0.7715454,-0.34375,-0.578125,0.171875
1696243077103,0.56225586,-0.0803833,-0.7749634,-0.25,-0.40625,0.046875
1696243077140,0.55859375,-0.0869751,-0.7698364,-0.203125,-0.296875,0.109375
1696243077178,0.5593262,-0.082092285,-0.7654419,-0.109375,-0.3125,0.078125
1696243077198,0.5578613,-0.08355713,-0.7666626,-0.21875,-0.375,0.203125
1696243077241,0.56225586,-0.08111572,-0.7678833,-0.15625,-0.515625,-0.015625
1696243077280,0.5595703,-0.07940674,-0.7630005,-0.171875,-0.515625,0.09375
1696243077342,0.560791,-0.078430176,-0.77227783,-0.296875,-0.34375,0.28125
1696243077358,0.5644531,-0.08258057,-0.77423096,-0.328125,-0.296875,-0.140625
1696243077438,0.5686035,-0.08917236,-0.77716064,-0.328125,-0.40625,0.125
1696243077441,0.5629883,-0.08111572,-0.7630005,-0.25,-0.28125,0.21875
1696243077478,0.56274414,-0.07891846,-0.770813,-0.421875,0.109375,0.0
1696243077519,0.5605469,-0.08282471,-0.7671509,-0.4375,-0.203125,-0.03125
1696243077559,0.5554199,-0.08062744,-0.7620239,-0.328125,-0.5,0.0625
1696243077601,0.5632324,-0.08258057,-0.77227783,-0.125,-0.546875,0.21875
1696243077641,0.5593262,-0.0791626,-0.7715454,-0.25,-0.609375,0.203125
1696243077679,0.564209,-0.08770752,-0.7737427,-0.34375,-0.546875,0.109375
1696243077719,0.5620117,-0.08746338,-0.7749634,-0.390625,-0.3125,0.140625
1696243077763,0.5571289,-0.08331299,-0.76348877,-0.21875,-0.390625,0.203125
1696243077801,0.55908203,-0.08673096,-0.767395,-0.28125,-0.4375,0.1875
1696243077839,0.5559082,-0.07867432,-0.7683716,-0.25,-0.421875,0.234375
1696243077882,0.5583496,-0.08355713,-0.7703247,-0.25,-0.484375,0.0
1696243077919,0.5600586,-0.085754395,-0.7686157,-0.203125,-0.5625,0.140625
1696243077981,0.56518555,-0.082092285,-0.7695923,-0.03125,-0.640625,0.265625
1696243078000,0.5654297,-0.08721924,-0.7744751,-0.234375,-0.578125,0.109375
1696243078063,0.55737305,-0.086242676,-0.7637329,0.046875,-0.5625,0.328125
1696243078077,0.56347656,-0.08453369,-0.772522,0.171875,-0.40625,0.0625
1696243078098,0.55737305,-0.08892822,-0.7715454,-0.1875,-0.578125,0.21875
1696243078138,0.5534668,-0.089416504,-0.75079346,-0.109375,-0.6875,0.125
1696243078180,0.5637207,-0.08428955,-0.7683716,-0.09375,-0.390625,0.203125
1696243078219,0.55615234,-0.09088135,-0.7647095,-0.203125,-0.203125,0.171875
1696243078259,0.56274414,-0.08477783,-0.767395,-0.109375,-0.40625,0.203125
1696243078300,0.55981445,-0.085754395,-0.7686157,0.109375,-0.734375,0.21875
1696243078338,0.5593262,-0.08746338,-0.7678833,0.1875,-0.40625,0.390625
1696243078378,0.55908203,-0.090148926,-0.769104,0.0625,-0.578125,0.3125
1696243078418,0.56518555,-0.08770752,-0.75787354,0.109375,-0.65625,0.328125
1696243078459,0.5612793,-0.08721924,-0.77130127,0.203125,-0.703125,0.28125
1696243078499,0.55908203,-0.08258057,-0.7647095,0.28125,-0.4375,0.421875
1696243078539,0.5578613,-0.08892822,-0.77008057,0.25,-0.5625,0.328125
1696243078579,0.56591797,-0.0803833,-0.7749634,0.1875,-0.5,0.5
1696243078620,0.56274414,-0.08917236,-0.76104736,0.46875,-0.921875,0.390625
1696243078659,0.5593262,-0.08258057,-0.7654419,0.265625,-0.578125,0.453125
1696243078699,0.55810547,-0.0869751,-0.76641846,0.375,-0.578125,0.4375
1696243078738,0.5666504,-0.08770752,-0.772522,0.28125,-0.609375,0.4375
1696243078781,0.5583496,-0.081848145,-0.76641846,0.171875,-0.6875,0.34375
1696243078820,0.5637207,-0.085510254,-0.76690674,0.296875,-0.5625,0.515625
1696243078860,0.56347656,-0.08013916,-0.7739868,0.28125,-0.5,0.296875
1696243078900,0.5617676,-0.07501221,-0.75177,0.5,-1.046875,0.40625
1696243078940,0.56933594,-0.07501221,-0.7632446,-0.0625,-0.578125,0.3125
1696243078981,0.5563965,-0.07867432,-0.76031494,0.34375,-0.40625,0.140625
1696243079022,0.56274414,-0.07965088,-0.7737427,0.15625,-0.390625,0.375
1696243079060,0.5678711,-0.081604004,-0.76934814,0.15625,-0.734375,0.15625
1696243079099,0.56469727,-0.08062744,-0.7710571,-0.078125,-0.46875,0.140625
1696243079141,0.56103516,-0.082336426,-0.7715454,0.046875,-0.59375,0.359375
1696243079181,0.5632324,-0.081604004,-0.7710571,0.21875,-0.625,0.34375
1696243079220,0.56762695,-0.08502197,-0.76568604,0.125,-0.75,0.34375
1696243079262,0.5576172,-0.08380127,-0.7666626,0.109375,-0.75,0.375
1696243079297,0.55737305,-0.07745361,-0.7583618,0.328125,-0.5,0.375
1696243079340,0.560791,-0.07647705,-0.76934814,0.125,-0.296875,0.296875
1696243079401,0.56225586,-0.077941895,-0.76568604,-0.046875,-0.671875,0.296875
1696243079418,0.5600586,-0.07720947,-0.77178955,0.015625,-0.375,0.375
1696243079439,0.5593262,-0.077697754,-0.7695923,0.078125,-0.40625,0.3125
1696243079523,0.5686035,-0.07476807,-0.7637329,0.0625,-0.5,0.3125
1696243079532,0.5620117,-0.08013916,-0.77008057,0.140625,-0.640625,0.34375
1696243079581,0.5673828,-0.078186035,-0.7666626,0.09375,-0.78125,0.328125
1696243079598,0.5673828,-0.07696533,-0.76763916,0.078125,-0.515625,0.390625
1696243079660,0.56225586,-0.07720947,-0.7659302,0.0625,-0.71875,0.375
1696243079679,0.5644531,-0.078430176,-0.76812744,0.03125,-0.546875,0.390625
1696243079721,0.56347656,-0.074279785,-0.76446533,0.1875,-0.53125,0.3125
1696243079759,0.5588379,-0.08062744,-0.77301025,0.0,-0.421875,0.28125
1696243079800,0.5661621,-0.08087158,-0.77789307,0.0,-0.3125,0.28125
1696243079840,0.5656738,-0.077941895,-0.7595825,0.125,-0.546875,0.375
1696243079881,0.5661621,-0.08282471,-0.76397705,0.078125,-0.6875,0.421875
1696243079921,0.5673828,-0.07623291,-0.7703247,0.0,-0.515625,0.390625
1696243079980,0.55859375,-0.07525635,-0.76812744,0.109375,-0.71875,0.21875
1696243080021,0.5644531,-0.08258057,-0.767395,-0.078125,-0.421875,0.1875
1696243080059,0.56762695,-0.074035645,-0.7683716,-0.015625,-0.578125,0.453125
1696243080080,0.5690918,-0.08380127,-0.7769165,-0.03125,-0.125,0.234375
1696243080121,0.5625,-0.07867432,-0.76812744,-0.09375,-0.46875,0.3125
1696243080181,0.5617676,-0.07159424,-0.76519775,0.09375,-0.59375,0.265625
1696243080200,0.55981445,-0.077697754,-0.76153564,-0.078125,-0.609375,0.328125
1696243080240,0.56469727,-0.077697754,-0.76568604,-0.046875,-0.46875,0.1875
1696243080299,0.56347656,-0.07696533,-0.76397705,-0.046875,-0.484375,0.3125
1696243080341,0.57006836,-0.07208252,-0.77056885,-0.03125,-0.375,0.234375
1696243080380,0.5710449,-0.07476807,-0.77056885,0.09375,-0.5,0.265625
1696243080400,0.56347656,-0.07598877,-0.7703247,0.09375,-0.484375,0.28125
1696243080441,0.5661621,-0.07183838,-0.7649536,-0.03125,-0.515625,0.3125
1696243080479,0.56347656,-0.07550049,-0.7654419,0.015625,-0.609375,0.390625
1696243080518,0.55859375,-0.06817627,-0.769104,0.015625,-0.484375,0.15625
1696243080561,0.5617676,-0.0725708,-0.77130127,-0.09375,-0.46875,0.34375
1696243080598,0.5673828,-0.07159424,-0.7720337,-0.125,-0.546875,0.265625
1696243080661,0.5661621,-0.07550049,-0.77008057,-0.015625,-0.515625,0.296875
1696243080703,0.5588379,-0.0725708,-0.7695923,0.125,-0.484375,0.21875
1696243080707,0.5683594,-0.07086182,-0.76568604,-0.078125,-0.390625,0.25
1696243080739,0.55981445,-0.07623291,-0.7715454,-0.140625,-0.234375,0.203125
1696243080778,0.5654297,-0.0713501,-0.77349854,-0.1875,-0.5,0.34375
1696243080819,0.5656738,-0.07476807,-0.7637329,0.09375,-0.453125,0.25
1696243080860,0.564209,-0.07110596,-0.77056885,-0.1875,-0.296875,0.125
1696243080900,0.5578613,-0.070129395,-0.7647095,-0.234375,-0.515625,0.109375
1696243080942,0.56518555,-0.0791626,-0.7632446,-0.109375,-0.3125,0.09375
1696243080978,0.56518555,-0.07232666,-0.7683716,-0.140625,-0.296875,0.203125
1696243081019,0.5654297,-0.07476807,-0.76031494,-0.15625,-0.40625,0.0625
1696243081058,0.5617676,-0.07891846,-0.77056885,-0.265625,-0.390625,0.0
1696243081099,0.5683594,-0.07623291,-0.7678833,-0.25,-0.171875,0.046875
1696243081139,0.560791,-0.07989502,-0.76446533,-0.140625,-0.40625,0.1875
1696243081178,0.5612793,-0.07867432,-0.7698364,-0.234375,-0.28125,0.203125
1696243081220,0.5539551,-0.07696533,-0.76275635,-0.125,-0.28125,0.15625
1696243081280,0.56762695,-0.07476807,-0.7739868,-0.359375,-0.28125,0.046875
1696243081300,0.560791,-0.07354736,-0.77593994,-0.25,-0.203125,0.15625
1696243081340,0.56640625,-0.074035645,-0.7686157,-0.25,-0.34375,0.203125
1696243081379,0.56347656,-0.07672119,-0.77008057,-0.109375,-0.328125,0.265625
1696243081420,0.5617676,-0.078430176,-0.76641846,-0.15625,-0.3125,0.171875
1696243081461,0.5595703,-0.07745361,-0.7666626,-0.1875,-0.234375,0.09375
1696243081498,0.5666504,-0.078430176,-0.7686157,-0.34375,-0.421875,0.21875
1696243081541,0.5617676,-0.07745361,-0.77130127,-0.296875,-0.390625,0.078125
1696243081578,0.5595703,-0.0803833,-0.7647095,-0.09375,-0.390625,0.1875
1696243081619,0.56347656,-0.07867432,-0.7810669,-0.4375,-0.109375,0.15625
1696243081661,0.5661621,-0.08282471,-0.7744751,-0.1875,-0.25,0.203125
1696243081700,0.55493164,-0.07940674,-0.76568604,-0.046875,-0.25,0.3125
1696243081742,0.5605469,-0.078186035,-0.7720337,-0.296875,0.171875,-0.09375
1696243081780,0.5629883,-0.08306885,-0.77130127,-0.453125,-0.296875,-0.140625
1696243081819,0.5576172,-0.0803833,-0.76397705,-0.203125,-0.5625,0.0625
1696243081859,0.55981445,-0.08306885,-0.7720337,-0.171875,-0.4375,0.0625
1696243081898,0.55737305,-0.082092285,-0.772522,-0.15625,-0.46875,0.1875
1696243081941,0.5673828,-0.078186035,-0.77423096,-0.28125,-0.65625,0.34375
1696243081979,0.55859375,-0.08428955,-0.767395,-0.171875,-0.375,0.03125
1696243082022,0.55322266,-0.08258057,-0.75860596,0.03125,-0.484375,0.046875
1696243082040,0.5563965,-0.07672119,-0.77349854,-0.203125,-0.34375,0.125
1696243082079,0.5566406,-0.08331299,-0.7659302,-0.1875,-0.53125,0.234375
1696243082119,0.5566406,-0.07965088,-0.7737427,-0.09375,-0.65625,0.1875
1696243082160,0.5600586,-0.085754395,-0.7739868,-0.265625,-0.53125,0.21875
1696243082198,0.55493164,-0.08331299,-0.78082275,-0.203125,-0.515625,0.1875
1696243082240,0.5583496,-0.081604004,-0.769104,-0.125,-0.390625,0.171875
1696243082300,0.5563965,-0.081604004,-0.7683716,-0.203125,-0.328125,0.09375
1696243082340,0.5600586,-0.08477783,-0.77178955,-0.296875,-0.5,0.21875
1696243082358,0.55810547,-0.08355713,-0.76519775,-0.171875,-0.640625,0.140625
1696243082424,0.5629883,-0.0869751,-0.7683716,-0.140625,-0.65625,0.203125
1696243082439,0.5666504,-0.08428955,-0.77471924,-0.4375,-0.25,-0.109375
1696243082499,0.5654297,-0.08477783,-0.7810669,-0.453125,-0.3125,0.015625
1696243082517,0.55249023,-0.08843994,-0.75616455,-0.03125,-0.15625,0.09375
1696243082559,0.5644531,-0.08868408,-0.77667236,-0.5,-0.125,-0.140625
1696243082600,0.5600586,-0.08648682,-0.7710571,-0.296875,-0.453125,0.0
1696243082639,0.55981445,-0.09039307,-0.76934814,-0.234375,-0.65625,0.078125
1696243082679,0.5600586,-0.08892822,-0.77423096,0.046875,-0.546875,0.109375
1696243082740,0.56518555,-0.085510254,-0.77667236,0.09375,-0.578125,0.203125
1696243082758,0.5637207,-0.09259033,-0.7752075,0.078125,-0.296875,0.203125
1696243082799,0.5632324,-0.086242676,-0.7805786,-0.015625,-0.5,0.203125
1696243082841,0.5529785,-0.085510254,-0.7678833,0.390625,-0.75,0.28125
1696243082901,0.55493164,-0.08282471,-0.7698364,0.4375,-0.734375,0.453125
1696243082919,0.56152344,-0.08453369,-0.77301025,0.375,-0.890625,0.453125
1696243082961,0.564209,-0.08526611,-0.77178955,0.3125,-0.671875,0.375
1696243082998,0.5600586,-0.08892822,-0.7698364,0.078125,-0.59375,0.375
1696243083041,0.56347656,-0.08062744,-0.77227783,0.28125,-0.5625,0.296875
1696243083081,0.56396484,-0.08135986,-0.76519775,0.34375,-0.65625,0.4375
1696243083140,0.5600586,-0.08087158,-0.76397705,0.296875,-0.65625,0.515625
1696243083160,0.56152344,-0.077941895,-0.7605591,0.28125,-0.640625,0.21875
1696243083199,0.5563965,-0.08087158,-0.7683716,-0.03125,-0.515625,0.34375
1696243083241,0.564209,-0.082092285,-0.77716064,0.0,-0.53125,0.15625
1696243083281,0.5566406,-0.081604004,-0.75445557,0.421875,-0.421875,0.4375
1696243083321,0.56591797,-0.08306885,-0.770813,-0.03125,-0.234375,0.265625
1696243083340,0.5644531,-0.07940674,-0.772522,-0.046875,-0.515625,0.125
1696243083379,0.5571289,-0.077697754,-0.7620239,0.046875,-0.484375,0.28125
1696243083420,0.55981445,-0.08013916,-0.7637329,0.125,-0.5,0.328125
1696243083458,0.5595703,-0.08135986,-0.7678833,0.203125,-0.671875,0.328125
1696243083502,0.56152344,-0.08380127,-0.77349854,0.0625,-0.1875,0.15625
1696243083541,0.5612793,-0.081604004,-0.77008057,0.015625,-0.484375,0.3125
1696243083580,0.5563965,-0.0803833,-0.7703247,0.171875,-0.515625,0.390625
1696243083619,0.5612793,-0.081604004,-0.7703247,0.171875,-0.53125,0.4375
1696243083658,0.5593262,-0.07623291,-0.7698364,0.21875,-0.453125,0.1875
1696243083700,0.5661621,-0.07745361,-0.76812744,0.203125,-0.515625,0.21875
1696243083741,0.56274414,-0.081604004,-0.7737427,0.03125,-0.5,0.21875
1696243083779,0.5629883,-0.074279785,-0.77227783,0.015625,-0.609375,0.28125
1696243083821,0.5671387,-0.07672119,-0.769104,0.1875,-0.390625,0.34375
1696243083859,0.5588379,-0.077941895,-0.7732544,0.15625,-0.59375,0.359375
1696243083899,0.5617676,-0.08355713,-0.7686157,0.171875,-0.453125,0.296875
1696243083939,0.56347656,-0.07989502,-0.7654419,0.203125,-0.453125,0.28125
1696243083980,0.56225586,-0.08087158,-0.772522,0.015625,-0.328125,0.09375
1696243084019,0.56591797,-0.07550049,-0.7666626,0.109375,-0.53125,0.3125
1696243084061,0.55566406,-0.07476807,-0.7698364,-0.0625,-0.46875,0.34375
1696243084119,0.55981445,-0.08380127,-0.770813,0.21875,-0.53125,0.296875
1696243084138,0.56689453,-0.08135986,-0.7710571,-0.046875,-0.359375,0.203125
1696243084180,0.5551758,-0.07574463,-0.76934814,0.0625,-0.515625,0.203125
1696243084218,0.5612793,-0.07525635,-0.7710571,0.171875,-0.578125,0.4375
1696243084259,0.56469727,-0.07647705,-0.76934814,0.15625,-0.625,0.375
1696243084299,0.560791,-0.074523926,-0.76519775,0.125,-0.5,0.1875
1696243084340,0.5649414,-0.07574463,-0.7710571,0.015625,-0.5,0.25
1696243084381,0.5600586,-0.077941895,-0.76519775,0.015625,-0.328125,0.3125
1696243084418,0.5625,-0.07696533,-0.769104,0.234375,-0.453125,0.28125
1696243084460,0.5612793,-0.07330322,-0.76885986,-0.0625,-0.453125,0.265625
1696243084501,0.5625,-0.08062744,-0.76690674,-0.0625,-0.640625,0.328125
1696243084538,0.5644531,-0.07476807,-0.7698364,-0.125,-0.609375,0.328125
1696243084580,0.5605469,-0.07623291,-0.76812744,0.015625,-0.3125,0.25
1696243084621,0.56469727,-0.07476807,-0.7695923,0.03125,-0.515625,0.25
1696243084661,0.5605469,-0.06890869,-0.7647095,0.125,-0.4375,0.203125
1696243084679,0.56225586,-0.07159424,-0.7642212,0.140625,-0.546875,0.25
1696243084718,0.56274414,-0.07501221,-0.7654419,-0.046875,-0.484375,0.28125
1696243084759,0.564209,-0.07598877,-0.7715454,-0.09375,-0.484375,0.1875
1696243084801,0.55981445,-0.078186035,-0.7686157,0.09375,-0.546875,0.3125
1696243084839,0.56518555,-0.06719971,-0.7683716,-0.015625,-0.46875,0.265625
1696243084881,0.56762695,-0.077697754,-0.7698364,-0.09375,-0.328125,0.078125
1696243084921,0.5617676,-0.073791504,-0.77178955,0.0,-0.21875,0.125
1696243084960,0.56591797,-0.074035645,-0.77349854,-0.21875,-0.4375,0.171875
1696243084999,0.55908203,-0.074523926,-0.7620239,0.09375,-0.578125,0.15625
1696243085063,0.56689453,-0.07354736,-0.77130127,0.015625,-0.28125,0.109375
1696243085080,0.5656738,-0.07647705,-0.7654419,-0.125,-0.46875,0.109375
1696243085118,0.55859375,-0.07110596,-0.7625122,-0.0625,-0.453125,0.375
1696243085161,0.56762695,-0.07647705,-0.7632446,0.0625,-0.359375,0.25
1696243085201,0.56933594,-0.07305908,-0.7637329,-0.03125,-0.46875,0.3125
1696243085239,0.5678711,-0.07672119,-0.769104,-0.234375,-0.4375,0.125
1696243085282,0.5583496,-0.06939697,-0.76568604,-0.125,-0.3125,0.046875
1696243085320,0.5605469,-0.07940674,-0.7630005,-0.171875,-0.375,0.0625
1696243085381,0.5632324,-0.07476807,-0.7683716,-0.3125,-0.171875,0.1875
1696243085424,0.56884766,-0.06744385,-0.7654419,-0.21875,-0.375,0.203125
1696243085460,0.56689453,-0.07598877,-0.770813,-0.25,-0.234375,0.15625
1696243085502,0.56396484,-0.07720947,-0.77716064,-0.234375,-0.21875,0.25
1696243085518,0.5620117,-0.07550049,-0.7683716,-0.078125,-0.15625,0.109375
1696243085559,0.5600586,-0.073791504,-0.7642212,-0.078125,-0.140625,0.09375
1696243085599,0.55859375,-0.07696533,-0.76568604,-0.078125,-0.40625,0.25
1696243085638,0.5617676,-0.07305908,-0.76397705,-0.296875,-0.375,0.1875
1696243085679,0.55981445,-0.070617676,-0.76885986,-0.28125,-0.359375,0.21875
1696243085720,0.564209,-0.07501221,-0.7678833,-0.109375,-0.3125,0.0625
1696243085759,0.560791,-0.077941895,-0.772522,-0.125,-0.21875,0.21875
1696243085801,0.5527344,-0.07647705,-0.76153564,-0.421875,-0.515625,0.1875
1696243085842,0.56396484,-0.07525635,-0.7739868,-0.234375,-0.484375,0.25
1696243085901,0.55078125,-0.07525635,-0.7529907,0.0,-0.1875,0.21875
1696243085918,0.5600586,-0.07696533,-0.7715454,-0.328125,-0.15625,0.0625
1696243085981,0.56225586,-0.07940674,-0.772522,-0.375,-0.484375,-0.03125
1696243085986,0.55615234,-0.07672119,-0.7703247,-0.21875,-0.203125,-0.03125
1696243086020,0.56030273,-0.078186035,-0.7752075,-0.25,-0.421875,0.296875
1696243086059,0.5617676,-0.07501221,-0.76519775,-0.0625,-0.328125,0.234375
1696243086101,0.56347656,-0.08062744,-0.77227783,-0.34375,-0.40625,0.140625
1696243086139,0.55493164,-0.08111572,-0.7698364,-0.140625,-0.484375,0.109375
1696243086179,0.5539551,-0.07989502,-0.7703247,-0.0625,-0.4375,0.375
1696243086219,0.5605469,-0.078430176,-0.7698364,-0.265625,-0.375,0.078125
1696243086261,0.55810547,-0.07891846,-0.77301025,-0.21875,-0.65625,0.0625
1696243086299,0.5551758,-0.08917236,-0.77667236,-0.15625,-0.4375,0.203125
1696243086340,0.5620117,-0.08306885,-0.77227783,-0.234375,-0.421875,0.0
1696243086381,0.55981445,-0.08258057,-0.7744751,-0.203125,-0.40625,0.15625
1696243086419,0.55371094,-0.078186035,-0.7686157,-0.125,-0.59375,0.125
1696243086460,0.5593262,-0.08062744,-0.76885986,-0.09375,-0.40625,0.265625
1696243086502,0.55981445,-0.08258057,-0.7671509,-0.140625,-0.640625,0.109375
1696243086539,0.56689453,-0.08404541,-0.7605591,-0.171875,-0.5625,0.15625
1696243086579,0.5578613,-0.08013916,-0.7715454,-0.09375,-0.625,0.140625
1696243086619,0.5541992,-0.08380127,-0.7744751,-0.40625,-0.65625,0.125
1696243086660,0.56103516,-0.082336426,-0.7781372,-0.109375,-0.53125,0.140625
1696243086701,0.55322266,-0.0803833,-0.75079346,0.0,-0.359375,0.328125
1696243086738,0.55444336,-0.08428955,-0.7732544,-0.328125,-0.09375,-0.109375
1696243086780,0.55908203,-0.082092285,-0.7752075,-0.28125,-0.40625,0.03125
1696243086822,0.55200195,-0.08673096,-0.7654419,-0.3125,-0.640625,0.0625
1696243086881,0.5625,-0.08526611,-0.77301025,-0.203125,-0.421875,0.25
1696243086897,0.5661621,-0.08477783,-0.7671509,-0.109375,-0.53125,0.171875
1696243086940,0.5612793,-0.08770752,-0.7703247,-0.125,-0.578125,0.109375
1696243086980,0.5527344,-0.090148926,-0.7683716,-0.1875,-0.40625,0.265625
1696243087019,0.5554199,-0.08843994,-0.76519775,0.171875,-0.609375,0.25
1696243087059,0.56152344,-0.08331299,-0.7666626,-0.203125,-0.390625,0.15625
1696243087099,0.5527344,-0.07965088,-0.7683716,0.015625,-0.921875,0.09375
1696243087139,0.5571289,-0.08380127,-0.7695923,-0.21875,-0.5,0.078125
1696243087179,0.5617676,-0.0869751,-0.7720337,-0.109375,-0.484375,0.140625
1696243087219,0.55810547,-0.08355713,-0.772522,-0.109375,-0.53125,0.296875
1696243087261,0.55029297,-0.085998535,-0.77838135,-0.109375,-0.53125,0.28125
1696243087277,0.56225586,-0.089660645,-0.7695923,0.046875,-0.53125,0.1875
1696243087338,0.55737305,-0.0881958,-0.7727661,0.0,-0.578125,0.171875
1696243087360,0.56396484,-0.0803833,-0.77056885,-0.0625,-0.875,0.21875
1696243087399,0.5625,-0.08355713,-0.7715454,-0.21875,-0.25,0.265625
1696243087438,0.55981445,-0.08428955,-0.770813,0.0,-0.3125,0.21875
1696243087480,0.5625,-0.086242676,-0.77301025,0.0625,-0.171875,0.203125
1696243087520,0.5571289,-0.08795166,-0.77545166,0.09375,-0.5,0.1875
1696243087584,0.5566406,-0.08502197,-0.7686157,0.0,-0.59375,0.171875
1696243087599,0.5571289,-0.08331299,-0.7710571,0.078125,-0.375,0.234375
1696243087661,0.5625,-0.08062744,-0.7683716,0.078125,-0.5625,0.265625
1696243087678,0.5620117,-0.08892822,-0.7727661,0.046875,-0.578125,0.3125
1696243087720,0.5566406,-0.08673096,-0.7666626,0.109375,-0.828125,0.3125
1696243087760,0.5576172,-0.08331299,-0.76104736,0.03125,-0.453125,0.265625
1696243087801,0.55566406,-0.08087158,-0.756897,0.15625,-0.5,0.421875
1696243087840,0.5656738,-0.08306885,-0.77349854,0.140625,-0.375,0.265625
1696243087879,0.560791,-0.08477783,-0.7632446,0.21875,-0.859375,0.1875
1696243087921,0.55737305,-0.08453369,-0.77227783,0.25,-0.640625,0.375
1696243087959,0.5632324,-0.08721924,-0.77301025,0.21875,-0.578125,0.4375
1696243088002,0.5620117,-0.08013916,-0.77130127,0.3125,-0.59375,0.46875
1696243088040,0.5551758,-0.08380127,-0.7642212,0.375,-0.59375,0.40625
1696243088082,0.5666504,-0.0803833,-0.77178955,0.484375,-0.5,0.453125
1696243088119,0.5617676,-0.081848145,-0.7632446,0.265625,-0.640625,0.421875
1696243088159,0.564209,-0.08111572,-0.76885986,0.125,-0.390625,0.34375
1696243088244,0.56274414,-0.081604004,-0.7720337,-0.078125,-0.34375,0.1875
1696243088249,0.5600586,-0.077941895,-0.7647095,0.0625,-0.328125,0.28125
1696243088298,0.56225586,-0.08013916,-0.7683716,0.078125,-0.359375,0.328125
1696243088318,0.5541992,-0.07940674,-0.7737427,0.0625,-0.5,0.09375
1696243088360,0.5620117,-0.07940674,-0.76812744,-0.015625,-0.53125,0.140625
1696243088399,0.5632324,-0.07891846,-0.76812744,-0.03125,-0.484375,0.28125
1696243088441,0.5583496,-0.07965088,-0.76812744,0.03125,-0.6875,0.15625
1696243088479,0.5673828,-0.08087158,-0.77423096,0.03125,-0.71875,0.234375
1696243088519,0.5605469,-0.082092285,-0.76446533,0.296875,-0.546875,0.390625
1696243088559,0.5576172,-0.07720947,-0.76104736,0.234375,-0.5625,0.5
1696243088600,0.56030273,-0.07647705,-0.772522,0.15625,-0.421875,0.328125
1696243088621,0.5644531,-0.07550049,-0.770813,0.140625,-0.671875,0.34375
1696243088660,0.5632324,-0.07891846,-0.772522,-0.078125,-0.46875,0.328125
1696243088699,0.5588379,-0.07696533,-0.7671509,0.03125,-0.375,0.140625
1696243088740,0.564209,-0.08013916,-0.77471924,0.015625,-0.640625,0.421875
1696243088780,0.5612793,-0.08013916,-0.76763916,0.234375,-0.671875,0.234375
1696243088820,0.5629883,-0.07891846,-0.7661743,0.09375,-0.609375,0.40625
1696243088860,0.560791,-0.07696533,-0.7671509,0.1875,-0.84375,0.296875
1696243088898,0.5588379,-0.07208252,-0.7654419,0.0625,-0.640625,0.265625
1696243088941,0.5629883,-0.07232666,-0.76812744,0.03125,-0.5,0.28125
1696243088979,0.5708008,-0.073791504,-0.7810669,-0.125,-0.3125,0.28125
1696243089019,0.560791,-0.08111572,-0.772522,0.0625,-0.34375,0.25
1696243089058,0.5605469,-0.07501221,-0.76275635,0.0,-0.359375,0.21875
1696243089099,0.560791,-0.07354736,-0.76226807,0.109375,-0.484375,0.359375
1696243089139,0.5600586,-0.074279785,-0.7715454,-0.015625,-0.328125,0.140625
1696243089201,0.5620117,-0.078430176,-0.7632446,-0.125,-0.53125,0.234375
1696243089218,0.55737305,-0.078186035,-0.76641846,0.0625,-0.5625,0.0625
1696243089260,0.564209,-0.074279785,-0.76763916,0.0625,-0.578125,0.28125
1696243089302,0.5644531,-0.069885254,-0.76153564,0.21875,-0.484375,0.3125
1696243089340,0.5661621,-0.07525635,-0.7695923,-0.125,-0.421875,0.171875
1696243089379,0.564209,-0.07183838,-0.76690674,0.03125,-0.328125,0.109375
1696243089419,0.560791,-0.08111572,-0.76519775,0.234375,-0.65625,0.140625
1696243089459,0.5605469,-0.07208252,-0.7715454,-0.078125,-0.578125,0.140625
1696243089499,0.5632324,-0.0791626,-0.76397705,0.046875,-0.625,0.265625
1696243089540,0.5595703,-0.07598877,-0.77130127,-0.125,-0.546875,0.203125
1696243089580,0.56518555,-0.07550049,-0.76885986,0.125,-0.359375,0.3125
1696243089623,0.56640625,-0.07476807,-0.77056885,0.109375,-0.625,0.390625
1696243089660,0.5629883,-0.07159424,-0.7698364,0.0,-0.46875,0.3125
1696243089699,0.56640625,-0.07989502,-0.7647095,-0.078125,-0.421875,0.21875
1696243089741,0.5629883,-0.07208252,-0.76348877,0.0,-0.34375,0.328125
1696243089778,0.56103516,-0.07623291,-0.76812744,-0.03125,-0.46875,0.15625
1696243089821,0.56640625,-0.07623291,-0.7647095,0.0625,-0.5,0.171875
1696243089859,0.5654297,-0.078430176,-0.7727661,0.125,-0.578125,0.171875
1696243089899,0.560791,-0.078430176,-0.7703247,-0.1875,-0.375,0.234375
1696243089918,0.5644531,-0.07550049,-0.77667236,-0.09375,-0.359375,0.140625
1696243089960,0.560791,-0.07623291,-0.7752075,-0.25,-0.296875,0.171875
1696243090001,0.5571289,-0.07501221,-0.7671509,0.015625,-0.59375,0.09375
1696243090040,0.5637207,-0.07305908,-0.76519775,-0.015625,-0.4375,0.1875
1696243090079,0.5656738,-0.08111572,-0.7661743,-0.203125,-0.75,0.140625
1696243090121,0.55444336,-0.081848145,-0.76641846,-0.046875,-0.328125,0.28125
1696243090159,0.5605469,-0.06964111,-0.7632446,0.171875,-0.328125,0.359375
1696243090202,0.56152344,-0.074523926,-0.7642212,0.078125,-0.46875,0.390625
1696243090262,0.5578613,-0.07281494,-0.76885986,-0.140625,-0.34375,0.28125
1696243090278,0.560791,-0.074523926,-0.767395,0.015625,-0.46875,0.265625
1696243090320,0.55200195,-0.07696533,-0.7661743,0.03125,-0.296875,0.25
1696243090380,0.560791,-0.06939697,-0.7671509,-0.296875,-0.5,0.03125
1696243090398,0.5612793,-0.07208252,-0.7666626,-0.125,-0.359375,0.203125
1696243090440,0.5612793,-0.07232666,-0.7715454,-0.203125,-0.234375,0.09375
1696243090480,0.56152344,-0.07476807,-0.772522,0.0,-0.15625,0.203125
1696243090520,0.55908203,-0.07550049,-0.7788696,-0.046875,-0.171875,0.21875
1696243090582,0.5583496,-0.073791504,-0.76763916,0.03125,-0.234375,0.140625
1696243090598,0.56030273,-0.07891846,-0.769104,-0.109375,-0.140625,0.03125
1696243090641,0.55859375,-0.07672119,-0.7659302,-0.234375,-0.359375,0.15625
1696243090681,0.5644531,-0.07745361,-0.770813,-0.171875,-0.15625,0.03125
1696243090720,0.5541992,-0.07745361,-0.77130127,-0.125,-0.390625,0.015625
1696243090759,0.56469727,-0.07720947,-0.77178955,-0.234375,-0.484375,0.21875
1696243090803,0.5576172,-0.08721924,-0.7737427,-0.265625,-0.09375,0.21875
1696243090840,0.56152344,-0.07550049,-0.77349854,-0.234375,-0.375,0.21875
1696243090883,0.55908203,-0.078430176,-0.7642212,-0.171875,0.0,0.15625
1696243090919,0.5593262,-0.070129395,-0.77349854,-0.390625,-0.28125,-0.078125
1696243090959,0.55322266,-0.07647705,-0.77056885,-0.484375,-0.53125,0.09375
1696243091000,0.5583496,-0.073791504,-0.7720337,-0.140625,-0.5,0.046875
1696243091039,0.5563965,-0.0791626,-0.77349854,-0.234375,-0.421875,0.3125
1696243091079,0.5571289,-0.082092285,-0.77227783,-0.21875,-0.171875,0.15625
1696243091119,0.55908203,-0.081604004,-0.770813,-0.34375,-0.296875,0.125
1696243091160,0.5510254,-0.07745361,-0.7727661,-0.046875,-0.5625,0.171875
1696243091198,0.5541992,-0.07623291,-0.7737427,-0.203125,-0.359375,0.25
1696243091218,0.5551758,-0.082092285,-0.76568604,-0.359375,-0.59375,0.03125
1696243091263,0.56225586,-0.07330322,-0.7703247,-0.25,-0.6875,0.140625
1696243091300,0.5605469,-0.082336426,-0.77056885,-0.34375,-0.5,0.203125
1696243091337,0.5551758,-0.07672119,-0.7739868,-0.375,-0.578125,0.390625
1696243091377,0.5517578,-0.07623291,-0.77130127,-0.359375,-0.4375,0.109375
1696243091417,0.55688477,-0.08770752,-0.7732544,-0.078125,-0.359375,0.125
1696243091458,0.55200195,-0.08062744,-0.7654419,-0.125,-0.484375,0.15625
1696243091498,0.5551758,-0.07891846,-0.7647095,-0.203125,-0.453125,0.203125
1696243091539,0.5583496,-0.0791626,-0.77130127,-0.140625,-0.421875,0.1875
1696243091581,0.55444336,-0.09136963,-0.7564087,-0.234375,-0.609375,0.078125
1696243091623,0.55615234,-0.078430176,-0.7720337,-0.328125,-0.53125,0.203125
1696243091662,0.5517578,-0.085998535,-0.75909424,-0.15625,-0.28125,0.140625
1696243091700,0.5566406,-0.08087158,-0.7781372,-0.421875,-0.21875,-0.03125
1696243091745,0.5551758,-0.08502197,-0.7710571,-0.421875,-0.4375,0.109375
1696243091780,0.55615234,-0.08404541,-0.76885986,-0.046875,-0.515625,0.25
1696243091822,0.5595703,-0.08795166,-0.77349854,-0.265625,-0.59375,0.171875
1696243091859,0.56152344,-0.08770752,-0.7698364,-0.125,-0.640625,0.09375
1696243091898,0.56225586,-0.08526611,-0.77593994,-0.359375,-0.40625,0.109375
1696243091938,0.5498047,-0.08502197,-0.7649536,-0.25,-0.5,0.171875
1696243091980,0.55249023,-0.08721924,-0.7649536,0.015625,-0.6875,0.140625
1696243092020,0.5583496,-0.085754395,-0.77960205,-0.296875,-0.46875,0.234375
1696243092059,0.5620117,-0.08502197,-0.770813,-0.21875,-0.5625,0.140625
1696243092100,0.55908203,-0.09210205,-0.7776489,-0.25,-0.421875,0.125
1696243092139,0.55688477,-0.08331299,-0.77227783,-0.28125,-0.421875,0.140625
1696243092178,0.5593262,-0.08770752,-0.767395,-0.265625,-0.546875,0.21875
1696243092220,0.5612793,-0.08258057,-0.76568604,-0.1875,-0.546875,0.21875
1696243092262,0.5563965,-0.08380127,-0.76812744,-0.078125,-0.5625,0.3125
1696243092298,0.5583496,-0.09234619,-0.77349854,-0.15625,-0.625,0.109375
1696243092338,0.56274414,-0.089416504,-0.78302,-0.203125,-0.578125,0.265625
1696243092378,0.54663086,-0.08502197,-0.76275635,0.40625,-0.484375,0.421875
1696243092418,0.55859375,-0.089660645,-0.77838135,0.078125,-0.078125,0.109375
1696243092459,0.55615234,-0.08502197,-0.7720337,0.0625,-0.484375,0.078125
1696243092500,0.5566406,-0.08770752,-0.7649536,0.140625,-0.625,0.296875
1696243092542,0.5637207,-0.08648682,-0.77301025,0.515625,-0.515625,0.5
1696243092558,0.55810547,-0.08404541,-0.77227783,0.390625,-0.6875,0.40625
1696243092601,0.55859375,-0.08087158,-0.767395,0.296875,-0.625,0.3125
1696243092663,0.5563965,-0.08453369,-0.77789307,0.125,-0.703125,0.234375
1696243092701,0.5534668,-0.08453369,-0.7620239,0.328125,-0.53125,0.4375
1696243092720,0.5578613,-0.077697754,-0.7661743,0.421875,-0.640625,0.265625
1696243092758,0.5605469,-0.08526611,-0.76934814,0.109375,-0.484375,0.3125
1696243092800,0.55981445,-0.077941895,-0.77471924,0.375,-0.703125,0.34375
1696243092840,0.5576172,-0.08526611,-0.76934814,0.28125,-0.625,0.34375
1696243092885,0.5546875,-0.08135986,-0.7695923,0.15625,-0.59375,0.265625
1696243092941,0.5593262,-0.07891846,-0.7659302,0.25,-0.65625,0.296875
1696243092958,0.55566406,-0.085998535,-0.7666626,0.375,-0.296875,0.375
1696243092999,0.5576172,-0.07867432,-0.77056885,0.375,-0.625,0.484375
1696243093041,0.55444336,-0.07598877,-0.7617798,0.34375,-0.90625,0.53125
1696243093079,0.5686035,-0.07745361,-0.786438,-0.078125,-0.21875,0.234375
1696243093141,0.5461426,-0.07696533,-0.7612915,0.21875,-0.5,0.46875
1696243093157,0.5571289,-0.085998535,-0.770813,0.25,-0.125,0.234375
1696243093200,0.5595703,-0.077697754,-0.7774048,-0.109375,-0.390625,0.234375
1696243093241,0.55566406,-0.08477783,-0.77008057,0.234375,-0.453125,0.375
1696243093280,0.56347656,-0.0791626,-0.770813,0.203125,-0.609375,0.359375
1696243093319,0.55908203,-0.082336426,-0.76885986,0.15625,-0.8125,0.25
1696243093358,0.55810547,-0.07672119,-0.78204346,0.03125,-0.375,0.1875
1696243093400,0.564209,-0.081604004,-0.77716064,-0.15625,-0.46875,0.109375
1696243093439,0.5583496,-0.07330322,-0.7612915,0.21875,-0.453125,0.453125
1696243093480,0.5554199,-0.0803833,-0.7695923,0.28125,-0.5625,0.3125
1696243093519,0.5625,-0.08087158,-0.76885986,0.171875,-0.578125,0.15625
1696243093560,0.56518555,-0.074279785,-0.770813,-0.015625,-0.453125,0.328125
1696243093601,0.56518555,-0.07867432,-0.769104,0.09375,-0.53125,0.328125
1696243093640,0.5629883,-0.07965088,-0.77178955,0.03125,-0.59375,0.3125
1696243093680,0.5620117,-0.082092285,-0.76934814,0.109375,-0.578125,0.375
1696243093721,0.5605469,-0.0713501,-0.7752075,0.15625,-0.5625,0.140625
1696243093759,0.5600586,-0.0725708,-0.7686157,0.015625,-0.578125,0.125
1696243093821,0.5644531,-0.07672119,-0.76763916,0.140625,-0.546875,0.21875
1696243093838,0.5576172,-0.077941895,-0.77545166,0.078125,-0.546875,0.34375
1696243093858,0.56225586,-0.08062744,-0.76812744,0.078125,-0.46875,0.3125
1696243093901,0.5593262,-0.073791504,-0.7720337,0.15625,-0.5625,0.265625
1696243093940,0.56884766,-0.074035645,-0.77545166,-0.015625,-0.15625,0.125
1696243093979,0.55566406,-0.07672119,-0.77227783,0.09375,-0.609375,0.296875
1696243094018,0.55810547,-0.07598877,-0.7632446,-0.015625,-0.390625,0.15625
1696243094058,0.5578613,-0.07647705,-0.7661743,0.015625,-0.59375,0.28125
1696243094098,0.5654297,-0.07305908,-0.7764282,0.125,-0.40625,0.3125
1696243094139,0.56274414,-0.07745361,-0.7630005,-0.03125,-0.53125,0.15625
1696243094178,0.56347656,-0.07159424,-0.76348877,0.046875,-0.46875,0.390625
1696243094222,0.5595703,-0.08087158,-0.76812744,0.140625,-0.421875,0.203125
1696243094260,0.56396484,-0.07574463,-0.77178955,0.109375,-0.296875,0.265625
1696243094301,0.56640625,-0.07623291,-0.77227783,-0.125,-0.46875,0.203125
1696243094339,0.5588379,-0.07867432,-0.7620239,-0.015625,-0.5,0.21875
1696243094381,0.5605469,-0.07281494,-0.7637329,0.0625,-0.46875,0.15625
1696243094420,0.56274414,-0.07598877,-0.767395,0.0625,-0.5,0.25
1696243094462,0.5576172,-0.07354736,-0.7678833,-0.015625,-0.578125,0.1875
1696243094499,0.5612793,-0.08380127,-0.77056885,-0.125,-0.390625,0.328125
1696243094538,0.5649414,-0.07672119,-0.77056885,0.140625,-0.515625,0.28125
1696243094581,0.56396484,-0.0803833,-0.77178955,0.0625,-0.28125,0.375
1696243094619,0.5612793,-0.07476807,-0.76031494,-0.046875,-0.59375,0.296875
1696243094660,0.5620117,-0.07501221,-0.76519775,0.0625,-0.46875,0.203125
1696243094700,0.55688477,-0.07305908,-0.76690674,0.03125,-0.546875,0.3125
1696243094740,0.5563965,-0.078430176,-0.77423096,-0.015625,-0.53125,0.125
1696243094780,0.5605469,-0.0791626,-0.770813,-0.046875,-0.484375,0.390625
1696243094819,0.5671387,-0.069885254,-0.7671509,0.09375,-0.546875,0.359375
1696243094860,0.5686035,-0.06964111,-0.76519775,-0.203125,-0.46875,0.09375
1696243094902,0.5593262,-0.06866455,-0.772522,-0.03125,-0.3125,0.125
1696243094941,0.55810547,-0.06964111,-0.7710571,-0.328125,-0.296875,0.234375
1696243094982,0.564209,-0.07305908,-0.7671509,-0.171875,-0.09375,-0.015625
1696243095020,0.5593262,-0.07501221,-0.7781372,-0.234375,-0.21875,0.28125
1696243095060,0.55688477,-0.06768799,-0.7732544,-0.1875,-0.4375,0.0625
1696243095102,0.55981445,-0.070617676,-0.7686157,-0.09375,-0.34375,0.203125
1696243095158,0.5632324,-0.07891846,-0.7774048,-0.234375,-0.34375,0.109375
1696243095180,0.55615234,-0.07672119,-0.7612915,-0.15625,-0.171875,0.078125
1696243095199,0.56152344,-0.07550049,-0.77301025,-0.359375,-0.296875,0.125
1696243095239,0.55981445,-0.082336426,-0.7698364,-0.21875,-0.140625,0.125
1696243095281,0.5600586,-0.074279785,-0.76812744,0.03125,-0.25,-0.015625
1696243095320,0.5563965,-0.07623291,-0.7683716,-0.1875,-0.28125,0.15625
1696243095380,0.55566406,-0.07891846,-0.7715454,-0.0625,-0.40625,0.21875
1696243095398,0.55908203,-0.07965088,-0.7710571,-0.21875,-0.5,0.25
1696243095439,0.560791,-0.07940674,-0.77178955,-0.078125,-0.28125,0.15625
1696243095502,0.5588379,-0.07696533,-0.76812744,-0.21875,-0.375,0.125
1696243095540,0.56274414,-0.08062744,-0.772522,-0.25,-0.28125,0.140625
1696243095558,0.560791,-0.07476807,-0.7647095,-0.203125,-0.390625,0.0625
1696243095601,0.56103516,-0.08428955,-0.7774048,-0.203125,-0.390625,0.0625
1696243095640,0.5593262,-0.07940674,-0.77178955,-0.21875,-0.40625,0.125
1696243095680,0.5546875,-0.07867432,-0.7732544,-0.046875,-0.34375,0.140625
1696243095719,0.5632324,-0.07354736,-0.7732544,-0.265625,-0.34375,0.3125
1696243095761,0.560791,-0.07647705,-0.770813,-0.109375,-0.484375,0.265625
1696243095801,0.56152344,-0.08502197,-0.7710571,-0.140625,-0.171875,0.234375
1696243095840,0.5578613,-0.07940674,-0.7695923,-0.234375,-0.109375,0.078125
1696243095882,0.564209,-0.08087158,-0.7744751,-0.421875,-0.265625,-0.078125
1696243095943,0.5527344,-0.08526611,-0.77008057,-0.375,-0.5625,0.125
1696243095959,0.5517578,-0.08380127,-0.7661743,-0.140625,-0.4375,0.203125
1696243096000,0.56152344,-0.08404541,-0.7749634,-0.140625,-0.640625,0.171875
1696243096040,0.55810547,-0.08648682,-0.7876587,-0.34375,-0.578125,-0.03125
1696243096081,0.5541992,-0.08282471,-0.77008057,-0.28125,-0.28125,0.078125
1696243096120,0.5578613,-0.086242676,-0.7595825,-0.140625,-0.375,0.203125
1696243096162,0.55688477,-0.08135986,-0.76885986,-0.046875,-0.53125,0.21875
1696243096202,0.5539551,-0.08135986,-0.76519775,-0.0625,-0.59375,0.203125
1696243096241,0.5617676,-0.081604004,-0.77130127,-0.203125,-0.59375,0.046875
