,timestamp,accel_x,accel_y,accel_z,gyro_x,gyro_y,gyro_z,ind
0,1696242837691,-0.03857422,-0.9829712,0.13397217,0.65625,0.6875,0.4375,90
1,1696242837731,-0.040039062,-0.9871216,0.1359253,0.59375,-0.1875,0.546875,91
2,1696242837771,-0.049560547,-0.98638916,0.12982178,0.9375,0.390625,0.5,92
3,1696242837811,-0.04296875,-0.9795532,0.1281128,0.53125,0.171875,0.71875,93
4,1696242837851,-0.033691406,-0.99176025,0.11883545,-1.09375,0.375,0.609375,94
5,1696242837891,-0.053222656,-1.003479,0.13519287,4.265625,-1.359375,0.984375,95
6,1696242837931,-0.029785156,-0.9758911,0.10321045,-1.0625,0.875,-0.015625,96
7,1696242837971,-0.048828125,-0.9819946,0.13665771,2.984375,0.78125,1.328125,97
8,1696242838011,-0.04345703,-1.0003052,0.1161499,3.671875,0.390625,1.421875,98
9,1696242838051,-0.03125,-0.97906494,0.11273193,2.25,0.609375,0.828125,99
10,1696242838091,-0.03955078,-0.9834595,0.11981201,1.984375,0.109375,1.921875,100
11,1696242838131,-0.044921875,-0.991272,0.10443115,1.125,0.53125,1.671875,101
12,1696242838171,-0.032714844,-0.986145,0.10345459,1.265625,0.015625,0.796875,102
13,1696242838211,-0.032470703,-0.99053955,0.10662842,2.421875,0.140625,1.265625,103
14,1696242838251,-0.040771484,-0.989563,0.101257324,1.546875,-0.28125,0.734375,104
15,1696242838291,-0.033447266,-0.9873657,0.0993042,1.859375,-0.078125,0.703125,105
16,1696242838331,-0.032714844,-0.99053955,0.09979248,2.9375,-0.03125,0.921875,106
17,1696242838371,-0.029296875,-0.9924927,0.09124756,2.0,-0.25,0.71875,107
18,1696242838411,-0.032714844,-0.9866333,0.09295654,1.59375,-0.0625,0.71875,108
19,1696242838451,-0.0234375,-0.9902954,0.07122803,1.46875,0.953125,0.921875,109
20,1696242838491,-0.032470703,-0.9961548,0.09710693,2.875,-0.1875,1.03125,110
21,1696242838531,-0.022705078,-0.9849243,0.06561279,-0.21875,1.578125,0.359375,111
22,1696242838571,-0.036621094,-0.99176025,0.09539795,3.734375,0.71875,-0.328125,112
23,1696242838611,-0.021240234,-0.99835205,0.07977295,2.5625,0.984375,0.09375,113
24,1696242838651,-0.02758789,-0.98223877,0.06903076,2.171875,1.203125,0.640625,114
25,1696242838691,-0.026855469,-0.9902954,0.0680542,0.515625,0.828125,0.578125,115
26,1696242838731,-0.032714844,-0.99102783,0.070739746,0.46875,0.796875,0.421875,116
27,1696242838771,-0.020751953,-0.98272705,0.06707764,-0.84375,-0.03125,0.03125,117
28,1696242838811,-0.02758789,-0.99542236,0.07171631,-0.125,0.09375,0.125,118
29,1696242838851,-0.029785156,-0.99298096,0.070007324,-0.609375,-0.484375,-0.28125,119
30,1696242838891,-0.022705078,-0.9885864,0.07659912,-1.046875,-1.265625,-0.25,120
31,1696242838931,-0.028564453,-0.98516846,0.077819824,-2.03125,-1.578125,-0.296875,121
32,1696242838971,-0.028320312,-0.9800415,0.07733154,-3.09375,-2.609375,-0.390625,122
33,1696242839011,-0.024658203,-0.99298096,0.08123779,-3.359375,-3.53125,-0.765625,123
34,1696242839051,-0.025146484,-0.9890747,0.08929443,-4.15625,-4.5625,-0.984375,124
35,1696242839091,-0.040771484,-0.9937134,0.08514404,-3.453125,-5.921875,-1.890625,125
36,1696242839131,-0.052490234,-0.99005127,0.11834717,-2.21875,-3.53125,-2.90625,126
37,1696242839171,-0.03491211,-0.9849243,0.08099365,-6.046875,-1.765625,-2.34375,127
38,1696242839211,-0.040283203,-0.9697876,0.109802246,-4.1875,-1.390625,-1.96875,128
39,1696242839251,-0.05419922,-0.99542236,0.11639404,-1.328125,-1.234375,-0.265625,129
40,1696242839291,-0.046142578,-0.98638916,0.11126709,-2.484375,-1.421875,-0.796875,130
41,1696242839331,-0.043701172,-0.9841919,0.11468506,-2.84375,-2.0625,-0.421875,131
42,1696242839371,-0.05029297,-0.99420166,0.12347412,-1.859375,-2.34375,-0.171875,132
43,1696242839411,-0.048095703,-0.98883057,0.120788574,-3.125,-2.203125,-0.703125,133
44,1696242839451,-0.055419922,-0.9795532,0.13446045,-2.5625,-1.921875,-0.28125,134
45,1696242839491,-0.06323242,-0.9829712,0.13323975,-0.828125,-1.390625,0.328125,135
46,1696242839531,-0.056640625,-0.98443604,0.13153076,-0.828125,-1.125,0.21875,136
47,1696242839571,-0.051757812,-0.98638916,0.13128662,-0.484375,-0.78125,-0.0625,137
48,1696242839611,-0.05493164,-0.98223877,0.14031982,-0.625,-0.671875,-0.09375,138
49,1696242839651,-0.0546875,-0.986145,0.13446045,-0.71875,-0.4375,-0.09375,139
50,1696242839691,-0.057861328,-0.9807739,0.13128662,-0.125,-0.484375,-0.046875,140
51,1696242839731,-0.05053711,-0.98516846,0.1383667,-0.234375,-0.296875,0.28125,141
52,1696242839771,-0.05883789,-0.97442627,0.14935303,0.578125,0.25,0.46875,142
53,1696242839811,-0.04711914,-0.98638916,0.12957764,-0.53125,1.5,0.015625,143
54,1696242839851,-0.046142578,-0.989563,0.12982178,1.25,-0.671875,0.46875,144
55,1696242839891,-0.043945312,-0.96710205,0.14544678,-3.75,0.828125,-0.359375,145
56,1696242839931,-0.06689453,-0.99835205,0.16448975,-0.375,-0.0625,0.625,146
57,1696242839971,-0.04638672,-0.9817505,0.12689209,-2.0,-0.21875,0.078125,147
58,1696242840011,-0.052490234,-0.9837036,0.14837646,-1.484375,-0.296875,0.015625,148
59,1696242840051,-0.053955078,-0.98394775,0.1605835,-0.703125,-0.671875,0.265625,149
60,1696242840091,-0.053222656,-0.9768677,0.13763428,-0.421875,-0.8125,0.078125,150
61,1696242840131,-0.052246094,-0.97784424,0.14276123,-0.984375,-0.9375,-0.140625,151
62,1696242840171,-0.05859375,-0.9824829,0.15203857,0.90625,-0.984375,0.34375,152
63,1696242840211,-0.056152344,-0.97735596,0.14276123,1.15625,-0.9375,0.25,153
64,1696242840251,-0.045166016,-0.9829712,0.14276123,1.578125,-0.09375,0.25,154
65,1696242840291,-0.057617188,-0.98321533,0.14300537,1.09375,-0.578125,0.234375,155
66,1696242840331,-0.057861328,-0.9800415,0.1359253,0.625,-0.5,0.078125,156
67,1696242840371,-0.060058594,-0.98516846,0.14227295,-0.046875,-1.109375,0.078125,157
68,1696242840411,-0.060791016,-0.98101807,0.14471436,-0.109375,-1.25,0.125,158
69,1696242840451,-0.05834961,-0.98272705,0.13909912,-0.515625,-1.5,0.03125,159
70,1696242840491,-0.059570312,-0.9866333,0.12591553,-1.203125,-1.296875,0.109375,160
71,1696242840531,-0.0637207,-0.99542236,0.152771,2.890625,-1.75,0.3125,161
72,1696242840571,-0.046142578,-0.9817505,0.12030029,-3.75,-0.1875,-0.578125,162
73,1696242840611,-0.06713867,-0.98443604,0.1486206,-0.171875,-1.1875,0.625,163
74,1696242840651,-0.06298828,-0.99542236,0.13812256,0.671875,-0.34375,0.640625,164
75,1696242840691,-0.056640625,-0.9783325,0.13885498,0.34375,-0.25,0.546875,165
76,1696242840731,-0.049560547,-0.9824829,0.13031006,-0.46875,-0.375,0.5625,166
77,1696242840771,-0.06347656,-0.9927368,0.1515503,0.375,0.0,0.984375,167
78,1696242840811,-0.053710938,-0.99005127,0.13763428,-0.9375,0.15625,0.90625,168
79,1696242840851,-0.047607422,-0.9805298,0.14349365,1.3125,0.625,0.859375,169
80,1696242840891,-0.04248047,-0.9890747,0.13861084,1.921875,0.390625,1.328125,170
81,1696242840931,-0.053955078,-0.9854126,0.13909912,1.359375,-0.09375,1.3125,171
82,1696242840971,-0.04736328,-0.9883423,0.13885498,2.1875,-0.25,1.375,172
83,1696242841011,-0.04272461,-0.97662354,0.12615967,0.65625,-0.65625,1.03125,173
84,1696242841051,-0.053710938,-0.98321533,0.13250732,1.046875,-0.03125,1.1875,174
85,1696242841091,-0.044189453,-0.9902954,0.12786865,1.6875,0.28125,1.109375,175
86,1696242841131,-0.04296875,-0.987854,0.12835693,2.078125,0.109375,0.90625,176
87,1696242841171,-0.036621094,-0.9829712,0.12835693,1.578125,-0.015625,0.96875,177
88,1696242841211,-0.045898438,-0.98638916,0.11566162,1.265625,0.078125,0.984375,178
89,1696242841251,-0.043701172,-0.99346924,0.11517334,1.984375,0.0,0.875,179
90,1696242841291,-0.035888672,-0.9873657,0.1317749,3.734375,-0.984375,1.203125,180
91,1696242841331,-0.031982422,-0.98760986,0.085876465,-0.765625,0.234375,0.765625,181
92,1696242841371,-0.04345703,-0.9793091,0.12176514,2.65625,0.703125,1.046875,182
93,1696242841411,-0.04296875,-1.0039673,0.113220215,2.515625,0.03125,0.96875,183
94,1696242841451,-0.027832031,-0.9780884,0.109069824,1.625,0.3125,0.59375,184
95,1696242841491,-0.03881836,-0.9937134,0.10076904,1.765625,0.015625,0.828125,185
96,1696242841531,-0.045654297,-0.99298096,0.12176514,2.890625,0.28125,0.9375,186
97,1696242841571,-0.030029297,-0.9854126,0.08880615,0.9375,-0.078125,0.6875,187
98,1696242841611,-0.033691406,-0.9812622,0.11077881,0.78125,-0.21875,0.59375,188
99,1696242841651,-0.029785156,-0.9981079,0.09906006,1.0625,-0.78125,0.640625,189
100,1696242841691,-0.029052734,-0.9902954,0.094177246,1.375,-0.890625,0.828125,190
101,1696242841731,-0.037353516,-0.9915161,0.09490967,1.015625,-1.046875,0.84375,191
102,1696242841771,-0.03491211,-0.9932251,0.090270996,1.421875,-0.484375,1.03125,192
103,1696242841811,-0.026855469,-0.98516846,0.0927124,1.109375,-0.53125,0.484375,193
104,1696242841851,-0.025634766,-0.9937134,0.08538818,0.65625,-0.234375,0.65625,194
105,1696242841891,-0.031982422,-0.987854,0.085876465,0.453125,-0.5,0.203125,195
106,1696242841931,-0.030517578,-0.99420166,0.08831787,-0.546875,-0.296875,0.125,196
107,1696242841971,-0.03125,-0.98321533,0.086120605,-0.421875,-0.140625,-0.046875,197
108,1696242842011,-0.030761719,-0.9907837,0.08758545,-0.125,-0.34375,0.015625,198
109,1696242842051,-0.024902344,-0.98321533,0.09222412,-0.671875,-0.78125,-0.015625,199
110,1696242842091,-0.03491211,-0.99102783,0.09295654,-0.671875,-1.515625,-0.140625,200
111,1696242842131,-0.036865234,-0.9885864,0.093688965,-0.34375,-2.375,-0.578125,201
112,1696242842171,-0.033447266,-0.9795532,0.10272217,-2.015625,-1.609375,-1.0625,202
113,1696242842211,-0.03491211,-1.0098267,0.08538818,-2.9375,-2.59375,-0.84375,203
114,1696242842251,-0.028808594,-0.97369385,0.10003662,-4.421875,-2.34375,-2.0,204
115,1696242842291,-0.040039062,-0.99591064,0.113708496,-1.34375,-1.515625,-0.890625,205
116,1696242842331,-0.048339844,-0.97857666,0.10687256,-1.96875,-1.140625,-1.78125,206
117,1696242842371,-0.041259766,-0.9841919,0.11126709,-2.25,-1.671875,-1.703125,207
118,1696242842411,-0.048583984,-0.991272,0.121032715,-3.828125,-2.125,-0.84375,208
119,1696242842451,-0.056396484,-0.99053955,0.12322998,-1.890625,-1.125,-0.296875,209
120,1696242842491,-0.03466797,-0.98101807,0.11273193,-2.03125,-1.015625,-0.765625,210
121,1696242842531,-0.052246094,-0.98101807,0.12860107,-0.78125,-0.796875,-0.1875,211
122,1696242842571,-0.055419922,-0.9920044,0.12713623,-0.671875,-0.4375,-0.46875,212
123,1696242842611,-0.05126953,-0.9846802,0.12054443,-0.859375,-0.328125,-0.828125,213
124,1696242842651,-0.049316406,-0.98760986,0.12030029,-0.828125,0.03125,-0.625,214
125,1696242842691,-0.048339844,-0.9890747,0.12738037,-1.078125,0.3125,-0.125,215
126,1696242842731,-0.05419922,-0.99176025,0.1281128,-0.703125,0.078125,-0.296875,216
127,1696242842771,-0.053222656,-0.99053955,0.13372803,-0.625,0.21875,-0.390625,217
128,1696242842811,-0.05493164,-0.98272705,0.124938965,-0.515625,-0.5,-0.5625,218
129,1696242842851,-0.0546875,-0.99005127,0.12298584,-0.765625,-0.671875,-0.296875,219
130,1696242842891,-0.05908203,-0.9873657,0.12884521,-0.859375,-0.703125,-0.390625,220
131,1696242842931,-0.049316406,-0.98028564,0.13885498,-0.3125,-0.546875,-0.078125,221
132,1696242842971,-0.04248047,-0.9854126,0.13250732,-0.265625,-0.734375,0.21875,222
133,1696242843011,-0.05908203,-0.9920044,0.12689209,-0.734375,-1.625,0.46875,223
134,1696242843051,-0.060302734,-0.98394775,0.16009521,1.6875,-1.421875,0.515625,224
135,1696242843091,-0.045410156,-0.98565674,0.10687256,-5.484375,-0.171875,0.015625,225
136,1696242843131,-0.07421875,-0.9795532,0.14886475,-2.4375,-1.734375,0.40625,226
137,1696242843171,-0.055664062,-0.9817505,0.13934326,-1.78125,-0.84375,0.078125,227
138,1696242843211,-0.053466797,-0.9690552,0.14300537,-1.609375,-0.328125,-0.125,228
139,1696242843251,-0.061279297,-0.9805298,0.14349365,0.3125,-0.6875,0.34375,229
140,1696242843291,-0.064208984,-0.97125244,0.16644287,1.828125,-0.4375,0.359375,230
141,1696242843331,-0.059326172,-0.97613525,0.13616943,0.734375,0.15625,0.25,231
142,1696242843371,-0.059326172,-0.9771118,0.14788818,0.6875,-0.0625,0.515625,232
143,1696242843411,-0.053710938,-0.987854,0.14324951,1.515625,-0.40625,0.4375,233
144,1696242843451,-0.056396484,-0.98443604,0.13348389,1.40625,-0.1875,0.40625,234
145,1696242843491,-0.05053711,-0.9795532,0.1359253,1.265625,-0.765625,0.484375,235
146,1696242843531,-0.056640625,-0.9873657,0.13690186,-0.015625,-1.390625,0.421875,236
147,1696242843571,-0.063964844,-0.9885864,0.14227295,-0.90625,-1.640625,0.671875,237
148,1696242843611,-0.059814453,-0.98101807,0.13641357,-1.390625,-1.703125,0.640625,238
149,1696242843651,-0.064453125,-0.9871216,0.13128662,-1.1875,-1.421875,0.375,239
150,1696242843691,-0.056396484,-0.9800415,0.14276123,-0.71875,-0.84375,0.328125,240
151,1696242843731,-0.06665039,-0.98516846,0.14447021,-0.046875,-0.671875,0.09375,241
152,1696242843771,-0.060058594,-0.98760986,0.1395874,-0.390625,-0.5625,0.140625,242
153,1696242843811,-0.05883789,-0.9885864,0.13787842,1.0,-0.453125,0.125,243
154,1696242843851,-0.048583984,-0.9727173,0.1564331,1.640625,0.109375,0.15625,244
155,1696242843891,-0.053222656,-0.9932251,0.121032715,-0.265625,-0.09375,0.375,245
156,1696242843931,-0.045654297,-0.9717407,0.13616943,-0.734375,0.125,0.015625,246
157,1696242843971,-0.068115234,-0.9924927,0.1539917,1.734375,0.609375,1.390625,247
158,1696242844011,-0.053466797,-0.9883423,0.13885498,1.328125,0.84375,0.8125,248
159,1696242844051,-0.049316406,-0.987854,0.1395874,1.15625,0.171875,0.8125,249
160,1696242844091,-0.05444336,-0.98687744,0.12738037,0.046875,-0.09375,0.609375,250
161,1696242844131,-0.05078125,-0.9849243,0.12786865,0.5625,0.015625,1.421875,251
162,1696242844171,-0.04736328,-0.9837036,0.12567139,0.125,0.171875,0.65625,252
163,1696242844211,-0.048583984,-0.9829712,0.13470459,1.640625,0.0625,0.9375,253
164,1696242844251,-0.059326172,-0.9924927,0.12371826,1.734375,-0.234375,0.890625,254
165,1696242844291,-0.05053711,-0.9817505,0.12738037,1.15625,-0.046875,0.6875,255
166,1696242844331,-0.040039062,-0.9854126,0.11907959,1.53125,0.0625,1.078125,256
167,1696242844371,-0.044433594,-0.98443604,0.11859131,1.65625,0.015625,1.125,257
168,1696242844411,-0.040283203,-0.9890747,0.120788574,2.390625,-0.21875,1.296875,258
169,1696242844451,-0.040771484,-0.9841919,0.1149292,1.671875,0.109375,1.3125,259
170,1696242844491,-0.043945312,-0.9915161,0.1149292,1.71875,0.15625,1.15625,260
171,1696242844531,-0.04345703,-0.9890747,0.11639404,2.390625,0.234375,1.15625,261
172,1696242844571,-0.03540039,-0.9854126,0.11126709,2.0625,0.34375,0.96875,262
173,1696242844611,-0.038085938,-0.987854,0.10296631,2.0625,0.375,0.953125,263
174,1696242844651,-0.044189453,-0.99346924,0.105895996,1.9375,0.515625,0.71875,264
175,1696242844691,-0.03173828,-0.9805298,0.09564209,1.40625,0.71875,0.875,265
176,1696242844731,-0.036865234,-0.99053955,0.08343506,3.171875,1.4375,1.125,266
177,1696242844771,-0.032226562,-0.99346924,0.10296631,4.765625,0.515625,1.515625,267
178,1696242844811,-0.020507812,-0.9883423,0.06463623,0.984375,2.109375,0.453125,268
179,1696242844851,-0.03466797,-0.9819946,0.093688965,2.078125,1.015625,0.828125,269
180,1696242844891,-0.034179688,-1.0027466,0.094177246,1.6875,0.984375,0.625,270
181,1696242844931,-0.018798828,-0.9890747,0.085876465,-0.046875,1.0625,-0.234375,271
182,1696242844971,-0.03515625,-0.9927368,0.07977295,-0.28125,0.265625,-0.21875,272
183,1696242845011,-0.036376953,-0.9873657,0.09564209,0.859375,0.390625,-0.171875,273
184,1696242845051,-0.026611328,-0.987854,0.07513428,-0.4375,0.53125,-0.078125,274
185,1696242845091,-0.029785156,-0.9793091,0.081726074,-0.890625,-0.140625,-0.078125,275
186,1696242845131,-0.037353516,-0.9944458,0.08831787,-0.625,-0.984375,-0.125,276
187,1696242845171,-0.032470703,-0.98565674,0.0848999,-0.953125,-1.484375,-0.125,277
188,1696242845211,-0.022705078,-0.9849243,0.09173584,-2.296875,-2.328125,-0.578125,278
189,1696242845251,-0.041748047,-0.9902954,0.093688965,-3.78125,-3.265625,-1.28125,279
190,1696242845291,-0.04321289,-0.9968872,0.101257324,-4.875,-3.578125,-2.09375,280
191,1696242845331,-0.051757812,-1.0012817,0.1071167,-4.890625,-2.328125,-1.828125,281
192,1696242845371,-0.04248047,-0.986145,0.116882324,-4.15625,-0.859375,-1.5,282
193,1696242845411,-0.050048828,-0.9854126,0.117126465,-3.4375,-1.390625,-1.59375,283
194,1696242845451,-0.044921875,-0.9780884,0.1227417,-3.296875,-1.40625,-1.4375,284
195,1696242845491,-0.052734375,-0.98101807,0.12445068,-2.921875,-1.609375,-0.953125,285
196,1696242845531,-0.055664062,-0.98809814,0.12445068,-1.84375,-1.46875,-0.609375,286
197,1696242845571,-0.057617188,-0.986145,0.12908936,-0.96875,-1.3125,-0.46875,287
198,1696242845611,-0.061523438,-0.97979736,0.13519287,-0.46875,-1.125,-0.046875,288
199,1696242845651,-0.05053711,-0.9849243,0.12445068,-1.125,-0.046875,-0.125,289
200,1696242845691,-0.052978516,-0.9981079,0.12591553,0.3125,-0.96875,0.203125,290
201,1696242845731,-0.0390625,-0.9692993,0.13031006,-3.640625,0.625,-0.59375,291
202,1696242845771,-0.06982422,-0.9873657,0.15447998,0.15625,0.46875,0.859375,292
203,1696242845811,-0.05859375,-0.9920044,0.12615967,-0.84375,0.078125,0.171875,293
204,1696242845851,-0.048828125,-0.9780884,0.14715576,-1.921875,-0.453125,-0.265625,294
205,1696242845891,-0.055908203,-0.99102783,0.14202881,-1.328125,-0.3125,0.015625,295
206,1696242845931,-0.056640625,-0.98931885,0.14666748,0.9375,-0.359375,0.15625,296
207,1696242845971,-0.057617188,-0.9771118,0.13983154,-0.71875,-0.765625,-0.34375,297
208,1696242846011,-0.05859375,-0.98760986,0.14886475,-0.203125,-0.578125,-0.140625,298
209,1696242846051,-0.063964844,-0.9898071,0.14056396,0.203125,-0.484375,-0.0625,299
210,1696242846091,-0.072021484,-0.98223877,0.14178467,-0.15625,-0.21875,-0.15625,300
211,1696242846131,-0.059570312,-0.97784424,0.14007568,-0.046875,0.03125,0.109375,301
212,1696242846171,-0.061035156,-0.98760986,0.14398193,0.140625,-0.3125,0.3125,302
213,1696242846211,-0.0546875,-0.9859009,0.14227295,0.28125,-0.6875,0.1875,303
214,1696242846251,-0.063964844,-0.98321533,0.14227295,0.609375,-0.5625,0.296875,304
215,1696242846291,-0.0625,-0.9768677,0.14178467,0.734375,-0.328125,0.28125,305
216,1696242846331,-0.05126953,-0.98931885,0.13983154,0.984375,-0.1875,0.390625,306
217,1696242846371,-0.061523438,-0.9829712,0.14129639,1.34375,-0.46875,0.328125,307
218,1696242846411,-0.059814453,-0.9807739,0.13323975,0.375,-0.40625,0.375,308
219,1696242846451,-0.061523438,-0.9939575,0.12298584,0.34375,-0.765625,0.140625,309
220,1696242846491,-0.064453125,-0.9768677,0.15863037,2.25,-0.890625,0.359375,310
221,1696242846531,-0.051757812,-0.99468994,0.10760498,-2.890625,-0.609375,0.046875,311
222,1696242846571,-0.05883789,-0.9776001,0.14251709,-1.0625,-1.015625,-0.078125,312
223,1696242846611,-0.068115234,-0.9920044,0.1437378,-0.125,-0.421875,0.5625,313
224,1696242846651,-0.052246094,-0.98443604,0.1317749,-1.03125,-0.53125,-0.375,314
225,1696242846691,-0.05883789,-0.98394775,0.1473999,-1.671875,-1.140625,-0.0625,315
226,1696242846731,-0.06713867,-0.9812622,0.15570068,-0.78125,-0.625,0.109375,316
227,1696242846771,-0.061035156,-0.9924927,0.13861084,-0.984375,-0.609375,0.265625,317
228,1696242846811,-0.05126953,-0.9807739,0.13934326,-1.21875,-0.921875,0.296875,318
229,1696242846851,-0.061767578,-0.9824829,0.14910889,0.1875,-0.359375,0.578125,319
230,1696242846891,-0.061523438,-0.98638916,0.13616943,0.140625,-0.625,1.046875,320
231,1696242846931,-0.057861328,-0.9849243,0.14837646,1.59375,-0.390625,1.125,321
232,1696242846971,-0.052978516,-0.98223877,0.13519287,2.375,0.046875,1.140625,322
233,1696242847011,-0.046875,-0.98028564,0.13616943,2.234375,-0.109375,1.359375,323
234,1696242847051,-0.05102539,-0.98394775,0.12738037,3.421875,-0.015625,1.859375,324
235,1696242847091,-0.05493164,-0.9920044,0.13909912,2.0,0.0,1.3125,325
236,1696242847131,-0.044677734,-0.98394775,0.1239624,2.625,0.390625,1.359375,326
237,1696242847171,-0.039794922,-0.9812622,0.12615967,2.40625,0.203125,1.3125,327
238,1696242847211,-0.052490234,-0.991272,0.124938965,2.578125,-0.15625,1.0,328
239,1696242847251,-0.04272461,-0.98638916,0.10003662,3.265625,0.71875,1.0625,329
240,1696242847291,-0.04345703,-0.9890747,0.121032715,4.828125,-0.21875,1.453125,330
241,1696242847331,-0.02709961,-0.9812622,0.085876465,0.03125,0.4375,0.5625,331
242,1696242847371,-0.05102539,-0.98638916,0.12347412,1.765625,0.578125,0.734375,332
243,1696242847411,-0.049560547,-0.99957275,0.1005249,2.40625,0.234375,0.875,333
244,1696242847451,-0.033447266,-0.98101807,0.093933105,1.359375,0.78125,0.515625,334
245,1696242847491,-0.04321289,-0.9939575,0.10272217,0.78125,0.375,0.8125,335
246,1696242847531,-0.048339844,-0.99005127,0.10296631,1.984375,0.53125,0.6875,336
247,1696242847571,-0.030273438,-0.98565674,0.09490967,1.1875,0.828125,0.390625,337
248,1696242847611,-0.031982422,-0.9834595,0.09051514,1.0,0.25,0.328125,338
249,1696242847651,-0.02734375,-0.98809814,0.09515381,1.640625,-0.03125,0.78125,339
250,1696242847691,-0.037597656,-0.99420166,0.09173584,1.390625,-0.453125,1.015625,340
251,1696242847731,-0.048583984,-0.9837036,0.08514404,3.53125,0.859375,0.890625,341
252,1696242847771,-0.028076172,-0.9907837,0.0836792,2.140625,0.515625,0.515625,342
253,1696242847811,-0.040771484,-0.9834595,0.08148193,1.609375,0.140625,1.03125,343
254,1696242847851,-0.032958984,-0.99176025,0.08026123,1.671875,0.125,1.0625,344
255,1696242847891,-0.032226562,-0.9819946,0.07757568,1.03125,-0.375,1.03125,345
256,1696242847931,-0.030029297,-0.98883057,0.07659912,-0.0625,-0.546875,0.671875,346
257,1696242847971,-0.031982422,-0.98394775,0.0770874,-0.921875,-1.046875,0.5,347
258,1696242848011,-0.029052734,-0.99298096,0.0680542,-1.734375,-1.21875,0.3125,348
259,1696242848051,-0.03173828,-0.99298096,0.09832764,-0.1875,-1.78125,0.21875,349
260,1696242848091,-0.028320312,-0.9846802,0.061950684,-5.390625,-1.34375,-0.421875,350
261,1696242848131,-0.040771484,-0.97857666,0.09442139,-4.875,-2.046875,-0.734375,351
262,1696242848171,-0.02709961,-1.0003052,0.10247803,-3.75,-1.796875,-0.515625,352
263,1696242848211,-0.024658203,-0.9793091,0.09979248,-4.125,-2.71875,-1.546875,353
264,1696242848251,-0.033691406,-0.98565674,0.11053467,-3.703125,-2.84375,-1.328125,354
265,1696242848291,-0.05053711,-0.99224854,0.12615967,-2.390625,-1.84375,-0.828125,355
266,1696242848331,-0.029296875,-0.98565674,0.11785889,-3.15625,-0.75,-0.84375,356
267,1696242848371,-0.03540039,-0.9846802,0.12054443,-3.09375,-1.3125,-0.84375,357
268,1696242848411,-0.044677734,-0.989563,0.12567139,-1.40625,-1.59375,-0.421875,358
269,1696242848451,-0.049072266,-0.99005127,0.11883545,-2.0,-1.515625,-0.46875,359
270,1696242848491,-0.04296875,-0.9819946,0.13348389,-1.65625,-1.015625,-0.40625,360
271,1696242848531,-0.044677734,-0.98638916,0.12713623,-2.109375,-0.9375,-0.390625,361
272,1696242848571,-0.049560547,-0.97906494,0.13250732,-2.21875,-0.796875,-0.359375,362
273,1696242848611,-0.048339844,-0.9885864,0.13397217,-1.296875,-0.140625,0.03125,363
274,1696242848651,-0.048583984,-0.98516846,0.13934326,-1.359375,-0.3125,0.03125,364
275,1696242848691,-0.04345703,-0.9859009,0.13861084,-1.015625,-0.265625,0.078125,365
276,1696242848731,-0.05444336,-0.98760986,0.13519287,0.21875,-0.234375,0.21875,366
277,1696242848771,-0.049316406,-0.98150635,0.15350342,0.25,0.21875,0.03125,367
278,1696242848811,-0.04711914,-0.9939575,0.116882324,-0.859375,-0.609375,0.5625,368
279,1696242848851,-0.033691406,-0.96832275,0.15789795,-1.046875,0.46875,-0.21875,369
280,1696242848891,-0.053222656,-0.9963989,0.15106201,0.421875,0.234375,0.71875,370
281,1696242848931,-0.044189453,-0.9751587,0.12982178,-1.203125,-0.125,-0.265625,371
282,1696242848971,-0.04248047,-0.989563,0.14324951,-1.03125,-0.1875,-0.03125,372
283,1696242849011,-0.053710938,-0.98272705,0.15887451,0.140625,0.09375,0.21875,373
284,1696242849051,-0.0390625,-0.98687744,0.1383667,-0.59375,-0.21875,-0.015625,374
285,1696242849091,-0.04711914,-0.9812622,0.14227295,-0.671875,-0.421875,-0.234375,375
286,1696242849131,-0.045410156,-0.98638916,0.14422607,0.40625,-0.4375,0.328125,376
287,1696242849171,-0.040771484,-0.97442627,0.13739014,0.3125,-0.765625,0.15625,377
288,1696242849211,-0.042236328,-0.9807739,0.13812256,0.640625,-0.65625,0.234375,378
289,1696242849251,-0.049072266,-0.9849243,0.14202881,0.90625,-0.140625,0.1875,379
290,1696242849291,-0.052001953,-0.98565674,0.13983154,0.828125,-0.375,-0.28125,380
291,1696242849331,-0.05126953,-0.9829712,0.14324951,0.78125,-0.625,-0.265625,381
292,1696242849371,-0.050048828,-0.9783325,0.14202881,0.421875,-0.796875,0.109375,382
293,1696242849411,-0.053710938,-0.9776001,0.15765381,1.75,-1.140625,0.125,383
294,1696242849451,-0.043701172,-0.97735596,0.1317749,-0.4375,-0.421875,-0.21875,384
295,1696242849491,-0.048095703,-0.99835205,0.14202881,1.90625,-1.578125,0.328125,385
296,1696242849531,-0.03564453,-0.9668579,0.12957764,-2.53125,0.171875,-0.640625,386
297,1696242849571,-0.06518555,-0.9849243,0.15887451,0.546875,-0.859375,0.75,387
298,1696242849611,-0.045654297,-0.9915161,0.13763428,1.140625,-0.453125,0.46875,388
299,1696242849651,-0.053710938,-0.98321533,0.14422607,-0.59375,-0.421875,-0.03125,389
300,1696242849691,-0.056396484,-0.9898071,0.14398193,-0.765625,-0.265625,0.171875,390
301,1696242849731,-0.05883789,-0.989563,0.13690186,0.125,-0.640625,0.234375,391
302,1696242849771,-0.0390625,-0.9849243,0.13934326,0.625,-0.15625,-0.140625,392
303,1696242849811,-0.059326172,-0.9805298,0.14178467,1.40625,-0.171875,0.109375,393
304,1696242849851,-0.048583984,-0.99224854,0.13446045,1.734375,-0.421875,0.28125,394
305,1696242849891,-0.049804688,-0.98638916,0.12689209,1.8125,-0.671875,0.109375,395
306,1696242849931,-0.05102539,-0.9859009,0.117370605,1.703125,-0.75,0.375,396
307,1696242849971,-0.05444336,-0.9902954,0.12176514,0.984375,0.03125,0.3125,397
308,1696242850011,-0.048828125,-0.9866333,0.12884521,0.53125,0.3125,0.265625,398
309,1696242850051,-0.052978516,-0.97857666,0.11639404,0.90625,-0.5,0.234375,399
310,1696242850091,-0.04321289,-0.9776001,0.11859131,2.078125,-1.609375,0.4375,400
311,1696242850131,-0.051513672,-0.99713135,0.11175537,0.828125,-1.34375,0.5625,401
312,1696242850171,-0.053222656,-0.987854,0.13885498,4.96875,-1.953125,1.21875,402
313,1696242850211,-0.03466797,-0.9834595,0.09979248,-1.390625,-0.53125,0.25,403
314,1696242850251,-0.055908203,-0.9783325,0.11981201,1.421875,-0.453125,0.515625,404
315,1696242850291,-0.052246094,-1.00177,0.10882568,2.5625,-0.296875,0.921875,405
316,1696242850331,-0.05078125,-0.9846802,0.109069824,0.609375,-0.359375,0.125,406
317,1696242850371,-0.047607422,-0.9961548,0.1005249,6.390625,0.875,0.953125,407
318,1696242850411,-0.03515625,-0.989563,0.09515381,4.0625,0.953125,0.71875,408
319,1696242850451,-0.044921875,-0.98028564,0.07977295,2.171875,0.546875,0.734375,409
320,1696242850491,-0.045654297,-0.97857666,0.0848999,1.671875,0.171875,0.921875,410
321,1696242850531,-0.044433594,-0.99298096,0.09075928,1.140625,-0.1875,0.53125,411
322,1696242850571,-0.044433594,-0.99005127,0.08880615,0.359375,-0.203125,0.296875,412
323,1696242850611,-0.0390625,-0.991272,0.0848999,-0.484375,-0.125,0.3125,413
324,1696242850651,-0.05078125,-0.9871216,0.08905029,-1.171875,-0.5625,0.078125,414
325,1696242850691,-0.04736328,-0.9902954,0.09173584,-1.03125,-0.5625,-0.09375,415
326,1696242850731,-0.040283203,-0.99102783,0.08856201,-1.328125,-0.921875,-0.046875,416
327,1696242850771,-0.03515625,-0.99346924,0.09588623,-1.390625,-0.96875,0.015625,417
328,1696242850811,-0.05078125,-0.9866333,0.10760498,-0.734375,-1.75,0.0625,418
329,1696242850851,-0.036621094,-0.9841919,0.08856201,-3.28125,-1.03125,-0.71875,419
330,1696242850891,-0.045654297,-0.9968872,0.09564209,-2.5,-2.15625,0.203125,420
331,1696242850931,-0.033935547,-0.98150635,0.097595215,-5.078125,-0.640625,-0.40625,421
332,1696242850971,-0.05102539,-0.989563,0.11810303,0.734375,-0.03125,0.578125,422
333,1696242851011,-0.05078125,-0.9949341,0.109069824,-0.578125,-0.71875,-0.03125,423
334,1696242851051,-0.035888672,-0.9837036,0.11004639,-1.625,-0.875,-0.03125,424
335,1696242851091,-0.05883789,-0.99102783,0.11981201,-1.515625,-0.875,0.015625,425
336,1696242851131,-0.044189453,-0.98687744,0.11468506,-1.546875,-0.953125,0.140625,426
337,1696242851171,-0.043701172,-0.9859009,0.11248779,-2.390625,-1.203125,-0.21875,427
338,1696242851211,-0.047607422,-0.98443604,0.11785889,-1.109375,-0.703125,0.375,428
339,1696242851251,-0.048339844,-0.98809814,0.12225342,-0.828125,-0.96875,0.171875,429
340,1696242851291,-0.048828125,-0.9885864,0.12030029,-0.78125,-0.796875,0.234375,430
341,1696242851331,-0.046875,-0.98516846,0.12615967,-1.046875,-0.921875,0.3125,431
342,1696242851371,-0.052246094,-0.98883057,0.1239624,-0.765625,-0.953125,0.1875,432
343,1696242851411,-0.049316406,-0.99176025,0.12005615,-1.3125,-0.90625,-0.296875,433
344,1696242851451,-0.049804688,-0.987854,0.13128662,-0.734375,-1.09375,-0.109375,434
345,1696242851491,-0.04663086,-0.97857666,0.11932373,-1.546875,-1.015625,-0.171875,435
346,1696242851531,-0.051757812,-0.9963989,0.12835693,0.609375,-1.109375,0.46875,436
347,1696242851571,-0.045654297,-0.9763794,0.14569092,-0.4375,-0.71875,-0.046875,437
348,1696242851611,-0.052978516,-0.9981079,0.10394287,-1.875,-1.625,0.515625,438
349,1696242851651,-0.039794922,-0.9741821,0.15740967,-1.640625,-0.21875,-0.28125,439
350,1696242851691,-0.064453125,-0.99957275,0.13446045,-0.890625,-0.765625,0.75,440
351,1696242851731,-0.046875,-0.97540283,0.12249756,-2.453125,-1.109375,-0.296875,441
352,1696242851771,-0.0546875,-0.986145,0.14447021,-1.703125,-0.765625,0.140625,442
353,1696242851811,-0.059570312,-0.9890747,0.15423584,0.734375,-0.296875,0.484375,443
354,1696242851851,-0.04711914,-0.9807739,0.13787842,-0.53125,-0.546875,0.0,444
355,1696242851891,-0.053466797,-0.97613525,0.14349365,-0.4375,-0.84375,0.234375,445
356,1696242851931,-0.056396484,-0.99176025,0.14105225,1.296875,-0.359375,0.15625,446
357,1696242851971,-0.04663086,-0.98638916,0.14129639,1.125,-0.28125,-0.078125,447
358,1696242852011,-0.047851562,-0.9859009,0.1408081,0.859375,-0.5,0.0625,448
359,1696242852051,-0.0546875,-0.9854126,0.14056396,0.671875,-0.265625,0.296875,449
360,1696242852091,-0.053222656,-0.9873657,0.13812256,0.296875,-0.328125,0.203125,450
361,1696242852131,-0.048339844,-0.9854126,0.13201904,0.34375,-0.578125,0.140625,451
362,1696242852171,-0.053955078,-0.9841919,0.13983154,0.375,-0.328125,0.078125,452
363,1696242852211,-0.047607422,-0.9854126,0.13616943,0.171875,-0.453125,0.3125,453
364,1696242852251,-0.057373047,-1.000061,0.13812256,1.703125,-0.65625,0.390625,454
365,1696242852291,-0.055419922,-0.97540283,0.15667725,1.234375,-0.109375,0.1875,455
366,1696242852331,-0.05078125,-0.99664307,0.109558105,-1.53125,-0.953125,0.359375,456
367,1696242852371,-0.04638672,-0.9751587,0.1408081,-0.53125,-0.171875,-0.125,457
368,1696242852411,-0.0546875,-0.9963989,0.14105225,1.234375,-0.09375,0.828125,458
369,1696242852451,-0.052978516,-0.97979736,0.13543701,0.15625,-0.34375,0.0625,459
370,1696242852491,-0.055664062,-0.9890747,0.13543701,-0.125,-0.328125,0.4375,460
371,1696242852531,-0.053466797,-0.98565674,0.15350342,1.75,-0.15625,0.6875,461
372,1696242852571,-0.049072266,-0.987854,0.12640381,0.0625,-0.5,0.0,462
373,1696242852611,-0.0546875,-0.98101807,0.1329956,-0.21875,-0.4375,0.0625,463
374,1696242852651,-0.050048828,-0.98443604,0.137146,0.765625,0.03125,0.234375,464
375,1696242852691,-0.05053711,-0.98687744,0.13006592,0.546875,-0.078125,0.328125,465
376,1696242852731,-0.053222656,-0.9837036,0.13494873,0.5,-0.53125,0.28125,466
377,1696242852771,-0.053710938,-0.991272,0.13494873,0.703125,-0.359375,0.578125,467
378,1696242852811,-0.053466797,-0.9871216,0.12860107,0.6875,-0.125,0.234375,468
379,1696242852851,-0.04345703,-0.98321533,0.12200928,0.828125,-0.28125,0.53125,469
380,1696242852891,-0.044433594,-0.9819946,0.13104248,0.65625,-0.28125,0.328125,470
381,1696242852931,-0.05053711,-0.98028564,0.12982178,0.578125,-0.0625,0.671875,471
382,1696242852971,-0.055419922,-0.98101807,0.13250732,0.84375,-0.40625,0.484375,472
383,1696242853011,-0.032958984,-0.98516846,0.11444092,1.40625,0.765625,0.65625,473
384,1696242853051,-0.046142578,-1.0012817,0.11859131,7.09375,-1.25,1.109375,474
385,1696242853091,-0.032714844,-0.97369385,0.101745605,0.265625,1.21875,0.25,475
386,1696242853131,-0.060546875,-0.9834595,0.12347412,2.625,0.484375,0.84375,476
387,1696242853171,-0.05419922,-1.0015259,0.11395264,1.484375,0.125,0.71875,477
388,1696242853211,-0.04248047,-0.987854,0.10418701,1.03125,0.0625,0.4375,478
389,1696242853251,-0.05029297,-0.9846802,0.10076904,0.234375,-0.078125,0.53125,479
390,1696242853291,-0.043701172,-0.99542236,0.09466553,0.3125,0.046875,0.71875,480
391,1696242853331,-0.037109375,-0.9924927,0.09539795,-0.0625,-0.375,0.203125,481
392,1696242853371,-0.041015625,-0.98809814,0.10272217,2.875,0.0,0.546875,482
393,1696242853411,-0.041748047,-0.9834595,0.09490967,2.46875,-0.203125,0.828125,483
394,1696242853451,-0.041503906,-0.98638916,0.0993042,1.265625,-0.296875,0.8125,484
395,1696242853491,-0.04272461,-0.99053955,0.098083496,1.671875,-0.515625,0.46875,485
396,1696242853531,-0.037109375,-0.987854,0.08856201,0.6875,-0.421875,0.421875,486
397,1696242853571,-0.035888672,-0.9819946,0.082214355,0.640625,-0.3125,0.375,487
398,1696242853611,-0.034423828,-0.9871216,0.09197998,0.484375,-0.40625,0.234375,488
399,1696242853651,-0.041503906,-0.99224854,0.093688965,0.90625,-0.515625,0.546875,489
400,1696242853691,-0.046875,-0.9890747,0.09075928,0.484375,-0.640625,0.34375,490
401,1696242853731,-0.039794922,-0.9834595,0.08880615,0.234375,-0.515625,0.53125,491
402,1696242853771,-0.039794922,-0.9841919,0.06781006,0.140625,-0.171875,0.453125,492
403,1696242853811,-0.037841797,-0.9956665,0.09515381,2.671875,-1.25,0.9375,493
404,1696242853851,-0.02709961,-0.98516846,0.06756592,-1.90625,0.09375,-0.109375,494
405,1696242853891,-0.05029297,-0.98687744,0.09906006,0.671875,0.578125,0.6875,495
406,1696242853931,-0.03930664,-0.9981079,0.08074951,0.328125,0.109375,0.625,496
407,1696242853971,-0.035888672,-0.9819946,0.08685303,-0.421875,-0.265625,0.5,497
408,1696242854011,-0.041503906,-0.991272,0.07928467,-0.921875,-0.65625,0.421875,498
409,1696242854051,-0.028564453,-0.9907837,0.08392334,-0.28125,-0.375,0.265625,499
410,1696242854091,-0.030029297,-0.9907837,0.08294678,-1.140625,-0.984375,0.125,500
411,1696242854131,-0.03540039,-0.9927368,0.08929443,0.046875,-0.59375,0.421875,501
412,1696242854171,-0.036865234,-0.98931885,0.08416748,0.0625,-0.921875,0.1875,502
413,1696242854211,-0.036376953,-0.9907837,0.08514404,-0.0625,-0.875,0.140625,503
414,1696242854251,-0.033935547,-0.9915161,0.09075928,-0.09375,-0.703125,0.265625,504
415,1696242854291,-0.036865234,-0.98760986,0.086364746,-0.34375,-0.578125,0.265625,505
416,1696242854331,-0.032958984,-0.9902954,0.0836792,-0.109375,-0.53125,0.125,506
417,1696242854371,-0.035888672,-0.9846802,0.086364746,-0.28125,-0.6875,0.0625,507
418,1696242854411,-0.036376953,-0.989563,0.08758545,-0.5625,-0.640625,0.015625,508
419,1696242854451,-0.034423828,-0.989563,0.08758545,-0.953125,-1.046875,0.203125,509
420,1696242854491,-0.03881836,-0.99053955,0.089538574,-1.9375,-1.203125,-0.03125,510
421,1696242854531,-0.041259766,-1.0003052,0.09295654,-3.21875,-1.546875,-0.28125,511
422,1696242854571,-0.039794922,-0.9981079,0.08514404,-3.28125,-1.84375,-0.609375,512
423,1696242854611,-0.047607422,-0.98028564,0.124938965,-0.421875,-2.6875,-0.40625,513
424,1696242854651,-0.024414062,-0.9944458,0.078063965,-5.0,-1.34375,-0.515625,514
425,1696242854691,-0.056152344,-0.9763794,0.11199951,-1.28125,-0.484375,0.0625,515
426,1696242854731,-0.057861328,-1.0049438,0.10760498,-0.25,-0.96875,0.3125,516
427,1696242854771,-0.0390625,-0.98150635,0.10101318,-2.890625,-1.1875,-0.71875,517
428,1696242854811,-0.044677734,-0.9866333,0.117370605,-2.34375,-0.953125,-0.015625,518
429,1696242854851,-0.043945312,-0.9939575,0.11834717,-1.25,-1.15625,0.03125,519
430,1696242854891,-0.03930664,-0.97540283,0.113708496,-2.21875,-0.6875,-0.40625,520
431,1696242854931,-0.048095703,-0.9819946,0.12640381,-1.5625,-0.859375,-0.375,521
432,1696242854971,-0.044189453,-0.9915161,0.11883545,-1.015625,-0.953125,-0.109375,522
433,1696242855011,-0.04736328,-0.98760986,0.12615967,-1.359375,-0.578125,-0.0625,523
434,1696242855051,-0.047851562,-0.9866333,0.12786865,-1.375,-0.421875,-0.171875,524
435,1696242855091,-0.052246094,-0.9834595,0.12322998,-1.484375,-0.609375,-0.1875,525
436,1696242855131,-0.048095703,-0.98809814,0.12762451,-1.484375,-0.4375,-0.171875,526
437,1696242855171,-0.052001953,-0.98028564,0.13104248,-1.359375,-0.109375,-0.40625,527
438,1696242855211,-0.048583984,-0.98760986,0.13104248,-1.375,-0.140625,-0.34375,528
439,1696242855251,-0.04345703,-0.98321533,0.13739014,-1.125,-0.390625,-0.03125,529
440,1696242855291,-0.049072266,-0.9829712,0.14837646,-0.703125,-0.53125,0.25,530
441,1696242855331,-0.047607422,-0.97906494,0.13201904,-1.0,-0.8125,0.25,531
442,1696242855371,-0.05126953,-0.987854,0.12200928,-1.75,-0.6875,-0.015625,532
443,1696242855411,-0.052978516,-0.98223877,0.15350342,2.015625,-0.75,0.34375,533
444,1696242855451,-0.041259766,-0.9805298,0.101989746,-3.671875,0.078125,-0.5625,534
445,1696242855491,-0.064941406,-0.9915161,0.1515503,0.359375,-0.8125,0.40625,535
446,1696242855531,-0.04663086,-0.9829712,0.13006592,0.34375,-0.015625,0.046875,536
447,1696242855571,-0.04638672,-0.975647,0.13739014,-0.703125,0.203125,-0.375,537
448,1696242855611,-0.057617188,-0.9927368,0.13690186,0.359375,-0.421875,0.15625,538
449,1696242855651,-0.05444336,-0.99005127,0.14178467,0.484375,-0.4375,0.15625,539
450,1696242855691,-0.046142578,-0.9763794,0.1395874,-0.1875,-0.46875,0.125,540
451,1696242855731,-0.05810547,-0.9807739,0.1383667,-0.21875,-0.546875,0.3125,541
452,1696242855771,-0.059570312,-0.98687744,0.14154053,0.265625,-0.78125,0.484375,542
453,1696242855811,-0.045654297,-0.97979736,0.13983154,0.125,-0.734375,0.65625,543
454,1696242855851,-0.053955078,-0.9854126,0.14471436,0.28125,-0.78125,0.6875,544
455,1696242855891,-0.052001953,-0.98809814,0.13983154,0.015625,-0.671875,0.296875,545
456,1696242855931,-0.049804688,-0.97979736,0.13446045,0.140625,-0.5,0.359375,546
457,1696242855971,-0.049560547,-0.98321533,0.13812256,0.453125,-0.484375,0.203125,547
458,1696242856011,-0.043945312,-0.9795532,0.13470459,0.53125,-0.5,0.28125,548
459,1696242856051,-0.052001953,-0.9883423,0.1437378,0.671875,-0.234375,0.328125,549
460,1696242856091,-0.05517578,-0.987854,0.13250732,-0.171875,-0.21875,0.234375,550
461,1696242856131,-0.05444336,-0.9944458,0.12420654,0.234375,-0.125,0.375,551
462,1696242856171,-0.060791016,-0.97540283,0.15960693,2.859375,-0.171875,0.375,552
463,1696242856211,-0.048583984,-0.9890747,0.11444092,-1.609375,0.21875,0.25,553
464,1696242856251,-0.051757812,-0.97857666,0.14178467,-0.09375,0.125,-0.0625,554
465,1696242856291,-0.04711914,-0.9993286,0.13934326,2.21875,0.03125,0.734375,555
466,1696242856331,-0.041015625,-0.9846802,0.13104248,1.140625,0.0,0.171875,556
467,1696242856371,-0.04638672,-0.98760986,0.12762451,1.359375,-0.21875,0.8125,557
468,1696242856411,-0.052490234,-0.99005127,0.13616943,2.5,-0.140625,1.046875,558
469,1696242856451,-0.041259766,-0.9824829,0.12860107,0.734375,-0.0625,0.859375,559
470,1696242856491,-0.05126953,-0.98516846,0.12640381,0.6875,-0.515625,0.25,560
471,1696242856531,-0.04321289,-0.9915161,0.12762451,1.578125,-0.28125,0.890625,561
472,1696242856571,-0.040771484,-0.97979736,0.11248779,2.125,-0.140625,0.78125,562
473,1696242856611,-0.040283203,-0.989563,0.11785889,2.296875,-0.125,1.015625,563
474,1696242856651,-0.045410156,-0.98809814,0.11224365,1.390625,-0.0625,0.6875,564
475,1696242856691,-0.045410156,-0.9859009,0.11029053,0.8125,0.21875,0.703125,565
476,1696242856731,-0.04272461,-0.9898071,0.109069824,0.953125,0.21875,0.65625,566
477,1696242856771,-0.041748047,-0.9873657,0.10784912,0.421875,0.125,0.59375,567
478,1696242856811,-0.026855469,-0.98565674,0.10858154,0.859375,0.328125,0.609375,568
479,1696242856851,-0.036865234,-0.98638916,0.112976074,1.15625,0.40625,0.8125,569
480,1696242856891,-0.041992188,-0.99713135,0.1005249,4.078125,-0.453125,1.03125,570
481,1696242856931,-0.023925781,-0.973938,0.10394287,1.640625,0.140625,0.328125,571
482,1696242856971,-0.045654297,-0.99176025,0.09051514,2.125,-0.234375,1.515625,572
483,1696242857011,-0.036376953,-0.9751587,0.0848999,-0.03125,0.609375,0.171875,573
484,1696242857051,-0.038330078,-0.9990845,0.10418701,3.1875,0.859375,1.078125,574
485,1696242857091,-0.037597656,-0.9885864,0.08880615,1.28125,0.203125,0.484375,575
486,1696242857131,-0.029541016,-0.9920044,0.093688965,0.6875,0.109375,0.640625,576
487,1696242857171,-0.03125,-0.99053955,0.08856201,-0.21875,0.109375,0.5625,577
488,1696242857211,-0.028076172,-0.99176025,0.0836792,0.4375,0.265625,0.765625,578
489,1696242857251,-0.028808594,-0.9854126,0.082214355,-0.90625,-0.34375,0.40625,579
490,1696242857291,-0.030273438,-0.9829712,0.08905029,0.90625,0.25,0.828125,580
491,1696242857331,-0.03149414,-0.9961548,0.086120605,1.484375,0.5,0.71875,581
492,1696242857371,-0.03100586,-0.98638916,0.09222412,0.890625,0.5,0.546875,582
493,1696242857411,-0.025634766,-0.9890747,0.07684326,1.015625,0.546875,0.625,583
494,1696242857451,-0.028320312,-0.99468994,0.082214355,1.265625,0.34375,0.640625,584
495,1696242857491,-0.026611328,-0.99420166,0.08319092,1.109375,0.390625,0.3125,585
496,1696242857531,-0.026611328,-0.9885864,0.078063965,0.84375,-0.109375,0.390625,586
497,1696242857571,-0.022460938,-0.9837036,0.07879639,0.6875,-0.078125,0.359375,587
498,1696242857611,-0.026611328,-0.99176025,0.07733154,0.53125,-0.21875,0.484375,588
499,1696242857651,-0.03149414,-0.99298096,0.07171631,0.703125,-0.125,0.375,589
500,1696242857691,-0.024414062,-0.99346924,0.06951904,0.296875,-0.34375,0.3125,590
501,1696242857731,-0.03100586,-0.97662354,0.08929443,1.875,-0.4375,0.203125,591
502,1696242857771,-0.026367188,-0.9968872,0.058288574,-1.3125,-0.28125,0.171875,592
503,1696242857811,-0.028564453,-0.98516846,0.08538818,-0.84375,-1.015625,-0.484375,593
504,1696242857851,-0.03540039,-0.9990845,0.07293701,-0.453125,-1.203125,0.015625,594
505,1696242857891,-0.028320312,-0.9859009,0.08026123,-2.3125,-1.640625,-0.703125,595
506,1696242857931,-0.030273438,-0.98150635,0.085876465,-3.453125,-1.6875,-0.40625,596
507,1696242857971,-0.030761719,-0.98760986,0.09515381,-2.78125,-2.40625,-0.484375,597
508,1696242858011,-0.030517578,-0.9915161,0.094177246,-3.625,-1.9375,-0.765625,598
509,1696242858051,-0.04663086,-0.98931885,0.097351074,-4.125,-2.046875,-1.28125,599
510,1696242858091,-0.038330078,-0.9873657,0.105651855,-2.734375,-1.75,-0.9375,600
511,1696242858131,-0.03564453,-0.9837036,0.10247803,-2.703125,-2.1875,-0.84375,601
512,1696242858171,-0.040039062,-0.99468994,0.11444092,-2.515625,-1.890625,-0.703125,602
513,1696242858211,-0.052001953,-0.98809814,0.11395264,-2.96875,-1.875,-0.828125,603
514,1696242858251,-0.03955078,-0.98443604,0.11444092,-2.515625,-0.828125,-0.625,604
515,1696242858291,-0.044677734,-0.98809814,0.12200928,-1.53125,-1.078125,-0.53125,605
516,1696242858331,-0.05078125,-0.9849243,0.12762451,-1.78125,-1.078125,-0.46875,606
517,1696242858371,-0.049072266,-0.9873657,0.1281128,-1.8125,-0.96875,-0.4375,607
518,1696242858411,-0.046142578,-0.9902954,0.12860107,-2.203125,-1.078125,-0.625,608
519,1696242858451,-0.043701172,-0.98223877,0.12298584,-2.328125,-1.25,-0.5625,609
520,1696242858491,-0.04638672,-0.9944458,0.12322998,-1.625,-1.078125,-0.578125,610
521,1696242858531,-0.051513672,-0.9751587,0.16009521,0.78125,-1.40625,-0.109375,611
522,1696242858571,-0.055664062,-0.9968872,0.10784912,-3.171875,-1.1875,-0.203125,612
523,1696242858611,-0.052490234,-0.9776001,0.14935303,-1.125,-0.4375,-0.1875,613
524,1696242858651,-0.060546875,-1.0037231,0.14300537,0.0,-0.25,0.703125,614
525,1696242858691,-0.052246094,-0.97857666,0.1281128,-1.6875,-1.234375,-0.0625,615
526,1696242858731,-0.051513672,-0.9812622,0.15350342,-1.46875,-1.140625,0.421875,616
527,1696242858771,-0.060791016,-0.9885864,0.152771,0.28125,-1.078125,1.0625,617
528,1696242858811,-0.03955078,-0.97979736,0.14031982,-0.375,-0.8125,1.15625,618
529,1696242858851,-0.055664062,-0.98028564,0.14471436,-0.703125,-1.28125,0.859375,619
530,1696242858891,-0.047607422,-0.989563,0.14324951,0.046875,-0.390625,1.078125,620
531,1696242858931,-0.049072266,-0.99176025,0.14105225,-0.375,-0.453125,0.5625,621
532,1696242858971,-0.046142578,-0.9859009,0.14691162,0.84375,0.0625,0.671875,622
533,1696242859011,-0.053466797,-0.9824829,0.14154053,1.5625,-0.328125,0.828125,623
534,1696242859051,-0.044189453,-0.9795532,0.14691162,1.875,0.125,0.53125,624
535,1696242859091,-0.044433594,-0.989563,0.13494873,0.828125,-0.625,0.515625,625
536,1696242859131,-0.049804688,-0.9807739,0.13470459,0.34375,0.015625,0.3125,626
537,1696242859171,-0.03930664,-0.98272705,0.13909912,-0.28125,-0.421875,0.125,627
538,1696242859211,-0.045898438,-0.9849243,0.13201904,0.59375,-0.40625,0.484375,628
539,1696242859251,-0.045898438,-0.97735596,0.1539917,0.15625,0.140625,0.0625,629
540,1696242859291,-0.048095703,-0.9902954,0.1071167,-1.203125,-1.09375,0.140625,630
541,1696242859331,-0.03955078,-0.97076416,0.15325928,-0.015625,0.0,-0.546875,631
542,1696242859371,-0.053466797,-0.9963989,0.14447021,0.890625,0.0,0.265625,632
543,1696242859411,-0.030761719,-0.975647,0.13201904,-0.328125,-0.03125,-0.4375,633
544,1696242859451,-0.042236328,-0.9841919,0.13787842,-0.265625,-0.296875,0.078125,634
545,1696242859491,-0.053955078,-0.9841919,0.15350342,0.796875,-0.390625,0.28125,635
546,1696242859531,-0.041503906,-0.9846802,0.137146,-0.03125,-0.234375,0.140625,636
547,1696242859571,-0.045410156,-0.9795532,0.13275146,-0.078125,-0.78125,0.171875,637
548,1696242859611,-0.051757812,-0.98883057,0.1329956,0.84375,-0.765625,0.1875,638
549,1696242859651,-0.045166016,-0.9885864,0.13372803,0.625,-0.71875,0.265625,639
550,1696242859691,-0.048095703,-0.9834595,0.1383667,0.4375,-1.265625,0.578125,640
551,1696242859731,-0.049804688,-0.98565674,0.13690186,1.28125,-1.53125,0.625,641
552,1696242859771,-0.045166016,-0.9829712,0.12176514,-0.015625,-1.796875,0.625,642
553,1696242859811,-0.047851562,-0.9841919,0.13079834,0.28125,-1.703125,0.609375,643
554,1696242859851,-0.053466797,-0.98101807,0.13421631,-0.09375,-1.828125,0.484375,644
555,1696242859891,-0.045654297,-0.98101807,0.14300537,1.421875,-1.65625,0.71875,645
556,1696242859931,-0.03955078,-0.9854126,0.13031006,-0.8125,-0.6875,0.28125,646
557,1696242859971,-0.051513672,-0.99420166,0.12982178,1.0625,-1.8125,1.015625,647
558,1696242860011,-0.031982422,-0.972229,0.12664795,-2.40625,-0.375,-0.34375,648
559,1696242860051,-0.052978516,-0.9932251,0.15325928,0.890625,-0.828125,0.734375,649
560,1696242860091,-0.052246094,-0.9841919,0.13446045,0.890625,-0.5625,0.578125,650
561,1696242860131,-0.03881836,-0.98223877,0.13470459,0.28125,-0.6875,0.609375,651
562,1696242860171,-0.045166016,-0.9837036,0.13348389,0.734375,-0.3125,0.984375,652
563,1696242860211,-0.04736328,-0.9920044,0.12908936,1.484375,-0.421875,0.90625,653
564,1696242860251,-0.045654297,-0.9873657,0.11053467,3.484375,-0.828125,0.75,654
565,1696242860291,-0.047851562,-0.9807739,0.1239624,2.671875,-0.25,0.78125,655
566,1696242860331,-0.045898438,-0.9866333,0.10687256,1.609375,-0.515625,0.90625,656
567,1696242860371,-0.03564453,-0.98321533,0.11810303,2.46875,-0.75,0.921875,657
568,1696242860411,-0.044433594,-0.989563,0.11810303,2.40625,0.28125,0.84375,658
569,1696242860451,-0.044677734,-0.9834595,0.10467529,3.1875,0.53125,0.546875,659
570,1696242860491,-0.036376953,-0.9817505,0.09832764,3.015625,0.1875,0.625,660
571,1696242860531,-0.03857422,-0.98638916,0.10223389,1.796875,-0.28125,0.734375,661
572,1696242860571,-0.038330078,-0.98931885,0.09442139,2.984375,0.09375,0.859375,662
573,1696242860611,-0.03466797,-0.9937134,0.089538574,3.5625,0.40625,1.0625,663
574,1696242860651,-0.041259766,-0.97906494,0.1005249,3.96875,-0.171875,0.734375,664
575,1696242860691,-0.033447266,-0.9873657,0.066345215,0.6875,0.21875,0.859375,665
576,1696242860731,-0.040527344,-0.98272705,0.078308105,3.390625,1.828125,0.609375,666
577,1696242860771,-0.033447266,-0.9963989,0.08929443,3.890625,1.78125,1.28125,667
578,1696242860811,-0.03173828,-0.9854126,0.073913574,2.328125,1.296875,0.546875,668
579,1696242860851,-0.02758789,-0.9902954,0.0680542,1.859375,1.234375,0.265625,669
580,1696242860891,-0.024414062,-0.99102783,0.06585693,2.875,1.59375,0.484375,670
581,1696242860931,-0.028564453,-0.9927368,0.062683105,2.171875,1.390625,0.265625,671
582,1696242860971,-0.028564453,-0.9873657,0.054626465,2.484375,0.828125,0.25,672
583,1696242861011,-0.01586914,-0.99176025,0.047790527,4.703125,0.65625,0.6875,673
584,1696242861051,-0.028320312,-0.99176025,0.046325684,3.328125,0.140625,0.671875,674
585,1696242861091,-0.028808594,-0.989563,0.04168701,2.6875,0.171875,0.9375,675
586,1696242861131,-0.025146484,-0.9898071,0.043395996,1.453125,0.234375,0.6875,676
587,1696242861171,-0.024414062,-0.98883057,0.038757324,0.4375,-0.21875,0.515625,677
588,1696242861211,-0.025878906,-0.99420166,0.038757324,0.90625,-0.125,0.375,678
589,1696242861251,-0.02758789,-0.99005127,0.043640137,0.84375,0.03125,0.078125,679
590,1696242861291,-0.025878906,-0.98931885,0.035583496,0.53125,-0.109375,0.46875,680
591,1696242861331,-0.024658203,-0.9871216,0.03289795,1.15625,-0.609375,0.84375,681
592,1696242861371,-0.01928711,-0.9783325,0.043640137,0.984375,0.359375,0.296875,682
593,1696242861411,-0.02709961,-0.9924927,0.023376465,0.984375,0.078125,0.90625,683
594,1696242861451,-0.016113281,-0.98272705,0.029724121,-1.171875,0.375,0.015625,684
595,1696242861491,-0.033935547,-0.9981079,0.039001465,0.8125,-0.078125,0.984375,685
596,1696242861531,-0.025878906,-0.99835205,0.027038574,0.3125,0.59375,0.25,686
597,1696242861571,-0.025146484,-0.98150635,0.034362793,0.078125,0.296875,0.578125,687
598,1696242861611,-0.026123047,-0.9924927,0.038269043,0.375,0.078125,0.421875,688
599,1696242861651,-0.017089844,-0.98443604,0.03338623,-0.0625,0.515625,0.296875,689
600,1696242861691,-0.022949219,-0.98223877,0.029968262,-1.421875,-0.390625,-0.109375,690
601,1696242861731,-0.021240234,-0.98760986,0.036071777,-0.8125,-0.625,0.03125,691
602,1696242861771,-0.024414062,-0.9963989,0.035339355,-1.40625,-1.1875,0.03125,692
603,1696242861811,-0.018554688,-0.9915161,0.042663574,-3.625,-1.859375,-0.15625,693
604,1696242861851,-0.018554688,-0.9793091,0.04901123,-6.40625,-2.515625,-0.421875,694
605,1696242861891,-0.02368164,-0.97979736,0.053894043,-6.203125,-3.609375,-0.578125,695
606,1696242861931,-0.015625,-0.9998169,0.05731201,-3.265625,-3.84375,-0.890625,696
607,1696242861971,-0.034179688,-0.9885864,0.062683105,-3.46875,-4.640625,-1.375,697
608,1696242862011,-0.037597656,-0.9873657,0.06854248,-4.9375,-4.109375,-0.84375,698
609,1696242862051,-0.033447266,-0.991272,0.08001709,-7.0,-3.21875,-1.125,699
610,1696242862091,-0.030517578,-0.9795532,0.08734131,-6.515625,-2.578125,-0.796875,700
611,1696242862131,-0.037597656,-0.9998169,0.09466553,-3.78125,-2.59375,-0.640625,701
612,1696242862171,-0.043945312,-0.9758911,0.11199951,-2.578125,-1.265625,-1.078125,702
613,1696242862211,-0.037353516,-0.9985962,0.08270264,-4.9375,-1.28125,-1.0,703
614,1696242862251,-0.032714844,-0.97442627,0.10784912,-4.890625,-1.125,-1.734375,704
615,1696242862291,-0.049560547,-0.9976196,0.12298584,-1.484375,-0.890625,-0.171875,705
616,1696242862331,-0.046142578,-0.9859009,0.117126465,-2.265625,-0.984375,-1.234375,706
617,1696242862371,-0.04248047,-0.9807739,0.124938965,-2.671875,-0.796875,-0.6875,707
618,1696242862411,-0.055419922,-0.9883423,0.14324951,-1.9375,-0.65625,-0.34375,708
619,1696242862451,-0.03881836,-0.98638916,0.12664795,-2.234375,-0.828125,-0.3125,709
620,1696242862491,-0.05102539,-0.9788208,0.13275146,-1.3125,-0.78125,-0.203125,710
621,1696242862531,-0.0546875,-0.9890747,0.13446045,0.84375,0.46875,0.359375,711
622,1696242862571,-0.05834961,-0.9829712,0.13665771,1.953125,0.453125,0.265625,712
623,1696242862611,-0.05834961,-0.98150635,0.1305542,3.265625,0.4375,0.28125,713
624,1696242862651,-0.043701172,-0.98272705,0.10687256,1.625,0.703125,0.171875,714
625,1696242862691,-0.044921875,-0.98394775,0.12591553,0.984375,0.6875,-0.0625,715
626,1696242862731,-0.048339844,-0.989563,0.1239624,0.703125,0.71875,-0.359375,716
627,1696242862771,-0.05029297,-0.9824829,0.11175537,0.453125,-0.046875,0.03125,717
628,1696242862811,-0.051513672,-0.9885864,0.11273193,0.15625,0.34375,0.03125,718
629,1696242862851,-0.051513672,-0.9829712,0.12054443,-0.203125,0.046875,0.046875,719
630,1696242862891,-0.056396484,-0.9812622,0.1281128,-0.171875,-0.3125,0.109375,720
631,1696242862931,-0.04296875,-0.9793091,0.124938965,-1.65625,0.3125,-0.140625,721
632,1696242862971,-0.04736328,-0.98931885,0.11126709,0.40625,-1.59375,0.625,722
633,1696242863011,-0.03857422,-0.97198486,0.1149292,-3.84375,0.28125,-0.25,723
634,1696242863051,-0.057861328,-0.9834595,0.1395874,-0.078125,-0.765625,0.6875,724
635,1696242863091,-0.04321289,-0.9758911,0.11541748,-0.828125,-0.8125,0.15625,725
636,1696242863131,-0.044921875,-0.97857666,0.12445068,-0.984375,-0.40625,0.21875,726
637,1696242863171,-0.05053711,-0.9871216,0.12689209,-0.0625,-0.03125,0.265625,727
638,1696242863211,-0.056640625,-0.9873657,0.11907959,0.0625,-0.21875,0.5,728
639,1696242863251,-0.046142578,-0.97979736,0.1305542,0.03125,-0.34375,0.03125,729
640,1696242863291,-0.05908203,-0.98565674,0.13494873,0.09375,-0.421875,0.3125,730
641,1696242863331,-0.049804688,-0.9859009,0.13079834,0.46875,-0.78125,0.265625,731
642,1696242863371,-0.046875,-0.9807739,0.124694824,-0.1875,-0.6875,0.390625,732
643,1696242863411,-0.044189453,-0.99053955,0.13104248,-0.21875,-0.703125,0.21875,733
644,1696242863451,-0.05493164,-0.98223877,0.12786865,-0.375,-0.65625,0.46875,734
645,1696242863491,-0.049316406,-0.9841919,0.13104248,-0.140625,-0.6875,0.28125,735
646,1696242863531,-0.050048828,-0.9883423,0.13323975,-0.203125,-0.984375,0.421875,736
647,1696242863571,-0.04296875,-0.9854126,0.12713623,-0.046875,-0.828125,0.5,737
648,1696242863611,-0.048339844,-0.98565674,0.121276855,-0.78125,-1.0,0.375,738
649,1696242863651,-0.045898438,-0.986145,0.11541748,-1.78125,-0.71875,0.28125,739
650,1696242863691,-0.052001953,-0.98150635,0.1539917,2.125,-1.625,0.625,740
651,1696242863731,-0.037841797,-0.99005127,0.10736084,-3.828125,-0.28125,0.109375,741
652,1696242863771,-0.052734375,-0.97540283,0.13323975,-0.71875,-1.171875,0.171875,742
653,1696242863811,-0.049316406,-0.9944458,0.13519287,1.953125,-0.125,0.71875,743
654,1696242863851,-0.040039062,-0.9837036,0.13250732,0.15625,-0.59375,0.390625,744
655,1696242863891,-0.036376953,-0.986145,0.12982178,1.421875,-0.0625,1.03125,745
656,1696242863931,-0.047607422,-0.9956665,0.12567139,1.890625,0.375,1.0625,746
657,1696242863971,-0.048339844,-0.98565674,0.121276855,0.234375,0.40625,0.75,747
658,1696242864011,-0.049316406,-0.9795532,0.12615967,1.65625,0.328125,0.859375,748
659,1696242864051,-0.03564453,-0.98272705,0.12322998,1.484375,0.0,0.875,749
660,1696242864091,-0.043701172,-0.9805298,0.121032715,1.109375,-0.15625,0.796875,750
661,1696242864131,-0.044677734,-0.989563,0.12298584,1.796875,0.125,0.765625,751
662,1696242864171,-0.041748047,-0.98443604,0.113708496,1.671875,-0.21875,0.46875,752
663,1696242864211,-0.040039062,-0.989563,0.11566162,1.0625,-0.390625,0.578125,753
664,1696242864251,-0.041503906,-0.991272,0.11395264,1.15625,-0.09375,0.203125,754
665,1696242864291,-0.0390625,-0.99102783,0.10736084,1.34375,-0.140625,0.359375,755
666,1696242864331,-0.05078125,-0.9824829,0.11224365,1.859375,0.078125,0.703125,756
667,1696242864371,-0.0390625,-0.9837036,0.11029053,1.953125,0.125,0.546875,757
668,1696242864411,-0.03173828,-0.98443604,0.09539795,1.34375,0.578125,0.578125,758
669,1696242864451,-0.049316406,-0.989563,0.11444092,4.34375,-0.453125,1.125,759
670,1696242864491,-0.01977539,-0.9898071,0.0758667,1.109375,1.8125,0.5625,760
671,1696242864531,-0.03881836,-0.97491455,0.09686279,3.578125,1.125,0.796875,761
672,1696242864571,-0.041503906,-0.9981079,0.09954834,3.5,0.53125,1.203125,762
673,1696242864611,-0.032958984,-0.98809814,0.074645996,2.875,0.921875,0.421875,763
674,1696242864651,-0.024658203,-0.9939575,0.07318115,2.40625,0.453125,0.859375,764
675,1696242864691,-0.028564453,-0.99176025,0.077819824,1.875,0.015625,1.03125,765
676,1696242864731,-0.029541016,-0.99102783,0.06756592,1.265625,0.40625,0.453125,766
677,1696242864771,-0.032226562,-0.9883423,0.07244873,1.0,0.171875,0.390625,767
678,1696242864811,-0.033935547,-0.99176025,0.07244873,0.453125,-0.171875,0.609375,768
679,1696242864851,-0.02734375,-0.99102783,0.07342529,-0.0625,-0.4375,0.375,769
680,1696242864891,-0.034423828,-0.99053955,0.07122803,0.21875,-0.515625,0.3125,770
681,1696242864931,-0.028564453,-0.9871216,0.06536865,0.734375,-0.296875,0.203125,771
682,1696242864971,-0.029541016,-0.98394775,0.07122803,1.0,0.296875,0.140625,772
683,1696242865011,-0.030761719,-0.98809814,0.06732178,0.46875,-0.140625,0.484375,773
684,1696242865051,-0.03100586,-0.9883423,0.066101074,0.546875,0.15625,0.328125,774
685,1696242865091,-0.028320312,-0.987854,0.059265137,1.140625,-0.140625,0.40625,775
686,1696242865131,-0.026611328,-0.98565674,0.06439209,0.828125,0.0625,0.3125,776
687,1696242865171,-0.028808594,-0.99176025,0.061950684,0.421875,-0.078125,0.640625,777
688,1696242865211,-0.032470703,-0.99468994,0.051452637,-0.4375,0.0625,0.296875,778
689,1696242865251,-0.033691406,-0.99420166,0.08074951,2.0,-0.5,0.765625,779
690,1696242865291,-0.024169922,-0.9883423,0.046325684,-2.078125,0.40625,0.015625,780
691,1696242865331,-0.029296875,-0.9859009,0.070739746,-0.015625,-0.609375,0.328125,781
692,1696242865371,-0.022216797,-1.0010376,0.06878662,-0.734375,-0.921875,0.421875,782
693,1696242865411,-0.029296875,-0.98516846,0.070007324,-1.953125,-1.046875,-0.140625,783
694,1696242865451,-0.030761719,-0.9920044,0.070251465,-2.640625,-1.53125,0.03125,784
695,1696242865491,-0.030029297,-0.9902954,0.07342529,-3.53125,-1.890625,0.015625,785
696,1696242865531,-0.026123047,-0.98516846,0.078552246,-3.75,-1.875,0.015625,786
697,1696242865571,-0.025878906,-0.98565674,0.0848999,-2.984375,-2.078125,-0.28125,787
698,1696242865611,-0.027832031,-0.98101807,0.08660889,-3.171875,-2.109375,-0.046875,788
699,1696242865651,-0.033447266,-0.9944458,0.090270996,-3.5625,-1.703125,0.28125,789
700,1696242865691,-0.024414062,-0.98809814,0.10003662,-2.953125,-1.921875,0.609375,790
701,1696242865731,-0.03100586,-0.9951782,0.10638428,-1.84375,-1.953125,0.671875,791
702,1696242865771,-0.03491211,-0.98565674,0.09979248,-1.0,-1.34375,0.40625,792
703,1696242865811,-0.029296875,-0.9834595,0.101989746,-0.890625,-1.078125,0.609375,793
704,1696242865851,-0.028320312,-0.98883057,0.10418701,-0.828125,-0.4375,0.421875,794
705,1696242865891,-0.032470703,-0.99468994,0.10101318,-1.15625,-0.546875,0.34375,795
706,1696242865931,-0.030273438,-0.9780884,0.10614014,-0.9375,-1.28125,0.203125,796
707,1696242865971,-0.03100586,-0.9849243,0.105163574,-1.140625,-0.34375,0.15625,797
708,1696242866011,-0.026611328,-0.98931885,0.101989746,-2.140625,-0.140625,-0.109375,798
709,1696242866051,-0.035888672,-0.98687744,0.1293335,1.15625,-0.75,0.453125,799
710,1696242866091,-0.02368164,-0.98809814,0.07952881,-4.46875,0.53125,-0.8125,800
711,1696242866131,-0.033935547,-0.9885864,0.13226318,-1.3125,-0.09375,0.109375,801
712,1696242866171,-0.02368164,-0.9902954,0.11444092,0.0625,0.21875,0.6875,802
713,1696242866211,-0.029541016,-0.9741821,0.109069824,-1.328125,-0.09375,0.109375,803
714,1696242866251,-0.029052734,-0.9951782,0.12249756,-0.9375,-0.359375,0.65625,804
715,1696242866291,-0.03125,-0.9920044,0.12347412,-0.4375,-0.21875,0.671875,805
716,1696242866331,-0.024414062,-0.98565674,0.11541748,-1.3125,-0.4375,0.28125,806
717,1696242866371,-0.031982422,-0.9915161,0.12445068,-1.25,-0.59375,0.390625,807
718,1696242866411,-0.02709961,-0.99468994,0.1239624,-1.75,-0.484375,0.390625,808
719,1696242866451,-0.030029297,-0.98150635,0.12347412,-2.703125,-0.375,-0.1875,809
720,1696242866491,-0.033691406,-0.99542236,0.13665771,-1.046875,0.1875,-0.5,810
721,1696242866531,-0.037841797,-0.99005127,0.12957764,-0.375,0.921875,-0.21875,811
722,1696242866571,-0.021484375,-0.9768677,0.1293335,-0.171875,0.265625,-0.0625,812
723,1696242866611,-0.033203125,-0.98101807,0.1293335,-0.15625,-0.140625,-0.046875,813
724,1696242866651,-0.022460938,-0.99420166,0.13201904,-0.0625,-0.34375,0.203125,814
725,1696242866691,-0.021728516,-0.987854,0.13226318,0.046875,0.0,0.453125,815
726,1696242866731,-0.021728516,-0.9834595,0.13861084,1.296875,-0.5625,0.421875,816
727,1696242866771,-0.02758789,-0.97369385,0.14984131,0.359375,-0.125,0.484375,817
728,1696242866811,-0.030273438,-0.9915161,0.113464355,0.5625,-1.140625,0.78125,818
729,1696242866851,-0.020751953,-0.96710205,0.1383667,0.09375,0.09375,0.03125,819
730,1696242866891,-0.037597656,-0.99542236,0.1383667,0.859375,-0.640625,0.609375,820
731,1696242866931,-0.015380859,-0.9859009,0.11859131,0.109375,-0.328125,-0.25,821
732,1696242866971,-0.026367188,-0.9883423,0.12420654,0.109375,-0.125,-0.09375,822
733,1696242867011,-0.028564453,-0.9817505,0.13616943,0.53125,-0.21875,0.171875,823
734,1696242867051,-0.03125,-0.98883057,0.124694824,0.546875,-0.9375,0.125,824
735,1696242867091,-0.029785156,-0.98443604,0.1305542,0.53125,-0.5,0.09375,825
736,1696242867131,-0.040283203,-0.9837036,0.12615967,0.6875,-0.546875,0.125,826
737,1696242867171,-0.026611328,-0.98760986,0.121520996,0.8125,-0.578125,0.5,827
738,1696242867211,-0.033203125,-0.9866333,0.11932373,1.015625,-0.5,0.75,828
739,1696242867251,-0.03491211,-0.98565674,0.11932373,0.390625,-0.421875,0.59375,829
740,1696242867291,-0.029052734,-0.9902954,0.11663818,-0.015625,-0.671875,0.6875,830
741,1696242867331,-0.029541016,-0.99005127,0.12689209,0.046875,-0.09375,0.546875,831
742,1696242867371,-0.026123047,-0.98638916,0.12347412,0.453125,-0.09375,0.65625,832
743,1696242867411,-0.02734375,-0.98883057,0.12200928,0.328125,-0.53125,0.3125,833
744,1696242867451,-0.030029297,-0.9890747,0.10614014,-1.046875,-0.546875,0.03125,834
745,1696242867491,-0.03100586,-0.9805298,0.14178467,2.875,-0.984375,0.453125,835
746,1696242867531,-0.014892578,-0.9883423,0.08856201,-2.96875,0.140625,-0.265625,836
747,1696242867571,-0.032226562,-0.9885864,0.12420654,0.890625,-0.796875,0.234375,837
748,1696242867611,-0.029052734,-0.9898071,0.11102295,1.125,-0.234375,0.453125,838
749,1696242867651,-0.021972656,-0.9812622,0.11566162,-0.296875,-1.03125,-0.015625,839
750,1696242867691,-0.030029297,-0.99005127,0.113220215,-0.03125,-1.203125,0.703125,840
751,1696242867731,-0.030517578,-0.987854,0.12322998,1.015625,-0.21875,0.5625,841
752,1696242867771,-0.021728516,-0.98516846,0.109802246,-0.53125,-0.484375,0.328125,842
753,1696242867811,-0.025634766,-0.9812622,0.109069824,-1.1875,-0.828125,0.390625,843
754,1696242867851,-0.030517578,-0.9898071,0.11932373,0.640625,-1.0,0.484375,844
755,1696242867891,-0.03515625,-0.9849243,0.13079834,0.265625,-0.421875,0.40625,845
756,1696242867931,-0.037597656,-0.99005127,0.10662842,3.28125,-0.671875,0.328125,846
757,1696242867971,-0.020263672,-0.97320557,0.11102295,2.203125,0.125,0.375,847
758,1696242868011,-0.037353516,-0.9915161,0.11566162,0.9375,0.0625,0.6875,848
759,1696242868051,-0.021240234,-0.9932251,0.10223389,2.203125,0.34375,0.484375,849
