,timestamp,accel_x,accel_y,accel_z,gyro_x,gyro_y,gyro_z,ind
0,1696244890552,-0.75878906,-0.04156494,0.74749756,0.484375,-0.390625,0.265625,0
1,1696244890592,-0.75097656,-0.051086426,0.75115967,0.4375,-0.515625,0.453125,1
2,1696244890632,-0.75683594,-0.047424316,0.7579956,0.6875,-0.90625,0.484375,2
3,1696244890672,-0.75683594,-0.054504395,0.743103,-0.171875,-0.0625,0.40625,3
4,1696244890712,-0.7619629,-0.055725098,0.763855,0.15625,0.15625,0.6875,4
5,1696244890752,-0.74609375,-0.06304932,0.7509155,0.015625,-0.609375,0.078125,5
6,1696244890792,-0.7553711,-0.054260254,0.76068115,0.359375,-0.859375,0.375,6
7,1696244890832,-0.7561035,-0.051818848,0.75213623,-0.109375,-0.328125,0.390625,7
8,1696244890872,-0.7565918,-0.050354004,0.7523804,0.171875,-0.59375,0.3125,8
9,1696244890912,-0.7512207,-0.054748535,0.75164795,0.296875,-0.53125,0.453125,9
10,1696244890952,-0.75439453,-0.04937744,0.74212646,-0.3125,-0.703125,0.265625,10
11,1696244890992,-0.7487793,-0.054992676,0.7494507,-0.28125,-0.578125,0.25,11
12,1696244891032,-0.76293945,-0.06402588,0.7572632,0.4375,-0.296875,0.546875,12
13,1696244891072,-0.7351074,-0.058166504,0.74090576,-0.484375,0.296875,0.0625,13
14,1696244891112,-0.7573242,-0.055725098,0.7477417,-0.25,-0.515625,0.515625,14
15,1696244891152,-0.7570801,-0.04815674,0.75823975,0.421875,-0.40625,0.59375,15
16,1696244891192,-0.75805664,-0.05303955,0.746521,-0.015625,-0.515625,0.203125,16
17,1696244891232,-0.75390625,-0.062805176,0.7531128,-0.234375,-0.421875,-0.03125,17
18,1696244891272,-0.7558594,-0.038146973,0.74334717,0.0,-0.78125,0.046875,18
19,1696244891312,-0.7583008,-0.051574707,0.75579834,0.140625,-0.359375,0.640625,19
20,1696244891352,-0.76049805,-0.054260254,0.7609253,0.203125,-0.46875,0.28125,20
21,1696244891392,-0.74731445,-0.05279541,0.7399292,-0.75,-0.0625,0.15625,21
22,1696244891432,-0.7546387,-0.05279541,0.7584839,0.234375,-0.109375,0.46875,22
23,1696244891472,-0.7558594,-0.059387207,0.74993896,0.0,-0.828125,0.265625,23
24,1696244891512,-0.7553711,-0.047668457,0.7579956,0.1875,-1.046875,0.234375,24
25,1696244891552,-0.751709,-0.042785645,0.74432373,0.40625,-0.5,0.078125,25
26,1696244891592,-0.7546387,-0.054504395,0.7526245,0.0625,-0.359375,0.25,26
27,1696244891632,-0.7504883,-0.061828613,0.75164795,-0.046875,-0.203125,0.4375,27
28,1696244891672,-0.7468262,-0.059143066,0.7536011,-0.546875,0.015625,0.3125,28
29,1696244891712,-0.7507324,-0.054016113,0.7575073,-0.234375,-0.078125,0.4375,29
30,1696244891752,-0.7602539,-0.049621582,0.75775146,0.3125,-0.40625,0.578125,30
31,1696244891792,-0.7480469,-0.05718994,0.75408936,-0.3125,0.046875,-0.03125,31
32,1696244891832,-0.75219727,-0.0491333,0.75897217,0.296875,-0.796875,0.15625,32
33,1696244891872,-0.75390625,-0.04840088,0.7406616,-0.171875,0.34375,0.25,33
34,1696244891912,-0.75756836,-0.06451416,0.7692261,0.59375,-0.078125,0.40625,34
35,1696244891952,-0.7519531,-0.06866455,0.7506714,-0.078125,-0.5625,0.140625,35
36,1696244891992,-0.748291,-0.05206299,0.74993896,0.09375,-0.359375,0.09375,36
37,1696244892032,-0.7512207,-0.054504395,0.75286865,0.359375,-0.25,0.5625,37
38,1696244892072,-0.751709,-0.06109619,0.760437,0.171875,-0.421875,0.75,38
39,1696244892112,-0.74487305,-0.05645752,0.743103,-0.421875,-0.234375,0.296875,39
40,1696244892152,-0.7553711,-0.05230713,0.7592163,0.171875,0.125,0.328125,40
41,1696244892192,-0.751709,-0.06109619,0.75823975,0.25,-0.46875,0.359375,41
42,1696244892232,-0.7529297,-0.054992676,0.74749756,0.015625,-0.90625,0.3125,42
43,1696244892272,-0.7463379,-0.05206299,0.75579834,0.03125,-0.28125,0.1875,43
44,1696244892312,-0.75268555,-0.051574707,0.7584839,0.328125,-0.1875,0.328125,44
45,1696244892352,-0.74975586,-0.06768799,0.7518921,0.234375,-0.328125,0.25,45
46,1696244892392,-0.75634766,-0.051086426,0.7411499,-0.078125,-0.21875,0.21875,46
47,1696244892432,-0.7504883,-0.054260254,0.75897217,0.0625,-0.34375,0.3125,47
48,1696244892472,-0.75097656,-0.06011963,0.76361084,0.1875,-0.203125,0.421875,48
49,1696244892512,-0.7553711,-0.053527832,0.75775146,0.34375,-0.515625,0.203125,49
50,1696244892552,-0.7441406,-0.06402588,0.7543335,-0.15625,0.203125,0.046875,50
51,1696244892592,-0.74975586,-0.058898926,0.75775146,0.203125,-0.6875,0.34375,51
52,1696244892632,-0.7446289,-0.050842285,0.746521,0.078125,0.078125,0.296875,52
53,1696244892672,-0.75878906,-0.06817627,0.7665405,0.59375,-0.34375,0.40625,53
54,1696244892712,-0.74609375,-0.070617676,0.75164795,0.109375,-0.390625,0.15625,54
55,1696244892752,-0.7492676,-0.054260254,0.7501831,0.203125,-0.46875,0.15625,55
56,1696244892792,-0.7531738,-0.06304932,0.75994873,0.375,-0.1875,0.265625,56
57,1696244892832,-0.7504883,-0.0569458,0.75286865,0.15625,-0.4375,0.28125,57
58,1696244892872,-0.7441406,-0.06085205,0.75164795,-0.328125,-0.078125,0.25,58
59,1696244892912,-0.7475586,-0.05987549,0.75579834,0.109375,-0.03125,0.390625,59
60,1696244892952,-0.74853516,-0.06378174,0.75897217,0.015625,-0.53125,0.296875,60
61,1696244892992,-0.7487793,-0.054992676,0.75701904,-0.109375,-0.765625,0.234375,61
62,1696244893032,-0.7495117,-0.062072754,0.74676514,0.015625,-0.5625,0.1875,62
63,1696244893072,-0.74438477,-0.061584473,0.7653198,-0.390625,0.078125,0.3125,63
64,1696244893112,-0.75146484,-0.06719971,0.758728,-0.75,-0.03125,0.21875,64
65,1696244893152,-0.7458496,-0.0713501,0.75653076,-2.203125,0.53125,-0.03125,65
66,1696244893192,-0.75024414,-0.07330322,0.7831421,-2.140625,-0.515625,-0.625,66
67,1696244893232,-0.7512207,-0.059143066,0.75701904,-2.78125,-0.671875,-0.875,67
68,1696244893272,-0.7619629,-0.040100098,0.76727295,-1.953125,-1.125,-1.09375,68
69,1696244893312,-0.7429199,-0.04937744,0.7470093,-2.515625,-0.25,-1.609375,69
70,1696244893352,-0.7402344,-0.046936035,0.75408936,-2.140625,-0.90625,-1.078125,70
71,1696244893392,-0.7429199,-0.04156494,0.7514038,-0.75,-0.578125,-0.828125,71
72,1696244893432,-0.7487793,-0.040100098,0.7543335,-0.3125,-1.46875,-0.828125,72
73,1696244893472,-0.7392578,-0.028137207,0.73773193,-0.265625,-0.875,-0.296875,73
74,1696244893512,-0.76049805,-0.034240723,0.7592163,1.515625,-0.984375,0.5,74
75,1696244893552,-0.75219727,-0.045715332,0.7543335,2.265625,-1.640625,0.90625,75
76,1696244893592,-0.7504883,-0.04522705,0.7518921,1.71875,-1.359375,0.84375,76
77,1696244893632,-0.7570801,-0.055725098,0.75164795,0.53125,-0.90625,0.046875,77
78,1696244893672,-0.75268555,-0.039123535,0.76190186,0.578125,-0.453125,0.390625,78
79,1696244893712,-0.7548828,-0.04449463,0.76849365,0.828125,-0.921875,0.65625,79
80,1696244893752,-0.751709,-0.045715332,0.7614136,0.78125,-0.890625,0.484375,80
81,1696244893792,-0.75512695,-0.0491333,0.7536011,0.609375,-1.015625,0.515625,81
82,1696244893832,-0.7609863,-0.05230713,0.7526245,0.5625,-0.90625,0.40625,82
83,1696244893872,-0.7602539,-0.049865723,0.7514038,0.234375,-0.75,0.328125,83
84,1696244893912,-0.7614746,-0.046691895,0.74554443,0.125,-0.4375,0.234375,84
85,1696244893952,-0.7578125,-0.050354004,0.7572632,0.125,-0.125,0.390625,85
86,1696244893992,-0.7561035,-0.05987549,0.75897217,-0.09375,-0.359375,0.25,86
87,1696244894032,-0.7609863,-0.045959473,0.762146,0.015625,-0.859375,0.453125,87
88,1696244894072,-0.73706055,-0.04425049,0.7404175,-0.65625,0.125,0.46875,88
89,1696244894112,-0.7573242,-0.057922363,0.76678467,0.84375,-0.15625,0.65625,89
90,1696244894152,-0.7446289,-0.059631348,0.7523804,0.15625,-0.4375,0.140625,90
91,1696244894192,-0.7585449,-0.05328369,0.7489624,0.046875,-0.5,0.125,91
92,1696244894232,-0.7619629,-0.045959473,0.74823,0.296875,-0.421875,0.4375,92
93,1696244894272,-0.75097656,-0.0491333,0.7416382,0.046875,-0.171875,0.453125,93
94,1696244894312,-0.76293945,-0.058410645,0.75457764,0.359375,-0.59375,0.546875,94
95,1696244894352,-0.75024414,-0.04840088,0.74798584,-0.28125,0.09375,0.3125,95
96,1696244894392,-0.74560547,-0.05718994,0.7601929,0.203125,-0.0625,0.171875,96
97,1696244894432,-0.7507324,-0.06378174,0.7484741,-0.0625,-0.640625,0.203125,97
98,1696244894472,-0.7565918,-0.050598145,0.7506714,0.078125,-0.578125,0.3125,98
99,1696244894512,-0.751709,-0.046203613,0.744812,-0.109375,-0.171875,0.40625,99
100,1696244894552,-0.7578125,-0.057434082,0.7548218,0.203125,-0.296875,0.5,100
101,1696244894592,-0.7475586,-0.059631348,0.75164795,0.203125,-0.59375,0.359375,101
102,1696244894632,-0.7524414,-0.058166504,0.7526245,0.296875,-0.265625,0.234375,102
103,1696244894672,-0.75097656,-0.062316895,0.7560425,0.203125,-0.296875,0.390625,103
104,1696244894712,-0.7553711,-0.05596924,0.75286865,0.03125,-0.59375,0.390625,104
105,1696244894752,-0.76342773,-0.045959473,0.7665405,0.234375,-0.84375,0.8125,105
106,1696244894792,-0.73999023,-0.0413208,0.7369995,-0.828125,0.5,0.484375,106
107,1696244894832,-0.75927734,-0.06890869,0.7692261,0.75,-0.265625,0.609375,107
108,1696244894872,-0.74658203,-0.06402588,0.7548218,-0.109375,-0.40625,0.015625,108
109,1696244894912,-0.75146484,-0.061340332,0.7509155,-0.078125,-0.5,0.1875,109
110,1696244894952,-0.7541504,-0.05230713,0.75579834,0.421875,-0.375,0.265625,110
111,1696244894992,-0.7504883,-0.057922363,0.75286865,0.0,-0.34375,0.640625,111
112,1696244895032,-0.75390625,-0.059631348,0.7538452,0.21875,-0.5,0.296875,112
113,1696244895072,-0.7504883,-0.055480957,0.7555542,-0.09375,-0.140625,0.203125,113
114,1696244895112,-0.7463379,-0.054992676,0.7597046,0.328125,-0.421875,0.375,114
115,1696244895152,-0.74780273,-0.06036377,0.7518921,-0.109375,-0.796875,-0.03125,115
116,1696244895192,-0.75634766,-0.059143066,0.75823975,0.28125,-0.421875,0.375,116
117,1696244895232,-0.751709,-0.05621338,0.74090576,-0.1875,-0.390625,0.421875,117
118,1696244895272,-0.748291,-0.06573486,0.7472534,0.359375,-0.53125,0.28125,118
119,1696244895312,-0.74853516,-0.07159424,0.74920654,-0.203125,-0.109375,0.109375,119
120,1696244895352,-0.7524414,-0.0569458,0.7548218,-0.203125,-0.234375,0.28125,120
121,1696244895392,-0.7565918,-0.05670166,0.75946045,-0.078125,-0.5,0.203125,121
122,1696244895432,-0.75512695,-0.05328369,0.75994873,0.1875,-0.46875,0.203125,122
123,1696244895472,-0.75024414,-0.06060791,0.7526245,0.265625,-0.234375,0.4375,123
124,1696244895512,-0.75024414,-0.06060791,0.75335693,0.078125,-0.5625,0.3125,124
125,1696244895552,-0.748291,-0.06768799,0.7555542,-0.125,-0.28125,0.1875,125
126,1696244895592,-0.76342773,-0.06011963,0.7770386,0.328125,-1.09375,0.6875,126
127,1696244895632,-0.74072266,-0.049621582,0.73773193,-0.890625,0.46875,0.25,127
128,1696244895672,-0.7561035,-0.06378174,0.7650757,0.71875,-0.421875,0.46875,128
129,1696244895712,-0.74853516,-0.07989502,0.760437,-0.25,0.21875,0.078125,129
130,1696244895752,-0.73950195,-0.053771973,0.7445679,-1.875,0.4375,-0.203125,130
131,1696244895792,-0.7504883,-0.057434082,0.7662964,-1.09375,0.09375,-0.265625,131
132,1696244895832,-0.7480469,-0.058654785,0.7645874,-1.6875,-0.59375,-0.734375,132
133,1696244895872,-0.7470703,-0.057922363,0.76605225,-1.78125,-1.21875,-0.921875,133
134,1696244895912,-0.7451172,-0.038635254,0.7579956,-2.0625,-1.34375,-1.09375,134
135,1696244895952,-0.75219727,-0.04425049,0.76678467,-1.671875,-1.140625,-0.890625,135
136,1696244895992,-0.74560547,-0.055480957,0.75042725,-2.21875,-1.484375,-1.34375,136
137,1696244896032,-0.74780273,-0.03643799,0.73895264,-0.734375,-2.09375,-0.9375,137
138,1696244896072,-0.7475586,-0.028137207,0.74139404,-0.453125,-1.046875,-0.609375,138
139,1696244896112,-0.75341797,-0.035461426,0.7313843,0.140625,-0.640625,0.765625,139
140,1696244896152,-0.765625,-0.04815674,0.7560425,2.125,-0.890625,0.90625,140
141,1696244896192,-0.75512695,-0.04449463,0.74676514,1.828125,-1.09375,0.65625,141
142,1696244896232,-0.75439453,-0.036193848,0.73968506,1.078125,-0.5,0.484375,142
143,1696244896272,-0.7536621,-0.053771973,0.75653076,1.21875,-0.5,0.453125,143
144,1696244896312,-0.7487793,-0.04498291,0.75946045,0.5,-0.671875,0.328125,144
145,1696244896352,-0.75097656,-0.046691895,0.7494507,0.28125,-0.671875,0.359375,145
146,1696244896392,-0.7561035,-0.04522705,0.7601929,0.875,-0.65625,0.4375,146
147,1696244896432,-0.7363281,-0.058166504,0.73968506,-0.28125,0.078125,-0.03125,147
148,1696244896472,-0.76171875,-0.054504395,0.73724365,-0.171875,-0.71875,0.40625,148
149,1696244896512,-0.76293945,-0.04522705,0.75823975,0.3125,0.015625,0.734375,149
150,1696244896552,-0.7595215,-0.054992676,0.760437,0.5625,-0.25,0.234375,150
151,1696244896592,-0.75561523,-0.054748535,0.7531128,0.296875,-0.3125,0.3125,151
152,1696244896632,-0.7541504,-0.04449463,0.7484741,0.015625,-0.140625,0.03125,152
153,1696244896672,-0.7438965,-0.045715332,0.7501831,0.09375,-0.078125,0.15625,153
154,1696244896712,-0.7504883,-0.05645752,0.75994873,0.296875,-0.703125,0.484375,154
155,1696244896752,-0.74658203,-0.055480957,0.74554443,-0.28125,-0.796875,0.078125,155
156,1696244896792,-0.7614746,-0.05206299,0.7562866,0.296875,-0.53125,0.5625,156
157,1696244896832,-0.7602539,-0.06549072,0.7509155,0.125,-0.21875,0.375,157
158,1696244896872,-0.75927734,-0.057434082,0.75115967,0.109375,-0.875,0.109375,158
159,1696244896912,-0.7546387,-0.044006348,0.74334717,0.15625,-0.328125,0.078125,159
160,1696244896952,-0.7438965,-0.043518066,0.7560425,0.15625,-0.171875,0.203125,160
161,1696244896992,-0.7578125,-0.057434082,0.7494507,0.578125,-0.3125,0.453125,161
162,1696244897032,-0.7541504,-0.050842285,0.7562866,0.125,-0.203125,0.46875,162
163,1696244897072,-0.7553711,-0.058898926,0.7531128,-0.15625,-0.375,0.390625,163
164,1696244897112,-0.76123047,-0.051574707,0.75579834,0.28125,-0.671875,0.5625,164
165,1696244897152,-0.75512695,-0.053771973,0.74798584,-0.1875,-0.28125,0.375,165
166,1696244897192,-0.75805664,-0.05596924,0.76068115,0.125,-0.09375,0.28125,166
167,1696244897232,-0.74975586,-0.06036377,0.75897217,0.453125,-0.546875,0.375,167
168,1696244897272,-0.75,-0.057434082,0.746521,-0.25,-0.15625,0.109375,168
169,1696244897312,-0.7585449,-0.049621582,0.76434326,0.546875,-1.03125,0.546875,169
170,1696244897352,-0.73828125,-0.04840088,0.7367554,-0.75,0.3125,0.4375,170
171,1696244897392,-0.7619629,-0.065979004,0.7653198,0.71875,-0.4375,0.46875,171
172,1696244897432,-0.7512207,-0.06304932,0.7536011,-0.09375,-0.265625,0.328125,172
173,1696244897472,-0.7507324,-0.04815674,0.74505615,-0.09375,-0.5,0.28125,173
174,1696244897512,-0.7631836,-0.04937744,0.76068115,0.46875,-0.484375,0.375,174
175,1696244897552,-0.74243164,-0.06085205,0.7440796,0.109375,-0.34375,0.453125,175
176,1696244897592,-0.74902344,-0.059387207,0.7597046,-0.015625,-0.40625,0.15625,176
177,1696244897632,-0.75341797,-0.06011963,0.7472534,-0.46875,-0.25,0.4375,177
178,1696244897672,-0.75024414,-0.0635376,0.7597046,-0.125,-0.234375,0.140625,178
179,1696244897712,-0.7507324,-0.06378174,0.744812,-0.03125,-0.59375,0.140625,179
180,1696244897752,-0.7529297,-0.058410645,0.74993896,0.15625,-0.515625,0.34375,180
181,1696244897792,-0.7429199,-0.059387207,0.74432373,0.140625,-0.125,0.234375,181
182,1696244897832,-0.74780273,-0.059387207,0.7523804,0.109375,-0.28125,0.203125,182
183,1696244897872,-0.7561035,-0.059387207,0.7460327,0.046875,-0.5625,0.296875,183
184,1696244897912,-0.75341797,-0.058898926,0.7506714,0.03125,-0.125,0.3125,184
185,1696244897952,-0.751709,-0.05596924,0.75775146,0.203125,-0.359375,0.40625,185
186,1696244897992,-0.74560547,-0.06427002,0.7572632,0.15625,-0.171875,0.453125,186
187,1696244898032,-0.74609375,-0.05645752,0.7548218,0.0625,-0.734375,0.296875,187
188,1696244898072,-0.7531738,-0.058654785,0.75897217,0.203125,-0.4375,0.359375,188
189,1696244898112,-0.7524414,-0.057678223,0.758728,0.21875,-0.328125,0.296875,189
190,1696244898152,-0.75390625,-0.06939697,0.7506714,-0.125,-0.265625,0.296875,190
191,1696244898192,-0.7687988,-0.059143066,0.78460693,0.609375,-0.984375,0.671875,191
192,1696244898232,-0.73291016,-0.05230713,0.7382202,-0.9375,0.375,0.34375,192
193,1696244898272,-0.75878906,-0.06378174,0.7662964,0.5625,-0.40625,0.296875,193
194,1696244898312,-0.74316406,-0.06817627,0.75775146,0.203125,-0.3125,0.109375,194
195,1696244898352,-0.748291,-0.06011963,0.7523804,-0.140625,-0.453125,0.0625,195
196,1696244898392,-0.7553711,-0.05621338,0.7616577,0.71875,-0.375,0.234375,196
197,1696244898432,-0.7446289,-0.06060791,0.75286865,0.03125,-0.296875,0.296875,197
198,1696244898472,-0.7529297,-0.06842041,0.7665405,0.359375,-0.5625,0.265625,198
199,1696244898512,-0.74560547,-0.054260254,0.7609253,-0.21875,-0.15625,0.234375,199
200,1696244898552,-0.74609375,-0.06427002,0.7665405,-0.1875,-0.1875,0.1875,200
201,1696244898592,-0.748291,-0.06085205,0.75946045,-0.25,-0.546875,0.234375,201
202,1696244898632,-0.74438477,-0.06060791,0.7692261,-0.4375,0.0625,0.390625,202
203,1696244898672,-0.74316406,-0.06573486,0.7531128,-1.4375,0.96875,0.3125,203
204,1696244898712,-0.74902344,-0.058898926,0.7579956,-0.703125,0.109375,-0.046875,204
205,1696244898752,-0.7492676,-0.06036377,0.7687378,-1.125,-0.046875,-0.015625,205
206,1696244898792,-0.7507324,-0.062561035,0.7633667,-1.203125,-0.34375,-0.359375,206
207,1696244898832,-0.73779297,-0.053771973,0.75531006,-0.828125,-1.375,-0.53125,207
208,1696244898872,-0.7453613,-0.051330566,0.7584839,-1.25,-1.015625,-0.640625,208
209,1696244898912,-0.7512207,-0.051330566,0.7633667,-0.9375,-0.890625,-0.578125,209
210,1696244898952,-0.7468262,-0.054260254,0.76068115,-1.578125,-0.609375,-0.796875,210
211,1696244898992,-0.74975586,-0.04156494,0.75531006,-1.703125,-0.703125,-0.921875,211
212,1696244899032,-0.76293945,-0.0491333,0.7680054,-0.921875,-1.125,-0.609375,212
213,1696244899072,-0.7355957,-0.041809082,0.7494507,-2.21875,0.078125,-1.09375,213
214,1696244899112,-0.7512207,-0.035217285,0.74627686,-1.75,-0.1875,-0.609375,214
215,1696244899152,-0.751709,-0.045715332,0.76483154,-0.65625,-0.171875,-0.390625,215
216,1696244899192,-0.74609375,-0.046203613,0.7543335,-1.1875,-0.96875,-0.640625,216
217,1696244899232,-0.74658203,-0.03765869,0.7457886,-0.75,-1.015625,-0.78125,217
218,1696244899272,-0.7475586,-0.019104004,0.75335693,-0.171875,-0.921875,-0.21875,218
219,1696244899312,-0.74658203,-0.026672363,0.7460327,0.28125,-1.046875,0.21875,219
220,1696244899352,-0.76049805,-0.039123535,0.7614136,1.15625,-1.265625,0.84375,220
221,1696244899392,-0.7487793,-0.043518066,0.7496948,1.03125,-1.390625,0.84375,221
222,1696244899432,-0.7558594,-0.035217285,0.75579834,1.015625,-1.109375,0.6875,222
223,1696244899472,-0.7561035,-0.03692627,0.75775146,1.03125,-0.921875,0.578125,223
224,1696244899512,-0.7531738,-0.037902832,0.7699585,0.765625,-0.859375,0.6875,224
225,1696244899552,-0.7507324,-0.032287598,0.74139404,-0.28125,-0.484375,0.4375,225
226,1696244899592,-0.75,-0.042541504,0.7506714,0.015625,-0.328125,0.453125,226
227,1696244899632,-0.7546387,-0.041809082,0.7560425,0.078125,-0.390625,0.390625,227
228,1696244899672,-0.75512695,-0.047424316,0.7472534,0.0625,-0.34375,0.609375,228
229,1696244899712,-0.7512207,-0.04107666,0.7501831,0.59375,-0.609375,0.546875,229
230,1696244899752,-0.7541504,-0.03643799,0.76116943,0.546875,-0.484375,0.625,230
231,1696244899792,-0.75561523,-0.04864502,0.75335693,0.03125,-0.59375,0.453125,231
232,1696244899832,-0.7553711,-0.03277588,0.75286865,-0.109375,-0.625,0.375,232
233,1696244899872,-0.74487305,-0.039367676,0.75286865,0.109375,-0.375,0.375,233
234,1696244899912,-0.75512695,-0.043518066,0.7670288,0.75,-0.421875,0.71875,234
235,1696244899952,-0.7531738,-0.06085205,0.7548218,0.21875,-0.8125,0.140625,235
236,1696244899992,-0.7524414,-0.04864502,0.74505615,0.234375,-0.53125,0.203125,236
237,1696244900032,-0.75756836,-0.03326416,0.7484741,0.40625,-0.78125,0.21875,237
238,1696244900072,-0.75024414,-0.041809082,0.75579834,0.375,-0.515625,0.59375,238
239,1696244900112,-0.75683594,-0.047424316,0.75457764,0.484375,-1.0,0.5,239
240,1696244900152,-0.7531738,-0.045715332,0.7514038,-0.15625,-0.40625,0.5,240
241,1696244900192,-0.7602539,-0.05255127,0.76727295,0.34375,-0.296875,0.671875,241
242,1696244900232,-0.7519531,-0.049865723,0.75823975,-0.0625,-0.765625,0.1875,242
243,1696244900272,-0.75927734,-0.04473877,0.75701904,0.265625,-1.109375,0.28125,243
244,1696244900312,-0.7573242,-0.043518066,0.74383545,0.09375,-0.609375,0.078125,244
245,1696244900352,-0.75512695,-0.04156494,0.7477417,0.234375,-0.671875,0.296875,245
246,1696244900392,-0.7597656,-0.054992676,0.744812,-0.078125,-0.4375,0.609375,246
247,1696244900432,-0.75512695,-0.05328369,0.7543335,-0.328125,-0.078125,0.390625,247
248,1696244900472,-0.74731445,-0.04522705,0.75115967,-0.03125,-0.171875,0.203125,248
249,1696244900512,-0.7590332,-0.0569458,0.7626343,0.546875,-0.359375,0.453125,249
250,1696244900552,-0.7463379,-0.059143066,0.74261475,-0.453125,0.125,0.09375,250
251,1696244900592,-0.75341797,-0.046936035,0.75042725,-0.125,-0.625,0.375,251
252,1696244900632,-0.7504883,-0.04449463,0.7536011,0.28125,0.03125,0.625,252
253,1696244900672,-0.7583008,-0.061340332,0.7597046,0.453125,-0.421875,0.390625,253
254,1696244900712,-0.7524414,-0.06036377,0.75335693,0.234375,-0.65625,-0.015625,254
255,1696244900752,-0.76123047,-0.051086426,0.75701904,0.0,-0.578125,0.15625,255
256,1696244900792,-0.75268555,-0.04498291,0.74871826,0.09375,-0.46875,0.4375,256
257,1696244900832,-0.74731445,-0.046691895,0.74993896,0.109375,-0.375,0.5,257
258,1696244900872,-0.7487793,-0.05718994,0.74432373,-0.5,-0.28125,0.046875,258
259,1696244900912,-0.7507324,-0.043518066,0.7506714,-0.1875,-0.09375,0.265625,259
260,1696244900952,-0.75512695,-0.05670166,0.76434326,-0.046875,-0.171875,0.265625,260
261,1696244900992,-0.74975586,-0.055236816,0.74383545,-0.109375,-0.734375,0.34375,261
262,1696244901032,-0.75219727,-0.054260254,0.75164795,-0.03125,-0.484375,0.21875,262
263,1696244901072,-0.7536621,-0.05303955,0.74993896,0.15625,-0.34375,0.359375,263
264,1696244901112,-0.7495117,-0.055725098,0.7472534,-0.09375,-0.1875,0.390625,264
265,1696244901152,-0.7512207,-0.062072754,0.7572632,0.078125,-0.3125,0.265625,265
266,1696244901192,-0.74072266,-0.054992676,0.74627686,0.0625,-0.375,0.40625,266
267,1696244901232,-0.7607422,-0.058410645,0.7628784,0.609375,-0.359375,0.515625,267
268,1696244901272,-0.75634766,-0.053527832,0.75335693,0.375,-0.46875,0.5,268
269,1696244901312,-0.7558594,-0.05670166,0.7531128,0.453125,-0.078125,0.25,269
270,1696244901352,-0.75683594,-0.055236816,0.76068115,0.21875,-0.421875,0.484375,270
271,1696244901392,-0.7351074,-0.054016113,0.73431396,-0.96875,-0.15625,0.171875,271
272,1696244901432,-0.7614746,-0.054748535,0.76239014,0.65625,-0.4375,0.546875,272
273,1696244901472,-0.74560547,-0.065979004,0.7572632,0.4375,-0.21875,0.546875,273
274,1696244901512,-0.7458496,-0.062805176,0.7514038,0.203125,-0.40625,0.375,274
275,1696244901552,-0.75341797,-0.051574707,0.7477417,0.421875,-0.53125,0.234375,275
276,1696244901592,-0.7529297,-0.05645752,0.75335693,0.34375,-0.28125,0.296875,276
277,1696244901632,-0.75878906,-0.053771973,0.7567749,0.34375,-0.59375,0.515625,277
278,1696244901672,-0.75,-0.051086426,0.74432373,-0.3125,0.0625,0.5,278
279,1696244901712,-0.7463379,-0.058654785,0.7523804,-0.078125,-0.140625,0.4375,279
280,1696244901752,-0.76000977,-0.06036377,0.76239014,0.234375,-0.59375,0.34375,280
281,1696244901792,-0.7495117,-0.061828613,0.76239014,0.203125,-0.8125,0.359375,281
282,1696244901832,-0.75219727,-0.05255127,0.74505615,0.015625,-0.375,0.21875,282
283,1696244901872,-0.75097656,-0.058410645,0.7506714,0.1875,-0.5,0.359375,283
284,1696244901912,-0.7531738,-0.058166504,0.7548218,0.171875,-0.453125,0.25,284
285,1696244901952,-0.75390625,-0.057434082,0.75823975,0.046875,-0.4375,0.25,285
286,1696244901992,-0.7487793,-0.062072754,0.75286865,-0.03125,-0.390625,0.265625,286
287,1696244902032,-0.75756836,-0.059143066,0.75531006,0.21875,-0.375,0.125,287
288,1696244902072,-0.75097656,-0.05645752,0.7543335,-0.203125,-0.234375,0.359375,288
289,1696244902112,-0.75341797,-0.06500244,0.75823975,0.171875,-0.171875,0.53125,289
290,1696244902152,-0.74121094,-0.06085205,0.75775146,-0.21875,-0.15625,0.375,290
291,1696244902192,-0.75512695,-0.06060791,0.76068115,0.328125,-0.71875,0.203125,291
292,1696244902232,-0.74853516,-0.06378174,0.7575073,0.140625,-0.65625,0.21875,292
293,1696244902272,-0.7536621,-0.06109619,0.7548218,-0.140625,-0.140625,0.28125,293
294,1696244902312,-0.7553711,-0.054992676,0.77337646,0.59375,-1.171875,0.4375,294
295,1696244902352,-0.7363281,-0.054260254,0.7321167,-1.109375,0.171875,0.25,295
296,1696244902392,-0.7663574,-0.06402588,0.7653198,0.46875,-0.53125,0.375,296
297,1696244902432,-0.74853516,-0.07110596,0.758728,0.09375,-0.140625,0.375,297
298,1696244902472,-0.7470703,-0.058654785,0.74627686,-0.140625,-0.421875,0.046875,298
299,1696244902512,-0.7475586,-0.061340332,0.75701904,0.21875,-0.390625,0.21875,299
300,1696244902552,-0.75146484,-0.058654785,0.75775146,0.234375,-0.453125,0.515625,300
301,1696244902592,-0.7512207,-0.058410645,0.77459717,0.65625,-0.703125,0.46875,301
302,1696244902632,-0.75,-0.057678223,0.7579956,-0.03125,-0.375,0.15625,302
303,1696244902672,-0.74560547,-0.06378174,0.75115967,-0.21875,-0.265625,0.234375,303
304,1696244902712,-0.7512207,-0.0713501,0.76116943,-0.125,-0.5625,0.234375,304
305,1696244902752,-0.74975586,-0.06573486,0.7628784,0.09375,-0.515625,0.25,305
306,1696244902792,-0.7438965,-0.06036377,0.7523804,0.171875,-0.484375,0.21875,306
307,1696244902832,-0.7519531,-0.05718994,0.7567749,0.109375,-0.6875,0.203125,307
308,1696244902872,-0.74658203,-0.059387207,0.7523804,0.015625,-0.5625,0.28125,308
309,1696244902912,-0.75097656,-0.05670166,0.75286865,-0.03125,-0.546875,0.125,309
310,1696244902952,-0.7524414,-0.058166504,0.7526245,-0.015625,0.03125,0.4375,310
311,1696244902992,-0.7402344,-0.066223145,0.7550659,-0.046875,-0.09375,0.609375,311
312,1696244903032,-0.7492676,-0.059631348,0.76434326,0.28125,-0.515625,0.65625,312
313,1696244903072,-0.7504883,-0.06842041,0.75579834,-0.171875,-0.328125,0.328125,313
314,1696244903112,-0.7470703,-0.0647583,0.7543335,0.28125,-0.328125,0.421875,314
315,1696244903152,-0.7470703,-0.05596924,0.75579834,0.265625,-0.609375,0.6875,315
316,1696244903192,-0.7438965,-0.066467285,0.75994873,-0.46875,-0.203125,1.015625,316
317,1696244903232,-0.7565918,-0.05987549,0.7680054,0.296875,-1.078125,0.984375,317
318,1696244903272,-0.73095703,-0.058410645,0.73846436,-0.6875,0.21875,0.421875,318
319,1696244903312,-0.7597656,-0.06524658,0.7662964,0.59375,-0.03125,0.8125,319
320,1696244903352,-0.73828125,-0.07696533,0.7614136,0.375,-0.234375,0.734375,320
321,1696244903392,-0.7441406,-0.06500244,0.75213623,-0.109375,-0.484375,0.171875,321
322,1696244903432,-0.75512695,-0.066467285,0.75897217,0.109375,-0.375,0.34375,322
323,1696244903472,-0.7397461,-0.06719971,0.75946045,0.0625,-0.265625,0.59375,323
324,1696244903512,-0.74194336,-0.07159424,0.76556396,0.265625,-0.421875,0.34375,324
325,1696244903552,-0.74316406,-0.0647583,0.7694702,-1.390625,0.25,0.265625,325
326,1696244903592,-0.7429199,-0.081604004,0.774353,-1.890625,-0.1875,-0.203125,326
327,1696244903632,-0.7434082,-0.06793213,0.7626343,-2.078125,-1.90625,-1.421875,327
328,1696244903672,-0.73706055,-0.043762207,0.77337646,-1.515625,-1.5625,-0.96875,328
329,1696244903712,-0.7644043,-0.047180176,0.7572632,-0.921875,-2.046875,-0.59375,329
330,1696244903752,-0.75219727,-0.06500244,0.7562866,-1.171875,-2.0,-1.0625,330
331,1696244903792,-0.75146484,-0.05328369,0.73895264,-0.859375,-2.453125,-1.34375,331
332,1696244903832,-0.7541504,-0.049865723,0.74798584,-0.59375,-1.765625,-0.875,332
333,1696244903872,-0.75219727,-0.038391113,0.744812,-0.0625,-0.75,0.03125,333
334,1696244903912,-0.7565918,-0.04425049,0.7411499,0.8125,-0.828125,0.84375,334
335,1696244903952,-0.76123047,-0.054748535,0.74090576,1.53125,-0.390625,1.046875,335
336,1696244903992,-0.75512695,-0.059143066,0.75579834,2.1875,-0.953125,0.90625,336
337,1696244904032,-0.74853516,-0.06402588,0.7391968,1.359375,-1.234375,0.5,337
338,1696244904072,-0.76538086,-0.05206299,0.76605225,1.328125,-1.390625,0.453125,338
339,1696244904112,-0.73999023,-0.051818848,0.75164795,-0.203125,-0.03125,0.09375,339
340,1696244904152,-0.7541504,-0.06329346,0.7494507,-0.203125,-0.734375,0.40625,340
341,1696244904192,-0.7558594,-0.057678223,0.7453003,0.03125,-0.421875,0.40625,341
342,1696244904232,-0.75341797,-0.06793213,0.74627686,0.3125,-0.8125,0.234375,342
343,1696244904272,-0.7585449,-0.06817627,0.7526245,0.359375,-0.625,0.171875,343
344,1696244904312,-0.7602539,-0.05303955,0.73846436,0.3125,-0.5625,0.109375,344
345,1696244904352,-0.7614746,-0.051818848,0.7445679,0.5625,-0.34375,0.4375,345
346,1696244904392,-0.76293945,-0.062805176,0.74993896,0.234375,-0.34375,0.546875,346
347,1696244904432,-0.7583008,-0.06866455,0.7550659,-0.484375,-0.09375,0.265625,347
348,1696244904472,-0.7558594,-0.059387207,0.74432373,-0.296875,-0.015625,0.390625,348
349,1696244904512,-0.75341797,-0.06964111,0.7567749,0.203125,-0.53125,0.171875,349
350,1696244904552,-0.7546387,-0.059631348,0.7477417,-0.09375,-0.625,0.390625,350
351,1696244904592,-0.7561035,-0.058410645,0.7406616,0.21875,-0.609375,0.21875,351
352,1696244904632,-0.7590332,-0.054504395,0.7518921,0.21875,-0.390625,0.265625,352
353,1696244904672,-0.7583008,-0.066467285,0.7416382,-0.171875,-0.28125,0.296875,353
354,1696244904712,-0.75805664,-0.06304932,0.75579834,-0.125,-0.28125,0.265625,354
355,1696244904752,-0.75878906,-0.061340332,0.7496948,-0.21875,-0.203125,0.3125,355
356,1696244904792,-0.75683594,-0.05718994,0.74334717,0.171875,-0.21875,0.375,356
357,1696244904832,-0.74975586,-0.061584473,0.74920654,0.203125,-0.46875,0.421875,357
358,1696244904872,-0.7536621,-0.061584473,0.75531006,0.203125,-0.4375,0.546875,358
359,1696244904912,-0.7685547,-0.066711426,0.74627686,0.390625,-0.46875,0.578125,359
360,1696244904952,-0.7495117,-0.06451416,0.74261475,-0.734375,0.078125,-0.109375,360
361,1696244904992,-0.7648926,-0.06549072,0.7650757,0.328125,-0.796875,0.265625,361
362,1696244905032,-0.7470703,-0.058410645,0.73187256,-0.78125,0.46875,0.703125,362
363,1696244905072,-0.7651367,-0.06890869,0.74920654,0.375,-0.21875,0.484375,363
364,1696244905112,-0.74487305,-0.070129395,0.74334717,0.015625,-0.203125,0.078125,364
365,1696244905152,-0.7495117,-0.058654785,0.7411499,-0.15625,-0.46875,0.015625,365
366,1696244905192,-0.7619629,-0.061584473,0.7579956,0.28125,-0.3125,0.421875,366
367,1696244905232,-0.75146484,-0.062561035,0.7514038,0.1875,-0.171875,0.546875,367
368,1696244905272,-0.76293945,-0.070373535,0.76434326,0.40625,-0.5,0.453125,368
369,1696244905312,-0.7561035,-0.06011963,0.7404175,-0.3125,-0.296875,0.296875,369
370,1696244905352,-0.7524414,-0.065979004,0.75115967,-0.125,-0.109375,0.265625,370
371,1696244905392,-0.7602539,-0.07598877,0.7579956,-0.671875,-0.25,0.109375,371
372,1696244905432,-0.75805664,-0.06939697,0.7680054,-1.234375,0.09375,0.0625,372
373,1696244905472,-0.7446289,-0.06524658,0.7496948,-1.59375,-1.0,-0.625,373
374,1696244905512,-0.7541504,-0.0569458,0.7550659,-1.5,-1.375,-0.953125,374
375,1696244905552,-0.7597656,-0.05596924,0.75335693,-1.921875,-0.796875,-0.828125,375
376,1696244905592,-0.75927734,-0.054016113,0.7523804,-1.828125,-1.0625,-1.234375,376
377,1696244905632,-0.7607422,-0.055725098,0.746521,-2.078125,-0.625,-1.390625,377
378,1696244905672,-0.75634766,-0.04107666,0.74676514,-2.3125,-0.375,-1.3125,378
379,1696244905712,-0.7541504,-0.034973145,0.74505615,-1.6875,-0.390625,-1.140625,379
380,1696244905752,-0.7397461,-0.023498535,0.74017334,-0.640625,-0.3125,-0.4375,380
381,1696244905792,-0.7619629,-0.039123535,0.7477417,0.671875,-1.109375,0.484375,381
382,1696244905832,-0.75146484,-0.038635254,0.73968506,0.640625,-0.59375,0.4375,382
383,1696244905872,-0.7595215,-0.049621582,0.75115967,1.625,-1.09375,0.78125,383
384,1696244905912,-0.7636719,-0.04840088,0.7477417,1.859375,-0.84375,1.0,384
385,1696244905952,-0.7570801,-0.05328369,0.7572632,1.515625,-0.984375,0.5625,385
386,1696244905992,-0.7565918,-0.050598145,0.74871826,0.6875,-1.140625,0.609375,386
387,1696244906032,-0.7624512,-0.035949707,0.74554443,0.15625,-0.84375,0.3125,387
388,1696244906072,-0.7573242,-0.046691895,0.74798584,-0.359375,-0.296875,0.28125,388
389,1696244906112,-0.7609863,-0.053771973,0.7379761,-0.15625,-0.453125,0.40625,389
390,1696244906152,-0.75219727,-0.050598145,0.74627686,-0.53125,-0.390625,0.265625,390
391,1696244906192,-0.76831055,-0.053527832,0.7379761,-0.03125,0.203125,0.53125,391
392,1696244906232,-0.7602539,-0.05670166,0.75946045,0.484375,-0.296875,0.28125,392
393,1696244906272,-0.76123047,-0.047912598,0.74993896,0.390625,-0.296875,0.296875,393
394,1696244906312,-0.7607422,-0.04547119,0.74823,0.15625,-0.234375,0.21875,394
395,1696244906352,-0.7585449,-0.041809082,0.7538452,0.359375,-0.28125,0.4375,395
396,1696244906392,-0.7553711,-0.051086426,0.74798584,0.296875,-0.3125,0.390625,396
397,1696244906432,-0.7531738,-0.06109619,0.74627686,0.5,-0.625,0.125,397
398,1696244906472,-0.7583008,-0.055480957,0.74676514,0.25,-0.3125,0.359375,398
399,1696244906512,-0.7541504,-0.05303955,0.74993896,0.234375,-0.015625,0.375,399
400,1696244906552,-0.76049805,-0.0569458,0.758728,0.234375,-0.15625,0.328125,400
401,1696244906592,-0.7609863,-0.04522705,0.75457764,0.421875,-0.421875,0.390625,401
402,1696244906632,-0.75341797,-0.059387207,0.74676514,-0.265625,0.0625,0.359375,402
403,1696244906672,-0.7583008,-0.04937744,0.7682495,0.5625,-1.15625,0.4375,403
404,1696244906712,-0.74560547,-0.047424316,0.73724365,-0.40625,0.328125,0.203125,404
405,1696244906752,-0.76049805,-0.06060791,0.7555542,0.859375,-0.375,0.515625,405
406,1696244906792,-0.7519531,-0.06085205,0.7489624,0.15625,-0.53125,0.140625,406
407,1696244906832,-0.75390625,-0.057678223,0.7494507,0.109375,-0.40625,0.25,407
408,1696244906872,-0.7614746,-0.04840088,0.75531006,0.40625,-0.453125,0.4375,408
409,1696244906912,-0.7597656,-0.06036377,0.743103,0.28125,-0.15625,0.640625,409
410,1696244906952,-0.76782227,-0.057922363,0.76068115,0.390625,-0.46875,0.515625,410
411,1696244906992,-0.74853516,-0.058166504,0.7453003,-0.28125,-0.109375,0.234375,411
412,1696244907032,-0.7553711,-0.057434082,0.7531128,0.15625,-0.015625,0.40625,412
413,1696244907072,-0.7561035,-0.058898926,0.763855,0.296875,-0.546875,0.453125,413
414,1696244907112,-0.7553711,-0.053771973,0.7555542,0.109375,-0.703125,0.3125,414
415,1696244907152,-0.75805664,-0.050598145,0.7453003,0.03125,-0.359375,0.421875,415
416,1696244907192,-0.75268555,-0.06085205,0.7477417,0.3125,-0.25,0.40625,416
417,1696244907232,-0.75219727,-0.06085205,0.75579834,0.171875,-0.328125,0.109375,417
418,1696244907272,-0.7597656,-0.057678223,0.7496948,-0.171875,-0.203125,0.3125,418
419,1696244907312,-0.7541504,-0.059631348,0.7536011,0.078125,-0.03125,0.375,419
420,1696244907352,-0.7475586,-0.061340332,0.74505615,0.0625,-0.140625,0.484375,420
421,1696244907392,-0.75146484,-0.07525635,0.75701904,0.40625,-0.546875,0.625,421
422,1696244907432,-0.7536621,-0.054992676,0.75115967,0.109375,-0.40625,0.25,422
423,1696244907472,-0.75512695,-0.05987549,0.7601929,0.296875,-0.40625,0.203125,423
424,1696244907512,-0.7434082,-0.06890869,0.75115967,-0.6875,0.609375,0.234375,424
425,1696244907552,-0.7573242,-0.06402588,0.7562866,-0.171875,-0.53125,0.5,425
426,1696244907592,-0.7458496,-0.04815674,0.7428589,-0.09375,0.15625,0.671875,426
427,1696244907632,-0.75683594,-0.07476807,0.7601929,0.203125,0.15625,0.6875,427
428,1696244907672,-0.74609375,-0.066223145,0.7562866,0.15625,-0.375,0.171875,428
429,1696244907712,-0.74658203,-0.0491333,0.74749756,-0.140625,-0.453125,0.3125,429
430,1696244907752,-0.7504883,-0.061584473,0.7584839,0.28125,-0.21875,0.484375,430
431,1696244907792,-0.7531738,-0.0635376,0.75164795,0.265625,-0.421875,0.5625,431
432,1696244907832,-0.75097656,-0.0713501,0.75775146,0.078125,-0.1875,0.234375,432
433,1696244907872,-0.74487305,-0.05670166,0.7543335,-0.125,-0.125,0.3125,433
434,1696244907912,-0.74194336,-0.06011963,0.7538452,-0.125,-0.375,0.375,434
435,1696244907952,-0.7458496,-0.06524658,0.7592163,0.046875,-0.390625,0.3125,435
436,1696244907992,-0.7492676,-0.058898926,0.76116943,0.0,-0.4375,0.359375,436
437,1696244908032,-0.75268555,-0.05621338,0.75286865,0.15625,-0.390625,0.375,437
438,1696244908072,-0.7519531,-0.0635376,0.75457764,0.21875,-0.359375,0.40625,438
439,1696244908112,-0.74658203,-0.06378174,0.7501831,0.046875,-0.34375,0.421875,439
440,1696244908152,-0.7458496,-0.070617676,0.75653076,0.09375,-0.421875,0.3125,440
441,1696244908192,-0.7426758,-0.06304932,0.7572632,-0.125,-0.359375,0.171875,441
442,1696244908232,-0.7441406,-0.06109619,0.75531006,0.0625,-0.328125,0.46875,442
443,1696244908272,-0.75097656,-0.06719971,0.75286865,0.203125,-0.5625,0.3125,443
444,1696244908312,-0.7504883,-0.062561035,0.75115967,0.046875,-0.390625,0.140625,444
445,1696244908352,-0.75683594,-0.059631348,0.75994873,0.078125,-0.328125,0.390625,445
446,1696244908392,-0.7453613,-0.06719971,0.7601929,-0.28125,-0.203125,0.03125,446
447,1696244908432,-0.7573242,-0.06451416,0.774353,0.703125,-0.984375,0.40625,447
448,1696244908472,-0.7314453,-0.059143066,0.7404175,-0.59375,0.125,0.265625,448
449,1696244908512,-0.7595215,-0.07110596,0.76434326,0.515625,-0.3125,0.5625,449
450,1696244908552,-0.74365234,-0.08087158,0.75335693,0.296875,-0.390625,0.28125,450
451,1696244908592,-0.74658203,-0.061584473,0.758728,-0.46875,-0.15625,0.109375,451
452,1696244908632,-0.75341797,-0.06842041,0.7802124,-0.890625,-0.109375,0.28125,452
453,1696244908672,-0.74853516,-0.065979004,0.7579956,-1.109375,-1.375,-0.5,453
454,1696244908712,-0.7626953,-0.05645752,0.7692261,-1.203125,-1.953125,-1.078125,454
455,1696244908752,-0.7495117,-0.04473877,0.75164795,-1.59375,-1.0,-0.828125,455
456,1696244908792,-0.7463379,-0.06793213,0.76678467,-1.421875,-0.75,-0.484375,456
457,1696244908832,-0.74365234,-0.07330322,0.75408936,-2.46875,-1.1875,-1.34375,457
458,1696244908872,-0.7487793,-0.04473877,0.75579834,-1.21875,-1.921875,-1.296875,458
459,1696244908912,-0.75,-0.04449463,0.7423706,-1.390625,-1.46875,-1.03125,459
460,1696244908952,-0.7531738,-0.03643799,0.7399292,-0.546875,-1.125,-0.921875,460
461,1696244908992,-0.75512695,-0.035705566,0.74017334,-0.578125,-0.421875,-0.046875,461
462,1696244909032,-0.7492676,-0.04449463,0.7428589,0.34375,-0.421875,0.46875,462
463,1696244909072,-0.7570801,-0.04840088,0.7514038,1.171875,-0.640625,0.640625,463
464,1696244909112,-0.7504883,-0.043762207,0.7391968,1.21875,-0.875,0.3125,464
465,1696244909152,-0.7553711,-0.051818848,0.74993896,1.59375,-0.8125,0.53125,465
466,1696244909192,-0.7595215,-0.04815674,0.7572632,0.78125,-0.71875,0.484375,466
467,1696244909232,-0.7561035,-0.0413208,0.7592163,0.4375,-0.53125,0.484375,467
468,1696244909272,-0.74975586,-0.053527832,0.74090576,-0.328125,-0.4375,0.4375,468
469,1696244909312,-0.76293945,-0.05279541,0.76239014,0.484375,-1.09375,0.5625,469
470,1696244909352,-0.7397461,-0.044006348,0.7313843,0.0,-0.140625,0.515625,470
471,1696244909392,-0.76171875,-0.058410645,0.75408936,1.125,-0.875,0.484375,471
472,1696244909432,-0.751709,-0.06036377,0.7501831,0.375,-0.59375,0.234375,472
473,1696244909472,-0.7546387,-0.047668457,0.74676514,-0.125,-0.40625,0.15625,473
474,1696244909512,-0.7648926,-0.04107666,0.7536011,0.25,-0.078125,0.40625,474
475,1696244909552,-0.74853516,-0.05279541,0.75531006,-0.03125,-0.03125,0.59375,475
476,1696244909592,-0.7585449,-0.05987549,0.76776123,0.546875,-0.796875,0.5625,476
477,1696244909632,-0.7390137,-0.053771973,0.74334717,-0.109375,-0.15625,0.1875,477
478,1696244909672,-0.75219727,-0.057434082,0.7538452,0.296875,-0.21875,0.421875,478
479,1696244909712,-0.7565918,-0.061828613,0.7538452,0.21875,-0.546875,0.203125,479
480,1696244909752,-0.75683594,-0.054260254,0.75457764,0.109375,-0.734375,0.453125,480
481,1696244909792,-0.7636719,-0.05206299,0.75115967,0.203125,-0.421875,0.359375,481
482,1696244909832,-0.7675781,-0.05596924,0.7523804,0.078125,-0.171875,0.5625,482
483,1696244909872,-0.7504883,-0.055236816,0.75775146,-0.078125,-0.296875,0.390625,483
484,1696244909912,-0.74658203,-0.05303955,0.75213623,-0.015625,-0.40625,0.34375,484
485,1696244909952,-0.75268555,-0.054748535,0.7518921,0.0,-0.15625,0.21875,485
486,1696244909992,-0.7583008,-0.051330566,0.7536011,0.09375,-0.421875,0.296875,486
487,1696244910032,-0.75268555,-0.054016113,0.7435913,0.390625,-0.734375,0.390625,487
488,1696244910072,-0.75097656,-0.05596924,0.7523804,0.03125,-0.34375,0.28125,488
489,1696244910112,-0.7595215,-0.06060791,0.7560425,-0.046875,-0.15625,0.359375,489
490,1696244910152,-0.76000977,-0.055480957,0.7496948,-0.46875,-0.359375,0.109375,490
491,1696244910192,-0.76831055,-0.051818848,0.7699585,0.265625,-0.90625,0.578125,491
492,1696244910232,-0.74121094,-0.051330566,0.73114014,-0.40625,0.1875,0.25,492
493,1696244910272,-0.75927734,-0.06768799,0.77142334,0.828125,-0.4375,0.5,493
494,1696244910312,-0.748291,-0.06109619,0.75164795,-0.109375,-0.3125,0.28125,494
495,1696244910352,-0.74609375,-0.05328369,0.7562866,0.09375,-0.3125,0.296875,495
496,1696244910392,-0.7619629,-0.058654785,0.74798584,0.5,-0.46875,0.421875,496
497,1696244910432,-0.75634766,-0.06939697,0.76727295,0.25,0.25,1.09375,497
498,1696244910472,-0.7495117,-0.053527832,0.7506714,-0.078125,-0.390625,0.734375,498
499,1696244910512,-0.7458496,-0.06549072,0.7391968,-0.421875,-0.4375,0.546875,499
500,1696244910552,-0.7487793,-0.055480957,0.75653076,-0.890625,0.0,0.328125,500
501,1696244910592,-0.75634766,-0.06451416,0.76483154,-0.796875,-0.0625,0.203125,501
502,1696244910632,-0.75512695,-0.06890869,0.7626343,-1.0625,-1.0,-0.1875,502
503,1696244910672,-0.75439453,-0.047668457,0.7484741,-1.28125,-1.203125,-0.515625,503
504,1696244910712,-0.7597656,-0.05230713,0.75823975,-1.0,-1.03125,-0.8125,504
505,1696244910752,-0.7570801,-0.0569458,0.75579834,-1.359375,-0.796875,-0.859375,505
506,1696244910792,-0.74975586,-0.054016113,0.7494507,-1.390625,-0.671875,-0.984375,506
507,1696244910832,-0.7548828,-0.043273926,0.7526245,-1.03125,-0.84375,-0.828125,507
508,1696244910872,-0.75512695,-0.03668213,0.7445679,-0.4375,-0.75,-0.640625,508
509,1696244910912,-0.7480469,-0.034240723,0.74627686,-0.328125,-0.625,-0.03125,509
510,1696244910952,-0.75512695,-0.038146973,0.74627686,0.171875,-0.546875,0.40625,510
511,1696244910992,-0.7609863,-0.050598145,0.7501831,0.765625,-0.40625,0.609375,511
512,1696244911032,-0.7578125,-0.05596924,0.7514038,1.140625,-1.09375,0.484375,512
513,1696244911072,-0.7585449,-0.04547119,0.7526245,1.25,-1.375,0.734375,513
514,1696244911112,-0.75097656,-0.046691895,0.75286865,0.78125,-0.796875,0.40625,514
515,1696244911152,-0.75683594,-0.04522705,0.75457764,0.84375,-0.234375,0.796875,515
516,1696244911192,-0.7519531,-0.055236816,0.7575073,0.5625,-0.515625,0.546875,516
517,1696244911232,-0.75341797,-0.051574707,0.74505615,0.390625,-0.90625,0.390625,517
518,1696244911272,-0.7614746,-0.047668457,0.75653076,0.421875,-0.859375,0.484375,518
519,1696244911312,-0.75439453,-0.05645752,0.74383545,0.296875,-1.03125,0.21875,519
520,1696244911352,-0.7561035,-0.050598145,0.7501831,0.484375,-0.96875,0.265625,520
521,1696244911392,-0.75634766,-0.05645752,0.7484741,-0.296875,-0.28125,0.359375,521
522,1696244911432,-0.7602539,-0.054260254,0.74823,0.078125,-0.03125,0.28125,522
523,1696244911472,-0.76123047,-0.062805176,0.7626343,-0.03125,-0.53125,0.109375,523
524,1696244911512,-0.75878906,-0.05303955,0.7457886,0.0625,-0.625,0.453125,524
525,1696244911552,-0.75561523,-0.05670166,0.75531006,0.265625,-0.4375,0.34375,525
526,1696244911592,-0.7504883,-0.05303955,0.74823,0.09375,-0.328125,0.484375,526
527,1696244911632,-0.7607422,-0.049865723,0.7514038,0.203125,-0.703125,0.296875,527
528,1696244911672,-0.7590332,-0.05596924,0.7496948,0.328125,-0.40625,0.21875,528
529,1696244911712,-0.76293945,-0.061828613,0.74993896,0.0,-0.234375,0.3125,529
530,1696244911752,-0.75341797,-0.053771973,0.7531128,0.171875,-0.25,0.4375,530
531,1696244911792,-0.7536621,-0.055480957,0.7543335,0.28125,-0.453125,0.40625,531
532,1696244911832,-0.7512207,-0.053771973,0.75042725,0.0625,-0.09375,0.4375,532
533,1696244911872,-0.75561523,-0.062561035,0.76361084,0.359375,-0.0625,0.3125,533
534,1696244911912,-0.74365234,-0.06011963,0.74017334,-0.46875,0.109375,0.109375,534
535,1696244911952,-0.7626953,-0.06524658,0.7567749,0.015625,-0.5,0.421875,535
536,1696244911992,-0.7492676,-0.046936035,0.7477417,-0.265625,0.1875,0.59375,536
537,1696244912032,-0.7692871,-0.0635376,0.7601929,0.4375,-0.296875,0.40625,537
538,1696244912072,-0.74975586,-0.07354736,0.75042725,-0.15625,-0.421875,0.109375,538
539,1696244912112,-0.75341797,-0.047424316,0.75164795,0.0,-0.5,0.265625,539
540,1696244912152,-0.7585449,-0.061828613,0.7562866,0.125,-0.25,0.53125,540
541,1696244912192,-0.75512695,-0.057678223,0.75579834,0.1875,-0.421875,0.5,541
542,1696244912232,-0.7590332,-0.06695557,0.75994873,0.65625,-0.546875,0.515625,542
543,1696244912272,-0.74731445,-0.061584473,0.7567749,-0.140625,-0.125,0.296875,543
544,1696244912312,-0.7553711,-0.061584473,0.75213623,-0.0625,-0.125,0.3125,544
545,1696244912352,-0.75561523,-0.0713501,0.7548218,0.109375,-0.421875,0.265625,545
546,1696244912392,-0.75805664,-0.05645752,0.76068115,0.1875,-0.5,0.296875,546
547,1696244912432,-0.75512695,-0.05328369,0.75115967,-0.015625,-0.4375,0.265625,547
548,1696244912472,-0.75024414,-0.062316895,0.7575073,-0.03125,-0.296875,0.453125,548
549,1696244912512,-0.7536621,-0.06378174,0.7460327,-0.0625,-0.453125,0.078125,549
550,1696244912552,-0.7529297,-0.06549072,0.7518921,-0.0625,-0.390625,0.4375,550
551,1696244912592,-0.75097656,-0.065979004,0.74676514,-0.0625,-0.109375,0.328125,551
552,1696244912632,-0.75512695,-0.061584473,0.7523804,-0.078125,-0.34375,0.34375,552
553,1696244912672,-0.7546387,-0.061584473,0.7592163,-0.0625,-0.140625,0.453125,553
554,1696244912712,-0.75268555,-0.0647583,0.75286865,0.0625,-0.359375,0.390625,554
555,1696244912752,-0.7519531,-0.0725708,0.74627686,-0.234375,-0.515625,0.046875,555
556,1696244912792,-0.7607422,-0.05328369,0.76556396,0.125,-0.75,0.515625,556
557,1696244912832,-0.7390137,-0.058898926,0.74261475,-0.703125,-0.265625,0.296875,557
558,1696244912872,-0.763916,-0.06378174,0.75531006,0.265625,-0.234375,0.578125,558
559,1696244912912,-0.75024414,-0.07598877,0.7536011,0.390625,0.015625,0.390625,559
560,1696244912952,-0.74853516,-0.06329346,0.7536011,-0.25,-0.34375,0.03125,560
561,1696244912992,-0.75927734,-0.050109863,0.7543335,0.296875,-0.375,0.15625,561
562,1696244913032,-0.7507324,-0.06378174,0.7543335,0.546875,-0.296875,0.578125,562
563,1696244913072,-0.75146484,-0.06573486,0.75335693,0.0625,-0.4375,0.453125,563
564,1696244913112,-0.7519531,-0.06939697,0.7379761,-0.390625,-0.078125,0.21875,564
565,1696244913152,-0.7475586,-0.061340332,0.75457764,-0.109375,-0.1875,0.109375,565
566,1696244913192,-0.7512207,-0.06329346,0.76361084,-0.03125,-0.484375,0.234375,566
567,1696244913232,-0.75,-0.06500244,0.75653076,0.015625,-0.625,0.296875,567
568,1696244913272,-0.7409668,-0.06573486,0.7445679,-0.1875,-0.484375,0.09375,568
569,1696244913312,-0.74975586,-0.055236816,0.7494507,0.109375,-0.46875,0.203125,569
570,1696244913352,-0.7495117,-0.06451416,0.7501831,0.0625,-0.4375,0.359375,570
571,1696244913392,-0.7458496,-0.06427002,0.7584839,-0.46875,-0.28125,0.203125,571
572,1696244913432,-0.7468262,-0.06842041,0.75823975,-1.75,-0.109375,0.21875,572
573,1696244913472,-0.7583008,-0.06427002,0.7626343,-1.265625,-0.453125,-0.265625,573
574,1696244913512,-0.7426758,-0.06427002,0.76776123,-1.578125,-0.9375,-0.5625,574
575,1696244913552,-0.75878906,-0.06329346,0.7633667,-2.15625,-0.734375,-0.546875,575
576,1696244913592,-0.7536621,-0.051086426,0.75335693,-1.65625,-0.96875,-0.984375,576
577,1696244913632,-0.75219727,-0.053771973,0.73773193,-2.09375,-0.625,-1.3125,577
578,1696244913672,-0.7573242,-0.043518066,0.7609253,-1.40625,-1.484375,-1.125,578
579,1696244913712,-0.7558594,-0.04547119,0.74212646,-1.3125,0.109375,-1.140625,579
580,1696244913752,-0.75927734,-0.046691895,0.76361084,-0.5,-0.78125,-0.84375,580
581,1696244913792,-0.7416992,-0.042541504,0.7379761,-0.640625,-0.984375,-0.84375,581
582,1696244913832,-0.74853516,-0.024475098,0.75213623,0.03125,-1.234375,-0.484375,582
583,1696244913872,-0.7531738,-0.022277832,0.7445679,0.484375,-0.953125,0.109375,583
584,1696244913912,-0.74853516,-0.03692627,0.74627686,1.203125,-0.5,0.671875,584
585,1696244913952,-0.75805664,-0.05718994,0.7536011,2.328125,-1.578125,1.125,585
586,1696244913992,-0.74438477,-0.058898926,0.730896,1.3125,-1.25,0.75,586
587,1696244914032,-0.76171875,-0.045715332,0.7579956,0.984375,-0.390625,0.625,587
588,1696244914072,-0.7619629,-0.049865723,0.75701904,0.203125,-0.4375,0.625,588
589,1696244914112,-0.75634766,-0.042053223,0.75286865,0.234375,-0.90625,0.359375,589
590,1696244914152,-0.7553711,-0.04547119,0.7536011,0.390625,-0.6875,0.453125,590
591,1696244914192,-0.74609375,-0.05255127,0.746521,0.59375,-0.546875,0.453125,591
592,1696244914232,-0.7507324,-0.054992676,0.7423706,0.125,-0.921875,0.3125,592
593,1696244914272,-0.75805664,-0.050109863,0.75286865,0.328125,-0.65625,0.421875,593
594,1696244914312,-0.7570801,-0.054748535,0.75164795,0.375,-0.421875,0.578125,594
595,1696244914352,-0.7636719,-0.051330566,0.7472534,0.1875,-0.296875,0.359375,595
596,1696244914392,-0.76342773,-0.050109863,0.75408936,0.46875,-0.390625,0.4375,596
597,1696244914432,-0.7531738,-0.061584473,0.7423706,-0.09375,-0.375,0.1875,597
598,1696244914472,-0.76831055,-0.04815674,0.7633667,0.4375,-1.40625,0.484375,598
599,1696244914512,-0.7409668,-0.051086426,0.7418823,-0.28125,-0.109375,0.40625,599
600,1696244914552,-0.76123047,-0.059631348,0.7579956,0.78125,-0.453125,0.640625,600
601,1696244914592,-0.7585449,-0.062561035,0.7509155,0.46875,-0.8125,0.15625,601
602,1696244914632,-0.76220703,-0.046936035,0.74261475,0.171875,-0.65625,0.015625,602
603,1696244914672,-0.763916,-0.04522705,0.75897217,0.28125,-0.234375,0.234375,603
604,1696244914712,-0.7524414,-0.05255127,0.74798584,0.09375,-0.125,0.390625,604
605,1696244914752,-0.7619629,-0.054016113,0.7560425,0.3125,-0.3125,0.546875,605
606,1696244914792,-0.7512207,-0.058654785,0.7428589,-0.1875,-0.203125,0.453125,606
607,1696244914832,-0.74902344,-0.05987549,0.75701904,0.09375,-0.234375,0.40625,607
608,1696244914872,-0.7548828,-0.061828613,0.75457764,0.0,-0.53125,0.375,608
609,1696244914912,-0.7541504,-0.0569458,0.74505615,-0.171875,-0.6875,0.21875,609
610,1696244914952,-0.7609863,-0.0491333,0.7531128,0.21875,-0.28125,0.328125,610
611,1696244914992,-0.7548828,-0.05670166,0.7536011,0.140625,-0.375,0.203125,611
612,1696244915032,-0.7565918,-0.058166504,0.74627686,0.109375,-0.4375,0.234375,612
613,1696244915072,-0.75097656,-0.057434082,0.7543335,0.265625,-0.40625,0.328125,613
614,1696244915112,-0.7475586,-0.05718994,0.75213623,-0.140625,-0.5,0.296875,614
615,1696244915152,-0.75390625,-0.058166504,0.7416382,0.171875,-0.40625,0.25,615
616,1696244915192,-0.7519531,-0.055236816,0.7509155,0.125,-0.375,0.46875,616
617,1696244915232,-0.7609863,-0.05670166,0.7526245,0.25,-0.609375,0.53125,617
618,1696244915272,-0.7512207,-0.0635376,0.7457886,-0.0625,-0.25,0.265625,618
619,1696244915312,-0.7717285,-0.054748535,0.7704468,0.609375,-1.015625,0.734375,619
620,1696244915352,-0.748291,-0.0569458,0.7357788,-0.375,-0.25,0.40625,620
621,1696244915392,-0.7636719,-0.058410645,0.7584839,0.515625,-0.28125,0.390625,621
622,1696244915432,-0.7463379,-0.06695557,0.7543335,-0.046875,-0.28125,0.1875,622
623,1696244915472,-0.74975586,-0.055480957,0.74383545,-0.25,-0.59375,0.21875,623
624,1696244915512,-0.75805664,-0.050598145,0.7609253,0.25,-0.46875,0.5625,624
625,1696244915552,-0.75390625,-0.06427002,0.7531128,0.28125,-0.234375,0.484375,625
626,1696244915592,-0.75927734,-0.06500244,0.75042725,0.203125,-0.5625,0.46875,626
627,1696244915632,-0.7458496,-0.062561035,0.73724365,-0.5,-0.234375,0.265625,627
628,1696244915672,-0.74853516,-0.061340332,0.7536011,-0.203125,-0.1875,0.203125,628
629,1696244915712,-0.7495117,-0.062072754,0.76312256,0.203125,-0.390625,0.375,629
630,1696244915752,-0.7529297,-0.059143066,0.7555542,-0.125,-0.5,0.40625,630
631,1696244915792,-0.7548828,-0.05718994,0.7484741,0.09375,-0.5625,0.375,631
632,1696244915832,-0.74975586,-0.058410645,0.75115967,0.125,-0.4375,0.359375,632
633,1696244915872,-0.751709,-0.06060791,0.75775146,0.0625,-0.46875,0.359375,633
634,1696244915912,-0.75219727,-0.05987549,0.75579834,-0.25,-0.5625,0.21875,634
635,1696244915952,-0.75146484,-0.061584473,0.7470093,-0.03125,-0.15625,0.46875,635
636,1696244915992,-0.75,-0.06500244,0.7453003,0.03125,-0.421875,0.390625,636
637,1696244916032,-0.7480469,-0.062072754,0.7404175,0.125,-0.3125,0.390625,637
638,1696244916072,-0.75146484,-0.05987549,0.7555542,0.03125,-0.046875,0.3125,638
639,1696244916112,-0.7470703,-0.057434082,0.75531006,0.03125,-0.046875,0.578125,639
640,1696244916152,-0.75756836,-0.06915283,0.76483154,0.640625,-0.390625,0.328125,640
641,1696244916192,-0.7492676,-0.055725098,0.74090576,-0.21875,-0.109375,0.171875,641
642,1696244916232,-0.74560547,-0.06085205,0.7435913,-0.296875,-0.421875,0.265625,642
643,1696244916272,-0.75219727,-0.05621338,0.7572632,0.4375,-0.21875,0.34375,643
644,1696244916312,-0.7492676,-0.06890869,0.7555542,0.234375,-0.21875,0.359375,644
645,1696244916352,-0.7487793,-0.06329346,0.7531128,-0.09375,-0.203125,0.25,645
646,1696244916392,-0.7416992,-0.055236816,0.74871826,0.21875,-0.53125,0.25,646
647,1696244916432,-0.7453613,-0.062072754,0.7548218,0.390625,-0.265625,0.375,647
648,1696244916472,-0.7519531,-0.0713501,0.7526245,0.09375,-0.21875,0.359375,648
649,1696244916512,-0.751709,-0.06866455,0.7494507,-0.21875,-0.171875,0.046875,649
650,1696244916552,-0.7453613,-0.06573486,0.75164795,0.03125,-0.40625,0.078125,650
651,1696244916592,-0.75756836,-0.070129395,0.7609253,0.09375,-0.390625,0.234375,651
652,1696244916632,-0.75097656,-0.066467285,0.7523804,-0.1875,-0.53125,0.171875,652
653,1696244916672,-0.75634766,-0.06060791,0.7575073,0.21875,-0.46875,0.578125,653
654,1696244916712,-0.75146484,-0.059143066,0.7592163,0.171875,0.140625,0.1875,654
655,1696244916752,-0.7438965,-0.07281494,0.75115967,0.1875,-0.328125,0.46875,655
656,1696244916792,-0.74487305,-0.07647705,0.75531006,0.078125,-0.3125,0.484375,656
657,1696244916832,-0.7402344,-0.070129395,0.75897217,-0.234375,-0.4375,0.125,657
658,1696244916872,-0.7583008,-0.062805176,0.7518921,-0.34375,-0.21875,0.375,658
659,1696244916912,-0.7492676,-0.054016113,0.75164795,0.015625,-0.09375,0.578125,659
660,1696244916952,-0.7463379,-0.06060791,0.75701904,-0.21875,-0.078125,0.375,660
661,1696244916992,-0.7585449,-0.062805176,0.7653198,0.078125,-0.21875,0.59375,661
662,1696244917032,-0.74731445,-0.06524658,0.7609253,-0.109375,-0.046875,0.46875,662
663,1696244917072,-0.7348633,-0.07110596,0.7536011,-0.234375,-0.390625,0.125,663
664,1696244917112,-0.7607422,-0.06793213,0.7863159,0.359375,-0.984375,0.671875,664
665,1696244917152,-0.7375488,-0.0635376,0.7404175,-0.84375,0.015625,0.484375,665
666,1696244917192,-0.7548828,-0.062805176,0.76556396,0.4375,-0.5625,0.359375,666
667,1696244917232,-0.75146484,-0.07208252,0.758728,0.03125,-0.0625,0.46875,667
668,1696244917272,-0.7441406,-0.07305908,0.75531006,-0.1875,0.015625,0.453125,668
669,1696244917312,-0.7446289,-0.059143066,0.75286865,0.140625,-0.390625,0.265625,669
670,1696244917352,-0.7392578,-0.07086182,0.75701904,-0.03125,-0.234375,0.421875,670
671,1696244917392,-0.74243164,-0.07159424,0.75823975,-0.015625,-0.21875,0.375,671
672,1696244917432,-0.7438965,-0.065979004,0.74993896,-0.28125,-0.203125,0.375,672
673,1696244917472,-0.7441406,-0.070617676,0.7484741,-0.5625,-0.21875,0.25,673
674,1696244917512,-0.74609375,-0.07305908,0.7645874,-0.296875,-0.328125,0.078125,674
675,1696244917552,-0.7519531,-0.07086182,0.7572632,-0.328125,-0.578125,0.203125,675
676,1696244917592,-0.7504883,-0.06524658,0.76068115,-0.1875,-0.40625,0.3125,676
677,1696244917632,-0.74194336,-0.06524658,0.75994873,-0.203125,-0.234375,0.140625,677
678,1696244917672,-0.74316406,-0.06890869,0.760437,-0.0625,-0.5,0.328125,678
679,1696244917712,-0.7397461,-0.06890869,0.7548218,-0.640625,-0.421875,0.109375,679
680,1696244917752,-0.7355957,-0.058166504,0.75579834,-0.609375,-0.078125,-0.078125,680
681,1696244917792,-0.75805664,-0.0713501,0.7665405,0.109375,-0.59375,0.03125,681
682,1696244917832,-0.7487793,-0.06768799,0.76361084,-0.09375,-0.375,0.109375,682
683,1696244917872,-0.75024414,-0.06304932,0.7584839,0.015625,-0.546875,0.453125,683
684,1696244917912,-0.7416992,-0.06817627,0.7572632,0.0,-0.28125,0.25,684
685,1696244917952,-0.7475586,-0.06842041,0.76849365,0.234375,-0.671875,0.484375,685
686,1696244917992,-0.732666,-0.070373535,0.7538452,-0.671875,0.015625,0.171875,686
687,1696244918032,-0.74560547,-0.06304932,0.7650757,-0.15625,-0.875,0.359375,687
688,1696244918072,-0.73999023,-0.054016113,0.7506714,0.5,-0.4375,0.40625,688
689,1696244918112,-0.7546387,-0.07940674,0.77020264,0.90625,-0.921875,0.453125,689
690,1696244918152,-0.748291,-0.08331299,0.75897217,-0.15625,-1.0,0.421875,690
691,1696244918192,-0.7470703,-0.06109619,0.7567749,-0.34375,-0.515625,0.203125,691
692,1696244918232,-0.74072266,-0.059631348,0.758728,-0.140625,-0.109375,0.15625,692
693,1696244918272,-0.748291,-0.07525635,0.76556396,0.0,-0.140625,0.65625,693
694,1696244918312,-0.7404785,-0.07574463,0.7601929,0.125,-0.640625,0.515625,694
695,1696244918352,-0.7421875,-0.059631348,0.762146,-0.21875,-0.484375,0.390625,695
696,1696244918392,-0.74560547,-0.07647705,0.76190186,-0.3125,-0.171875,0.5,696
697,1696244918432,-0.74609375,-0.06939697,0.7665405,-0.09375,-0.34375,0.515625,697
698,1696244918472,-0.74780273,-0.059631348,0.7572632,0.234375,-0.875,0.46875,698
699,1696244918512,-0.7402344,-0.06573486,0.7543335,0.3125,-0.59375,0.546875,699
700,1696244918552,-0.74194336,-0.0713501,0.7538452,0.171875,-0.234375,0.59375,700
701,1696244918592,-0.74780273,-0.07965088,0.7579956,-0.09375,-0.203125,0.875,701
702,1696244918632,-0.74731445,-0.07086182,0.76849365,-0.234375,-0.15625,0.40625,702
703,1696244918672,-0.7409668,-0.073791504,0.76678467,-0.21875,-0.140625,0.25,703
704,1696244918712,-0.74365234,-0.07086182,0.76434326,-0.21875,-0.046875,0.4375,704
705,1696244918752,-0.7426758,-0.07183838,0.7597046,0.015625,-0.75,0.296875,705
706,1696244918792,-0.7397461,-0.06744385,0.76605225,0.0,-0.65625,0.109375,706
707,1696244918832,-0.74438477,-0.05987549,0.7428589,0.171875,-0.5,0.046875,707
708,1696244918872,-0.7392578,-0.06402588,0.7560425,0.96875,-0.78125,0.5,708
709,1696244918912,-0.7368164,-0.08380127,0.7531128,0.125,0.40625,0.53125,709
710,1696244918952,-0.74487305,-0.07476807,0.7609253,0.46875,-1.328125,0.328125,710
711,1696244918992,-0.7348633,-0.058654785,0.75408936,-0.265625,0.0,0.171875,711
712,1696244919032,-0.7546387,-0.074279785,0.7716675,0.1875,-0.015625,0.390625,712
713,1696244919072,-0.73583984,-0.074035645,0.76068115,-0.46875,0.015625,0.25,713
714,1696244919112,-0.74121094,-0.069885254,0.7597046,-0.328125,-0.25,0.28125,714
715,1696244919152,-0.7487793,-0.07550049,0.76678467,0.0625,-0.109375,0.28125,715
716,1696244919192,-0.73950195,-0.07354736,0.758728,-0.546875,0.0,0.21875,716
717,1696244919232,-0.74609375,-0.07989502,0.7719116,0.265625,-0.265625,0.40625,717
718,1696244919272,-0.7421875,-0.06939697,0.7706909,-0.234375,-0.234375,0.46875,718
719,1696244919312,-0.7336426,-0.07110596,0.76678467,-0.53125,0.015625,0.078125,719
720,1696244919352,-0.73095703,-0.057434082,0.72943115,-0.703125,-0.109375,0.078125,751
721,1696244919392,-0.75439453,-0.06915283,0.7489624,-0.40625,-0.453125,0.234375,752
722,1696244919432,-0.74853516,-0.062316895,0.75653076,0.0,-0.125,0.25,753
723,1696244919472,-0.75390625,-0.07647705,0.75653076,0.46875,-0.234375,0.390625,754
724,1696244919512,-0.7561035,-0.07330322,0.7496948,-0.015625,-0.734375,0.515625,755
725,1696244919552,-0.75219727,-0.058898926,0.74383545,-0.171875,-0.4375,0.15625,756
726,1696244919592,-0.7561035,-0.059387207,0.7550659,0.09375,-0.21875,0.21875,757
727,1696244919632,-0.751709,-0.06402588,0.75579834,0.109375,0.0,0.375,758
728,1696244919672,-0.74072266,-0.07598877,0.7560425,-0.515625,-0.296875,0.296875,759
729,1696244919712,-0.7524414,-0.07159424,0.7531128,0.125,-0.546875,0.296875,760
730,1696244919752,-0.7548828,-0.07476807,0.7496948,-0.09375,-0.46875,0.046875,761
731,1696244919792,-0.7548828,-0.06451416,0.74871826,-0.21875,-0.5,0.359375,762
732,1696244919832,-0.7595215,-0.06524658,0.7609253,-0.046875,-0.15625,0.421875,763
733,1696244919872,-0.7504883,-0.066711426,0.7460327,0.0625,-0.25,0.1875,764
734,1696244919912,-0.7480469,-0.06304932,0.7506714,-0.234375,-0.390625,0.234375,765
735,1696244919952,-0.7492676,-0.074279785,0.74505615,-0.03125,-0.328125,0.34375,766
736,1696244919992,-0.74853516,-0.070617676,0.75213623,-0.046875,-0.3125,0.484375,767
737,1696244920032,-0.74780273,-0.066467285,0.7560425,-0.28125,-0.203125,0.359375,768
738,1696244920072,-0.74975586,-0.0635376,0.75531006,-0.0625,-0.265625,0.3125,769
739,1696244920112,-0.75390625,-0.066467285,0.7653198,0.15625,-0.53125,0.3125,770
740,1696244920152,-0.74316406,-0.06109619,0.7394409,-0.796875,0.28125,-0.03125,771
741,1696244920192,-0.7565918,-0.06695557,0.7550659,-0.125,-0.625,0.28125,772
742,1696244920232,-0.7458496,-0.05303955,0.75042725,-0.25,0.359375,0.171875,773
743,1696244920272,-0.75097656,-0.07550049,0.76239014,-0.046875,-0.1875,0.515625,774
744,1696244920312,-0.7529297,-0.07720947,0.7484741,-0.078125,-0.46875,0.453125,775
745,1696244920352,-0.74780273,-0.062805176,0.7555542,-0.203125,-0.390625,0.15625,776
746,1696244920392,-0.7507324,-0.058410645,0.7601929,-0.03125,-0.21875,0.3125,777
747,1696244920432,-0.7446289,-0.05987549,0.7518921,-0.203125,-0.1875,0.40625,778
748,1696244920472,-0.7492676,-0.07696533,0.7579956,-0.0625,-0.453125,0.28125,779
749,1696244920512,-0.7475586,-0.058654785,0.75823975,-0.375,-0.40625,0.15625,780
750,1696244920552,-0.74365234,-0.06915283,0.7601929,-0.140625,-0.21875,0.203125,781
751,1696244920592,-0.74609375,-0.06915283,0.75115967,-0.015625,-0.3125,0.390625,782
752,1696244920632,-0.74975586,-0.061828613,0.76312256,0.015625,-0.53125,0.171875,783
753,1696244920672,-0.74853516,-0.0569458,0.760437,-0.171875,-0.25,0.0625,784
754,1696244920712,-0.7475586,-0.06500244,0.75994873,0.078125,-0.328125,0.3125,785
755,1696244920752,-0.74658203,-0.066711426,0.75946045,-0.140625,-0.265625,0.328125,786
756,1696244920792,-0.7438965,-0.065979004,0.7616577,-0.125,-0.3125,0.234375,787
757,1696244920832,-0.74902344,-0.06719971,0.7616577,-0.0625,-0.5,0.09375,788
758,1696244920872,-0.7541504,-0.06378174,0.76605225,-0.046875,-0.53125,0.125,789
759,1696244920912,-0.7504883,-0.070129395,0.7609253,-0.625,-0.15625,0.203125,790
