,timestamp,accel_x,accel_y,accel_z,gyro_x,gyro_y,gyro_z,ind
0,1696243938082,-0.09790039,-0.9793091,0.15692139,1.296875,-0.6875,0.46875,0
1,1696243938122,-0.09399414,-0.975647,0.14324951,0.265625,0.0,-0.03125,1
2,1696243938162,-0.10058594,-0.98443604,0.14715576,1.78125,-0.609375,0.6875,2
3,1696243938202,-0.084228516,-0.97662354,0.1281128,-0.03125,0.453125,0.34375,3
4,1696243938242,-0.11450195,-0.9944458,0.14886475,1.25,-0.5625,0.671875,4
5,1696243938282,-0.099365234,-0.9812622,0.14520264,0.09375,-0.390625,0.3125,5
6,1696243938322,-0.09765625,-0.9817505,0.14129639,-0.046875,-0.421875,0.03125,6
7,1696243938362,-0.107421875,-0.9807739,0.14105225,0.203125,-0.359375,0.0,7
8,1696243938402,-0.08911133,-0.97979736,0.14300537,0.796875,-0.328125,0.125,8
9,1696243938442,-0.1081543,-0.98565674,0.14154053,0.328125,-0.578125,0.578125,9
10,1696243938482,-0.09643555,-0.972229,0.15252686,0.03125,-0.390625,0.046875,10
11,1696243938522,-0.103515625,-0.9963989,0.13934326,-0.296875,-0.421875,0.53125,11
12,1696243938562,-0.095703125,-0.9805298,0.14788818,-0.5,-0.515625,0.078125,12
13,1696243938602,-0.095214844,-0.98272705,0.14642334,0.078125,-0.484375,0.359375,13
14,1696243938642,-0.103515625,-0.9837036,0.13519287,-0.640625,-0.109375,0.34375,14
15,1696243938682,-0.099365234,-0.97369385,0.13690186,-0.109375,0.359375,0.28125,15
16,1696243938722,-0.096191406,-0.98516846,0.14471436,0.359375,-0.15625,0.4375,16
17,1696243938762,-0.088134766,-0.9805298,0.1515503,0.046875,-0.421875,0.3125,17
18,1696243938802,-0.09326172,-0.97784424,0.137146,0.28125,-0.875,0.28125,18
19,1696243938842,-0.10424805,-0.9871216,0.14202881,0.421875,-1.125,0.59375,19
20,1696243938882,-0.109375,-0.9805298,0.14398193,0.75,-1.015625,0.53125,20
21,1696243938922,-0.09790039,-0.9849243,0.13153076,0.28125,-0.375,0.375,21
22,1696243938962,-0.100097656,-0.97784424,0.14666748,0.515625,0.015625,0.375,22
23,1696243939002,-0.095214844,-0.98272705,0.13079834,0.515625,0.125,0.296875,23
24,1696243939042,-0.10205078,-0.9968872,0.15301514,1.484375,-0.8125,0.640625,24
25,1696243939082,-0.087646484,-0.9771118,0.117370605,-1.265625,0.578125,0.140625,25
26,1696243939122,-0.099121094,-0.9800415,0.13690186,0.578125,-0.6875,0.375,26
27,1696243939162,-0.10205078,-1.0007935,0.14422607,0.390625,-0.65625,0.84375,27
28,1696243939202,-0.09350586,-0.9849243,0.13690186,-0.15625,-0.078125,0.28125,28
29,1696243939242,-0.09301758,-0.96588135,0.1449585,0.421875,0.15625,0.359375,29
30,1696243939282,-0.09790039,-0.9920044,0.1281128,-0.015625,-0.203125,0.625,30
31,1696243939322,-0.095458984,-0.987854,0.1293335,0.09375,-0.4375,0.328125,31
32,1696243939362,-0.083740234,-0.9763794,0.1305542,-0.40625,-0.296875,0.234375,32
33,1696243939402,-0.092285156,-0.9846802,0.13812256,0.1875,-0.671875,0.25,33
34,1696243939442,-0.0925293,-0.9939575,0.13812256,-0.171875,-0.609375,0.296875,34
35,1696243939482,-0.087646484,-0.98101807,0.13250732,0.21875,-0.734375,0.1875,35
36,1696243939522,-0.0925293,-0.9866333,0.13348389,-0.0625,-0.46875,-0.03125,36
37,1696243939562,-0.10058594,-0.9800415,0.13885498,0.296875,-0.6875,0.15625,37
38,1696243939602,-0.096191406,-0.9973755,0.14886475,0.5,-0.609375,0.578125,38
39,1696243939642,-0.1003418,-0.99005127,0.13323975,0.03125,-0.53125,0.328125,39
40,1696243939682,-0.092285156,-0.97735596,0.12860107,0.359375,-0.15625,0.296875,40
41,1696243939722,-0.0871582,-0.98223877,0.12542725,0.015625,-0.21875,0.140625,41
42,1696243939762,-0.09667969,-0.98321533,0.12835693,0.65625,-0.40625,0.28125,42
43,1696243939802,-0.09375,-0.991272,0.124694824,0.75,-0.421875,0.265625,43
44,1696243939842,-0.10229492,-0.98638916,0.1564331,2.0625,-0.5,0.421875,44
45,1696243939882,-0.08569336,-0.9837036,0.124938965,1.015625,-0.625,0.609375,45
46,1696243939922,-0.08300781,-0.9837036,0.120788574,1.734375,-0.34375,0.140625,46
47,1696243939962,-0.10229492,-0.9949341,0.12615967,1.6875,-0.65625,0.75,47
48,1696243940002,-0.08569336,-0.98443604,0.116882324,2.3125,-0.84375,0.046875,48
49,1696243940042,-0.091308594,-0.9859009,0.11907959,0.875,-0.34375,0.296875,49
50,1696243940082,-0.09790039,-0.9829712,0.1161499,1.328125,-0.578125,0.21875,50
51,1696243940122,-0.095214844,-0.9949341,0.10760498,0.84375,-0.921875,0.453125,51
52,1696243940162,-0.083740234,-0.98687744,0.12371826,1.484375,-0.359375,0.546875,52
53,1696243940202,-0.08496094,-0.9854126,0.112976074,0.71875,-0.015625,0.09375,53
54,1696243940242,-0.09692383,-0.97784424,0.11981201,0.953125,-0.234375,0.375,54
55,1696243940282,-0.09790039,-0.9902954,0.113708496,1.390625,-0.5,0.5625,55
56,1696243940322,-0.09057617,-0.99176025,0.11932373,0.625,0.0,0.71875,56
57,1696243940362,-0.09301758,-0.97784424,0.11639404,0.703125,0.015625,0.453125,57
58,1696243940402,-0.09692383,-0.986145,0.10614014,0.28125,-0.28125,0.640625,58
59,1696243940442,-0.08666992,-0.99664307,0.10736084,-0.015625,0.046875,0.5625,59
60,1696243940482,-0.0859375,-0.98321533,0.11444092,-0.5625,0.1875,0.375,60
61,1696243940522,-0.09008789,-0.98638916,0.1071167,-0.3125,-0.171875,0.5,61
62,1696243940562,-0.095947266,-0.98272705,0.10784912,0.109375,-0.4375,0.765625,62
63,1696243940602,-0.083496094,-0.9824829,0.11102295,0.578125,-0.265625,0.296875,63
64,1696243940642,-0.09008789,-0.9915161,0.10223389,0.5,-0.65625,0.46875,64
65,1696243940682,-0.08642578,-0.9768677,0.09832764,-0.28125,0.328125,0.171875,65
66,1696243940722,-0.084228516,-0.9907837,0.11907959,0.984375,-0.203125,0.625,66
67,1696243940762,-0.08496094,-0.9944458,0.10687256,0.078125,-0.53125,0.046875,67
68,1696243940802,-0.08496094,-0.9800415,0.11029053,0.078125,0.0,0.21875,68
69,1696243940842,-0.09057617,-0.9871216,0.09906006,-0.078125,-0.453125,0.171875,69
70,1696243940882,-0.08520508,-0.989563,0.11395264,0.640625,-0.265625,0.0,70
71,1696243940922,-0.092041016,-0.9824829,0.10467529,-0.203125,-0.78125,0.546875,71
72,1696243940962,-0.08886719,-0.98516846,0.10687256,0.328125,-0.546875,0.59375,72
73,1696243941002,-0.09008789,-0.9937134,0.11468506,0.21875,-0.609375,0.390625,73
74,1696243941042,-0.09008789,-0.9788208,0.09637451,-0.15625,-0.578125,0.140625,74
75,1696243941082,-0.08129883,-0.9837036,0.101989746,-0.125,-0.328125,0.125,75
76,1696243941122,-0.08178711,-0.986145,0.10614014,0.328125,-0.390625,0.3125,76
77,1696243941162,-0.087402344,-0.98883057,0.1071167,0.046875,-0.46875,0.21875,77
78,1696243941202,-0.083496094,-0.9871216,0.10272217,0.421875,-0.3125,0.28125,78
79,1696243941242,-0.09375,-0.99786377,0.11224365,0.265625,-0.609375,0.515625,79
80,1696243941282,-0.08959961,-0.98150635,0.11199951,-0.046875,-0.625,0.28125,80
81,1696243941322,-0.08496094,-0.9837036,0.10076904,-0.15625,0.09375,0.15625,81
82,1696243941362,-0.08129883,-0.99468994,0.097351074,-0.046875,-0.734375,0.3125,82
83,1696243941402,-0.080566406,-0.9746704,0.10394287,0.1875,0.25,-0.34375,83
84,1696243941442,-0.10058594,-0.99835205,0.10638428,0.78125,-0.484375,0.203125,84
85,1696243941482,-0.07861328,-0.99468994,0.12664795,-1.65625,0.390625,-0.84375,85
86,1696243941522,-0.087402344,-0.9968872,0.12005615,-6.453125,0.421875,-2.6875,86
87,1696243941562,-0.11425781,-0.9859009,0.12664795,-8.78125,-2.203125,-4.421875,87
88,1696243941602,-0.09790039,-0.99957275,0.14007568,-6.40625,-3.109375,-4.234375,88
89,1696243941642,-0.09326172,-0.9951782,0.14837646,-7.140625,-1.234375,-1.703125,89
90,1696243941682,-0.1274414,-0.9751587,0.14544678,-6.015625,-0.3125,-1.046875,90
91,1696243941722,-0.123046875,-0.96173096,0.13543701,-3.9375,-0.8125,-0.3125,91
92,1696243941762,-0.11035156,-0.9561157,0.14764404,0.1875,-1.8125,-1.125,92
93,1696243941802,-0.08544922,-0.96221924,0.15374756,3.515625,-0.75,-0.46875,93
94,1696243941842,-0.09716797,-0.99053955,0.14422607,3.71875,0.4375,1.75,94
95,1696243941882,-0.119628906,-0.97979736,0.1539917,3.453125,-1.4375,1.21875,95
96,1696243941922,-0.107421875,-0.9793091,0.13934326,2.109375,-1.21875,1.46875,96
97,1696243941962,-0.10595703,-0.9746704,0.1473999,1.984375,-1.296875,1.1875,97
98,1696243942002,-0.10913086,-0.9898071,0.13201904,-0.15625,-0.71875,0.5,98
99,1696243942042,-0.10839844,-0.9710083,0.1449585,0.140625,-1.125,0.75,99
100,1696243942082,-0.09423828,-0.9817505,0.1449585,-0.265625,0.0,0.984375,100
101,1696243942122,-0.115478516,-0.9859009,0.14984131,-0.3125,-0.828125,0.5,101
102,1696243942162,-0.103759766,-0.97662354,0.14959717,-0.375,-1.375,0.546875,102
103,1696243942202,-0.100097656,-0.991272,0.14324951,-0.65625,-0.765625,0.890625,103
104,1696243942242,-0.09887695,-0.9817505,0.13763428,-0.640625,-1.015625,0.375,104
105,1696243942282,-0.10473633,-0.97320557,0.1486206,0.609375,-1.34375,0.609375,105
106,1696243942322,-0.08959961,-0.98760986,0.13275146,-0.390625,-0.453125,0.796875,106
107,1696243942362,-0.11010742,-0.9824829,0.14422607,-0.171875,-0.75,0.53125,107
108,1696243942402,-0.09643555,-0.9812622,0.13983154,-0.34375,-0.65625,0.5,108
109,1696243942442,-0.09741211,-0.9807739,0.137146,-0.640625,-0.390625,0.328125,109
110,1696243942482,-0.10205078,-0.9800415,0.1461792,-0.34375,-0.390625,0.28125,110
111,1696243942522,-0.10180664,-0.9817505,0.14764404,0.0,-0.703125,0.3125,111
112,1696243942562,-0.1015625,-0.98101807,0.14324951,0.453125,-0.296875,0.421875,112
113,1696243942602,-0.09692383,-0.9805298,0.15350342,0.296875,-0.1875,0.34375,113
114,1696243942642,-0.10449219,-0.9763794,0.12957764,-0.125,-0.28125,0.390625,114
115,1696243942682,-0.103759766,-0.9949341,0.15179443,1.0625,-0.8125,0.4375,115
116,1696243942722,-0.08886719,-0.96832275,0.13397217,-0.875,0.5625,0.15625,116
117,1696243942762,-0.10644531,-0.98443604,0.1552124,1.046875,-0.640625,0.203125,117
118,1696243942802,-0.10205078,-0.9873657,0.15081787,0.21875,-0.171875,0.25,118
119,1696243942842,-0.09814453,-0.9800415,0.14227295,1.25,-0.40625,0.078125,119
120,1696243942882,-0.09887695,-0.98809814,0.14300537,0.375,-0.125,0.015625,120
121,1696243942922,-0.09838867,-0.98150635,0.13983154,0.359375,-0.6875,0.125,121
122,1696243942962,-0.10083008,-0.98321533,0.13763428,-0.234375,-0.59375,0.328125,122
123,1696243943002,-0.09448242,-0.9727173,0.14129639,-0.078125,-0.328125,0.046875,123
124,1696243943042,-0.10668945,-0.989563,0.1408081,-0.0625,-0.46875,0.109375,124
125,1696243943082,-0.09838867,-0.9788208,0.13983154,-0.21875,-0.828125,0.265625,125
126,1696243943122,-0.10180664,-0.9795532,0.1437378,-0.546875,-0.65625,0.0625,126
127,1696243943162,-0.104003906,-0.991272,0.13885498,0.109375,-0.734375,0.203125,127
128,1696243943202,-0.103515625,-0.986145,0.13983154,-0.21875,-0.765625,0.140625,128
129,1696243943242,-0.099609375,-0.9776001,0.13812256,0.0,-0.53125,0.171875,129
130,1696243943282,-0.10473633,-0.9871216,0.13885498,0.625,-1.140625,0.203125,130
131,1696243943322,-0.09716797,-0.9783325,0.14129639,0.296875,-0.484375,-0.109375,131
132,1696243943362,-0.100097656,-0.9854126,0.12371826,-0.984375,-0.640625,0.3125,132
133,1696243943402,-0.09741211,-0.9661255,0.13861084,-0.859375,0.078125,-0.203125,133
134,1696243943442,-0.09643555,-0.99957275,0.1449585,0.671875,-0.609375,0.390625,134
135,1696243943482,-0.09887695,-0.9776001,0.13690186,-0.53125,-0.640625,0.078125,135
136,1696243943522,-0.09838867,-0.987854,0.14569092,-0.171875,-0.28125,0.21875,136
137,1696243943562,-0.09887695,-0.9793091,0.13885498,-0.625,-0.453125,0.140625,137
138,1696243943602,-0.103515625,-0.99005127,0.1437378,0.171875,-0.65625,0.53125,138
139,1696243943642,-0.09667969,-0.9788208,0.14520264,-0.703125,-0.171875,0.140625,139
140,1696243943682,-0.10595703,-0.9751587,0.1449585,-0.171875,-0.046875,0.390625,140
141,1696243943722,-0.09765625,-0.987854,0.14300537,-0.15625,-0.71875,0.140625,141
142,1696243943762,-0.10180664,-0.9859009,0.13787842,-0.5625,-0.3125,-0.265625,142
143,1696243943802,-0.1105957,-0.97491455,0.14935303,-0.140625,-0.3125,0.078125,143
144,1696243943842,-0.103759766,-0.9817505,0.15179443,0.296875,-0.515625,0.265625,144
145,1696243943882,-0.10449219,-0.9871216,0.1473999,-0.34375,-0.4375,0.109375,145
146,1696243943922,-0.096191406,-0.97320557,0.14105225,-0.6875,-0.09375,-0.09375,146
147,1696243943962,-0.109375,-0.9783325,0.14398193,-0.09375,-0.59375,0.265625,147
148,1696243944002,-0.099853516,-0.989563,0.13763428,-0.671875,-0.75,0.234375,148
149,1696243944042,-0.10131836,-0.9768677,0.16522217,1.140625,-0.421875,0.25,149
150,1696243944082,-0.10180664,-0.9849243,0.11907959,-0.25,-0.3125,0.5,150
151,1696243944122,-0.103271484,-0.9751587,0.1473999,1.859375,-0.390625,0.234375,151
152,1696243944162,-0.10424805,-0.98321533,0.1449585,0.921875,0.046875,0.25,152
153,1696243944202,-0.10498047,-0.9846802,0.1408081,-0.265625,-0.140625,0.21875,153
154,1696243944242,-0.1003418,-0.9800415,0.13861084,0.21875,-0.203125,0.078125,154
155,1696243944282,-0.09741211,-0.98883057,0.1383667,0.984375,-0.5,0.328125,155
156,1696243944322,-0.10888672,-0.9841919,0.14251709,0.046875,-0.234375,0.484375,156
157,1696243944362,-0.0949707,-0.9678345,0.137146,1.0,-0.6875,-0.109375,157
158,1696243944402,-0.09838867,-0.9837036,0.13397217,0.703125,-0.40625,0.28125,158
159,1696243944442,-0.111083984,-0.98809814,0.13568115,1.546875,-0.5625,0.40625,159
160,1696243944482,-0.0925293,-0.98223877,0.12542725,2.921875,-0.96875,0.296875,160
161,1696243944522,-0.09472656,-0.98272705,0.12200928,3.703125,0.375,0.921875,161
162,1696243944562,-0.114746094,-0.9866333,0.1305542,2.375,0.484375,0.96875,162
163,1696243944602,-0.099609375,-0.9829712,0.11932373,1.40625,-0.015625,0.703125,163
164,1696243944642,-0.095703125,-0.9780884,0.1281128,1.40625,-0.0625,0.9375,164
165,1696243944682,-0.10107422,-0.9873657,0.120788574,0.640625,-0.140625,0.515625,165
166,1696243944722,-0.09667969,-0.98272705,0.1161499,-0.34375,-0.046875,0.53125,166
167,1696243944762,-0.09301758,-0.98223877,0.13104248,0.90625,-0.359375,0.6875,167
168,1696243944802,-0.08642578,-0.9871216,0.121276855,-0.140625,0.15625,0.390625,168
169,1696243944842,-0.10253906,-0.98321533,0.109802246,0.109375,-0.578125,0.1875,169
170,1696243944882,-0.09472656,-0.97320557,0.11126709,-0.25,0.203125,0.203125,170
171,1696243944922,-0.107421875,-0.99835205,0.11956787,1.046875,-0.359375,0.8125,171
172,1696243944962,-0.08544922,-0.9902954,0.121520996,-0.03125,0.140625,0.125,172
173,1696243945002,-0.09472656,-0.9771118,0.11053467,-0.265625,0.296875,0.234375,173
174,1696243945042,-0.09765625,-0.9866333,0.11541748,0.0625,0.5625,0.125,174
175,1696243945082,-0.083496094,-1.0176392,0.1329956,-3.453125,3.453125,0.34375,175
176,1696243945122,-0.109375,-1.000061,0.12591553,-5.703125,1.140625,-0.171875,176
177,1696243945162,-0.099365234,-0.954895,0.13153076,-5.015625,-0.828125,-1.96875,177
178,1696243945202,-0.109375,-0.99102783,0.14837646,-4.609375,-1.59375,-1.4375,178
179,1696243945242,-0.099853516,-1.0003052,0.14349365,-5.109375,-1.609375,-1.140625,179
180,1696243945282,-0.10644531,-0.97247314,0.14886475,-3.875,-1.703125,-1.625,180
181,1696243945322,-0.11206055,-0.9776001,0.15863037,-3.65625,-0.875,-0.5,181
182,1696243945362,-0.10839844,-0.97491455,0.1473999,-2.984375,-0.71875,-0.40625,182
183,1696243945402,-0.1081543,-0.9631958,0.1630249,0.703125,-1.453125,0.140625,183
184,1696243945442,-0.08618164,-0.97979736,0.13104248,2.796875,-1.046875,1.21875,184
185,1696243945482,-0.107666016,-0.97320557,0.15130615,4.484375,-0.890625,0.8125,185
186,1696243945522,-0.10546875,-0.9849243,0.15325928,3.375,-2.203125,1.15625,186
187,1696243945562,-0.09399414,-0.97125244,0.15252686,2.03125,-1.75,0.90625,187
188,1696243945602,-0.107177734,-0.98883057,0.1515503,0.109375,-0.609375,0.765625,188
189,1696243945642,-0.10058594,-0.9829712,0.13690186,-0.53125,-0.484375,0.1875,189
190,1696243945682,-0.10595703,-0.96881104,0.15423584,0.8125,-0.78125,0.375,190
191,1696243945722,-0.099609375,-0.989563,0.12689209,-0.859375,-0.3125,0.625,191
192,1696243945762,-0.099609375,-0.98443604,0.14715576,-0.125,-0.953125,0.46875,192
193,1696243945802,-0.10864258,-0.9924927,0.14349365,0.703125,-1.34375,0.5625,193
194,1696243945842,-0.09838867,-0.9780884,0.13641357,-0.4375,-1.203125,0.21875,194
195,1696243945882,-0.10986328,-0.9800415,0.14349365,-0.03125,-0.828125,0.03125,195
196,1696243945922,-0.0871582,-0.97906494,0.1317749,-0.6875,-0.640625,0.1875,196
197,1696243945962,-0.103271484,-0.9932251,0.152771,-0.5625,-1.203125,-0.03125,197
198,1696243946002,-0.09692383,-0.97320557,0.14642334,-0.125,-0.546875,-0.015625,198
199,1696243946042,-0.10253906,-0.98394775,0.15032959,-0.046875,-0.4375,0.234375,199
200,1696243946082,-0.10083008,-0.9807739,0.14837646,0.296875,-0.65625,0.40625,200
201,1696243946122,-0.09692383,-0.9883423,0.13812256,0.109375,-0.65625,0.03125,201
202,1696243946162,-0.10083008,-0.98028564,0.15423584,0.40625,-0.53125,0.203125,202
203,1696243946202,-0.09375,-0.98150635,0.13861084,0.703125,-0.625,0.28125,203
204,1696243946242,-0.103515625,-0.9846802,0.14154053,0.359375,-0.90625,0.046875,204
205,1696243946282,-0.099609375,-0.9805298,0.14129639,0.609375,-0.71875,0.21875,205
206,1696243946322,-0.100097656,-0.98809814,0.14300537,0.703125,-0.65625,0.65625,206
207,1696243946362,-0.10180664,-0.9902954,0.13568115,0.5625,-0.59375,0.1875,207
208,1696243946402,-0.095703125,-0.96588135,0.15887451,1.15625,-0.609375,0.125,208
209,1696243946442,-0.09765625,-0.9837036,0.13665771,0.265625,0.078125,0.4375,209
210,1696243946482,-0.110839844,-0.98883057,0.14398193,0.78125,-0.625,0.265625,210
211,1696243946522,-0.09448242,-0.9763794,0.1305542,-1.140625,0.375,0.0,211
212,1696243946562,-0.109375,-0.97784424,0.15423584,0.46875,-0.375,0.203125,212
213,1696243946602,-0.1003418,-0.9763794,0.14544678,0.265625,-0.421875,0.25,213
214,1696243946642,-0.10473633,-0.97735596,0.14666748,0.875,0.078125,0.171875,214
215,1696243946682,-0.10498047,-0.98394775,0.14154053,0.1875,0.0,0.265625,215
216,1696243946722,-0.10498047,-0.9837036,0.14007568,0.65625,-0.890625,0.109375,216
217,1696243946762,-0.103759766,-0.9817505,0.12445068,-0.0625,-0.4375,0.578125,217
218,1696243946802,-0.099609375,-0.97979736,0.121276855,-0.1875,-0.1875,0.21875,218
219,1696243946842,-0.09667969,-0.9873657,0.14276123,0.3125,-0.46875,0.5,219
220,1696243946882,-0.103027344,-0.98272705,0.14422607,-0.109375,-0.5625,0.203125,220
221,1696243946922,-0.103515625,-0.9859009,0.13446045,0.546875,-0.203125,0.375,221
222,1696243946962,-0.09643555,-0.9817505,0.12347412,-0.234375,-0.21875,0.40625,222
223,1696243947002,-0.10644531,-0.9776001,0.14105225,0.171875,-0.09375,0.28125,223
224,1696243947042,-0.09814453,-0.97613525,0.1305542,0.171875,-0.265625,0.40625,224
225,1696243947082,-0.10180664,-0.9871216,0.13739014,0.171875,-0.640625,0.34375,225
226,1696243947122,-0.107421875,-0.9859009,0.13494873,-0.203125,-0.3125,0.234375,226
227,1696243947162,-0.09790039,-0.97784424,0.13226318,-0.171875,-0.625,0.234375,227
228,1696243947202,-0.10107422,-0.9817505,0.13226318,-0.421875,-0.515625,0.3125,228
229,1696243947242,-0.09814453,-0.98565674,0.13323975,-0.390625,-0.625,0.140625,229
230,1696243947282,-0.10498047,-0.98760986,0.14886475,0.953125,-1.28125,0.375,230
231,1696243947322,-0.08618164,-0.98101807,0.11248779,-1.171875,-0.015625,0.0625,231
232,1696243947362,-0.10644531,-0.9788208,0.14422607,0.671875,-0.4375,0.125,232
233,1696243947402,-0.10229492,-0.9932251,0.14471436,0.109375,-0.5625,0.328125,233
234,1696243947442,-0.09350586,-0.97662354,0.13885498,-0.5,-0.296875,-0.15625,234
235,1696243947482,-0.099609375,-0.97442627,0.13372803,-0.25,-0.21875,0.109375,235
236,1696243947522,-0.0949707,-0.987854,0.13226318,-0.46875,-0.296875,0.078125,236
237,1696243947562,-0.09887695,-0.99102783,0.14202881,-0.625,-0.65625,-0.15625,237
238,1696243947602,-0.09667969,-0.9788208,0.14227295,-0.15625,-0.4375,0.1875,238
239,1696243947642,-0.09667969,-0.98443604,0.12982178,-0.203125,-0.09375,0.0,239
240,1696243947682,-0.1105957,-0.989563,0.14349365,-0.265625,-0.8125,0.171875,240
241,1696243947722,-0.1027832,-0.989563,0.13616943,-0.078125,-0.390625,0.171875,241
242,1696243947762,-0.10253906,-0.9859009,0.14227295,0.09375,-0.6875,0.1875,242
243,1696243947802,-0.095458984,-0.9758911,0.12908936,-0.265625,-0.421875,0.171875,243
244,1696243947842,-0.10473633,-0.99176025,0.13861084,0.015625,-0.734375,0.078125,244
245,1696243947882,-0.10498047,-0.9758911,0.1437378,-0.234375,-0.5625,0.03125,245
246,1696243947922,-0.106933594,-0.9763794,0.14056396,0.015625,-0.203125,0.09375,246
247,1696243947962,-0.103515625,-0.9873657,0.14129639,0.078125,-0.4375,0.09375,247
248,1696243948002,-0.09692383,-0.98760986,0.13787842,-0.234375,-0.234375,0.296875,248
249,1696243948042,-0.11254883,-0.98028564,0.14837646,0.40625,-0.984375,0.25,249
250,1696243948082,-0.088378906,-0.9841919,0.12249756,0.0,-0.375,-0.015625,250
251,1696243948122,-0.111816406,-0.9956665,0.13494873,0.75,-0.859375,0.5,251
252,1696243948162,-0.09814453,-0.97320557,0.13543701,-0.5625,0.5625,0.28125,252
253,1696243948202,-0.1105957,-0.98150635,0.13421631,0.859375,-0.265625,0.15625,253
254,1696243948242,-0.1003418,-0.9859009,0.13104248,-0.203125,-0.125,0.296875,254
255,1696243948282,-0.099365234,-0.98394775,0.13787842,-0.640625,0.09375,0.171875,255
256,1696243948322,-0.103027344,-0.9866333,0.13739014,-0.671875,-0.40625,0.0625,256
257,1696243948362,-0.10180664,-0.975647,0.15203857,1.203125,-0.71875,0.15625,257
258,1696243948402,-0.09716797,-0.9807739,0.13421631,0.421875,-0.015625,0.4375,258
259,1696243948442,-0.103027344,-0.97662354,0.13543701,1.5625,-0.375,0.28125,259
260,1696243948482,-0.10668945,-0.9795532,0.13226318,1.1875,0.03125,0.78125,260
261,1696243948522,-0.09643555,-0.9873657,0.12225342,1.59375,-0.15625,0.578125,261
262,1696243948562,-0.099853516,-0.9866333,0.13348389,0.921875,-0.46875,0.15625,262
263,1696243948602,-0.09765625,-0.9788208,0.12591553,1.25,-0.46875,0.578125,263
264,1696243948642,-0.099365234,-0.9898071,0.13421631,1.40625,-0.03125,0.65625,264
265,1696243948682,-0.09838867,-0.98809814,0.11883545,1.1875,-0.21875,0.546875,265
266,1696243948722,-0.09692383,-0.9783325,0.12371826,0.953125,0.09375,0.5,266
267,1696243948762,-0.10522461,-0.9932251,0.12835693,1.578125,-0.859375,0.796875,267
268,1696243948802,-0.09741211,-0.989563,0.120788574,0.546875,-0.296875,0.34375,268
269,1696243948842,-0.09057617,-0.9807739,0.121520996,0.203125,-0.421875,0.453125,269
270,1696243948882,-0.091308594,-0.97979736,0.11541748,1.1875,-0.671875,0.78125,270
271,1696243948922,-0.092285156,-0.98883057,0.13543701,1.171875,-0.28125,0.75,271
272,1696243948962,-0.09277344,-0.9793091,0.11126709,-0.078125,-0.375,-0.015625,272
273,1696243949002,-0.09423828,-0.97613525,0.11639404,0.515625,-0.0625,0.515625,273
274,1696243949042,-0.09887695,-1.00177,0.11102295,0.625,-0.390625,0.640625,274
275,1696243949082,-0.09350586,-0.9805298,0.11248779,0.0,-0.078125,-0.171875,275
276,1696243949122,-0.10229492,-0.9824829,0.11785889,0.03125,-0.296875,0.359375,276
277,1696243949162,-0.09692383,-0.9883423,0.11199951,0.453125,-0.296875,0.4375,277
278,1696243949202,-0.0925293,-0.9907837,0.11175537,0.375,-0.546875,0.421875,278
279,1696243949242,-0.09790039,-0.97979736,0.11029053,0.15625,-0.25,0.4375,279
280,1696243949282,-0.09277344,-0.9859009,0.11273193,0.390625,-0.046875,0.484375,280
281,1696243949322,-0.08984375,-0.9898071,0.11199951,0.25,-0.296875,0.484375,281
282,1696243949362,-0.09448242,-0.9805298,0.11639404,0.265625,-0.453125,0.453125,282
283,1696243949402,-0.09423828,-0.9890747,0.109313965,0.140625,-0.265625,0.328125,283
284,1696243949442,-0.09301758,-0.9841919,0.11199951,0.53125,-0.578125,0.265625,284
285,1696243949482,-0.103271484,-0.9834595,0.11273193,0.984375,-0.3125,0.1875,285
286,1696243949522,-0.103515625,-0.99298096,0.10882568,0.46875,-0.140625,0.53125,286
287,1696243949562,-0.092285156,-0.9866333,0.11444092,0.140625,-0.5,0.265625,287
288,1696243949602,-0.09106445,-0.989563,0.105407715,-0.140625,-0.375,0.4375,288
289,1696243949642,-0.0949707,-0.9937134,0.109069824,-0.171875,-0.8125,0.453125,289
290,1696243949682,-0.09863281,-0.98638916,0.10662842,0.234375,-0.875,0.59375,290
291,1696243949722,-0.08520508,-0.9763794,0.11395264,-0.015625,0.5625,0.421875,291
292,1696243949762,-0.080566406,-0.9746704,0.10369873,-0.34375,0.109375,0.046875,292
293,1696243949802,-0.09008789,-0.98028564,0.113708496,-0.71875,0.203125,0.25,293
294,1696243949842,-0.0949707,-0.9883423,0.11102295,-0.140625,0.15625,0.34375,294
295,1696243949882,-0.09033203,-0.98516846,0.116882324,-1.203125,0.796875,-0.140625,295
296,1696243949922,-0.099365234,-1.0015259,0.12054443,-3.671875,3.375,0.078125,296
297,1696243949962,-0.11206055,-1.0112915,0.13909912,-5.296875,2.046875,-0.8125,297
298,1696243950002,-0.095947266,-0.9849243,0.14959717,-5.359375,-0.609375,-2.0625,298
299,1696243950042,-0.10253906,-0.972229,0.14520264,-5.421875,-2.109375,-0.953125,299
300,1696243950082,-0.095947266,-0.98638916,0.15228271,-4.375,-0.359375,-0.109375,300
301,1696243950122,-0.10253906,-0.98931885,0.15106201,-4.453125,0.375,0.0,301
302,1696243950162,-0.110839844,-0.96343994,0.14007568,-3.859375,0.234375,0.0,302
303,1696243950202,-0.0925293,-0.9612427,0.14984131,-1.71875,-0.390625,-0.125,303
304,1696243950242,-0.09838867,-0.9776001,0.15789795,2.5625,-1.328125,-0.296875,304
305,1696243950282,-0.0715332,-0.97491455,0.1305542,5.984375,-1.0,1.5,305
306,1696243950322,-0.095947266,-0.97735596,0.13250732,6.40625,-1.875,1.765625,306
307,1696243950362,-0.11621094,-0.9834595,0.13543701,4.484375,-3.296875,1.40625,307
308,1696243950402,-0.08544922,-0.97320557,0.13128662,2.0,-2.09375,0.796875,308
309,1696243950442,-0.10498047,-0.9907837,0.13641357,0.265625,-2.171875,0.546875,309
310,1696243950482,-0.10253906,-0.97735596,0.120788574,-1.25,-1.671875,0.03125,310
311,1696243950522,-0.07885742,-1.0090942,0.12054443,-0.96875,-0.46875,0.140625,311
312,1696243950562,-0.10449219,-0.9990845,0.14788818,-0.328125,-0.859375,0.5625,312
313,1696243950602,-0.09375,-0.98565674,0.14276123,-0.8125,-0.96875,0.25,313
314,1696243950642,-0.10180664,-0.98516846,0.14007568,-0.875,-1.03125,0.21875,314
315,1696243950682,-0.103759766,-0.9780884,0.13446045,-0.796875,-0.296875,0.078125,315
316,1696243950722,-0.092041016,-0.98394775,0.13104248,-0.796875,-0.375,-0.25,316
317,1696243950762,-0.087646484,-0.9932251,0.13763428,-0.40625,-0.53125,0.109375,317
318,1696243950802,-0.09399414,-0.9807739,0.12762451,-1.078125,-0.328125,-0.09375,318
319,1696243950842,-0.09350586,-0.98321533,0.13397217,-0.3125,-0.046875,0.078125,319
320,1696243950882,-0.09692383,-0.9885864,0.13763428,0.203125,-0.109375,0.15625,320
321,1696243950922,-0.09106445,-0.98638916,0.14105225,0.546875,0.65625,0.046875,321
322,1696243950962,-0.09399414,-0.98223877,0.13616943,0.125,0.4375,0.296875,322
323,1696243951002,-0.10644531,-0.9866333,0.14202881,0.171875,-0.25,0.21875,323
324,1696243951042,-0.096191406,-0.98394775,0.1395874,0.28125,-0.015625,0.40625,324
325,1696243951082,-0.09301758,-0.9788208,0.1317749,-0.671875,-0.671875,-0.09375,325
326,1696243951122,-0.0925293,-0.9795532,0.13323975,1.328125,-0.90625,0.46875,326
327,1696243951162,-0.099853516,-0.986145,0.15325928,1.078125,-0.84375,0.375,327
328,1696243951202,-0.092041016,-0.9829712,0.12567139,0.171875,-0.78125,0.046875,328
329,1696243951242,-0.09033203,-0.96954346,0.13153076,0.203125,-0.140625,0.1875,329
330,1696243951282,-0.104003906,-0.9915161,0.1515503,1.015625,-1.0625,0.328125,330
331,1696243951322,-0.09057617,-0.973938,0.13031006,0.5625,-0.953125,0.234375,331
332,1696243951362,-0.09667969,-0.9824829,0.1317749,0.78125,-0.53125,0.171875,332
333,1696243951402,-0.10546875,-0.98883057,0.13690186,0.125,-0.9375,0.0,333
334,1696243951442,-0.092041016,-0.98321533,0.1251831,0.140625,-0.921875,0.046875,334
335,1696243951482,-0.092041016,-0.9812622,0.12640381,-0.640625,-0.53125,0.21875,335
336,1696243951522,-0.10253906,-0.98760986,0.13739014,-0.09375,0.015625,0.484375,336
337,1696243951562,-0.09692383,-0.98443604,0.1486206,0.484375,-0.4375,0.203125,337
338,1696243951602,-0.104003906,-0.98101807,0.12957764,0.890625,-0.953125,0.609375,338
339,1696243951642,-0.095458984,-0.986145,0.13201904,1.234375,-0.515625,0.71875,339
340,1696243951682,-0.09448242,-0.9866333,0.12567139,1.484375,-0.46875,0.5,340
341,1696243951722,-0.09863281,-0.98272705,0.12615967,1.375,-0.390625,0.640625,341
342,1696243951762,-0.09741211,-0.9788208,0.12200928,1.4375,-0.46875,0.875,342
343,1696243951802,-0.087646484,-0.99591064,0.10736084,1.453125,-1.09375,0.75,343
344,1696243951842,-0.092285156,-0.9692993,0.13128662,1.03125,-0.125,0.265625,344
345,1696243951882,-0.091552734,-0.98931885,0.11590576,0.546875,-0.8125,0.40625,345
346,1696243951922,-0.079833984,-0.97979736,0.116882324,0.0,0.09375,0.421875,346
347,1696243951962,-0.09472656,-0.98565674,0.13153076,0.875,-0.59375,0.4375,347
348,1696243952002,-0.096191406,-0.98150635,0.13128662,0.171875,-0.3125,0.5,348
349,1696243952042,-0.09350586,-0.9859009,0.11444092,0.640625,-0.265625,0.46875,349
350,1696243952082,-0.09741211,-0.98272705,0.11932373,0.15625,-0.359375,-0.015625,350
351,1696243952122,-0.09008789,-0.98809814,0.112976074,0.609375,-0.46875,0.296875,351
352,1696243952162,-0.08886719,-0.9837036,0.12249756,0.078125,-0.328125,0.390625,352
353,1696243952202,-0.099609375,-0.9837036,0.11956787,0.328125,-0.3125,0.375,353
354,1696243952242,-0.088378906,-0.9841919,0.11053467,0.21875,-0.34375,0.34375,354
355,1696243952282,-0.09301758,-0.9812622,0.11395264,0.515625,-0.171875,0.15625,355
356,1696243952322,-0.08569336,-0.98443604,0.113220215,0.578125,-0.25,0.265625,356
357,1696243952362,-0.095703125,-0.9898071,0.11444092,0.40625,-0.671875,0.375,357
358,1696243952402,-0.09716797,-0.97613525,0.10858154,0.171875,-0.453125,0.3125,358
359,1696243952442,-0.09033203,-0.9885864,0.11859131,0.03125,-0.40625,0.125,359
360,1696243952482,-0.09350586,-0.9829712,0.11273193,0.359375,-0.421875,0.484375,360
361,1696243952522,-0.08520508,-0.98809814,0.1083374,-0.328125,-0.046875,0.15625,361
362,1696243952562,-0.092285156,-0.98931885,0.121032715,0.359375,-0.96875,0.46875,362
363,1696243952602,-0.08618164,-0.97320557,0.09881592,-0.984375,0.484375,-0.09375,363
364,1696243952642,-0.10107422,-0.9924927,0.12322998,0.890625,-0.640625,0.4375,364
365,1696243952682,-0.09472656,-0.9859009,0.11785889,-0.171875,-0.53125,0.125,365
366,1696243952722,-0.08935547,-0.98101807,0.11883545,-0.09375,-0.140625,0.171875,366
367,1696243952762,-0.09423828,-0.9866333,0.1227417,-0.109375,-0.390625,0.359375,367
368,1696243952802,-0.099121094,-0.99005127,0.12005615,0.953125,-0.546875,0.453125,368
369,1696243952842,-0.0871582,-0.98321533,0.11077881,-0.375,0.015625,0.34375,369
370,1696243952882,-0.08569336,-0.98565674,0.10882568,-0.0625,-0.421875,0.28125,370
371,1696243952922,-0.092285156,-0.98638916,0.117126465,0.109375,-0.671875,0.421875,371
372,1696243952962,-0.09082031,-0.9920044,0.10858154,-0.3125,-0.546875,0.265625,372
373,1696243953002,-0.087646484,-0.9780884,0.11981201,0.203125,-0.875,0.28125,373
374,1696243953042,-0.091796875,-0.98687744,0.113220215,0.34375,-0.53125,0.578125,374
375,1696243953082,-0.0859375,-0.9834595,0.11004639,-0.28125,-0.046875,0.015625,375
376,1696243953122,-0.10058594,-0.99102783,0.11785889,-0.265625,-0.484375,-0.03125,376
377,1696243953162,-0.08105469,-0.9758911,0.117614746,-0.21875,-0.125,0.40625,377
378,1696243953202,-0.088378906,-0.99102783,0.1227417,-0.4375,-0.375,0.21875,378
379,1696243953242,-0.08959961,-0.9920044,0.11810303,-0.515625,0.109375,0.375,379
380,1696243953282,-0.1015625,-0.9849243,0.11395264,0.140625,-1.25,0.3125,380
381,1696243953322,-0.07885742,-0.97198486,0.101989746,0.3125,0.859375,0.578125,381
382,1696243953362,-0.09716797,-0.99346924,0.11273193,0.59375,-0.21875,0.125,382
383,1696243953402,-0.091308594,-0.9859009,0.109313965,0.125,-0.78125,0.203125,383
384,1696243953442,-0.08886719,-0.98809814,0.117126465,0.578125,0.078125,0.53125,384
385,1696243953482,-0.08984375,-0.9866333,0.11004639,0.234375,-0.625,0.328125,385
386,1696243953522,-0.083496094,-0.9771118,0.124694824,1.09375,-0.078125,0.21875,386
387,1696243953562,-0.099609375,-0.9915161,0.11468506,0.171875,-0.28125,0.484375,387
388,1696243953602,-0.09082031,-0.9741821,0.113464355,0.296875,-0.15625,0.484375,388
389,1696243953642,-0.09863281,-1.00177,0.109558105,0.453125,-0.4375,0.53125,389
390,1696243953682,-0.08959961,-0.98516846,0.109558105,0.109375,-0.40625,0.34375,390
391,1696243953722,-0.08691406,-0.986145,0.105163574,0.109375,-0.234375,0.171875,391
392,1696243953762,-0.08691406,-0.9859009,0.11077881,0.328125,-0.296875,0.390625,392
393,1696243953802,-0.091796875,-0.9817505,0.1071167,0.375,-0.09375,0.125,393
394,1696243953842,-0.087646484,-0.98321533,0.10296631,0.75,-0.59375,0.1875,394
395,1696243953882,-0.091552734,-0.9829712,0.11151123,0.5625,-0.390625,0.4375,395
396,1696243953922,-0.09692383,-0.99298096,0.10223389,0.421875,-0.53125,0.71875,396
397,1696243953962,-0.07446289,-0.9927368,0.09661865,0.28125,-1.09375,0.453125,397
398,1696243954002,-0.08544922,-0.98223877,0.11395264,0.859375,0.109375,0.671875,398
399,1696243954042,-0.08276367,-0.98760986,0.093444824,0.59375,-0.25,0.484375,399
400,1696243954082,-0.08496094,-0.9902954,0.10687256,0.90625,-0.390625,0.65625,400
401,1696243954122,-0.09008789,-1.0032349,0.10321045,1.5,-1.125,0.921875,401
402,1696243954162,-0.079833984,-0.9783325,0.097839355,0.171875,-0.3125,0.171875,402
403,1696243954202,-0.08642578,-0.9805298,0.10662842,0.6875,-0.46875,0.328125,403
404,1696243954242,-0.09448242,-0.9951782,0.10223389,0.65625,-0.484375,0.328125,404
405,1696243954282,-0.07910156,-0.98760986,0.0927124,-0.1875,-0.671875,-0.015625,405
406,1696243954322,-0.07788086,-0.97906494,0.09100342,0.203125,-0.328125,0.515625,406
407,1696243954362,-0.080566406,-0.991272,0.09954834,0.125,0.234375,0.671875,407
408,1696243954402,-0.091308594,-0.99468994,0.101501465,-0.359375,-0.265625,-0.03125,408
409,1696243954442,-0.0793457,-0.9849243,0.10223389,-0.59375,-0.171875,0.234375,409
410,1696243954482,-0.08666992,-0.9817505,0.09906006,-0.015625,-0.46875,0.578125,410
411,1696243954522,-0.09082031,-0.9849243,0.09515381,0.203125,-0.3125,0.3125,411
412,1696243954562,-0.08325195,-0.9956665,0.10662842,0.15625,0.0625,0.46875,412
413,1696243954602,-0.083496094,-0.98394775,0.09954834,0.15625,0.3125,0.34375,413
414,1696243954642,-0.08178711,-0.98760986,0.10443115,0.140625,0.140625,0.359375,414
415,1696243954682,-0.083984375,-0.9885864,0.10296631,-0.5,-0.046875,0.296875,415
416,1696243954722,-0.07421875,-0.9841919,0.109313965,-1.015625,1.09375,-0.546875,416
417,1696243954762,-0.08618164,-0.9985962,0.13323975,-0.328125,0.3125,-0.03125,417
418,1696243954802,-0.07055664,-0.9951782,0.08001709,-5.75,-1.375,-2.046875,418
419,1696243954842,-0.12207031,-0.975647,0.11517334,-4.640625,-0.5,-2.96875,419
420,1696243954882,-0.099121094,-0.9981079,0.11663818,-5.078125,-1.0625,-2.40625,420
421,1696243954922,-0.08544922,-0.9780884,0.12860107,-4.4375,-2.40625,-2.140625,421
422,1696243954962,-0.10449219,-0.9907837,0.124938965,-4.453125,-1.515625,-1.28125,422
423,1696243955002,-0.107421875,-0.991272,0.14471436,-4.84375,-0.90625,-1.046875,423
424,1696243955042,-0.103271484,-0.9812622,0.13421631,-4.828125,-0.546875,-1.0,424
425,1696243955082,-0.103027344,-0.96295166,0.13031006,-2.203125,-1.8125,-0.546875,425
426,1696243955122,-0.10546875,-0.97125244,0.14691162,0.84375,-1.140625,0.3125,426
427,1696243955162,-0.080566406,-0.9702759,0.1293335,2.921875,0.125,1.890625,427
428,1696243955202,-0.083496094,-0.9690552,0.13201904,2.4375,-1.234375,0.703125,428
429,1696243955242,-0.11621094,-0.9768677,0.13470459,2.71875,-2.328125,0.953125,429
430,1696243955282,-0.088378906,-0.9783325,0.12738037,0.6875,-2.046875,1.015625,430
431,1696243955322,-0.10449219,-0.99346924,0.13763428,-0.125,-2.1875,0.171875,431
432,1696243955362,-0.09301758,-0.9776001,0.12835693,-0.734375,-0.5625,0.09375,432
433,1696243955402,-0.110839844,-0.9907837,0.14642334,0.65625,-1.625,0.15625,433
434,1696243955442,-0.09423828,-0.98809814,0.13323975,-0.09375,-0.34375,0.40625,434
435,1696243955482,-0.10986328,-0.97784424,0.14520264,0.71875,-1.578125,0.09375,435
436,1696243955522,-0.09033203,-0.98565674,0.12957764,-1.125,-0.40625,0.09375,436
437,1696243955562,-0.10986328,-0.98687744,0.13397217,0.171875,-1.328125,-0.0625,437
438,1696243955602,-0.10205078,-0.98883057,0.13226318,-0.015625,-1.03125,0.34375,438
439,1696243955642,-0.103271484,-0.9697876,0.14349365,0.15625,-0.234375,0.25,439
440,1696243955682,-0.107421875,-0.98638916,0.13275146,-0.515625,-0.453125,-0.03125,440
441,1696243955722,-0.103515625,-0.9866333,0.14593506,0.359375,-0.546875,-0.03125,441
442,1696243955762,-0.09326172,-0.97784424,0.12591553,-0.75,-0.375,0.265625,442
443,1696243955802,-0.11425781,-0.9729614,0.14154053,-0.015625,-0.46875,0.140625,443
444,1696243955842,-0.103271484,-0.98687744,0.13397217,-0.234375,-0.515625,0.265625,444
445,1696243955882,-0.111572266,-0.9837036,0.13128662,-0.171875,-0.84375,0.0625,445
446,1696243955922,-0.104003906,-0.98394775,0.14276123,-0.21875,-0.515625,0.03125,446
447,1696243955962,-0.103271484,-0.9849243,0.12957764,-0.125,-0.75,0.078125,447
448,1696243956002,-0.10205078,-0.9939575,0.14349365,0.1875,-1.0,0.09375,448
449,1696243956042,-0.10473633,-0.9800415,0.1359253,0.0,-0.984375,0.203125,449
450,1696243956082,-0.10668945,-0.9854126,0.14007568,0.46875,-0.921875,0.296875,450
451,1696243956122,-0.09692383,-0.98321533,0.137146,-0.0625,-0.609375,0.234375,451
452,1696243956162,-0.111816406,-0.99053955,0.15057373,0.53125,-0.96875,0.515625,452
453,1696243956202,-0.091308594,-0.9680786,0.124938965,-1.09375,0.390625,0.25,453
454,1696243956242,-0.115722656,-0.99102783,0.1329956,0.484375,-0.484375,0.234375,454
455,1696243956282,-0.10571289,-0.98760986,0.14398193,0.1875,-0.59375,0.125,455
456,1696243956322,-0.09692383,-0.98150635,0.13446045,-0.34375,-0.0625,-0.015625,456
457,1696243956362,-0.10620117,-0.9824829,0.1395874,0.546875,-0.484375,0.0625,457
458,1696243956402,-0.103759766,-0.9885864,0.14276123,0.21875,-0.875,0.234375,458
459,1696243956442,-0.107421875,-0.9805298,0.13665771,-0.484375,-0.15625,0.21875,459
460,1696243956482,-0.10644531,-0.9741821,0.12860107,-0.078125,-0.46875,0.09375,460
461,1696243956522,-0.09667969,-0.98101807,0.13397217,-0.046875,0.125,0.34375,461
462,1696243956562,-0.107666016,-0.9985962,0.13616943,-0.140625,-0.75,0.046875,462
463,1696243956602,-0.09814453,-0.98101807,0.13616943,-0.46875,-0.40625,0.265625,463
464,1696243956642,-0.10083008,-0.9859009,0.14178467,0.296875,-0.75,0.40625,464
465,1696243956682,-0.10253906,-0.97906494,0.14056396,-0.09375,-0.640625,0.40625,465
466,1696243956722,-0.10620117,-0.9859009,0.13568115,0.4375,-0.375,0.375,466
467,1696243956762,-0.10546875,-0.98223877,0.13739014,0.40625,-0.328125,0.296875,467
468,1696243956802,-0.114746094,-0.97979736,0.14031982,1.484375,-0.734375,0.484375,468
469,1696243956842,-0.09326172,-0.9795532,0.12347412,0.1875,0.5625,0.4375,469
470,1696243956882,-0.109375,-0.9902954,0.13104248,0.6875,-0.25,0.5,470
471,1696243956922,-0.09326172,-0.9793091,0.124694824,-0.65625,0.65625,0.234375,471
472,1696243956962,-0.111816406,-0.98443604,0.13861084,0.8125,-0.53125,0.25,472
473,1696243957002,-0.10229492,-0.9854126,0.13421631,-0.140625,-0.609375,0.15625,473
474,1696243957042,-0.10546875,-0.98809814,0.13665771,-0.125,-0.25,0.3125,474
475,1696243957082,-0.092041016,-0.98321533,0.13348389,0.125,-0.59375,0.375,475
476,1696243957122,-0.09643555,-0.9805298,0.1473999,0.984375,-0.953125,0.3125,476
477,1696243957162,-0.10449219,-0.97857666,0.1329956,-0.421875,-0.3125,0.390625,477
478,1696243957202,-0.111572266,-0.9751587,0.13275146,0.046875,-0.328125,0.3125,478
479,1696243957242,-0.09716797,-0.9763794,0.12615967,-0.578125,-0.46875,0.171875,479
480,1696243957282,-0.10839844,-0.9924927,0.12908936,0.21875,-0.59375,0.21875,480
481,1696243957322,-0.10107422,-0.97052,0.12860107,-0.03125,-0.015625,0.09375,481
482,1696243957362,-0.10473633,-0.98931885,0.13763428,0.328125,-0.265625,0.375,482
483,1696243957402,-0.09741211,-0.987854,0.13323975,-0.1875,-0.359375,0.578125,483
484,1696243957442,-0.10424805,-0.98638916,0.13250732,0.078125,-0.390625,0.375,484
485,1696243957482,-0.10205078,-0.9846802,0.13153076,-0.046875,-0.015625,0.3125,485
486,1696243957522,-0.09082031,-0.98687744,0.13470459,0.234375,-0.328125,0.390625,486
487,1696243957562,-0.09887695,-0.97906494,0.12664795,-0.8125,0.265625,-0.09375,487
488,1696243957602,-0.0949707,-0.98809814,0.13153076,-2.140625,2.03125,0.09375,488
489,1696243957642,-0.10888672,-1.0203247,0.19329834,-0.5625,1.421875,0.8125,489
490,1696243957682,-0.08935547,-0.97369385,0.10662842,-6.96875,2.03125,-0.1875,490
491,1696243957722,-0.11401367,-0.9746704,0.15814209,-2.71875,-1.09375,-1.171875,491
492,1696243957762,-0.114990234,-0.99542236,0.15350342,-3.953125,-0.84375,-0.5625,492
493,1696243957802,-0.09423828,-0.96588135,0.14666748,-3.828125,-0.3125,-0.984375,493
494,1696243957842,-0.1184082,-0.9795532,0.15594482,-2.1875,-1.015625,-0.828125,494
495,1696243957882,-0.092285156,-0.96832275,0.14764404,-1.5,-1.40625,-0.1875,495
496,1696243957922,-0.08642578,-0.9729614,0.14837646,2.921875,-1.984375,0.203125,496
497,1696243957962,-0.10253906,-0.9661255,0.14227295,1.5625,-1.453125,0.078125,497
498,1696243958002,-0.111816406,-0.9841919,0.1642456,4.015625,-2.078125,0.828125,498
499,1696243958042,-0.10595703,-0.9817505,0.15106201,3.078125,-2.453125,1.046875,499
500,1696243958082,-0.10668945,-0.9854126,0.14984131,1.265625,-2.21875,0.5,500
501,1696243958122,-0.107666016,-0.9771118,0.14520264,0.015625,-1.8125,0.34375,501
502,1696243958162,-0.103759766,-0.98394775,0.14056396,0.0625,-1.375,0.34375,502
503,1696243958202,-0.10180664,-0.9873657,0.14227295,-0.375,-1.265625,0.328125,503
504,1696243958242,-0.095947266,-0.97540283,0.15228271,-0.484375,-0.734375,0.359375,504
505,1696243958282,-0.1027832,-0.97784424,0.15789795,-0.4375,-0.609375,0.171875,505
506,1696243958322,-0.099853516,-0.9927368,0.14764404,-0.546875,-0.28125,0.296875,506
507,1696243958362,-0.09643555,-0.97613525,0.1281128,-0.25,-0.5,0.140625,507
508,1696243958402,-0.115478516,-0.9783325,0.1671753,1.0625,-0.953125,0.40625,508
509,1696243958442,-0.10058594,-0.987854,0.11932373,-1.765625,-0.5625,-0.078125,509
510,1696243958482,-0.10839844,-0.97247314,0.1486206,0.59375,-0.546875,-0.390625,510
511,1696243958522,-0.10888672,-0.9854126,0.15447998,1.46875,-1.421875,0.0625,511
512,1696243958562,-0.09765625,-0.99786377,0.1461792,0.625,-0.921875,-0.6875,512
513,1696243958602,-0.115478516,-0.9710083,0.13983154,-0.5625,0.03125,-0.234375,513
514,1696243958642,-0.107177734,-0.9829712,0.15423584,0.296875,-0.8125,-0.03125,514
515,1696243958682,-0.099853516,-0.9924927,0.1437378,-0.578125,-0.640625,0.078125,515
516,1696243958722,-0.10839844,-0.973938,0.13543701,0.09375,-0.71875,-0.15625,516
517,1696243958762,-0.10205078,-0.98516846,0.14447021,0.78125,-0.4375,0.203125,517
518,1696243958802,-0.107177734,-0.97784424,0.14886475,0.40625,-0.96875,0.171875,518
519,1696243958842,-0.10571289,-0.98101807,0.14031982,1.546875,-0.40625,0.15625,519
520,1696243958882,-0.11010742,-0.98516846,0.14422607,0.8125,-0.59375,0.484375,520
521,1696243958922,-0.10595703,-0.98687744,0.1408081,0.1875,-0.359375,0.3125,521
522,1696243958962,-0.103515625,-0.9717407,0.14349365,0.65625,-0.234375,0.171875,522
523,1696243959002,-0.11425781,-0.99053955,0.14569092,0.15625,-0.375,0.140625,523
524,1696243959042,-0.11010742,-0.973938,0.14202881,0.53125,-0.734375,0.125,524
525,1696243959082,-0.103759766,-0.99102783,0.14251709,1.125,-0.8125,0.421875,525
526,1696243959122,-0.106933594,-0.97247314,0.1329956,0.21875,0.203125,0.03125,526
527,1696243959162,-0.115722656,-0.9976196,0.14324951,1.46875,-0.8125,0.6875,527
528,1696243959202,-0.09814453,-0.97247314,0.14471436,0.75,0.171875,0.5625,528
529,1696243959242,-0.107910156,-0.9920044,0.11224365,-0.328125,-0.59375,0.3125,529
530,1696243959282,-0.10498047,-0.97125244,0.12713623,-0.515625,0.453125,0.265625,530
531,1696243959322,-0.123046875,-0.9968872,0.14544678,1.140625,-0.546875,0.5625,531
532,1696243959362,-0.103027344,-0.9834595,0.14007568,0.46875,-0.828125,0.46875,532
533,1696243959402,-0.10668945,-0.9768677,0.12591553,0.5625,0.1875,0.734375,533
534,1696243959442,-0.10498047,-0.99053955,0.12908936,0.078125,-0.140625,0.375,534
535,1696243959482,-0.103271484,-0.98028564,0.12982178,0.453125,-0.3125,0.21875,535
536,1696243959522,-0.1081543,-0.97735596,0.137146,-0.078125,-0.21875,0.34375,536
537,1696243959562,-0.10571289,-0.9834595,0.13006592,0.671875,0.109375,0.796875,537
538,1696243959602,-0.10620117,-0.9846802,0.13934326,0.203125,-0.125,0.4375,538
539,1696243959642,-0.10668945,-0.9729614,0.12176514,0.390625,-0.25,0.484375,539
540,1696243959682,-0.10473633,-0.9780884,0.12640381,0.671875,0.265625,0.671875,540
541,1696243959722,-0.10498047,-0.9961548,0.13226318,1.4375,-0.4375,0.6875,541
542,1696243959762,-0.08959961,-0.9834595,0.11102295,0.78125,-0.140625,0.484375,542
543,1696243959802,-0.10595703,-0.9824829,0.11981201,1.34375,-0.234375,0.484375,543
544,1696243959842,-0.10180664,-0.99053955,0.12542725,0.578125,-0.625,0.359375,544
545,1696243959882,-0.10961914,-0.9829712,0.1239624,0.234375,-0.703125,0.0625,545
546,1696243959922,-0.095947266,-0.9841919,0.11517334,2.984375,-0.296875,0.765625,546
547,1696243959962,-0.09423828,-0.9902954,0.109802246,2.265625,-0.671875,1.0,547
548,1696243960002,-0.10083008,-0.97857666,0.12200928,1.234375,0.171875,0.25,548
549,1696243960042,-0.095947266,-0.9788208,0.11175537,1.484375,-0.828125,0.609375,549
550,1696243960082,-0.08984375,-0.9819946,0.105407715,1.03125,0.15625,0.609375,550
551,1696243960122,-0.1015625,-0.991272,0.10687256,1.109375,-0.234375,0.78125,551
552,1696243960162,-0.09692383,-0.9734497,0.101745605,0.484375,0.0,0.140625,552
553,1696243960202,-0.09472656,-0.9920044,0.10101318,0.375,0.3125,1.046875,553
554,1696243960242,-0.09375,-0.9924927,0.105163574,-0.234375,-0.296875,0.328125,554
555,1696243960282,-0.103027344,-0.9898071,0.09979248,0.21875,-0.140625,0.5,555
556,1696243960322,-0.0949707,-0.9793091,0.105651855,-0.078125,-0.09375,0.328125,556
557,1696243960362,-0.10546875,-0.99713135,0.11590576,0.609375,0.203125,0.421875,557
558,1696243960402,-0.100097656,-0.98394775,0.11126709,-0.171875,-0.328125,0.25,558
559,1696243960442,-0.09448242,-0.9807739,0.10418701,-0.125,-0.375,0.140625,559
560,1696243960482,-0.10180664,-0.9854126,0.11126709,-0.25,-0.328125,0.3125,560
561,1696243960522,-0.092285156,-0.98150635,0.1083374,-0.078125,-0.234375,0.390625,561
562,1696243960562,-0.103027344,-0.98150635,0.109313965,0.171875,-0.203125,0.484375,562
563,1696243960602,-0.09423828,-0.98223877,0.1161499,0.171875,0.03125,0.53125,563
564,1696243960642,-0.09448242,-0.9841919,0.11102295,0.3125,-0.234375,0.5,564
565,1696243960682,-0.092041016,-0.9915161,0.105407715,0.546875,-0.46875,0.671875,565
566,1696243960722,-0.092285156,-0.98687744,0.11102295,0.359375,-0.4375,0.65625,566
567,1696243960762,-0.096191406,-0.9837036,0.109558105,0.9375,-0.984375,0.46875,567
568,1696243960802,-0.09033203,-0.98687744,0.10687256,0.40625,-0.140625,0.71875,568
569,1696243960842,-0.095703125,-0.9968872,0.09686279,-0.34375,-0.59375,0.3125,569
570,1696243960882,-0.080078125,-0.9717407,0.10638428,-0.78125,0.453125,0.125,570
571,1696243960922,-0.10449219,-0.99298096,0.10809326,0.609375,-0.171875,0.640625,571
572,1696243960962,-0.084228516,-0.97540283,0.11029053,-0.171875,-0.078125,0.09375,572
573,1696243961002,-0.095703125,-0.9837036,0.11517334,-0.0625,-0.234375,0.71875,573
574,1696243961042,-0.091796875,-0.9871216,0.10736084,-0.28125,-0.1875,0.375,574
575,1696243961082,-0.095947266,-0.98516846,0.10369873,0.546875,-0.671875,0.359375,575
576,1696243961122,-0.08325195,-0.97906494,0.0993042,-0.140625,-0.03125,0.359375,576
577,1696243961162,-0.09277344,-0.9829712,0.1083374,0.59375,-0.203125,0.25,577
578,1696243961202,-0.087890625,-0.98638916,0.11419678,-0.3125,-0.359375,0.171875,578
579,1696243961242,-0.092285156,-0.9800415,0.101989746,-0.25,-0.28125,0.078125,579
580,1696243961282,-0.09057617,-0.99835205,0.11859131,-3.015625,1.5625,-0.265625,580
581,1696243961322,-0.09399414,-1.0171509,0.14398193,-6.8125,2.484375,-0.21875,581
582,1696243961362,-0.11328125,-0.9927368,0.11834717,-8.109375,0.21875,-1.5625,582
583,1696243961402,-0.09887695,-0.9573364,0.14178467,-7.546875,-1.0625,-1.875,583
584,1696243961442,-0.1015625,-0.9763794,0.1305542,-3.75,-1.046875,-0.71875,584
585,1696243961482,-0.078125,-0.9661255,0.1486206,2.453125,-1.5,0.921875,585
586,1696243961522,-0.10424805,-0.98760986,0.120788574,1.703125,-1.09375,0.6875,586
587,1696243961562,-0.10107422,-0.9602661,0.13934326,2.140625,-0.6875,0.71875,587
588,1696243961602,-0.1003418,-0.98101807,0.12884521,1.8125,-1.515625,1.34375,588
589,1696243961642,-0.0859375,-0.97613525,0.12640381,-0.953125,-0.953125,0.046875,589
590,1696243961682,-0.09887695,-0.98883057,0.14471436,0.421875,-1.015625,0.234375,590
591,1696243961722,-0.09716797,-0.986145,0.13690186,-1.828125,-1.59375,-0.3125,591
592,1696243961762,-0.09350586,-0.9714966,0.1449585,-0.359375,-0.84375,0.09375,592
593,1696243961802,-0.09350586,-0.9902954,0.14300537,0.171875,-0.625,0.28125,593
594,1696243961842,-0.09375,-0.98809814,0.14154053,0.796875,-1.140625,0.09375,594
595,1696243961882,-0.08544922,-0.975647,0.14105225,0.203125,-0.828125,0.375,595
596,1696243961922,-0.09033203,-0.9890747,0.12567139,-0.015625,-0.78125,0.265625,596
597,1696243961962,-0.099609375,-0.9890747,0.14202881,0.03125,-1.03125,0.09375,597
598,1696243962002,-0.08862305,-0.987854,0.13031006,0.234375,-0.78125,0.234375,598
599,1696243962042,-0.10620117,-0.97979736,0.13763428,0.359375,-0.9375,0.34375,599
600,1696243962082,-0.09399414,-0.986145,0.13079834,0.40625,-1.140625,0.25,600
601,1696243962122,-0.095947266,-0.98638916,0.14031982,0.421875,-0.59375,0.109375,601
602,1696243962162,-0.09277344,-0.9746704,0.12713623,0.4375,-0.375,-0.015625,602
603,1696243962202,-0.09106445,-0.99176025,0.13787842,1.34375,-0.5625,0.28125,603
604,1696243962242,-0.09692383,-0.98638916,0.11785889,0.25,-0.46875,0.375,604
605,1696243962282,-0.09399414,-0.97784424,0.1515503,2.359375,-0.453125,0.390625,605
606,1696243962322,-0.0925293,-0.9920044,0.10687256,-1.421875,-0.03125,0.078125,606
607,1696243962362,-0.09301758,-0.9651489,0.13104248,0.359375,0.25,-0.046875,607
608,1696243962402,-0.103759766,-1.0120239,0.12445068,0.828125,-0.84375,0.796875,608
609,1696243962442,-0.09423828,-0.98565674,0.12884521,0.328125,-0.4375,0.40625,609
610,1696243962482,-0.09863281,-0.98272705,0.13128662,0.421875,-0.453125,0.234375,610
611,1696243962522,-0.09375,-0.98638916,0.11932373,0.140625,-0.671875,0.125,611
612,1696243962562,-0.095458984,-0.9956665,0.12908936,-0.140625,-0.375,0.15625,612
613,1696243962602,-0.0847168,-0.9871216,0.12225342,0.40625,-0.15625,0.484375,613
614,1696243962642,-0.10205078,-0.98443604,0.12982178,1.0625,-0.25,0.453125,614
615,1696243962682,-0.095703125,-0.9817505,0.11981201,0.71875,-0.09375,0.546875,615
616,1696243962722,-0.095458984,-0.9829712,0.12591553,1.296875,-0.390625,0.765625,616
617,1696243962762,-0.10058594,-0.9849243,0.11151123,0.234375,-0.390625,0.546875,617
618,1696243962802,-0.09667969,-0.98150635,0.13470459,1.4375,0.265625,0.375,618
619,1696243962842,-0.09765625,-0.9924927,0.12005615,-0.046875,-0.078125,0.859375,619
620,1696243962882,-0.088378906,-0.97613525,0.12347412,0.265625,0.015625,0.359375,620
621,1696243962922,-0.09399414,-0.9819946,0.11785889,0.34375,-0.328125,0.265625,621
622,1696243962962,-0.08544922,-0.9788208,0.1239624,0.078125,-0.015625,0.140625,622
623,1696243963002,-0.09692383,-0.9949341,0.109313965,0.1875,-0.90625,0.625,623
624,1696243963042,-0.0847168,-0.9776001,0.11444092,0.109375,0.453125,0.46875,624
625,1696243963082,-0.10058594,-0.9920044,0.1281128,0.78125,-0.09375,0.71875,625
626,1696243963122,-0.0871582,-0.9776001,0.11956787,-0.421875,-0.5,-0.234375,626
627,1696243963162,-0.09887695,-0.9854126,0.12225342,-0.125,-0.421875,0.484375,627
628,1696243963202,-0.09301758,-0.9849243,0.1227417,-0.265625,-0.5,0.234375,628
629,1696243963242,-0.09448242,-0.9898071,0.12176514,0.625,-0.890625,0.40625,629
630,1696243963282,-0.087890625,-0.98443604,0.12225342,0.15625,-0.4375,0.421875,630
631,1696243963322,-0.10107422,-0.9817505,0.12249756,0.375,-0.828125,0.234375,631
632,1696243963362,-0.092285156,-0.98687744,0.12200928,0.171875,-0.5625,0.1875,632
633,1696243963402,-0.08325195,-0.98809814,0.11102295,0.1875,-0.984375,0.125,633
634,1696243963442,-0.092041016,-0.98516846,0.11541748,0.203125,-1.03125,0.171875,634
635,1696243963482,-0.09814453,-0.9793091,0.12054443,0.25,-0.328125,0.3125,635
636,1696243963522,-0.092285156,-0.9885864,0.11907959,0.140625,-0.21875,0.25,636
637,1696243963562,-0.09692383,-0.9824829,0.11907959,0.046875,-0.203125,0.1875,637
638,1696243963602,-0.088134766,-0.99102783,0.12054443,0.4375,-0.09375,0.640625,638
639,1696243963642,-0.09350586,-0.99053955,0.11834717,0.0,-0.375,0.3125,639
640,1696243963682,-0.09082031,-0.98150635,0.12835693,0.546875,-0.328125,0.5625,640
641,1696243963722,-0.08178711,-0.9846802,0.09539795,-1.15625,0.1875,0.21875,641
642,1696243963762,-0.09277344,-0.98272705,0.1239624,0.140625,-0.109375,0.328125,642
643,1696243963802,-0.09692383,-0.989563,0.12249756,-0.296875,-0.46875,0.375,643
644,1696243963842,-0.087890625,-0.9859009,0.12176514,-0.546875,-0.453125,0.140625,644
645,1696243963882,-0.08642578,-0.97735596,0.1083374,-0.640625,0.046875,0.15625,645
646,1696243963922,-0.08984375,-0.98883057,0.12591553,1.078125,-0.515625,0.578125,646
647,1696243963962,-0.08862305,-0.98883057,0.12225342,-0.21875,-0.15625,0.3125,647
648,1696243964002,-0.091796875,-0.9678345,0.11785889,1.15625,-0.453125,0.125,648
649,1696243964042,-0.09350586,-0.9937134,0.11175537,1.0625,-0.125,1.0,649
650,1696243964082,-0.08862305,-0.9873657,0.10784912,0.90625,-0.296875,0.078125,650
651,1696243964122,-0.09350586,-0.9854126,0.10882568,0.625,-0.140625,0.3125,651
652,1696243964162,-0.08666992,-0.98223877,0.10882568,0.828125,-0.484375,0.546875,652
653,1696243964202,-0.08959961,-0.9834595,0.11126709,0.28125,-0.15625,0.453125,653
654,1696243964242,-0.09716797,-0.9824829,0.101501465,0.421875,-0.46875,0.484375,654
655,1696243964282,-0.083740234,-0.98101807,0.105407715,0.328125,-0.140625,0.515625,655
656,1696243964322,-0.087646484,-0.98223877,0.11468506,0.4375,-0.234375,0.40625,656
657,1696243964362,-0.08178711,-0.98321533,0.105407715,-0.328125,-0.578125,0.40625,657
658,1696243964402,-0.08666992,-0.9837036,0.12176514,1.234375,-0.765625,1.015625,658
659,1696243964442,-0.08935547,-0.98101807,0.09613037,-0.515625,0.125,0.625,659
660,1696243964482,-0.08203125,-0.97906494,0.11590576,0.515625,-0.140625,0.546875,660
661,1696243964522,-0.088378906,-0.9985962,0.10760498,0.6875,-0.671875,0.5,661
662,1696243964562,-0.08129883,-0.9829712,0.105163574,0.59375,-0.53125,0.28125,662
663,1696243964602,-0.08959961,-0.9846802,0.109558105,0.578125,-0.421875,0.796875,663
664,1696243964642,-0.06933594,-0.9907837,0.10321045,0.15625,-0.1875,0.421875,664
665,1696243964682,-0.08862305,-0.9871216,0.10858154,0.109375,-0.53125,0.40625,665
666,1696243964722,-0.083740234,-0.98883057,0.105407715,0.578125,-0.71875,0.6875,666
667,1696243964762,-0.0859375,-0.98223877,0.09295654,-0.109375,-0.390625,0.28125,667
668,1696243964802,-0.076660156,-1.0015259,0.09857178,0.015625,-0.359375,0.578125,668
669,1696243964842,-0.09326172,-0.9834595,0.09539795,-0.296875,0.0625,0.53125,669
670,1696243964882,-0.076660156,-0.9780884,0.1071167,0.265625,-0.125,0.125,670
671,1696243964922,-0.080078125,-0.9944458,0.10687256,0.21875,-0.421875,0.8125,671
672,1696243964962,-0.083740234,-0.9871216,0.10467529,0.171875,-0.0625,0.4375,672
673,1696243965002,-0.08959961,-0.9837036,0.10882568,0.453125,-0.328125,0.359375,673
674,1696243965042,-0.075927734,-0.989563,0.105895996,-0.03125,-0.4375,0.28125,674
675,1696243965082,-0.080078125,-1.003479,0.10467529,0.203125,-1.0,0.53125,675
676,1696243965122,-0.07446289,-0.9866333,0.11541748,0.921875,-0.484375,0.875,676
677,1696243965162,-0.064453125,-0.9937134,0.093688965,-0.4375,-0.625,0.578125,677
678,1696243965202,-0.07836914,-0.9697876,0.09857178,-0.46875,-0.34375,0.0625,678
679,1696243965242,-0.08178711,-0.9963989,0.097595215,0.546875,-0.625,0.375,679
680,1696243965282,-0.076660156,-0.98760986,0.105163574,-0.203125,-0.4375,0.25,680
681,1696243965322,-0.07885742,-0.9834595,0.10223389,0.125,-0.625,0.5,681
682,1696243965362,-0.0690918,-0.97369385,0.10272217,0.484375,0.15625,0.59375,682
683,1696243965402,-0.08129883,-0.99664307,0.09954834,-0.03125,-0.859375,0.484375,683
684,1696243965442,-0.06323242,-0.9763794,0.1005249,0.4375,-0.4375,0.90625,684
685,1696243965482,-0.08178711,-0.9854126,0.10369873,1.0,-0.734375,1.40625,685
686,1696243965522,-0.07324219,-0.9907837,0.10345459,0.484375,-0.40625,0.96875,686
687,1696243965562,-0.06616211,-0.9771118,0.08734131,-0.03125,0.0625,0.8125,687
688,1696243965602,-0.07763672,-0.9949341,0.09442139,0.734375,-0.703125,1.328125,688
689,1696243965642,-0.06616211,-0.9871216,0.0993042,0.0625,-0.546875,0.4375,689
690,1696243965682,-0.068603516,-0.9834595,0.097839355,-0.328125,-0.578125,0.640625,690
691,1696243965722,-0.0769043,-0.99346924,0.10247803,0.046875,-0.421875,0.96875,691
692,1696243965762,-0.06933594,-0.9920044,0.093933105,0.078125,-0.734375,0.34375,692
693,1696243965802,-0.06933594,-0.987854,0.101501465,0.296875,-0.765625,0.703125,693
694,1696243965842,-0.06567383,-0.9939575,0.09588623,0.015625,-0.046875,0.34375,694
695,1696243965882,-0.06958008,-0.9859009,0.105651855,-0.046875,-0.71875,0.265625,695
696,1696243965922,-0.068847656,-0.989563,0.08026123,-0.375,0.109375,0.453125,696
697,1696243965962,-0.06518555,-0.98687744,0.10394287,0.625,-0.109375,0.328125,697
698,1696243966002,-0.064941406,-0.9949341,0.08905029,-0.21875,-0.40625,0.40625,698
699,1696243966042,-0.06323242,-0.9795532,0.10028076,-0.03125,-0.234375,0.625,699
700,1696243966082,-0.06982422,-0.98883057,0.10076904,0.328125,-0.46875,0.59375,700
701,1696243966122,-0.0715332,-0.99542236,0.09710693,0.421875,-0.484375,0.234375,701
702,1696243966162,-0.06518555,-0.989563,0.08026123,-0.40625,-0.109375,0.171875,702
703,1696243966202,-0.068603516,-0.9854126,0.093444824,0.640625,-0.46875,0.1875,703
704,1696243966242,-0.07128906,-1.0005493,0.097839355,0.59375,-0.953125,0.578125,704
705,1696243966282,-0.064453125,-0.9780884,0.09173584,0.578125,-0.796875,0.703125,705
706,1696243966322,-0.06665039,-0.9788208,0.089538574,1.15625,-0.046875,0.359375,706
707,1696243966362,-0.07714844,-0.9927368,0.0927124,1.671875,-0.6875,0.796875,707
708,1696243966402,-0.06298828,-0.98150635,0.08514404,1.40625,-0.625,0.375,708
709,1696243966442,-0.06518555,-0.9963989,0.09954834,1.6875,-0.046875,0.296875,709
710,1696243966482,-0.052978516,-0.9807739,0.09173584,0.25,0.453125,0.109375,710
711,1696243966522,-0.061523438,-1.005188,0.1161499,-0.84375,2.0,-0.171875,711
712,1696243966562,-0.05883789,-1.00177,0.09588623,-5.546875,1.671875,-1.578125,712
713,1696243966602,-0.1027832,-0.9678345,0.10345459,-1.703125,-0.515625,-2.265625,713
714,1696243966642,-0.05053711,-0.9990845,0.105895996,-3.25,1.125,-3.515625,714
715,1696243966682,-0.10546875,-1.0015259,0.09173584,-7.203125,-1.9375,-3.5625,715
716,1696243966722,-0.09033203,-0.9717407,0.12005615,-8.5625,-1.5625,-3.46875,716
717,1696243966762,-0.07763672,-0.9849243,0.1281128,-6.40625,-1.6875,-1.96875,717
718,1696243966802,-0.079589844,-0.9951782,0.12762451,-5.375,-1.453125,-1.25,718
719,1696243966842,-0.09838867,-0.9727173,0.14202881,-4.671875,-0.875,-1.0,719
720,1696243966882,-0.10107422,-0.9846802,0.14300537,-5.015625,0.0,0.125,720
721,1696243966922,-0.09106445,-0.9871216,0.14105225,-3.546875,-0.59375,-0.390625,721
722,1696243966962,-0.08496094,-0.97784424,0.14910889,-3.421875,-0.265625,-0.5,722
723,1696243967002,-0.10644531,-0.97979736,0.16375732,-2.203125,-0.71875,0.046875,723
724,1696243967042,-0.10205078,-0.97906494,0.1618042,-1.671875,-0.34375,0.40625,724
725,1696243967082,-0.08984375,-0.9729614,0.15081787,-1.0625,-1.0625,0.4375,725
726,1696243967122,-0.09472656,-0.97076416,0.15667725,0.546875,-1.203125,0.46875,726
727,1696243967162,-0.08276367,-0.9663696,0.152771,2.1875,-1.375,0.28125,727
728,1696243967202,-0.09301758,-0.9673462,0.15765381,4.046875,-2.140625,1.0,728
729,1696243967242,-0.10864258,-0.98516846,0.15667725,4.296875,-2.890625,1.171875,729
730,1696243967282,-0.0859375,-0.97613525,0.152771,1.6875,-0.625,0.78125,730
731,1696243967322,-0.09692383,-0.9907837,0.152771,1.640625,-0.921875,0.515625,731
732,1696243967362,-0.107421875,-0.9837036,0.15447998,0.015625,-0.328125,0.5,732
733,1696243967402,-0.09301758,-0.98101807,0.14007568,0.453125,-1.25,0.296875,733
734,1696243967442,-0.06982422,-0.96466064,0.15814209,-0.046875,-0.3125,0.4375,734
735,1696243967482,-0.10107422,-1.008606,0.14520264,-0.453125,-1.03125,0.359375,735
736,1696243967522,-0.09301758,-0.9680786,0.14959717,-1.171875,-0.71875,-0.265625,736
737,1696243967562,-0.09057617,-0.9829712,0.1539917,-0.203125,-0.8125,0.03125,737
738,1696243967602,-0.091796875,-0.9788208,0.1539917,-1.125,-1.234375,-0.359375,738
739,1696243967642,-0.08959961,-0.97906494,0.1605835,0.09375,-1.0,-0.09375,739
740,1696243967682,-0.08984375,-0.9829712,0.15130615,-0.234375,-0.359375,0.234375,740
741,1696243967722,-0.1081543,-0.97784424,0.15447998,-0.078125,-0.53125,0.03125,741
742,1696243967762,-0.099853516,-0.98809814,0.15692139,0.015625,-0.625,0.203125,742
743,1696243967802,-0.092285156,-0.9788208,0.152771,0.0625,-0.875,-0.015625,743
744,1696243967842,-0.1003418,-0.98760986,0.15472412,0.0,-1.140625,0.03125,744
745,1696243967882,-0.09838867,-0.9854126,0.14935303,0.125,-1.390625,0.203125,745
746,1696243967922,-0.08178711,-0.97540283,0.14154053,-0.59375,-1.1875,-0.03125,746
747,1696243967962,-0.10229492,-0.98101807,0.16204834,0.609375,-1.1875,-0.046875,747
748,1696243968002,-0.11010742,-0.9795532,0.15618896,1.6875,-1.6875,0.609375,748
749,1696243968042,-0.0769043,-0.98565674,0.13323975,0.40625,-0.53125,0.125,749
750,1696243968082,-0.103027344,-0.9859009,0.1564331,0.6875,-1.578125,-0.03125,750
751,1696243968122,-0.088134766,-0.9690552,0.13397217,-1.28125,-0.546875,-0.15625,751
752,1696243968162,-0.10424805,-0.9849243,0.1552124,0.78125,-0.6875,-0.28125,752
753,1696243968202,-0.092041016,-0.9932251,0.13983154,-0.078125,-0.9375,0.03125,753
754,1696243968242,-0.0925293,-0.9702759,0.14813232,0.21875,-0.28125,0.0625,754
755,1696243968282,-0.107421875,-0.98516846,0.15350342,1.28125,-0.484375,0.390625,755
756,1696243968322,-0.10058594,-0.9805298,0.1437378,0.921875,-0.71875,0.21875,756
757,1696243968362,-0.1105957,-0.9993286,0.15130615,0.984375,-0.890625,0.171875,757
758,1696243968402,-0.091308594,-0.972229,0.13787842,-0.390625,-0.3125,-0.015625,758
759,1696243968442,-0.1015625,-0.9824829,0.14813232,0.6875,-0.375,0.25,759
