,timestamp,accel_x,accel_y,accel_z,gyro_x,gyro_y,gyro_z,ind
0,1696245460012,-0.13989258,-0.98150635,0.16229248,-2.3125,3.109375,-0.53125,40
1,1696245460052,-0.14794922,-0.9702759,0.17645264,0.640625,3.375,0.125,41
2,1696245460092,-0.14331055,-0.96051025,0.15911865,0.359375,2.5,0.765625,42
3,1696245460132,-0.14575195,-0.96832275,0.16912842,1.703125,2.8125,1.34375,43
4,1696245460172,-0.16967773,-0.9771118,0.15472412,1.90625,0.765625,1.734375,44
5,1696245460212,-0.15893555,-0.9529419,0.1552124,2.296875,-0.609375,1.75,45
6,1696245460252,-0.15600586,-0.9402466,0.1437378,4.578125,-3.0625,1.015625,46
7,1696245460292,-0.11376953,-0.92755127,0.090026855,3.671875,-4.203125,2.234375,47
8,1696245460332,-0.09741211,-0.9668579,0.15838623,5.21875,-2.859375,4.484375,48
9,1696245460372,-0.14526367,-0.9846802,0.1552124,1.21875,-2.03125,2.78125,49
10,1696245460412,-0.123291016,-0.96832275,0.13641357,-1.65625,-5.3125,1.359375,50
11,1696245460452,-0.14086914,-0.98516846,0.137146,-3.9375,-5.265625,0.734375,51
12,1696245460492,-0.12109375,-1.0408325,0.18133545,0.609375,-2.28125,0.109375,52
13,1696245460532,-0.11035156,-0.9920044,0.17645264,1.890625,-0.71875,0.265625,53
14,1696245460572,-0.12695312,-0.94122314,0.14447021,2.296875,-0.578125,0.671875,54
15,1696245460612,-0.13330078,-0.97442627,0.15789795,1.5625,0.734375,0.765625,55
16,1696245460652,-0.15185547,-1.0247192,0.168396,1.125,0.625,0.3125,56
17,1696245460692,-0.13110352,-1.0271606,0.20404053,-1.046875,3.21875,0.875,57
18,1696245460732,-0.13842773,-1.000061,0.1906128,-3.15625,0.90625,-0.84375,58
19,1696245460772,-0.12792969,-0.9602661,0.13494873,-7.421875,1.0,-2.578125,59
20,1696245460812,-0.14697266,-0.9717407,0.15301514,-4.75,1.0625,-1.21875,60
21,1696245460852,-0.14526367,-0.9998169,0.17059326,-2.359375,3.03125,0.265625,61
22,1696245460892,-0.14257812,-0.9751587,0.17596436,-0.5625,3.96875,0.765625,62
23,1696245460932,-0.12719727,-0.97784424,0.17425537,0.9375,2.78125,0.234375,63
24,1696245460972,-0.12109375,-0.9661255,0.15911865,0.46875,1.8125,-0.46875,64
25,1696245461012,-0.12084961,-0.9837036,0.16644287,0.265625,1.53125,0.25,65
26,1696245461052,-0.13647461,-0.9805298,0.16790771,0.546875,0.59375,-0.359375,66
27,1696245461092,-0.13305664,-0.9631958,0.15838623,0.671875,-1.28125,-1.125,67
28,1696245461132,-0.13989258,-0.95269775,0.13226318,4.234375,-3.234375,-0.328125,68
29,1696245461172,-0.12207031,-0.94244385,0.09564209,4.640625,-5.546875,1.1875,69
30,1696245461212,-0.0637207,-0.93292236,0.10491943,3.1875,-7.203125,2.765625,70
31,1696245461252,-0.1730957,-0.9890747,0.15960693,3.203125,-7.375,1.03125,71
32,1696245461292,-0.14916992,-0.98687744,0.1251831,0.53125,-3.84375,1.1875,72
33,1696245461332,-0.10644531,-0.9883423,0.14642334,1.484375,-4.765625,0.171875,73
34,1696245461372,-0.12988281,-1.0083618,0.14227295,0.328125,-1.15625,-0.234375,74
35,1696245461412,-0.13574219,-1.0039673,0.1383667,2.59375,-0.59375,0.0625,75
36,1696245461452,-0.14013672,-0.96051025,0.13763428,2.6875,-0.109375,0.125,76
37,1696245461492,-0.14575195,-0.96588135,0.15081787,2.390625,0.890625,0.5,77
38,1696245461532,-0.14453125,-1.0073853,0.15838623,1.65625,1.71875,1.03125,78
39,1696245461572,-0.13012695,-1.031311,0.19622803,-1.484375,3.734375,1.359375,79
40,1696245461612,-0.14013672,-1.0110474,0.19866943,-5.0625,1.859375,-0.3125,80
41,1696245461652,-0.14111328,-0.9595337,0.14276123,-7.421875,1.4375,-1.828125,81
42,1696245461692,-0.17138672,-0.98321533,0.16326904,-4.71875,1.515625,-0.046875,82
43,1696245461732,-0.10498047,-1.0020142,0.12786865,-3.5,4.578125,0.625,83
44,1696245461772,-0.111083984,-0.9690552,0.124694824,-1.328125,7.703125,1.171875,84
45,1696245461812,-0.14648438,-0.9678345,0.14056396,0.265625,4.09375,1.1875,85
46,1696245461852,-0.14111328,-0.96417236,0.16668701,0.375,1.765625,0.078125,86
47,1696245461892,-0.13598633,-0.9680786,0.15814209,-0.953125,-0.328125,-1.453125,87
48,1696245461932,-0.11816406,-0.96466064,0.1437378,0.21875,-0.78125,-1.59375,88
49,1696245461972,-0.14038086,-0.9507446,0.1408081,3.09375,-3.71875,0.34375,89
50,1696245462012,-0.08911133,-0.93463135,0.11248779,2.171875,-3.984375,1.46875,90
51,1696245462052,-0.07885742,-0.9541626,0.08929443,0.6875,-8.8125,1.140625,91
52,1696245462092,-0.18359375,-0.95684814,0.18060303,0.734375,-8.875,0.34375,92
53,1696245462132,-0.12817383,-1.0125122,0.13128662,-1.78125,-3.171875,-0.765625,93
54,1696245462172,-0.12988281,-1.0059204,0.14544678,0.359375,-3.453125,-1.875,94
55,1696245462212,-0.14038086,-0.9829712,0.13983154,0.671875,0.28125,-0.65625,95
56,1696245462252,-0.1315918,-0.9788208,0.14764404,3.296875,1.15625,-0.65625,96
57,1696245462292,-0.12841797,-0.9685669,0.16790771,2.21875,1.8125,0.34375,97
58,1696245462332,-0.13623047,-0.97979736,0.16156006,1.984375,1.046875,-0.3125,98
59,1696245462372,-0.1459961,-1.003479,0.1671753,1.203125,1.03125,-0.015625,99
60,1696245462412,-0.13769531,-1.0046997,0.20916748,-0.375,2.328125,0.875,100
61,1696245462452,-0.14355469,-1.0095825,0.19744873,-3.25,-0.421875,0.6875,101
62,1696245462492,-0.14160156,-0.9644165,0.17840576,-5.984375,0.328125,-1.453125,102
63,1696245462532,-0.1550293,-0.9692993,0.15301514,-3.3125,-1.328125,-0.078125,103
64,1696245462572,-0.14477539,-1.0117798,0.14984131,-1.234375,0.671875,2.015625,104
65,1696245462612,-0.14135742,-0.98760986,0.10394287,-1.046875,0.453125,1.859375,105
66,1696245462652,-0.12841797,-0.9627075,0.13568115,-0.21875,0.9375,0.8125,106
67,1696245462692,-0.15771484,-0.9793091,0.1552124,-1.375,1.0625,-1.03125,107
68,1696245462732,-0.12792969,-0.96954346,0.15716553,-0.390625,0.96875,-1.984375,108
69,1696245462772,-0.12866211,-0.96051025,0.14642334,0.59375,0.203125,-1.78125,109
70,1696245462812,-0.14331055,-0.94854736,0.13226318,4.9375,-1.625,-0.421875,110
71,1696245462852,-0.122802734,-0.9277954,0.12176514,5.1875,-5.125,1.4375,111
72,1696245462892,-0.06713867,-0.9468384,0.089538574,4.796875,-5.078125,2.890625,112
73,1696245462932,-0.16894531,-0.95391846,0.16082764,4.796875,-9.125,3.234375,113
74,1696245462972,-0.14550781,-0.9829712,0.11224365,-1.03125,-5.5,0.609375,114
75,1696245463012,-0.14819336,-1.0032349,0.12347412,-0.03125,-3.25,-0.796875,115
76,1696245463052,-0.123046875,-1.0217896,0.13104248,-0.6875,0.921875,-1.109375,116
77,1696245463092,-0.14282227,-1.0005493,0.13446045,1.453125,1.40625,0.390625,117
78,1696245463132,-0.1340332,-0.96661377,0.1449585,2.21875,2.46875,-0.078125,118
79,1696245463172,-0.12524414,-0.9663696,0.1395874,2.421875,2.15625,0.359375,119
80,1696245463212,-0.12133789,-0.9924927,0.15863037,2.109375,1.78125,0.25,120
81,1696245463252,-0.14160156,-1.0088501,0.16937256,0.953125,0.609375,0.125,121
82,1696245463292,-0.14135742,-1.0127563,0.18109131,-2.046875,1.9375,1.046875,122
83,1696245463332,-0.15161133,-1.00177,0.18670654,-5.859375,1.265625,-0.875,123
84,1696245463372,-0.14770508,-0.94854736,0.13543701,-5.15625,-4.53125,-2.9375,124
85,1696245463412,-0.14624023,-0.98516846,0.16815186,-0.421875,-3.125,-0.90625,125
86,1696245463452,-0.14550781,-1.0193481,0.15863037,-1.78125,2.234375,1.828125,126
87,1696245463492,-0.13427734,-0.97052,0.08905029,-3.65625,5.65625,3.09375,127
88,1696245463532,-0.13891602,-0.9458618,0.11956787,0.8125,3.828125,1.78125,128
89,1696245463572,-0.14086914,-0.97662354,0.14422607,1.125,2.4375,1.03125,129
90,1696245463612,-0.12719727,-0.99420166,0.14349365,-0.46875,3.015625,-0.828125,130
91,1696245463652,-0.12988281,-0.9734497,0.15106201,0.1875,1.140625,-1.09375,131
92,1696245463692,-0.11816406,-0.9644165,0.12713623,0.515625,-1.0625,-0.859375,132
93,1696245463732,-0.15478516,-0.9546509,0.10760498,4.171875,-3.8125,0.875,133
94,1696245463772,-0.07788086,-0.95269775,0.06878662,1.78125,-3.734375,3.4375,134
95,1696245463812,-0.11621094,-0.9487915,0.13372803,3.375,-6.34375,3.890625,135
96,1696245463852,-0.13305664,-0.9751587,0.1317749,1.828125,-7.921875,1.46875,136
97,1696245463892,-0.11767578,-0.97247314,0.112976074,0.125,-5.34375,-0.25,137
98,1696245463932,-0.13916016,-1.0137329,0.13983154,2.1875,-3.90625,-0.046875,138
99,1696245463972,-0.14453125,-1.0274048,0.11785889,0.359375,0.28125,0.40625,139
100,1696245464012,-0.13232422,-0.972229,0.11639404,0.515625,1.71875,0.34375,140
101,1696245464052,-0.12768555,-0.9561157,0.1317749,1.71875,1.484375,0.65625,141
102,1696245464092,-0.14624023,-1.0020142,0.1593628,1.28125,1.09375,0.640625,142
103,1696245464132,-0.12841797,-1.0261841,0.18377686,-0.890625,3.65625,0.96875,143
104,1696245464172,-0.12963867,-1.0078735,0.1593628,-3.375,2.640625,0.15625,144
105,1696245464212,-0.12817383,-0.98321533,0.17816162,-6.015625,2.921875,-2.109375,145
106,1696245464252,-0.125,-0.96539307,0.1251831,-7.15625,-1.34375,-3.34375,146
107,1696245464292,-0.13916016,-0.9729614,0.1552124,-3.765625,0.828125,-1.046875,147
108,1696245464332,-0.13061523,-0.99053955,0.124938965,-3.640625,2.765625,0.5,148
109,1696245464372,-0.12841797,-0.9783325,0.14349365,-0.890625,2.90625,0.734375,149
110,1696245464412,-0.13476562,-0.96832275,0.14593506,-1.8125,2.421875,-0.015625,150
111,1696245464452,-0.13891602,-0.9795532,0.13470459,-1.6875,0.59375,-1.140625,151
112,1696245464492,-0.12475586,-0.9690552,0.1473999,-1.78125,0.3125,-0.984375,152
113,1696245464532,-0.12915039,-0.9624634,0.13519287,-0.8125,-0.171875,-1.03125,153
114,1696245464572,-0.14794922,-0.95562744,0.12908936,-0.03125,-2.328125,0.171875,154
115,1696245464612,-0.118896484,-0.94610596,0.13909912,0.40625,-4.890625,1.15625,155
116,1696245464652,-0.111816406,-0.9404907,0.15814209,2.140625,-5.953125,1.5625,156
117,1696245464692,-0.14038086,-1.0078735,0.18109131,1.921875,-3.640625,-0.375,157
118,1696245464732,-0.12792969,-0.99224854,0.13983154,1.328125,-1.515625,1.609375,158
119,1696245464772,-0.10839844,-0.9685669,0.14593506,2.25,-1.390625,0.578125,159
120,1696245464812,-0.12915039,-0.9973755,0.1461792,0.734375,-1.4375,0.625,160
121,1696245464852,-0.14672852,-0.98565674,0.14910889,1.0,0.421875,0.640625,161
122,1696245464892,-0.13793945,-0.97369385,0.15057373,1.8125,-0.71875,0.25,162
123,1696245464932,-0.14746094,-0.97491455,0.16375732,0.515625,0.578125,0.25,163
124,1696245464972,-0.1459961,-0.98931885,0.18084717,0.421875,1.078125,0.46875,164
125,1696245465012,-0.1484375,-1.0195923,0.2020874,-1.546875,1.25,0.703125,165
126,1696245465052,-0.1616211,-1.013977,0.18695068,-1.34375,-1.984375,-0.765625,166
127,1696245465092,-0.08862305,-0.973938,0.16156006,-6.15625,-0.796875,-2.53125,167
128,1696245465132,-0.13500977,-0.9763794,0.13641357,-5.015625,-1.953125,-1.640625,168
129,1696245465172,-0.1340332,-0.9834595,0.14471436,-4.015625,-0.25,-0.421875,169
130,1696245465212,-0.1418457,-0.97247314,0.15350342,-1.6875,1.65625,-0.0625,170
131,1696245465252,-0.15771484,-0.97052,0.1605835,-2.15625,1.328125,-0.84375,171
132,1696245465292,-0.15405273,-0.97247314,0.18304443,-1.578125,1.1875,-1.546875,172
133,1696245465332,-0.14526367,-0.9793091,0.16790771,-3.625,2.28125,-2.109375,173
134,1696245465372,-0.12646484,-0.9570923,0.17816162,-1.0625,-1.53125,-2.078125,174
135,1696245465412,-0.13354492,-0.9495239,0.16644287,-0.3125,-3.265625,-1.453125,175
136,1696245465452,-0.140625,-0.9529419,0.152771,1.3125,-4.546875,1.4375,176
137,1696245465492,-0.125,-0.94122314,0.1408081,4.53125,-3.046875,2.765625,177
138,1696245465532,-0.14672852,-0.9771118,0.17230225,3.75,-2.84375,3.359375,178
139,1696245465572,-0.15405273,-0.96832275,0.14422607,1.078125,-0.5625,2.53125,179
140,1696245465612,-0.13549805,-0.9573364,0.15057373,2.28125,-2.015625,0.28125,180
141,1696245465652,-0.15063477,-0.99884033,0.16448975,3.203125,-1.984375,1.078125,181
142,1696245465692,-0.12915039,-0.98565674,0.12591553,2.84375,0.609375,0.828125,182
143,1696245465732,-0.1381836,-0.9846802,0.1605835,5.171875,1.5625,2.828125,183
144,1696245465772,-0.12182617,-1.005188,0.15618896,1.9375,1.453125,2.21875,184
145,1696245465812,-0.13842773,-0.9661255,0.14227295,2.0,1.421875,1.078125,185
146,1696245465852,-0.13354492,-0.97247314,0.16937256,1.265625,0.34375,0.46875,186
147,1696245465892,-0.13500977,-1.0188599,0.19598389,-1.328125,1.6875,0.84375,187
148,1696245465932,-0.1381836,-1.0125122,0.17645264,-2.40625,2.0,-0.25,188
149,1696245465972,-0.115234375,-0.98565674,0.1906128,-2.421875,1.28125,-1.734375,189
150,1696245466012,-0.14624023,-0.95635986,0.13494873,-4.609375,-2.140625,-1.6875,190
151,1696245466052,-0.14013672,-0.9817505,0.14910889,-2.390625,0.875,-0.265625,191
152,1696245466092,-0.12573242,-0.9885864,0.16082764,0.34375,1.96875,0.90625,192
153,1696245466132,-0.1237793,-0.97003174,0.11639404,-0.890625,3.21875,-0.0625,193
154,1696245466172,-0.1508789,-0.9812622,0.16937256,0.234375,1.359375,-0.28125,194
155,1696245466212,-0.13696289,-0.99224854,0.1515503,-1.28125,0.484375,-1.6875,195
156,1696245466252,-0.11401367,-0.95684814,0.14227295,-0.515625,0.3125,-1.4375,196
157,1696245466292,-0.1381836,-0.9541626,0.15130615,1.796875,-2.0,0.046875,197
158,1696245466332,-0.1352539,-0.9446411,0.1293335,3.109375,-3.140625,0.921875,198
159,1696245466372,-0.107666016,-0.9668579,0.11932373,3.78125,-1.90625,3.078125,199
160,1696245466412,-0.118652344,-0.98687744,0.13934326,3.140625,-2.390625,3.03125,200
161,1696245466452,-0.14916992,-0.95880127,0.1227417,0.421875,-2.125,1.765625,201
162,1696245466492,-0.12548828,-0.96661377,0.10223389,-0.375,-4.390625,0.046875,202
163,1696245466532,-0.13671875,-0.99957275,0.15960693,0.953125,-5.140625,-0.453125,203
164,1696245466572,-0.13623047,-1.0234985,0.16082764,1.109375,-2.671875,0.375,204
165,1696245466612,-0.11010742,-0.9859009,0.124694824,1.328125,-0.578125,0.03125,205
166,1696245466652,-0.11376953,-0.96466064,0.14837646,2.75,-0.171875,0.359375,206
167,1696245466692,-0.13598633,-0.98516846,0.14691162,1.09375,0.328125,0.71875,207
168,1696245466732,-0.1315918,-1.0066528,0.19622803,2.203125,1.640625,2.25,208
169,1696245466772,-0.118652344,-1.0115356,0.15960693,-2.28125,2.953125,1.234375,209
170,1696245466812,-0.14770508,-0.9968872,0.17254639,-1.84375,2.28125,0.15625,210
171,1696245466852,-0.114990234,-0.9619751,0.13568115,-5.34375,0.984375,-1.9375,211
172,1696245466892,-0.15258789,-0.991272,0.1630249,-3.046875,0.546875,0.78125,212
173,1696245466932,-0.12695312,-0.98443604,0.11639404,-2.46875,2.0,-0.734375,213
174,1696245466972,-0.11376953,-0.9873657,0.12835693,-0.453125,3.296875,-0.296875,214
175,1696245467012,-0.13427734,-0.97906494,0.14227295,0.109375,1.703125,-0.34375,215
176,1696245467052,-0.13574219,-0.98028564,0.16619873,-0.484375,0.5625,-1.3125,216
177,1696245467092,-0.122802734,-0.97613525,0.13934326,-1.640625,0.203125,-1.640625,217
178,1696245467132,-0.1340332,-0.9751587,0.1552124,-1.484375,-0.375,-0.953125,218
179,1696245467172,-0.13574219,-0.96881104,0.1605835,-1.75,-0.109375,-0.828125,219
180,1696245467212,-0.12890625,-0.9673462,0.1618042,-0.53125,-2.453125,-1.015625,220
181,1696245467252,-0.12573242,-0.96295166,0.13372803,0.421875,-4.671875,-0.734375,221
182,1696245467292,-0.119628906,-0.95635986,0.13275146,1.265625,-3.546875,1.171875,222
183,1696245467332,-0.12451172,-0.956604,0.11419678,3.9375,-0.1875,3.890625,223
184,1696245467372,-0.12890625,-0.98272705,0.1329956,3.578125,0.140625,3.34375,224
185,1696245467412,-0.13696289,-0.95684814,0.14813232,2.578125,-0.546875,2.09375,225
186,1696245467452,-0.13793945,-0.9680786,0.13421631,0.84375,-2.546875,-0.515625,226
187,1696245467492,-0.14038086,-0.9854126,0.117614746,-1.953125,-4.65625,-0.828125,227
188,1696245467532,-0.12988281,-0.9795532,0.1473999,0.140625,-2.8125,-0.453125,228
189,1696245467572,-0.12841797,-1.0249634,0.16473389,0.484375,-3.25,1.265625,229
190,1696245467612,-0.11450195,-0.9758911,0.121520996,-1.171875,-1.96875,-0.5625,230
191,1696245467652,-0.1394043,-0.973938,0.1720581,1.03125,0.5625,0.1875,231
192,1696245467692,-0.12133789,-1.0090942,0.14837646,-1.0,7.28125,0.625,232
193,1696245467732,-0.14746094,-0.9993286,0.1984253,0.328125,4.453125,1.75,233
194,1696245467772,-0.16894531,-0.99542236,0.18450928,-0.625,3.265625,1.59375,234
195,1696245467812,-0.14428711,-0.9627075,0.19403076,-0.796875,4.859375,0.5,235
196,1696245467852,-0.09301758,-0.98687744,0.15740967,-2.71875,1.96875,-1.203125,236
197,1696245467892,-0.12158203,-0.99786377,0.13665771,-3.109375,-1.421875,-0.359375,237
198,1696245467932,-0.13598633,-0.9727173,0.13983154,-1.203125,-0.046875,-0.296875,238
199,1696245467972,-0.12573242,-0.9751587,0.13250732,-0.71875,0.90625,-0.546875,239
200,1696245468012,-0.13085938,-0.97198486,0.14447021,-0.1875,-0.96875,-0.703125,240
201,1696245468052,-0.13647461,-0.97247314,0.14007568,-0.8125,-1.140625,-0.921875,241
202,1696245468092,-0.13574219,-0.9702759,0.15301514,0.515625,-1.15625,-0.96875,242
203,1696245468132,-0.12719727,-0.96221924,0.16986084,2.96875,-2.0625,-0.5,243
204,1696245468172,-0.118652344,-0.9468384,0.09539795,2.28125,-1.859375,0.984375,244
205,1696245468212,-0.09790039,-0.9492798,0.13372803,5.640625,-0.9375,2.96875,245
206,1696245468252,-0.13208008,-0.9902954,0.12860107,4.25,-2.703125,3.53125,246
207,1696245468292,-0.12060547,-0.9561157,0.12176514,2.46875,-2.453125,1.265625,247
208,1696245468332,-0.14379883,-0.9524536,0.12957764,0.953125,-3.40625,0.171875,248
209,1696245468372,-0.119140625,-1.0100708,0.12640381,0.625,-4.890625,1.6875,249
210,1696245468412,-0.15478516,-0.9859009,0.113464355,-0.453125,-4.96875,0.6875,250
211,1696245468452,-0.10058594,-0.9692993,0.105651855,-0.703125,-1.328125,-1.078125,251
212,1696245468492,-0.1418457,-1.003479,0.14398193,1.3125,-2.359375,1.703125,252
213,1696245468532,-0.12182617,-0.9805298,0.12542725,-0.484375,-1.28125,0.65625,253
214,1696245468572,-0.12915039,-0.97735596,0.16571045,1.15625,0.546875,0.3125,254
215,1696245468612,-0.1171875,-1.0142212,0.13543701,-0.765625,1.609375,1.546875,255
216,1696245468652,-0.1315918,-0.99298096,0.16009521,-0.90625,1.75,0.65625,256
217,1696245468692,-0.13061523,-0.9963989,0.15032959,-2.296875,0.453125,0.0,257
218,1696245468732,-0.111328125,-0.98638916,0.14202881,-5.34375,1.265625,-1.984375,258
219,1696245468772,-0.13330078,-0.99053955,0.13201904,-5.90625,0.59375,-2.25,259
220,1696245468812,-0.13305664,-0.9819946,0.15618896,-2.890625,0.234375,-2.109375,260
221,1696245468852,-0.118896484,-0.97369385,0.12567139,-2.953125,2.78125,-1.21875,261
222,1696245468892,-0.14746094,-0.9819946,0.16546631,-1.8125,2.03125,-0.734375,262
223,1696245468932,-0.14013672,-0.9771118,0.14178467,-2.40625,1.859375,-1.421875,263
224,1696245468972,-0.13012695,-0.9636841,0.14935303,-1.484375,1.5,-1.890625,264
225,1696245469012,-0.14477539,-0.98101807,0.16815186,0.15625,0.46875,-1.6875,265
226,1696245469052,-0.12719727,-0.9673462,0.15911865,0.796875,-0.984375,-1.140625,266
227,1696245469092,-0.12841797,-0.9536743,0.14447021,0.625,-2.578125,-0.21875,267
228,1696245469132,-0.12915039,-0.93414307,0.1449585,1.171875,-2.640625,1.625,268
229,1696245469172,-0.12548828,-0.9788208,0.15203857,3.71875,-2.484375,3.4375,269
230,1696245469212,-0.12890625,-0.97857666,0.1305542,2.984375,-3.21875,2.421875,270
231,1696245469252,-0.14086914,-0.97052,0.13909912,4.0,-3.484375,1.734375,271
232,1696245469292,-0.119384766,-0.9824829,0.1473999,1.859375,-2.984375,1.203125,272
233,1696245469332,-0.1430664,-0.98760986,0.12786865,0.375,-2.359375,1.34375,273
234,1696245469372,-0.14819336,-0.99005127,0.120788574,0.84375,-1.28125,1.71875,274
235,1696245469412,-0.11303711,-0.991272,0.13543701,1.1875,-1.578125,0.734375,275
236,1696245469452,-0.14404297,-0.98516846,0.15814209,0.59375,-2.140625,1.125,276
237,1696245469492,-0.10180664,-0.9849243,0.12420654,-1.859375,1.328125,0.15625,277
238,1696245469532,-0.13085938,-0.9973755,0.17230225,-0.453125,0.921875,0.46875,278
239,1696245469572,-0.12524414,-1.0029907,0.15496826,-1.5625,2.1875,-0.203125,279
240,1696245469612,-0.15332031,-0.99835205,0.1671753,-2.109375,0.8125,-0.5625,280
241,1696245469652,-0.11035156,-0.9690552,0.1449585,-4.484375,0.921875,-2.21875,281
242,1696245469692,-0.13330078,-0.9746704,0.16131592,-3.890625,-0.90625,-2.640625,282
243,1696245469732,-0.13793945,-0.9812622,0.14764404,-3.328125,-0.25,-2.875,283
244,1696245469772,-0.13696289,-0.97052,0.16204834,-2.28125,0.515625,-2.46875,284
245,1696245469812,-0.14160156,-0.98687744,0.16278076,-1.3125,0.84375,-1.375,285
246,1696245469852,-0.14624023,-0.9771118,0.16204834,-1.734375,0.578125,-0.84375,286
247,1696245469892,-0.140625,-0.9751587,0.16595459,-1.203125,0.4375,0.015625,287
248,1696245469932,-0.14648438,-0.96539307,0.15814209,-0.359375,-0.328125,-0.578125,288
249,1696245469972,-0.12866211,-0.9602661,0.15716553,1.34375,-1.71875,-0.265625,289
250,1696245470012,-0.14355469,-0.9495239,0.13787842,2.484375,-2.78125,1.203125,290
251,1696245470052,-0.12207031,-0.95977783,0.13861084,5.9375,-1.234375,3.4375,291
252,1696245470092,-0.12792969,-0.9812622,0.15423584,5.234375,-2.46875,3.234375,292
253,1696245470132,-0.13427734,-0.9768677,0.12908936,2.359375,-0.125,2.484375,293
254,1696245470172,-0.13330078,-0.9710083,0.152771,2.3125,-0.8125,1.4375,294
255,1696245470212,-0.1328125,-1.0005493,0.12225342,0.265625,-4.1875,1.203125,295
256,1696245470252,-0.1328125,-0.9692993,0.117370605,-0.96875,-3.875,-0.796875,296
257,1696245470292,-0.123535156,-0.9768677,0.13446045,0.15625,-3.234375,-0.828125,297
258,1696245470332,-0.13476562,-0.9990845,0.15106201,0.96875,-1.890625,0.234375,298
259,1696245470372,-0.15722656,-0.9968872,0.14422607,2.640625,-0.9375,0.59375,299
260,1696245470412,-0.12841797,-0.9729614,0.1564331,1.625,0.578125,0.109375,300
261,1696245470452,-0.14477539,-0.9907837,0.18182373,1.265625,1.109375,1.46875,301
262,1696245470492,-0.13012695,-1.0178833,0.17108154,-2.515625,3.625,1.640625,302
263,1696245470532,-0.14892578,-1.0010376,0.1630249,-0.5,0.65625,0.390625,303
264,1696245470572,-0.11621094,-0.97076416,0.16326904,-3.96875,2.515625,-0.984375,304
265,1696245470612,-0.13427734,-0.9644165,0.13861084,-4.625,0.4375,-1.078125,305
266,1696245470652,-0.13476562,-0.9780884,0.14886475,-3.328125,1.46875,0.046875,306
267,1696245470692,-0.13745117,-0.99102783,0.13739014,-1.1875,2.484375,0.046875,307
268,1696245470732,-0.1496582,-0.9714966,0.15496826,0.3125,2.015625,0.03125,308
269,1696245470772,-0.13256836,-0.9585571,0.12542725,0.328125,2.765625,-0.9375,309
270,1696245470812,-0.1394043,-0.98223877,0.17108154,1.1875,1.84375,-0.484375,310
271,1696245470852,-0.13867188,-0.9990845,0.15350342,-1.140625,0.765625,-1.15625,311
272,1696245470892,-0.12036133,-0.9651489,0.14324951,-0.71875,0.90625,-1.484375,312
273,1696245470932,-0.12841797,-0.9768677,0.15130615,0.140625,-1.3125,-0.46875,313
274,1696245470972,-0.13574219,-0.97320557,0.16278076,-0.5,-2.59375,-0.0625,314
275,1696245471012,-0.14208984,-0.9534302,0.13006592,0.4375,-3.671875,0.375,315
276,1696245471052,-0.122802734,-0.95196533,0.12689209,2.59375,-1.078125,2.140625,316
277,1696245471092,-0.12939453,-0.9800415,0.1359253,4.078125,-1.71875,2.734375,317
278,1696245471132,-0.1394043,-0.97979736,0.121520996,1.515625,-1.515625,1.78125,318
279,1696245471172,-0.13452148,-0.9541626,0.1486206,1.109375,-2.171875,1.09375,319
280,1696245471212,-0.1418457,-0.9817505,0.1539917,0.40625,-3.515625,0.25,320
281,1696245471252,-0.13256836,-0.986145,0.13739014,-1.0,-1.703125,0.4375,321
282,1696245471292,-0.13647461,-0.972229,0.117126465,-0.71875,-4.265625,0.234375,322
283,1696245471332,-0.115234375,-0.9702759,0.14886475,0.234375,-1.859375,0.625,323
284,1696245471372,-0.14575195,-0.98223877,0.120788574,-0.28125,-3.421875,0.078125,324
285,1696245471412,-0.114746094,-0.9829712,0.1329956,-1.65625,-0.984375,-0.53125,325
286,1696245471452,-0.15454102,-0.99176025,0.15911865,-0.34375,-1.640625,-0.109375,326
287,1696245471492,-0.14575195,-1.005188,0.14691162,-0.46875,-0.234375,0.234375,327
288,1696245471532,-0.11767578,-0.97491455,0.15863037,-0.59375,0.78125,-0.9375,328
289,1696245471572,-0.125,-1.0090942,0.18939209,-0.703125,2.515625,0.5625,329
290,1696245471612,-0.17138672,-1.0178833,0.17401123,-1.4375,0.96875,0.953125,330
291,1696245471652,-0.111083984,-0.9834595,0.17376709,-2.578125,5.15625,0.21875,331
292,1696245471692,-0.12426758,-0.97662354,0.14471436,-3.484375,1.421875,-0.796875,332
293,1696245471732,-0.15307617,-0.96954346,0.14666748,-1.65625,0.203125,-0.890625,333
294,1696245471772,-0.14257812,-0.97125244,0.13128662,-1.015625,1.6875,-0.78125,334
295,1696245471812,-0.1340332,-0.9788208,0.15252686,-0.03125,2.25,-0.1875,335
296,1696245471852,-0.1459961,-0.9800415,0.16204834,-0.625,1.5625,-0.53125,336
297,1696245471892,-0.13916016,-0.9727173,0.14569092,-0.53125,0.375,-1.15625,337
298,1696245471932,-0.1394043,-0.96466064,0.15692139,-0.671875,-0.640625,-1.4375,338
299,1696245471972,-0.1394043,-0.9829712,0.16253662,2.125,-3.40625,-1.09375,339
300,1696245472012,-0.118652344,-0.973938,0.124938965,-0.984375,-0.71875,-1.453125,340
301,1696245472052,-0.14501953,-0.9697876,0.15667725,0.765625,-2.890625,0.578125,341
302,1696245472092,-0.12133789,-0.9470825,0.1281128,1.375,-2.09375,0.90625,342
303,1696245472132,-0.13208008,-0.9570923,0.12445068,2.765625,-0.109375,3.03125,343
304,1696245472172,-0.12182617,-0.9817505,0.1359253,3.234375,-1.59375,2.96875,344
305,1696245472212,-0.15234375,-0.9793091,0.13885498,1.515625,-1.875,1.71875,345
306,1696245472252,-0.14624023,-0.9602661,0.1515503,0.625,-1.703125,0.46875,346
307,1696245472292,-0.14575195,-0.9771118,0.14056396,-0.484375,-4.859375,0.265625,347
308,1696245472332,-0.13842773,-0.9976196,0.15765381,-0.921875,-1.703125,0.203125,348
309,1696245472372,-0.12109375,-0.9981079,0.12957764,-0.59375,-1.046875,1.421875,349
310,1696245472412,-0.122802734,-0.99053955,0.13128662,2.5,-1.4375,1.046875,350
311,1696245472452,-0.13452148,-0.98443604,0.12615967,2.546875,0.6875,0.296875,351
312,1696245472492,-0.1303711,-0.97979736,0.13397217,3.0625,1.609375,0.640625,352
313,1696245472532,-0.123291016,-0.9746704,0.1461792,1.421875,0.765625,1.21875,353
314,1696245472572,-0.13671875,-0.97857666,0.15667725,1.6875,-1.78125,1.671875,354
315,1696245472612,-0.12768555,-0.99786377,0.14178467,-0.578125,1.015625,0.578125,355
316,1696245472652,-0.1418457,-0.9937134,0.1696167,-1.671875,2.71875,1.3125,356
317,1696245472692,-0.13061523,-1.02594,0.17059326,-2.1875,0.921875,1.234375,357
318,1696245472732,-0.13061523,-0.96759033,0.14959717,-4.453125,1.21875,-0.71875,358
319,1696245472772,-0.12133789,-0.9627075,0.14105225,-5.5,0.0,-2.1875,359
320,1696245472812,-0.14501953,-0.9788208,0.14105225,-4.40625,-0.40625,-1.375,360
321,1696245472852,-0.13085938,-0.98321533,0.14129639,-3.46875,2.171875,-1.484375,361
322,1696245472892,-0.12719727,-0.98150635,0.16131592,-0.96875,2.125,-0.875,362
323,1696245472932,-0.13110352,-0.98565674,0.17596436,-1.28125,1.734375,-0.625,363
324,1696245472972,-0.13793945,-0.97198486,0.15496826,-0.6875,0.546875,-1.046875,364
325,1696245473012,-0.14453125,-0.9714966,0.17474365,-0.375,0.25,-0.921875,365
326,1696245473052,-0.14404297,-0.9841919,0.16571045,-0.0625,-0.375,-1.34375,366
327,1696245473092,-0.13256836,-0.9690552,0.15252686,-0.046875,-0.953125,-0.984375,367
328,1696245473132,-0.13208008,-0.96661377,0.1552124,1.8125,-2.171875,-0.078125,368
329,1696245473172,-0.14477539,-0.9492798,0.16888428,4.25,-3.53125,1.03125,369
330,1696245473212,-0.10864258,-0.94415283,0.093933105,3.03125,-1.484375,1.65625,370
331,1696245473252,-0.11206055,-0.9793091,0.14276123,5.296875,-1.140625,3.140625,371
332,1696245473292,-0.16088867,-0.9780884,0.14959717,4.1875,-1.65625,3.03125,372
333,1696245473332,-0.13696289,-0.9734497,0.11248779,3.96875,1.125,1.109375,373
334,1696245473372,-0.10131836,-0.9524536,0.10321045,2.9375,-3.71875,-0.5,374
335,1696245473412,-0.18139648,-0.9985962,0.16912842,4.484375,-4.71875,1.46875,375
336,1696245473452,-0.13671875,-1.017395,0.13128662,1.78125,-3.34375,0.8125,376
337,1696245473492,-0.11816406,-0.9717407,0.12322998,1.484375,-3.171875,1.53125,377
338,1696245473532,-0.13891602,-0.98638916,0.11639404,2.125,-2.765625,2.34375,378
339,1696245473572,-0.10839844,-0.9873657,0.11639404,2.515625,-1.65625,2.0625,379
340,1696245473612,-0.12109375,-0.9924927,0.120788574,0.40625,-2.796875,1.921875,380
341,1696245473652,-0.123046875,-0.9763794,0.093933105,0.171875,-2.296875,1.34375,381
342,1696245473692,-0.12768555,-0.99420166,0.10443115,-0.15625,-0.265625,0.78125,382
343,1696245473732,-0.12426758,-0.9873657,0.121520996,-0.4375,0.109375,1.484375,383
344,1696245473772,-0.115234375,-0.97540283,0.13763428,-0.8125,0.4375,0.359375,384
345,1696245473812,-0.1315918,-1.0105591,0.13665771,-1.6875,2.9375,-0.109375,385
346,1696245473852,-0.10449219,-1.0176392,0.16278076,-2.5625,2.796875,-0.921875,386
347,1696245473892,-0.1430664,-0.9902954,0.11126709,-6.015625,-1.5,-3.34375,387
348,1696245473932,-0.16137695,-0.9636841,0.10003662,-6.5,-0.21875,-3.765625,388
349,1696245473972,-0.12792969,-0.97003174,0.11785889,-3.5625,1.765625,-2.765625,389
350,1696245474012,-0.12133789,-1.00177,0.14764404,-2.3125,2.4375,-2.078125,390
351,1696245474052,-0.12451172,-0.97125244,0.14837646,-3.359375,2.421875,-2.015625,391
352,1696245474092,-0.15405273,-0.96539307,0.1486206,-1.890625,0.984375,-1.078125,392
353,1696245474132,-0.14477539,-0.97613525,0.15179443,-1.59375,0.890625,-1.328125,393
354,1696245474172,-0.1303711,-0.97442627,0.1461792,-1.203125,1.109375,-1.28125,394
355,1696245474212,-0.13354492,-0.9631958,0.15179443,-0.890625,0.25,-1.25,395
356,1696245474252,-0.13745117,-0.9714966,0.15301514,-0.40625,-1.1875,-0.859375,396
357,1696245474292,-0.12597656,-0.96710205,0.13739014,0.5625,-1.84375,-0.921875,397
358,1696245474332,-0.15527344,-0.9512329,0.12542725,2.765625,-3.75,1.75,398
359,1696245474372,-0.107910156,-0.94781494,0.1437378,6.296875,-0.921875,3.109375,399
360,1696245474412,-0.13964844,-0.98516846,0.10101318,4.703125,-1.578125,4.0,400
361,1696245474452,-0.12988281,-0.9495239,0.113220215,5.6875,-1.609375,3.265625,401
362,1696245474492,-0.09399414,-0.956604,0.11126709,4.234375,-2.53125,1.5625,402
363,1696245474532,-0.1550293,-0.9963989,0.1317749,2.203125,-5.890625,1.828125,403
364,1696245474572,-0.14892578,-1.017395,0.117614746,0.828125,-4.765625,1.5625,404
365,1696245474612,-0.1274414,-0.9741821,0.11077881,2.734375,-3.265625,0.609375,405
366,1696245474652,-0.12109375,-0.97735596,0.101989746,1.625,-1.890625,1.609375,406
367,1696245474692,-0.13793945,-0.9951782,0.12615967,2.796875,-0.890625,1.484375,407
368,1696245474732,-0.14819336,-0.9907837,0.11859131,1.875,0.375,0.453125,408
369,1696245474772,-0.12573242,-0.9788208,0.11077881,1.390625,1.0625,0.671875,409
370,1696245474812,-0.1315918,-0.9890747,0.12664795,1.15625,0.515625,0.765625,410
371,1696245474852,-0.12524414,-1.0159302,0.15008545,0.59375,1.953125,0.8125,411
372,1696245474892,-0.13378906,-0.99713135,0.11956787,-3.296875,0.375,0.140625,412
373,1696245474932,-0.11279297,-1.0020142,0.13885498,-4.8125,0.046875,-2.421875,413
374,1696245474972,-0.1586914,-0.97369385,0.124938965,-6.140625,-2.109375,-4.046875,414
375,1696245475012,-0.14916992,-0.97198486,0.097351074,-5.859375,1.34375,-2.953125,415
376,1696245475052,-0.11621094,-0.9854126,0.12225342,-3.234375,2.609375,-1.953125,416
377,1696245475092,-0.14550781,-0.99713135,0.14007568,-3.609375,2.828125,-0.8125,417
378,1696245475132,-0.13574219,-0.9651489,0.14178467,-5.125,2.921875,-0.4375,418
379,1696245475172,-0.13208008,-0.9668579,0.15130615,-4.953125,2.125,-0.84375,419
380,1696245475212,-0.13330078,-0.9751587,0.12982178,-2.671875,0.0,-1.1875,420
381,1696245475252,-0.14379883,-0.9639282,0.14642334,-1.15625,-1.328125,-0.609375,421
382,1696245475292,-0.16601562,-0.9483032,0.13201904,3.171875,-2.265625,-0.140625,422
383,1696245475332,-0.109375,-0.92388916,0.11907959,10.90625,-4.25,3.71875,423
384,1696245475372,-0.11010742,-0.9776001,0.09075928,7.09375,-3.9375,3.265625,424
385,1696245475412,-0.14501953,-0.98272705,0.11102295,3.984375,-7.703125,2.921875,425
386,1696245475452,-0.13989258,-0.9536743,0.11907959,1.78125,-5.515625,2.734375,426
387,1696245475492,-0.11645508,-0.9805298,0.12713623,1.421875,-2.015625,1.015625,427
388,1696245475532,-0.13647461,-1.0271606,0.11224365,0.25,-1.265625,0.140625,428
389,1696245475572,-0.1586914,-0.98565674,0.11566162,1.46875,-1.5,0.9375,429
390,1696245475612,-0.080566406,-0.9783325,0.13763428,0.578125,1.328125,-0.78125,430
391,1696245475652,-0.14453125,-0.99176025,0.13494873,1.90625,-0.53125,0.9375,431
392,1696245475692,-0.15966797,-0.98443604,0.13494873,0.5,-0.46875,-0.140625,432
393,1696245475732,-0.13256836,-1.006897,0.17523193,-1.203125,2.6875,-0.125,433
394,1696245475772,-0.16455078,-1.0232544,0.15545654,-4.15625,1.578125,0.5,434
395,1696245475812,-0.15991211,-0.9924927,0.120788574,-6.765625,1.828125,-2.703125,435
396,1696245475852,-0.12768555,-0.95684814,0.13006592,-4.828125,1.03125,-3.71875,436
397,1696245475892,-0.14941406,-0.9793091,0.14300537,-1.21875,-0.359375,-2.140625,437
398,1696245475932,-0.1352539,-1.0090942,0.15130615,-2.25,1.453125,-0.109375,438
399,1696245475972,-0.14819336,-0.9902954,0.15008545,-3.75,1.25,-0.3125,439
400,1696245476012,-0.15014648,-0.9612427,0.13323975,-3.609375,0.703125,-0.46875,440
401,1696245476052,-0.14257812,-0.9780884,0.12786865,-3.078125,0.765625,-0.5625,441
402,1696245476092,-0.16040039,-0.9729614,0.15692139,-1.953125,0.546875,-0.40625,442
403,1696245476132,-0.15332031,-0.94000244,0.15350342,1.203125,-0.96875,-1.09375,443
404,1696245476172,-0.122802734,-0.9546509,0.085876465,4.125,-1.5,1.859375,444
405,1696245476212,-0.078125,-0.9307251,0.12542725,6.859375,-3.1875,3.34375,445
406,1696245476252,-0.16479492,-0.9973755,0.12640381,4.640625,-7.859375,3.125,446
407,1696245476292,-0.14282227,-0.97491455,0.124694824,2.15625,-6.765625,1.859375,447
408,1696245476332,-0.13891602,-0.9639282,0.12298584,2.296875,-2.59375,1.265625,448
409,1696245476372,-0.14550781,-1.0046997,0.14324951,3.890625,-1.90625,0.546875,449
410,1696245476412,-0.10473633,-1.0217896,0.11590576,2.28125,-0.59375,1.875,450
411,1696245476452,-0.14086914,-0.9639282,0.097351074,2.78125,-0.78125,0.40625,451
412,1696245476492,-0.12695312,-0.9812622,0.11541748,2.71875,0.578125,0.8125,452
413,1696245476532,-0.13012695,-0.991272,0.11126709,1.78125,0.46875,0.953125,453
414,1696245476572,-0.14453125,-0.9920044,0.13031006,1.296875,0.65625,0.375,454
415,1696245476612,-0.13232422,-1.0025024,0.13861084,0.25,1.25,0.5625,455
416,1696245476652,-0.13110352,-1.000061,0.14984131,-2.140625,2.96875,-0.171875,456
417,1696245476692,-0.1418457,-0.99884033,0.124694824,-6.1875,2.71875,-1.15625,457
418,1696245476732,-0.15722656,-0.9673462,0.13641357,-6.15625,2.015625,-2.484375,458
419,1696245476772,-0.1262207,-0.98028564,0.12762451,-4.21875,2.515625,-2.984375,459
420,1696245476812,-0.1081543,-1.0076294,0.14788818,-2.4375,0.265625,0.09375,460
421,1696245476852,-0.15844727,-0.98687744,0.1359253,-2.609375,1.546875,0.53125,461
422,1696245476892,-0.14941406,-0.9668579,0.15472412,-2.59375,3.21875,0.09375,462
423,1696245476932,-0.14208984,-0.98565674,0.1227417,-3.734375,1.75,0.375,463
424,1696245476972,-0.1237793,-0.9717407,0.14276123,-0.8125,0.578125,-0.578125,464
425,1696245477012,-0.16455078,-0.97979736,0.15081787,-1.203125,0.5,-0.125,465
426,1696245477052,-0.14770508,-0.9561157,0.14349365,-0.125,0.328125,-0.53125,466
427,1696245477092,-0.13110352,-0.95269775,0.14105225,2.625,-1.21875,0.171875,467
428,1696245477132,-0.1352539,-0.96295166,0.09222412,5.84375,-3.921875,2.8125,468
429,1696245477172,-0.08691406,-0.9524536,0.11053467,4.28125,-4.546875,3.59375,469
430,1696245477212,-0.17260742,-0.96710205,0.09661865,3.375,-11.3125,2.90625,470
431,1696245477252,-0.109375,-0.9793091,0.109069824,1.15625,-4.03125,0.609375,471
432,1696245477292,-0.12597656,-0.987854,0.15667725,2.953125,-1.671875,1.09375,472
433,1696245477332,-0.12451172,-0.9961548,0.11932373,1.875,0.6875,1.53125,473
434,1696245477372,-0.11206055,-0.99346924,0.11981201,2.4375,0.375,0.59375,474
435,1696245477412,-0.12524414,-0.9937134,0.124694824,2.3125,-0.859375,0.875,475
436,1696245477452,-0.1352539,-0.97247314,0.13983154,0.796875,0.578125,0.25,476
437,1696245477492,-0.11425781,-0.9800415,0.13250732,0.921875,0.625,0.75,477
438,1696245477532,-0.123046875,-0.9993286,0.12664795,0.53125,-0.375,0.21875,478
439,1696245477572,-0.12109375,-1.0066528,0.15472412,-2.25,2.515625,0.28125,479
440,1696245477612,-0.1574707,-0.9932251,0.13226318,-3.78125,0.765625,-0.234375,480
441,1696245477652,-0.13891602,-0.9976196,0.13153076,-6.953125,3.125,-2.34375,481
442,1696245477692,-0.12036133,-0.97979736,0.13641357,-4.515625,0.28125,-4.078125,482
443,1696245477732,-0.13867188,-0.99224854,0.12860107,-4.921875,-1.234375,-3.59375,483
444,1696245477772,-0.14746094,-0.9873657,0.15814209,-3.84375,0.71875,-0.6875,484
445,1696245477812,-0.15478516,-0.9729614,0.14569092,-3.578125,0.734375,-1.125,485
446,1696245477852,-0.1352539,-0.9793091,0.13031006,-2.875,3.21875,-0.734375,486
447,1696245477892,-0.14086914,-0.9729614,0.13153076,-0.90625,1.34375,-0.328125,487
448,1696245477932,-0.14160156,-0.96295166,0.14984131,-1.03125,1.859375,-1.390625,488
449,1696245477972,-0.17651367,-0.9873657,0.16448975,-1.484375,1.125,-0.890625,489
450,1696245478012,-0.13110352,-0.97076416,0.13372803,-1.546875,1.640625,-1.453125,490
451,1696245478052,-0.13549805,-0.95562744,0.16741943,0.359375,-0.078125,-0.46875,491
452,1696245478092,-0.15405273,-0.95977783,0.14886475,2.296875,-2.21875,0.328125,492
453,1696245478132,-0.16210938,-0.9439087,0.12322998,3.46875,-2.5,1.828125,493
454,1696245478172,-0.07714844,-0.9644165,0.11029053,5.296875,-4.65625,2.109375,494
455,1696245478212,-0.15698242,-0.9717407,0.117126465,4.078125,-7.0625,2.9375,495
456,1696245478252,-0.17211914,-0.9817505,0.18353271,3.765625,-1.21875,3.125,496
457,1696245478292,-0.12841797,-0.99468994,0.11663818,0.9375,-1.9375,1.0,497
458,1696245478332,-0.14477539,-0.98321533,0.117126465,1.703125,-5.90625,1.75,498
459,1696245478372,-0.1496582,-0.97125244,0.12200928,2.421875,-4.703125,1.5,499
460,1696245478412,-0.10644531,-0.99224854,0.121032715,1.71875,0.515625,0.921875,500
461,1696245478452,-0.12963867,-1.0066528,0.13812256,2.0625,-1.9375,1.140625,501
462,1696245478492,-0.12524414,-0.9819946,0.12908936,-0.390625,0.4375,-0.703125,502
463,1696245478532,-0.14746094,-1.0037231,0.17718506,1.515625,2.03125,1.375,503
464,1696245478572,-0.13012695,-1.0274048,0.15545654,-3.046875,2.34375,0.40625,504
465,1696245478612,-0.16479492,-0.9793091,0.14593506,-3.3125,1.546875,-1.1875,505
466,1696245478652,-0.12695312,-0.972229,0.14666748,-5.609375,2.375,-1.515625,506
467,1696245478692,-0.15332031,-0.99420166,0.14056396,-4.9375,1.59375,-2.15625,507
468,1696245478732,-0.13671875,-0.97320557,0.14666748,-3.78125,3.078125,-2.25,508
469,1696245478772,-0.14404297,-0.9866333,0.15740967,-2.0625,3.9375,-0.359375,509
470,1696245478812,-0.13964844,-0.9805298,0.13885498,-0.9375,3.875,-0.421875,510
471,1696245478852,-0.13574219,-0.9734497,0.15423584,1.234375,3.953125,0.109375,511
472,1696245478892,-0.15258789,-0.9751587,0.13787842,1.234375,2.59375,0.5625,512
473,1696245478932,-0.1352539,-0.9639282,0.13275146,1.125,2.546875,-0.140625,513
474,1696245478972,-0.13330078,-0.9829712,0.12615967,0.3125,1.375,-0.578125,514
475,1696245479012,-0.13354492,-0.9595337,0.13690186,1.921875,-1.796875,-0.65625,515
476,1696245479052,-0.13256836,-0.94244385,0.124694824,1.046875,-2.21875,-0.8125,516
477,1696245479092,-0.15649414,-0.93292236,0.10662842,2.90625,-6.46875,1.375,517
478,1696245479132,-0.091308594,-0.9468384,0.08880615,3.421875,-6.515625,1.6875,518
479,1696245479172,-0.15649414,-0.989563,0.1359253,-0.359375,-5.59375,2.140625,519
480,1696245479212,-0.16748047,-0.98443604,0.13250732,-3.171875,-6.296875,1.78125,520
481,1696245479252,-0.14135742,-0.98443604,0.1329956,-4.53125,-6.28125,-1.109375,521
482,1696245479292,-0.13330078,-1.006897,0.14398193,-4.890625,-4.453125,-1.96875,522
483,1696245479332,-0.15551758,-0.99591064,0.15496826,-0.25,-3.671875,0.0,523
484,1696245479372,-0.12011719,-0.9685669,0.14788818,3.15625,-2.625,0.109375,524
485,1696245479412,-0.140625,-0.9505005,0.14251709,3.328125,-1.09375,-0.171875,525
486,1696245479452,-0.16503906,-0.9932251,0.15496826,3.625,-0.9375,1.375,526
487,1696245479492,-0.15673828,-1.0007935,0.15863037,1.828125,0.546875,0.359375,527
488,1696245479532,-0.14916992,-0.9927368,0.24163818,4.59375,3.28125,1.625,528
489,1696245479572,-0.11645508,-1.039856,0.19110107,-2.0,7.765625,6.5625,529
490,1696245479612,-0.1508789,-1.0222778,0.14593506,1.34375,11.109375,5.0,530
491,1696245479652,-0.12597656,-0.94537354,0.1293335,-2.859375,8.28125,2.484375,531
492,1696245479692,-0.1340332,-0.97491455,0.090026855,-1.03125,3.859375,1.578125,532
493,1696245479732,-0.13598633,-0.954895,0.11590576,0.21875,2.53125,0.46875,533
494,1696245479772,-0.111816406,-0.9824829,0.12347412,0.53125,2.53125,-1.296875,534
495,1696245479812,-0.111572266,-1.0003052,0.11932373,-0.171875,0.890625,-1.484375,535
496,1696245479852,-0.12084961,-0.97662354,0.13397217,0.03125,-0.296875,-1.90625,536
497,1696245479892,-0.12426758,-0.9729614,0.13494873,-0.671875,-0.40625,-1.53125,537
498,1696245479932,-0.111572266,-0.9644165,0.117370605,-0.203125,-2.0625,-1.1875,538
499,1696245479972,-0.13720703,-0.94000244,0.101501465,1.03125,-4.75,-0.453125,539
500,1696245480012,-0.12011719,-0.9326782,0.08782959,1.90625,-5.53125,0.90625,540
501,1696245480052,-0.10449219,-0.96295166,0.0692749,1.296875,-12.234375,0.265625,541
502,1696245480092,-0.14819336,-0.987854,0.20770264,7.703125,-4.765625,3.5625,542
503,1696245480132,-0.13916016,-1.0215454,0.12738037,-1.125,-1.03125,1.703125,543
504,1696245480172,-0.104003906,-0.9817505,0.11566162,-3.671875,0.625,-0.140625,544
505,1696245480212,-0.15991211,-1.0049438,0.14031982,-0.8125,-3.25,2.875,545
506,1696245480252,-0.106933594,-0.9873657,0.11590576,-1.078125,-0.078125,1.390625,546
507,1696245480292,-0.122558594,-0.9812622,0.11981201,0.125,-0.9375,2.171875,547
508,1696245480332,-0.14111328,-0.9710083,0.09881592,-0.15625,-2.25,0.0625,548
509,1696245480372,-0.12451172,-0.97735596,0.12542725,0.875,-1.734375,-0.359375,549
510,1696245480412,-0.09838867,-1.0110474,0.13812256,-0.234375,-0.1875,0.984375,550
511,1696245480452,-0.12036133,-0.9812622,0.14544678,-0.171875,0.125,-0.015625,551
512,1696245480492,-0.1262207,-1.000061,0.1642456,0.015625,3.546875,1.453125,552
513,1696245480532,-0.122558594,-1.0217896,0.15594482,-1.046875,3.875,1.15625,553
514,1696245480572,-0.12207031,-0.9990845,0.15863037,-1.875,3.90625,-0.359375,554
515,1696245480612,-0.125,-0.9714966,0.13104248,-4.328125,2.9375,-2.34375,555
516,1696245480652,-0.12915039,-0.96588135,0.13079834,-1.59375,1.5,-0.40625,556
517,1696245480692,-0.1237793,-0.9819946,0.15594482,-0.140625,4.140625,-0.953125,557
518,1696245480732,-0.10986328,-1.0003052,0.11981201,-0.09375,4.921875,-1.09375,558
519,1696245480772,-0.12719727,-0.98883057,0.13397217,-1.109375,4.328125,-0.34375,559
520,1696245480812,-0.12768555,-0.97979736,0.11273193,0.734375,2.5,0.453125,560
521,1696245480852,-0.11791992,-0.9541626,0.13812256,0.890625,1.078125,-1.21875,561
522,1696245480892,-0.12841797,-0.9636841,0.13494873,2.171875,-1.484375,-0.828125,562
523,1696245480932,-0.12646484,-0.97442627,0.14007568,1.21875,-1.75,-0.234375,563
524,1696245480972,-0.107666016,-0.9607544,0.13201904,1.03125,-2.9375,-0.25,564
525,1696245481012,-0.110839844,-0.9234009,0.117126465,2.796875,-4.796875,0.796875,565
526,1696245481052,-0.107666016,-0.95269775,0.08050537,4.90625,-4.265625,2.0625,566
527,1696245481092,-0.11303711,-0.97735596,0.13421631,6.296875,-4.515625,3.578125,567
528,1696245481132,-0.12084961,-0.99835205,0.06903076,-2.109375,-8.1875,3.1875,568
529,1696245481172,-0.12597656,-0.9421997,0.11004639,-5.203125,-4.140625,-2.140625,569
530,1696245481212,-0.12011719,-1.0762329,0.15032959,-1.796875,-2.078125,0.359375,570
531,1696245481252,-0.14086914,-1.0159302,0.12371826,-5.28125,-5.171875,0.8125,571
532,1696245481292,-0.103271484,-0.923645,0.078552246,-5.015625,-2.671875,-2.3125,572
533,1696245481332,-0.10620117,-0.96173096,0.1473999,-0.234375,-3.609375,0.078125,573
534,1696245481372,-0.15185547,-1.0112915,0.16986084,1.59375,-2.796875,1.28125,574
535,1696245481412,-0.13842773,-0.97491455,0.1593628,2.125,-0.546875,-0.625,575
536,1696245481452,-0.10522461,-0.9859009,0.1642456,1.21875,1.203125,0.390625,576
537,1696245481492,-0.12426758,-0.99957275,0.19476318,2.53125,3.28125,2.46875,577
538,1696245481532,-0.12792969,-1.0457153,0.17376709,0.8125,9.328125,3.671875,578
539,1696245481572,-0.11450195,-0.9849243,0.1515503,2.21875,6.671875,2.984375,579
540,1696245481612,-0.12646484,-0.9746704,0.11907959,-3.671875,4.5625,0.890625,580
541,1696245481652,-0.12792969,-0.9714966,0.117370605,-3.640625,3.25,-0.625,581
542,1696245481692,-0.11450195,-0.9602661,0.120788574,-2.640625,1.96875,-0.671875,582
543,1696245481732,-0.11254883,-0.986145,0.14105225,-0.71875,2.328125,-0.515625,583
544,1696245481772,-0.115722656,-0.9873657,0.14910889,-0.546875,0.421875,-0.640625,584
545,1696245481812,-0.12182617,-0.99005127,0.12445068,-3.109375,1.703125,-0.984375,585
546,1696245481852,-0.12548828,-0.9734497,0.10736084,-1.921875,0.03125,-0.84375,586
547,1696245481892,-0.12231445,-0.96954346,0.15252686,-1.609375,1.6875,-1.8125,587
548,1696245481932,-0.13061523,-0.98272705,0.152771,0.765625,-0.265625,-0.828125,588
549,1696245481972,-0.091796875,-0.95025635,0.1293335,1.59375,-1.25,-1.21875,589
550,1696245482012,-0.114746094,-0.93927,0.15252686,5.078125,-4.359375,0.25,590
551,1696245482052,-0.10058594,-0.9246216,0.078552246,7.421875,-3.65625,2.28125,591
552,1696245482092,-0.08203125,-0.991272,0.113220215,8.4375,-4.15625,3.765625,592
553,1696245482132,-0.11206055,-0.99005127,0.11834717,1.796875,-3.375,2.984375,593
554,1696245482172,-0.12792969,-0.9602661,0.10736084,-0.40625,-3.90625,0.6875,594
555,1696245482212,-0.12451172,-0.991272,0.10003662,-3.203125,-8.0625,-0.84375,595
556,1696245482252,-0.12719727,-0.97540283,0.10247803,-5.59375,-8.265625,-1.171875,596
557,1696245482292,-0.091552734,-0.99102783,0.10687256,-3.296875,-5.34375,-1.546875,597
558,1696245482332,-0.12988281,-1.0230103,0.12298584,-1.28125,-4.71875,-1.03125,598
559,1696245482372,-0.14135742,-0.9788208,0.11541748,2.078125,-2.90625,-0.296875,599
560,1696245482412,-0.12548828,-0.9644165,0.14251709,3.421875,-1.78125,-0.578125,600
561,1696245482452,-0.11303711,-0.98638916,0.13153076,1.609375,2.0,0.0625,601
562,1696245482492,-0.14575195,-1.0076294,0.14691162,1.640625,0.453125,0.484375,602
563,1696245482532,-0.13183594,-0.99786377,0.17034912,1.84375,3.203125,1.453125,603
564,1696245482572,-0.107177734,-1.0108032,0.15447998,-3.265625,4.59375,1.171875,604
565,1696245482612,-0.14477539,-0.99468994,0.16351318,-3.3125,2.78125,0.40625,605
566,1696245482652,-0.12890625,-0.96466064,0.12640381,-6.296875,2.453125,-1.734375,606
567,1696245482692,-0.12695312,-0.9805298,0.12713623,-4.25,2.53125,-0.578125,607
568,1696245482732,-0.12109375,-0.989563,0.16107178,-2.71875,4.921875,-0.359375,608
569,1696245482772,-0.11791992,-0.99713135,0.12664795,-2.21875,4.21875,-0.0625,609
570,1696245482812,-0.12548828,-0.9783325,0.15032959,0.40625,3.328125,0.0625,610
571,1696245482852,-0.12939453,-0.98394775,0.15472412,0.8125,3.71875,0.359375,611
572,1696245482892,-0.12158203,-0.9944458,0.12298584,-0.390625,2.109375,0.015625,612
573,1696245482932,-0.13574219,-0.9834595,0.13519287,0.078125,1.765625,-0.28125,613
574,1696245482972,-0.11230469,-0.95684814,0.16009521,2.484375,-0.40625,-0.828125,614
575,1696245483012,-0.103027344,-0.94610596,0.10760498,0.15625,0.140625,-1.15625,615
576,1696245483052,-0.1418457,-0.96954346,0.15447998,3.578125,-3.5,1.4375,616
577,1696245483092,-0.08300781,-0.93414307,0.070007324,5.453125,-5.625,0.484375,617
578,1696245483132,-0.0847168,-0.9495239,0.11224365,5.09375,-5.65625,2.15625,618
579,1696245483172,-0.14526367,-1.0178833,0.121276855,4.953125,-2.265625,3.921875,619
580,1696245483212,-0.11669922,-0.9902954,0.1083374,-0.3125,-3.234375,1.3125,620
581,1696245483252,-0.10986328,-0.96295166,0.08441162,-3.90625,-7.734375,-0.609375,621
582,1696245483292,-0.13867188,-0.9717407,0.1408081,-3.09375,-7.4375,-0.4375,622
583,1696245483332,-0.111328125,-1.0154419,0.109802246,-1.78125,-4.578125,-0.625,623
584,1696245483372,-0.1027832,-0.99298096,0.12738037,-0.171875,-3.625,-0.6875,624
585,1696245483412,-0.11694336,-0.97247314,0.12420654,1.765625,-2.203125,0.46875,625
586,1696245483452,-0.14208984,-0.9898071,0.14471436,2.171875,-0.953125,0.484375,626
587,1696245483492,-0.13720703,-0.98931885,0.14544678,1.4375,-0.515625,0.40625,627
588,1696245483532,-0.115478516,-0.9834595,0.15447998,1.125,2.09375,-0.109375,628
589,1696245483572,-0.10864258,-1.038147,0.16033936,-1.796875,5.6875,1.6875,629
590,1696245483612,-0.1484375,-0.99468994,0.16473389,0.109375,3.0625,0.78125,630
591,1696245483652,-0.11206055,-0.9907837,0.13641357,-5.359375,4.453125,-0.1875,631
592,1696245483692,-0.13330078,-0.95977783,0.117370605,-5.234375,3.765625,-0.578125,632
593,1696245483732,-0.13110352,-0.975647,0.13470459,-2.828125,3.1875,-0.546875,633
594,1696245483772,-0.10595703,-1.0005493,0.13787842,-1.640625,3.3125,-1.0,634
595,1696245483812,-0.12426758,-0.989563,0.15301514,-0.921875,3.03125,-0.828125,635
596,1696245483852,-0.13378906,-0.97076416,0.15618896,-0.203125,2.65625,-0.46875,636
597,1696245483892,-0.12792969,-0.98101807,0.13226318,-0.328125,2.265625,-0.140625,637
598,1696245483932,-0.125,-0.96954346,0.13690186,-0.296875,2.0625,-0.484375,638
599,1696245483972,-0.11401367,-0.9763794,0.12786865,0.71875,0.234375,-0.578125,639
600,1696245484012,-0.13110352,-0.9529419,0.13812256,2.578125,-2.5625,-0.03125,640
601,1696245484052,-0.122802734,-0.940979,0.13153076,5.921875,-5.703125,0.984375,641
602,1696245484092,-0.08105469,-0.92388916,0.08392334,5.96875,-4.046875,0.6875,642
603,1696245484132,-0.08618164,-0.99664307,0.098083496,3.984375,-3.875,2.21875,643
604,1696245484172,-0.13061523,-0.98687744,0.113220215,0.65625,-5.078125,2.453125,644
605,1696245484212,-0.13623047,-0.9768677,0.11810303,-1.796875,-5.515625,0.46875,645
606,1696245484252,-0.11425781,-0.99005127,0.12298584,-0.984375,-6.25,-0.21875,646
607,1696245484292,-0.1303711,-1.0073853,0.1449585,-3.203125,-5.703125,-0.265625,647
608,1696245484332,-0.10839844,-0.99102783,0.07342529,-3.46875,-5.375,-1.515625,648
609,1696245484372,-0.123291016,-0.97491455,0.11981201,-0.03125,-4.359375,-0.859375,649
610,1696245484412,-0.119140625,-0.9834595,0.11199951,2.640625,-2.296875,0.546875,650
611,1696245484452,-0.13574219,-0.9871216,0.13665771,3.421875,-0.796875,0.953125,651
612,1696245484492,-0.13330078,-0.9985962,0.13128662,3.078125,-0.40625,0.421875,652
613,1696245484532,-0.11767578,-0.975647,0.12786865,2.421875,-0.265625,0.734375,653
614,1696245484572,-0.12182617,-0.9949341,0.121032715,1.75,-0.515625,0.859375,654
615,1696245484612,-0.13232422,-0.9993286,0.15911865,2.078125,2.03125,1.78125,655
616,1696245484652,-0.10522461,-1.0205688,0.121520996,-3.78125,5.8125,1.375,656
617,1696245484692,-0.1315918,-0.9961548,0.16741943,-1.90625,2.375,1.0625,657
618,1696245484732,-0.12011719,-0.97052,0.11077881,-8.609375,5.1875,-1.59375,658
619,1696245484772,-0.13183594,-0.9998169,0.1408081,-5.59375,2.703125,-0.90625,659
620,1696245484812,-0.107910156,-0.98687744,0.124694824,-5.390625,2.9375,-1.75,660
621,1696245484852,-0.11743164,-0.9595337,0.1515503,-1.265625,1.84375,-0.421875,661
622,1696245484892,-0.140625,-0.97906494,0.14984131,-0.296875,2.21875,0.484375,662
623,1696245484932,-0.119384766,-0.98223877,0.12298584,-1.609375,2.671875,-0.53125,663
624,1696245484972,-0.13110352,-0.96832275,0.1486206,-0.21875,1.8125,-0.296875,664
625,1696245485012,-0.13061523,-0.97052,0.14398193,1.09375,0.828125,-0.390625,665
626,1696245485052,-0.103027344,-0.96881104,0.13885498,2.140625,-0.6875,-0.453125,666
627,1696245485092,-0.114746094,-0.9570923,0.124938965,4.40625,-2.1875,0.578125,667
628,1696245485132,-0.09692383,-0.940979,0.08709717,5.125,-3.15625,-1.046875,668
629,1696245485172,-0.09448242,-0.9487915,0.10736084,3.046875,-5.859375,0.265625,669
630,1696245485212,-0.140625,-0.97979736,0.109313965,-0.5625,-8.859375,0.34375,670
631,1696245485252,-0.15307617,-1.0044556,0.15350342,-0.28125,-8.578125,0.171875,671
632,1696245485292,-0.095458984,-1.0046997,0.13372803,-4.015625,-5.09375,-0.6875,672
633,1696245485332,-0.15429688,-0.9859009,0.13812256,-0.109375,-4.90625,0.890625,673
634,1696245485372,-0.12939453,-0.9885864,0.09881592,-0.125,-1.9375,0.078125,674
635,1696245485412,-0.118652344,-0.9727173,0.12054443,2.25,-0.125,0.140625,675
636,1696245485452,-0.14013672,-0.9717407,0.1083374,2.421875,-0.21875,0.515625,676
637,1696245485492,-0.13354492,-0.97857666,0.12567139,3.4375,0.71875,-1.609375,677
638,1696245485532,-0.11425781,-1.0100708,0.14569092,3.984375,1.203125,-0.453125,678
639,1696245485572,-0.12866211,-1.0010376,0.13616943,1.84375,-0.09375,0.6875,679
640,1696245485612,-0.14038086,-0.973938,0.1317749,1.40625,0.890625,0.421875,680
641,1696245485652,-0.12817383,-1.0059204,0.1395874,-1.390625,1.65625,0.828125,681
642,1696245485692,-0.14990234,-1.0029907,0.152771,-3.734375,0.515625,0.46875,682
643,1696245485732,-0.1394043,-0.9656372,0.12591553,-5.703125,-0.6875,-1.140625,683
644,1696245485772,-0.15161133,-0.98443604,0.109069824,-4.84375,2.453125,-0.21875,684
645,1696245485812,-0.12573242,-1.0027466,0.13104248,-4.515625,5.1875,0.3125,685
646,1696245485852,-0.1081543,-0.9920044,0.14422607,-4.015625,8.453125,0.765625,686
647,1696245485892,-0.1303711,-1.0066528,0.14349365,-2.59375,8.0,0.9375,687
648,1696245485932,-0.119140625,-0.97320557,0.13104248,0.3125,6.46875,1.359375,688
649,1696245485972,-0.13134766,-0.9534302,0.1383667,2.09375,3.09375,1.953125,689
650,1696245486012,-0.15161133,-0.98272705,0.12347412,1.265625,0.90625,0.0625,690
651,1696245486052,-0.12670898,-0.9780884,0.13421631,0.359375,0.609375,-0.765625,691
652,1696245486092,-0.10522461,-0.9639282,0.1317749,1.359375,-2.15625,-0.5625,692
653,1696245486132,-0.12451172,-0.93414307,0.12957764,5.390625,-5.53125,1.640625,693
654,1696245486172,-0.064697266,-0.9627075,0.07293701,6.890625,-5.390625,2.0625,694
655,1696245486212,-0.10058594,-0.989563,0.10784912,7.0,-2.421875,3.890625,695
656,1696245486252,-0.1430664,-1.0037231,0.11419678,4.296875,-1.84375,3.75,696
657,1696245486292,-0.119628906,-0.9866333,0.12200928,1.609375,-1.59375,1.875,697
658,1696245486332,-0.1340332,-0.9685669,0.11541748,-0.390625,-4.125,0.796875,698
659,1696245486372,-0.099609375,-0.9793091,0.05731201,-5.265625,-2.796875,0.375,699
660,1696245486412,-0.1184082,-0.97320557,0.11444092,-4.40625,-7.5,-1.140625,700
661,1696245486452,-0.10961914,-0.99176025,0.10784912,-4.15625,-6.1875,-0.921875,701
662,1696245486492,-0.0871582,-1.0005493,0.12567139,-0.71875,-4.0625,-1.671875,702
663,1696245486532,-0.12524414,-0.98760986,0.13519287,1.640625,-4.015625,-0.578125,703
664,1696245486572,-0.118896484,-0.9751587,0.1239624,1.859375,-1.984375,-0.46875,704
665,1696245486612,-0.111816406,-0.98883057,0.1383667,2.609375,-0.125,0.296875,705
666,1696245486652,-0.13549805,-0.9932251,0.13153076,1.28125,0.359375,0.46875,706
667,1696245486692,-0.119384766,-1.0217896,0.16937256,0.65625,4.25,2.140625,707
668,1696245486732,-0.12524414,-1.029602,0.15228271,-2.78125,2.109375,0.90625,708
669,1696245486772,-0.14282227,-0.9734497,0.12982178,-7.5625,3.671875,-1.3125,709
670,1696245486812,-0.10473633,-0.9702759,0.13031006,-6.921875,2.515625,-1.84375,710
671,1696245486852,-0.11621094,-1.006897,0.13421631,-5.265625,0.453125,-0.9375,711
672,1696245486892,-0.123291016,-0.9805298,0.16693115,-2.9375,2.328125,-1.1875,712
673,1696245486932,-0.1105957,-0.9741821,0.13128662,-3.28125,5.09375,-0.59375,713
674,1696245486972,-0.1381836,-0.98516846,0.16766357,-0.75,3.765625,0.046875,714
675,1696245487012,-0.12524414,-0.9898071,0.13739014,-0.34375,3.75,-0.140625,715
676,1696245487052,-0.122558594,-0.9536743,0.15179443,1.359375,3.0625,0.390625,716
677,1696245487092,-0.12695312,-0.9812622,0.14813232,2.0625,0.734375,0.125,717
678,1696245487132,-0.118652344,-0.97784424,0.12542725,1.625,-1.0,-0.734375,718
679,1696245487172,-0.115478516,-0.9546509,0.13104248,4.078125,-3.03125,0.140625,719
680,1696245487212,-0.09814453,-0.9458618,0.11956787,6.125,-5.296875,1.609375,720
681,1696245487252,-0.114746094,-0.9585571,0.07171631,7.296875,-6.1875,1.390625,721
682,1696245487292,-0.109375,-1.0144653,0.09320068,5.203125,-6.421875,1.03125,722
683,1696245487332,-0.13183594,-0.99713135,0.09954834,0.640625,-4.625,-1.125,723
684,1696245487372,-0.13061523,-0.9561157,0.12200928,-0.71875,-2.640625,-2.21875,724
685,1696245487412,-0.12841797,-0.9937134,0.10882568,-3.234375,-3.53125,-0.828125,725
686,1696245487452,-0.15063477,-0.9817505,0.10662842,-2.671875,-2.640625,-1.203125,726
687,1696245487492,-0.099365234,-0.9697876,0.13934326,-0.953125,0.046875,-0.671875,727
688,1696245487532,-0.15136719,-0.9932251,0.14154053,0.015625,-2.875,1.265625,728
689,1696245487572,-0.13696289,-0.9741821,0.12420654,-0.671875,-1.609375,0.984375,729
690,1696245487612,-0.13769531,-0.9824829,0.12298584,-0.296875,-1.984375,0.625,730
691,1696245487652,-0.15356445,-0.9793091,0.13348389,0.625,-1.328125,0.765625,731
692,1696245487692,-0.10888672,-0.9849243,0.13470459,0.859375,-0.4375,0.015625,732
693,1696245487732,-0.11401367,-0.98272705,0.121520996,0.859375,-0.640625,-0.78125,733
694,1696245487772,-0.13549805,-1.0073853,0.17034912,1.1875,2.15625,0.578125,734
695,1696245487812,-0.13989258,-1.0256958,0.1408081,-2.328125,2.140625,0.40625,735
696,1696245487852,-0.11230469,-0.9841919,0.15203857,-3.796875,3.546875,-1.484375,736
697,1696245487892,-0.13476562,-0.96710205,0.117614746,-5.96875,1.109375,-3.125,737
698,1696245487932,-0.18041992,-0.9976196,0.14935303,-3.03125,1.453125,-0.59375,738
699,1696245487972,-0.14526367,-0.96881104,0.14398193,-3.28125,4.0625,-1.734375,739
700,1696245488012,-0.12084961,-0.98638916,0.11273193,-2.125,5.46875,-0.625,740
701,1696245488052,-0.1574707,-0.9758911,0.17230225,0.1875,2.546875,-0.34375,741
702,1696245488092,-0.15014648,-0.9834595,0.1317749,-0.96875,2.421875,-0.484375,742
703,1696245488132,-0.13305664,-0.95758057,0.14715576,0.109375,1.921875,-0.984375,743
704,1696245488172,-0.14477539,-0.9795532,0.1449585,1.28125,0.3125,-0.609375,744
705,1696245488212,-0.13867188,-0.9780884,0.13323975,1.78125,-0.140625,-0.578125,745
706,1696245488252,-0.13378906,-0.95269775,0.14105225,3.078125,-1.734375,-0.484375,746
707,1696245488292,-0.13476562,-0.93414307,0.10418701,4.484375,-4.03125,1.140625,747
708,1696245488332,-0.095947266,-0.96099854,0.08660889,7.359375,-3.59375,3.328125,748
709,1696245488372,-0.12451172,-0.9902954,0.13372803,4.78125,-2.640625,4.0,749
710,1696245488412,-0.16430664,-0.9819946,0.1005249,2.03125,-1.9375,3.3125,750
711,1696245488452,-0.14160156,-0.9710083,0.15350342,2.125,-2.328125,1.859375,751
712,1696245488492,-0.11767578,-0.99835205,0.09295654,-2.125,0.0625,1.625,752
713,1696245488532,-0.10644531,-0.97125244,0.08709717,-0.59375,-1.984375,1.921875,753
714,1696245488572,-0.103759766,-0.9553833,0.08343506,-3.03125,-6.21875,0.6875,754
715,1696245488612,-0.1418457,-0.9819946,0.12005615,-3.265625,-5.453125,0.609375,755
716,1696245488652,-0.115234375,-0.99224854,0.124938965,-1.203125,-3.09375,-0.25,756
717,1696245488692,-0.123535156,-1.0112915,0.14447021,0.234375,-2.578125,0.296875,757
718,1696245488732,-0.122558594,-0.9793091,0.12762451,1.71875,-1.25,0.484375,758
719,1696245488772,-0.11376953,-0.9763794,0.12542725,2.609375,0.0625,0.734375,759
720,1696245488812,-0.12670898,-0.9981079,0.14349365,1.421875,0.46875,0.84375,760
721,1696245488852,-0.13330078,-1.0261841,0.1720581,-1.125,3.578125,1.203125,761
722,1696245488892,-0.12915039,-1.017395,0.14910889,-1.890625,1.890625,1.09375,762
723,1696245488932,-0.11816406,-0.97906494,0.13885498,-4.578125,3.75,-0.765625,763
724,1696245488972,-0.13085938,-0.9727173,0.10321045,-6.203125,2.875,-1.765625,764
725,1696245489012,-0.15771484,-0.99298096,0.14202881,-2.359375,0.890625,-0.8125,765
726,1696245489052,-0.12426758,-0.97784424,0.14788818,-2.078125,3.6875,-1.84375,766
727,1696245489092,-0.107666016,-0.98150635,0.13079834,-3.0,4.703125,-1.859375,767
728,1696245489132,-0.14453125,-0.9741821,0.16741943,-1.171875,1.375,-1.359375,768
729,1696245489172,-0.13916016,-0.99468994,0.120788574,-2.609375,1.671875,-0.84375,769
730,1696245489212,-0.12963867,-0.9483032,0.15106201,-0.5,2.265625,-1.1875,770
731,1696245489252,-0.13378906,-0.9800415,0.14910889,0.65625,0.28125,-0.84375,771
732,1696245489292,-0.14233398,-0.97857666,0.14129639,1.578125,-1.578125,-0.3125,772
733,1696245489332,-0.14013672,-0.9385376,0.12640381,5.890625,-3.5,1.234375,773
734,1696245489372,-0.08178711,-0.94195557,0.10369873,8.25,-5.5625,2.015625,774
735,1696245489412,-0.11401367,-0.9795532,0.11029053,7.859375,-5.046875,3.953125,775
736,1696245489452,-0.1430664,-0.9949341,0.11541748,4.515625,-3.046875,3.484375,776
737,1696245489492,-0.12426758,-0.97979736,0.09857178,0.484375,-3.6875,1.265625,777
738,1696245489532,-0.13769531,-0.98516846,0.109313965,-2.03125,-6.046875,-0.015625,778
739,1696245489572,-0.11425781,-0.98150635,0.09588623,-2.390625,-4.40625,0.421875,779
740,1696245489612,-0.114746094,-0.9890747,0.09637451,-0.265625,-4.0625,0.765625,780
741,1696245489652,-0.100097656,-0.9746704,0.09588623,-0.96875,-3.5625,-0.21875,781
742,1696245489692,-0.14404297,-1.005188,0.10443115,1.578125,-3.25,1.375,782
743,1696245489732,-0.11206055,-0.99542236,0.13446045,1.78125,0.0,-0.046875,783
744,1696245489772,-0.13330078,-0.9841919,0.11859131,1.234375,1.359375,0.25,784
745,1696245489812,-0.12084961,-0.9849243,0.1251831,2.25,0.75,1.0,785
746,1696245489852,-0.122802734,-0.99786377,0.11663818,0.796875,0.765625,0.609375,786
747,1696245489892,-0.12768555,-0.9817505,0.12249756,0.515625,0.734375,0.328125,787
748,1696245489932,-0.11206055,-1.0032349,0.15447998,-0.671875,2.84375,0.0625,788
749,1696245489972,-0.1303711,-1.0154419,0.1383667,-2.15625,1.875,0.5,789
750,1696245490012,-0.122802734,-0.98223877,0.12713623,-5.0625,3.296875,-1.921875,790
751,1696245490052,-0.13354492,-0.98394775,0.12176514,-5.46875,3.890625,-1.46875,791
752,1696245490092,-0.13183594,-0.9949341,0.16229248,-4.015625,1.8125,-0.515625,792
753,1696245490132,-0.111328125,-0.9758911,0.1305542,-5.296875,2.5,-0.5,793
754,1696245490172,-0.12133789,-0.9714966,0.11077881,-3.921875,3.8125,-0.34375,794
755,1696245490212,-0.13623047,-0.97491455,0.16522217,-0.578125,2.328125,0.28125,795
756,1696245490252,-0.14550781,-1.0088501,0.14031982,-1.03125,2.359375,-0.078125,796
757,1696245490292,-0.119140625,-0.9492798,0.13153076,-0.59375,2.765625,-0.984375,797
758,1696245490332,-0.14379883,-0.96661377,0.14349365,1.46875,0.265625,-1.0,798
759,1696245490372,-0.15356445,-0.986145,0.15350342,1.671875,-0.140625,-1.3125,799
