# Sensor type: Respeck
# Activity type: Lying down on left
# Activity subtype: Talking
# Subject id: s2104454
# Notes: unprocessed
timestamp,accel_x,accel_y,accel_z,gyro_x,gyro_y,gyro_z
1696244380755,-0.6804199,-0.06817627,-0.7085571,-0.28125,0.0625,0.21875
1696244380794,-0.67944336,-0.06378174,-0.72613525,0.171875,-0.734375,0.171875
1696244380835,-0.685791,-0.06402588,-0.7197876,-0.078125,-0.53125,0.328125
1696244380876,-0.67700195,-0.07086182,-0.71954346,-0.078125,-0.421875,0.203125
1696244380917,-0.67578125,-0.070373535,-0.71588135,-0.09375,-0.21875,0.125
1696244380956,-0.67700195,-0.06744385,-0.7180786,-0.03125,-0.703125,0.171875
1696244380995,-0.6779785,-0.06744385,-0.72540283,-0.328125,-0.421875,0.265625
1696244381036,-0.67749023,-0.062316895,-0.7112427,-0.109375,-0.375,0.265625
1696244381076,-0.6779785,-0.07330322,-0.71954346,0.0625,-0.71875,0.203125
1696244381116,-0.6750488,-0.07281494,-0.7127075,0.0625,-0.453125,0.265625
1696244381156,-0.67407227,-0.06793213,-0.7217407,0.109375,-0.5,0.015625
1696244381196,-0.68066406,-0.070617676,-0.72247314,0.03125,-0.234375,0.234375
1696244381237,-0.67944336,-0.06549072,-0.71221924,-0.140625,-0.328125,0.15625
1696244381276,-0.67626953,-0.066223145,-0.7214966,-0.21875,-0.484375,0.375
1696244381358,-0.67529297,-0.06402588,-0.7180786,0.046875,-0.484375,0.203125
1696244381362,-0.67626953,-0.06842041,-0.71832275,-0.046875,-0.453125,0.171875
1696244381375,-0.6791992,-0.06573486,-0.72662354,-0.015625,-0.421875,0.203125
1696244381438,-0.67749023,-0.0635376,-0.71710205,-0.0625,-0.515625,0.25
1696244381456,-0.6767578,-0.06524658,-0.72320557,-0.03125,-0.40625,0.21875
1696244381496,-0.67993164,-0.074035645,-0.71954346,0.0,-0.375,0.3125
1696244381536,-0.68481445,-0.06695557,-0.7246704,-0.1875,-0.4375,0.21875
1696244381577,-0.67626953,-0.07281494,-0.7149048,-0.109375,-0.359375,0.15625
1696244381618,-0.6833496,-0.07476807,-0.7280884,0.203125,-0.6875,0.21875
1696244381657,-0.6665039,-0.06964111,-0.7029419,0.375,-0.578125,0.234375
1696244381717,-0.67626953,-0.061828613,-0.73443604,-0.59375,0.28125,0.25
1696244381736,-0.67163086,-0.06890869,-0.7005005,-0.078125,0.109375,0.1875
1696244381798,-0.68237305,-0.06964111,-0.7217407,0.234375,-0.59375,0.125
1696244381819,-0.6855469,-0.070129395,-0.71954346,-0.25,-0.40625,0.125
1696244381881,-0.6767578,-0.06768799,-0.71954346,-0.265625,-0.421875,0.265625
1696244381895,-0.6826172,-0.066467285,-0.7197876,-0.078125,-0.296875,0.171875
1696244381940,-0.6789551,-0.06768799,-0.70977783,0.078125,-0.3125,0.328125
1696244381977,-0.6843262,-0.070617676,-0.7268677,-0.171875,-0.390625,0.265625
1696244382016,-0.6796875,-0.070373535,-0.7124634,-0.140625,-0.078125,0.328125
1696244382055,-0.6801758,-0.065979004,-0.71343994,0.140625,-0.671875,0.09375
1696244382096,-0.6809082,-0.0647583,-0.7161255,0.0625,-0.40625,0.1875
1696244382140,-0.68188477,-0.062072754,-0.71881104,0.125,-0.421875,0.265625
1696244382177,-0.6755371,-0.07208252,-0.7192993,0.0,-0.265625,0.15625
1696244382217,-0.68408203,-0.06109619,-0.7119751,0.0,-0.46875,0.1875
1696244382255,-0.6813965,-0.06524658,-0.7173462,-0.203125,-0.421875,0.328125
1696244382298,-0.68310547,-0.06378174,-0.7173462,-0.1875,-0.390625,0.328125
1696244382338,-0.6828613,-0.06964111,-0.71661377,-0.234375,-0.359375,0.28125
1696244382376,-0.6845703,-0.066467285,-0.7168579,0.125,-0.546875,0.09375
1696244382415,-0.6855469,-0.066223145,-0.7192993,-0.046875,-0.21875,0.1875
1696244382455,-0.68774414,-0.07232666,-0.7192993,-0.109375,-0.359375,0.203125
1696244382496,-0.6928711,-0.066467285,-0.7163696,-0.046875,-0.296875,0.15625
1696244382538,-0.6882324,-0.07159424,-0.71954346,-0.140625,-0.03125,0.1875
1696244382576,-0.67626953,-0.065979004,-0.7178345,0.0,-0.125,0.15625
1696244382616,-0.6845703,-0.07159424,-0.72442627,0.0625,-0.625,0.265625
1696244382657,-0.67578125,-0.06939697,-0.7139282,-0.953125,1.15625,0.671875
1696244382675,-0.68066406,-0.0713501,-0.7029419,-0.15625,0.09375,0.3125
1696244382717,-0.68652344,-0.06964111,-0.7156372,0.0625,-0.28125,0.21875
1696244382757,-0.6862793,-0.065979004,-0.7124634,0.03125,-0.375,0.15625
1696244382796,-0.685791,-0.065979004,-0.7173462,-0.125,-0.328125,0.359375
1696244382836,-0.6933594,-0.0725708,-0.7163696,-0.1875,-0.265625,0.203125
1696244382877,-0.6821289,-0.07696533,-0.7022095,0.140625,-0.234375,0.328125
1696244382917,-0.6833496,-0.07183838,-0.71051025,-0.046875,-0.125,0.25
1696244382955,-0.6882324,-0.07550049,-0.706604,0.03125,-0.15625,0.328125
1696244382996,-0.68652344,-0.07232666,-0.7192993,-0.0625,-0.359375,0.203125
1696244383039,-0.6904297,-0.07476807,-0.7114868,-0.140625,-0.109375,0.15625
1696244383076,-0.6936035,-0.06768799,-0.7102661,0.140625,-0.265625,0.125
1696244383118,-0.6945801,-0.06695557,-0.7131958,-0.046875,-0.0625,0.171875
1696244383155,-0.6953125,-0.0725708,-0.7163696,-0.234375,-0.171875,0.171875
1696244383194,-0.6916504,-0.06719971,-0.7131958,-0.109375,0.078125,0.3125
1696244383234,-0.6960449,-0.070373535,-0.7151489,-0.125,-0.265625,0.203125
1696244383275,-0.6850586,-0.06964111,-0.7102661,-0.0625,-0.078125,0.25
1696244383317,-0.68652344,-0.07720947,-0.7090454,-0.1875,0.140625,0.328125
1696244383356,-0.68774414,-0.069885254,-0.70928955,-0.125,-0.09375,0.3125
1696244383397,-0.6936035,-0.0725708,-0.7185669,-0.046875,-0.203125,0.296875
1696244383440,-0.6899414,-0.0725708,-0.7127075,0.015625,-0.546875,0.296875
1696244383477,-0.69018555,-0.06451416,-0.68927,-0.34375,0.28125,0.46875
1696244383516,-0.69555664,-0.066223145,-0.7246704,-0.671875,0.234375,0.5
1696244383557,-0.6916504,-0.07525635,-0.6929321,-0.609375,1.0,0.671875
1696244383597,-0.69262695,-0.070617676,-0.71051025,0.109375,-0.390625,0.203125
1696244383637,-0.68310547,-0.07159424,-0.6975708,0.078125,-0.03125,0.203125
1696244383676,-0.6958008,-0.074035645,-0.71051025,0.109375,-0.140625,0.171875
1696244383718,-0.6945801,-0.07330322,-0.7102661,-0.171875,-0.046875,0.234375
1696244383757,-0.6982422,-0.06842041,-0.71221924,-0.328125,0.09375,0.375
1696244383796,-0.6894531,-0.07086182,-0.70562744,-0.484375,-0.015625,0.421875
1696244383835,-0.69311523,-0.08282471,-0.70098877,-0.3125,0.09375,0.390625
1696244383876,-0.701416,-0.07891846,-0.71832275,0.046875,-0.671875,0.203125
1696244383915,-0.6899414,-0.070373535,-0.7058716,-0.28125,-0.375,0.265625
1696244383977,-0.68896484,-0.074523926,-0.7005005,-0.015625,-0.375,0.203125
1696244383997,-0.6894531,-0.069885254,-0.7029419,0.09375,-0.390625,0.28125
1696244384038,-0.7011719,-0.07354736,-0.710022,-0.1875,0.140625,0.25
1696244384077,-0.69140625,-0.07305908,-0.7112427,-0.171875,-0.0625,0.453125
1696244384095,-0.6982422,-0.073791504,-0.70318604,-0.03125,-0.015625,0.453125
1696244384159,-0.7019043,-0.08135986,-0.70562744,-0.34375,0.609375,0.46875
1696244384175,-0.7043457,-0.06817627,-0.7041626,-0.234375,0.71875,0.390625
1696244384241,-0.7060547,-0.069885254,-0.7046509,-0.171875,0.296875,0.546875
1696244384255,-0.6989746,-0.07574463,-0.7107544,-0.4375,0.5625,0.4375
1696244384297,-0.6999512,-0.07965088,-0.7161255,-0.046875,-0.171875,0.40625
1696244384336,-0.7038574,-0.08087158,-0.6995239,-0.828125,1.453125,0.65625
1696244384377,-0.6989746,-0.082336426,-0.6963501,0.15625,0.03125,0.40625
1696244384415,-0.70654297,-0.07989502,-0.6980591,0.21875,-0.328125,0.140625
1696244384457,-0.70458984,-0.07965088,-0.6934204,0.0,0.078125,0.296875
1696244384497,-0.7055664,-0.081848145,-0.69854736,-0.0625,-0.046875,0.34375
1696244384536,-0.7043457,-0.078186035,-0.7029419,-0.296875,0.15625,0.40625
1696244384576,-0.7060547,-0.07696533,-0.7058716,-0.375,-0.46875,0.359375
1696244384616,-0.6948242,-0.08258057,-0.68927,-0.515625,0.453125,0.4375
1696244384656,-0.6999512,-0.08258057,-0.6890259,0.03125,0.03125,0.125
1696244384696,-0.70874023,-0.08721924,-0.6968384,0.0,-0.46875,0.359375
1696244384756,-0.70458984,-0.08404541,-0.69537354,0.265625,-0.453125,0.140625
1696244384796,-0.7077637,-0.081848145,-0.70318604,-0.0625,0.03125,0.265625
1696244384837,-0.70214844,-0.08306885,-0.6904907,-0.140625,0.125,0.203125
1696244384855,-0.7080078,-0.08135986,-0.6970825,-0.140625,0.171875,0.453125
1696244384896,-0.7036133,-0.08428955,-0.6878052,0.0,0.125,0.265625
1696244384938,-0.6972656,-0.08917236,-0.6902466,-0.21875,0.28125,0.484375
1696244384980,-0.6999512,-0.082336426,-0.6860962,0.0625,-0.0625,0.5
1696244385017,-0.7080078,-0.0803833,-0.6873169,0.28125,-0.546875,0.265625
1696244385057,-0.7067871,-0.0791626,-0.6802368,-0.0625,0.296875,0.453125
1696244385098,-0.7141113,-0.07867432,-0.7085571,-0.671875,0.53125,0.515625
1696244385136,-0.7128906,-0.089416504,-0.6826782,-0.265625,1.234375,0.625
1696244385175,-0.71313477,-0.086242676,-0.68707275,0.234375,-0.140625,0.453125
1696244385216,-0.71191406,-0.08380127,-0.6917114,0.03125,-0.375,0.109375
1696244385274,-0.7175293,-0.08306885,-0.6885376,-0.140625,-0.328125,0.34375
1696244385295,-0.701416,-0.08795166,-0.6807251,0.15625,-0.59375,0.25
1696244385314,-0.71484375,-0.08135986,-0.6921997,0.03125,-0.75,0.234375
1696244385354,-0.7080078,-0.08013916,-0.6865845,-0.546875,-0.390625,0.421875
1696244385394,-0.71191406,-0.08477783,-0.6914673,-0.265625,-0.21875,0.3125
1696244385434,-0.7145996,-0.08135986,-0.7007446,-0.203125,-0.078125,0.390625
1696244385474,-0.7084961,-0.08087158,-0.67755127,-0.09375,2.15625,-0.03125
1696244385514,-0.7167969,-0.08306885,-0.68463135,0.078125,0.515625,0.0625
1696244385554,-0.7167969,-0.078186035,-0.68707275,0.109375,0.234375,0.109375
1696244385596,-0.71850586,-0.077941895,-0.6802368,-0.140625,-0.203125,0.203125
1696244385634,-0.7089844,-0.08526611,-0.6802368,-0.046875,-0.6875,0.265625
1696244385674,-0.7229004,-0.08404541,-0.6851196,-0.25,-0.71875,0.375
1696244385714,-0.71362305,-0.08453369,-0.6807251,0.0625,-0.59375,0.390625
1696244385754,-0.704834,-0.08013916,-0.68414307,0.140625,-0.78125,0.3125
1696244385794,-0.7092285,-0.08721924,-0.68463135,0.015625,-0.4375,0.265625
1696244385835,-0.71533203,-0.082092285,-0.69488525,0.140625,-0.703125,0.1875
1696244385875,-0.71533203,-0.08013916,-0.6812134,-0.625,0.859375,0.53125
1696244385914,-0.71533203,-0.0791626,-0.67974854,0.140625,-0.1875,0.21875
1696244385955,-0.7167969,-0.082336426,-0.6838989,0.328125,-0.609375,0.203125
1696244385995,-0.7192383,-0.08062744,-0.6868286,0.328125,-0.90625,0.09375
1696244386036,-0.7102051,-0.0881958,-0.6746216,0.125,-1.296875,-0.078125
1696244386074,-0.71313477,-0.08673096,-0.6860962,0.578125,-4.015625,-0.453125
1696244386116,-0.71777344,-0.08404541,-0.690979,0.859375,-5.46875,-0.640625
1696244386155,-0.7067871,-0.07891846,-0.70269775,1.609375,-6.109375,-0.125
1696244386195,-0.6965332,-0.07867432,-0.7061157,1.25,-3.796875,0.0625
1696244386236,-0.7038574,-0.08135986,-0.7119751,0.421875,-2.78125,0.34375
1696244386277,-0.6870117,-0.08013916,-0.7053833,1.4375,-2.46875,0.0
1696244386320,-0.6867676,-0.07696533,-0.710022,0.1875,-1.0,0.15625
1696244386359,-0.69311523,-0.08087158,-0.7131958,-0.5625,-0.5,0.3125
1696244386398,-0.6838379,-0.07696533,-0.6975708,-0.25,-0.078125,0.203125
1696244386436,-0.69628906,-0.07647705,-0.7073364,-0.40625,-0.578125,0.203125
1696244386479,-0.6960449,-0.07574463,-0.71051025,-0.375,-0.328125,0.140625
1696244386519,-0.68481445,-0.07647705,-0.7029419,-0.28125,-0.34375,0.15625
1696244386559,-0.7062988,-0.08087158,-0.710022,-0.078125,-0.734375,0.21875
1696244386598,-0.69140625,-0.07867432,-0.7168579,-0.5,-0.15625,0.28125
1696244386616,-0.69311523,-0.07183838,-0.7149048,-0.34375,-0.40625,0.3125
1696244386656,-0.69262695,-0.08087158,-0.70513916,-1.015625,0.53125,0.3125
1696244386697,-0.6965332,-0.07501221,-0.7053833,-0.1875,-0.234375,0.046875
1696244386736,-0.6994629,-0.08282471,-0.7053833,-0.03125,-0.125,0.109375
1696244386780,-0.6994629,-0.07745361,-0.69732666,-0.21875,-0.125,0.109375
1696244386818,-0.69311523,-0.07330322,-0.706604,-0.03125,-0.640625,0.171875
1696244386857,-0.69262695,-0.07550049,-0.7112427,-0.234375,-0.5,0.234375
1696244386895,-0.69506836,-0.07745361,-0.71295166,-0.03125,-0.890625,0.109375
1696244386936,-0.69311523,-0.081604004,-0.7041626,-0.34375,-0.359375,0.25
1696244386998,-0.6948242,-0.08380127,-0.7046509,0.1875,-0.515625,0.234375
1696244387015,-0.69140625,-0.07476807,-0.7022095,0.015625,-0.46875,0.15625
1696244387077,-0.6882324,-0.07354736,-0.70806885,0.15625,-0.484375,0.09375
1696244387116,-0.69140625,-0.08062744,-0.71173096,0.140625,-0.40625,0.140625
1696244387135,-0.68969727,-0.07647705,-0.7073364,-0.015625,-0.390625,0.234375
1696244387176,-0.69970703,-0.07623291,-0.71221924,-0.171875,-0.3125,0.0625
1696244387215,-0.70214844,-0.07891846,-0.7090454,-0.203125,-0.359375,0.265625
1696244387277,-0.68847656,-0.077941895,-0.7073364,-0.21875,0.015625,0.328125
1696244387296,-0.6904297,-0.082336426,-0.7005005,0.0,-0.203125,0.125
1696244387337,-0.6850586,-0.08331299,-0.7005005,-0.046875,-0.59375,0.125
1696244387377,-0.6989746,-0.07720947,-0.70977783,-0.171875,0.109375,0.21875
1696244387418,-0.69433594,-0.08135986,-0.7173462,0.03125,-0.671875,0.171875
1696244387458,-0.6970215,-0.08331299,-0.7007446,-0.84375,0.6875,0.375
1696244387497,-0.6977539,-0.07965088,-0.70391846,-0.03125,-0.625,0.109375
1696244387537,-0.68652344,-0.08135986,-0.7024536,-0.1875,-0.0625,0.3125
1696244387577,-0.6970215,-0.0791626,-0.7022095,-0.125,-0.359375,0.09375
1696244387637,-0.6933594,-0.082336426,-0.7007446,-0.140625,-0.1875,0.21875
1696244387656,-0.69555664,-0.082092285,-0.706604,-0.21875,-0.125,0.25
1696244387717,-0.69750977,-0.07989502,-0.6995239,-0.171875,-0.46875,0.140625
1696244387736,-0.6904297,-0.07891846,-0.7029419,-0.21875,-0.296875,0.125
1696244387799,-0.6940918,-0.07476807,-0.69976807,-0.125,-0.140625,0.171875
1696244387816,-0.69799805,-0.08087158,-0.7053833,-0.0625,-0.484375,0.078125
1696244387876,-0.6953125,-0.08013916,-0.708313,0.09375,-0.546875,0.265625
1696244387897,-0.69433594,-0.07867432,-0.7058716,0.03125,-0.46875,0.234375
1696244387916,-0.701416,-0.08135986,-0.7007446,-0.03125,-0.1875,0.21875
1696244387956,-0.69433594,-0.08502197,-0.70196533,-0.140625,-0.328125,0.21875
1696244387996,-0.69970703,-0.07574463,-0.7022095,-0.109375,-0.34375,0.3125
1696244388036,-0.69921875,-0.08453369,-0.6987915,-0.296875,-0.078125,0.109375
1696244388076,-0.69750977,-0.08135986,-0.70147705,-0.265625,0.046875,0.234375
1696244388117,-0.69921875,-0.081848145,-0.70025635,-0.265625,-0.390625,0.171875
1696244388156,-0.6940918,-0.082092285,-0.6975708,-0.3125,-0.265625,0.265625
1696244388196,-0.6933594,-0.07867432,-0.7073364,-0.546875,0.234375,0.234375
1696244388238,-0.69921875,-0.08062744,-0.6987915,-0.328125,-0.078125,0.1875
1696244388278,-0.6921387,-0.07720947,-0.70684814,-0.09375,-0.09375,0.234375
1696244388318,-0.69873047,-0.081604004,-0.71099854,0.15625,-0.53125,0.25
1696244388357,-0.7036133,-0.08673096,-0.70440674,-0.90625,0.9375,0.421875
1696244388398,-0.6972656,-0.081848145,-0.69610596,0.09375,-0.203125,0.03125
1696244388436,-0.6999512,-0.078430176,-0.70269775,0.125,-0.46875,0.21875
1696244388478,-0.69555664,-0.08306885,-0.69903564,0.09375,-0.171875,0.203125
1696244388517,-0.7006836,-0.085510254,-0.69195557,-0.09375,-0.203125,0.328125
1696244388555,-0.7055664,-0.08380127,-0.7017212,-0.25,-0.28125,0.15625
1696244388597,-0.6899414,-0.086242676,-0.6856079,-0.078125,-0.125,0.359375
1696244388635,-0.703125,-0.08673096,-0.6939087,-0.484375,0.296875,0.328125
1696244388677,-0.6999512,-0.08721924,-0.69415283,-0.046875,-0.375,0.21875
1696244388716,-0.7026367,-0.08258057,-0.7017212,0.3125,-0.65625,0.203125
1696244388756,-0.70166016,-0.08306885,-0.69366455,0.109375,-0.484375,0.171875
1696244388798,-0.701416,-0.0869751,-0.69854736,0.078125,0.0,0.1875
1696244388837,-0.69555664,-0.08453369,-0.6958618,-0.234375,-0.28125,0.234375
1696244388878,-0.6999512,-0.077697754,-0.7022095,-0.140625,-0.109375,0.21875
1696244388917,-0.7001953,-0.08770752,-0.70147705,-0.5,0.109375,0.328125
1696244388957,-0.69873047,-0.08673096,-0.69903564,-0.171875,-0.34375,0.140625
1696244388997,-0.7043457,-0.08404541,-0.69195557,-0.25,-0.3125,0.28125
1696244389039,-0.6965332,-0.0791626,-0.69732666,0.0625,-0.625,0.25
1696244389076,-0.704834,-0.082336426,-0.70025635,-0.15625,-0.578125,0.265625
1696244389117,-0.6945801,-0.08404541,-0.692688,0.078125,-0.25,0.21875
1696244389176,-0.70751953,-0.08355713,-0.6951294,-0.15625,-0.21875,0.171875
1696244389196,-0.6933594,-0.08868408,-0.690979,-0.078125,-0.578125,0.15625
1696244389237,-0.7055664,-0.08673096,-0.69659424,0.0625,-0.171875,0.171875
1696244389256,-0.70336914,-0.08453369,-0.70391846,-0.28125,-0.140625,0.359375
1696244389298,-0.69921875,-0.08477783,-0.6812134,-0.578125,0.78125,0.453125
1696244389336,-0.70166016,-0.086242676,-0.6921997,0.265625,-0.859375,0.328125
1696244389377,-0.69970703,-0.0869751,-0.69488525,0.15625,-0.296875,0.34375
1696244389440,-0.703125,-0.085998535,-0.6914673,-0.0625,-0.28125,0.28125
1696244389478,-0.7072754,-0.081604004,-0.6983032,-0.171875,0.125,0.1875
1696244389498,-0.7036133,-0.08477783,-0.69659424,-0.421875,-0.140625,0.1875
1696244389538,-0.6994629,-0.07867432,-0.6970825,-0.3125,-0.34375,0.34375
1696244389576,-0.7092285,-0.09088135,-0.69366455,-0.1875,-0.09375,0.453125
1696244389617,-0.7006836,-0.089660645,-0.68829346,0.25,-0.765625,0.265625
1696244389655,-0.7026367,-0.08746338,-0.69659424,0.265625,-0.234375,0.25
1696244389698,-0.70703125,-0.08721924,-0.6983032,0.203125,-0.40625,0.265625
1696244389735,-0.7060547,-0.09063721,-0.6921997,0.046875,-0.21875,0.125
1696244389776,-0.7019043,-0.08477783,-0.69659424,-0.296875,-0.09375,0.34375
1696244389841,-0.704834,-0.0869751,-0.6968384,-0.421875,-0.03125,0.328125
1696244389876,-0.7116699,-0.08013916,-0.6921997,-0.34375,-0.140625,0.40625
1696244389916,-0.70458984,-0.089904785,-0.6956177,-0.265625,-0.34375,0.390625
1696244389936,-0.7126465,-0.09112549,-0.690979,-0.21875,0.375,0.4375
1696244389999,-0.70703125,-0.08404541,-0.68756104,-0.25,0.21875,0.53125
1696244390015,-0.7084961,-0.08917236,-0.6914673,-0.296875,0.21875,0.375
1696244390060,-0.7060547,-0.09307861,-0.69195557,-0.234375,-0.125,0.328125
1696244390097,-0.72094727,-0.08404541,-0.6939087,-0.09375,-0.046875,0.25
1696244390138,-0.7055664,-0.09210205,-0.6848755,-0.1875,-0.03125,0.34375
1696244390177,-0.7062988,-0.09576416,-0.69659424,-0.265625,-0.40625,0.171875
1696244390220,-0.71435547,-0.09283447,-0.69122314,-1.078125,1.1875,0.453125
1696244390256,-0.70996094,-0.09625244,-0.6826782,-0.046875,0.015625,0.296875
1696244390297,-0.71728516,-0.09210205,-0.68756104,0.234375,-0.46875,0.046875
1696244390336,-0.70996094,-0.09210205,-0.69537354,0.09375,-0.03125,0.1875
1696244390377,-0.71313477,-0.086242676,-0.6890259,0.03125,0.21875,0.203125
1696244390417,-0.71899414,-0.09161377,-0.6890259,-0.28125,0.1875,0.109375
1696244390457,-0.7104492,-0.09210205,-0.6790161,-0.265625,0.03125,0.203125
1696244390498,-0.70874023,-0.09283447,-0.6860962,-0.4375,0.40625,0.421875
1696244390538,-0.7114258,-0.093322754,-0.6802368,-0.203125,-0.25,0.375
1696244390557,-0.7167969,-0.09259033,-0.6856079,-0.078125,-0.125,0.359375
1696244390597,-0.7158203,-0.09820557,-0.68292236,0.234375,-0.46875,0.1875
1696244390637,-0.7224121,-0.0947876,-0.69073486,0.1875,-0.125,0.078125
1696244390677,-0.71655273,-0.093322754,-0.67755127,0.0,-0.0625,0.15625
1696244390718,-0.7194824,-0.08892822,-0.69000244,-0.09375,-0.609375,0.203125
1696244390756,-0.71191406,-0.09527588,-0.6799927,-0.046875,-0.84375,0.125
1696244390797,-0.70996094,-0.09649658,-0.67974854,0.453125,-1.46875,-0.140625
1696244390838,-0.71191406,-0.0881958,-0.66534424,1.28125,-2.71875,-0.25
1696244390877,-0.71313477,-0.08917236,-0.6848755,1.234375,-4.375,-0.15625
1696244390918,-0.7097168,-0.08502197,-0.6951294,0.890625,-3.5625,0.125
1696244390958,-0.7023926,-0.08404541,-0.70562744,-0.359375,-0.734375,0.21875
1696244390997,-0.6999512,-0.089904785,-0.68634033,-0.140625,-1.8125,0.171875
1696244391038,-0.7089844,-0.09210205,-0.6946411,-0.4375,-1.453125,0.1875
1696244391078,-0.704834,-0.089660645,-0.69317627,-0.046875,-1.0625,-0.078125
1696244391117,-0.69384766,-0.09112549,-0.6795044,0.234375,-2.4375,0.09375
1696244391159,-0.6965332,-0.08746338,-0.70562744,1.03125,-3.5,0.0
1696244391198,-0.70043945,-0.08477783,-0.7119751,0.84375,-2.625,-0.15625
1696244391236,-0.69970703,-0.085998535,-0.6992798,0.5625,-1.6875,-0.203125
1696244391275,-0.6965332,-0.078430176,-0.7073364,-0.015625,-1.734375,0.0625
1696244391316,-0.6923828,-0.08453369,-0.710022,-0.65625,-0.671875,0.40625
1696244391357,-0.69262695,-0.08917236,-0.7124634,0.171875,-1.078125,0.265625
1696244391399,-0.6845703,-0.082336426,-0.70025635,-0.03125,-0.625,0.1875
1696244391438,-0.67529297,-0.08868408,-0.7034302,0.15625,-0.984375,0.109375
1696244391475,-0.68969727,-0.08673096,-0.7139282,0.140625,-0.40625,0.125
1696244391517,-0.6906738,-0.08526611,-0.71051025,0.046875,-0.296875,0.0
1696244391556,-0.6945801,-0.08428955,-0.7124634,0.1875,-0.09375,-0.0625
1696244391596,-0.6936035,-0.086242676,-0.7127075,-0.0625,0.0,0.203125
1696244391638,-0.69799805,-0.085510254,-0.71539307,-0.25,-0.015625,0.078125
1696244391675,-0.6933594,-0.085998535,-0.7012329,-0.046875,-0.15625,0.109375
1696244391717,-0.6958008,-0.082336426,-0.7036743,-0.0625,-0.015625,0.09375
1696244391756,-0.6911621,-0.082092285,-0.704895,-0.09375,-0.3125,0.109375
1696244391797,-0.6887207,-0.08380127,-0.69366455,0.34375,-0.71875,0.125
1696244391857,-0.6882324,-0.08477783,-0.71343994,-0.15625,-0.234375,0.0
1696244391877,-0.6965332,-0.07989502,-0.71954346,0.328125,-0.8125,0.171875
1696244391897,-0.68969727,-0.07965088,-0.7107544,-0.5625,0.578125,0.15625
1696244391958,-0.6994629,-0.081848145,-0.70684814,0.109375,0.0625,0.046875
1696244391976,-0.69091797,-0.08087158,-0.7017212,0.1875,0.078125,-0.125
1696244392019,-0.6845703,-0.085510254,-0.7017212,-0.125,0.234375,0.03125
1696244392060,-0.69433594,-0.07989502,-0.6970825,0.203125,-0.40625,0.09375
1696244392095,-0.6906738,-0.08282471,-0.7053833,0.03125,-0.46875,-0.046875
1696244392137,-0.68652344,-0.085754395,-0.69317627,-0.015625,-0.546875,0.21875
1696244392177,-0.69921875,-0.08258057,-0.7053833,0.0,-0.296875,0.296875
1696244392217,-0.6899414,-0.08673096,-0.70147705,-0.03125,-0.5,0.28125
1696244392260,-0.6875,-0.0803833,-0.70977783,0.296875,-0.796875,0.09375
1696244392297,-0.7006836,-0.08087158,-0.7070923,0.125,-0.65625,0.171875
1696244392358,-0.6879883,-0.08355713,-0.70440674,0.265625,-0.71875,0.0625
1696244392376,-0.6945801,-0.07672119,-0.70977783,-0.03125,-0.0625,0.140625
1696244392418,-0.6977539,-0.082336426,-0.7070923,-0.15625,-0.25,0.296875
1696244392459,-0.6923828,-0.07574463,-0.70806885,-0.046875,-0.375,0.203125
1696244392496,-0.703125,-0.07867432,-0.7078247,-0.125,0.125,0.109375
1696244392541,-0.6887207,-0.081604004,-0.69854736,-0.078125,-0.078125,0.1875
1696244392578,-0.68481445,-0.0869751,-0.7173462,-0.578125,0.578125,0.359375
1696244392617,-0.70092773,-0.07940674,-0.7131958,-0.140625,-0.109375,0.265625
1696244392657,-0.69311523,-0.08428955,-0.70318604,-1.203125,1.4375,0.328125
1696244392696,-0.6911621,-0.081848145,-0.6902466,0.328125,-0.40625,0.078125
1696244392736,-0.7006836,-0.08282471,-0.70684814,0.140625,-0.5625,0.1875
1696244392776,-0.6911621,-0.08428955,-0.6958618,0.125,-0.484375,0.15625
1696244392840,-0.69262695,-0.07867432,-0.6968384,0.15625,-0.546875,0.1875
1696244392856,-0.7006836,-0.08087158,-0.7078247,-0.25,-0.5625,0.28125
1696244392922,-0.69628906,-0.08770752,-0.6946411,-0.203125,-0.453125,0.25
1696244392936,-0.6960449,-0.090148926,-0.69732666,-0.3125,-0.09375,0.34375
1696244392997,-0.69189453,-0.085998535,-0.6980591,-0.0625,-0.375,0.1875
1696244393015,-0.69506836,-0.08404541,-0.7085571,0.265625,-0.8125,0.078125
1696244393057,-0.6850586,-0.082336426,-0.6992798,0.25,-0.34375,0.15625
1696244393097,-0.7055664,-0.08331299,-0.71343994,0.359375,-0.609375,0.046875
1696244393137,-0.6940918,-0.08453369,-0.70391846,0.0625,-0.453125,0.140625
1696244393178,-0.7062988,-0.08111572,-0.710022,-0.078125,-0.375,0.140625
1696244393196,-0.6989746,-0.081848145,-0.704895,-0.09375,-0.03125,0.25
1696244393237,-0.69384766,-0.08258057,-0.70025635,0.125,-0.421875,0.234375
1696244393277,-0.6960449,-0.08135986,-0.69244385,-0.015625,-0.578125,0.390625
1696244393317,-0.6977539,-0.08404541,-0.7073364,-0.1875,0.0625,0.21875
1696244393357,-0.6984863,-0.085510254,-0.71343994,0.21875,-0.984375,0.1875
1696244393396,-0.6928711,-0.0803833,-0.6983032,-0.53125,0.265625,0.28125
1696244393439,-0.6958008,-0.08428955,-0.7053833,0.25,-0.59375,0.09375
1696244393476,-0.69677734,-0.07940674,-0.70098877,0.09375,-0.671875,0.203125
1696244393516,-0.7023926,-0.07891846,-0.7107544,-0.015625,-0.453125,0.109375
1696244393557,-0.703125,-0.07623291,-0.7046509,-0.078125,0.0,0.125
1696244393599,-0.6958008,-0.08135986,-0.7046509,-0.1875,-0.421875,0.234375
1696244393637,-0.6958008,-0.08380127,-0.70758057,0.15625,-0.625,0.109375
1696244393678,-0.6906738,-0.08428955,-0.7090454,-0.21875,-0.0625,0.21875
1696244393719,-0.70288086,-0.081848145,-0.69976807,0.171875,-0.34375,0.140625
1696244393758,-0.6936035,-0.0869751,-0.706604,-0.046875,-0.28125,0.109375
1696244393797,-0.69921875,-0.0803833,-0.7000122,-0.046875,-0.265625,0.171875
1696244393841,-0.6984863,-0.077941895,-0.69976807,0.109375,-0.390625,0.171875
1696244393878,-0.69384766,-0.082092285,-0.7029419,0.015625,-0.46875,0.328125
1696244393916,-0.6958008,-0.08135986,-0.70391846,-0.171875,-0.5625,0.328125
1696244393958,-0.70043945,-0.08331299,-0.69976807,-0.265625,-0.359375,0.265625
1696244393998,-0.6999512,-0.08355713,-0.7005005,-0.203125,-0.421875,0.265625
1696244394038,-0.704834,-0.08135986,-0.7041626,-0.109375,-0.359375,0.203125
1696244394081,-0.7001953,-0.08331299,-0.69537354,0.03125,-0.34375,0.171875
1696244394118,-0.69384766,-0.08282471,-0.70806885,-0.328125,0.15625,0.1875
1696244394158,-0.70410156,-0.07989502,-0.7136841,0.125,-0.515625,0.234375
1696244394199,-0.70214844,-0.07891846,-0.70147705,-0.53125,0.671875,0.328125
1696244394242,-0.7026367,-0.08404541,-0.6992798,0.171875,-0.4375,0.15625
1696244394279,-0.6994629,-0.082092285,-0.69903564,-0.09375,-0.234375,0.21875
1696244394317,-0.70336914,-0.08282471,-0.69537354,0.09375,-0.4375,0.234375
1696244394357,-0.69799805,-0.082092285,-0.70684814,-0.328125,-0.234375,0.171875
1696244394397,-0.69873047,-0.08795166,-0.70758057,-0.34375,-0.015625,0.328125
1696244394439,-0.6965332,-0.08380127,-0.70758057,-0.09375,-0.71875,0.125
1696244394479,-0.7055664,-0.086242676,-0.69488525,-0.359375,-0.140625,0.234375
1696244394519,-0.6965332,-0.085998535,-0.694397,-0.265625,-0.328125,0.1875
1696244394536,-0.7084961,-0.08673096,-0.7012329,0.125,-0.625,0.203125
1696244394581,-0.69750977,-0.08526611,-0.7000122,0.0625,-0.625,0.15625
1696244394617,-0.7011719,-0.08648682,-0.7022095,0.15625,-0.328125,0.203125
1696244394657,-0.7062988,-0.08502197,-0.69903564,0.078125,-0.25,0.15625
1696244394699,-0.6999512,-0.08843994,-0.6970825,-0.140625,-0.40625,0.21875
1696244394738,-0.70043945,-0.086242676,-0.704895,-0.21875,-0.234375,0.125
1696244394779,-0.70092773,-0.089904785,-0.70269775,-0.171875,-0.140625,0.203125
1696244394817,-0.69628906,-0.08013916,-0.6946411,0.0,-0.359375,0.03125
1696244394856,-0.6984863,-0.08355713,-0.69610596,-0.09375,-0.09375,0.09375
1696244394897,-0.6948242,-0.0803833,-0.6939087,-0.046875,-0.140625,0.296875
1696244394936,-0.7026367,-0.0803833,-0.70269775,0.0,-0.421875,0.21875
1696244394977,-0.701416,-0.08380127,-0.6716919,0.046875,-0.484375,0.453125
1696244395016,-0.7097168,-0.081604004,-0.71417236,-0.625,0.28125,0.578125
1696244395057,-0.69799805,-0.09136963,-0.6799927,-0.078125,-0.09375,0.21875
1696244395116,-0.70043945,-0.086242676,-0.6958618,0.1875,-0.75,0.140625
1696244395135,-0.7038574,-0.08648682,-0.69000244,-0.234375,-0.453125,0.21875
1696244395196,-0.70581055,-0.090148926,-0.6970825,-0.078125,-0.4375,0.203125
1696244395215,-0.6984863,-0.08648682,-0.6956177,-0.078125,0.09375,0.296875
1696244395256,-0.7104492,-0.08306885,-0.6939087,-0.390625,0.140625,0.453125
1696244395297,-0.7067871,-0.08843994,-0.7029419,-0.46875,0.09375,0.34375
1696244395336,-0.69799805,-0.09063721,-0.6921997,-0.125,-0.21875,0.25
1696244395377,-0.70458984,-0.086242676,-0.69976807,0.125,-0.65625,0.296875
1696244395417,-0.7043457,-0.09039307,-0.69659424,0.0,-0.265625,0.15625
1696244395461,-0.70410156,-0.08843994,-0.6980591,0.109375,-0.265625,0.109375
1696244395499,-0.7060547,-0.08453369,-0.69366455,0.0,-0.140625,0.1875
1696244395538,-0.7043457,-0.085754395,-0.6975708,0.03125,-0.25,0.234375
1696244395577,-0.7089844,-0.08917236,-0.6939087,-0.25,0.078125,0.515625
1696244395640,-0.704834,-0.093322754,-0.6970825,-0.03125,-0.015625,0.328125
1696244395676,-0.7128906,-0.08428955,-0.6921997,0.0625,0.0,0.234375
1696244395697,-0.7026367,-0.08526611,-0.6880493,-0.234375,-0.265625,0.28125
1696244395737,-0.70166016,-0.09039307,-0.6790161,0.109375,-0.546875,0.15625
1696244395776,-0.7043457,-0.08868408,-0.6885376,0.21875,-1.078125,0.234375
1696244395795,-0.7080078,-0.08380127,-0.6992798,-0.203125,-0.328125,0.25
1696244395837,-0.70654297,-0.082336426,-0.7139282,0.0,-0.890625,0.203125
1696244395875,-0.70751953,-0.085754395,-0.6970825,-0.609375,0.359375,0.34375
1696244395920,-0.7104492,-0.08355713,-0.6968384,-0.140625,-0.296875,0.28125
1696244395959,-0.7023926,-0.08453369,-0.6939087,-0.234375,0.203125,0.1875
1696244395996,-0.7080078,-0.08648682,-0.69244385,-0.046875,0.28125,0.296875
1696244396038,-0.70874023,-0.08331299,-0.69122314,-0.328125,0.59375,0.328125
1696244396077,-0.7077637,-0.08428955,-0.690979,-0.125,-0.046875,0.3125
1696244396119,-0.7194824,-0.08673096,-0.7112427,-0.234375,-0.734375,0.265625
1696244396159,-0.7084961,-0.08770752,-0.692688,-0.671875,1.1875,0.65625
1696244396199,-0.7084961,-0.09112549,-0.6799927,-0.171875,0.703125,0.5625
1696244396238,-0.703125,-0.08746338,-0.6929321,0.03125,0.046875,0.375
1696244396278,-0.7077637,-0.093811035,-0.69122314,0.078125,-0.15625,0.234375
1696244396315,-0.71972656,-0.09161377,-0.69000244,0.078125,0.015625,0.234375
1696244396359,-0.7109375,-0.081848145,-0.6807251,-0.109375,-0.25,0.09375
1696244396403,-0.71728516,-0.0881958,-0.69000244,-0.046875,-0.40625,0.296875
1696244396438,-0.7175293,-0.089904785,-0.6865845,-0.03125,-0.46875,0.296875
1696244396476,-0.70825195,-0.093811035,-0.68878174,-0.03125,-0.53125,0.359375
1696244396523,-0.70874023,-0.0869751,-0.68341064,-0.25,-0.3125,0.234375
1696244396557,-0.7104492,-0.085998535,-0.68634033,-0.296875,0.0,0.234375
1696244396601,-0.7104492,-0.09234619,-0.67803955,0.125,-0.203125,0.328125
1696244396636,-0.7038574,-0.08502197,-0.68536377,-0.09375,0.03125,-0.109375
1696244396677,-0.7175293,-0.09063721,-0.6902466,0.328125,-0.890625,0.203125
1696244396716,-0.7116699,-0.085754395,-0.6851196,0.15625,-0.59375,-0.0625
1696244396758,-0.7121582,-0.085998535,-0.6856079,1.234375,-3.765625,-0.359375
1696244396797,-0.7128906,-0.08258057,-0.6939087,0.109375,-3.46875,-0.265625
1696244396836,-0.7019043,-0.08673096,-0.6897583,1.6875,-3.734375,-0.234375
1696244396876,-0.7104492,-0.08135986,-0.7053833,1.21875,-2.375,-0.15625
1696244396918,-0.70288086,-0.085510254,-0.6946411,-0.015625,-1.375,0.171875
1696244396955,-0.6999512,-0.08868408,-0.6963501,0.796875,-1.609375,0.09375
1696244396998,-0.6972656,-0.086242676,-0.6921997,-0.109375,-0.671875,0.21875
1696244397037,-0.6989746,-0.08453369,-0.70147705,-0.125,-0.609375,0.171875
1696244397077,-0.6989746,-0.089660645,-0.6958618,-0.1875,-0.28125,0.234375
1696244397117,-0.7011719,-0.0791626,-0.70025635,0.34375,-0.6875,0.171875
1696244397157,-0.6953125,-0.08380127,-0.7005005,-0.0625,-0.328125,0.21875
1696244397198,-0.6882324,-0.081604004,-0.7017212,-0.09375,-0.3125,0.21875
1696244397216,-0.69433594,-0.08282471,-0.69854736,-0.46875,-0.015625,0.25
1696244397257,-0.704834,-0.08502197,-0.69537354,-0.15625,-0.359375,0.171875
1696244397320,-0.69750977,-0.08111572,-0.69610596,-0.234375,-0.125,0.25
1696244397358,-0.69506836,-0.08843994,-0.6980591,0.09375,-0.59375,0.171875
1696244397376,-0.70532227,-0.08380127,-0.6968384,-0.046875,-0.578125,0.09375
1696244397419,-0.70043945,-0.08721924,-0.70098877,0.21875,-0.34375,0.09375
1696244397457,-0.69921875,-0.08380127,-0.7070923,0.078125,-0.671875,0.171875
1696244397500,-0.6982422,-0.08331299,-0.7034302,-0.734375,0.34375,0.15625
1696244397538,-0.7011719,-0.08428955,-0.69488525,-0.09375,-0.296875,0.078125
1696244397576,-0.70458984,-0.09063721,-0.7034302,-0.046875,-0.484375,0.125
1696244397618,-0.7038574,-0.085510254,-0.70098877,-0.1875,-0.140625,0.140625
1696244397658,-0.6965332,-0.08648682,-0.69366455,-0.203125,-0.28125,0.265625
1696244397697,-0.70043945,-0.089416504,-0.7024536,-0.140625,-0.484375,0.1875
1696244397762,-0.6960449,-0.081848145,-0.69000244,0.171875,-0.6875,0.15625
1696244397775,-0.69921875,-0.08428955,-0.70147705,-0.171875,-0.328125,0.3125
1696244397819,-0.6972656,-0.08404541,-0.7007446,0.03125,-0.5625,0.125
1696244397878,-0.6984863,-0.08746338,-0.70147705,0.0,-0.53125,0.203125
1696244397898,-0.69873047,-0.08355713,-0.69610596,0.125,-0.46875,0.125
1696244397938,-0.7023926,-0.085998535,-0.69854736,-0.015625,-0.578125,0.25
1696244398001,-0.69628906,-0.08331299,-0.6980591,0.0625,-0.34375,0.03125
1696244398016,-0.6916504,-0.08306885,-0.70098877,0.265625,-0.609375,0.28125
1696244398059,-0.701416,-0.08404541,-0.70513916,-0.1875,-0.390625,0.25
1696244398101,-0.6970215,-0.08868408,-0.69537354,-0.421875,-0.28125,0.203125
1696244398139,-0.6940918,-0.08502197,-0.69537354,-0.203125,-0.265625,0.25
1696244398178,-0.6948242,-0.08404541,-0.69415283,-0.078125,-0.578125,0.203125
1696244398217,-0.6904297,-0.07940674,-0.7022095,0.03125,-0.203125,0.21875
1696244398257,-0.7084961,-0.09283447,-0.71221924,0.21875,-0.890625,0.21875
1696244398299,-0.7026367,-0.081848145,-0.69415283,-0.703125,0.53125,0.375
1696244398336,-0.6999512,-0.08721924,-0.69732666,-0.125,-0.40625,0.15625
1696244398377,-0.701416,-0.081604004,-0.6958618,0.0,-0.640625,0.15625
1696244398417,-0.701416,-0.081848145,-0.7007446,-0.09375,-0.609375,0.140625
1696244398437,-0.6989746,-0.08258057,-0.70147705,-0.078125,-0.6875,0.21875
1696244398477,-0.6870117,-0.08380127,-0.6746216,0.234375,-1.140625,0.015625
1696244398558,-0.69970703,-0.08770752,-0.7041626,-0.109375,-2.3125,0.234375
1696244398563,-0.7084961,-0.08721924,-0.6983032,-0.1875,-1.78125,-0.078125
1696244398597,-0.6994629,-0.08502197,-0.7000122,0.609375,-3.015625,-0.625
1696244398638,-0.6833496,-0.09259033,-0.70806885,0.234375,-3.078125,-0.25
1696244398678,-0.6887207,-0.08282471,-0.71051025,-0.21875,-2.296875,-0.109375
1696244398717,-0.6916504,-0.08306885,-0.71221924,-0.59375,-1.71875,0.125
1696244398758,-0.689209,-0.08135986,-0.706604,-0.25,-1.328125,0.046875
1696244398797,-0.6875,-0.08258057,-0.70684814,0.296875,-1.3125,0.15625
1696244398836,-0.685791,-0.08355713,-0.7180786,0.015625,-0.90625,0.078125
1696244398878,-0.6911621,-0.08673096,-0.70318604,0.46875,-0.875,0.03125
1696244398917,-0.68408203,-0.077697754,-0.70928955,0.703125,-1.28125,-0.046875
1696244398957,-0.67944336,-0.07623291,-0.708313,0.46875,-0.984375,0.109375
1696244398999,-0.673584,-0.07891846,-0.70025635,-0.328125,0.1875,0.125
1696244399037,-0.6879883,-0.07086182,-0.72076416,-0.265625,0.140625,0.3125
1696244399078,-0.6867676,-0.08428955,-0.7046509,0.09375,0.15625,0.046875
1696244399117,-0.6838379,-0.08282471,-0.71710205,0.40625,-0.734375,-0.03125
1696244399156,-0.69140625,-0.08404541,-0.7178345,-0.125,0.109375,0.09375
1696244399196,-0.6945801,-0.077697754,-0.70928955,0.015625,-0.25,0.109375
1696244399237,-0.67407227,-0.078186035,-0.7073364,0.015625,-0.515625,0.125
1696244399277,-0.6862793,-0.082092285,-0.70880127,0.015625,-0.34375,0.3125
1696244399319,-0.68237305,-0.085754395,-0.7180786,-0.140625,-0.78125,0.109375
1696244399357,-0.6845703,-0.07354736,-0.70635986,-0.375,-0.34375,0.203125
1696244399396,-0.6828613,-0.07891846,-0.7168579,0.171875,-0.90625,-0.0625
1696244399437,-0.6813965,-0.07354736,-0.71173096,0.03125,-0.515625,0.171875
1696244399477,-0.68847656,-0.07965088,-0.71661377,0.171875,-0.546875,0.015625
1696244399519,-0.68188477,-0.07672119,-0.7151489,0.046875,-0.390625,0.09375
1696244399557,-0.68652344,-0.07476807,-0.7173462,-0.09375,-0.234375,0.125
1696244399597,-0.6765137,-0.07891846,-0.70635986,-0.09375,-0.21875,0.25
1696244399637,-0.6945801,-0.07525635,-0.7144165,-0.09375,-0.40625,0.328125
1696244399679,-0.68603516,-0.08087158,-0.7090454,0.015625,-0.453125,0.109375
1696244399718,-0.69311523,-0.07720947,-0.7190552,0.203125,-0.609375,0.171875
1696244399737,-0.6748047,-0.07989502,-0.68707275,0.234375,-0.765625,0.109375
1696244399777,-0.6948242,-0.07989502,-0.7258911,-0.375,-0.328125,0.203125
1696244399816,-0.6887207,-0.077941895,-0.6975708,-0.046875,-0.3125,0.0625
1696244399858,-0.68652344,-0.082336426,-0.72198486,0.125,-0.390625,0.203125
1696244399897,-0.6813965,-0.08306885,-0.69976807,0.25,-0.234375,0.203125
1696244399937,-0.6828613,-0.077941895,-0.7131958,0.03125,-0.515625,0.109375
1696244399976,-0.68408203,-0.07940674,-0.7149048,-0.140625,-0.109375,0.1875
1696244400016,-0.6945801,-0.08258057,-0.71295166,-0.3125,-0.140625,0.265625
1696244400055,-0.68237305,-0.078430176,-0.71417236,0.03125,-0.40625,0.28125
1696244400095,-0.6833496,-0.08258057,-0.71051025,-0.1875,-0.109375,0.234375
1696244400155,-0.67944336,-0.08306885,-0.704895,0.296875,-0.484375,0.140625
1696244400175,-0.67993164,-0.07672119,-0.706604,0.078125,-0.34375,0.0625
1696244400216,-0.6879883,-0.078186035,-0.7136841,0.203125,-0.390625,0.109375
1696244400276,-0.68603516,-0.07574463,-0.7168579,0.015625,-0.40625,0.046875
1696244400295,-0.6945801,-0.07965088,-0.7163696,0.03125,-0.21875,0.21875
1696244400334,-0.6826172,-0.08135986,-0.7102661,0.015625,-0.3125,0.15625
1696244400395,-0.6801758,-0.082336426,-0.7112427,-0.078125,-0.265625,0.1875
1696244400414,-0.69262695,-0.07574463,-0.7127075,-0.25,-0.25,0.1875
1696244400455,-0.68408203,-0.07965088,-0.7058716,-0.125,-0.078125,0.234375
1696244400495,-0.6821289,-0.07672119,-0.70318604,0.21875,-0.3125,0.1875
1696244400535,-0.689209,-0.082092285,-0.7058716,-0.171875,0.125,0.09375
1696244400574,-0.6953125,-0.07501221,-0.725647,-0.390625,-0.3125,0.125
1696244400616,-0.6870117,-0.07672119,-0.7012329,-0.609375,0.859375,0.265625
1696244400656,-0.6894531,-0.08013916,-0.7112427,0.265625,-0.875,0.203125
1696244400696,-0.68530273,-0.07598877,-0.7127075,-0.203125,-0.1875,0.265625
1696244400736,-0.68969727,-0.08135986,-0.708313,0.0625,-0.484375,0.09375
1696244400774,-0.69018555,-0.07672119,-0.7107544,-0.125,-0.265625,-0.046875
1696244400816,-0.6911621,-0.074279785,-0.7090454,-0.1875,-0.453125,0.3125
1696244400856,-0.6867676,-0.0881958,-0.72320557,0.03125,-0.703125,0.140625
1696244400895,-0.6921387,-0.08258057,-0.7053833,-0.109375,-0.125,0.265625
1696244400935,-0.6879883,-0.081848145,-0.7112427,-0.140625,-0.171875,0.265625
1696244400975,-0.69433594,-0.08428955,-0.7112427,0.03125,-0.4375,0.203125
1696244401016,-0.6833496,-0.08062744,-0.70318604,-0.015625,-0.390625,0.15625
1696244401056,-0.6999512,-0.08526611,-0.71539307,-0.171875,-0.15625,-0.03125
1696244401076,-0.6870117,-0.0803833,-0.7036743,-0.1875,-0.171875,0.203125
1696244401115,-0.69262695,-0.082336426,-0.704895,-0.1875,-0.203125,0.15625
1696244401156,-0.685791,-0.082092285,-0.70758057,0.125,-0.296875,0.1875
1696244401197,-0.6972656,-0.07965088,-0.7073364,-0.09375,-0.171875,0.3125
1696244401235,-0.6894531,-0.081848145,-0.71221924,-0.125,-0.140625,0.25
1696244401276,-0.69262695,-0.08306885,-0.7046509,-0.4375,0.15625,0.375
1696244401317,-0.6960449,-0.08453369,-0.70806885,0.046875,-0.390625,0.125
1696244401355,-0.6916504,-0.08282471,-0.70928955,-0.546875,0.375,0.203125
1696244401396,-0.6933594,-0.077941895,-0.71832275,-0.015625,-0.5,0.25
1696244401436,-0.69091797,-0.07501221,-0.70513916,-0.984375,1.09375,0.359375
1696244401475,-0.68969727,-0.08770752,-0.6980591,0.15625,-0.421875,0.171875
1696244401538,-0.69140625,-0.0791626,-0.706604,0.078125,-0.203125,0.15625
1696244401556,-0.69921875,-0.078430176,-0.70758057,-0.171875,-0.265625,0.40625
1696244401598,-0.6970215,-0.08380127,-0.7061157,-0.171875,-0.171875,0.171875
1696244401661,-0.69750977,-0.07940674,-0.7085571,-0.1875,-0.03125,0.21875
1696244401697,-0.6916504,-0.07598877,-0.7053833,-0.0625,-0.546875,0.0625
1696244401718,-0.6984863,-0.08306885,-0.7061157,-0.390625,-0.015625,0.15625
1696244401779,-0.6948242,-0.085998535,-0.70196533,0.015625,-0.390625,0.3125
1696244401824,-0.6911621,-0.07891846,-0.7095337,0.15625,-0.59375,0.265625
1696244401838,-0.6958008,-0.07623291,-0.7046509,0.03125,-0.453125,0.15625
1696244401879,-0.6972656,-0.08135986,-0.7022095,0.28125,-0.265625,0.21875
1696244401917,-0.69506836,-0.08404541,-0.7107544,0.203125,-0.453125,0.296875
1696244401957,-0.6940918,-0.077941895,-0.7046509,-0.15625,-0.1875,0.375
1696244401996,-0.69799805,-0.07550049,-0.704895,-0.28125,-0.109375,0.359375
1696244402038,-0.69921875,-0.078430176,-0.7041626,-0.09375,-0.1875,0.296875
1696244402077,-0.6887207,-0.085754395,-0.7029419,-0.03125,-0.03125,0.140625
1696244402119,-0.6911621,-0.078430176,-0.69976807,-0.171875,0.0,0.34375
1696244402157,-0.70043945,-0.08355713,-0.6987915,0.046875,-0.625,0.21875
1696244402197,-0.7001953,-0.07965088,-0.7149048,0.0,-0.5625,0.265625
1696244402261,-0.69555664,-0.08331299,-0.6914673,0.3125,-1.046875,0.328125
1696244402277,-0.6970215,-0.08111572,-0.7095337,-0.765625,0.40625,0.453125
1696244402339,-0.70410156,-0.08673096,-0.69976807,-0.25,0.046875,0.3125
1696244402378,-0.6940918,-0.085754395,-0.6983032,0.046875,-0.5625,0.03125
1696244402382,-0.6965332,-0.0803833,-0.70269775,0.0,-0.3125,0.265625
1696244402416,-0.69750977,-0.082336426,-0.7029419,-0.0625,-0.421875,0.203125
1696244402496,-0.7023926,-0.082336426,-0.70196533,0.0,-0.140625,0.171875
1696244402499,-0.70214844,-0.08135986,-0.70098877,-0.140625,-0.328125,0.3125
1696244402537,-0.703125,-0.08331299,-0.70758057,-0.59375,0.359375,0.328125
1696244402577,-0.70336914,-0.08306885,-0.6956177,-0.375,0.171875,0.4375
1696244402618,-0.6953125,-0.08721924,-0.70318604,-0.046875,-0.5,0.328125
1696244402657,-0.69750977,-0.081604004,-0.70440674,0.0625,-0.140625,0.15625
1696244402697,-0.6984863,-0.085998535,-0.6939087,0.109375,-0.34375,0.265625
1696244402738,-0.7038574,-0.08111572,-0.7022095,-0.21875,-0.203125,0.296875
1696244402778,-0.70043945,-0.08355713,-0.7000122,-0.25,-0.234375,0.15625
1696244402818,-0.6977539,-0.08721924,-0.69659424,-0.171875,-0.140625,0.390625
1696244402857,-0.7133789,-0.089660645,-0.7061157,-0.1875,-0.328125,0.265625
1696244402897,-0.6999512,-0.08526611,-0.6995239,-0.109375,-0.140625,0.203125
1696244402937,-0.69384766,-0.0869751,-0.70025635,0.0,-0.03125,0.171875
1696244402978,-0.69311523,-0.08770752,-0.69122314,-0.03125,-0.109375,0.125
1696244403017,-0.7055664,-0.08673096,-0.69854736,0.078125,-0.234375,0.140625
1696244403057,-0.7001953,-0.081604004,-0.7005005,-0.15625,-0.171875,0.140625
1696244403097,-0.7097168,-0.08673096,-0.7036743,0.078125,-0.6875,0.25
1696244403161,-0.7067871,-0.08868408,-0.7022095,-0.84375,1.015625,0.546875
1696244403176,-0.7072754,-0.08843994,-0.6934204,0.015625,-0.09375,0.078125
1696244403216,-0.6984863,-0.09527588,-0.70025635,0.15625,-0.53125,-0.03125
1696244403259,-0.7019043,-0.09039307,-0.6992798,0.046875,-0.46875,0.046875
1696244403299,-0.70581055,-0.08868408,-0.6975708,-0.015625,-0.28125,0.234375
1696244403336,-0.70092773,-0.08721924,-0.6968384,-0.078125,-0.453125,0.125
1696244403377,-0.69433594,-0.08648682,-0.68707275,0.046875,-0.484375,0.296875
1696244403418,-0.7050781,-0.08917236,-0.69244385,-0.28125,-0.0625,0.265625
1696244403478,-0.70532227,-0.085510254,-0.68927,0.125,-0.265625,0.265625
1696244403496,-0.7023926,-0.08453369,-0.6987915,-0.078125,-0.40625,0.15625
1696244403537,-0.70336914,-0.085998535,-0.69366455,0.09375,-0.296875,0.09375
1696244403577,-0.70874023,-0.086242676,-0.69610596,-0.046875,-0.078125,0.359375
1696244403616,-0.6972656,-0.085510254,-0.69903564,0.09375,-0.0625,0.125
1696244403656,-0.7067871,-0.08770752,-0.69610596,-0.203125,-0.046875,0.421875
1696244403676,-0.7060547,-0.08258057,-0.6934204,-0.265625,-0.171875,0.203125
1696244403716,-0.7060547,-0.085998535,-0.6917114,-0.359375,0.234375,0.328125
1696244403780,-0.70703125,-0.081604004,-0.69366455,-0.234375,-0.015625,0.265625
1696244403797,-0.70410156,-0.09039307,-0.692688,0.234375,-0.484375,0.234375
1696244403860,-0.7060547,-0.093811035,-0.6917114,0.09375,-0.59375,0.09375
1696244403875,-0.703125,-0.08892822,-0.6716919,0.09375,-0.625,0.09375
1696244403916,-0.70874023,-0.07745361,-0.6958618,-0.140625,-0.9375,0.171875
1696244403957,-0.70581055,-0.08721924,-0.6878052,0.28125,-1.671875,0.203125
1696244403997,-0.7080078,-0.08673096,-0.69317627,0.890625,-3.765625,0.125
1696244404037,-0.7019043,-0.08746338,-0.69976807,0.515625,-2.3125,0.25
1696244404076,-0.6972656,-0.081604004,-0.70196533,0.59375,-2.359375,0.25
1696244404117,-0.69311523,-0.07989502,-0.692688,1.09375,-2.28125,-0.171875
1696244404167,-0.6843262,-0.085754395,-0.69537354,1.8125,-3.609375,-0.390625
1696244404199,-0.6843262,-0.073791504,-0.7185669,0.671875,-2.71875,0.078125
1696244404238,-0.6867676,-0.08355713,-0.70025635,1.15625,-1.890625,-0.15625
1696244404277,-0.69140625,-0.07647705,-0.7127075,2.015625,-3.03125,-0.390625
1696244404317,-0.68847656,-0.07110596,-0.72662354,1.140625,-2.53125,-0.265625
1696244404359,-0.68603516,-0.078430176,-0.72442627,0.828125,-1.65625,0.0625
1696244404416,-0.68847656,-0.07647705,-0.7295532,0.296875,-1.203125,-0.203125
1696244404458,-0.6730957,-0.073791504,-0.7058716,-0.34375,-0.234375,-0.109375
1696244404476,-0.67993164,-0.070617676,-0.71099854,-0.25,-0.921875,-0.171875
1696244404516,-0.6813965,-0.07672119,-0.70758057,-0.34375,-1.015625,-0.140625
1696244404557,-0.67871094,-0.07208252,-0.71954346,-0.28125,-1.296875,0.03125
1696244404620,-0.6789551,-0.07232666,-0.72076416,-0.640625,-1.046875,-0.046875
1696244404657,-0.68237305,-0.06719971,-0.7288208,-0.359375,-1.453125,-0.046875
1696244404675,-0.6843262,-0.07965088,-0.7329712,-0.40625,-0.28125,-0.015625
1696244404716,-0.6789551,-0.06890869,-0.7197876,0.15625,-0.796875,0.03125
1696244404758,-0.6743164,-0.07598877,-0.72198486,0.203125,-1.015625,0.15625
1696244404796,-0.6621094,-0.07281494,-0.6995239,0.671875,-0.78125,0.125
1696244404837,-0.6687012,-0.06866455,-0.7202759,0.28125,-1.0,0.125
1696244404876,-0.67749023,-0.06427002,-0.7197876,0.078125,-0.25,0.0625
1696244404916,-0.6706543,-0.07232666,-0.70880127,0.21875,-0.390625,0.171875
1696244404957,-0.67163086,-0.07305908,-0.71954346,-0.171875,-0.640625,0.234375
1696244404998,-0.6828613,-0.06964111,-0.7161255,0.046875,-0.59375,0.109375
1696244405017,-0.68774414,-0.07525635,-0.7288208,0.078125,-0.84375,0.0625
1696244405057,-0.67944336,-0.07696533,-0.72003174,0.03125,-0.796875,0.40625
1696244405097,-0.6694336,-0.07183838,-0.7156372,0.234375,-0.640625,0.03125
1696244405138,-0.66967773,-0.06744385,-0.7151489,-0.03125,-0.546875,0.125
1696244405177,-0.6665039,-0.06573486,-0.725647,-0.109375,-0.625,0.1875
1696244405218,-0.67871094,-0.06964111,-0.7280884,-0.0625,-0.609375,0.234375
1696244405255,-0.67163086,-0.070617676,-0.7202759,0.3125,-0.859375,0.0625
1696244405297,-0.66796875,-0.06695557,-0.72125244,-0.296875,-0.5,0.203125
1696244405340,-0.6765137,-0.0725708,-0.7305298,-0.296875,-0.625,0.296875
1696244405376,-0.6711426,-0.07232666,-0.7112427,-0.234375,0.421875,0.234375
1696244405415,-0.6635742,-0.06500244,-0.72540283,-0.109375,-0.28125,0.203125
1696244405456,-0.6689453,-0.07525635,-0.72125244,-0.03125,-0.140625,0.078125
1696244405517,-0.671875,-0.06500244,-0.7151489,0.421875,-0.8125,0.0625
1696244405560,-0.67993164,-0.066467285,-0.73321533,0.078125,-1.171875,0.171875
1696244405576,-0.67822266,-0.06939697,-0.7258911,-0.21875,-0.484375,0.265625
1696244405620,-0.6738281,-0.07720947,-0.7337036,0.046875,-1.28125,0.25
1696244405660,-0.673584,-0.0725708,-0.7246704,-0.15625,-0.359375,0.078125
1696244405696,-0.671875,-0.07159424,-0.7214966,0.0625,-0.546875,0.203125
1696244405738,-0.67041016,-0.077697754,-0.72125244,-0.046875,-0.46875,0.21875
1696244405778,-0.67333984,-0.07183838,-0.7185669,0.40625,-0.46875,0.15625
1696244405817,-0.6699219,-0.06402588,-0.72442627,0.25,-0.671875,0.140625
1696244405859,-0.6750488,-0.070373535,-0.7307739,-0.015625,-0.359375,0.234375
1696244405919,-0.6779785,-0.07354736,-0.7300415,-0.296875,-0.09375,0.21875
1696244405936,-0.6706543,-0.065979004,-0.7268677,-0.140625,-0.40625,0.1875
1696244405981,-0.6723633,-0.070617676,-0.7329712,0.1875,-0.6875,0.0625
1696244406020,-0.66015625,-0.07281494,-0.7112427,0.34375,-1.140625,0.078125
1696244406080,-0.67871094,-0.06793213,-0.73321533,-0.21875,-0.34375,0.203125
1696244406095,-0.67041016,-0.070373535,-0.71881104,0.140625,-0.1875,-0.078125
1696244406137,-0.6821289,-0.07598877,-0.73809814,0.140625,-0.546875,0.125
1696244406197,-0.67822266,-0.0713501,-0.7258911,0.0,-0.328125,0.140625
1696244406217,-0.6711426,-0.069885254,-0.72735596,0.125,-0.359375,0.3125
1696244406257,-0.6750488,-0.06890869,-0.73101807,-0.125,-0.4375,0.25
1696244406320,-0.6750488,-0.07354736,-0.72247314,-0.078125,-0.40625,0.359375
1696244406336,-0.6730957,-0.07574463,-0.7288208,-0.265625,-0.34375,0.25
1696244406358,-0.6713867,-0.066223145,-0.7156372,-0.203125,-0.328125,0.203125
1696244406398,-0.66674805,-0.065979004,-0.7234497,0.109375,-0.484375,-0.015625
1696244406437,-0.671875,-0.06744385,-0.72076416,0.03125,-0.34375,0.0
1696244406476,-0.6760254,-0.074523926,-0.71881104,0.015625,-0.484375,0.015625
1696244406520,-0.6750488,-0.07110596,-0.72735596,-0.015625,-0.234375,0.140625
1696244406558,-0.6730957,-0.070129395,-0.7197876,-0.28125,-0.140625,0.265625
1696244406600,-0.66748047,-0.0713501,-0.72198486,-0.1875,-0.25,0.28125
1696244406638,-0.6796875,-0.070617676,-0.72442627,-0.234375,-0.4375,0.109375
1696244406677,-0.6713867,-0.06842041,-0.7280884,-0.125,-0.1875,0.21875
1696244406718,-0.6730957,-0.073791504,-0.71710205,0.234375,-0.578125,0.171875
1696244406756,-0.6743164,-0.07305908,-0.70440674,-0.28125,-0.09375,0.25
1696244406798,-0.6767578,-0.06768799,-0.7341919,-0.21875,-0.296875,0.078125
1696244406838,-0.66967773,-0.07232666,-0.7180786,-0.40625,0.453125,0.25
1696244406879,-0.6772461,-0.069885254,-0.7305298,0.171875,-0.484375,0.140625
1696244406916,-0.67529297,-0.069885254,-0.7185669,0.03125,-0.1875,0.03125
1696244406958,-0.6672363,-0.06842041,-0.7234497,0.125,-0.453125,0.03125
1696244406999,-0.67529297,-0.06964111,-0.7271118,-0.03125,-0.359375,0.234375
1696244407038,-0.6765137,-0.06719971,-0.7217407,-0.296875,-0.0625,0.234375
1696244407078,-0.6760254,-0.07501221,-0.73565674,0.1875,-0.75,0.28125
1696244407117,-0.6723633,-0.0725708,-0.72491455,-0.1875,-0.015625,0.28125
1696244407156,-0.66796875,-0.07696533,-0.7214966,0.28125,-0.140625,0.03125
1696244407196,-0.67285156,-0.07183838,-0.723938,0.1875,-0.453125,-0.015625
1696244407236,-0.6743164,-0.07330322,-0.72247314,-0.109375,-0.28125,0.03125
1696244407299,-0.6706543,-0.0713501,-0.7180786,0.078125,-0.375,0.125
1696244407316,-0.66674805,-0.06915283,-0.71759033,0.015625,-0.53125,0.140625
1696244407380,-0.68481445,-0.06939697,-0.73101807,-0.203125,-0.375,0.15625
1696244407396,-0.6755371,-0.06915283,-0.7163696,0.0,-0.34375,0.28125
1696244407457,-0.67529297,-0.07281494,-0.72369385,0.03125,-0.46875,0.140625
1696244407476,-0.6750488,-0.07110596,-0.7246704,0.0625,-0.546875,0.09375
1696244407515,-0.67041016,-0.0713501,-0.7185669,-0.109375,-0.390625,0.0
1696244407557,-0.6804199,-0.07159424,-0.7280884,-0.21875,-0.234375,0.1875
1696244407619,-0.6743164,-0.07598877,-0.71954346,0.0,-0.34375,0.140625
1696244407635,-0.67993164,-0.06573486,-0.7346802,0.15625,-0.46875,0.21875
1696244407656,-0.66845703,-0.069885254,-0.69610596,0.4375,-0.640625,0.15625
1696244407699,-0.6711426,-0.06866455,-0.7385864,-0.234375,0.0,0.234375
1696244407737,-0.6791992,-0.07110596,-0.7114868,0.015625,0.21875,-0.046875
1696244407779,-0.6813965,-0.06573486,-0.7271118,0.171875,-0.453125,0.03125
1696244407819,-0.6738281,-0.062805176,-0.7227173,0.1875,-0.109375,0.125
1696244407858,-0.6838379,-0.06549072,-0.7217407,-0.03125,-0.5,0.171875
1696244407898,-0.673584,-0.065979004,-0.7178345,-0.046875,-0.375,0.265625
1696244407938,-0.6772461,-0.07110596,-0.72125244,-0.21875,-0.328125,0.265625
1696244407977,-0.6850586,-0.08062744,-0.72613525,-0.0625,-0.5625,0.171875
1696244408017,-0.6755371,-0.06915283,-0.7202759,-0.390625,-0.09375,0.171875
1696244408056,-0.6784668,-0.0725708,-0.71661377,0.265625,-0.734375,0.03125
1696244408096,-0.67700195,-0.070129395,-0.723938,0.0625,-0.34375,0.09375
1696244408138,-0.6738281,-0.07110596,-0.7180786,0.0,-0.234375,0.21875
1696244408177,-0.67993164,-0.06915283,-0.72320557,0.015625,-0.015625,0.046875
1696244408218,-0.6750488,-0.07086182,-0.71051025,0.03125,-0.140625,0.109375
1696244408256,-0.6916504,-0.06939697,-0.73028564,-0.03125,-0.3125,0.234375
1696244408299,-0.68066406,-0.07208252,-0.7149048,-0.453125,0.390625,0.21875
1696244408338,-0.6772461,-0.07183838,-0.72369385,0.09375,-0.296875,0.125
1696244408377,-0.6789551,-0.06768799,-0.7151489,0.109375,-0.796875,0.09375
1696244408416,-0.67749023,-0.06573486,-0.72076416,0.171875,-0.953125,0.171875
1696244408458,-0.68188477,-0.061340332,-0.71881104,0.0,-0.625,0.171875
1696244408497,-0.6772461,-0.0713501,-0.7234497,-0.09375,-0.75,0.21875
1696244408538,-0.66918945,-0.070617676,-0.7190552,0.015625,-0.828125,0.265625
1696244408580,-0.6738281,-0.06768799,-0.72613525,-0.40625,-0.171875,0.28125
1696244408618,-0.68603516,-0.07550049,-0.72125244,0.265625,-1.296875,0.0625
1696244408658,-0.6804199,-0.06378174,-0.72052,-0.0625,-0.28125,0.25
1696244408699,-0.6711426,-0.06695557,-0.7163696,0.140625,-0.59375,0.078125
1696244408737,-0.6772461,-0.06866455,-0.72979736,-0.234375,-0.09375,0.21875
1696244408778,-0.6726074,-0.062561035,-0.7112427,-0.390625,0.015625,0.09375
1696244408819,-0.6743164,-0.06817627,-0.72247314,-0.0625,-0.21875,0.234375
1696244408857,-0.67993164,-0.06890869,-0.72979736,-0.15625,-0.4375,0.125
1696244408899,-0.67700195,-0.070373535,-0.7180786,0.140625,-0.78125,0.125
1696244408936,-0.6765137,-0.074523926,-0.72125244,-0.328125,-0.25,0.125
1696244408977,-0.6713867,-0.06939697,-0.7161255,-0.09375,-0.4375,-0.015625
1696244408996,-0.67285156,-0.07745361,-0.71539307,0.0625,-0.515625,0.171875
1696244409037,-0.68310547,-0.074035645,-0.71832275,0.0625,-0.40625,0.125
1696244409078,-0.68530273,-0.07305908,-0.7251587,0.0625,-0.625,0.140625
1696244409120,-0.6765137,-0.065979004,-0.7192993,-0.03125,-0.171875,0.171875
1696244409179,-0.6809082,-0.06915283,-0.72320557,-0.1875,-0.078125,0.203125
1696244409196,-0.67333984,-0.06842041,-0.72003174,-0.234375,-0.296875,0.203125
1696244409238,-0.6777344,-0.073791504,-0.7185669,0.15625,-0.421875,0.125
1696244409277,-0.67700195,-0.06549072,-0.71954346,0.0625,-0.40625,0.09375
1696244409317,-0.67822266,-0.069885254,-0.7241821,0.0625,-0.34375,0.265625
1696244409358,-0.67822266,-0.07330322,-0.72247314,-0.03125,-0.5625,0.171875
1696244409420,-0.67456055,-0.074279785,-0.71832275,-0.09375,-0.296875,0.21875
1696244409436,-0.68774414,-0.077697754,-0.72662354,-0.125,-0.375,0.28125
1696244409478,-0.6689453,-0.06866455,-0.71417236,-0.171875,0.0,0.15625
1696244409539,-0.6816406,-0.06866455,-0.7349243,0.125,-0.53125,0.140625
1696244409578,-0.6791992,-0.0725708,-0.72784424,-0.6875,0.109375,0.296875
1696244409596,-0.6723633,-0.07305908,-0.7180786,0.234375,-0.625,0.109375
1696244409660,-0.68115234,-0.0725708,-0.7178345,0.109375,-0.546875,0.015625
1696244409699,-0.6767578,-0.06378174,-0.7202759,0.0625,-0.078125,0.109375
1696244409718,-0.6796875,-0.06842041,-0.72125244,-0.125,-0.21875,0.171875
1696244409781,-0.67871094,-0.06427002,-0.72125244,-0.328125,-0.03125,0.140625
1696244409796,-0.6850586,-0.06890869,-0.7168579,-0.15625,-0.453125,0.1875
1696244409837,-0.6809082,-0.07672119,-0.7246704,-0.234375,-0.171875,0.25
1696244409878,-0.673584,-0.06964111,-0.7090454,-0.1875,-0.109375,0.140625
1696244409919,-0.68530273,-0.070617676,-0.7258911,0.21875,-0.71875,-0.015625
1696244409958,-0.6784668,-0.07208252,-0.7246704,-0.09375,-0.390625,0.21875
1696244409997,-0.66796875,-0.06866455,-0.7144165,0.0,-0.59375,0.015625
1696244410037,-0.6875,-0.07281494,-0.7263794,-0.171875,-0.28125,0.109375
1696244410079,-0.6755371,-0.06549072,-0.7202759,-0.125,-0.328125,0.171875
1696244410118,-0.6850586,-0.07086182,-0.7197876,-0.078125,-0.515625,0.359375
1696244410158,-0.67529297,-0.07232666,-0.7124634,-0.15625,-0.359375,0.078125
1696244410218,-0.67871094,-0.078430176,-0.7185669,-0.015625,-0.328125,0.3125
1696244410237,-0.6789551,-0.07110596,-0.7114868,-0.015625,-0.3125,0.03125
1696244410256,-0.6816406,-0.07208252,-0.7202759,0.03125,-0.359375,0.171875
1696244410297,-0.67993164,-0.066223145,-0.71417236,0.03125,-0.375,0.265625
1696244410339,-0.68115234,-0.070129395,-0.7173462,0.0625,-0.40625,0.046875
1696244410377,-0.6845703,-0.06842041,-0.71417236,-0.09375,-0.40625,0.21875
1696244410417,-0.67211914,-0.06890869,-0.7161255,-0.390625,0.453125,0.296875
1696244410457,-0.6862793,-0.07110596,-0.7300415,-0.015625,-0.59375,0.1875
1696244410498,-0.6796875,-0.07232666,-0.71661377,-0.796875,0.609375,0.15625
1696244410539,-0.68481445,-0.07720947,-0.71539307,0.140625,-0.25,0.03125
1696244410578,-0.68310547,-0.065979004,-0.71954346,-0.03125,-0.40625,0.28125
1696244410617,-0.6772461,-0.06768799,-0.71661377,0.0,-0.1875,0.046875
1696244410659,-0.69311523,-0.07110596,-0.7178345,-0.03125,-0.3125,0.109375
1696244410697,-0.6838379,-0.07159424,-0.72052,0.015625,-0.34375,0.171875
1696244410738,-0.6838379,-0.06939697,-0.7151489,-0.234375,-0.484375,0.125
1696244410777,-0.6882324,-0.06866455,-0.7217407,-0.28125,0.140625,0.265625
1696244410816,-0.6760254,-0.062805176,-0.7102661,-0.109375,0.0625,-0.03125
1696244410858,-0.67578125,-0.06768799,-0.7102661,0.171875,-0.609375,0.09375
1696244410899,-0.6933594,-0.07086182,-0.71832275,0.015625,-0.25,0.09375
1696244410937,-0.6765137,-0.06695557,-0.7090454,0.015625,-0.28125,0.078125
1696244410976,-0.68969727,-0.06744385,-0.72442627,-0.046875,-0.3125,0.171875
1696244411017,-0.69189453,-0.066711426,-0.722229,-0.109375,-0.546875,0.265625
1696244411056,-0.6826172,-0.07305908,-0.7139282,-0.09375,-0.234375,0.171875
1696244411097,-0.68603516,-0.066711426,-0.7180786,-0.140625,-0.328125,0.171875
1696244411137,-0.6870117,-0.07159424,-0.72003174,-0.125,-0.125,0.15625
1696244411177,-0.6765137,-0.06768799,-0.7107544,-0.234375,-0.3125,0.265625
1696244411217,-0.6906738,-0.07623291,-0.7178345,-0.125,-0.296875,0.03125
1696244411257,-0.68774414,-0.069885254,-0.71954346,-0.078125,-0.109375,0.171875
1696244411299,-0.68774414,-0.065979004,-0.7227173,0.015625,-0.34375,0.1875
1696244411338,-0.6862793,-0.06964111,-0.71051025,0.078125,-0.375,0.21875
1696244411377,-0.6870117,-0.07525635,-0.72076416,-0.640625,1.203125,0.125
1696244411418,-0.69628906,-0.07232666,-0.72052,-0.015625,0.0,0.03125
1696244411457,-0.685791,-0.06768799,-0.71221924,-0.859375,1.28125,0.34375
1696244411498,-0.68359375,-0.07501221,-0.7017212,-0.125,-0.390625,0.203125
1696244411578,-0.68310547,-0.074035645,-0.7053833,0.125,-0.484375,0.140625
1696244411581,-0.69628906,-0.06915283,-0.71466064,-0.109375,-0.671875,0.25
1696244411601,-0.6904297,-0.074523926,-0.71588135,0.03125,-0.65625,0.1875
1696244411656,-0.685791,-0.06817627,-0.7078247,-0.078125,-0.34375,0.171875
1696244411676,-0.6826172,-0.070129395,-0.6975708,0.15625,-0.546875,0.15625
1696244411738,-0.6789551,-0.070129395,-0.704895,-0.03125,-0.5,0.234375
1696244411757,-0.6911621,-0.07305908,-0.7131958,-0.234375,-0.28125,0.15625
1696244411820,-0.689209,-0.066467285,-0.7090454,0.078125,-0.765625,0.1875
1696244411858,-0.6870117,-0.07305908,-0.7114868,0.046875,-0.53125,0.234375
1696244411876,-0.6921387,-0.065979004,-0.7139282,0.125,-0.59375,0.140625
1696244411941,-0.68774414,-0.06768799,-0.70977783,-0.109375,-0.328125,0.234375
1696244411957,-0.6879883,-0.07110596,-0.71221924,-0.03125,-0.46875,0.203125
1696244412021,-0.69140625,-0.07525635,-0.71343994,0.015625,-0.28125,0.234375
1696244412058,-0.6862793,-0.06890869,-0.7112427,-0.046875,-0.390625,0.1875
1696244412099,-0.68896484,-0.07159424,-0.70880127,-0.125,-0.25,0.140625
1696244412115,-0.68603516,-0.06817627,-0.7127075,0.046875,-0.40625,0.25
1696244412157,-0.67822266,-0.07281494,-0.7073364,-0.03125,-0.296875,0.25
1696244412199,-0.6965332,-0.06964111,-0.7136841,-0.140625,-0.15625,0.25
1696244412237,-0.69140625,-0.0713501,-0.70562744,0.203125,-0.46875,0.109375
1696244412277,-0.6904297,-0.07330322,-0.71173096,-0.4375,0.328125,0.234375
1696244412317,-0.68847656,-0.07183838,-0.7241821,0.140625,0.609375,0.21875
1696244412358,-0.68188477,-0.077941895,-0.6987915,-0.921875,1.140625,0.515625
1696244412417,-0.6970215,-0.074035645,-0.6992798,-0.21875,-0.546875,0.203125
1696244412436,-0.6887207,-0.07281494,-0.70928955,-0.09375,-0.4375,0.234375
1696244412498,-0.69140625,-0.07305908,-0.7112427,0.03125,-0.515625,0.203125
1696244412538,-0.6870117,-0.07720947,-0.7114868,-0.25,-0.34375,0.25
1696244412556,-0.69433594,-0.07305908,-0.70684814,-0.171875,-0.359375,0.5
1696244412598,-0.6882324,-0.07354736,-0.7151489,0.0,-0.71875,0.203125
1696244412659,-0.6911621,-0.07159424,-0.70635986,-0.4375,-0.1875,0.140625
1696244412676,-0.6904297,-0.07672119,-0.7034302,0.046875,-0.34375,0.125
1696244412741,-0.6882324,-0.066467285,-0.70562744,0.09375,-0.421875,0.296875
1696244412758,-0.6928711,-0.0713501,-0.71051025,0.203125,-0.53125,0.15625
1696244412796,-0.68896484,-0.07525635,-0.710022,-0.015625,-0.375,0.15625
1696244412838,-0.69750977,-0.07281494,-0.70880127,-0.203125,-0.296875,0.203125
1696244412880,-0.69750977,-0.07208252,-0.7073364,-0.28125,-0.234375,0.25
1696244412895,-0.6867676,-0.070373535,-0.7058716,-0.296875,-0.296875,0.15625
1696244412940,-0.6953125,-0.07696533,-0.7095337,-0.375,-0.1875,0.21875
1696244412978,-0.69091797,-0.074523926,-0.7095337,-0.328125,-0.15625,0.1875
1696244413018,-0.69433594,-0.07647705,-0.71051025,-0.34375,-0.265625,0.25
1696244413057,-0.6970215,-0.077941895,-0.7036743,0.09375,-0.375,0.03125
1696244413099,-0.69433594,-0.07720947,-0.7024536,-0.03125,-0.34375,0.203125
1696244413138,-0.6870117,-0.074279785,-0.7119751,-0.328125,0.125,0.234375
1696244413176,-0.6965332,-0.07110596,-0.7124634,0.0,-0.609375,0.3125
1696244413218,-0.6960449,-0.07574463,-0.7090454,-1.09375,0.75,0.59375
1696244413257,-0.6960449,-0.07965088,-0.7005005,-0.140625,-0.09375,0.140625
1696244413298,-0.6972656,-0.07574463,-0.70562744,0.0,-0.359375,0.203125
1696244413337,-0.6982422,-0.07330322,-0.7085571,0.109375,1.0625,0.125
1696244413377,-0.69873047,-0.07745361,-0.70318604,-0.015625,-0.609375,0.15625
1696244413417,-0.6911621,-0.07867432,-0.70635986,-0.265625,-0.890625,0.265625
1696244413458,-0.6870117,-0.074279785,-0.6980591,0.046875,-0.4375,0.25
1696244413497,-0.6982422,-0.07891846,-0.70391846,-0.375,-0.28125,0.265625
1696244413538,-0.6948242,-0.07672119,-0.7000122,-0.0625,-0.546875,0.234375
1696244413577,-0.6960449,-0.07696533,-0.7073364,-0.078125,-0.59375,0.203125
1696244413617,-0.69189453,-0.07867432,-0.7017212,-0.1875,-0.3125,0.15625
1696244413659,-0.703125,-0.07745361,-0.7058716,0.09375,-0.4375,0.21875
1696244413698,-0.6984863,-0.077941895,-0.70318604,-0.046875,-0.65625,0.203125
1696244413738,-0.69384766,-0.08013916,-0.70928955,-0.03125,-0.515625,0.3125
1696244413778,-0.69506836,-0.07989502,-0.7095337,-0.171875,-0.390625,0.359375
1696244413817,-0.69921875,-0.07696533,-0.7058716,-0.328125,-0.375,0.25
1696244413859,-0.6945801,-0.078430176,-0.7029419,-0.46875,-0.296875,0.40625
1696244413898,-0.69799805,-0.08087158,-0.7005005,-0.1875,-0.234375,0.25
1696244413937,-0.69091797,-0.077697754,-0.6975708,0.078125,-0.484375,0.234375
1696244413977,-0.6965332,-0.08453369,-0.7112427,-0.375,0.171875,0.171875
1696244414017,-0.6958008,-0.07305908,-0.7180786,-0.015625,-0.3125,0.234375
1696244414059,-0.701416,-0.08428955,-0.70440674,-0.984375,0.78125,0.390625
1696244414099,-0.6982422,-0.07867432,-0.70098877,-0.140625,-0.1875,0.25
1696244414140,-0.6945801,-0.081848145,-0.7034302,-0.078125,-0.28125,0.34375
1696244414219,-0.69677734,-0.08111572,-0.70318604,-0.109375,-0.4375,0.28125
1696244414223,-0.6972656,-0.078430176,-0.7034302,-0.203125,0.078125,0.171875
1696244414237,-0.6928711,-0.08135986,-0.6992798,-0.28125,-0.234375,0.234375
1696244414277,-0.6999512,-0.07989502,-0.7058716,0.171875,-0.71875,0.171875
1696244414319,-0.69140625,-0.07940674,-0.7058716,-0.34375,-0.1875,0.390625
1696244414357,-0.6948242,-0.08111572,-0.69073486,-0.171875,0.015625,0.34375
1696244414397,-0.70581055,-0.07940674,-0.7024536,0.0,-0.328125,0.0625
1696244414438,-0.69311523,-0.07867432,-0.6975708,0.015625,-0.390625,0.203125
1696244414480,-0.70288086,-0.081604004,-0.7005005,0.125,-0.1875,0.28125
1696244414517,-0.6989746,-0.07647705,-0.7005005,-0.25,-0.125,0.3125
1696244414559,-0.69628906,-0.08013916,-0.70562744,-0.09375,-0.0625,0.1875
1696244414598,-0.7038574,-0.08673096,-0.7024536,-0.328125,-0.203125,0.25
1696244414637,-0.6999512,-0.08428955,-0.69781494,-0.234375,-0.28125,0.140625
1696244414678,-0.7055664,-0.08648682,-0.7034302,-0.265625,0.171875,0.1875
1696244414737,-0.6960449,-0.08380127,-0.6939087,-0.1875,-0.34375,0.28125
1696244414757,-0.70654297,-0.08526611,-0.706604,-0.09375,-0.421875,0.03125
1696244414815,-0.6940918,-0.081604004,-0.69976807,0.140625,0.890625,0.0
1696244414856,-0.70532227,-0.07867432,-0.7061157,-0.890625,0.296875,0.453125
1696244414896,-0.70532227,-0.089416504,-0.6917114,-0.359375,-0.703125,0.3125
1696244414915,-0.70581055,-0.077697754,-0.7005005,0.09375,-0.875,0.25
1696244414976,-0.7011719,-0.081848145,-0.7012329,0.171875,-0.4375,0.359375
1696244415015,-0.7084961,-0.07867432,-0.6992798,-0.171875,0.171875,0.234375
1696244415036,-0.70458984,-0.08306885,-0.69854736,-0.078125,0.171875,0.359375
1696244415078,-0.6970215,-0.08355713,-0.6958618,-0.265625,-0.09375,0.40625
1696244415116,-0.7011719,-0.0869751,-0.69537354,-0.34375,0.359375,0.328125
1696244415156,-0.70458984,-0.089416504,-0.68536377,-0.4375,0.96875,0.203125
1696244415197,-0.7089844,-0.08453369,-0.7000122,-0.296875,-1.125,0.375
1696244415236,-0.69750977,-0.07989502,-0.692688,-0.109375,-0.90625,0.046875
1696244415276,-0.70458984,-0.08355713,-0.69122314,0.09375,-0.421875,-0.015625
1696244415315,-0.7114258,-0.08428955,-0.6946411,0.046875,-0.1875,0.234375
1696244415356,-0.7067871,-0.08380127,-0.69195557,-0.34375,-0.0625,0.28125
1696244415396,-0.7141113,-0.08355713,-0.7017212,-0.234375,0.28125,0.09375
1696244415459,-0.70336914,-0.089660645,-0.6946411,-0.09375,-0.3125,0.3125
1696244415477,-0.70703125,-0.085510254,-0.6851196,0.171875,0.296875,-0.03125
1696244415517,-0.7062988,-0.089416504,-0.6970825,0.5625,-1.140625,0.0
1696244415537,-0.7077637,-0.077941895,-0.69244385,0.90625,-2.09375,-0.03125
1696244415576,-0.70336914,-0.08062744,-0.68341064,1.109375,-1.859375,0.078125
1696244415617,-0.7114258,-0.077697754,-0.70440674,-0.21875,-0.484375,0.078125
1696244415660,-0.70654297,-0.07867432,-0.6807251,-0.1875,-2.359375,0.296875
1696244415698,-0.69506836,-0.08331299,-0.6987915,0.375,-3.359375,0.125
1696244415736,-0.69873047,-0.082092285,-0.69781494,0.0,-2.09375,0.09375
1696244415777,-0.6999512,-0.077697754,-0.6970825,0.421875,-2.546875,0.328125
1696244415818,-0.6958008,-0.085754395,-0.7136841,-0.09375,-1.96875,0.234375
1696244415857,-0.6882324,-0.07989502,-0.70318604,0.109375,-1.96875,0.0
1696244415898,-0.69262695,-0.0803833,-0.71173096,-0.171875,-1.46875,0.3125
1696244415936,-0.6894531,-0.085510254,-0.70513916,0.09375,-1.546875,0.3125
1696244415977,-0.68969727,-0.08013916,-0.7112427,0.5,-1.90625,-0.015625
1696244416019,-0.68310547,-0.07965088,-0.70635986,0.078125,-0.96875,0.140625
1696244416056,-0.6838379,-0.0791626,-0.7114868,0.421875,-0.734375,0.15625
1696244416098,-0.6904297,-0.081848145,-0.7144165,0.296875,-0.03125,0.0
1696244416138,-0.68847656,-0.08306885,-0.71051025,0.375,-0.953125,0.078125
1696244416177,-0.6948242,-0.0803833,-0.71417236,-0.09375,-0.796875,0.265625
1696244416219,-0.68530273,-0.07720947,-0.7090454,-0.046875,-0.515625,0.140625
1696244416258,-0.6982422,-0.07745361,-0.71832275,-0.078125,-0.1875,0.171875
1696244416299,-0.68652344,-0.07965088,-0.7053833,0.046875,-0.140625,0.21875
1696244416338,-0.68237305,-0.08087158,-0.70977783,-0.046875,0.09375,0.125
1696244416380,-0.6879883,-0.070373535,-0.7144165,0.25,-0.765625,0.15625
1696244416417,-0.6928711,-0.07281494,-0.7161255,-0.5,0.40625,0.234375
1696244416457,-0.68237305,-0.078186035,-0.69854736,0.265625,-0.46875,0.171875
1696244416498,-0.6870117,-0.07696533,-0.71099854,0.09375,-0.484375,0.09375
1696244416538,-0.69018555,-0.07476807,-0.70684814,-0.015625,-0.390625,0.109375
1696244416576,-0.6960449,-0.081604004,-0.71173096,-0.09375,-0.40625,0.03125
1696244416619,-0.68896484,-0.07696533,-0.7149048,-0.21875,0.015625,0.15625
1696244416658,-0.68115234,-0.07891846,-0.7061157,0.21875,-0.484375,0.171875
1696244416698,-0.6867676,-0.07647705,-0.710022,-0.203125,-0.078125,0.1875
1696244416737,-0.6843262,-0.08282471,-0.7036743,-0.03125,-0.34375,0.140625
1696244416777,-0.69091797,-0.082092285,-0.71099854,-0.015625,-0.5,0.125
1696244416817,-0.6828613,-0.07525635,-0.7029419,0.203125,-0.453125,0.046875
1696244416860,-0.68652344,-0.07940674,-0.70440674,0.328125,-0.578125,0.15625
1696244416876,-0.6948242,-0.07647705,-0.7124634,-0.109375,-0.46875,0.125
1696244416919,-0.689209,-0.078186035,-0.7124634,-0.28125,-0.015625,0.203125
1696244416957,-0.6923828,-0.08135986,-0.7041626,-0.09375,-0.3125,0.328125
1696244417021,-0.6855469,-0.07965088,-0.7107544,0.0625,1.109375,0.140625
1696244417057,-0.68896484,-0.074523926,-0.7022095,-0.109375,-0.234375,0.171875
1696244417076,-0.6879883,-0.07696533,-0.6983032,-0.03125,-0.65625,0.265625
1696244417118,-0.6875,-0.07672119,-0.69488525,0.03125,-0.140625,0.140625
1696244417157,-0.7006836,-0.07965088,-0.7185669,-0.171875,-0.4375,0.171875
1696244417199,-0.69018555,-0.08062744,-0.7000122,-0.640625,0.484375,0.296875
1696244417238,-0.69677734,-0.081848145,-0.7036743,0.265625,-0.640625,0.15625
1696244417278,-0.6899414,-0.08355713,-0.7022095,-0.078125,-0.09375,0.203125
1696244417318,-0.6965332,-0.08477783,-0.70269775,0.109375,-0.46875,0.203125
1696244417356,-0.6921387,-0.07867432,-0.7058716,-0.046875,-0.25,0.28125
1696244417399,-0.6960449,-0.0725708,-0.704895,-0.234375,0.0625,0.21875
1696244417437,-0.6906738,-0.08013916,-0.71417236,-0.03125,-0.671875,0.21875
1696244417478,-0.6870117,-0.07476807,-0.6987915,-0.25,-0.09375,0.171875
1696244417520,-0.6916504,-0.081604004,-0.7000122,0.0,-0.296875,0.390625
1696244417580,-0.68847656,-0.07940674,-0.7000122,-0.125,-0.265625,0.234375
1696244417597,-0.6972656,-0.08111572,-0.7053833,-0.078125,-0.203125,0.234375
1696244417658,-0.6972656,-0.07989502,-0.70977783,-0.171875,-0.515625,0.1875
1696244417677,-0.6999512,-0.07965088,-0.7024536,-0.21875,-0.125,0.0625
1696244417718,-0.6958008,-0.07501221,-0.7058716,-0.0625,-0.34375,0.234375
1696244417782,-0.6970215,-0.07647705,-0.7017212,-0.171875,-0.3125,0.390625
1696244417796,-0.69506836,-0.0791626,-0.70025635,-0.3125,-0.109375,0.265625
1696244417839,-0.6948242,-0.08062744,-0.7053833,-0.171875,-0.203125,0.296875
1696244417881,-0.69506836,-0.07647705,-0.69976807,-0.265625,-0.265625,0.125
1696244417918,-0.69506836,-0.08062744,-0.69537354,-0.15625,-0.4375,0.203125
1696244417958,-0.69873047,-0.082336426,-0.70806885,-0.125,-0.453125,0.109375
1696244417997,-0.6845703,-0.08111572,-0.69488525,0.203125,-0.59375,-0.03125
1696244418038,-0.6965332,-0.078186035,-0.7095337,-0.5,1.984375,0.296875
1696244418077,-0.70043945,-0.08404541,-0.6878052,-0.390625,-0.125,0.171875
1696244418117,-0.701416,-0.08770752,-0.70318604,-0.046875,-1.015625,0.1875
1696244418137,-0.6916504,-0.07525635,-0.69976807,0.046875,-0.1875,0.171875
1696244418178,-0.7062988,-0.082336426,-0.70635986,-0.265625,-0.34375,0.171875
1696244418218,-0.6960449,-0.07940674,-0.70562744,-0.3125,-0.1875,0.109375
1696244418258,-0.6960449,-0.08428955,-0.69976807,-0.265625,-0.34375,0.375
1696244418298,-0.6994629,-0.08062744,-0.70562744,-0.453125,-0.078125,0.375
1696244418339,-0.69873047,-0.08306885,-0.6975708,-0.078125,-0.328125,0.1875
1696244418380,-0.6989746,-0.08111572,-0.69976807,0.203125,-0.6875,0.15625
1696244418418,-0.7019043,-0.08380127,-0.70269775,-0.203125,-0.171875,0.359375
1696244418457,-0.6994629,-0.08746338,-0.6995239,0.265625,-0.828125,0.265625
1696244418497,-0.7097168,-0.07647705,-0.7073364,0.203125,0.984375,-0.03125
1696244418538,-0.7084961,-0.07940674,-0.69781494,-0.203125,-0.390625,0.265625
1696244418578,-0.7006836,-0.082092285,-0.69976807,-0.5,-0.640625,0.484375
1696244418617,-0.70214844,-0.08306885,-0.7012329,-0.3125,-0.40625,0.3125
1696244418658,-0.6953125,-0.078186035,-0.69781494,-0.125,-0.203125,0.421875
1696244418697,-0.70336914,-0.08282471,-0.69610596,-0.3125,-0.1875,0.359375
1696244418740,-0.7011719,-0.089660645,-0.6995239,-0.203125,-0.296875,0.234375
1696244418777,-0.6977539,-0.07745361,-0.69195557,-0.3125,-0.03125,0.203125
1696244418818,-0.7011719,-0.085510254,-0.69537354,0.09375,-0.46875,0.203125
1696244418857,-0.7019043,-0.0791626,-0.6968384,-0.046875,-0.078125,0.25
1696244418899,-0.71728516,-0.08917236,-0.7136841,-0.109375,-0.5625,0.296875
1696244418939,-0.7050781,-0.08477783,-0.7005005,-0.8125,0.609375,0.296875
1696244418978,-0.70410156,-0.08477783,-0.7024536,0.53125,1.609375,0.0625
1696244419018,-0.70581055,-0.08306885,-0.6995239,0.234375,-0.046875,0.046875
1696244419059,-0.70043945,-0.077697754,-0.69317627,-0.078125,-0.96875,0.28125
1696244419098,-0.7145996,-0.08477783,-0.69903564,-0.140625,-0.5625,0.40625
1696244419139,-0.70214844,-0.08087158,-0.6968384,-0.125,-0.34375,0.296875
1696244419178,-0.703125,-0.08868408,-0.68536377,-0.0625,-0.203125,0.25
1696244419219,-0.69750977,-0.08013916,-0.6929321,-0.59375,-0.0625,0.515625
1696244419258,-0.6984863,-0.090148926,-0.6921997,-0.265625,-0.125,0.359375
1696244419299,-0.70458984,-0.08892822,-0.70562744,-0.125,-0.578125,0.1875
1696244419338,-0.6945801,-0.08892822,-0.6929321,0.171875,-0.53125,0.125
1696244419378,-0.7006836,-0.08673096,-0.6921997,0.078125,-0.375,0.203125
1696244419420,-0.7138672,-0.08135986,-0.69659424,-0.0625,-0.359375,0.25
1696244419459,-0.69970703,-0.08746338,-0.69854736,-0.265625,-0.265625,0.28125
1696244419475,-0.70996094,-0.086242676,-0.69122314,-0.5625,-0.140625,0.328125
1696244419519,-0.70581055,-0.08917236,-0.6946411,0.0,-0.75,0.140625
1696244419558,-0.70166016,-0.08502197,-0.6934204,0.0,-0.421875,0.234375
1696244419598,-0.7050781,-0.085754395,-0.69976807,-0.046875,-0.375,0.046875
1696244419640,-0.70581055,-0.09039307,-0.6878052,0.03125,-0.234375,0.09375
1696244419678,-0.70166016,-0.08502197,-0.6890259,0.203125,-0.609375,0.015625
1696244419721,-0.6999512,-0.085510254,-0.6851196,0.296875,-1.296875,0.15625
1696244419777,-0.7133789,-0.08917236,-0.69903564,-0.0625,-1.203125,0.265625
1696244419796,-0.7097168,-0.08648682,-0.7017212,-0.5,-1.625,0.40625
1696244419858,-0.69799805,-0.08404541,-0.6765747,-0.296875,-1.5,0.1875
1696244419878,-0.70581055,-0.08673096,-0.7085571,0.28125,-2.46875,0.34375
1696244419916,-0.7006836,-0.08502197,-0.6995239,-0.28125,-1.453125,0.328125
1696244419955,-0.7006836,-0.08135986,-0.7007446,0.109375,-1.515625,0.140625
1696244420015,-0.69311523,-0.08502197,-0.7061157,-0.015625,-1.28125,0.28125
1696244420056,-0.69628906,-0.08843994,-0.7124634,0.75,-0.109375,-0.03125
1696244420098,-0.7060547,-0.08868408,-0.7180786,0.078125,-1.484375,0.109375
1696244420117,-0.6953125,-0.085998535,-0.7034302,-0.171875,-1.328125,0.34375
1696244420158,-0.69384766,-0.08502197,-0.7041626,-0.234375,-1.734375,0.28125
1696244420197,-0.6936035,-0.0869751,-0.704895,-0.0625,-0.9375,0.109375
1696244420238,-0.6916504,-0.0881958,-0.7036743,0.078125,-1.046875,0.171875
1696244420280,-0.69799805,-0.08477783,-0.70562744,0.0625,-0.625,0.078125
1696244420315,-0.69555664,-0.08355713,-0.7085571,0.0,-0.40625,0.28125
1696244420357,-0.69970703,-0.08892822,-0.7061157,-0.0625,-0.34375,0.15625
1696244420397,-0.69384766,-0.085754395,-0.7046509,-0.09375,-0.53125,0.1875
1696244420456,-0.6916504,-0.0881958,-0.7107544,-0.109375,-0.3125,0.171875
1696244420476,-0.68530273,-0.08477783,-0.7029419,0.09375,-0.359375,0.140625
1696244420516,-0.6850586,-0.08721924,-0.70513916,-0.03125,-0.40625,0.15625
1696244420577,-0.69262695,-0.089416504,-0.7022095,-0.140625,-0.40625,0.140625
1696244420595,-0.6940918,-0.090148926,-0.7131958,0.03125,-0.578125,-0.0625
1696244420637,-0.68725586,-0.08648682,-0.690979,0.125,-0.5,0.234375
1696244420676,-0.6960449,-0.085754395,-0.72003174,-0.140625,-0.21875,0.1875
1696244420717,-0.69140625,-0.081848145,-0.6956177,0.0625,-0.15625,0.171875
1696244420777,-0.6982422,-0.089660645,-0.7112427,0.0,-0.53125,0.109375
1696244420781,-0.6928711,-0.08355713,-0.7000122,-0.015625,-0.171875,0.125
1696244420816,-0.69140625,-0.08404541,-0.7036743,0.0,-0.25,0.046875
1696244420899,-0.6911621,-0.08380127,-0.7005005,-0.109375,-0.125,0.03125
1696244420902,-0.6928711,-0.09259033,-0.7041626,-0.125,-0.0625,0.265625
1696244420937,-0.6970215,-0.08477783,-0.704895,-0.15625,-0.515625,0.234375
1696244420976,-0.69189453,-0.09088135,-0.70269775,-0.25,-0.171875,0.25
1696244421018,-0.6960449,-0.07989502,-0.7073364,0.09375,-0.5,0.1875
1696244421058,-0.69433594,-0.08428955,-0.6995239,0.234375,-0.109375,0.09375
1696244421097,-0.6984863,-0.093322754,-0.708313,0.03125,-0.3125,0.0
1696244421138,-0.6970215,-0.0881958,-0.70513916,0.046875,-0.28125,0.109375
1696244421176,-0.6960449,-0.08453369,-0.706604,0.015625,0.015625,0.109375
1696244421218,-0.69677734,-0.08770752,-0.70513916,-0.28125,-0.0625,0.171875
1696244421257,-0.70043945,-0.089416504,-0.708313,-0.15625,-0.140625,0.109375
1696244421298,-0.6911621,-0.08282471,-0.6995239,0.015625,-0.1875,0.203125
1696244421337,-0.69873047,-0.09063721,-0.70880127,-0.171875,-0.109375,0.140625
1696244421377,-0.6945801,-0.08062744,-0.7036743,0.0,-0.015625,0.078125
1696244421418,-0.6965332,-0.08648682,-0.690979,0.265625,-0.3125,0.125
1696244421457,-0.6994629,-0.085510254,-0.7041626,0.40625,1.0625,0.015625
1696244421498,-0.69799805,-0.08673096,-0.70562744,-0.078125,0.640625,0.03125
1696244421539,-0.7019043,-0.08526611,-0.6963501,-0.6875,0.453125,0.3125
1696244421577,-0.69555664,-0.08673096,-0.7036743,-0.125,-1.046875,0.140625
1696244421618,-0.7006836,-0.082092285,-0.7046509,-0.03125,-0.3125,0.125
1696244421658,-0.69677734,-0.085754395,-0.69732666,-0.015625,-0.421875,0.203125
1696244421699,-0.69677734,-0.08306885,-0.6987915,0.125,-0.203125,0.234375
1696244421737,-0.69628906,-0.081848145,-0.70196533,-0.203125,0.03125,0.390625
1696244421779,-0.7023926,-0.08477783,-0.70806885,0.046875,-0.6875,0.328125
1696244421817,-0.69799805,-0.086242676,-0.6995239,-0.078125,-0.140625,0.234375
1696244421859,-0.7036133,-0.0881958,-0.7034302,0.0625,-0.484375,0.203125
1696244421895,-0.7011719,-0.08355713,-0.7012329,0.15625,-0.34375,0.0625
1696244421939,-0.7011719,-0.08331299,-0.69781494,0.0,-0.421875,0.171875
1696244421977,-0.6958008,-0.08306885,-0.69854736,-0.078125,-0.328125,0.21875
1696244422017,-0.6977539,-0.078186035,-0.6951294,0.078125,-0.359375,0.140625
1696244422058,-0.70043945,-0.08428955,-0.70147705,-0.34375,-0.28125,0.203125
1696244422076,-0.70092773,-0.085510254,-0.69488525,-0.21875,-0.640625,0.390625
1696244422137,-0.70043945,-0.08795166,-0.6956177,-0.140625,-0.1875,0.125
1696244422156,-0.6965332,-0.08135986,-0.6934204,-0.109375,-0.34375,0.1875
1696244422196,-0.6984863,-0.08477783,-0.6980591,0.171875,-0.796875,0.171875
1696244422257,-0.7077637,-0.0881958,-0.7102661,0.046875,-0.578125,0.1875
1696244422276,-0.6921387,-0.08331299,-0.67559814,0.296875,-1.09375,0.015625
1696244422317,-0.70288086,-0.07647705,-0.71343994,-0.4375,-0.171875,0.46875
1696244422358,-0.7023926,-0.08892822,-0.692688,-0.3125,0.140625,0.140625
1696244422398,-0.6972656,-0.08843994,-0.69903564,0.046875,-0.671875,0.21875
1696244422438,-0.69750977,-0.08721924,-0.69659424,0.015625,-0.515625,0.265625
1696244422477,-0.70214844,-0.08428955,-0.7053833,-0.078125,-0.125,0.21875
1696244422519,-0.7006836,-0.089660645,-0.7007446,0.046875,-0.375,0.21875
1696244422557,-0.70947266,-0.08673096,-0.6975708,-0.109375,-0.4375,0.109375
1696244422600,-0.70166016,-0.082336426,-0.7029419,-0.171875,-0.28125,0.296875
1696244422642,-0.70654297,-0.081604004,-0.69732666,-0.25,-0.203125,0.03125
1696244422700,-0.69384766,-0.08502197,-0.69537354,0.15625,-0.625,0.359375
1696244422719,-0.69311523,-0.08258057,-0.694397,-0.078125,-0.34375,0.296875
1696244422759,-0.7001953,-0.08453369,-0.6970825,0.125,-0.390625,-0.015625
1696244422818,-0.6999512,-0.08843994,-0.69073486,0.0625,-0.265625,0.21875
1696244422839,-0.7050781,-0.07940674,-0.6975708,-0.109375,-0.28125,0.28125
1696244422880,-0.70214844,-0.08917236,-0.70025635,-0.234375,-0.125,0.28125
1696244422941,-0.70214844,-0.085754395,-0.6968384,-0.140625,-0.390625,0.34375
1696244422956,-0.7023926,-0.08673096,-0.6980591,-0.171875,-0.296875,0.171875
1696244422998,-0.7043457,-0.085754395,-0.6921997,-0.0625,-0.328125,0.203125
1696244423062,-0.70043945,-0.08526611,-0.6885376,0.0625,-0.5,0.203125
1696244423076,-0.703125,-0.08648682,-0.6946411,-0.328125,-0.03125,0.328125
1696244423118,-0.7089844,-0.0803833,-0.70758057,-0.15625,-0.5,0.109375
1696244423157,-0.7001953,-0.08477783,-0.69488525,-0.5625,0.8125,0.265625
1696244423199,-0.70581055,-0.09552002,-0.69317627,-0.265625,-0.140625,0.328125
1696244423239,-0.70458984,-0.08306885,-0.6897583,0.0,-0.046875,0.234375
1696244423278,-0.7114258,-0.08746338,-0.6946411,0.0625,0.109375,0.25
1696244423318,-0.70458984,-0.089416504,-0.6946411,-0.3125,0.03125,0.296875
1696244423403,-0.70654297,-0.08380127,-0.6980591,-0.328125,-0.140625,0.203125
1696244423407,-0.7116699,-0.09234619,-0.708313,-0.1875,-0.6875,0.234375
1696244423415,-0.70874023,-0.09503174,-0.68707275,-0.1875,-0.265625,0.25
1696244423458,-0.6970215,-0.09088135,-0.6929321,0.203125,-0.625,0.265625
1696244423497,-0.70654297,-0.09039307,-0.6956177,0.1875,-0.578125,0.09375
1696244423540,-0.70458984,-0.089904785,-0.6904907,-0.03125,-0.34375,0.15625
1696244423578,-0.7026367,-0.08453369,-0.6929321,-0.125,-0.390625,0.21875
1696244423618,-0.70043945,-0.0881958,-0.6921997,-0.0625,-0.21875,0.265625
1696244423661,-0.70825195,-0.089904785,-0.69976807,-0.1875,-0.03125,0.203125
1696244423700,-0.7077637,-0.09185791,-0.69122314,-0.078125,-0.5,0.28125
1696244423736,-0.7043457,-0.09039307,-0.69854736,-0.265625,-0.25,0.359375
1696244423780,-0.70458984,-0.085998535,-0.6848755,0.046875,-0.390625,0.21875
1696244423819,-0.7036133,-0.081848145,-0.68927,0.3125,-0.4375,0.203125
1696244423880,-0.70703125,-0.08843994,-0.6934204,-0.03125,-0.03125,0.25
1696244423900,-0.70654297,-0.086242676,-0.7029419,-0.125,-0.390625,0.125
1696244423939,-0.7001953,-0.08648682,-0.6856079,-0.34375,0.359375,0.4375
1696244423981,-0.7026367,-0.089416504,-0.6939087,0.015625,-0.578125,0.25
1696244424016,-0.7133789,-0.08526611,-0.69317627,0.234375,-0.40625,0.140625
1696244424058,-0.70654297,-0.0881958,-0.6968384,-0.109375,-0.375,0.234375
1696244424100,-0.701416,-0.0881958,-0.6914673,0.015625,0.078125,0.3125
1696244424140,-0.70703125,-0.089660645,-0.68927,0.078125,-0.0625,0.203125
1696244424178,-0.7077637,-0.090148926,-0.70025635,0.046875,-0.484375,0.234375
1696244424217,-0.71362305,-0.08526611,-0.69073486,-0.09375,0.203125,0.34375
1696244424257,-0.70336914,-0.093322754,-0.6851196,0.15625,-0.359375,0.28125
1696244424298,-0.70092773,-0.0869751,-0.69415283,0.078125,-0.46875,0.3125
1696244424337,-0.7102051,-0.08795166,-0.6865845,0.1875,-0.171875,0.1875
1696244424378,-0.71435547,-0.089904785,-0.69244385,0.046875,-0.0625,0.203125
1696244424416,-0.7109375,-0.09210205,-0.69244385,-0.109375,0.203125,0.453125
1696244424456,-0.70874023,-0.08477783,-0.68927,-0.140625,0.078125,0.40625
1696244424496,-0.71240234,-0.09161377,-0.6873169,-0.234375,-0.21875,0.484375
1696244424538,-0.71362305,-0.08892822,-0.6890259,-0.21875,0.109375,0.375
1696244424578,-0.7121582,-0.0881958,-0.68756104,-0.125,-0.140625,0.28125
1696244424619,-0.7116699,-0.090148926,-0.69537354,0.015625,-0.5,0.203125
1696244424658,-0.7036133,-0.09210205,-0.68878174,0.015625,-0.609375,0.234375
1696244424722,-0.7150879,-0.09234619,-0.6921997,-0.890625,0.859375,0.3125
1696244424736,-0.7072754,-0.093322754,-0.6795044,-0.078125,0.03125,0.21875
1696244424757,-0.71191406,-0.09429932,-0.68878174,0.015625,-0.3125,0.15625
1696244424861,-0.7141113,-0.08404541,-0.6856079,-0.09375,-0.1875,0.203125
1696244424865,-0.7138672,-0.08892822,-0.6795044,-0.03125,-0.078125,0.265625
1696244424876,-0.7116699,-0.08746338,-0.6836548,0.03125,-0.28125,0.171875
1696244424917,-0.7067871,-0.09063721,-0.6760864,0.078125,-0.1875,0.234375
1696244424959,-0.7104492,-0.093322754,-0.690979,-0.1875,-0.046875,0.296875
1696244425019,-0.72216797,-0.094055176,-0.6843872,0.0625,-0.171875,0.1875
1696244425036,-0.7077637,-0.09185791,-0.6790161,0.09375,-0.46875,0.265625
1696244425079,-0.71240234,-0.08770752,-0.68878174,-0.09375,-0.28125,0.125
1696244425140,-0.7192383,-0.09161377,-0.6843872,-0.046875,-0.3125,0.21875
1696244425157,-0.71313477,-0.09234619,-0.6856079,-0.078125,-0.296875,0.078125
1696244425198,-0.7133789,-0.08892822,-0.6843872,-0.109375,-0.203125,0.171875
1696244425236,-0.7194824,-0.09259033,-0.6880493,-0.171875,0.046875,0.484375
