# Sensor type: Respeck
# Activity type: Lying down back
# Activity subtype: Hyperventilating
# Subject id: s2104454
# Notes: unprocessed
timestamp,accel_x,accel_y,accel_z,gyro_x,gyro_y,gyro_z
1696245790783,-0.7072754,-0.06573486,0.7782593,-0.578125,-0.453125,0.125
1696245790803,-0.7307129,-0.05718994,0.78289795,-0.140625,-0.984375,0.03125
1696245790842,-0.72998047,-0.06793213,0.7909546,-0.046875,-0.328125,0.625
1696245790884,-0.7290039,-0.06915283,0.78167725,-1.0625,0.015625,0.28125
1696245790923,-0.71606445,-0.047668457,0.7970581,-1.109375,0.78125,-0.5625
1696245790963,-0.7182617,-0.053771973,0.81536865,-0.203125,3.75,0.453125
1696245791004,-0.72753906,-0.07183838,0.82025146,1.15625,6.390625,2.78125
1696245791044,-0.69677734,-0.07305908,0.7675171,1.609375,4.578125,2.875
1696245791104,-0.69921875,-0.057434082,0.7880249,1.125,1.578125,1.125
1696245791124,-0.6972656,-0.06524658,0.8065796,0.75,1.40625,0.671875
1696245791164,-0.69311523,-0.07598877,0.79559326,-0.140625,0.84375,-0.296875
1696245791204,-0.70654297,-0.06085205,0.7975464,-0.546875,0.171875,-0.578125
1696245791244,-0.7011719,-0.05596924,0.80218506,-0.59375,0.203125,-0.484375
1696245791284,-0.69921875,-0.066467285,0.8036499,-0.328125,0.09375,-0.234375
1696245791324,-0.69433594,-0.08062744,0.8070679,-0.46875,-0.03125,-0.375
1696245791364,-0.6933594,-0.07745361,0.80584717,-1.234375,0.21875,-0.703125
1696245791429,-0.69311523,-0.06011963,0.7987671,-1.3125,0.40625,-0.796875
1696245791444,-0.70288086,-0.054504395,0.8151245,-0.59375,0.109375,-0.34375
1696245791506,-0.7001953,-0.043273926,0.82147217,-1.296875,0.359375,-0.5
1696245791545,-0.6879883,-0.04840088,0.81121826,-1.078125,1.171875,-0.484375
1696245791549,-0.704834,-0.06549072,0.8329468,0.0625,1.125,-0.0625
1696245791585,-0.67456055,-0.05987549,0.793396,-1.1875,-0.046875,-1.140625
1696245791624,-0.6882324,-0.043762207,0.8102417,-0.609375,-1.03125,-1.40625
1696245791664,-0.6906738,-0.028381348,0.79730225,-0.109375,-2.078125,-0.71875
1696245791705,-0.6904297,-0.024230957,0.7941284,0.0625,-3.03125,0.328125
1696245791744,-0.6887207,-0.039123535,0.7963257,-0.1875,-5.734375,0.265625
1696245791784,-0.689209,-0.047424316,0.77020264,-1.671875,-9.328125,-0.046875
1696245791827,-0.70825195,-0.04449463,0.78900146,-1.4375,-9.375,-0.09375
1696245791864,-0.72558594,-0.051330566,0.789978,-0.390625,-5.5625,0.34375
1696245791904,-0.7175293,-0.051086426,0.77948,-0.8125,-4.1875,-0.15625
1696245791944,-0.72924805,-0.042785645,0.79559326,-0.046875,-2.96875,-0.328125
1696245791984,-0.73291016,-0.043273926,0.78045654,0.140625,-1.875,-0.296875
1696245792024,-0.73413086,-0.043762207,0.7770386,1.03125,-1.234375,0.578125
1696245792065,-0.73339844,-0.055236816,0.7826538,1.25,-0.90625,0.59375
1696245792104,-0.7390137,-0.055480957,0.7850952,1.40625,-0.4375,0.546875
1696245792146,-0.71533203,-0.054260254,0.7658081,-0.078125,1.09375,-0.140625
1696245792184,-0.72875977,-0.04498291,0.77874756,0.71875,0.265625,0.6875
1696245792225,-0.7277832,-0.040100098,0.7748413,0.34375,0.4375,0.390625
1696245792265,-0.7438965,-0.054260254,0.7977905,1.5625,0.046875,1.03125
1696245792304,-0.73583984,-0.077941895,0.7953491,0.75,1.0,1.203125
1696245792345,-0.73095703,-0.0569458,0.7897339,-0.3125,1.25,0.84375
1696245792384,-0.72631836,-0.06524658,0.8151245,-1.1875,3.8125,1.28125
1696245792424,-0.71972656,-0.06036377,0.7953491,-1.65625,3.265625,0.203125
1696245792466,-0.7229004,-0.050109863,0.7999878,-0.84375,4.21875,0.671875
1696245792504,-0.7175293,-0.050842285,0.81243896,0.109375,5.703125,1.09375
1696245792545,-0.72265625,-0.06036377,0.84832764,3.5,7.515625,3.171875
1696245792585,-0.69750977,-0.08453369,0.8156128,5.71875,12.625,5.046875
1696245792625,-0.66503906,-0.06842041,0.79974365,7.671875,7.546875,2.90625
1696245792665,-0.6611328,-0.06329346,0.77801514,4.0,3.34375,1.484375
1696245792704,-0.6647949,-0.07525635,0.8270874,2.640625,2.75,0.6875
1696245792744,-0.65649414,-0.09039307,0.8161011,1.484375,1.5,-0.09375
1696245792783,-0.6689453,-0.08673096,0.8361206,0.359375,1.40625,-0.546875
1696245792844,-0.66967773,-0.08673096,0.83392334,0.0625,0.140625,-0.46875
1696245792847,-0.6464844,-0.09210205,0.821228,-1.203125,0.953125,-0.734375
1696245792884,-0.64624023,-0.09283447,0.8041382,-1.625,-1.15625,-1.140625
1696245792986,-0.6682129,-0.08746338,0.83709717,-1.109375,-2.015625,-1.234375
1696245792993,-0.66308594,-0.08087158,0.8148804,-1.625,-3.265625,-1.296875
1696245793004,-0.6711426,-0.058654785,0.80999756,-3.0,-5.75,-1.625
1696245793044,-0.67578125,-0.05279541,0.80218506,-3.234375,-6.953125,-1.140625
1696245793085,-0.6682129,-0.05328369,0.7914429,-3.609375,-9.4375,-0.875
1696245793126,-0.6816406,-0.07330322,0.795105,-3.09375,-10.703125,-0.5625
1696245793164,-0.71118164,-0.069885254,0.79974365,-1.734375,-9.203125,0.15625
1696245793204,-0.7043457,-0.06402588,0.79022217,-2.9375,-6.8125,-0.4375
1696245793243,-0.7182617,-0.050598145,0.79681396,-2.84375,-5.234375,-0.953125
1696245793283,-0.72924805,-0.05206299,0.7921753,-2.453125,-4.5625,-0.9375
1696245793324,-0.73413086,-0.039367676,0.7938843,-1.25,-3.296875,-0.53125
1696245793393,-0.7385254,-0.038391113,0.78533936,-0.34375,-2.046875,-0.09375
1696245793404,-0.7307129,-0.045959473,0.77557373,0.4375,-1.3125,-0.03125
1696245793445,-0.72509766,-0.054260254,0.7765503,0.796875,-1.4375,0.265625
1696245793486,-0.7351074,-0.054260254,0.7814331,0.84375,-0.78125,0.375
1696245793524,-0.7265625,-0.043762207,0.77801514,0.875,-0.265625,0.53125
1696245793566,-0.74194336,-0.040100098,0.79119873,1.046875,0.046875,1.140625
1696245793603,-0.72094727,-0.04473877,0.7682495,-0.109375,1.09375,0.609375
1696245793644,-0.7319336,-0.046936035,0.7826538,0.828125,-0.140625,0.953125
1696245793685,-0.73291016,-0.07208252,0.7938843,0.734375,0.0625,0.609375
1696245793724,-0.7277832,-0.062805176,0.78533936,-0.140625,0.796875,0.734375
1696245793765,-0.7319336,-0.057922363,0.79901123,-0.828125,2.1875,0.515625
1696245793807,-0.72314453,-0.065979004,0.7941284,-1.453125,3.265625,0.25
1696245793845,-0.7270508,-0.05670166,0.8200073,-0.453125,2.828125,0.421875
1696245793885,-0.7207031,-0.042053223,0.7999878,-1.3125,3.6875,0.234375
1696245793925,-0.7084961,-0.051086426,0.80267334,0.28125,3.15625,0.28125
1696245793966,-0.7023926,-0.06109619,0.7987671,0.71875,3.84375,0.9375
1696245794006,-0.69384766,-0.055236816,0.789978,0.3125,2.4375,0.5625
1696245794046,-0.70166016,-0.04864502,0.79486084,0.453125,1.28125,-0.28125
1696245794084,-0.6948242,-0.04522705,0.80340576,0.421875,2.09375,0.15625
1696245794146,-0.6982422,-0.05596924,0.8016968,0.15625,1.46875,-0.078125
1696245794163,-0.69750977,-0.057922363,0.80462646,-0.4375,1.40625,-0.265625
1696245794183,-0.6906738,-0.05303955,0.81414795,0.0,1.1875,-0.375
1696245794245,-0.68652344,-0.05596924,0.81292725,-0.171875,0.9375,-0.421875
1696245794263,-0.68310547,-0.054260254,0.80584717,-0.96875,1.1875,-0.640625
1696245794306,-0.6796875,-0.034973145,0.79022217,-0.203125,0.15625,-0.671875
1696245794345,-0.68969727,-0.053527832,0.8265991,0.265625,0.40625,-0.46875
1696245794404,-0.68603516,-0.057678223,0.8085327,-0.484375,0.03125,-0.21875
1696245794452,-0.6809082,-0.035949707,0.80462646,-1.09375,-1.34375,-0.78125
1696245794464,-0.69384766,-0.02545166,0.81073,-0.71875,-3.28125,-1.234375
1696245794503,-0.6887207,-0.024963379,0.7909546,-0.40625,-4.0625,-0.203125
1696245794545,-0.6772461,-0.029846191,0.7953491,0.3125,-4.5625,0.46875
1696245794587,-0.6899414,-0.055236816,0.7904663,1.1875,-5.84375,1.296875
1696245794625,-0.6899414,-0.04840088,0.7748413,-0.015625,-6.0,0.703125
1696245794665,-0.7145996,-0.03668213,0.7970581,0.34375,-6.25,0.640625
1696245794706,-0.72094727,-0.046936035,0.7999878,0.265625,-4.625,0.5
1696245794766,-0.7175293,-0.043273926,0.79608154,-0.34375,-4.25,-0.140625
1696245794807,-0.7246094,-0.04473877,0.7838745,-0.828125,-3.546875,-0.421875
1696245794823,-0.7248535,-0.039855957,0.7875366,-0.328125,-2.046875,0.25
1696245794866,-0.72509766,-0.054260254,0.77801514,0.25,-1.640625,0.953125
1696245794905,-0.7294922,-0.053527832,0.7675171,0.4375,-1.09375,0.484375
1696245794966,-0.73828125,-0.050598145,0.78411865,0.984375,-0.953125,0.453125
1696245795006,-0.7319336,-0.04058838,0.77215576,0.25,-0.078125,0.71875
1696245795023,-0.72680664,-0.043518066,0.7692261,0.375,0.421875,1.140625
1696245795065,-0.7409668,-0.038635254,0.77874756,0.640625,-0.296875,0.9375
1696245795105,-0.7426758,-0.061340332,0.79119873,1.296875,-0.1875,0.796875
1696245795148,-0.7207031,-0.06304932,0.7826538,0.34375,0.375,0.46875
1696245795206,-0.71069336,-0.051574707,0.7821655,0.375,-0.03125,0.1875
1696245795224,-0.7229004,-0.05255127,0.7819214,0.578125,0.046875,0.875
1696245795266,-0.73168945,-0.05718994,0.7921753,0.109375,0.5625,1.078125
1696245795326,-0.7290039,-0.07989502,0.79315186,-1.40625,2.921875,0.859375
1696245795343,-0.7338867,-0.06524658,0.81658936,-2.0,3.09375,0.046875
1696245795385,-0.7416992,-0.05279541,0.83026123,-0.390625,3.96875,0.734375
1696245795425,-0.72802734,-0.059631348,0.80926514,1.671875,6.1875,2.359375
1696245795465,-0.69384766,-0.05255127,0.7650757,2.296875,4.609375,1.65625
1696245795486,-0.689209,-0.049865723,0.79681396,2.765625,3.984375,1.390625
1696245795525,-0.6855469,-0.070129395,0.7868042,2.609375,2.84375,1.046875
1696245795565,-0.6911621,-0.08258057,0.80218506,1.703125,2.75,0.390625
1696245795604,-0.68847656,-0.06329346,0.8095093,0.671875,1.78125,-0.296875
1696245795644,-0.6911621,-0.06427002,0.805603,-0.515625,1.578125,-0.625
1696245795685,-0.6923828,-0.0647583,0.81365967,-0.21875,1.375,-0.328125
1696245795723,-0.68652344,-0.077941895,0.82562256,-0.34375,1.046875,-0.484375
1696245795767,-0.6821289,-0.07501221,0.8185425,-0.84375,0.5,-0.765625
1696245795806,-0.66674805,-0.058898926,0.8004761,-0.71875,0.15625,-0.828125
1696245795844,-0.6694336,-0.055725098,0.8114624,-1.171875,0.078125,-1.34375
1696245795885,-0.68896484,-0.069885254,0.821228,-0.53125,-1.203125,-0.5
1696245795924,-0.6760254,-0.066467285,0.8065796,-1.703125,-1.890625,-0.875
1696245795966,-0.69750977,-0.05230713,0.8197632,-1.296875,-2.65625,-1.03125
1696245796008,-0.6855469,-0.035705566,0.8161011,-1.0,-3.5625,-0.484375
1696245796044,-0.6826172,-0.03277588,0.80218506,0.28125,-3.90625,0.03125
1696245796084,-0.69311523,-0.061340332,0.79803467,0.984375,-5.234375,0.828125
1696245796125,-0.68774414,-0.06011963,0.7914429,1.03125,-6.78125,1.0
1696245796165,-0.70288086,-0.0569458,0.78338623,-0.953125,-4.765625,1.140625
1696245796204,-0.70654297,-0.05621338,0.7860718,-1.109375,-4.484375,0.453125
1696245796244,-0.7060547,-0.057922363,0.79974365,-0.875,-6.078125,-0.421875
1696245796285,-0.7241211,-0.0491333,0.7992554,-1.453125,-4.0625,0.171875
1696245796324,-0.7211914,-0.050354004,0.7819214,-0.78125,-2.453125,0.328125
1696245796369,-0.7253418,-0.04888916,0.7711792,-0.5625,-2.234375,0.546875
1696245796407,-0.7097168,-0.062072754,0.7706909,0.015625,-2.515625,0.171875
1696245796445,-0.72436523,-0.06329346,0.7821655,-0.421875,-1.5625,0.09375
1696245796486,-0.7324219,-0.04864502,0.78289795,0.390625,-1.5,0.703125
1696245796528,-0.71728516,-0.046936035,0.75531006,-0.53125,0.53125,0.5625
1696245796566,-0.73339844,-0.055236816,0.79193115,0.515625,-0.609375,1.390625
1696245796606,-0.7270508,-0.058410645,0.7758179,-0.5,-0.390625,-0.03125
1696245796649,-0.73999023,-0.06817627,0.78460693,0.671875,-0.609375,0.515625
1696245796684,-0.72924805,-0.06378174,0.7772827,0.53125,0.015625,0.515625
1696245796726,-0.7216797,-0.05621338,0.7809448,0.296875,0.359375,0.65625
1696245796766,-0.72436523,-0.06573486,0.7880249,0.34375,0.875,0.78125
1696245796786,-0.72924805,-0.07086182,0.80511475,-0.234375,3.03125,1.203125
1696245796826,-0.7270508,-0.07672119,0.80633545,-0.421875,4.359375,0.703125
1696245796864,-0.7219238,-0.057922363,0.79559326,-1.078125,4.34375,0.234375
1696245796905,-0.7155762,-0.050354004,0.80633545,0.125,4.046875,0.015625
1696245796945,-0.7121582,-0.058654785,0.79022217,0.640625,3.015625,0.21875
1696245796984,-0.70532227,-0.054748535,0.8031616,1.21875,2.984375,0.40625
1696245797026,-0.69311523,-0.06402588,0.80145264,2.3125,4.484375,0.703125
1696245797087,-0.6945801,-0.062561035,0.805603,2.734375,3.28125,0.53125
1696245797104,-0.704834,-0.058898926,0.8065796,1.890625,2.578125,0.625
1696245797166,-0.68847656,-0.066711426,0.8121948,1.40625,2.1875,0.375
1696245797205,-0.68896484,-0.07208252,0.81292725,0.40625,2.0,-0.171875
1696245797223,-0.67456055,-0.06842041,0.80877686,-0.15625,0.984375,-0.484375
1696245797266,-0.6767578,-0.070617676,0.81951904,-0.046875,0.953125,-0.609375
1696245797309,-0.6816406,-0.07183838,0.8175659,-0.0625,-0.125,-0.796875
1696245797366,-0.6772461,-0.065979004,0.80804443,-0.65625,-0.359375,-0.578125
1696245797412,-0.6867676,-0.07159424,0.81463623,-0.90625,-0.5625,-0.484375
1696245797424,-0.68188477,-0.057678223,0.8258667,-1.328125,-0.703125,-0.90625
1696245797465,-0.68237305,-0.053527832,0.81243896,-1.078125,-1.1875,-1.140625
1696245797526,-0.69506836,-0.054504395,0.82440186,-0.328125,-3.40625,-0.078125
1696245797544,-0.6706543,-0.05230713,0.7843628,-0.796875,-3.984375,-0.015625
1696245797585,-0.6904297,-0.055725098,0.79681396,-0.4375,-6.921875,-0.09375
1696245797627,-0.6984863,-0.050109863,0.7926636,-0.90625,-7.578125,0.203125
1696245797688,-0.7011719,-0.043518066,0.7926636,0.015625,-6.296875,1.125
1696245797726,-0.7043457,-0.058898926,0.79071045,-0.265625,-5.765625,0.765625
1696245797743,-0.71313477,-0.06744385,0.7836304,-1.796875,-6.015625,-0.15625
1696245797785,-0.7138672,-0.058166504,0.7938843,-2.640625,-3.8125,-0.65625
1696245797826,-0.73779297,-0.046447754,0.78582764,-1.1875,-3.1875,-0.1875
1696245797887,-0.7294922,-0.05255127,0.7785034,-0.515625,-2.71875,0.375
1696245797926,-0.7260742,-0.04937744,0.78289795,-0.390625,-1.625,0.265625
1696245797943,-0.7312012,-0.054260254,0.77752686,0.109375,-1.359375,0.34375
1696245797987,-0.72753906,-0.049865723,0.7694702,0.390625,-0.265625,0.765625
1696245798049,-0.73876953,-0.04937744,0.7719116,0.375,-0.515625,0.90625
1696245798089,-0.7402344,-0.054016113,0.78045654,0.28125,-0.375,1.203125
1696245798125,-0.7355957,-0.054992676,0.7797241,0.375,-0.15625,0.546875
1696245798130,-0.7277832,-0.058410645,0.7797241,0.203125,0.0625,0.171875
1696245798164,-0.7290039,-0.06085205,0.7831421,0.5625,-0.078125,0.609375
1696245798207,-0.7207031,-0.061340332,0.7892456,-0.171875,0.65625,0.515625
1696245798245,-0.7233887,-0.062072754,0.79974365,0.625,0.328125,1.140625
1696245798285,-0.72265625,-0.061584473,0.7860718,-1.5625,2.234375,-0.109375
1696245798325,-0.7375488,-0.06719971,0.8143921,-0.640625,3.296875,0.421875
1696245798365,-0.7297363,-0.066711426,0.81707764,-0.140625,2.546875,0.59375
1696245798408,-0.7219238,-0.049621582,0.7921753,-0.078125,2.921875,1.125
1696245798445,-0.7121582,-0.046936035,0.793396,0.75,3.40625,0.796875
1696245798485,-0.69873047,-0.05621338,0.7855835,1.359375,3.25,0.984375
1696245798525,-0.703125,-0.066223145,0.8007202,1.546875,2.875,0.734375
1696245798565,-0.69970703,-0.06524658,0.7843628,1.796875,4.03125,0.921875
1696245798607,-0.6999512,-0.058410645,0.8060913,2.265625,4.453125,0.578125
1696245798649,-0.6923828,-0.06109619,0.8095093,1.53125,2.90625,0.53125
1696245798687,-0.68530273,-0.070129395,0.80462646,0.515625,2.125,0.109375
1696245798725,-0.6921387,-0.06768799,0.821228,0.8125,0.953125,-0.28125
1696245798765,-0.6801758,-0.06768799,0.81292725,0.328125,1.609375,-0.578125
1696245798804,-0.6694336,-0.06744385,0.8095093,0.53125,0.6875,-0.4375
1696245798846,-0.67749023,-0.07159424,0.8097534,-0.328125,-0.015625,-0.625
1696245798885,-0.67944336,-0.061584473,0.8109741,-0.671875,-0.828125,-0.53125
1696245798926,-0.6789551,-0.06549072,0.81243896,-0.4375,-2.40625,-0.75
1696245798965,-0.6887207,-0.057434082,0.8139038,-0.78125,-3.640625,-0.484375
1696245799006,-0.6816406,-0.04937744,0.7965698,-0.671875,-4.28125,-0.21875
1696245799045,-0.6936035,-0.057678223,0.7958374,0.5,-7.046875,0.640625
1696245799087,-0.68896484,-0.06329346,0.78704834,-1.171875,-6.0625,0.796875
1696245799125,-0.69921875,-0.061828613,0.78582764,-1.515625,-6.640625,0.65625
1696245799165,-0.71118164,-0.05987549,0.79974365,-1.34375,-4.640625,-0.046875
1696245799204,-0.7072754,-0.06378174,0.805603,-0.6875,-4.515625,0.09375
1696245799246,-0.7175293,-0.06085205,0.7887573,-1.671875,-4.4375,0.375
1696245799284,-0.7429199,-0.04473877,0.77923584,-1.359375,-3.40625,0.234375
1696245799325,-0.7380371,-0.0491333,0.78460693,-0.125,-2.046875,0.390625
1696245799364,-0.71899414,-0.065979004,0.77386475,0.03125,-1.203125,0.125
1696245799406,-0.7182617,-0.070617676,0.7692261,-0.125,-1.1875,0.25
1696245799424,-0.7180176,-0.058410645,0.77337646,-0.65625,-0.53125,0.109375
1696245799465,-0.73291016,-0.043029785,0.77752686,-0.40625,-0.34375,0.21875
1696245799506,-0.74121094,-0.055725098,0.7855835,-0.015625,-0.3125,0.40625
1696245799545,-0.7211914,-0.05718994,0.78411865,-0.421875,0.125,0.171875
1696245799584,-0.7236328,-0.058654785,0.7821655,-0.359375,-0.078125,-0.140625
1696245799625,-0.71728516,-0.059631348,0.78948975,-0.03125,0.296875,0.125
1696245799665,-0.72387695,-0.062561035,0.7863159,-0.125,0.609375,0.8125
1696245799706,-0.7277832,-0.07110596,0.7885132,-0.734375,1.15625,0.296875
1696245799767,-0.7248535,-0.06719971,0.79803467,-1.015625,2.484375,0.359375
1696245799783,-0.7150879,-0.050842285,0.78900146,-1.5625,1.984375,-0.25
1696245799824,-0.72387695,-0.03668213,0.79315186,-1.5,1.578125,-0.578125
1696245799864,-0.72094727,-0.045715332,0.7875366,-0.609375,1.40625,-0.34375
1696245799924,-0.7080078,-0.051574707,0.80218506,-0.546875,1.46875,-0.515625
1696245799945,-0.6948242,-0.055480957,0.7797241,-1.5,1.15625,-1.03125
1696245800005,-0.70288086,-0.035217285,0.78240967,-0.828125,1.8125,-0.296875
1696245800022,-0.71313477,-0.042541504,0.8156128,0.578125,2.15625,0.171875
1696245800086,-0.7150879,-0.05303955,0.8114624,0.953125,3.015625,0.546875
1696245800104,-0.7026367,-0.057434082,0.7970581,0.578125,2.84375,0.171875
1696245800145,-0.7067871,-0.043273926,0.8500366,3.484375,8.15625,1.078125
1696245800187,-0.6904297,-0.05328369,0.7977905,5.25,7.328125,1.765625
1696245800226,-0.67285156,-0.03668213,0.807312,4.421875,2.625,1.015625
1696245800286,-0.67333984,-0.066223145,0.82196045,4.359375,2.265625,1.578125
1696245800303,-0.6479492,-0.08477783,0.79901123,1.0,0.65625,-0.375
1696245800368,-0.6660156,-0.06011963,0.8168335,-0.03125,-0.609375,-0.578125
1696245800384,-0.6755371,-0.04937744,0.81463623,0.0625,-1.328125,0.046875
1696245800449,-0.6777344,-0.058654785,0.81170654,0.078125,-3.5625,-0.140625
1696245800463,-0.67700195,-0.0635376,0.80096436,-0.546875,-4.421875,-0.28125
1696245800505,-0.6804199,-0.070373535,0.7843628,0.046875,-7.03125,0.578125
1696245800566,-0.6870117,-0.06964111,0.79022217,-1.3125,-9.28125,0.765625
1696245800584,-0.6970215,-0.07696533,0.7982788,-1.890625,-4.234375,0.375
1696245800625,-0.69555664,-0.069885254,0.7929077,-3.0,-6.515625,-0.734375
1696245800665,-0.7050781,-0.039123535,0.7975464,-3.21875,-7.015625,-0.25
1696245800705,-0.7368164,-0.043029785,0.7982788,-2.15625,-5.75,-0.140625
1696245800725,-0.72998047,-0.065979004,0.8053589,-1.78125,-2.890625,-0.703125
1696245800765,-0.7150879,-0.05987549,0.79071045,-0.6875,-2.359375,-0.203125
1696245800827,-0.7116699,-0.054016113,0.7723999,-1.390625,-1.0,-0.765625
1696245800844,-0.7336426,-0.050109863,0.7802124,-0.15625,-2.046875,0.578125
1696245800885,-0.7351074,-0.05255127,0.7802124,-0.0625,-1.125,0.75
1696245800926,-0.7392578,-0.046447754,0.7748413,-0.34375,-0.3125,0.75
1696245800978,-0.73217773,-0.055725098,0.7821655,0.53125,0.34375,0.5
1696245801005,-0.7270508,-0.04547119,0.7848511,0.5625,0.1875,0.875
1696245801045,-0.7285156,-0.05279541,0.78778076,0.625,-0.234375,0.515625
1696245801085,-0.7260742,-0.061584473,0.7821655,0.3125,0.328125,0.625
1696245801129,-0.7265625,-0.06060791,0.7872925,-0.25,0.984375,0.4375
1696245801171,-0.72021484,-0.0725708,0.8019409,-0.65625,2.921875,0.390625
1696245801205,-0.72509766,-0.066223145,0.789978,-1.234375,3.5625,1.015625
1696245801246,-0.7236328,-0.039367676,0.7872925,-1.140625,0.859375,-0.140625
1696245801285,-0.72387695,-0.043762207,0.79803467,-0.359375,2.015625,0.203125
1696245801328,-0.70458984,-0.05621338,0.8007202,0.359375,1.609375,0.28125
1696245801364,-0.7133789,-0.0635376,0.80218506,0.359375,1.75,0.34375
1696245801405,-0.7089844,-0.06524658,0.79852295,0.609375,2.515625,0.53125
1696245801445,-0.6999512,-0.05279541,0.78778076,0.875,2.640625,0.34375
1696245801485,-0.6982422,-0.049865723,0.8012085,0.96875,1.984375,0.34375
1696245801525,-0.69873047,-0.054260254,0.8036499,1.03125,2.09375,0.578125
1696245801566,-0.70410156,-0.059387207,0.8016968,1.390625,1.0625,0.21875
1696245801603,-0.70043945,-0.062561035,0.81048584,0.375,1.578125,0.234375
1696245801645,-0.67944336,-0.046203613,0.7963257,0.40625,0.453125,0.1875
1696245801685,-0.6875,-0.05328369,0.81658936,0.515625,0.796875,-0.4375
1696245801724,-0.68847656,-0.06866455,0.8251343,0.96875,0.328125,0.21875
1696245801767,-0.6804199,-0.055725098,0.7941284,-0.46875,-0.78125,-0.453125
1696245801805,-0.6933594,-0.055236816,0.807312,-0.4375,-0.796875,-0.65625
1696245801845,-0.6916504,-0.05206299,0.81073,-0.390625,-1.109375,-0.625
1696245801885,-0.69140625,-0.046203613,0.8041382,-0.078125,-2.390625,-0.28125
1696245801931,-0.6906738,-0.051086426,0.79559326,0.15625,-3.296875,-0.078125
1696245801965,-0.68603516,-0.05670166,0.7914429,0.640625,-3.1875,0.625
1696245802004,-0.6916504,-0.059143066,0.78826904,1.109375,-2.296875,1.125
1696245802045,-0.69799805,-0.06451416,0.79437256,1.8125,-2.625,1.5
1696245802064,-0.6989746,-0.06304932,0.7938843,0.671875,-1.53125,1.515625
1696245802105,-0.6994629,-0.059387207,0.7880249,-1.234375,-3.640625,0.203125
1696245802166,-0.71069336,-0.061828613,0.793396,-2.171875,-5.9375,-0.75
1696245802205,-0.72387695,-0.04937744,0.79437256,-1.703125,-3.953125,0.34375
1696245802224,-0.717041,-0.0635376,0.79437256,-1.53125,-3.421875,-0.078125
1696245802288,-0.71850586,-0.07281494,0.78240967,-0.984375,-2.71875,-0.765625
1696245802303,-0.7163086,-0.06451416,0.7692261,-1.75,-1.328125,-1.09375
1696245802344,-0.7338867,-0.05303955,0.79071045,-0.265625,-1.03125,0.09375
1696245802385,-0.7285156,-0.053771973,0.7994995,0.015625,0.0,1.25
1696245802427,-0.73046875,-0.04473877,0.7875366,0.15625,-1.6875,1.46875
1696245802477,-0.7216797,-0.04815674,0.7682495,-0.6875,-0.65625,-0.546875
1696245802504,-0.7260742,-0.04937744,0.793396,0.234375,-1.59375,-0.125
1696245802545,-0.72558594,-0.058898926,0.7838745,0.203125,-0.625,0.28125
1696245802604,-0.7233887,-0.054748535,0.7736206,0.078125,-0.421875,0.421875
1696245802647,-0.7229004,-0.05230713,0.7855835,-0.09375,0.09375,0.25
1696245802684,-0.7277832,-0.070373535,0.7970581,-0.109375,2.125,1.03125
1696245802704,-0.73876953,-0.078430176,0.81073,-0.234375,4.765625,1.140625
1696245802744,-0.71606445,-0.06744385,0.7926636,-0.609375,4.9375,0.5625
1696245802785,-0.7314453,-0.054504395,0.8065796,1.4375,3.453125,0.25
1696245802823,-0.7219238,-0.062316895,0.8134155,3.171875,3.375,2.15625
1696245802864,-0.69628906,-0.06842041,0.78656006,1.53125,2.09375,1.421875
1696245802905,-0.6904297,-0.059631348,0.7826538,0.28125,0.984375,0.40625
1696245802968,-0.6850586,-0.06939697,0.7826538,-0.421875,1.046875,-0.734375
1696245802983,-0.6855469,-0.058654785,0.80389404,-0.375,1.21875,-0.578125
1696245803027,-0.7011719,-0.05987549,0.81365967,-0.4375,0.625,-0.265625
1696245803068,-0.7067871,-0.062561035,0.8048706,-0.984375,0.546875,-0.296875
1696245803127,-0.69555664,-0.061584473,0.8036499,-1.125,0.109375,-0.359375
1696245803145,-0.6921387,-0.0635376,0.81903076,-0.828125,0.09375,-0.765625
1696245803184,-0.68237305,-0.05279541,0.805603,-0.859375,-0.34375,-0.96875
1696245803225,-0.6940918,-0.04547119,0.7994995,-0.328125,-1.0,-0.671875
1696245803265,-0.69555664,-0.04473877,0.8085327,0.109375,-0.703125,-0.203125
1696245803325,-0.6882324,-0.055725098,0.809021,-0.4375,-0.28125,-0.078125
1696245803344,-0.6826172,-0.03741455,0.7926636,0.03125,-1.6875,-0.046875
1696245803364,-0.689209,-0.046203613,0.80145264,-0.1875,-2.5,-0.203125
1696245803405,-0.69506836,-0.050109863,0.7965698,0.703125,-3.453125,0.4375
1696245803445,-0.6933594,-0.057922363,0.7880249,1.15625,-3.328125,1.140625
1696245803485,-0.7092285,-0.04473877,0.77557373,0.96875,-4.515625,1.25
1696245803525,-0.70654297,-0.043518066,0.77801514,0.65625,-4.859375,0.765625
1696245803572,-0.7006836,-0.061340332,0.793396,0.109375,-3.9375,0.21875
1696245803606,-0.7167969,-0.05987549,0.79901123,-0.953125,-3.125,0.015625
1696245803644,-0.7253418,-0.059387207,0.7938843,-0.484375,-2.859375,0.390625
1696245803685,-0.7199707,-0.04547119,0.78778076,-1.53125,-3.1875,-0.1875
1696245803725,-0.7307129,-0.054260254,0.793396,-0.609375,-2.859375,-0.171875
1696245803764,-0.72314453,-0.07208252,0.7838745,-0.84375,-2.109375,-0.078125
1696245803805,-0.72753906,-0.049621582,0.7748413,-0.15625,-1.390625,0.109375
1696245803846,-0.7373047,-0.045959473,0.7819214,0.375,-0.65625,0.75
1696245803886,-0.73046875,-0.047912598,0.77508545,0.71875,0.15625,1.421875
1696245803924,-0.732666,-0.06011963,0.7802124,-0.09375,-0.15625,0.53125
1696245803965,-0.732666,-0.059631348,0.78411865,-0.140625,-0.3125,0.28125
1696245804006,-0.7224121,-0.057434082,0.77996826,-0.234375,0.375,0.171875
1696245804045,-0.7211914,-0.05303955,0.7850952,0.375,1.03125,0.65625
1696245804085,-0.7224121,-0.066711426,0.7965698,0.296875,2.84375,0.953125
1696245804126,-0.73046875,-0.078430176,0.80999756,0.546875,3.875,1.125
1696245804165,-0.7141113,-0.06451416,0.8175659,-0.046875,4.25,0.71875
1696245804207,-0.72924805,-0.054016113,0.7977905,-1.015625,1.796875,0.125
1696245804244,-0.70458984,-0.04522705,0.7814331,-1.34375,1.875,-0.734375
1696245804285,-0.72216797,-0.04888916,0.8082886,0.640625,1.984375,0.484375
1696245804324,-0.6916504,-0.07525635,0.7831421,-0.96875,1.578125,-0.34375
1696245804364,-0.69873047,-0.054016113,0.78948975,-0.84375,1.375,-0.078125
1696245804407,-0.69189453,-0.043518066,0.79681396,-0.28125,1.296875,-0.5
1696245804445,-0.7011719,-0.045959473,0.8041382,-0.109375,0.734375,-0.109375
1696245804485,-0.6972656,-0.04498291,0.80511475,-0.328125,0.78125,0.078125
1696245804524,-0.6958008,-0.05645752,0.8085327,0.21875,0.9375,-0.03125
1696245804565,-0.6867676,-0.04888916,0.805603,-0.65625,0.84375,-0.6875
1696245804605,-0.689209,-0.045715332,0.8065796,-0.75,0.109375,-0.515625
1696245804645,-0.6921387,-0.044006348,0.80096436,-0.3125,-0.453125,-0.59375
1696245804685,-0.6953125,-0.037902832,0.80804443,-0.5,-1.03125,-0.640625
1696245804704,-0.68603516,-0.038146973,0.8004761,-0.53125,-1.859375,-0.5625
1696245804767,-0.6904297,-0.042785645,0.7994995,-0.359375,-2.296875,-0.4375
1696245804805,-0.6906738,-0.03253174,0.79730225,0.171875,-2.3125,0.046875
1696245804825,-0.69506836,-0.039123535,0.7855835,1.109375,-3.59375,0.453125
1696245804887,-0.69750977,-0.04937744,0.7758179,2.453125,-5.859375,1.75
1696245804904,-0.7138672,-0.050109863,0.7807007,1.6875,-4.734375,2.078125
1696245804944,-0.717041,-0.047180176,0.7850952,0.9375,-3.15625,0.71875
1696245804986,-0.6989746,-0.06451416,0.791687,0.78125,-3.515625,0.5625
1696245805027,-0.7302246,-0.042297363,0.80633545,-1.046875,-3.390625,0.375
1696245805064,-0.7219238,-0.046691895,0.7872925,-0.546875,-2.109375,0.640625
1696245805105,-0.7236328,-0.055725098,0.78656006,0.15625,-1.9375,1.03125
1696245805145,-0.7248535,-0.07501221,0.7875366,0.328125,-1.859375,0.53125
1696245805185,-0.72509766,-0.06744385,0.77557373,-0.421875,-1.640625,0.15625
1696245805227,-0.7368164,-0.04156494,0.77093506,0.109375,-1.1875,0.484375
1696245805264,-0.73217773,-0.042053223,0.777771,0.546875,-0.078125,0.921875
1696245805305,-0.73046875,-0.054992676,0.7687378,0.125,0.1875,1.15625
1696245805345,-0.7302246,-0.06695557,0.7843628,-0.09375,0.203125,0.75
1696245805386,-0.71777344,-0.061828613,0.7850952,-0.703125,0.53125,-0.03125
1696245805425,-0.72387695,-0.06451416,0.7953491,-0.5,1.328125,0.1875
1696245805488,-0.7182617,-0.06573486,0.795105,0.296875,1.03125,0.75
1696245805504,-0.72387695,-0.0647583,0.79852295,0.03125,1.65625,0.421875
1696245805544,-0.7258301,-0.07550049,0.81365967,0.359375,3.4375,1.109375
1696245805608,-0.7211914,-0.06768799,0.79974365,-0.0625,3.578125,0.390625
1696245805645,-0.71533203,-0.05987549,0.8004761,-0.4375,2.671875,0.21875
1696245805666,-0.7109375,-0.059387207,0.8019409,0.125,2.984375,0.34375
1696245805705,-0.70288086,-0.054260254,0.8102417,0.0,1.5625,-0.296875
1696245805745,-0.69262695,-0.0569458,0.7963257,-0.921875,1.140625,-0.765625
1696245805786,-0.6977539,-0.058166504,0.7982788,-1.21875,0.515625,-0.859375
1696245805846,-0.7001953,-0.059387207,0.81073,-2.09375,0.5625,-1.5
1696245805865,-0.7038574,-0.042297363,0.80584717,-1.1875,1.03125,-1.03125
1696245805906,-0.68652344,-0.05255127,0.79437256,-0.921875,0.84375,-1.0
1696245805946,-0.7102051,-0.04083252,0.83636475,-0.171875,0.625,-0.203125
1696245806009,-0.6882324,-0.043273926,0.80755615,-1.546875,0.6875,-1.390625
1696245806013,-0.69677734,-0.046203613,0.81781006,-0.9375,-0.5,-0.84375
1696245806045,-0.6777344,-0.043518066,0.7982788,-2.140625,-0.015625,-1.15625
1696245806086,-0.69091797,-0.028625488,0.80804443,-1.734375,-1.203125,-1.046875
1696245806126,-0.6999512,-0.025939941,0.8016968,-1.296875,-0.859375,-0.796875
1696245806168,-0.69091797,-0.023498535,0.81170654,-0.140625,-1.046875,-0.1875
1696245806204,-0.69799805,-0.02178955,0.8041382,0.015625,-2.578125,-0.125
1696245806245,-0.68188477,-0.026428223,0.7843628,0.125,-3.859375,0.03125
1696245806287,-0.69628906,-0.024719238,0.79730225,1.3125,-4.9375,0.625
1696245806325,-0.7062988,-0.03326416,0.7843628,1.84375,-5.15625,1.890625
1696245806365,-0.70532227,-0.03765869,0.7914429,1.609375,-4.421875,1.875
1696245806408,-0.70092773,-0.039367676,0.77948,0.78125,-4.640625,0.578125
1696245806444,-0.72314453,-0.044006348,0.79730225,0.828125,-5.0,0.3125
1696245806485,-0.72436523,-0.037902832,0.79364014,0.25,-3.28125,0.8125
1696245806529,-0.7207031,-0.035949707,0.77874756,-0.109375,-2.765625,1.203125
1696245806567,-0.72509766,-0.050109863,0.78948975,0.6875,-2.609375,0.46875
1696245806605,-0.7285156,-0.05303955,0.78533936,0.453125,-1.828125,0.25
1696245806649,-0.72680664,-0.043762207,0.7687378,0.203125,-1.03125,0.640625
1696245806695,-0.7348633,-0.0413208,0.7765503,0.9375,-0.640625,1.5625
1696245806725,-0.74243164,-0.050109863,0.7848511,0.46875,-0.125,1.1875
1696245806765,-0.72875977,-0.050354004,0.77630615,0.296875,0.53125,1.078125
1696245806806,-0.734375,-0.047668457,0.7831421,-0.21875,-0.203125,0.25
1696245806844,-0.7302246,-0.06378174,0.7814331,0.21875,0.015625,0.171875
1696245806884,-0.7233887,-0.059631348,0.7797241,-0.015625,0.203125,0.453125
1696245806924,-0.72631836,-0.047668457,0.7797241,-0.171875,0.296875,0.34375
1696245806989,-0.72875977,-0.06549072,0.80218506,-1.0625,3.015625,0.25
1696245807003,-0.7312012,-0.070617676,0.7963257,-0.984375,2.6875,0.828125
1696245807044,-0.71777344,-0.05987549,0.80023193,-1.59375,3.59375,-0.21875
1696245807088,-0.7175293,-0.046936035,0.8016968,-0.75,3.046875,-0.140625
1696245807125,-0.71240234,-0.05255127,0.8139038,0.578125,4.328125,0.296875
1696245807164,-0.69970703,-0.054260254,0.79803467,1.625,2.65625,1.765625
1696245807205,-0.6948242,-0.049865723,0.80145264,1.515625,1.8125,0.6875
1696245807250,-0.69555664,-0.04840088,0.7958374,1.53125,2.40625,0.78125
1696245807286,-0.6904297,-0.045715332,0.80340576,1.109375,1.953125,0.109375
1696245807304,-0.69921875,-0.06304932,0.8007202,0.609375,1.28125,0.265625
1696245807346,-0.69384766,-0.06109619,0.8114624,0.09375,0.671875,-0.328125
1696245807387,-0.6970215,-0.053771973,0.81365967,-0.640625,0.59375,-0.78125
1696245807424,-0.6911621,-0.050842285,0.81048584,-0.640625,0.765625,-0.703125
1696245807467,-0.6821289,-0.055725098,0.8119507,-0.359375,0.03125,-0.640625
1696245807505,-0.6821289,-0.05670166,0.79974365,-0.296875,-0.109375,-0.484375
1696245807544,-0.6850586,-0.06036377,0.8139038,0.0,-0.203125,0.140625
1696245807586,-0.6982422,-0.04864502,0.8300171,-0.71875,-0.5,-0.03125
1696245807648,-0.6813965,-0.039855957,0.8007202,-1.484375,-0.671875,-1.078125
1696245807690,-0.7116699,-0.043518066,0.826355,-0.25,-2.265625,-0.171875
1696245807704,-0.68725586,-0.038146973,0.79901123,-0.296875,-3.25,-0.421875
1696245807763,-0.685791,-0.031799316,0.7831421,0.578125,-5.828125,-0.078125
1696245807784,-0.69921875,-0.043273926,0.7860718,0.765625,-7.734375,0.890625
1696245807848,-0.70458984,-0.055725098,0.7963257,1.8125,-3.9375,2.609375
1696245807864,-0.6928711,-0.06109619,0.7826538,0.734375,-3.1875,0.96875
1696245807926,-0.7104492,-0.065979004,0.7958374,0.140625,-3.890625,0.34375
1696245807944,-0.7126465,-0.045959473,0.7880249,-1.203125,-3.0,0.328125
1696245807985,-0.7272949,-0.036193848,0.78704834,-0.8125,-3.078125,0.6875
1696245808025,-0.72875977,-0.061340332,0.78826904,-0.171875,-2.484375,0.921875
1696245808063,-0.7260742,-0.055725098,0.77801514,-0.546875,-2.375,0.171875
1696245808104,-0.7126465,-0.05206299,0.7601929,-0.265625,-1.6875,-0.1875
1696245808146,-0.71655273,-0.054016113,0.774353,-0.171875,-1.75,0.265625
1696245808205,-0.73217773,-0.046447754,0.7802124,-0.234375,-1.546875,0.359375
1696245808225,-0.7402344,-0.055236816,0.78582764,0.015625,-0.328125,0.71875
1696245808268,-0.7319336,-0.05279541,0.7868042,-0.140625,0.53125,0.625
1696245808307,-0.7290039,-0.057678223,0.7868042,-0.171875,0.40625,0.5
1696245808367,-0.7285156,-0.059143066,0.79608154,0.03125,2.0,0.765625
1696245808385,-0.73461914,-0.07232666,0.82147217,0.1875,5.5625,1.3125
1696245808448,-0.7194824,-0.062805176,0.81658936,0.234375,4.203125,1.328125
1696245808465,-0.70654297,-0.042053223,0.78582764,-1.390625,3.578125,-0.9375
1696245808505,-0.7194824,-0.05987549,0.8012085,0.171875,1.765625,0.546875
1696245808551,-0.70410156,-0.05670166,0.793396,-0.59375,-0.375,-0.78125
1696245808608,-0.6940918,-0.05328369,0.8085327,-0.078125,0.640625,-0.96875
1696245808624,-0.71118164,-0.06842041,0.7929077,-0.390625,0.3125,-0.734375
1696245808646,-0.69677734,-0.03717041,0.78778076,-1.25,0.09375,-0.5
1696245808688,-0.71362305,-0.04547119,0.80218506,-0.21875,0.953125,0.234375
1696245808734,-0.6989746,-0.06304932,0.78167725,-0.734375,1.15625,-0.1875
1696245808768,-0.703125,-0.04864502,0.8012085,-1.3125,0.359375,-0.53125
1696245808807,-0.70043945,-0.039123535,0.8004761,-1.125,-1.078125,-1.046875
1696245808846,-0.6906738,-0.039367676,0.80877686,-1.015625,-1.25,-0.65625
1696245808886,-0.7006836,-0.035461426,0.81121826,-0.984375,-0.53125,-1.0
1696245808924,-0.70336914,-0.039367676,0.7929077,-1.9375,-1.28125,-1.171875
1696245808967,-0.6982422,-0.026916504,0.80023193,-1.796875,-1.75,-0.671875
1696245809005,-0.70288086,-0.028137207,0.79193115,-0.65625,-2.578125,-0.484375
1696245809046,-0.7062988,-0.028869629,0.79193115,-0.4375,-3.140625,-0.296875
1696245809085,-0.7055664,-0.010314941,0.7802124,1.859375,-4.046875,0.8125
1696245809126,-0.72265625,-0.039611816,0.789978,4.4375,-4.859375,2.46875
1696245809168,-0.7126465,-0.04888916,0.77752686,3.578125,-2.765625,2.78125
1696245809204,-0.7043457,-0.042541504,0.7758179,2.40625,-1.75,1.875
1696245809246,-0.70336914,-0.04840088,0.77801514,0.3125,-2.75,0.375
1696245809285,-0.7236328,-0.04425049,0.7863159,0.234375,-3.640625,0.78125
1696245809326,-0.7294922,-0.04815674,0.77801514,-0.09375,-2.859375,0.78125
1696245809364,-0.734375,-0.034973145,0.7699585,-0.125,-1.75,1.296875
1696245809407,-0.74365234,-0.057678223,0.77142334,0.609375,-1.734375,0.671875
1696245809445,-0.74194336,-0.06304932,0.77508545,0.53125,-0.9375,0.171875
1696245809485,-0.73583984,-0.054504395,0.7797241,0.359375,-0.3125,0.859375
1696245809527,-0.7233887,-0.0569458,0.7753296,0.1875,0.09375,1.125
1696245809566,-0.7351074,-0.047668457,0.7748413,-0.4375,0.25,0.5
1696245809606,-0.7385254,-0.05718994,0.7826538,0.15625,0.375,0.484375
1696245809645,-0.72680664,-0.06549072,0.79071045,-0.28125,0.078125,0.453125
1696245809687,-0.7248535,-0.059631348,0.79119873,-0.3125,0.234375,0.203125
1696245809726,-0.73095703,-0.066223145,0.7970581,-1.09375,2.4375,0.15625
1696245809765,-0.7307129,-0.0713501,0.79486084,-1.21875,2.75,0.5
1696245809805,-0.72216797,-0.057922363,0.7836304,-1.9375,2.640625,-1.265625
1696245809845,-0.72558594,-0.04840088,0.79022217,-1.03125,2.515625,-0.984375
1696245809884,-0.75,-0.050109863,0.8461304,2.671875,2.46875,0.296875
1696245809945,-0.68408203,-0.06500244,0.7914429,2.71875,2.890625,1.0625
1696245809965,-0.70532227,-0.057922363,0.809021,0.765625,0.734375,-0.390625
1696245809985,-0.69311523,-0.057922363,0.7704468,-0.828125,1.328125,-0.765625
1696245810045,-0.6994629,-0.037902832,0.791687,-0.890625,1.015625,-0.78125
1696245810065,-0.69921875,-0.038146973,0.793396,-0.90625,1.234375,-1.3125
1696245810107,-0.7246094,-0.050842285,0.8163452,0.453125,-0.34375,-0.15625
1696245810170,-0.7011719,-0.05206299,0.793396,0.234375,-0.59375,-0.5
1696245810183,-0.71118164,-0.050354004,0.8012085,1.0,-0.875,-0.359375
1696245810246,-0.7026367,-0.04107666,0.79241943,0.328125,-1.15625,-0.5
1696245810265,-0.69262695,-0.03326416,0.7897339,0.640625,-2.078125,-0.53125
1696245810327,-0.69140625,-0.027160645,0.78582764,1.328125,-4.71875,0.0
1696245810345,-0.69677734,-0.032043457,0.75994873,2.34375,-5.953125,1.3125
1696245810387,-0.7097168,-0.05670166,0.76068115,2.640625,-5.484375,2.953125
1696245810425,-0.7167969,-0.059387207,0.7645874,0.609375,-4.1875,2.234375
1696245810488,-0.72802734,-0.06744385,0.777771,-0.6875,-2.734375,0.609375
1696245810528,-0.73291016,-0.06427002,0.79119873,-1.75,-2.84375,-0.578125
1696245810543,-0.736084,-0.04156494,0.79364014,-1.203125,-1.96875,-0.328125
1696245810605,-0.7314453,-0.0413208,0.7897339,-0.703125,-0.28125,0.78125
1696245810625,-0.7270508,-0.06085205,0.77459717,-0.46875,-1.1875,0.890625
1696245810689,-0.72314453,-0.08013916,0.7682495,-0.484375,-1.40625,-0.09375
1696245810704,-0.7253418,-0.06427002,0.7772827,-0.890625,-0.125,-0.59375
1696245810747,-0.734375,-0.06060791,0.78338623,0.171875,-0.078125,0.75
1696245810788,-0.74731445,-0.046936035,0.78533936,-0.234375,-0.046875,0.90625
1696245810827,-0.73461914,-0.049621582,0.7836304,-0.65625,0.78125,0.984375
1696245810867,-0.7355957,-0.06768799,0.793396,-0.859375,1.453125,0.03125
1696245810906,-0.7585449,-0.086242676,0.82318115,-0.28125,4.75,0.703125
1696245810946,-0.70703125,-0.06939697,0.78778076,-1.046875,3.375,-0.296875
1696245810984,-0.71777344,-0.043518066,0.7946167,-0.921875,3.609375,-0.390625
1696245811051,-0.720459,-0.058166504,0.805603,0.421875,3.765625,0.734375
1696245811068,-0.70874023,-0.047912598,0.79119873,0.203125,2.359375,0.6875
1696245811104,-0.7060547,-0.06036377,0.7921753,0.671875,1.671875,0.796875
1696245811146,-0.7062988,-0.069885254,0.8016968,-0.1875,1.84375,-0.25
1696245811186,-0.69921875,-0.05621338,0.8016968,-0.25,0.53125,-0.671875
1696245811267,-0.6989746,-0.05230713,0.79730225,-0.890625,0.390625,-0.625
1696245811271,-0.6958008,-0.034240723,0.7977905,-0.453125,0.171875,-0.515625
1696245811287,-0.6972656,-0.046203613,0.7999878,-0.6875,0.125,-0.59375
1696245811328,-0.68774414,-0.04547119,0.7938843,-0.734375,-0.796875,-0.59375
1696245811366,-0.70043945,-0.047424316,0.8060913,-0.328125,-1.59375,-0.734375
1696245811404,-0.7006836,-0.04083252,0.8007202,0.359375,-2.875,-0.59375
1696245811445,-0.6965332,-0.016906738,0.7836304,1.1875,-3.890625,0.203125
1696245811484,-0.703125,-0.032287598,0.7680054,2.265625,-4.234375,1.265625
1696245811530,-0.7145996,-0.0635376,0.774353,3.375,-3.796875,3.171875
1696245811565,-0.7216797,-0.05328369,0.78338623,0.921875,-3.3125,2.171875
1696245811605,-0.7019043,-0.05206299,0.7809448,-0.21875,-1.78125,0.421875
1696245811646,-0.7180176,-0.06109619,0.79803467,-0.15625,-3.078125,0.171875
1696245811686,-0.7229004,-0.06109619,0.7880249,-0.3125,-2.890625,0.65625
1696245811725,-0.7194824,-0.054748535,0.76190186,-0.671875,-3.265625,0.984375
1696245811765,-0.72924805,-0.050354004,0.77508545,-1.34375,-3.125,0.03125
1696245811805,-0.72753906,-0.07159424,0.78167725,-0.703125,-2.015625,-0.234375
1696245811847,-0.720459,-0.06036377,0.77557373,-0.5625,-1.390625,-0.21875
1696245811886,-0.7338867,-0.059387207,0.7807007,-0.03125,-0.921875,0.609375
1696245811925,-0.73217773,-0.05303955,0.7716675,-0.484375,0.21875,0.671875
1696245811966,-0.74438477,-0.06060791,0.80023193,-0.28125,1.984375,1.203125
1696245812005,-0.748291,-0.082336426,0.80218506,-0.703125,4.359375,1.15625
1696245812046,-0.7167969,-0.065979004,0.7892456,-0.5,2.921875,0.0
1696245812087,-0.7233887,-0.062561035,0.821228,0.703125,3.5,0.53125
1696245812125,-0.70458984,-0.07159424,0.79119873,0.203125,2.84375,0.875
1696245812165,-0.71899414,-0.0635376,0.8043823,0.359375,2.765625,0.734375
1696245812207,-0.70532227,-0.070617676,0.7880249,0.921875,3.5625,0.9375
1696245812247,-0.7077637,-0.062072754,0.81121826,1.109375,3.546875,0.546875
1696245812296,-0.70092773,-0.058166504,0.8036499,2.078125,3.25,0.890625
1696245812324,-0.7001953,-0.066467285,0.79681396,2.234375,2.078125,0.765625
1696245812365,-0.6945801,-0.06695557,0.8119507,1.078125,3.4375,0.625
1696245812406,-0.67626953,-0.053527832,0.79559326,0.65625,0.859375,0.03125
1696245812445,-0.6879883,-0.062805176,0.81536865,-0.25,1.1875,-0.734375
1696245812486,-0.6911621,-0.07720947,0.82147217,-0.421875,-0.34375,-0.484375
1696245812524,-0.66381836,-0.053771973,0.79119873,-2.140625,-2.59375,-1.734375
1696245812565,-0.69628906,-0.051574707,0.8173218,-0.8125,-3.0625,-1.265625
1696245812585,-0.6977539,-0.05230713,0.80755615,-1.046875,-3.609375,-0.625
1696245812646,-0.6855469,-0.042053223,0.78948975,0.109375,-3.5625,0.359375
1696245812663,-0.7036133,-0.066223145,0.7809448,1.28125,-6.46875,1.328125
1696245812706,-0.7026367,-0.07501221,0.7838745,0.453125,-7.015625,1.421875
1696245812746,-0.704834,-0.058166504,0.7814331,-0.71875,-3.640625,0.75
1696245812784,-0.7043457,-0.062805176,0.7860718,0.171875,-3.28125,0.375
1696245812824,-0.71655273,-0.050109863,0.7880249,-1.4375,-5.296875,-0.15625
1696245812889,-0.72509766,-0.04156494,0.79071045,-1.90625,-4.734375,-0.171875
1696245812905,-0.7338867,-0.058898926,0.7807007,-1.90625,-3.265625,-0.28125
1696245812987,-0.72216797,-0.066223145,0.77874756,-0.90625,-2.09375,-0.859375
1696245812991,-0.7324219,-0.074279785,0.7782593,-1.03125,-1.578125,-0.625
1696245813044,-0.7324219,-0.058166504,0.7789917,-0.703125,-0.59375,-0.078125
1696245813064,-0.7390137,-0.047912598,0.7731323,-0.234375,-0.28125,0.46875
1696245813104,-0.7446289,-0.062561035,0.77923584,0.265625,0.1875,0.859375
1696245813145,-0.74316406,-0.062316895,0.7994995,0.1875,0.171875,0.84375
1696245813187,-0.71850586,-0.062316895,0.79241943,-1.484375,5.25,0.0
1696245813229,-0.7438965,-0.06964111,0.81707764,-0.140625,5.28125,1.4375
1696245813289,-0.7192383,-0.06500244,0.8043823,0.15625,3.328125,0.71875
1696245813304,-0.72094727,-0.057678223,0.7887573,-0.328125,1.8125,0.078125
1696245813345,-0.71118164,-0.044006348,0.79681396,-0.6875,1.65625,-0.359375
1696245813384,-0.70288086,-0.037902832,0.7892456,-0.578125,1.96875,-0.296875
1696245813446,-0.68725586,-0.058654785,0.7826538,-0.21875,1.953125,-0.4375
1696245813465,-0.7036133,-0.062805176,0.78338623,-1.953125,1.109375,-0.53125
1696245813526,-0.7102051,-0.0413208,0.79974365,-1.734375,0.3125,-0.671875
1696245813544,-0.70166016,-0.039855957,0.80023193,-1.328125,-0.15625,-1.09375
1696245813586,-0.6972656,-0.04034424,0.8012085,-1.3125,-0.421875,-0.671875
1696245813626,-0.7001953,-0.032287598,0.8004761,-1.234375,-0.53125,-0.96875
1696245813667,-0.6953125,-0.03375244,0.79193115,-1.40625,-0.796875,-0.8125
1696245813707,-0.7050781,-0.03643799,0.80340576,-0.9375,-0.046875,-0.796875
1696245813745,-0.7006836,-0.04083252,0.8016968,-0.640625,-0.71875,-0.75
1696245813786,-0.70874023,-0.027404785,0.79559326,-0.15625,-1.1875,-0.640625
1696245813846,-0.6945801,-0.015197754,0.79437256,0.671875,-2.34375,-0.109375
1696245813886,-0.7072754,-0.017150879,0.7897339,2.671875,-4.59375,0.84375
1696245813890,-0.7092285,-0.037902832,0.77093506,3.484375,-4.296875,2.015625
1696245813927,-0.7109375,-0.045715332,0.7526245,2.75,-4.328125,2.359375
1696245813965,-0.7167969,-0.050842285,0.79193115,1.90625,-4.03125,1.5
1696245814028,-0.7180176,-0.06768799,0.79437256,-0.265625,-3.8125,-0.140625
1696245814045,-0.7258301,-0.04449463,0.78045654,-1.734375,-3.484375,-0.578125
1696245814086,-0.73339844,-0.025939941,0.791687,-0.53125,-2.53125,0.203125
1696245814125,-0.7272949,-0.03692627,0.77948,0.09375,-1.71875,1.15625
1696245814165,-0.7331543,-0.0647583,0.77264404,0.1875,-1.734375,1.140625
1696245814206,-0.73095703,-0.07574463,0.7741089,0.234375,-1.28125,0.3125
1696245814246,-0.7211914,-0.050354004,0.7650757,0.140625,0.328125,0.046875
1696245814285,-0.74072266,-0.043273926,0.77459717,0.328125,0.21875,0.71875
1696245814324,-0.74560547,-0.050842285,0.7872925,0.03125,0.6875,1.28125
1696245814365,-0.73461914,-0.0635376,0.7975464,-0.578125,3.140625,0.765625
1696245814404,-0.73413086,-0.07183838,0.8180542,-0.171875,4.703125,0.78125
1696245814444,-0.71899414,-0.066223145,0.80804443,0.46875,4.5625,0.921875
1696245814487,-0.7141113,-0.05303955,0.8041382,0.921875,5.703125,1.625
1696245814527,-0.7067871,-0.05987549,0.78338623,0.734375,2.640625,1.109375
1696245814567,-0.7067871,-0.050354004,0.8004761,0.125,2.4375,0.625
1696245814611,-0.69873047,-0.0569458,0.8065796,0.0,2.40625,0.59375
1696245814645,-0.6977539,-0.06304932,0.79193115,-0.390625,1.484375,-0.21875
1696245814686,-0.7114258,-0.051574707,0.8143921,0.09375,0.890625,-0.046875
1696245814726,-0.6867676,-0.050598145,0.7863159,-0.5625,0.84375,-0.765625
1696245814766,-0.70336914,-0.05718994,0.8307495,1.53125,-0.09375,0.03125
1696245814808,-0.6833496,-0.074523926,0.79559326,0.296875,0.15625,-0.25
1696245814846,-0.6870117,-0.04888916,0.80926514,0.09375,0.234375,-0.265625
1696245814885,-0.6862793,-0.055236816,0.8048706,0.390625,-0.203125,-0.4375
1696245814925,-0.69262695,-0.059143066,0.8070679,0.453125,0.359375,0.34375
1696245814966,-0.69555664,-0.055480957,0.8036499,0.296875,0.0,0.234375
1696245815003,-0.69921875,-0.06304932,0.8012085,0.515625,-0.203125,-0.1875
1696245815047,-0.689209,-0.058410645,0.80682373,-0.015625,0.515625,-0.546875
1696245815087,-0.69018555,-0.05303955,0.8156128,0.3125,-0.5625,-0.5
1696245815125,-0.6904297,-0.04522705,0.7987671,0.265625,-2.375,-0.265625
1696245815165,-0.67822266,-0.032287598,0.7831421,0.578125,-4.71875,-0.203125
1696245815207,-0.69970703,-0.061584473,0.8016968,2.59375,-3.390625,1.71875
1696245815226,-0.6921387,-0.061340332,0.7753296,2.125,-3.109375,2.015625
1696245815287,-0.69189453,-0.06866455,0.7748413,0.390625,-4.625,0.84375
1696245815306,-0.7026367,-0.061828613,0.805603,-0.859375,-6.640625,0.0625
1696245815349,-0.7229004,-0.073791504,0.79119873,-2.203125,-3.109375,0.125
1696245815408,-0.7141113,-0.050354004,0.79022217,-2.4375,-5.453125,-0.296875
1696245815423,-0.7163086,-0.03692627,0.774353,-3.265625,-4.796875,-1.046875
1696245815487,-0.72387695,-0.057922363,0.7965698,-1.3125,-4.59375,-0.34375
1696245815504,-0.73168945,-0.074279785,0.77801514,-1.71875,-2.734375,-0.75
1696245815587,-0.72875977,-0.051086426,0.7748413,-1.75,-1.15625,-0.953125
1696245815591,-0.73999023,-0.03692627,0.7748413,-0.578125,-0.5,0.0625
1696245815625,-0.73657227,-0.0491333,0.78118896,0.15625,0.078125,0.984375
1696245815665,-0.7468262,-0.05230713,0.7921753,0.171875,-0.046875,0.984375
1696245815726,-0.7336426,-0.055236816,0.78118896,-0.578125,1.046875,0.71875
1696245815746,-0.71875,-0.047180176,0.7897339,-0.875,1.609375,-0.109375
1696245815809,-0.7219238,-0.055725098,0.8053589,-0.921875,2.53125,0.171875
1696245815825,-0.72753906,-0.06939697,0.7938843,-0.71875,3.40625,0.859375
1696245815865,-0.72021484,-0.04888916,0.7941284,-0.859375,2.6875,0.28125
1696245815906,-0.7194824,-0.045715332,0.7970581,-0.765625,5.5625,0.046875
1696245815965,-0.7207031,-0.04815674,0.7975464,0.8125,5.15625,0.46875
1696245815985,-0.7246094,-0.055480957,0.8473511,4.21875,5.1875,2.125
1696245816050,-0.6867676,-0.055725098,0.7938843,4.828125,6.65625,3.265625
1696245816085,-0.68188477,-0.062561035,0.7748413,3.78125,3.09375,1.796875
1696245816105,-0.6738281,-0.06011963,0.79608154,0.78125,0.609375,0.078125
1696245816146,-0.67089844,-0.066467285,0.7765503,-0.234375,2.171875,-0.390625
1696245816187,-0.70410156,-0.069885254,0.83709717,0.625,0.015625,-0.46875
1696245816247,-0.68237305,-0.069885254,0.8060913,-1.625,-0.140625,-1.234375
1696245816287,-0.6765137,-0.05255127,0.8085327,-1.015625,-1.546875,-1.421875
1696245816304,-0.68847656,-0.062072754,0.80511475,-1.03125,-3.125,-1.171875
1696245816346,-0.6911621,-0.043518066,0.80584717,-0.03125,-2.671875,0.109375
1696245816386,-0.68603516,-0.05670166,0.7914429,0.3125,-3.078125,0.109375
1696245816425,-0.6855469,-0.06060791,0.7821655,0.203125,-3.0625,0.28125
1696245816466,-0.6887207,-0.039611816,0.7699585,0.328125,-6.21875,0.65625
1696245816528,-0.70947266,-0.050598145,0.79437256,-0.453125,-6.9375,1.15625
1696245816547,-0.7260742,-0.06329346,0.79193115,-0.578125,-3.4375,1.0625
1696245816565,-0.71118164,-0.065979004,0.7929077,-1.578125,-5.515625,-0.6875
1696245816646,-0.70751953,-0.04937744,0.78167725,-2.8125,-6.125,-1.328125
1696245816650,-0.7258301,-0.046203613,0.79119873,-2.109375,-4.5,-0.9375
1696245816690,-0.7290039,-0.05596924,0.78045654,-1.015625,-2.59375,0.09375
1696245816725,-0.73168945,-0.059387207,0.7848511,-0.296875,-2.140625,0.28125
1696245816765,-0.7270508,-0.0647583,0.7728882,-0.109375,-1.125,0.28125
1696245816806,-0.736084,-0.045959473,0.78118896,0.421875,-1.125,0.921875
1696245816846,-0.7265625,-0.04888916,0.7706909,-0.234375,0.453125,0.515625
1696245816886,-0.7434082,-0.054992676,0.78826904,0.859375,-0.28125,1.140625
1696245816929,-0.7375488,-0.061584473,0.7772827,0.328125,-0.03125,0.921875
1696245816965,-0.7314453,-0.050109863,0.7797241,-0.140625,0.359375,0.515625
1696245817005,-0.7285156,-0.05230713,0.7797241,0.03125,0.28125,0.1875
1696245817047,-0.7375488,-0.061828613,0.7938843,-0.734375,1.390625,0.453125
1696245817087,-0.732666,-0.0725708,0.7970581,-1.28125,2.40625,0.40625
1696245817125,-0.72680664,-0.058166504,0.79364014,-2.234375,3.0,-0.328125
1696245817165,-0.7194824,-0.038146973,0.7887573,-1.8125,3.03125,-0.75
1696245817206,-0.7248535,-0.051574707,0.7941284,-1.375,1.734375,-0.796875
1696245817245,-0.71435547,-0.050354004,0.7875366,-1.328125,1.09375,-0.5
1696245817285,-0.7109375,-0.04888916,0.7838745,-1.234375,0.6875,-0.796875
1696245817327,-0.70703125,-0.029846191,0.7838745,-1.234375,0.625,-0.8125
1696245817368,-0.70214844,-0.031066895,0.791687,-0.96875,0.78125,-0.328125
1696245817405,-0.701416,-0.031799316,0.79022217,-1.703125,-0.125,-0.578125
1696245817444,-0.7229004,-0.032287598,0.79315186,-2.5,0.125,-0.734375
1696245817485,-0.71655273,-0.027404785,0.8019409,-0.75,-1.125,-0.8125
1696245817529,-0.7133789,-0.027893066,0.80462646,-1.25,-1.109375,-0.8125
1696245817565,-0.69189453,-0.015930176,0.76361084,-1.734375,-0.546875,-1.21875
1696245817606,-0.72558594,-0.028625488,0.81903076,-0.375,-1.671875,-0.484375
1696245817646,-0.7084961,-0.030090332,0.76898193,-1.640625,-0.96875,-0.796875
1696245817686,-0.7141113,-0.011779785,0.7999878,-0.21875,-2.0625,-0.75
1696245817726,-0.7128906,-0.0017700195,0.7887573,1.484375,-3.15625,0.0
1696245817765,-0.7126465,-0.0076293945,0.7699585,3.421875,-3.390625,1.203125
1696245817825,-0.7241211,-0.035949707,0.76727295,4.890625,-2.390625,2.75
1696245817845,-0.720459,-0.0491333,0.76971436,3.265625,-2.25,2.453125
1696245817865,-0.70288086,-0.034729004,0.7562866,1.21875,-2.609375,1.234375
1696245817905,-0.73168945,-0.034973145,0.78118896,0.625,-4.359375,0.3125
1696245817945,-0.7380371,-0.035705566,0.7809448,0.21875,-3.765625,0.546875
1696245817986,-0.73461914,-0.028625488,0.79119873,0.203125,-2.140625,0.9375
1696245818028,-0.73583984,-0.043518066,0.7723999,0.8125,-1.5625,0.859375
1696245818085,-0.72753906,-0.0635376,0.77996826,0.90625,-0.484375,0.59375
1696245818105,-0.7375488,-0.06036377,0.77020264,0.703125,-0.359375,0.375
1696245818168,-0.7375488,-0.046447754,0.77386475,0.875,-0.0625,0.796875
1696245818185,-0.7355957,-0.04425049,0.7731323,0.828125,0.8125,1.15625
1696245818226,-0.74194336,-0.045959473,0.7941284,1.28125,0.453125,1.71875
1696245818266,-0.7216797,-0.049865723,0.762146,-0.8125,1.375,0.328125
1696245818326,-0.74609375,-0.05596924,0.7977905,0.328125,-0.15625,0.421875
1696245818344,-0.7319336,-0.077697754,0.78582764,-0.96875,1.140625,0.21875
1696245818386,-0.72802734,-0.062072754,0.7863159,-0.90625,1.078125,0.109375
1696245818427,-0.7290039,-0.06085205,0.79852295,-1.328125,1.390625,0.109375
1696245818468,-0.7141113,-0.043029785,0.7741089,-2.734375,1.640625,-0.546875
1696245818506,-0.7277832,-0.046447754,0.79974365,-1.71875,1.40625,-0.828125
1696245818566,-0.72875977,-0.04888916,0.78704834,-2.640625,1.921875,-0.71875
1696245818583,-0.7121582,-0.0256958,0.77801514,-1.890625,1.71875,-1.125
1696245818629,-0.71972656,-0.04425049,0.80023193,-0.25,1.09375,-1.1875
1696245818680,-0.70947266,-0.043029785,0.78900146,-0.484375,0.265625,-0.953125
1696245818704,-0.7199707,-0.02178955,0.79608154,-0.484375,-0.28125,-0.875
1696245818745,-0.70996094,-0.018615723,0.78289795,-0.484375,0.296875,-0.15625
1696245818784,-0.71435547,-0.027893066,0.79193115,-0.125,-0.09375,-0.4375
1696245818826,-0.72143555,-0.039855957,0.7860718,-0.53125,-0.28125,-0.65625
1696245818867,-0.7126465,-0.024230957,0.7875366,-0.234375,-0.984375,-0.671875
1696245818907,-0.70751953,-0.020324707,0.7821655,-0.546875,0.046875,-0.671875
1696245818944,-0.6999512,-0.015197754,0.7723999,1.21875,-1.21875,0.046875
1696245818988,-0.7060547,-0.012268066,0.79071045,1.578125,-2.8125,0.0
1696245819028,-0.71850586,-0.03277588,0.7789917,2.5625,-2.75,1.375
1696245819088,-0.7199707,-0.03375244,0.7526245,2.578125,-2.921875,2.109375
1696245819104,-0.7199707,-0.028625488,0.77752686,2.0625,-3.59375,2.3125
1696245819147,-0.7175293,-0.034484863,0.7838745,1.21875,-3.546875,1.34375
1696245819164,-0.72509766,-0.041809082,0.7802124,0.25,-2.84375,0.765625
1696245819206,-0.73095703,-0.049865723,0.78045654,0.0625,-2.28125,0.71875
1696245819247,-0.72387695,-0.047912598,0.78045654,0.0,-0.96875,0.609375
1696245819292,-0.7294922,-0.04522705,0.777771,0.265625,-0.8125,0.703125
1696245819324,-0.7312012,-0.054748535,0.7789917,0.78125,-0.984375,0.671875
1696245819367,-0.7375488,-0.04937744,0.776062,0.421875,-0.234375,1.03125
1696245819405,-0.732666,-0.040100098,0.7650757,0.484375,0.03125,1.1875
1696245819446,-0.7402344,-0.046691895,0.77459717,0.5625,0.40625,1.21875
1696245819493,-0.7375488,-0.055236816,0.78582764,0.125,1.109375,1.03125
1696245819527,-0.7380371,-0.07305908,0.79022217,-1.609375,3.640625,0.078125
1696245819566,-0.7312012,-0.06817627,0.80096436,-1.46875,3.09375,0.375
1696245819604,-0.73168945,-0.050842285,0.8200073,-0.875,2.0,0.21875
1696245819645,-0.70751953,-0.04034424,0.7662964,-1.8125,2.953125,-0.796875
1696245819687,-0.7270508,-0.04840088,0.81365967,0.453125,1.921875,0.125
1696245819727,-0.7077637,-0.06817627,0.776062,-0.828125,1.65625,-0.328125
1696245819765,-0.7043457,-0.038146973,0.7887573,-1.171875,0.671875,-0.90625
1696245819804,-0.7167969,-0.02935791,0.7975464,-0.03125,1.109375,-0.265625
1696245819849,-0.7060547,-0.035949707,0.79437256,0.078125,1.0625,-0.234375
1696245819885,-0.70825195,-0.04498291,0.8156128,1.3125,0.515625,0.453125
1696245819926,-0.69384766,-0.047912598,0.79486084,0.609375,0.6875,0.25
1696245819969,-0.70336914,-0.04522705,0.8043823,0.59375,1.296875,0.203125
1696245820004,-0.7089844,-0.051330566,0.8082886,1.046875,1.21875,0.28125
1696245820046,-0.7019043,-0.04156494,0.7885132,1.421875,0.453125,0.4375
1696245820086,-0.7114258,-0.038879395,0.8012085,1.84375,0.8125,0.5
1696245820126,-0.6984863,-0.046936035,0.7929077,1.390625,0.984375,0.328125
1696245820174,-0.6953125,-0.04888916,0.807312,1.21875,0.421875,0.25
1696245820204,-0.7006836,-0.055480957,0.80096436,0.25,-0.015625,-0.34375
1696245820245,-0.6928711,-0.038391113,0.79974365,0.546875,-1.15625,-0.359375
1696245820289,-0.6855469,-0.0154418945,0.8148804,2.828125,-4.203125,0.5625
1696245820325,-0.68725586,-0.04864502,0.7653198,0.78125,-4.171875,0.515625
1696245820364,-0.7114258,-0.07696533,0.78460693,1.46875,-4.0625,1.625
1696245820405,-0.69189453,-0.054992676,0.76678467,-1.171875,-4.671875,0.484375
1696245820445,-0.70458984,-0.039611816,0.77508545,-2.625,-7.515625,-0.6875
1696245820466,-0.7373047,-0.039855957,0.8012085,-1.890625,-6.390625,-0.8125
1696245820507,-0.73706055,-0.051330566,0.79022217,-1.671875,-2.953125,0.25
1696245820546,-0.7290039,-0.049865723,0.791687,-0.3125,-2.546875,0.5625
1696245820588,-0.7163086,-0.062072754,0.77752686,-0.4375,-1.6875,0.125
1696245820625,-0.7270508,-0.05255127,0.77215576,-0.828125,-1.96875,-0.078125
1696245820665,-0.7324219,-0.04937744,0.776062,0.234375,-1.390625,-0.09375
1696245820707,-0.7368164,-0.058898926,0.7797241,0.171875,0.125,0.46875
1696245820747,-0.7338867,-0.04107666,0.7736206,0.09375,0.546875,1.0625
1696245820809,-0.7338867,-0.046203613,0.78338623,0.0625,0.515625,1.25
1696245820823,-0.73828125,-0.05596924,0.7848511,-0.375,0.703125,0.703125
1696245820868,-0.73461914,-0.06719971,0.78656006,-1.21875,1.53125,-0.40625
1696245820927,-0.73413086,-0.06964111,0.8031616,-1.203125,3.203125,0.265625
1696245820966,-0.72387695,-0.042785645,0.81463623,-0.15625,1.640625,1.015625
1696245820986,-0.71899414,-0.038879395,0.77752686,-2.046875,2.765625,-0.5625
1696245821025,-0.73779297,-0.053771973,0.8085327,0.03125,0.90625,0.296875
1696245821066,-0.7253418,-0.062072754,0.78948975,-0.296875,1.625,0.265625
1696245821105,-0.71606445,-0.04522705,0.8070679,0.5625,1.578125,0.796875
1696245821146,-0.7077637,-0.04425049,0.7987671,1.640625,2.125,1.578125
1696245821185,-0.70214844,-0.051818848,0.7982788,1.6875,1.484375,1.796875
1696245821249,-0.7062988,-0.047912598,0.79559326,0.84375,1.078125,1.265625
1696245821264,-0.69506836,-0.055236816,0.7872925,0.34375,1.046875,0.109375
1696245821307,-0.6921387,-0.042541504,0.7758179,-0.109375,0.25,-0.328125
1696245821346,-0.70825195,-0.04888916,0.80462646,0.15625,0.015625,-0.203125
1696245821410,-0.703125,-0.054016113,0.7946167,-0.140625,-0.0625,-0.3125
1696245821424,-0.70532227,-0.049865723,0.79193115,-0.234375,-0.796875,-0.828125
1696245821488,-0.7023926,-0.046936035,0.7880249,-0.34375,-1.34375,-1.171875
1696245821505,-0.70654297,-0.04815674,0.79608154,-0.359375,-1.859375,-1.0625
1696245821546,-0.71484375,-0.035949707,0.8119507,0.390625,-3.3125,-0.1875
1696245821589,-0.6828613,-0.024475098,0.76727295,0.4375,-2.84375,0.171875
1696245821626,-0.68896484,-0.05279541,0.75286865,2.15625,-3.671875,1.609375
1696245821686,-0.7167969,-0.0569458,0.76556396,1.0625,-4.8125,1.71875
1696245821726,-0.7109375,-0.059143066,0.7838745,0.703125,-4.84375,0.625
1696245821744,-0.7114258,-0.06036377,0.7719116,-0.71875,-4.15625,-0.484375
1696245821808,-0.7363281,-0.0413208,0.7821655,-1.328125,-3.4375,-1.34375
1696245821815,-0.7385254,-0.043029785,0.78338623,-0.40625,-2.265625,-0.640625
1696245821847,-0.72216797,-0.04937744,0.7821655,0.0,-0.859375,0.71875
1696245821887,-0.73217773,-0.07281494,0.78778076,0.109375,-0.75,0.53125
1696245821927,-0.72216797,-0.07110596,0.76776123,-0.515625,-0.6875,-0.484375
1696245821966,-0.7385254,-0.05255127,0.78167725,0.015625,-0.5,-0.03125
1696245822005,-0.73828125,-0.04522705,0.77142334,0.578125,-0.34375,0.734375
1696245822046,-0.73999023,-0.051818848,0.77801514,0.546875,0.3125,1.328125
1696245822087,-0.7404785,-0.05645752,0.7770386,0.09375,0.109375,0.953125
1696245822127,-0.7297363,-0.054992676,0.77948,0.015625,0.53125,0.421875
1696245822166,-0.7233887,-0.066711426,0.7848511,-0.984375,1.96875,-0.1875
1696245822228,-0.7368164,-0.073791504,0.8258667,-0.609375,3.25,0.8125
1696245822245,-0.7297363,-0.053771973,0.79437256,-1.34375,2.125,0.6875
1696245822287,-0.70947266,-0.046447754,0.76116943,-2.46875,2.3125,-0.625
1696245822327,-0.73583984,-0.042541504,0.8095093,-0.734375,0.828125,-0.21875
1696245822367,-0.7241211,-0.069885254,0.80023193,-0.359375,1.09375,-0.359375
1696245822405,-0.7055664,-0.055480957,0.7819214,-1.296875,0.4375,-0.390625
1696245822447,-0.7192383,-0.03375244,0.805603,0.875,-0.296875,-0.53125
1696245822484,-0.69433594,-0.039611816,0.7731323,1.125,-1.109375,-0.1875
1696245822546,-0.72680664,-0.043518066,0.79852295,2.15625,-1.09375,0.65625
1696245822564,-0.7182617,-0.06719971,0.79974365,1.03125,1.9375,1.359375
1696245822605,-0.70410156,-0.04547119,0.76434326,-0.03125,0.6875,1.125
1696245822648,-0.7155762,-0.051818848,0.7965698,0.40625,-0.203125,0.390625
1696245822688,-0.7104492,-0.058410645,0.7831421,0.609375,-0.140625,0.296875
1696245822726,-0.701416,-0.041809082,0.79119873,0.421875,-0.21875,-0.4375
1696245822769,-0.7145996,-0.039611816,0.78582764,0.90625,-0.71875,-0.078125
1696245822806,-0.7097168,-0.042785645,0.7904663,2.21875,-1.375,0.65625
1696245822847,-0.70288086,-0.039123535,0.78900146,2.5,-4.09375,0.859375
1696245822907,-0.69262695,-0.058166504,0.760437,2.359375,-2.03125,0.84375
1696245822924,-0.70043945,-0.06060791,0.7470093,2.5625,-1.75,2.171875
1696245822966,-0.6960449,-0.0569458,0.7543335,0.453125,-5.8125,1.125
1696245823006,-0.7312012,-0.0713501,0.7880249,-1.359375,-6.71875,-0.46875
1696245823046,-0.7480469,-0.057922363,0.77801514,-2.59375,-2.859375,-0.8125
1696245823086,-0.73876953,-0.054504395,0.75457764,-2.40625,-1.8125,-1.78125
1696245823104,-0.73706055,-0.057922363,0.7758179,-1.828125,-1.296875,-1.515625
1696245823144,-0.73950195,-0.059143066,0.7782593,-0.984375,-0.28125,-0.3125
1696245823188,-0.732666,-0.07476807,0.78240967,-0.671875,0.328125,0.46875
1696245823225,-0.73461914,-0.058654785,0.77630615,-0.859375,1.265625,0.328125
1696245823287,-0.736084,-0.06427002,0.7682495,0.234375,1.0625,0.609375
1696245823325,-0.748291,-0.061584473,0.76483154,-0.390625,2.109375,0.890625
1696245823345,-0.7253418,-0.04840088,0.79364014,-0.03125,1.71875,1.484375
1696245823385,-0.7385254,-0.06109619,0.76239014,-0.078125,0.5,0.9375
1696245823425,-0.7216797,-0.050354004,0.7897339,0.859375,-1.09375,1.0625
1696245823466,-0.72802734,-0.070129395,0.78240967,0.265625,-0.953125,0.765625
1696245823505,-0.73583984,-0.070129395,0.79241943,-0.671875,-0.46875,1.0
1696245823553,-0.73876953,-0.065979004,0.8185425,-1.046875,-0.296875,0.25
1696245823585,-0.71435547,-0.047912598,0.789978,-1.65625,1.296875,-0.4375
1696245823626,-0.74365234,-0.05230713,0.80389404,-0.296875,1.265625,-0.203125
1696245823667,-0.73706055,-0.07354736,0.7855835,-0.65625,2.078125,0.78125
1696245823708,-0.7351074,-0.050842285,0.78045654,2.96875,0.65625,1.328125
1696245823764,-0.7495117,-0.07281494,0.8173218,6.359375,-1.171875,3.703125
1696245823805,-0.70581055,-0.0803833,0.76849365,3.65625,-0.25,3.578125
1696245823825,-0.70166016,-0.07086182,0.7704468,1.59375,0.609375,1.78125
1696245823865,-0.69873047,-0.07110596,0.7675171,-0.09375,1.125,0.234375
1696245823906,-0.70996094,-0.06817627,0.77752686,-0.875,0.15625,-1.25
1696245823964,-0.72216797,-0.061828613,0.7904663,-0.578125,0.953125,-0.53125
1696245824006,-0.70751953,-0.066223145,0.7807007,-0.71875,0.59375,-0.984375
1696245824024,-0.71972656,-0.057434082,0.7843628,-0.84375,-0.375,-1.0625
1696245824087,-0.7155762,-0.07281494,0.7819214,-1.171875,0.3125,-1.140625
1696245824106,-0.7077637,-0.07183838,0.7880249,-1.015625,-0.296875,-1.375
1696245824145,-0.720459,-0.07525635,0.8024292,-0.765625,-1.09375,-1.75
1696245824209,-0.6945801,-0.049865723,0.77215576,-1.875,-0.6875,-1.859375
1696245824224,-0.70410156,-0.026184082,0.7572632,0.109375,-1.421875,-0.515625
1696245824287,-0.71533203,-0.0413208,0.77923584,1.890625,-4.046875,1.34375
1696245824325,-0.7109375,-0.07232666,0.7616577,2.671875,-3.640625,1.6875
1696245824344,-0.72021484,-0.06915283,0.7579956,1.46875,-2.515625,1.90625
1696245824409,-0.69970703,-0.04547119,0.75701904,0.578125,-4.359375,0.96875
1696245824424,-0.71533203,-0.050842285,0.76190186,-1.578125,-5.34375,-0.78125
1696245824445,-0.7504883,-0.057922363,0.78289795,-2.921875,-3.0625,-1.203125
1696245824489,-0.74853516,-0.06329346,0.77948,-2.8125,-1.03125,-1.25
1696245824525,-0.7285156,-0.069885254,0.7731323,-2.484375,0.0625,-1.34375
1696245824566,-0.7385254,-0.0647583,0.77923584,-0.875,-0.625,-0.828125
1696245824607,-0.74121094,-0.07086182,0.77996826,-0.203125,-0.3125,0.25
1696245824647,-0.74316406,-0.062561035,0.7814331,0.015625,-0.328125,1.0
1696245824686,-0.7421875,-0.05206299,0.76727295,0.203125,0.203125,0.71875
1696245824726,-0.7331543,-0.049865723,0.77142334,0.296875,1.03125,0.484375
1696245824767,-0.7290039,-0.055236816,0.7675171,-0.6875,1.0625,-0.09375
1696245824807,-0.73413086,-0.06109619,0.79364014,-0.1875,0.65625,0.375
1696245824847,-0.74658203,-0.059387207,0.80755615,-0.140625,0.1875,0.71875
1696245824887,-0.71362305,-0.057922363,0.76556396,-1.296875,1.640625,-0.125
1696245824927,-0.73706055,-0.077941895,0.8043823,-0.578125,1.5625,0.796875
1696245824967,-0.7307129,-0.08331299,0.8043823,-0.484375,2.046875,0.671875
1696245825004,-0.7314453,-0.054016113,0.7975464,-0.59375,2.421875,0.640625
1696245825046,-0.7270508,-0.038146973,0.78460693,-0.296875,2.203125,0.859375
1696245825088,-0.7312012,-0.050598145,0.80804443,2.828125,1.359375,1.90625
1696245825127,-0.71435547,-0.07965088,0.8041382,3.28125,0.984375,2.1875
1696245825166,-0.6953125,-0.081848145,0.7855835,3.34375,0.265625,2.03125
1696245825209,-0.69799805,-0.07501221,0.7692261,1.46875,-0.90625,-0.28125
1696245825245,-0.71533203,-0.06109619,0.7958374,1.078125,0.125,-0.203125
1696245825287,-0.7145996,-0.06304932,0.7789917,0.5625,0.625,0.171875
1696245825326,-0.6989746,-0.06109619,0.77923584,0.640625,0.375,0.46875
1696245825368,-0.7038574,-0.07159424,0.7848511,0.65625,0.09375,-0.09375
1696245825406,-0.70751953,-0.07525635,0.793396,0.46875,0.078125,-0.234375
1696245825445,-0.71850586,-0.07672119,0.8016968,0.796875,-0.78125,-0.03125
1696245825484,-0.7121582,-0.0725708,0.78704834,-0.21875,0.109375,-0.78125
1696245825526,-0.69433594,-0.062805176,0.7653198,-0.34375,0.21875,-0.84375
1696245825566,-0.7138672,-0.07354736,0.82562256,1.390625,-2.890625,-0.203125
1696245825608,-0.7080078,-0.058898926,0.76434326,1.453125,-3.515625,0.671875
1696245825646,-0.69799805,-0.06085205,0.7509155,2.4375,-4.640625,1.578125
1696245825684,-0.71313477,-0.07745361,0.7699585,1.53125,-4.828125,2.8125
1696245825725,-0.7133789,-0.07086182,0.74334717,-1.0,-4.65625,1.625
1696245825744,-0.7248535,-0.07989502,0.7675171,-1.265625,-4.828125,0.046875
1696245825785,-0.72265625,-0.07574463,0.7802124,-3.28125,-3.53125,-1.625
1696245825828,-0.748291,-0.05596924,0.7675171,-4.375,-1.734375,-1.953125
1696245825867,-0.75341797,-0.06549072,0.7914429,-2.6875,-0.375,-1.453125
1696245825906,-0.7363281,-0.08917236,0.777771,-2.1875,0.78125,-1.25
1696245825966,-0.7219238,-0.07647705,0.7772827,-1.203125,-0.40625,-1.265625
1696245826006,-0.73657227,-0.058166504,0.78411865,-0.109375,-0.625,-0.609375
1696245826046,-0.7312012,-0.055236816,0.78240967,0.046875,0.625,0.421875
1696245826084,-0.74121094,-0.050842285,0.7836304,0.234375,0.25,0.734375
1696245826126,-0.7248535,-0.0647583,0.76434326,-1.28125,1.703125,0.171875
1696245826144,-0.7416992,-0.070617676,0.7843628,-1.328125,1.578125,0.546875
1696245826186,-0.7390137,-0.062072754,0.7975464,-1.859375,3.234375,-0.46875
1696245826247,-0.7446289,-0.07525635,0.809021,0.109375,1.609375,0.625
1696245826264,-0.7219238,-0.061828613,0.7711792,-1.421875,2.109375,0.6875
1696245826306,-0.72094727,-0.047180176,0.7860718,-1.15625,1.328125,-0.0625
1696245826346,-0.7290039,-0.054748535,0.7953491,-0.25,1.84375,0.5625
1696245826386,-0.7023926,-0.05279541,0.7848511,-0.671875,0.453125,0.125
1696245826434,-0.7092285,-0.05279541,0.77923584,-0.515625,-0.109375,-0.453125
1696245826487,-0.71728516,-0.057678223,0.7965698,-0.265625,0.359375,-1.03125
1696245826504,-0.7246094,-0.055480957,0.791687,-0.125,0.328125,-1.03125
1696245826548,-0.7055664,-0.047668457,0.7838745,-0.8125,0.359375,-0.640625
1696245826587,-0.7270508,-0.039855957,0.7897339,-0.078125,0.046875,-0.109375
1696245826631,-0.70703125,-0.045959473,0.7850952,-0.6875,0.109375,-0.484375
1696245826665,-0.7055664,-0.042785645,0.7860718,-0.78125,-0.15625,-0.671875
1696245826727,-0.7084961,-0.04522705,0.7904663,-1.0625,-0.65625,-1.125
1696245826750,-0.7080078,-0.042785645,0.78411865,-1.5625,0.484375,-0.9375
1696245826786,-0.6953125,-0.02935791,0.76434326,-0.328125,-0.328125,-0.4375
1696245826827,-0.72314453,-0.031799316,0.809021,0.0,-1.5,-0.65625
1696245826869,-0.71484375,-0.035705566,0.78411865,0.09375,-2.953125,-0.234375
1696245826908,-0.6984863,-0.018127441,0.7699585,2.359375,-4.609375,0.28125
1696245826968,-0.73168945,-0.03277588,0.7575073,3.40625,-5.6875,1.671875
1696245827005,-0.7192383,-0.04425049,0.76434326,1.8125,-4.75,2.84375
1696245827047,-0.7116699,-0.0413208,0.7501831,-0.015625,-3.25,2.171875
1696245827051,-0.7285156,-0.06085205,0.77508545,-0.375,-3.484375,0.53125
1696245827106,-0.73583984,-0.05621338,0.7863159,-1.40625,-1.765625,-0.609375
1696245827125,-0.74194336,-0.04083252,0.7855835,-0.890625,-0.796875,0.234375
1696245827168,-0.7348633,-0.046936035,0.7838745,0.125,-0.125,1.015625
1696245827205,-0.7441406,-0.0569458,0.77752686,0.34375,-0.109375,1.34375
1696245827246,-0.7380371,-0.059631348,0.7711792,0.5,-0.09375,0.484375
1696245827286,-0.73217773,-0.062316895,0.7782593,0.296875,0.765625,0.28125
1696245827326,-0.73706055,-0.05303955,0.7626343,-0.5625,0.921875,0.296875
1696245827367,-0.7404785,-0.058898926,0.8048706,-0.921875,1.84375,0.78125
1696245827405,-0.7558594,-0.07086182,0.8114624,-2.078125,3.984375,1.171875
1696245827447,-0.7155762,-0.065979004,0.80023193,-1.578125,2.90625,-0.828125
1696245827486,-0.74609375,-0.059387207,0.81951904,-0.03125,1.65625,0.453125
1696245827525,-0.71606445,-0.066467285,0.78411865,-0.640625,1.234375,-0.28125
1696245827566,-0.72314453,-0.051574707,0.79486084,0.75,2.390625,0.359375
1696245827605,-0.7089844,-0.058410645,0.7999878,3.578125,3.140625,1.53125
1696245827645,-0.701416,-0.055725098,0.77337646,3.515625,2.890625,1.625
1696245827687,-0.71850586,-0.061340332,0.7977905,5.125,2.84375,1.546875
1696245827729,-0.6982422,-0.06500244,0.78240967,3.921875,2.4375,1.59375
1696245827769,-0.69091797,-0.070373535,0.7887573,1.546875,1.234375,0.484375
1696245827807,-0.6921387,-0.06695557,0.79852295,1.0,0.671875,0.09375
1696245827848,-0.69384766,-0.0647583,0.79730225,-0.671875,-0.28125,-1.359375
1696245827887,-0.7019043,-0.06573486,0.7970581,-0.421875,-0.21875,-0.984375
1696245827925,-0.6948242,-0.06866455,0.79315186,-0.25,-1.09375,-0.75
1696245827967,-0.69091797,-0.0647583,0.78118896,-0.515625,-1.96875,-0.640625
1696245828006,-0.69262695,-0.057922363,0.79437256,-0.46875,-3.59375,-0.328125
1696245828066,-0.70410156,-0.042053223,0.79241943,0.5625,-4.90625,0.625
1696245828085,-0.68066406,-0.047912598,0.7357788,-1.765625,-7.734375,-0.046875
1696245828126,-0.72509766,-0.04888916,0.7670288,-3.203125,-9.5,-0.125
1696245828166,-0.7258301,-0.06939697,0.7848511,-3.140625,-5.28125,-0.546875
1696245828206,-0.7355957,-0.070617676,0.7868042,-3.84375,-3.4375,-1.390625
1696245828246,-0.7397461,-0.04473877,0.78289795,-1.5,-2.484375,-1.078125
1696245828287,-0.7351074,-0.044006348,0.7999878,0.109375,-0.53125,0.890625
1696245828326,-0.72631836,-0.0635376,0.77020264,0.078125,-0.25,2.140625
1696245828365,-0.73046875,-0.061584473,0.763855,0.015625,-0.46875,1.046875
1696245828385,-0.73779297,-0.06744385,0.7809448,0.109375,0.0625,-0.03125
1696245828447,-0.7397461,-0.062561035,0.7723999,0.484375,0.390625,0.28125
1696245828465,-0.73168945,-0.04547119,0.77508545,0.375,0.671875,1.125
1696245828507,-0.73706055,-0.047668457,0.7772827,0.25,0.53125,1.09375
1696245828546,-0.7355957,-0.06573486,0.777771,0.0625,0.359375,1.03125
1696245828609,-0.7355957,-0.06842041,0.7904663,-1.203125,1.453125,0.171875
1696245828625,-0.74365234,-0.08087158,0.82147217,-0.703125,3.390625,0.359375
1696245828668,-0.7141113,-0.055480957,0.7850952,-1.625,2.21875,-0.03125
1696245828725,-0.70825195,-0.040100098,0.76312256,-2.0625,2.484375,-0.265625
1696245828745,-0.74316406,-0.04107666,0.81414795,-0.203125,0.484375,-0.25
1696245828811,-0.7097168,-0.07159424,0.77752686,-0.71875,0.578125,-0.359375
1696245828824,-0.7084961,-0.0569458,0.7897339,-0.265625,0.109375,-0.0625
1696245828889,-0.7138672,-0.018371582,0.789978,0.921875,0.015625,-0.625
1696245828904,-0.7233887,-0.047668457,0.79022217,1.984375,1.265625,1.28125
1696245828946,-0.71484375,-0.06109619,0.8070679,2.46875,1.140625,1.359375
1696245828988,-0.701416,-0.073791504,0.78826904,1.9375,1.34375,0.90625
1696245829025,-0.7036133,-0.055236816,0.7970581,1.21875,1.828125,0.203125
1696245829066,-0.701416,-0.066223145,0.80633545,1.484375,1.8125,0.15625
1696245829106,-0.7019043,-0.05279541,0.7860718,1.390625,2.125,0.234375
1696245829148,-0.6960449,-0.046447754,0.79193115,1.765625,0.75,0.421875
1696245829188,-0.6982422,-0.046203613,0.791687,1.890625,-0.890625,0.1875
1696245829246,-0.69555664,-0.042541504,0.79071045,2.734375,-2.859375,0.671875
1696245829286,-0.6970215,-0.054260254,0.7772827,2.125,-5.0625,0.859375
1696245829326,-0.6923828,-0.06524658,0.75408936,1.640625,-4.953125,1.78125
1696245829344,-0.6911621,-0.0725708,0.7362671,-0.421875,-6.546875,2.0625
1696245829410,-0.7006836,-0.066467285,0.74139404,-4.78125,-6.59375,-0.890625
1696245829427,-0.7570801,-0.08258057,0.79901123,-3.828125,-5.828125,-2.109375
1696245829485,-0.7390137,-0.06719971,0.79119873,-3.9375,-1.90625,-1.78125
1696245829504,-0.7429199,-0.04815674,0.78338623,-2.53125,-0.8125,-1.375
1696245829544,-0.7392578,-0.054992676,0.7860718,-0.859375,-0.609375,-0.71875
1696245829584,-0.73828125,-0.06109619,0.7872925,0.3125,-0.421875,0.515625
1696245829624,-0.73461914,-0.07501221,0.77923584,-0.4375,-0.046875,0.640625
1696245829686,-0.72875977,-0.054748535,0.7723999,-0.453125,0.59375,0.1875
1696245829691,-0.73461914,-0.047424316,0.7731323,-0.046875,0.3125,0.171875
1696245829728,-0.73706055,-0.049621582,0.7814331,-0.28125,0.421875,0.546875
1696245829764,-0.7446289,-0.055236816,0.79071045,-0.96875,0.9375,0.34375
1696245829807,-0.7348633,-0.06964111,0.7850952,-1.34375,2.109375,0.546875
1696245829845,-0.7282715,-0.07330322,0.79193115,-0.625,1.734375,0.4375
1696245829885,-0.73217773,-0.062072754,0.7941284,-0.640625,2.0,0.1875
1696245829932,-0.7426758,-0.06549072,0.79901123,-0.8125,2.765625,0.71875
1696245829965,-0.7392578,-0.04937744,0.8278198,1.609375,0.515625,1.1875
1696245830006,-0.70751953,-0.051086426,0.81292725,2.875,3.5,1.34375
1696245830045,-0.71606445,-0.057434082,0.81781006,6.0625,1.6875,3.0
1696245830087,-0.70751953,-0.086242676,0.7597046,3.140625,1.140625,1.671875
1696245830126,-0.70874023,-0.06036377,0.7736206,2.375,1.1875,0.328125
1696245830166,-0.70458984,-0.07501221,0.80389404,2.9375,2.296875,0.640625
1696245830208,-0.6921387,-0.0869751,0.7826538,1.03125,0.265625,-0.234375
1696245830244,-0.701416,-0.059631348,0.79241943,0.390625,-0.21875,-0.203125
1696245830286,-0.6940918,-0.06329346,0.7897339,0.34375,0.1875,-0.015625
1696245830331,-0.7006836,-0.07696533,0.7921753,-0.171875,-1.453125,-0.53125
1696245830366,-0.70581055,-0.073791504,0.795105,0.46875,-2.046875,-0.453125
1696245830408,-0.70092773,-0.042785645,0.7836304,-0.046875,-4.734375,-0.453125
1696245830445,-0.689209,-0.047424316,0.744812,0.796875,-7.03125,0.46875
1696245830486,-0.7055664,-0.08282471,0.76116943,1.75,-5.859375,2.203125
1696245830526,-0.7092285,-0.082092285,0.7399292,-1.53125,-4.28125,1.015625
1696245830568,-0.7128906,-0.0803833,0.7680054,-3.265625,-6.171875,-1.046875
1696245830609,-0.7468262,-0.06378174,0.8007202,-4.875,-4.96875,-2.453125
1696245830645,-0.73779297,-0.05596924,0.77508545,-4.8125,-0.703125,-2.75
1696245830689,-0.75439453,-0.06011963,0.79437256,-2.15625,-0.703125,-1.5
1696245830726,-0.74731445,-0.06964111,0.7863159,-0.625,0.25,-0.828125
1696245830767,-0.73583984,-0.061584473,0.77093506,-0.765625,0.125,-0.234375
1696245830805,-0.7314453,-0.05328369,0.77630615,-0.0625,-0.734375,-0.359375
1696245830847,-0.74121094,-0.057922363,0.77142334,0.234375,0.328125,0.3125
1696245830886,-0.7380371,-0.05230713,0.7723999,0.171875,1.015625,0.796875
1696245830927,-0.73339844,-0.058410645,0.7748413,-0.8125,1.859375,0.5
1696245830968,-0.73999023,-0.06744385,0.793396,-2.171875,3.984375,0.40625
1696245831005,-0.7363281,-0.07672119,0.8143921,-0.5,2.21875,0.71875
1696245831046,-0.7392578,-0.061584473,0.7921753,-1.59375,2.59375,0.53125
1696245831067,-0.73461914,-0.046203613,0.81170654,1.578125,1.796875,1.328125
1696245831127,-0.70410156,-0.054016113,0.79730225,2.875,3.125,2.671875
1696245831145,-0.7150879,-0.074035645,0.7682495,3.6875,4.4375,4.796875
1696245831210,-0.71875,-0.077941895,0.8004761,3.71875,1.03125,2.40625
1696245831225,-0.71655273,-0.06500244,0.795105,2.515625,3.609375,1.703125
1696245831267,-0.6699219,-0.078186035,0.7543335,1.28125,3.28125,0.09375
1696245831329,-0.70947266,-0.06500244,0.81707764,1.5,0.59375,0.1875
1696245831365,-0.6923828,-0.081848145,0.7868042,-0.296875,-0.515625,-0.53125
1696245831386,-0.6875,-0.066467285,0.7963257,-1.453125,-2.03125,-1.296875
1696245831426,-0.69311523,-0.06451416,0.7926636,-0.984375,-3.203125,-1.25
1696245831466,-0.6894531,-0.07281494,0.79022217,-0.140625,-2.890625,-0.140625
1696245831527,-0.70532227,-0.089416504,0.8004761,0.921875,-1.8125,1.0
1696245831564,-0.6994629,-0.07501221,0.78289795,-0.140625,-1.28125,0.828125
1696245831604,-0.70996094,-0.06866455,0.7929077,-0.15625,-1.34375,0.34375
