,timestamp,accel_x,accel_y,accel_z,gyro_x,gyro_y,gyro_z,ind
0,1696245583736,-0.056152344,-0.9866333,-0.019104004,-5.1875,5.6875,-0.5625,0
1,1696245583776,-0.04711914,-0.97052,0.007507324,-0.609375,6.125,-0.21875,1
2,1696245583816,-0.04248047,-0.99224854,0.006286621,0.828125,5.65625,0.640625,2
3,1696245583856,-0.060058594,-0.9585571,0.0067749023,-0.5,1.03125,-0.109375,3
4,1696245583896,-0.052490234,-0.9890747,0.027770996,0.859375,2.640625,0.171875,4
5,1696245583936,-0.048095703,-0.97857666,-0.0095825195,-1.78125,-1.3125,-0.5625,5
6,1696245583976,-0.056884766,-0.9663696,0.00091552734,-0.71875,-2.34375,-0.21875,6
7,1696245584016,-0.049560547,-0.9578247,0.015075684,0.875,-2.25,1.15625,7
8,1696245584056,-0.061767578,-0.90753174,-0.044006348,3.3125,-5.515625,1.234375,8
9,1696245584096,-0.036132812,-0.973938,-0.0076293945,2.671875,-5.765625,0.9375,9
10,1696245584136,-0.048583984,-1.0432739,0.042907715,2.4375,-3.875,1.578125,10
11,1696245584176,-0.05859375,-1.0039673,0.0036010742,2.4375,-3.609375,0.640625,11
12,1696245584216,-0.068359375,-0.9512329,-0.012268066,-4.171875,-12.578125,-1.015625,12
13,1696245584256,-0.048583984,-0.99176025,0.020446777,-0.046875,-10.484375,0.296875,13
14,1696245584296,-0.013916016,-0.99957275,-0.0095825195,-9.265625,-5.9375,-2.765625,14
15,1696245584336,-0.08862305,-1.0117798,0.013122559,-2.796875,-7.65625,-0.734375,15
16,1696245584376,-0.048828125,-0.99591064,0.032409668,-0.296875,-4.609375,-0.46875,16
17,1696245584416,-0.056884766,-0.99005127,0.039733887,0.03125,-1.25,0.375,17
18,1696245584456,-0.05029297,-0.99346924,0.057556152,0.90625,1.5,0.875,18
19,1696245584496,-0.063964844,-1.0110474,0.039978027,0.703125,1.828125,0.828125,19
20,1696245584536,-0.06713867,-1.0227661,0.062683105,1.59375,4.234375,1.453125,20
21,1696245584576,-0.099609375,-1.050354,0.04901123,5.09375,2.578125,2.8125,21
22,1696245584616,-0.041992188,-0.9793091,-0.0071411133,-7.46875,2.21875,-0.71875,22
23,1696245584656,-0.044433594,-0.9702759,0.018493652,-5.21875,2.875,-2.390625,23
24,1696245584696,-0.022216797,-0.9939575,0.025817871,-1.09375,1.21875,-0.453125,24
25,1696245584736,-0.037841797,-0.9805298,0.024597168,-0.078125,5.078125,-0.28125,25
26,1696245584776,-0.04272461,-0.9927368,0.023620605,0.375,3.96875,-0.828125,26
27,1696245584816,-0.05908203,-0.98394775,0.04876709,2.953125,3.328125,0.53125,27
28,1696245584856,-0.06347656,-0.9690552,-0.01739502,-2.453125,4.015625,-0.546875,28
29,1696245584896,-0.071777344,-0.98638916,0.04925537,2.625,3.625,1.0625,29
30,1696245584936,-0.064453125,-0.9834595,0.0026245117,-0.0625,0.859375,0.25,30
31,1696245584976,-0.037109375,-0.956604,0.018249512,0.578125,0.421875,0.390625,31
32,1696245585016,-0.036865234,-0.958313,0.0060424805,2.59375,-1.265625,1.6875,32
33,1696245585056,-0.05810547,-0.92633057,-0.02911377,5.359375,-4.34375,1.078125,33
34,1696245585096,-0.026367188,-0.97442627,0.008972168,8.484375,-5.890625,0.796875,34
35,1696245585136,-0.04736328,-1.0130005,0.022399902,2.4375,-4.484375,1.46875,35
36,1696245585176,-0.048828125,-0.9968872,-0.028869629,1.734375,-5.5,1.03125,36
37,1696245585216,-0.052001953,-0.9536743,-0.027893066,-2.25,-13.203125,-2.46875,37
38,1696245585256,-0.052978516,-1.0095825,0.06414795,3.765625,-7.875,1.09375,38
39,1696245585296,-0.05102539,-1.0083618,-0.023742676,-1.015625,-5.703125,0.78125,39
40,1696245585336,-0.06933594,-0.9866333,-0.0076293945,-1.03125,-7.875,0.1875,40
41,1696245585376,-0.016357422,-0.9885864,-0.00030517578,-1.75,-3.828125,-0.4375,41
42,1696245585416,-0.03857422,-0.9951782,0.0067749023,-3.25,-2.859375,1.03125,42
43,1696245585456,-0.053710938,-0.9890747,0.01361084,-2.140625,-0.890625,0.359375,43
44,1696245585496,-0.060302734,-1.0215454,0.04095459,0.515625,2.21875,1.28125,44
45,1696245585536,-0.05810547,-1.0164185,0.06365967,2.4375,5.140625,1.609375,45
46,1696245585576,-0.037353516,-1.0122681,-0.0017700195,0.328125,2.765625,-0.296875,46
47,1696245585616,-0.036621094,-0.9819946,0.0028686523,-5.15625,4.203125,-1.65625,47
48,1696245585656,-0.07006836,-0.9949341,0.0021362305,-4.75,6.90625,-1.921875,48
49,1696245585696,-0.055419922,-0.99468994,0.0099487305,-0.609375,6.671875,-1.3125,49
50,1696245585736,-0.045654297,-0.99053955,0.0028686523,0.453125,5.015625,-0.921875,50
51,1696245585776,-0.037353516,-0.9817505,0.02923584,0.09375,3.578125,-0.75,51
52,1696245585816,-0.052734375,-0.9981079,0.010925293,-0.6875,2.640625,-0.546875,52
53,1696245585856,-0.068847656,-0.9824829,0.004333496,-1.046875,1.34375,-0.421875,53
54,1696245585896,-0.063964844,-0.98443604,0.005065918,-0.671875,1.53125,-0.546875,54
55,1696245585936,-0.06274414,-0.9746704,-0.00982666,-0.984375,0.75,-0.0625,55
56,1696245585976,-0.05078125,-0.9651489,0.031188965,3.578125,-2.34375,0.890625,56
57,1696245586016,-0.056396484,-0.9404907,-0.039123535,-2.96875,-1.703125,0.453125,57
58,1696245586056,-0.046875,-0.93707275,-0.04473877,8.734375,-4.078125,2.734375,58
59,1696245586096,-0.041992188,-1.0195923,0.058532715,4.796875,-4.265625,1.109375,59
60,1696245586136,-0.064697266,-1.006897,0.0040893555,-0.46875,3.9375,1.859375,121
61,1696245586176,-0.075927734,-1.0010376,0.05682373,5.84375,6.609375,3.015625,122
62,1696245586216,-0.05419922,-0.9944458,0.01727295,3.1875,4.75,1.890625,123
63,1696245586256,-0.01586914,-0.9780884,0.028747559,-0.546875,3.515625,0.6875,124
64,1696245586296,-0.06347656,-1.0181274,0.013122559,-4.65625,1.578125,-0.328125,125
65,1696245586336,-0.052001953,-1.0029907,0.023620605,-3.109375,4.703125,-1.0,126
66,1696245586376,-0.044677734,-0.99176025,0.010925293,-1.796875,5.78125,-0.296875,127
67,1696245586416,-0.03881836,-0.9939575,0.024597168,1.46875,5.9375,0.921875,128
68,1696245586456,-0.037353516,-0.99176025,0.01751709,3.34375,5.15625,1.859375,129
69,1696245586496,-0.061767578,-0.98223877,0.008728027,2.734375,3.96875,1.5625,130
70,1696245586536,-0.060546875,-0.96759033,-0.0037231445,1.71875,2.484375,1.09375,131
71,1696245586576,-0.044189453,-0.97491455,-0.008117676,0.390625,1.875,0.765625,132
72,1696245586616,-0.033447266,-0.9758911,0.008972168,1.796875,0.84375,0.421875,133
73,1696245586656,-0.053466797,-0.9727173,0.01776123,2.796875,-0.890625,0.71875,134
74,1696245586696,-0.044921875,-0.94000244,-0.007873535,1.59375,-2.171875,0.96875,135
75,1696245586736,-0.02734375,-0.9446411,-0.05328369,6.4375,-2.515625,1.46875,136
76,1696245586776,-0.024902344,-0.99420166,0.00970459,5.09375,-0.5625,1.796875,137
77,1696245586816,-0.045410156,-0.9968872,-0.023986816,2.578125,0.328125,3.546875,138
78,1696245586856,-0.029296875,-0.96466064,-0.018615723,1.90625,-3.640625,2.265625,139
79,1696245586896,-0.033935547,-0.98809814,-0.011047363,0.765625,-3.53125,1.484375,140
80,1696245586936,-0.022705078,-1.0073853,-0.00079345703,-1.21875,-1.046875,0.828125,141
81,1696245586976,-0.055908203,-0.9768677,-0.030090332,-3.96875,-6.953125,-0.59375,142
82,1696245587016,-0.023925781,-0.9614868,-0.0491333,-8.71875,-10.453125,-2.796875,143
83,1696245587056,-0.026367188,-0.99835205,0.026550293,-3.8125,-5.96875,-1.984375,144
84,1696245587096,-0.032470703,-1.0403442,0.010192871,-4.71875,-6.828125,-1.59375,145
85,1696245587136,-0.016357422,-1.005188,0.02557373,-1.3125,-3.203125,-0.296875,146
86,1696245587176,-0.031982422,-0.9812622,-0.007873535,-1.15625,-3.421875,0.65625,147
87,1696245587216,-0.026611328,-0.98321533,0.013122559,-0.171875,-2.203125,1.359375,148
88,1696245587256,-0.048339844,-1.0044556,0.018981934,-1.75,-1.796875,0.71875,149
89,1696245587296,-0.029541016,-1.0252075,0.061462402,2.625,4.90625,2.296875,150
90,1696245587336,-0.033691406,-1.0186157,0.036071777,1.40625,5.140625,1.96875,151
91,1696245587376,0.00048828125,-1.0037231,0.018493652,3.984375,5.546875,1.21875,152
92,1696245587416,-0.017578125,-0.975647,0.00579834,-4.15625,2.546875,-0.453125,153
93,1696245587456,-0.056884766,-1.0142212,0.03729248,-3.0625,5.0,-0.703125,154
94,1696245587496,-0.04321289,-1.0064087,-0.0012817383,-3.15625,5.015625,-1.71875,155
95,1696245587536,-0.029052734,-0.9717407,0.016540527,-0.578125,4.3125,-2.578125,156
96,1696245587576,-0.018310547,-0.99005127,0.020446777,1.03125,3.265625,-0.09375,157
97,1696245587616,-0.04272461,-0.9763794,0.005065918,-0.28125,1.03125,-0.796875,158
98,1696245587656,-0.042236328,-0.9834595,0.015808105,0.5,2.25,-0.25,159
99,1696245587696,-0.044677734,-0.9795532,-0.0017700195,1.515625,0.15625,0.28125,160
100,1696245587736,-0.04638672,-0.98516846,0.0040893555,2.515625,0.890625,0.515625,161
101,1696245587776,-0.05029297,-0.9692993,0.006286621,1.53125,0.53125,0.59375,162
102,1696245587816,-0.044921875,-0.9585571,0.0053100586,2.3125,-1.1875,1.0,163
103,1696245587856,-0.037841797,-0.960022,-0.018371582,1.859375,-3.15625,0.609375,164
104,1696245587896,-0.022216797,-0.94659424,-0.003479004,2.53125,-2.3125,1.078125,165
105,1696245587936,-0.041992188,-0.98883057,0.010681152,2.515625,-1.65625,0.90625,166
106,1696245587976,-0.038330078,-0.97052,-0.028869629,-3.53125,-8.109375,-0.34375,167
107,1696245588016,-0.036132812,-0.9512329,0.031433105,-5.984375,-5.8125,-0.765625,168
108,1696245588056,-0.05517578,-1.0457153,0.035583496,-1.171875,-1.921875,0.171875,169
109,1696245588096,-0.034179688,-1.0076294,0.00091552734,-7.359375,-7.3125,-1.109375,170
110,1696245588136,-0.026123047,-0.9651489,0.021911621,-3.59375,-9.078125,-0.609375,171
111,1696245588176,-0.041015625,-0.987854,0.04925537,-4.140625,-7.40625,-1.171875,172
112,1696245588216,-0.018310547,-1.0029907,0.00970459,-8.515625,-6.015625,-1.96875,173
113,1696245588256,-0.055664062,-1.0054321,0.054626465,-5.765625,-6.25,-2.484375,174
114,1696245588296,-0.036376953,-0.99053955,0.06341553,-0.796875,-4.890625,-1.0625,175
115,1696245588336,-0.05883789,-0.9807739,0.054626465,-1.390625,-3.75,-0.34375,176
116,1696245588376,-0.05078125,-0.9871216,0.061950684,0.5,-1.40625,0.15625,177
117,1696245588416,-0.044677734,-0.99346924,0.06903076,-0.921875,-1.3125,-0.46875,178
118,1696245588456,-0.049316406,-0.99713135,0.089538574,0.9375,1.1875,0.421875,179
119,1696245588496,-0.045654297,-1.0164185,0.09124756,2.703125,2.9375,0.875,180
120,1696245588536,-0.056640625,-1.0010376,0.08074951,3.09375,2.34375,0.75,181
121,1696245588576,-0.056396484,-0.987854,0.06121826,3.734375,4.234375,0.671875,182
122,1696245588616,-0.05493164,-0.99786377,0.023132324,-4.546875,4.828125,-2.359375,183
123,1696245588656,-0.05810547,-0.99346924,0.040222168,-2.03125,3.53125,-1.03125,184
124,1696245588696,-0.05493164,-0.989563,0.039733887,-1.34375,3.796875,-0.796875,185
125,1696245588736,-0.05859375,-0.99053955,0.053649902,-0.4375,6.484375,-0.234375,186
126,1696245588776,-0.0637207,-1.0007935,0.05731201,1.953125,4.953125,0.828125,187
127,1696245588816,-0.059570312,-0.9805298,0.06072998,1.46875,4.625,-0.046875,188
128,1696245588856,-0.047607422,-0.9976196,0.053649902,3.609375,5.3125,-0.203125,189
129,1696245588896,-0.057373047,-1.00177,0.01727295,2.703125,3.84375,-0.09375,190
130,1696245588936,-0.057128906,-0.98687744,0.020690918,1.53125,2.6875,-0.28125,191
131,1696245588976,-0.064208984,-0.9793091,0.022644043,1.625,2.734375,0.84375,192
132,1696245589016,-0.056640625,-0.98809814,0.024353027,1.625,2.46875,1.421875,193
133,1696245589056,-0.04248047,-0.9932251,0.039978027,0.953125,2.09375,1.640625,194
134,1696245589096,-0.052734375,-0.9854126,0.02923584,0.828125,-0.578125,1.234375,195
135,1696245589136,-0.05517578,-0.9517212,0.039245605,3.171875,-3.515625,0.90625,196
136,1696245589176,-0.029296875,-0.9336548,-0.044006348,-1.1875,-4.578125,-0.109375,197
137,1696245589216,-0.045166016,-0.9968872,0.06585693,3.34375,-3.796875,1.828125,198
138,1696245589256,-0.041992188,-0.99786377,0.030944824,-0.15625,-1.875,0.5625,199
139,1696245589296,-0.05810547,-0.96295166,0.0026245117,-5.84375,-6.359375,-1.296875,200
140,1696245589336,-0.06225586,-0.9500122,-0.020568848,-9.25,-13.484375,-2.734375,201
141,1696245589376,-0.057861328,-1.013977,0.07098389,-8.234375,-12.796875,-3.484375,202
142,1696245589416,-0.04321289,-1.05719,0.08319092,-7.890625,-8.6875,-2.984375,203
143,1696245589456,-0.068847656,-0.99176025,0.06878662,-2.921875,-5.859375,-0.71875,204
144,1696245589496,-0.052246094,-0.9783325,0.066833496,1.03125,-4.53125,0.046875,205
145,1696245589536,-0.041503906,-0.986145,0.07904053,0.75,-1.40625,0.375,206
146,1696245589576,-0.08520508,-1.0054321,0.055847168,0.109375,-1.453125,0.9375,207
147,1696245589616,-0.06201172,-0.9976196,0.070251465,1.75,-1.125,0.84375,208
148,1696245589656,-0.047851562,-0.9627075,0.058532715,1.0625,-1.109375,1.546875,209
149,1696245589696,-0.05126953,-0.9902954,0.07928467,-0.203125,-0.15625,2.15625,210
150,1696245589736,-0.07299805,-0.9920044,0.08514404,1.65625,-0.84375,2.171875,211
151,1696245589776,-0.02758789,-1.0064087,0.07562256,0.71875,4.453125,1.890625,212
152,1696245589816,-0.064941406,-0.99542236,0.08905029,3.078125,3.421875,2.25,213
153,1696245589856,-0.04663086,-0.99176025,0.06317139,3.734375,2.28125,2.609375,214
154,1696245589896,-0.056640625,-0.97906494,0.054626465,-0.40625,4.65625,0.625,215
155,1696245589936,-0.05053711,-1.0178833,0.06854248,0.09375,7.5625,1.125,216
156,1696245589976,-0.053466797,-0.9951782,0.055358887,0.921875,8.515625,0.625,217
157,1696245590016,-0.05517578,-0.9819946,0.049987793,1.453125,7.40625,-0.46875,218
158,1696245590056,-0.05444336,-0.9758911,0.04119873,4.53125,6.953125,0.109375,219
159,1696245590096,-0.040771484,-0.9793091,0.031677246,3.765625,5.734375,0.015625,220
160,1696245590136,-0.045166016,-0.98443604,0.04046631,3.875,3.828125,-0.203125,221
161,1696245590176,-0.044677734,-0.9841919,0.025817871,2.609375,2.46875,-0.28125,222
162,1696245590216,-0.055419922,-0.98883057,0.028503418,1.25,1.5,-0.03125,223
163,1696245590256,-0.03491211,-0.9866333,0.016540527,1.578125,0.78125,-0.265625,224
164,1696245590296,-0.05883789,-0.97247314,0.045837402,2.625,-1.734375,-0.328125,225
165,1696245590336,-0.04272461,-0.9751587,-0.023986816,-2.15625,-0.125,-1.078125,226
166,1696245590376,-0.056640625,-0.95880127,0.025817871,1.921875,-1.640625,0.375,227
167,1696245590416,-0.047851562,-0.9834595,0.01727295,1.265625,-0.4375,0.765625,228
168,1696245590456,-0.041748047,-0.9898071,0.025817871,2.671875,-1.65625,-0.171875,229
169,1696245590496,-0.05444336,-0.95196533,-0.0020141602,0.546875,-5.828125,0.046875,230
170,1696245590536,-0.04663086,-0.9590454,-0.021057129,-1.453125,-8.234375,-0.328125,231
171,1696245590576,-0.045410156,-0.9714966,0.014099121,-4.640625,-12.796875,-3.0625,232
172,1696245590616,-0.072753906,-1.069397,0.074645996,3.59375,-5.3125,1.390625,233
173,1696245590656,-0.049804688,-1.0254517,-0.0012817383,-0.71875,-7.84375,-0.546875,234
174,1696245590696,-0.0390625,-0.9585571,-0.003479004,-0.640625,-6.0,-0.296875,235
175,1696245590736,-0.044189453,-0.9783325,0.028259277,-2.375,-6.796875,-0.21875,236
176,1696245590776,-0.0625,-0.9902954,0.027038574,-0.78125,-3.59375,0.1875,237
177,1696245590816,-0.028808594,-0.9885864,0.0065307617,0.375,-4.28125,-0.296875,238
178,1696245590856,-0.04321289,-0.9668579,0.04876709,-0.1875,-0.953125,0.296875,239
179,1696245590896,-0.06665039,-1.0271606,0.038757324,0.234375,-0.765625,1.46875,240
180,1696245590936,-0.061767578,-0.9783325,0.011169434,-0.65625,-0.171875,-0.0625,241
181,1696245590976,-0.06958008,-0.99835205,0.04119873,1.15625,0.625,1.453125,242
182,1696245591016,-0.052001953,-1.000061,0.030700684,-0.15625,0.578125,1.28125,243
183,1696245591056,-0.020507812,-1.0283813,0.06121826,0.90625,5.109375,2.390625,244
184,1696245591096,-0.063964844,-1.0095825,0.029724121,0.421875,3.8125,2.34375,245
185,1696245591136,-0.022705078,-0.9751587,0.018493652,-0.5,1.734375,1.25,246
186,1696245591176,-0.061523438,-0.99298096,0.04071045,-2.5,3.65625,1.0625,247
187,1696245591216,-0.049316406,-1.0120239,0.0067749023,-0.09375,7.109375,1.265625,248
188,1696245591256,-0.0075683594,-0.9795532,0.012634277,8.171875,10.625,1.28125,249
189,1696245591296,-0.034423828,-0.99713135,0.020446777,8.1875,8.28125,1.375,250
190,1696245591336,-0.057373047,-0.9795532,-0.0020141602,2.484375,3.59375,1.15625,251
191,1696245591376,-0.06274414,-0.97003174,-0.009094238,0.484375,0.5,-0.1875,252
192,1696245591416,-0.06665039,-0.98516846,0.0119018555,-1.5625,2.546875,0.015625,253
193,1696245591456,-0.02758789,-0.973938,-0.039123535,-1.203125,0.984375,0.296875,254
194,1696245591496,-0.029785156,-0.9846802,-0.0049438477,-2.015625,-0.03125,1.234375,255
195,1696245591536,-0.040039062,-0.9849243,0.0099487305,-1.140625,-2.171875,1.390625,256
196,1696245591576,-0.037597656,-0.98223877,0.0026245117,-2.734375,-1.21875,0.234375,257
197,1696245591616,-0.029541016,-0.9915161,0.012390137,-3.078125,0.0,0.453125,258
198,1696245591656,-0.030761719,-0.9795532,-0.0076293945,-1.40625,-2.640625,0.34375,259
199,1696245591696,-0.030761719,-0.95440674,-0.007873535,-1.71875,-4.046875,-0.25,260
200,1696245591736,-0.032714844,-0.9631958,0.0004272461,-1.15625,-1.9375,0.3125,261
201,1696245591776,-0.025878906,-1.0037231,0.015563965,3.1875,-2.765625,-0.375,262
202,1696245591816,-0.026367188,-0.9614868,0.0028686523,-1.453125,-3.65625,-0.859375,263
203,1696245591856,-0.04663086,-0.991272,0.014587402,-2.9375,-5.28125,-0.953125,264
204,1696245591896,-0.041259766,-0.9819946,0.009216309,-6.859375,-9.171875,-2.75,265
205,1696245591936,-0.05517578,-1.0093384,0.047058105,-5.109375,-10.296875,-2.1875,266
206,1696245591976,-0.04663086,-1.0088501,0.062438965,-4.21875,-8.203125,-2.09375,267
207,1696245592016,-0.0234375,-0.987854,0.019714355,-4.515625,-4.0625,-1.03125,268
208,1696245592056,-0.060546875,-0.98101807,0.062194824,-0.234375,-4.25,-0.0625,269
209,1696245592096,-0.06274414,-0.9985962,0.051208496,4.84375,-2.609375,1.6875,270
210,1696245592136,-0.037109375,-0.9939575,0.04510498,3.109375,-0.46875,0.921875,271
211,1696245592176,-0.04272461,-0.98638916,0.035095215,0.828125,-0.53125,1.203125,272
212,1696245592216,-0.047607422,-0.9939575,0.05633545,-0.53125,-0.828125,1.421875,273
213,1696245592256,-0.04736328,-0.987854,0.0524292,-1.34375,-0.9375,0.953125,274
214,1696245592296,-0.043945312,-1.0039673,0.06585693,-1.453125,1.890625,0.359375,275
215,1696245592336,-0.05126953,-1.0127563,0.06756592,-1.734375,3.3125,0.59375,276
216,1696245592376,-0.032470703,-0.99346924,0.04827881,-2.0,2.5625,0.96875,277
217,1696245592416,-0.060546875,-0.9846802,0.070495605,-4.0625,2.5625,0.265625,278
218,1696245592456,-0.052978516,-0.99224854,0.059509277,-4.71875,4.484375,-0.921875,279
219,1696245592496,-0.03857422,-1.006897,0.08001709,-0.46875,6.15625,-0.265625,280
220,1696245592536,-0.05908203,-0.99542236,0.07611084,3.515625,6.71875,0.53125,281
221,1696245592576,-0.036865234,-0.9807739,0.021911621,-0.03125,6.234375,-0.515625,282
222,1696245592616,-0.057617188,-0.9795532,0.06414795,0.484375,4.796875,0.359375,283
223,1696245592656,-0.060302734,-1.0066528,0.06048584,1.03125,5.0625,1.125,284
224,1696245592696,-0.024658203,-0.97662354,0.04486084,-0.171875,3.53125,-0.28125,285
225,1696245592736,-0.048339844,-0.99176025,0.050476074,0.359375,2.078125,0.5,286
226,1696245592776,-0.03491211,-0.9824829,0.053894043,0.328125,2.234375,0.125,287
227,1696245592816,-0.036376953,-0.9800415,0.04046631,-0.34375,0.6875,-0.15625,288
228,1696245592856,-0.037841797,-0.9890747,0.041931152,0.328125,0.0,0.046875,289
229,1696245592896,-0.04248047,-0.9734497,0.047058105,1.28125,-0.3125,0.578125,290
230,1696245592936,-0.04321289,-0.9631958,0.039978027,2.140625,-0.25,0.59375,291
231,1696245592976,-0.04272461,-0.93927,0.026794434,4.484375,-1.828125,1.515625,292
232,1696245593016,-0.046142578,-0.98272705,0.028015137,5.125,0.859375,1.625,293
233,1696245593056,-0.046142578,-1.003479,0.012634277,3.140625,-0.078125,0.28125,294
234,1696245593096,-0.028808594,-0.95635986,0.03265381,1.828125,-4.578125,0.203125,295
235,1696245593136,-0.03466797,-0.9585571,-0.011779785,-7.484375,-6.515625,-2.515625,296
236,1696245593176,-0.052001953,-0.9968872,0.046569824,-8.296875,-9.75,-1.890625,297
237,1696245593216,-0.055908203,-1.0220337,0.05609131,-9.671875,-11.15625,-2.046875,298
238,1696245593256,-0.047607422,-0.9873657,0.06463623,-6.078125,-10.40625,-1.390625,299
239,1696245593296,-0.048339844,-1.0049438,0.07659912,-6.828125,-9.3125,-1.75,300
240,1696245593336,-0.06567383,-1.0193481,0.07928467,0.453125,-4.609375,-0.515625,301
241,1696245593376,-0.060302734,-1.0010376,0.08294678,0.5,-3.328125,-0.390625,302
242,1696245593416,-0.047851562,-0.9668579,0.06414795,2.71875,-1.75,-0.078125,303
243,1696245593456,-0.05908203,-0.99884033,0.08050537,2.734375,0.3125,1.015625,304
244,1696245593496,-0.05444336,-0.99053955,0.074645996,0.921875,-0.5,-0.09375,305
245,1696245593536,-0.067871094,-0.9956665,0.054382324,-0.421875,0.671875,-0.09375,306
246,1696245593576,-0.048095703,-0.9763794,0.090026855,0.53125,3.203125,-0.078125,307
247,1696245593616,-0.04736328,-1.0188599,0.070495605,0.328125,3.125,0.765625,308
248,1696245593656,-0.06738281,-0.98760986,0.09661865,4.90625,2.796875,0.84375,309
249,1696245593696,-0.044433594,-0.98638916,0.062927246,4.21875,4.0625,1.125,310
250,1696245593736,-0.049072266,-0.9849243,0.06390381,0.890625,2.3125,0.578125,311
251,1696245593776,-0.079833984,-1.0015259,0.05316162,-2.359375,2.546875,0.015625,312
252,1696245593816,-0.06518555,-1.0010376,0.049743652,-0.546875,5.515625,0.140625,313
253,1696245593856,-0.05053711,-0.9873657,0.05682373,0.578125,6.15625,0.203125,314
254,1696245593896,-0.061767578,-0.98931885,0.04095459,1.234375,4.15625,0.359375,315
255,1696245593936,-0.057861328,-0.9866333,0.047302246,0.65625,3.296875,0.046875,316
256,1696245593976,-0.060302734,-0.99053955,0.04852295,0.5,2.609375,0.8125,317
257,1696245594016,-0.06201172,-0.9932251,0.039489746,-0.3125,2.421875,0.796875,318
258,1696245594056,-0.052490234,-0.9795532,0.04510498,1.0,1.796875,0.171875,319
259,1696245594096,-0.048095703,-0.9963989,0.043151855,1.9375,1.21875,0.6875,320
260,1696245594136,-0.04638672,-0.9824829,0.038757324,1.28125,0.90625,0.359375,321
261,1696245594176,-0.052978516,-0.98321533,0.04827881,2.765625,0.015625,0.765625,322
262,1696245594216,-0.0546875,-0.9741821,0.03778076,1.96875,1.25,0.109375,323
263,1696245594256,-0.030273438,-0.975647,-0.0025024414,1.265625,-2.703125,0.34375,324
264,1696245594296,-0.05419922,-0.92266846,0.014587402,1.671875,-2.546875,1.40625,325
265,1696245594336,-0.027832031,-1.0247192,0.035095215,9.921875,1.09375,2.46875,326
266,1696245594376,-0.0546875,-0.9834595,0.0099487305,1.421875,-0.296875,0.3125,327
267,1696245594416,-0.03515625,-0.94000244,-0.014709473,-1.28125,-4.921875,0.15625,328
268,1696245594456,-0.06274414,-0.93756104,-0.008361816,-6.921875,-12.8125,-2.5625,329
269,1696245594496,-0.033935547,-1.0696411,0.074401855,-2.15625,-4.640625,0.265625,330
270,1696245594536,-0.06567383,-1.0083618,0.010925293,-8.046875,-6.109375,-0.828125,331
271,1696245594576,-0.06762695,-0.9824829,0.01751709,-4.96875,-8.921875,-1.53125,332
272,1696245594616,-0.06225586,-0.97491455,0.050231934,-0.515625,-8.171875,-0.796875,333
273,1696245594656,-0.042236328,-1.0125122,0.085876465,0.3125,-2.359375,0.375,334
274,1696245594696,-0.05517578,-1.0083618,0.054870605,0.078125,-1.890625,1.125,335
275,1696245594736,-0.057617188,-0.9639282,0.038024902,0.71875,-1.3125,1.671875,336
276,1696245594776,-0.033691406,-0.99102783,0.04046631,2.96875,1.125,3.171875,337
277,1696245594816,-0.043701172,-1.003479,0.0368042,1.75,1.078125,2.046875,338
278,1696245594856,-0.051757812,-0.9824829,0.05731201,3.109375,0.328125,2.078125,339
279,1696245594896,-0.032226562,-0.9780884,0.04437256,-1.203125,0.8125,0.9375,340
280,1696245594936,-0.05517578,-1.0291138,0.08026123,3.40625,4.4375,2.390625,341
281,1696245594976,-0.040039062,-1.0134888,0.041931152,2.625,3.53125,1.203125,342
282,1696245595016,-0.02368164,-0.98516846,0.057800293,4.78125,4.34375,1.40625,343
283,1696245595056,-0.030029297,-1.0020142,0.026794434,-1.921875,4.609375,1.046875,344
284,1696245595096,-0.048095703,-0.9951782,0.02142334,-3.5625,3.015625,-0.203125,345
285,1696245595136,-0.032958984,-0.9915161,0.03289795,-1.671875,5.28125,-0.234375,346
286,1696245595176,-0.043945312,-0.9956665,0.019470215,1.546875,5.578125,-0.453125,347
287,1696245595216,-0.040527344,-0.97247314,0.024841309,2.53125,5.140625,-0.015625,348
288,1696245595256,-0.032714844,-0.9837036,0.014343262,1.484375,2.078125,-0.390625,349
289,1696245595296,-0.04638672,-0.98272705,0.02142334,1.171875,1.953125,0.265625,350
290,1696245595336,-0.04272461,-0.9890747,0.02166748,0.484375,1.484375,0.09375,351
291,1696245595376,-0.037841797,-0.9883423,0.023376465,0.203125,1.203125,0.15625,352
292,1696245595416,-0.02734375,-0.9902954,0.007019043,0.46875,0.1875,0.640625,353
293,1696245595456,-0.041992188,-0.9898071,0.04876709,4.140625,-0.84375,0.625,354
294,1696245595496,-0.013916016,-0.98565674,-0.031066895,-2.953125,2.0625,-0.703125,355
295,1696245595536,-0.047851562,-0.9795532,0.039733887,0.265625,-0.53125,0.609375,356
296,1696245595576,-0.04736328,-0.975647,0.0045776367,0.921875,-2.28125,-0.203125,357
297,1696245595616,-0.033935547,-0.9458618,-0.008361816,0.875,-1.46875,0.203125,358
298,1696245595656,-0.033203125,-0.9800415,-0.006164551,3.703125,-0.171875,0.265625,359
299,1696245595696,-0.023925781,-0.99224854,0.0067749023,2.671875,-1.125,0.15625,360
300,1696245595736,-0.052246094,-0.96417236,-0.013977051,-1.921875,-1.78125,0.21875,361
301,1696245595776,-0.045654297,-0.94195557,-0.018127441,-6.84375,-9.78125,-0.890625,362
302,1696245595816,-0.04663086,-1.0066528,0.038024902,-8.0,-6.21875,1.296875,363
303,1696245595856,-0.035888672,-1.0303345,0.043884277,-6.78125,-4.46875,0.703125,364
304,1696245595896,-0.040527344,-1.0083618,0.038024902,-4.234375,-6.875,-0.109375,365
305,1696245595936,-0.041748047,-0.9834595,0.036071777,-1.078125,-7.1875,-0.4375,366
306,1696245595976,-0.026855469,-0.9636841,0.070495605,-0.9375,-2.28125,-0.390625,367
307,1696245596016,-0.0546875,-1.0134888,0.06317139,3.453125,-3.984375,1.015625,368
308,1696245596056,-0.038330078,-0.9937134,0.030700684,-0.40625,-2.203125,0.515625,369
309,1696245596096,-0.03466797,-1.00177,0.04852295,2.609375,-0.546875,1.671875,370
310,1696245596136,0.001953125,-0.98638916,0.003112793,0.875,0.140625,1.953125,371
311,1696245596176,-0.03881836,-0.97662354,0.051940918,3.265625,-0.203125,2.53125,372
312,1696245596216,-0.03515625,-0.9951782,0.05609131,2.078125,0.4375,2.046875,373
313,1696245596256,-0.012939453,-1.005188,0.06463623,1.515625,1.609375,2.109375,374
314,1696245596296,-0.022949219,-1.0227661,0.04486084,1.921875,3.3125,2.15625,375
315,1696245596336,-0.019042969,-0.97613525,0.051452637,2.6875,2.34375,1.625,376
316,1696245596376,-0.0075683594,-0.99468994,0.02142334,-4.25,1.734375,0.625,377
317,1696245596416,-0.037841797,-0.9885864,0.04119873,-5.234375,2.8125,-0.09375,378
318,1696245596456,-0.026855469,-0.9985962,0.047790527,-4.421875,4.171875,-1.34375,379
319,1696245596496,-0.023925781,-0.99591064,0.028015137,-1.828125,3.984375,-1.453125,380
320,1696245596536,-0.029541016,-0.9824829,0.03338623,1.296875,4.484375,0.078125,381
321,1696245596576,-0.038085938,-1.0010376,0.032165527,2.203125,4.4375,0.25,382
322,1696245596616,-0.0056152344,-0.9727173,0.023376465,1.359375,3.921875,0.796875,383
323,1696245596656,-0.033691406,-0.97369385,0.03289795,1.421875,1.953125,1.109375,384
324,1696245596696,-0.024902344,-0.98272705,0.03314209,0.25,1.359375,0.625,385
325,1696245596736,-0.0234375,-0.99005127,0.047790527,1.859375,-0.65625,0.453125,386
326,1696245596776,-0.009277344,-0.9734497,0.0048217773,-2.859375,1.375,0.03125,387
327,1696245596816,-0.01953125,-0.9837036,0.038513184,2.0625,0.515625,1.28125,388
328,1696245596856,-0.024414062,-0.9697876,0.012634277,1.875,-1.125,0.296875,389
329,1696245596896,-0.026611328,-0.95635986,0.021911621,1.328125,-1.390625,0.265625,390
330,1696245596936,-0.029785156,-0.960022,0.0138549805,4.859375,-3.453125,0.21875,391
331,1696245596976,-0.006591797,-0.9949341,0.016052246,7.578125,-2.5,0.5,392
332,1696245597016,-0.010498047,-0.9793091,-0.0068969727,3.28125,-2.578125,0.296875,393
333,1696245597056,-0.037841797,-0.9915161,0.010192871,5.890625,-0.984375,2.125,394
334,1696245597096,-0.03955078,-0.9968872,-0.010559082,5.828125,-5.125,0.1875,395
335,1696245597136,0.016113281,-0.9981079,-0.005432129,4.046875,-2.78125,0.109375,396
336,1696245597176,-0.01928711,-0.96661377,-0.042785645,2.96875,-2.703125,1.921875,397
337,1696245597216,-0.014892578,-0.9644165,-0.023986816,2.890625,-3.96875,0.421875,398
338,1696245597256,-0.014160156,-0.97491455,-0.022277832,1.53125,-2.09375,0.40625,399
339,1696245597296,-0.0234375,-1.0061646,-0.023498535,-0.953125,-2.828125,0.53125,400
340,1696245597336,-0.0075683594,-0.9661255,-0.054260254,-5.703125,-3.234375,-2.21875,401
341,1696245597376,-0.02368164,-0.9985962,0.02923584,0.28125,-1.40625,-1.390625,402
342,1696245597416,-0.0017089844,-1.005188,-0.038635254,-4.59375,-1.0,-0.796875,403
343,1696245597456,-0.02734375,-1.010315,0.039001465,1.984375,1.609375,0.9375,404
344,1696245597496,-0.023925781,-0.99298096,-0.02154541,-1.453125,0.03125,0.734375,405
345,1696245597536,0.0034179688,-0.9829712,0.00091552734,0.5,0.453125,0.9375,406
346,1696245597576,-0.0043945312,-0.99786377,-0.0064086914,-2.078125,-0.09375,0.375,407
347,1696245597616,-0.0063476562,-1.0064087,0.012878418,-2.453125,0.59375,-0.234375,408
348,1696245597656,-0.010986328,-0.9805298,0.00579834,-7.421875,-1.546875,-1.59375,409
349,1696245597696,-0.03515625,-0.98760986,0.0099487305,-8.359375,-1.71875,-2.140625,410
350,1696245597736,-0.038330078,-1.0020142,0.03387451,-6.796875,0.125,-2.28125,411
351,1696245597776,-0.033691406,-1.0054321,0.0368042,-5.265625,2.109375,-2.359375,412
352,1696245597816,-0.024658203,-0.9780884,0.03314209,-1.625,3.125,-1.234375,413
353,1696245597856,-0.02758789,-0.9937134,0.034362793,1.140625,3.40625,0.0,414
354,1696245597896,-0.029541016,-0.9866333,0.028259277,2.3125,2.15625,-0.15625,415
355,1696245597936,-0.03173828,-0.9812622,0.021911621,1.375,3.046875,-0.140625,416
356,1696245597976,-0.035888672,-0.9927368,0.029724121,3.453125,2.921875,0.8125,417
357,1696245598016,-0.025878906,-0.9859009,0.010681152,-0.28125,3.921875,0.3125,418
358,1696245598056,-0.044433594,-0.99346924,0.039245605,3.046875,2.0625,1.875,419
359,1696245598096,-0.03491211,-0.98321533,0.008972168,0.1875,1.046875,0.546875,420
360,1696245598136,-0.030273438,-0.97784424,0.021911621,-0.0625,1.34375,0.859375,421
361,1696245598176,-0.041015625,-0.98223877,0.029724121,1.40625,-0.8125,1.15625,422
362,1696245598216,-0.02758789,-0.9590454,0.0060424805,0.4375,-1.53125,0.71875,423
363,1696245598256,-0.0073242188,-0.9541626,-0.002746582,5.4375,-0.9375,1.546875,424
364,1696245598296,-0.030273438,-0.99468994,0.003112793,4.140625,1.390625,3.0,425
365,1696245598336,-0.015136719,-0.9902954,-0.006652832,1.734375,1.21875,2.734375,426
366,1696245598376,-0.020263672,-0.9717407,-6.1035156e-05,0.5625,-1.03125,1.765625,427
367,1696245598416,-0.016113281,-0.99786377,0.0099487305,-0.5625,-3.046875,1.296875,428
368,1696245598456,-0.016845703,-0.98760986,0.001159668,-2.96875,-3.90625,0.640625,429
369,1696245598496,-0.024902344,-0.973938,-0.0032348633,0.34375,-6.015625,-0.078125,430
370,1696245598536,-0.014160156,-0.9849243,0.00970459,-1.5,-5.484375,-0.15625,431
371,1696245598576,-0.009033203,-0.99298096,-0.013977051,-4.90625,-5.515625,-0.84375,432
372,1696245598616,-0.012207031,-0.97979736,0.008972168,-5.875,-7.546875,-1.671875,433
373,1696245598656,-0.022949219,-1.0003052,0.016052246,-4.1875,-4.96875,-2.015625,434
374,1696245598696,-0.0017089844,-0.9751587,0.03778076,-3.109375,-5.34375,-2.140625,435
375,1696245598736,-0.030029297,-1.0093384,0.047058105,-0.515625,-3.828125,-0.25,436
376,1696245598776,-0.033447266,-0.9968872,0.03338623,-0.59375,-3.265625,0.296875,437
377,1696245598816,-0.011230469,-0.9812622,0.04071045,-0.4375,-4.046875,0.390625,438
378,1696245598856,-0.022705078,-1.0064087,0.06048584,0.8125,-1.9375,1.234375,439
379,1696245598896,-0.022705078,-1.0076294,0.06121826,1.171875,0.28125,1.609375,440
380,1696245598936,-0.01171875,-0.9939575,0.031677246,0.53125,0.25,1.1875,441
381,1696245598976,-0.030517578,-0.99542236,0.047058105,1.59375,-1.265625,0.96875,442
382,1696245599016,-0.010253906,-0.987854,0.027282715,-2.078125,-0.765625,0.5,443
383,1696245599056,-0.045654297,-0.98687744,0.04486084,-3.4375,-1.3125,-0.5625,444
384,1696245599096,-0.020507812,-0.9902954,0.035583496,-4.8125,2.609375,-1.765625,445
385,1696245599136,-0.033447266,-0.99346924,0.04876709,-1.84375,3.65625,-1.078125,446
386,1696245599176,-0.018066406,-0.9812622,0.042419434,-2.640625,3.265625,-1.5,447
387,1696245599216,-0.037841797,-0.99591064,0.062194824,3.03125,3.1875,0.796875,448
388,1696245599256,-0.032226562,-0.9834595,0.035339355,1.3125,3.09375,-0.484375,449
389,1696245599296,-0.026123047,-0.98321533,0.04144287,1.046875,3.0,-0.171875,450
390,1696245599336,-0.026611328,-0.98931885,0.034118652,1.609375,3.109375,0.296875,451
391,1696245599376,-0.018798828,-0.9829712,0.038269043,2.609375,4.046875,0.609375,452
392,1696245599416,-0.0234375,-1.0027466,0.04144287,2.75,6.15625,0.046875,453
393,1696245599456,-0.034179688,-0.9927368,0.042419434,6.609375,8.78125,1.015625,454
394,1696245599496,-0.01171875,-0.98443604,0.004333496,7.0,7.046875,0.703125,455
395,1696245599536,-0.034423828,-0.96759033,-0.0022583008,5.734375,3.890625,1.484375,456
396,1696245599576,-0.028564453,-0.97369385,-0.007385254,3.21875,2.96875,1.109375,457
397,1696245599616,-0.026855469,-0.9661255,-0.0020141602,3.171875,-1.390625,1.140625,458
398,1696245599656,-0.019042969,-0.9619751,-0.006652832,1.09375,-1.359375,0.671875,459
399,1696245599696,-0.014160156,-0.97247314,-0.043273926,-0.671875,-4.734375,0.296875,460
400,1696245599736,0.001953125,-0.9570923,-0.012756348,5.34375,-3.109375,-0.34375,461
401,1696245599776,-0.018798828,-1.003479,-0.0071411133,0.609375,-3.125,0.609375,462
402,1696245599816,-0.023925781,-0.97247314,-0.016906738,-0.28125,-2.75,-0.078125,463
403,1696245599856,-0.01953125,-1.0003052,0.0060424805,-0.375,-3.96875,-0.609375,464
404,1696245599896,-0.041992188,-0.99420166,0.04486084,-1.28125,0.25,-0.484375,581
405,1696245599936,-0.028564453,-0.9973755,0.08294678,1.96875,2.453125,1.03125,582
406,1696245599976,-0.040527344,-1.0105591,0.03314209,-2.09375,3.875,-0.171875,583
407,1696245600016,-0.03881836,-0.9849243,0.05731201,0.375,1.65625,0.5625,584
408,1696245600056,-0.038085938,-0.9871216,0.040222168,-2.578125,2.125,0.0,585
409,1696245600096,-0.045410156,-0.9990845,0.047790527,-3.0,5.34375,0.21875,586
410,1696245600136,-0.041015625,-0.9993286,0.054382324,-0.65625,6.796875,0.6875,587
411,1696245600176,-0.036865234,-0.9932251,0.062927246,0.84375,6.375,0.265625,588
412,1696245600216,-0.037841797,-0.9714966,0.043395996,-0.90625,3.25,-0.375,589
413,1696245600256,-0.036132812,-0.9859009,0.06536865,1.984375,2.40625,0.84375,590
414,1696245600296,-0.040527344,-0.9859009,0.0368042,-0.0625,0.984375,0.921875,591
415,1696245600336,-0.040039062,-0.9817505,0.04095459,-0.109375,1.1875,0.3125,592
416,1696245600376,-0.032470703,-0.99420166,0.05316162,0.625,0.625,0.53125,593
417,1696245600416,-0.048095703,-0.9805298,0.062683105,1.234375,-0.40625,0.796875,594
418,1696245600456,-0.038085938,-0.97540283,0.04119873,-0.375,-0.296875,-0.3125,595
419,1696245600496,-0.025390625,-0.9812622,0.023132324,0.375,-0.375,0.6875,596
420,1696245600536,-0.043945312,-0.9529419,0.02923584,7.390625,-2.78125,1.34375,597
421,1696245600576,-0.016601562,-0.9590454,0.029724121,8.609375,-0.390625,2.125,598
422,1696245600616,-0.032958984,-0.9937134,0.034606934,6.75,1.3125,2.96875,599
423,1696245600656,-0.024414062,-0.99102783,0.0038452148,3.703125,1.46875,1.984375,600
424,1696245600696,-0.018066406,-0.97491455,-0.0032348633,4.3125,1.0625,3.078125,601
425,1696245600736,-0.0126953125,-0.9771118,0.009216309,3.234375,-3.546875,1.59375,602
426,1696245600776,-0.018066406,-0.97857666,-0.004211426,2.015625,-2.6875,1.15625,603
427,1696245600816,-0.021240234,-0.9819946,-0.0178833,1.3125,-3.828125,1.140625,604
428,1696245600856,-0.0073242188,-0.97247314,-0.043762207,-0.640625,-6.875,-0.03125,605
429,1696245600896,-0.017089844,-0.9949341,-0.007873535,-3.4375,-6.953125,-1.328125,606
430,1696245600936,-0.020019531,-0.99664307,0.0072631836,-5.359375,-6.90625,-2.078125,607
431,1696245600976,-0.02734375,-1.0144653,0.04071045,-2.125,-3.5,0.53125,608
432,1696245601016,-0.0026855469,-0.98809814,0.017028809,-5.953125,-2.1875,-0.6875,609
433,1696245601056,-0.011962891,-0.9776001,0.017028809,-1.5,-0.34375,1.28125,610
434,1696245601096,-0.02734375,-1.0005493,0.040222168,-1.234375,-2.265625,-0.28125,611
435,1696245601136,-0.023925781,-0.989563,0.045837402,0.203125,-0.515625,1.109375,612
436,1696245601176,-0.027832031,-0.9871216,0.050231934,0.40625,-0.171875,0.875,613
437,1696245601216,-0.008300781,-0.99957275,0.07098389,2.8125,2.734375,1.75,614
438,1696245601256,-0.0034179688,-1.0090942,0.018981934,0.59375,2.96875,1.265625,615
439,1696245601296,-0.0107421875,-0.97979736,0.039001465,2.21875,-0.078125,0.640625,616
440,1696245601336,0.001953125,-0.9949341,0.010681152,-3.75,0.078125,-0.296875,617
441,1696245601376,-0.03881836,-1.0015259,0.043395996,-5.578125,1.359375,-0.90625,618
442,1696245601416,-0.017333984,-1.0110474,0.03753662,-3.765625,4.875,-1.0625,619
443,1696245601456,-0.016845703,-0.9866333,0.038269043,-1.203125,6.140625,-0.8125,620
444,1696245601496,-0.016601562,-0.986145,0.020446777,0.796875,5.734375,-0.78125,621
445,1696245601536,-0.023925781,-0.97662354,0.01361084,1.1875,3.46875,-0.359375,622
446,1696245601576,-0.03149414,-0.9824829,0.053894043,4.09375,1.53125,0.171875,623
447,1696245601616,-0.01928711,-0.9807739,-0.0017700195,-1.75,3.609375,-1.875,624
448,1696245601656,-0.024414062,-0.9883423,0.05731201,0.765625,2.28125,0.015625,625
449,1696245601696,-0.020996094,-0.99957275,0.014831543,0.578125,0.90625,0.03125,626
450,1696245601736,-0.02758789,-0.9824829,0.030700684,0.484375,1.6875,-0.203125,627
451,1696245601776,-0.034423828,-0.98565674,0.03338623,0.6875,-0.203125,-0.21875,628
452,1696245601816,-0.031982422,-0.9834595,0.020690918,0.0625,1.03125,-0.03125,629
453,1696245601856,-0.030761719,-0.98443604,0.028015137,-1.09375,-0.59375,-0.296875,630
454,1696245601896,-0.024169922,-0.973938,0.023376465,-1.0,-1.671875,-0.125,631
455,1696245601936,-0.032470703,-0.9639282,0.020690918,1.0625,-2.578125,-0.0625,632
456,1696245601976,-0.012939453,-0.9651489,0.012145996,6.5625,-1.28125,0.578125,633
457,1696245602016,-0.037597656,-0.9697876,-0.0020141602,7.921875,0.09375,1.0,634
458,1696245602056,-0.033935547,-1.0081177,0.011657715,9.46875,1.109375,0.640625,635
459,1696245602096,-0.0078125,-0.9631958,-0.01763916,2.640625,1.46875,0.609375,636
460,1696245602136,-0.015380859,-0.9602661,-0.038635254,0.984375,-7.109375,0.765625,637
461,1696245602176,-0.017089844,-0.9668579,0.015319824,-2.359375,-8.34375,-1.6875,638
462,1696245602216,-0.036376953,-1.0476685,0.022399902,-0.046875,-3.140625,0.703125,639
463,1696245602256,-0.022949219,-0.99786377,-0.0256958,-3.953125,-5.625,-0.8125,640
464,1696245602296,-0.0146484375,-0.97052,-0.020080566,-4.53125,-7.125,-1.234375,641
465,1696245602336,-0.029052734,-0.99835205,0.0079956055,-4.453125,-7.0,-1.1875,642
466,1696245602376,-0.019042969,-1.0032349,-0.0076293945,-6.171875,-4.71875,-1.6875,643
467,1696245602416,-0.041259766,-0.99713135,0.02923584,-2.78125,-5.125,-1.609375,644
468,1696245602456,-0.02319336,-0.97198486,0.04046631,1.03125,-3.15625,1.296875,645
469,1696245602496,-0.029052734,-0.98687744,0.014343262,1.1875,-2.953125,1.171875,646
470,1696245602536,-0.03955078,-1.0005493,0.027526855,2.921875,-2.5,1.5625,647
471,1696245602576,-0.029541016,-0.98394775,0.022888184,0.703125,-1.1875,0.734375,648
472,1696245602616,-0.017333984,-0.9956665,0.036315918,1.578125,-0.640625,1.734375,649
473,1696245602656,-0.012939453,-1.0083618,0.06317139,4.59375,3.3125,2.125,650
474,1696245602696,-0.01928711,-1.0144653,0.026062012,2.390625,3.25,1.03125,651
475,1696245602736,-0.037597656,-0.9788208,0.026550293,-1.328125,2.375,0.078125,652
476,1696245602776,-0.03881836,-0.9973755,-0.012268066,-6.8125,2.0625,-0.703125,653
477,1696245602816,-0.036132812,-0.9951782,0.0138549805,-6.75,4.921875,-2.109375,654
478,1696245602856,-0.025878906,-1.0010376,0.039245605,-2.984375,5.296875,-1.484375,655
479,1696245602896,-0.03125,-0.99786377,0.027282715,-1.859375,4.734375,-1.171875,656
480,1696245602936,-0.034179688,-0.98150635,0.031433105,-2.9375,2.796875,-1.25,657
481,1696245602976,-0.03173828,-0.9758911,0.034851074,-1.609375,3.46875,-0.265625,658
482,1696245603016,-0.03881836,-0.99542236,0.031433105,-0.3125,1.25,-0.34375,659
483,1696245603056,-0.044433594,-0.9944458,0.04046631,-0.609375,2.21875,-0.390625,660
484,1696245603096,-0.037841797,-0.973938,0.03704834,-2.546875,2.078125,-0.421875,661
485,1696245603136,-0.055908203,-0.986145,0.05706787,-3.0625,-0.328125,-0.484375,662
486,1696245603176,-0.036132812,-0.9956665,0.06097412,0.28125,2.515625,-2.484375,663
487,1696245603216,-0.012207031,-0.9873657,0.0006713867,-0.390625,-0.046875,-1.5625,664
488,1696245603256,-0.06982422,-0.9602661,0.054382324,0.6875,0.359375,0.703125,665
489,1696245603296,-0.057861328,-0.9824829,0.03265381,7.4375,-0.3125,1.21875,666
490,1696245603336,-0.018554688,-0.9314575,0.0028686523,9.609375,0.109375,1.125,667
491,1696245603376,-0.02319336,-0.9829712,-0.0020141602,10.6875,0.09375,2.109375,668
492,1696245603416,-0.025878906,-0.9746704,-0.0017700195,3.171875,-4.21875,1.859375,669
493,1696245603456,-0.030517578,-0.991272,0.009460449,2.453125,-1.109375,1.078125,670
494,1696245603496,-0.053710938,-0.9924927,0.0016479492,-1.71875,-4.0,0.34375,671
495,1696245603536,-0.046875,-0.98638916,-0.008361816,-2.5,-7.59375,-0.40625,672
496,1696245603576,-0.037597656,-0.96881104,-0.013000488,-3.859375,-8.171875,-2.34375,673
497,1696245603616,-0.01977539,-1.0073853,0.022399902,-3.8125,-7.640625,-1.40625,674
498,1696245603656,-0.044189453,-1.0056763,0.012634277,-2.546875,-7.375,-0.3125,675
499,1696245603696,-0.033691406,-0.9976196,0.009216309,-0.75,-4.984375,0.171875,676
500,1696245603736,-0.04321289,-0.97198486,0.03729248,-0.046875,-3.96875,0.453125,677
501,1696245603776,-0.028076172,-0.9841919,0.011413574,-3.390625,-2.09375,0.5625,678
502,1696245603816,-0.05102539,-1.0025024,0.05291748,0.515625,-2.234375,0.375,679
503,1696245603856,-0.061035156,-1.0020142,0.018249512,1.0,-1.65625,0.46875,680
504,1696245603896,-0.025878906,-0.99176025,0.035095215,0.328125,-0.625,-0.578125,681
505,1696245603936,-0.04321289,-0.99591064,0.04095459,-0.171875,-0.515625,0.359375,682
506,1696245603976,-0.01928711,-1.0222778,0.06781006,2.5,4.703125,0.921875,683
507,1696245604016,-0.048339844,-1.0169067,0.05340576,1.046875,0.734375,0.375,684
508,1696245604056,-0.033935547,-0.9714966,0.022644043,-3.484375,-1.1875,0.4375,685
509,1696245604096,-0.07128906,-0.9800415,0.02557373,-6.859375,0.71875,-0.59375,686
510,1696245604136,-0.060058594,-1.0098267,0.050964355,-5.703125,2.78125,-1.65625,687
511,1696245604176,-0.036865234,-1.0083618,0.03265381,-6.0625,3.421875,-1.828125,688
512,1696245604216,-0.030761719,-0.9866333,0.04486084,-4.234375,3.453125,-1.078125,689
513,1696245604256,-0.05810547,-0.9776001,0.058044434,-0.765625,0.3125,-0.265625,690
514,1696245604296,-0.052001953,-0.9829712,0.032409668,-3.640625,3.234375,-1.34375,691
515,1696245604336,-0.064697266,-0.9771118,0.0836792,-0.328125,1.15625,-0.03125,692
516,1696245604376,-0.0637207,-1.0039673,0.05731201,-0.875,1.515625,0.109375,693
517,1696245604416,-0.05908203,-0.9768677,0.050231934,-2.125,1.90625,-0.640625,694
518,1696245604456,-0.053710938,-0.9939575,0.08270264,1.71875,2.203125,0.578125,695
519,1696245604496,-0.045166016,-0.9937134,0.08074951,1.15625,4.640625,0.421875,696
520,1696245604536,-0.03491211,-0.9976196,0.0446167,-0.625,3.328125,-0.1875,697
521,1696245604576,-0.043945312,-0.97857666,0.057800293,3.578125,1.171875,0.46875,698
522,1696245604616,-0.059326172,-0.9780884,0.045837402,3.328125,0.5,0.890625,699
523,1696245604656,-0.0546875,-0.96954346,0.043151855,3.171875,-0.140625,0.859375,700
524,1696245604696,-0.040527344,-0.9663696,0.038269043,4.296875,-2.609375,1.328125,701
525,1696245604736,-0.032958984,-0.97076416,-0.0049438477,10.78125,-1.453125,1.921875,702
526,1696245604776,-0.029296875,-0.9819946,0.046813965,11.8125,-1.59375,2.453125,703
527,1696245604816,-0.031982422,-0.9788208,-0.028137207,-1.125,0.390625,-0.015625,704
528,1696245604856,-0.052001953,-0.9639282,-0.0115356445,-3.046875,-6.765625,-1.140625,705
529,1696245604896,-0.04711914,-0.9763794,0.023132324,-4.09375,-11.953125,-2.1875,706
530,1696245604936,-0.025390625,-0.99224854,0.047546387,-3.5,-10.03125,-2.09375,707
531,1696245604976,-0.029052734,-1.0213013,0.04486084,-3.046875,-6.71875,-1.578125,708
532,1696245605016,-0.07080078,-1.0039673,0.035095215,0.1875,-7.21875,1.203125,709
533,1696245605056,-0.05053711,-0.99053955,0.036315918,1.171875,-6.921875,1.484375,710
534,1696245605096,-0.059570312,-0.9883423,0.03387451,2.203125,-4.171875,1.84375,711
535,1696245605136,-0.03149414,-1.0029907,0.0033569336,2.1875,-3.8125,1.546875,712
536,1696245605176,-0.041503906,-0.9949341,0.011657715,1.359375,-3.625,1.4375,713
537,1696245605216,-0.043701172,-0.97052,0.0211792,-1.078125,-2.890625,0.703125,714
538,1696245605256,-0.059570312,-1.0078735,0.047058105,0.15625,-1.140625,0.390625,715
539,1696245605296,-0.043701172,-1.0005493,0.029968262,0.328125,1.453125,0.25,716
540,1696245605336,-0.025390625,-0.9885864,0.049743652,1.03125,4.015625,0.234375,717
541,1696245605376,-0.04711914,-1.010315,0.030212402,0.34375,4.0625,0.21875,718
542,1696245605416,-0.05053711,-1.0147095,0.050720215,2.015625,3.375,0.125,719
543,1696245605456,-0.028808594,-0.975647,0.006286621,-5.703125,2.15625,-0.90625,720
544,1696245605496,-0.07104492,-0.9985962,0.039978027,-5.453125,4.078125,-0.84375,721
545,1696245605536,-0.04321289,-1.0176392,0.034362793,-4.90625,7.546875,-1.53125,722
546,1696245605576,-0.0390625,-0.9890747,0.029724121,-3.140625,6.0,-1.03125,723
547,1696245605616,-0.056152344,-0.991272,0.047546387,-0.671875,5.203125,-0.25,724
548,1696245605656,-0.051513672,-0.9854126,0.038513184,-0.390625,4.34375,-0.375,725
549,1696245605696,-0.052734375,-0.98150635,0.051452637,-0.375,2.765625,-0.53125,726
550,1696245605736,-0.047607422,-0.9854126,0.031677246,-0.609375,1.1875,0.453125,727
551,1696245605776,-0.06298828,-0.9907837,0.041931152,0.75,1.1875,0.921875,728
552,1696245605816,-0.05053711,-0.9776001,0.0692749,2.15625,1.09375,1.171875,729
553,1696245605856,-0.033691406,-0.9800415,-0.00592041,-4.0,2.65625,0.265625,730
554,1696245605896,-0.0637207,-0.99468994,0.070739746,-0.328125,0.140625,1.296875,731
555,1696245605936,-0.072021484,-0.9885864,0.031433105,-0.625,-0.453125,-0.25,732
556,1696245605976,-0.048339844,-0.9639282,0.04437256,1.328125,2.78125,0.296875,733
557,1696245606016,-0.049804688,-0.97442627,0.055358887,2.328125,0.640625,0.875,734
558,1696245606056,-0.05078125,-0.9561157,0.02166748,3.46875,-1.21875,1.328125,735
559,1696245606096,-0.036376953,-0.9331665,0.0033569336,9.59375,-2.28125,1.078125,736
560,1696245606136,-0.032714844,-0.9590454,0.0026245117,9.90625,-2.140625,3.03125,737
561,1696245606176,-0.043701172,-0.9812622,-0.0071411133,4.5,-5.359375,2.84375,738
562,1696245606216,-0.02368164,-0.9915161,0.020935059,2.234375,-3.921875,1.265625,739
563,1696245606256,-0.061035156,-1.0110474,0.01361084,-1.1875,-5.3125,1.0625,740
564,1696245606296,-0.030029297,-0.9944458,-0.014221191,1.09375,-9.015625,-0.1875,741
565,1696245606336,-0.036376953,-0.9859009,-0.021057129,-0.515625,-10.0,-0.3125,742
566,1696245606376,-0.0107421875,-0.9976196,-0.012512207,-4.65625,-6.734375,-0.6875,743
567,1696245606416,-0.055419922,-1.0193481,0.01727295,-1.515625,-7.515625,0.078125,744
568,1696245606456,-0.039794922,-0.99053955,0.038024902,-0.765625,-3.9375,-0.015625,745
569,1696245606496,-0.03466797,-0.98394775,0.012145996,1.046875,-1.0625,0.21875,746
570,1696245606536,-0.028808594,-0.9885864,0.038269043,-0.09375,-1.5,0.1875,747
571,1696245606576,-0.03930664,-1.0007935,0.015075684,0.078125,0.015625,0.578125,748
572,1696245606616,-0.030273438,-0.9807739,0.004333496,-0.359375,0.015625,0.640625,749
573,1696245606656,-0.05053711,-0.99835205,0.027526855,0.8125,0.53125,1.421875,750
574,1696245606696,-0.032226562,-1.0125122,0.05267334,2.03125,4.71875,1.3125,751
575,1696245606736,-0.0234375,-1.0217896,0.04559326,1.546875,7.125,0.5625,752
576,1696245606776,-0.028320312,-1.0015259,0.040222168,2.5,4.953125,0.671875,753
577,1696245606816,-0.017089844,-1.003479,0.019714355,-2.84375,4.84375,0.375,754
578,1696245606856,-0.056152344,-0.99224854,0.008972168,-5.765625,4.171875,-2.03125,755
579,1696245606896,-0.030761719,-0.98809814,-0.00982666,-5.15625,5.5,-2.1875,756
580,1696245606936,-0.033935547,-0.97906494,0.024353027,-1.96875,4.171875,-0.453125,757
581,1696245606976,-0.06298828,-0.99957275,0.027526855,1.328125,4.234375,1.546875,758
582,1696245607016,-0.045410156,-0.9805298,0.015075684,-0.609375,3.59375,-0.0625,759
583,1696245607056,-0.04711914,-0.99053955,0.023864746,0.078125,2.3125,0.03125,760
584,1696245607096,-0.024169922,-0.99346924,0.011169434,-0.03125,2.21875,0.078125,761
585,1696245607136,-0.03955078,-0.99542236,0.014343262,-1.015625,1.65625,0.609375,762
586,1696245607176,-0.052246094,-0.97491455,0.010437012,0.4375,1.203125,0.265625,763
587,1696245607216,-0.037353516,-0.98565674,0.011657715,1.703125,2.765625,-0.03125,764
588,1696245607256,-0.022705078,-0.9717407,0.016784668,0.625,0.296875,-0.015625,765
589,1696245607296,-0.044189453,-0.96343994,-0.0051879883,1.71875,-2.578125,0.375,766
590,1696245607336,-0.017333984,-0.9529419,-0.016174316,5.4375,-2.53125,0.375,767
591,1696245607376,-0.03491211,-0.9920044,0.03338623,8.515625,-0.453125,1.53125,768
592,1696245607416,-0.025878906,-0.96881104,-0.050842285,0.4375,-2.28125,-0.21875,769
593,1696245607456,-0.06347656,-0.9507446,-0.0022583008,-0.1875,-6.46875,0.375,770
594,1696245607496,-0.037841797,-0.9902954,0.015808105,-0.734375,-6.671875,0.234375,771
595,1696245607536,-0.016845703,-1.0078735,-0.018859863,-2.828125,-6.4375,-0.703125,772
596,1696245607576,-0.041503906,-1.00177,-0.010803223,-2.09375,-8.53125,-0.625,773
597,1696245607616,-0.040039062,-0.9849243,0.010925293,-4.171875,-9.28125,-1.390625,774
598,1696245607656,-0.033691406,-0.98883057,0.00091552734,-3.453125,-7.21875,-0.9375,775
599,1696245607696,-0.032226562,-1.0078735,0.0211792,-0.5625,-4.34375,0.046875,776
600,1696245607736,-0.048828125,-0.99053955,0.022888184,-0.859375,-4.109375,0.625,777
601,1696245607776,-0.022705078,-1.0012817,0.009460449,0.625,-2.859375,0.4375,778
602,1696245607816,-0.045654297,-0.98150635,0.02508545,0.296875,-1.4375,0.921875,779
603,1696245607856,-0.041259766,-1.0056763,0.015563965,2.171875,-0.78125,1.4375,780
604,1696245607896,-0.03125,-0.98638916,0.019226074,1.234375,0.3125,0.9375,781
605,1696245607936,-0.03149414,-1.0005493,0.019958496,-0.515625,-0.09375,0.6875,782
606,1696245607976,-0.039794922,-0.9846802,0.038024902,-0.53125,-0.28125,0.046875,783
607,1696245608016,-0.026367188,-1.024231,0.066101074,1.96875,1.671875,1.328125,784
608,1696245608056,-0.049316406,-1.0042114,0.022155762,0.28125,1.0625,0.125,785
609,1696245608096,-0.021240234,-1.0044556,0.051940918,1.078125,3.71875,0.796875,786
610,1696245608136,-0.056396484,-0.99346924,-0.00079345703,-5.21875,3.015625,-1.03125,787
611,1696245608176,-0.041259766,-0.99005127,0.01751709,-5.3125,5.25,-2.515625,788
612,1696245608216,-0.043701172,-0.991272,0.024841309,-3.234375,5.890625,-1.65625,789
613,1696245608256,-0.041503906,-0.9949341,0.026306152,-1.734375,6.046875,-0.1875,790
614,1696245608296,-0.049560547,-0.9824829,0.01776123,-1.40625,3.53125,-0.6875,791
615,1696245608336,-0.04345703,-0.9812622,0.028503418,-0.59375,3.390625,-0.484375,792
616,1696245608376,-0.053466797,-0.9932251,0.035583496,1.484375,1.671875,-0.515625,793
617,1696245608416,-0.05419922,-0.9800415,0.059509277,1.703125,1.59375,-1.53125,794
618,1696245608456,-0.025634766,-0.9807739,-0.00982666,-2.796875,3.765625,-1.421875,795
619,1696245608496,-0.060791016,-0.97320557,0.046813965,0.9375,1.265625,1.265625,796
620,1696245608536,-0.05908203,-0.9981079,0.028747559,-0.484375,0.125,-0.578125,797
621,1696245608576,-0.05029297,-0.96539307,0.02508545,-0.078125,1.734375,-0.71875,798
622,1696245608616,-0.056396484,-0.97491455,0.0368042,2.296875,0.28125,0.703125,799
623,1696245608656,-0.06591797,-0.9758911,-0.0071411133,9.34375,-3.25,0.390625,800
624,1696245608696,-0.033691406,-0.9495239,0.022644043,8.3125,-2.34375,-0.0625,801
625,1696245608736,-0.0390625,-1.0025024,-0.024963379,11.5,0.203125,1.484375,802
626,1696245608776,-0.03491211,-0.9710083,-0.03375244,7.453125,-2.71875,0.984375,803
627,1696245608816,-0.03466797,-0.9505005,-0.046447754,6.484375,-3.515625,1.6875,804
628,1696245608856,-0.04321289,-0.97662354,-0.035949707,3.8125,-3.34375,1.375,805
629,1696245608896,-0.05419922,-0.99957275,-0.03765869,2.453125,-4.5625,1.0,806
630,1696245608936,-0.06689453,-0.98272705,-0.023010254,-2.015625,-7.328125,-0.28125,807
631,1696245608976,-0.025146484,-0.96221924,-0.054992676,-4.109375,-4.953125,-0.359375,808
632,1696245609016,-0.028076172,-0.99346924,-0.02178955,-3.59375,-6.171875,-0.25,809
633,1696245609056,-0.041992188,-1.0335083,-0.014465332,-1.859375,-5.203125,0.71875,810
634,1696245609096,-0.028076172,-0.99346924,-0.022766113,0.3125,-3.578125,1.828125,811
635,1696245609136,-0.02758789,-0.9890747,-0.020568848,0.0,-2.53125,2.265625,812
636,1696245609176,-0.045898438,-0.991272,-0.017150879,-0.578125,-1.71875,2.359375,813
637,1696245609216,-0.030517578,-0.98883057,-0.016174316,-1.609375,-1.125,1.546875,814
638,1696245609256,-0.03491211,-0.9998169,0.0004272461,-1.640625,-0.703125,0.921875,815
639,1696245609296,-0.012207031,-1.0056763,0.010925293,-2.0625,2.6875,0.609375,816
640,1696245609336,-0.05126953,-1.031311,0.006286621,-1.359375,2.0625,0.359375,817
641,1696245609376,-0.021484375,-0.97540283,0.0099487305,-5.234375,3.171875,-0.109375,818
642,1696245609416,-0.048583984,-0.98883057,0.001159668,-7.1875,0.765625,-0.53125,819
643,1696245609456,-0.053466797,-1.000061,0.044128418,-7.0,3.421875,-2.875,820
644,1696245609496,-0.024658203,-1.0154419,0.016784668,-6.484375,4.921875,-1.828125,821
645,1696245609536,-0.04296875,-0.9807739,0.020935059,-5.109375,2.109375,-1.5,822
646,1696245609576,-0.055664062,-0.99176025,0.030456543,-0.640625,1.9375,0.609375,823
647,1696245609616,-0.053466797,-0.97613525,0.015563965,-2.6875,2.234375,-0.640625,824
648,1696245609656,-0.05029297,-0.98809814,0.03753662,-0.53125,2.546875,0.15625,825
649,1696245609696,-0.053710938,-0.9961548,0.0368042,-1.53125,1.1875,-0.140625,826
650,1696245609736,-0.03857422,-0.9866333,0.028503418,-1.71875,1.15625,0.265625,827
651,1696245609776,-0.053466797,-0.98272705,0.041931152,-0.296875,0.328125,0.640625,828
652,1696245609816,-0.038330078,-0.975647,0.026550293,-0.703125,-0.015625,0.328125,829
653,1696245609856,-0.041748047,-0.9793091,0.03265381,0.828125,0.578125,0.484375,830
654,1696245609896,-0.040283203,-0.96588135,0.030456543,2.984375,-1.09375,0.9375,831
655,1696245609936,-0.045898438,-0.93927,0.007507324,9.328125,-3.046875,0.921875,832
656,1696245609976,-0.038085938,-0.96466064,0.014343262,7.609375,-3.328125,1.15625,833
657,1696245610016,-0.017333984,-0.9883423,-0.012023926,1.671875,-3.0,0.5,834
658,1696245610056,-0.052001953,-0.97442627,-0.0037231445,-0.3125,-6.71875,-0.9375,835
659,1696245610096,-0.049072266,-1.0127563,0.051696777,0.53125,-5.5625,0.28125,836
660,1696245610136,-0.041992188,-0.9915161,0.00579834,-1.546875,-7.03125,-0.0625,837
661,1696245610176,-0.010009766,-0.99786377,0.007019043,-1.6875,-5.0,-0.53125,838
662,1696245610216,-0.03930664,-1.0020142,0.009460449,-0.734375,-4.578125,0.53125,839
663,1696245610256,-0.025390625,-0.99884033,0.026306152,-1.1875,-2.515625,0.53125,840
664,1696245610296,-0.03881836,-0.9788208,0.006286621,1.265625,-2.015625,1.71875,841
665,1696245610336,-0.041748047,-0.9795532,0.023620605,1.125,-1.25,2.265625,842
666,1696245610376,-0.021240234,-1.0088501,0.0053100586,0.578125,0.171875,2.28125,843
667,1696245610416,-0.028076172,-1.00177,0.026306152,0.15625,0.515625,1.71875,844
668,1696245610456,-0.036621094,-0.9871216,0.039001465,0.109375,0.375,1.390625,845
669,1696245610496,-0.0146484375,-1.0088501,0.035339355,0.0,5.375,0.703125,846
670,1696245610536,-0.03515625,-1.013977,0.044128418,2.484375,2.390625,1.15625,847
671,1696245610576,-0.006591797,-0.9717407,0.0028686523,-5.5625,1.859375,-0.765625,848
672,1696245610616,-0.05126953,-0.9963989,0.02557373,-5.296875,1.1875,-0.109375,849
673,1696245610656,-0.041503906,-1.0217896,0.036315918,-5.734375,4.75,-2.328125,850
674,1696245610696,-0.01928711,-0.9998169,0.023132324,-4.3125,4.265625,-2.34375,851
675,1696245610736,-0.02709961,-0.987854,0.0368042,-2.46875,3.828125,-1.234375,852
676,1696245610776,-0.036132812,-0.9883423,0.039489746,-1.546875,4.59375,-0.71875,853
677,1696245610816,-0.053466797,-0.98565674,0.035095215,0.015625,3.9375,-1.03125,854
678,1696245610856,-0.032226562,-0.975647,0.031921387,-0.328125,2.75,-0.25,855
679,1696245610896,-0.044189453,-0.9780884,0.026062012,0.15625,3.03125,0.21875,856
680,1696245610936,-0.041503906,-0.9819946,0.03753662,0.796875,0.84375,-0.03125,857
681,1696245610976,-0.04321289,-0.96954346,0.04046631,0.453125,0.765625,-0.171875,858
682,1696245611016,-0.03491211,-0.97247314,0.016052246,1.53125,0.78125,0.625,859
683,1696245611056,-0.033935547,-0.96417236,0.0048217773,9.9375,-3.53125,1.015625,860
684,1696245611096,-0.007080078,-0.96466064,0.018493652,6.78125,1.8125,1.171875,861
685,1696245611136,-0.04321289,-1.0164185,0.020202637,6.84375,2.375,2.84375,862
686,1696245611176,-0.011474609,-0.9727173,-0.0012817383,5.015625,0.25,2.21875,863
687,1696245611216,-0.041748047,-0.97491455,0.008728027,5.671875,0.015625,2.71875,864
688,1696245611256,-0.021728516,-0.99884033,-0.013977051,4.140625,-0.90625,2.015625,865
689,1696245611296,-0.02734375,-0.9631958,-0.04156494,2.296875,-6.90625,1.203125,866
690,1696245611336,-0.02319336,-1.0015259,-0.015930176,3.625,-2.6875,1.3125,867
691,1696245611376,-0.033935547,-1.003479,-0.042053223,-0.03125,-3.546875,1.109375,868
692,1696245611416,-0.023925781,-0.9702759,-0.027160645,-0.59375,-6.265625,0.234375,869
693,1696245611456,-0.016845703,-0.99005127,-0.00030517578,-0.640625,-4.96875,0.421875,870
694,1696245611496,-0.021484375,-1.0010376,-0.026916504,-1.703125,-3.90625,0.03125,871
695,1696245611536,-0.017578125,-0.9963989,-0.014221191,-2.421875,-4.859375,-0.59375,872
696,1696245611576,-0.0075683594,-0.9890747,0.0040893555,-2.203125,-2.5,-1.03125,873
697,1696245611616,0.00024414062,-0.99835205,-0.0015258789,-0.78125,-1.140625,-0.015625,874
698,1696245611656,-0.03173828,-1.0039673,0.019714355,-0.25,1.875,-0.515625,875
699,1696245611696,-0.030029297,-1.029602,0.005554199,-0.078125,2.671875,-0.0625,876
700,1696245611736,-0.017822266,-0.9846802,0.007751465,-1.0625,1.96875,-0.703125,877
701,1696245611776,-0.0056152344,-1.00177,0.007507324,-5.859375,3.671875,0.109375,878
702,1696245611816,-0.048339844,-0.9924927,0.00091552734,-7.875,3.28125,-1.203125,879
703,1696245611856,-0.032958984,-0.9859009,0.009216309,-6.5,2.296875,-1.6875,880
704,1696245611896,-0.02709961,-0.99542236,0.024108887,-2.71875,2.765625,-0.671875,881
705,1696245611936,-0.03955078,-0.9849243,0.0065307617,-3.796875,0.59375,-0.578125,882
706,1696245611976,-0.030273438,-0.98272705,0.026062012,-2.375,1.03125,-0.296875,883
707,1696245612016,-0.038085938,-0.9859009,0.029968262,-1.140625,0.625,-0.03125,884
708,1696245612056,-0.045898438,-0.98638916,0.050720215,-0.03125,1.03125,0.4375,885
709,1696245612096,-0.04345703,-0.9714966,0.020202637,-0.640625,1.96875,0.0,886
710,1696245612136,-0.015625,-0.98443604,0.00970459,1.171875,2.671875,0.53125,887
711,1696245612176,-0.036376953,-0.9771118,0.043395996,0.34375,1.0625,-0.03125,888
712,1696245612216,-0.040039062,-0.99420166,0.034362793,1.890625,0.515625,0.71875,889
713,1696245612256,-0.041992188,-0.96173096,0.017028809,1.875,0.453125,0.125,890
714,1696245612296,-0.037841797,-0.9673462,0.0053100586,4.59375,-1.328125,0.3125,891
715,1696245612336,-0.016601562,-0.96173096,-0.011047363,5.984375,-0.09375,0.953125,892
716,1696245612376,-0.020996094,-0.98394775,-0.002746582,5.421875,-0.40625,0.8125,893
717,1696245612416,-0.03564453,-0.95440674,-0.014953613,1.6875,-4.390625,0.1875,894
718,1696245612456,-0.030517578,-0.96466064,0.011169434,-0.34375,-6.015625,-0.796875,895
719,1696245612496,-0.035888672,-1.0239868,0.017028809,-0.390625,-5.34375,0.625,896
720,1696245612536,-0.032714844,-0.9829712,-0.01763916,-3.375,-8.5,-0.203125,897
721,1696245612576,-0.03125,-0.97735596,-0.028869629,-4.484375,-9.15625,-1.8125,898
722,1696245612616,-0.02319336,-0.9961548,0.008728027,-3.796875,-7.296875,-1.4375,899
723,1696245612656,-0.033447266,-1.0125122,0.0033569336,-1.46875,-7.046875,-0.953125,900
724,1696245612696,0.0029296875,-0.9763794,0.018737793,-2.234375,-4.6875,-0.921875,901
725,1696245612736,-0.084228516,-1.0147095,0.024597168,1.8125,-4.703125,1.0,902
726,1696245612776,-0.013427734,-0.9990845,0.027770996,0.71875,-2.859375,0.234375,903
727,1696245612816,-0.049804688,-0.9841919,0.022644043,1.546875,-2.484375,1.546875,904
728,1696245612856,-0.032958984,-0.986145,0.023864746,1.796875,-1.640625,1.046875,905
729,1696245612896,-0.01953125,-1.0003052,0.026550293,0.65625,-1.078125,1.40625,906
730,1696245612936,-0.03149414,-0.9951782,0.035827637,1.3125,0.15625,1.234375,907
731,1696245612976,-0.03173828,-1.0120239,0.034851074,1.609375,2.296875,1.265625,908
732,1696245613016,-0.033935547,-0.9883423,0.027282715,1.546875,1.265625,0.75,909
733,1696245613056,-0.015380859,-0.98028564,0.007751465,-2.46875,2.40625,0.375,910
734,1696245613096,-0.033935547,-1.00177,0.010681152,-5.515625,1.09375,-0.890625,911
735,1696245613136,-0.03881836,-1.006897,0.02557373,-4.015625,2.453125,-1.421875,912
736,1696245613176,-0.02319336,-0.991272,0.039245605,-0.46875,4.078125,-0.390625,913
737,1696245613216,-0.030029297,-0.9795532,0.0060424805,-2.0,5.46875,-0.921875,914
738,1696245613256,-0.04736328,-0.98223877,0.030456543,1.328125,3.625,0.171875,915
739,1696245613296,-0.046875,-0.9963989,0.026062012,1.5625,3.609375,0.625,916
740,1696245613336,-0.028808594,-0.98101807,0.014587402,-0.671875,3.609375,0.109375,917
741,1696245613376,-0.040527344,-0.98223877,0.025817871,-0.25,2.390625,0.34375,918
742,1696245613416,-0.032226562,-0.9939575,0.02166748,-0.921875,2.03125,0.25,919
743,1696245613456,-0.049072266,-0.98760986,0.0289917,-0.765625,1.15625,0.671875,920
744,1696245613496,-0.048095703,-0.99346924,0.045837402,-0.359375,0.3125,-0.015625,921
745,1696245613536,-0.034423828,-0.98321533,0.006286621,0.796875,1.703125,-1.140625,922
746,1696245613576,-0.02758789,-0.95880127,0.01776123,2.0,0.078125,-0.328125,923
747,1696245613616,-0.03955078,-0.960022,0.014343262,1.796875,-2.8125,0.8125,924
748,1696245613656,-0.018066406,-0.9812622,-0.0010375977,8.3125,-1.953125,1.078125,925
749,1696245613696,-0.021728516,-0.97784424,0.013122559,6.796875,-1.984375,0.609375,926
750,1696245613736,-0.021972656,-0.96051025,-0.051330566,1.671875,-2.640625,0.296875,927
751,1696245613776,-0.052001953,-0.9561157,0.0006713867,-1.265625,-10.453125,-0.609375,928
752,1696245613816,-0.03857422,-0.9920044,0.014099121,-3.890625,-8.9375,-0.484375,929
753,1696245613856,-0.032714844,-1.0144653,0.012878418,-3.515625,-8.9375,-1.390625,930
754,1696245613896,-0.03881836,-0.9990845,0.032409668,-2.375,-9.296875,-0.546875,931
755,1696245613936,-0.033203125,-0.98443604,-0.0068969727,-0.625,-6.109375,-0.609375,932
756,1696245613976,-0.03564453,-0.9981079,0.017028809,1.0,-2.9375,0.03125,933
757,1696245614016,-0.03125,-0.9866333,0.007019043,1.359375,-2.046875,0.359375,934
758,1696245614056,-0.03173828,-1.0044556,0.015808105,1.296875,-0.65625,0.953125,935
759,1696245614096,-0.03149414,-0.98272705,0.019714355,0.59375,-1.4375,0.703125,936
