,timestamp,accel_x,accel_y,accel_z,gyro_x,gyro_y,gyro_z,ind
0,1696244626382,-0.10131836,-0.9702759,0.18060303,-0.75,-0.09375,0.171875,0
1,1696244626422,-0.10864258,-0.9846802,0.17132568,-1.34375,-0.234375,0.265625,1
2,1696244626462,-0.118896484,-0.98223877,0.20257568,2.265625,-2.296875,0.796875,2
3,1696244626502,-0.09350586,-0.9639282,0.15203857,-1.921875,0.671875,-0.046875,3
4,1696244626542,-0.115234375,-0.97540283,0.19158936,0.890625,0.234375,0.4375,4
5,1696244626582,-0.11230469,-0.98028564,0.18035889,1.0625,-0.671875,0.421875,5
6,1696244626622,-0.11010742,-0.9824829,0.16912842,0.078125,0.1875,0.5,6
7,1696244626662,-0.107421875,-0.97906494,0.18865967,1.609375,-0.53125,0.65625,7
8,1696244626702,-0.11206055,-0.9819946,0.1762085,1.484375,-0.09375,0.703125,8
9,1696244626742,-0.10522461,-0.97735596,0.16888428,-0.03125,-0.484375,0.53125,9
10,1696244626782,-0.10913086,-0.9783325,0.1798706,0.75,-0.421875,0.828125,10
11,1696244626822,-0.103027344,-0.9783325,0.17401123,1.484375,-0.328125,0.859375,11
12,1696244626862,-0.09863281,-0.9780884,0.17156982,0.640625,-0.578125,0.734375,12
13,1696244626902,-0.10864258,-0.9717407,0.1749878,0.953125,-0.640625,0.609375,13
14,1696244626942,-0.100097656,-0.9807739,0.15325928,2.390625,-0.875,0.65625,14
15,1696244626982,-0.107910156,-0.9834595,0.18035889,2.859375,-0.671875,0.953125,15
16,1696244627022,-0.103271484,-0.9656372,0.17132568,0.71875,0.28125,0.328125,16
17,1696244627062,-0.103027344,-0.98443604,0.15765381,0.78125,-0.453125,0.9375,17
18,1696244627102,-0.09838867,-0.9758911,0.16229248,-0.828125,1.046875,0.390625,18
19,1696244627142,-0.10620117,-0.98321533,0.17889404,2.828125,-0.0625,1.109375,19
20,1696244627182,-0.09765625,-0.98150635,0.15130615,1.0625,0.3125,0.546875,20
21,1696244627222,-0.099121094,-0.9780884,0.16009521,0.9375,0.578125,0.96875,21
22,1696244627262,-0.100097656,-0.9812622,0.15228271,1.40625,-0.265625,0.5625,22
23,1696244627302,-0.104003906,-0.9824829,0.15350342,1.21875,-0.203125,0.5,23
24,1696244627342,-0.095214844,-0.9768677,0.15863037,1.25,-0.03125,0.671875,24
25,1696244627382,-0.09350586,-0.97857666,0.13861084,2.25,0.109375,1.03125,25
26,1696244627422,-0.09106445,-0.98101807,0.15008545,3.171875,0.390625,1.109375,26
27,1696244627462,-0.095703125,-0.9819946,0.14642334,2.125,0.296875,1.078125,27
28,1696244627502,-0.0925293,-0.98687744,0.14031982,1.40625,-0.234375,0.84375,28
29,1696244627542,-0.09082031,-0.97613525,0.13885498,1.328125,-0.078125,0.71875,29
30,1696244627582,-0.09033203,-0.98272705,0.12664795,0.25,0.40625,0.65625,30
31,1696244627622,-0.088378906,-0.9956665,0.1383667,2.890625,-1.046875,0.84375,31
32,1696244627662,-0.075927734,-0.97442627,0.1149292,-1.96875,0.6875,0.453125,32
33,1696244627702,-0.1003418,-0.98394775,0.1473999,0.453125,0.078125,0.9375,33
34,1696244627742,-0.091308594,-0.98394775,0.14227295,1.234375,-0.3125,0.5625,34
35,1696244627782,-0.0847168,-0.97906494,0.124938965,2.71875,-0.0625,0.8125,35
36,1696244627822,-0.09008789,-0.98760986,0.13470459,4.125,-0.234375,1.203125,36
37,1696244627862,-0.079589844,-0.9837036,0.11883545,2.328125,0.0625,1.296875,37
38,1696244627902,-0.079833984,-0.98394775,0.11566162,1.90625,-0.421875,1.046875,38
39,1696244627942,-0.076660156,-0.98394775,0.12298584,1.859375,-0.625,1.25,39
40,1696244627982,-0.07861328,-0.9846802,0.10784912,2.203125,-1.21875,1.21875,40
41,1696244628022,-0.08276367,-0.98931885,0.11102295,2.34375,-0.8125,1.390625,41
42,1696244628062,-0.06689453,-0.9812622,0.10296631,0.65625,-0.703125,0.78125,42
43,1696244628102,-0.08666992,-0.9890747,0.109313965,-0.5,-0.625,1.03125,43
44,1696244628142,-0.07373047,-0.98809814,0.09515381,-0.34375,-0.171875,0.8125,44
45,1696244628182,-0.076416016,-0.9915161,0.11907959,1.03125,-0.203125,1.4375,45
46,1696244628222,-0.0625,-0.9788208,0.081970215,0.265625,0.796875,1.03125,46
47,1696244628262,-0.07324219,-0.9924927,0.109313965,2.390625,0.65625,1.203125,47
48,1696244628302,-0.064208984,-0.9885864,0.112976074,2.03125,0.65625,0.5625,48
49,1696244628342,-0.07006836,-0.9902954,0.097839355,1.25,0.4375,0.671875,49
50,1696244628382,-0.06689453,-0.9920044,0.10809326,0.53125,0.34375,0.421875,50
51,1696244628422,-0.0703125,-0.9854126,0.09466553,1.203125,-0.078125,0.5,51
52,1696244628462,-0.064208984,-0.9927368,0.093933105,1.484375,-0.609375,-0.015625,52
53,1696244628502,-0.07055664,-0.98150635,0.09588623,0.5625,0.1875,0.328125,53
54,1696244628542,-0.06323242,-0.9898071,0.081726074,0.140625,-0.421875,-0.125,54
55,1696244628582,-0.06298828,-0.987854,0.09100342,0.8125,-0.0625,0.390625,55
56,1696244628622,-0.072753906,-0.9924927,0.09222412,1.015625,-0.484375,0.53125,56
57,1696244628662,-0.05834961,-0.9780884,0.08416748,-0.203125,0.703125,0.671875,57
58,1696244628702,-0.07080078,-1.0090942,0.09075928,0.734375,-0.5,0.5,58
59,1696244628742,-0.061523438,-0.97540283,0.11566162,0.8125,0.03125,0.28125,59
60,1696244628782,-0.06958008,-0.9885864,0.07562256,-0.21875,-0.296875,0.203125,60
61,1696244628822,-0.067871094,-0.9890747,0.085876465,0.6875,-0.203125,0.9375,61
62,1696244628862,-0.068603516,-0.991272,0.09710693,1.609375,-0.0625,0.921875,62
63,1696244628902,-0.05419922,-0.9854126,0.078063965,-0.21875,0.3125,0.453125,63
64,1696244628942,-0.059570312,-0.99005127,0.09661865,-0.6875,0.0,0.59375,64
65,1696244628982,-0.06567383,-0.9924927,0.085632324,-0.484375,-0.203125,0.25,65
66,1696244629022,-0.06591797,-0.9837036,0.085876465,-0.375,-1.0,0.21875,66
67,1696244629062,-0.068359375,-0.9819946,0.09979248,-0.125,-0.78125,0.09375,67
68,1696244629102,-0.07299805,-0.9937134,0.09466553,-0.4375,-0.484375,-0.171875,68
69,1696244629142,-0.057128906,-0.9854126,0.089538574,-0.71875,-0.234375,-0.1875,69
70,1696244629182,-0.068115234,-0.9859009,0.09954834,-0.984375,-0.4375,-0.125,70
71,1696244629222,-0.05908203,-0.99298096,0.09075928,-1.453125,-0.125,-0.28125,71
72,1696244629262,-0.06225586,-0.99102783,0.10272217,-1.3125,-0.5625,-0.328125,72
73,1696244629302,-0.07421875,-0.9890747,0.12249756,0.59375,-2.203125,-0.109375,73
74,1696244629342,-0.0690918,-0.9859009,0.07684326,-1.96875,-3.015625,-0.484375,74
75,1696244629382,-0.071777344,-0.9873657,0.09686279,-1.96875,-2.46875,-0.4375,75
76,1696244629422,-0.080566406,-0.98321533,0.10736084,-0.546875,-2.484375,-0.125,76
77,1696244629462,-0.068359375,-0.99102783,0.09710693,-1.078125,-1.40625,-0.28125,77
78,1696244629502,-0.06958008,-0.9854126,0.10858154,-1.5625,-2.546875,0.0,78
79,1696244629542,-0.075683594,-0.9854126,0.101257324,-1.078125,-2.6875,-0.453125,79
80,1696244629582,-0.0703125,-0.989563,0.097351074,-1.03125,-1.828125,-0.203125,80
81,1696244629622,-0.068359375,-0.9758911,0.11224365,-0.96875,-1.859375,-0.265625,81
82,1696244629662,-0.067871094,-0.9849243,0.105895996,-2.109375,-2.046875,-0.296875,82
83,1696244629702,-0.071777344,-0.9758911,0.11004639,-2.578125,-1.765625,-0.046875,83
84,1696244629742,-0.07299805,-0.989563,0.101745605,0.8125,-0.890625,0.0,84
85,1696244629782,-0.07495117,-0.98150635,0.10369873,0.1875,-0.875,0.03125,85
86,1696244629822,-0.07910156,-0.9924927,0.105407715,0.359375,-1.28125,0.171875,86
87,1696244629862,-0.079833984,-0.9819946,0.12445068,1.484375,-0.71875,0.140625,87
88,1696244629902,-0.07714844,-0.98516846,0.09564209,-1.0,1.296875,0.203125,88
89,1696244629942,-0.08300781,-0.9883423,0.109558105,-1.3125,0.234375,-0.03125,89
90,1696244629982,-0.075927734,-0.99102783,0.11590576,-0.890625,0.234375,-0.1875,90
91,1696244630022,-0.084472656,-0.9795532,0.11053467,-1.328125,0.203125,-0.125,91
92,1696244630062,-0.07910156,-0.9866333,0.12322998,-0.984375,0.09375,0.09375,92
93,1696244630102,-0.07543945,-0.9849243,0.120788574,-0.875,-0.9375,-0.328125,93
94,1696244630142,-0.076416016,-0.98272705,0.10882568,-1.796875,-0.796875,0.0,94
95,1696244630182,-0.07739258,-0.98687744,0.11468506,-1.0625,-0.5625,0.046875,95
96,1696244630222,-0.07519531,-0.98687744,0.11883545,-0.859375,-0.5625,0.046875,96
97,1696244630262,-0.079589844,-0.97857666,0.117370605,-1.375,-0.34375,-0.0625,97
98,1696244630302,-0.08251953,-0.9885864,0.13201904,-0.109375,-0.734375,0.09375,98
99,1696244630342,-0.07519531,-0.9854126,0.11956787,-1.1875,-0.703125,0.109375,99
100,1696244630382,-0.08544922,-0.98883057,0.121276855,-0.53125,-0.96875,-0.09375,100
101,1696244630422,-0.083984375,-0.98931885,0.13446045,0.875,-0.484375,0.328125,101
102,1696244630462,-0.06958008,-0.98760986,0.11175537,-1.640625,-0.03125,0.21875,102
103,1696244630502,-0.08544922,-0.98394775,0.1395874,0.375,0.625,0.75,103
104,1696244630542,-0.08203125,-0.9837036,0.1251831,0.921875,0.046875,0.1875,104
105,1696244630582,-0.08178711,-0.98321533,0.11956787,0.984375,0.109375,0.421875,105
106,1696244630622,-0.07128906,-0.9783325,0.11810303,0.578125,-0.46875,0.484375,106
107,1696244630662,-0.07324219,-0.9973755,0.11590576,0.21875,-0.671875,0.078125,107
108,1696244630702,-0.0769043,-0.97662354,0.117370605,-0.5625,-0.1875,0.0625,108
109,1696244630742,-0.08129883,-0.9937134,0.12420654,0.640625,-0.328125,0.234375,109
110,1696244630782,-0.08227539,-0.9939575,0.12249756,1.28125,-0.65625,0.328125,110
111,1696244630822,-0.072509766,-0.97442627,0.11956787,1.765625,-0.078125,0.171875,111
112,1696244630862,-0.07910156,-0.9854126,0.11248779,0.96875,0.015625,0.203125,112
113,1696244630902,-0.08105469,-0.99176025,0.1149292,0.765625,-0.4375,0.21875,113
114,1696244630942,-0.08886719,-0.9846802,0.12786865,1.84375,-0.640625,0.25,114
115,1696244630982,-0.078125,-0.9793091,0.11883545,-0.0625,0.8125,0.40625,115
116,1696244631022,-0.08227539,-0.9949341,0.10687256,0.84375,-0.796875,0.484375,116
117,1696244631062,-0.076171875,-0.98687744,0.11785889,-0.4375,1.34375,0.5625,117
118,1696244631102,-0.0715332,-0.9854126,0.11785889,0.171875,-0.09375,0.03125,118
119,1696244631142,-0.08276367,-0.98931885,0.1161499,0.578125,0.09375,-0.09375,119
120,1696244631182,-0.07788086,-0.9846802,0.11224365,-0.296875,-0.203125,-0.046875,120
121,1696244631222,-0.07470703,-0.987854,0.109069824,1.0625,-0.421875,0.015625,121
122,1696244631262,-0.080566406,-0.99298096,0.10858154,1.171875,-1.34375,-0.140625,122
123,1696244631302,-0.07324219,-0.98272705,0.11151123,0.140625,0.0625,-0.046875,123
124,1696244631342,-0.076660156,-0.9885864,0.109558105,0.75,-0.0625,0.28125,124
125,1696244631382,-0.07739258,-0.9829712,0.101257324,0.3125,0.71875,0.40625,125
126,1696244631422,-0.08251953,-0.9902954,0.10687256,0.046875,-0.25,0.484375,126
127,1696244631462,-0.07470703,-0.9854126,0.11248779,1.390625,0.6875,0.359375,127
128,1696244631502,-0.07128906,-0.98883057,0.10369873,0.921875,0.296875,0.1875,128
129,1696244631542,-0.07739258,-0.98223877,0.10614014,0.90625,0.515625,0.484375,129
130,1696244631582,-0.072753906,-0.98150635,0.08660889,0.421875,0.359375,0.25,130
131,1696244631622,-0.07739258,-0.99005127,0.10345459,2.5625,-0.859375,0.703125,131
132,1696244631662,-0.064941406,-0.98443604,0.089538574,-0.109375,1.25,0.796875,132
133,1696244631702,-0.07910156,-0.99884033,0.11224365,1.15625,0.46875,1.15625,133
134,1696244631742,-0.06567383,-0.98565674,0.097839355,0.8125,1.140625,0.21875,134
135,1696244631782,-0.07519531,-0.99005127,0.105407715,0.703125,0.484375,0.71875,135
136,1696244631822,-0.07495117,-0.986145,0.10223389,-0.21875,-0.265625,0.265625,136
137,1696244631862,-0.07739258,-0.9817505,0.09906006,-0.625,-0.671875,0.1875,137
138,1696244631902,-0.07519531,-0.989563,0.10003662,-0.265625,-0.09375,0.5,138
139,1696244631942,-0.072265625,-0.973938,0.10760498,-0.203125,0.515625,0.21875,139
140,1696244631982,-0.07788086,-0.98883057,0.09564209,1.234375,-0.125,0.53125,140
141,1696244632022,-0.07836914,-0.9920044,0.09857178,0.84375,-0.46875,0.46875,141
142,1696244632062,-0.07788086,-0.9805298,0.10394287,0.390625,-0.59375,0.125,142
143,1696244632102,-0.07299805,-0.98931885,0.09075928,0.359375,-1.03125,0.203125,143
144,1696244632142,-0.0715332,-0.9902954,0.097839355,0.46875,0.078125,0.6875,144
145,1696244632182,-0.072509766,-0.9854126,0.0993042,-0.078125,0.234375,0.46875,145
146,1696244632222,-0.075927734,-0.9800415,0.090270996,0.09375,-0.453125,0.265625,146
147,1696244632262,-0.06958008,-0.9829712,0.10028076,0.484375,0.25,0.59375,147
148,1696244632302,-0.072265625,-0.991272,0.07928467,-0.390625,-0.4375,0.0,148
149,1696244632342,-0.06591797,-0.9866333,0.08782959,0.421875,-1.546875,0.359375,149
150,1696244632382,-0.06225586,-0.9780884,0.08148193,-0.3125,0.109375,0.46875,150
151,1696244632422,-0.08129883,-0.9973755,0.10296631,0.265625,-0.421875,0.515625,151
152,1696244632462,-0.071777344,-0.98809814,0.090026855,0.390625,-0.15625,0.0,152
153,1696244632502,-0.0703125,-0.98883057,0.094177246,-0.09375,0.390625,0.390625,153
154,1696244632542,-0.0690918,-0.9846802,0.09490967,-0.34375,-0.015625,-0.046875,154
155,1696244632582,-0.06982422,-0.9834595,0.09100342,-0.078125,-0.203125,-0.03125,155
156,1696244632622,-0.07519531,-0.99542236,0.08831787,-0.578125,0.078125,0.3125,156
157,1696244632662,-0.07470703,-0.99005127,0.09979248,-0.4375,0.078125,0.203125,157
158,1696244632702,-0.07104492,-0.99468994,0.09173584,0.296875,-0.0625,0.328125,158
159,1696244632742,-0.06567383,-0.97857666,0.086364746,-0.53125,0.46875,0.546875,159
160,1696244632782,-0.07104492,-0.9873657,0.094177246,0.25,-0.53125,0.734375,160
161,1696244632822,-0.06933594,-0.99102783,0.09442139,-0.21875,-0.59375,0.15625,161
162,1696244632862,-0.07861328,-0.98931885,0.08929443,0.359375,-0.03125,0.203125,162
163,1696244632902,-0.072753906,-0.9885864,0.094177246,0.28125,-0.890625,0.265625,163
164,1696244632942,-0.07421875,-1.0005493,0.094177246,-0.578125,-1.359375,0.28125,164
165,1696244632982,-0.067871094,-0.9807739,0.09564209,-1.359375,-0.5625,-0.25,165
166,1696244633022,-0.071777344,-0.9927368,0.09954834,-2.25,-0.0625,-0.046875,166
167,1696244633062,-0.064697266,-0.99957275,0.121032715,-2.734375,-2.0625,-0.703125,167
168,1696244633102,-0.06567383,-0.99176025,0.12200928,-1.578125,-5.703125,-1.46875,168
169,1696244633142,-0.07299805,-0.98150635,0.07977295,-4.25,-3.109375,-1.4375,169
170,1696244633182,-0.0859375,-0.99053955,0.1071167,-1.140625,-2.078125,-0.140625,170
171,1696244633222,-0.0859375,-0.9824829,0.113220215,-2.34375,-3.203125,-0.90625,171
172,1696244633262,-0.088378906,-0.9800415,0.12542725,-4.265625,-3.03125,-1.125,172
173,1696244633302,-0.08251953,-1.0020142,0.11981201,-2.484375,-3.546875,-0.890625,173
174,1696244633342,-0.083984375,-0.9883423,0.12762451,-1.953125,-2.875,-0.765625,174
175,1696244633382,-0.083984375,-0.9800415,0.12225342,-0.640625,-2.671875,-0.359375,175
176,1696244633422,-0.08911133,-0.98321533,0.124938965,-0.109375,-0.875,0.0625,176
177,1696244633462,-0.084228516,-0.9849243,0.12640381,0.25,-0.84375,0.234375,177
178,1696244633502,-0.08618164,-0.9795532,0.11810303,0.5,-0.140625,0.34375,178
179,1696244633542,-0.08618164,-0.98565674,0.121520996,0.296875,-0.4375,0.4375,179
180,1696244633582,-0.09008789,-0.98321533,0.1317749,0.359375,-1.203125,0.328125,180
181,1696244633622,-0.088134766,-0.9793091,0.12786865,-0.09375,-0.84375,-0.109375,181
182,1696244633662,-0.080566406,-0.98272705,0.1251831,-0.28125,-0.765625,0.0625,182
183,1696244633702,-0.08520508,-0.9949341,0.12884521,-0.484375,-0.75,0.28125,183
184,1696244633742,-0.083740234,-0.9873657,0.12762451,-0.21875,-0.890625,0.21875,184
185,1696244633782,-0.0859375,-0.9763794,0.13275146,0.53125,-0.53125,0.46875,185
186,1696244633822,-0.08496094,-0.98565674,0.13031006,-1.0,-0.328125,0.203125,186
187,1696244633862,-0.091308594,-0.9859009,0.1227417,-0.484375,-2.15625,0.0625,187
188,1696244633902,-0.083984375,-0.97979736,0.13201904,-1.5,0.375,0.34375,188
189,1696244633942,-0.08300781,-0.9866333,0.14007568,-0.546875,-0.40625,0.015625,189
190,1696244633982,-0.09057617,-0.98321533,0.12884521,-1.171875,-0.296875,-0.4375,190
191,1696244634022,-0.0859375,-0.9824829,0.14056396,-0.6875,-0.28125,-0.03125,191
192,1696244634062,-0.092041016,-0.9819946,0.13372803,-0.546875,-0.140625,0.109375,192
193,1696244634102,-0.0871582,-0.98272705,0.13323975,-0.34375,-0.546875,0.171875,193
194,1696244634142,-0.09765625,-0.97857666,0.12567139,-0.359375,-0.859375,0.453125,194
195,1696244634182,-0.09301758,-0.9883423,0.13641357,-0.0625,-0.359375,0.359375,195
196,1696244634222,-0.08300781,-0.9805298,0.13153076,0.8125,0.28125,0.609375,196
197,1696244634262,-0.0859375,-0.9812622,0.1359253,0.515625,-0.296875,0.515625,197
198,1696244634302,-0.091308594,-0.9873657,0.13885498,0.53125,-0.609375,0.28125,198
199,1696244634342,-0.091796875,-0.98443604,0.13250732,0.75,-0.890625,0.234375,199
200,1696244634382,-0.092041016,-0.98809814,0.12640381,0.609375,-0.453125,0.546875,200
201,1696244634422,-0.083984375,-0.9776001,0.12591553,-0.1875,0.671875,0.78125,201
202,1696244634462,-0.087890625,-0.9898071,0.13543701,0.453125,0.390625,0.671875,202
203,1696244634502,-0.08642578,-0.98101807,0.12738037,0.390625,-0.140625,0.359375,203
204,1696244634542,-0.0859375,-0.9871216,0.12591553,0.625,-0.4375,0.3125,204
205,1696244634582,-0.083740234,-0.9800415,0.13787842,2.109375,-0.140625,0.765625,205
206,1696244634622,-0.07543945,-0.9819946,0.11151123,-1.0625,0.953125,0.109375,206
207,1696244634662,-0.08618164,-0.97735596,0.14300537,0.8125,1.046875,0.625,207
208,1696244634702,-0.088378906,-0.98565674,0.13323975,0.9375,0.453125,0.15625,208
209,1696244634742,-0.08325195,-0.98931885,0.12249756,0.90625,0.296875,0.546875,209
210,1696244634782,-0.08227539,-0.98394775,0.11590576,1.03125,-0.1875,0.359375,210
211,1696244634822,-0.08251953,-0.9927368,0.13446045,2.21875,-0.6875,0.359375,211
212,1696244634862,-0.080322266,-0.97613525,0.11517334,0.5625,-0.765625,0.203125,212
213,1696244634902,-0.07763672,-0.99005127,0.117614746,0.75,0.078125,0.765625,213
214,1696244634942,-0.0847168,-0.9841919,0.11517334,1.125,-0.015625,0.25,214
215,1696244634982,-0.08618164,-0.9788208,0.117614746,0.9375,0.65625,0.578125,215
216,1696244635022,-0.07836914,-0.986145,0.116882324,0.78125,-0.625,0.265625,216
217,1696244635062,-0.07470703,-0.98931885,0.11566162,1.359375,-0.703125,0.15625,217
218,1696244635102,-0.084472656,-0.99346924,0.11029053,1.390625,-0.53125,0.109375,218
219,1696244635142,-0.083496094,-0.9805298,0.105163574,0.53125,0.421875,0.40625,219
220,1696244635182,-0.07495117,-0.99420166,0.11029053,-0.015625,-0.484375,0.28125,220
221,1696244635222,-0.08520508,-0.9741821,0.105407715,-0.046875,-0.359375,0.15625,221
222,1696244635262,-0.0793457,-0.9834595,0.11077881,1.1875,-0.25,0.203125,222
223,1696244635302,-0.08276367,-0.98687744,0.097351074,0.96875,-0.640625,0.109375,223
224,1696244635342,-0.07739258,-0.9890747,0.11590576,2.375,-0.921875,0.546875,224
225,1696244635382,-0.0715332,-0.98150635,0.09051514,0.0625,0.703125,0.4375,225
226,1696244635422,-0.080322266,-0.9956665,0.11517334,1.125,0.21875,0.625,226
227,1696244635462,-0.079589844,-0.9866333,0.105407715,0.453125,0.96875,0.578125,227
228,1696244635502,-0.07421875,-0.9854126,0.10223389,0.359375,-0.03125,0.203125,228
229,1696244635542,-0.08081055,-0.98638916,0.10321045,-0.15625,-0.296875,0.25,229
230,1696244635582,-0.06933594,-0.987854,0.09710693,-0.453125,-1.71875,0.078125,230
231,1696244635622,-0.08154297,-0.9849243,0.09442139,0.5,-0.828125,0.09375,231
232,1696244635662,-0.076416016,-0.99176025,0.11004639,0.375,0.359375,0.84375,232
233,1696244635702,-0.07788086,-0.9885864,0.10003662,1.046875,-0.109375,0.40625,233
234,1696244635742,-0.071777344,-0.9927368,0.09588623,0.71875,0.296875,0.421875,234
235,1696244635782,-0.07128906,-0.9812622,0.10076904,0.796875,-0.078125,0.578125,235
236,1696244635822,-0.07714844,-0.98931885,0.09490967,1.0,-0.25,0.71875,236
237,1696244635862,-0.0715332,-0.9859009,0.09466553,0.671875,0.265625,0.640625,237
238,1696244635902,-0.076171875,-0.9866333,0.09515381,0.25,0.09375,0.4375,238
239,1696244635942,-0.06298828,-0.97979736,0.09197998,0.34375,0.046875,0.296875,239
240,1696244635982,-0.07543945,-0.98809814,0.09539795,0.109375,-0.296875,0.53125,240
241,1696244636022,-0.07788086,-0.98516846,0.09857178,0.203125,-0.1875,0.796875,241
242,1696244636062,-0.0769043,-0.99420166,0.074157715,-0.203125,-0.859375,0.5625,242
243,1696244636102,-0.06640625,-0.97320557,0.10223389,0.78125,-0.015625,0.875,243
244,1696244636142,-0.07055664,-0.99298096,0.06732178,0.328125,1.296875,0.703125,244
245,1696244636182,-0.059570312,-0.9951782,0.090270996,0.65625,0.171875,0.953125,245
246,1696244636222,-0.0703125,-0.9846802,0.094177246,0.8125,0.171875,0.953125,246
247,1696244636262,-0.071777344,-0.9819946,0.08050537,1.109375,0.109375,0.953125,247
248,1696244636302,-0.07446289,-0.9932251,0.08148193,1.0,-1.015625,0.75,248
249,1696244636342,-0.064453125,-1.0012817,0.0770874,-0.375,-1.34375,0.375,249
250,1696244636382,-0.05810547,-0.98272705,0.082214355,0.375,-0.546875,0.1875,250
251,1696244636422,-0.059570312,-0.9907837,0.082458496,0.78125,-0.046875,0.625,251
252,1696244636462,-0.060546875,-0.98760986,0.086120605,0.125,-0.65625,0.484375,252
253,1696244636502,-0.059570312,-0.99102783,0.081970215,0.390625,-0.1875,0.296875,253
254,1696244636542,-0.06591797,-0.98760986,0.08001709,0.09375,-0.65625,0.21875,254
255,1696244636582,-0.068847656,-0.98809814,0.08148193,0.265625,-0.65625,0.703125,255
256,1696244636622,-0.06689453,-0.9898071,0.078063965,0.40625,-0.453125,0.65625,256
257,1696244636662,-0.0625,-0.9871216,0.07366943,0.296875,-0.53125,0.5,257
258,1696244636702,-0.060791016,-0.98150635,0.08441162,0.140625,-0.421875,0.40625,258
259,1696244636742,-0.06982422,-0.99102783,0.07635498,0.09375,-0.375,0.25,259
260,1696244636782,-0.06274414,-0.97906494,0.08148193,0.0625,-0.640625,0.078125,260
261,1696244636822,-0.06591797,-0.987854,0.08343506,0.359375,0.125,0.1875,261
262,1696244636862,-0.057861328,-0.98443604,0.06903076,-0.53125,-0.078125,0.1875,262
263,1696244636902,-0.057617188,-0.9859009,0.08392334,-1.109375,0.078125,0.0,263
264,1696244636942,-0.064208984,-0.9961548,0.089782715,-0.421875,-0.328125,0.109375,264
265,1696244636982,-0.063964844,-0.9829712,0.086120605,-0.359375,-0.671875,0.203125,265
266,1696244637022,-0.061279297,-0.98516846,0.0848999,0.3125,-0.46875,0.234375,266
267,1696244637062,-0.06713867,-0.99224854,0.08538818,-0.09375,-0.578125,-0.046875,267
268,1696244637102,-0.05859375,-0.9837036,0.089782715,-0.546875,-1.15625,-0.109375,268
269,1696244637142,-0.064941406,-0.98321533,0.08514404,-0.203125,-0.75,0.046875,269
270,1696244637182,-0.06640625,-0.9846802,0.08709717,-0.59375,-0.484375,0.125,270
271,1696244637222,-0.06591797,-0.9849243,0.090270996,0.0,-1.03125,-0.15625,271
272,1696244637262,-0.064208984,-0.98101807,0.08856201,-0.1875,-0.3125,-0.015625,272
273,1696244637302,-0.07128906,-0.98760986,0.0848999,-0.625,-0.921875,0.03125,273
274,1696244637342,-0.06616211,-0.9898071,0.082458496,-1.0,-0.734375,-0.15625,274
275,1696244637382,-0.07299805,-0.97979736,0.08660889,-0.015625,-0.828125,-0.296875,275
276,1696244637422,-0.0703125,-0.9846802,0.090026855,-0.125,-0.25,0.0625,276
277,1696244637462,-0.05859375,-0.9837036,0.08685303,0.03125,0.078125,0.03125,277
278,1696244637502,-0.0715332,-0.9944458,0.07879639,-0.015625,-0.734375,0.3125,278
279,1696244637542,-0.064697266,-0.99102783,0.093688965,0.8125,-0.4375,0.34375,279
280,1696244637582,-0.060546875,-0.9834595,0.070739746,-0.5,0.453125,0.109375,280
281,1696244637622,-0.07714844,-0.9846802,0.08148193,0.359375,-0.1875,0.15625,281
282,1696244637662,-0.06665039,-0.9932251,0.08148193,0.40625,0.234375,0.265625,282
283,1696244637702,-0.061523438,-0.98150635,0.078552246,0.484375,0.0625,0.203125,283
284,1696244637742,-0.06958008,-0.99102783,0.08782959,0.140625,-0.125,0.65625,284
285,1696244637782,-0.06274414,-0.99591064,0.06976318,0.015625,-0.265625,0.703125,285
286,1696244637822,-0.053222656,-0.9776001,0.08709717,0.53125,-0.15625,0.5,286
287,1696244637862,-0.06689453,-0.99224854,0.08123779,0.953125,-0.5,0.90625,287
288,1696244637902,-0.06225586,-0.9963989,0.0848999,1.046875,-0.796875,0.53125,288
289,1696244637942,-0.057861328,-0.9805298,0.07269287,0.328125,-1.125,0.859375,289
290,1696244637982,-0.06518555,-0.991272,0.082458496,-0.125,-1.1875,0.953125,290
291,1696244638022,-0.064697266,-0.9898071,0.08074951,0.140625,-0.671875,0.171875,291
292,1696244638062,-0.059814453,-0.9837036,0.07659912,-0.109375,-1.21875,0.703125,292
293,1696244638102,-0.072021484,-0.99224854,0.08392334,1.03125,-1.296875,1.015625,293
294,1696244638142,-0.06298828,-0.97857666,0.085876465,0.1875,-0.6875,0.671875,294
295,1696244638182,-0.060302734,-0.9873657,0.07562256,0.65625,-0.84375,0.671875,295
296,1696244638222,-0.04663086,-0.98638916,0.06903076,0.03125,-0.90625,0.8125,296
297,1696244638262,-0.053955078,-0.98150635,0.07635498,-0.546875,-0.484375,0.59375,297
298,1696244638302,-0.060791016,-0.9890747,0.0848999,-0.1875,-0.1875,0.796875,298
299,1696244638342,-0.064941406,-0.9963989,0.07293701,-0.296875,-0.265625,0.625,299
300,1696244638382,-0.05493164,-0.9793091,0.07904053,-0.25,-0.171875,0.359375,300
301,1696244638422,-0.06201172,-0.99420166,0.077819824,-0.09375,-0.6875,0.328125,301
302,1696244638462,-0.052490234,-0.989563,0.07537842,0.125,-0.78125,0.171875,302
303,1696244638502,-0.053955078,-0.97857666,0.0680542,-0.390625,-0.828125,0.203125,303
304,1696244638542,-0.053710938,-0.99542236,0.08001709,-0.25,-0.078125,0.484375,304
305,1696244638582,-0.053710938,-0.99298096,0.078063965,-0.25,-0.21875,-0.15625,305
306,1696244638622,-0.057861328,-0.9795532,0.07757568,-0.703125,0.1875,-0.125,306
307,1696244638662,-0.055664062,-0.9890747,0.07928467,-0.109375,-0.890625,-0.0625,307
308,1696244638702,-0.06542969,-0.991272,0.08416748,0.015625,-0.65625,-0.234375,308
309,1696244638742,-0.053710938,-0.9939575,0.08441162,-0.046875,-0.25,-0.125,309
310,1696244638782,-0.05444336,-0.9837036,0.08050537,-0.328125,0.140625,-0.09375,310
311,1696244638822,-0.06225586,-0.9924927,0.06707764,-0.25,-0.125,-0.09375,311
312,1696244638862,-0.040771484,-0.9890747,0.07196045,0.09375,-0.5,-0.21875,312
313,1696244638902,-0.05078125,-0.9734497,0.078308105,-0.671875,0.421875,-0.25,313
314,1696244638942,-0.07519531,-0.9939575,0.09881592,0.046875,0.109375,-0.5,314
315,1696244638982,-0.07739258,-0.9795532,0.13250732,-2.796875,-1.0625,-0.109375,331
316,1696244639022,-0.07373047,-0.9883423,0.13519287,-2.9375,-0.953125,-0.140625,332
317,1696244639062,-0.079833984,-0.9834595,0.13323975,-1.578125,-1.359375,0.1875,333
318,1696244639102,-0.07836914,-0.9834595,0.1383667,-0.46875,-1.234375,0.296875,334
319,1696244639142,-0.08178711,-0.97662354,0.14202881,-0.9375,-1.09375,0.765625,335
320,1696244639182,-0.07885742,-0.98760986,0.14202881,-0.0625,-1.4375,0.703125,336
321,1696244639222,-0.07739258,-0.98101807,0.13568115,-0.953125,-1.4375,0.515625,337
322,1696244639262,-0.07006836,-0.98760986,0.14056396,-1.78125,-1.34375,0.875,338
323,1696244639302,-0.08276367,-0.98809814,0.15228271,-0.609375,-1.65625,0.671875,339
324,1696244639342,-0.068847656,-0.9788208,0.13763428,-0.3125,-2.34375,0.375,340
325,1696244639382,-0.08276367,-0.9817505,0.15423584,0.265625,-0.6875,0.640625,341
326,1696244639422,-0.07128906,-0.986145,0.13250732,-1.90625,-0.21875,-0.203125,342
327,1696244639462,-0.08691406,-0.98516846,0.15838623,1.234375,-2.046875,0.28125,343
328,1696244639502,-0.076416016,-0.9741821,0.1239624,-1.703125,-0.296875,0.296875,344
329,1696244639542,-0.083496094,-0.98687744,0.16375732,0.15625,-0.46875,0.328125,345
330,1696244639582,-0.07885742,-0.989563,0.14178467,0.375,-1.09375,-0.078125,346
331,1696244639622,-0.080078125,-0.98687744,0.1461792,0.296875,-1.140625,0.0625,347
332,1696244639662,-0.0769043,-0.97857666,0.14984131,0.078125,-0.6875,-0.0625,348
333,1696244639702,-0.076416016,-0.9793091,0.15252686,-0.5625,-1.15625,-0.390625,349
334,1696244639742,-0.07861328,-0.9788208,0.14837646,-0.5625,-1.015625,-0.09375,350
335,1696244639782,-0.07788086,-0.98028564,0.15130615,-0.171875,-0.765625,0.171875,351
336,1696244639822,-0.08544922,-0.9902954,0.14837646,0.0625,-1.015625,-0.03125,352
337,1696244639862,-0.07519531,-0.9807739,0.14447021,-0.03125,-0.390625,-0.25,353
338,1696244639902,-0.08325195,-0.9866333,0.14398193,0.84375,-0.859375,0.328125,354
339,1696244639942,-0.0793457,-0.98687744,0.14398193,0.609375,-0.921875,0.21875,355
340,1696244639982,-0.080566406,-0.9727173,0.14910889,1.125,-0.6875,0.59375,356
341,1696244640022,-0.076416016,-0.9807739,0.1329956,0.015625,0.109375,0.234375,357
342,1696244640062,-0.08251953,-0.991272,0.14471436,1.6875,-1.25,0.515625,358
343,1696244640102,-0.071777344,-0.9697876,0.13275146,-2.453125,0.9375,0.328125,359
344,1696244640142,-0.087890625,-0.9985962,0.15423584,0.828125,-0.015625,0.546875,360
345,1696244640182,-0.07861328,-0.9812622,0.14251709,-0.125,-0.296875,0.15625,361
346,1696244640222,-0.080322266,-0.9812622,0.14813232,0.421875,-0.1875,0.71875,362
347,1696244640262,-0.07470703,-0.9907837,0.14569092,2.890625,-0.640625,0.78125,363
348,1696244640302,-0.072265625,-0.9824829,0.14324951,1.34375,-0.5,0.4375,364
349,1696244640342,-0.07763672,-0.98028564,0.13885498,1.5625,0.015625,0.8125,365
350,1696244640382,-0.07739258,-0.98638916,0.1359253,3.359375,0.03125,0.9375,366
351,1696244640422,-0.078125,-0.9846802,0.12347412,2.359375,-0.1875,0.609375,367
352,1696244640462,-0.07495117,-0.9807739,0.12689209,2.03125,-0.21875,0.71875,368
353,1696244640502,-0.07470703,-0.99298096,0.12640381,1.21875,-0.515625,0.6875,369
354,1696244640542,-0.068359375,-0.9812622,0.116882324,-0.03125,-0.03125,0.609375,370
355,1696244640582,-0.07836914,-0.9963989,0.124694824,0.609375,-0.015625,0.484375,371
356,1696244640622,-0.068847656,-0.9829712,0.11590576,0.265625,-0.09375,0.078125,372
357,1696244640662,-0.076416016,-0.98272705,0.13397217,2.25,-0.890625,0.625,373
358,1696244640702,-0.0637207,-0.9800415,0.09442139,-1.734375,0.640625,-0.03125,374
359,1696244640742,-0.07739258,-0.9866333,0.13421631,0.640625,0.03125,0.3125,375
360,1696244640782,-0.080322266,-0.986145,0.12591553,1.484375,-0.03125,0.46875,376
361,1696244640822,-0.07104492,-0.9812622,0.11102295,1.59375,0.25,0.671875,377
362,1696244640862,-0.07006836,-0.98931885,0.12738037,2.140625,-0.21875,0.859375,378
363,1696244640902,-0.06347656,-0.9795532,0.11126709,1.125,0.828125,0.484375,379
364,1696244640942,-0.07006836,-0.99102783,0.10247803,0.234375,-0.140625,0.375,380
365,1696244640982,-0.07006836,-0.9859009,0.11029053,0.828125,-0.21875,0.65625,381
366,1696244641022,-0.06762695,-0.9837036,0.105895996,1.1875,0.390625,0.78125,382
367,1696244641062,-0.07470703,-0.987854,0.1071167,1.015625,-0.21875,0.609375,383
368,1696244641102,-0.061035156,-0.97320557,0.09588623,1.015625,0.15625,0.796875,384
369,1696244641142,-0.07006836,-1.0044556,0.11224365,1.84375,0.203125,0.921875,385
370,1696244641182,-0.05908203,-0.9819946,0.10296631,0.734375,-0.046875,0.484375,386
371,1696244641222,-0.06323242,-0.9849243,0.11248779,1.34375,-0.578125,0.6875,387
372,1696244641262,-0.0637207,-0.98516846,0.093688965,0.609375,0.0,0.6875,388
373,1696244641302,-0.06762695,-0.9951782,0.09661865,0.640625,-0.578125,0.796875,389
374,1696244641342,-0.061279297,-0.9741821,0.08807373,-0.375,0.25,0.28125,390
375,1696244641382,-0.06298828,-0.9944458,0.10223389,1.625,-0.09375,0.9375,391
376,1696244641422,-0.056640625,-0.9834595,0.090270996,0.359375,0.34375,0.578125,392
377,1696244641462,-0.061035156,-0.9885864,0.093444824,0.15625,0.046875,0.765625,393
378,1696244641502,-0.057617188,-0.98150635,0.08856201,-0.546875,-0.140625,0.265625,394
379,1696244641542,-0.052734375,-0.9817505,0.09320068,0.21875,0.0625,0.453125,395
380,1696244641582,-0.059814453,-0.9834595,0.09075928,0.65625,-0.375,1.0,396
381,1696244641622,-0.06201172,-1.0003052,0.09661865,0.671875,0.078125,0.921875,397
382,1696244641662,-0.049316406,-0.98394775,0.08831787,0.25,0.109375,0.21875,398
383,1696244641702,-0.056640625,-0.98760986,0.08831787,0.828125,-0.515625,0.90625,399
384,1696244641742,-0.05419922,-0.987854,0.086120605,1.21875,-0.546875,0.421875,400
385,1696244641782,-0.051513672,-0.989563,0.08734131,0.546875,-0.15625,0.78125,401
386,1696244641822,-0.056152344,-0.98931885,0.078308105,0.34375,-0.203125,0.375,402
387,1696244641862,-0.057617188,-0.99786377,0.081970215,0.21875,-0.515625,0.625,403
388,1696244641902,-0.055419922,-0.989563,0.105895996,2.265625,-0.8125,0.515625,404
389,1696244641942,-0.045654297,-0.9841919,0.06317139,-0.25,-0.28125,0.53125,405
390,1696244641982,-0.05053711,-0.9883423,0.09075928,-0.40625,-0.765625,0.515625,406
391,1696244642022,-0.053466797,-0.99053955,0.08758545,0.109375,-0.125,0.640625,407
392,1696244642062,-0.053466797,-0.98565674,0.086364746,-0.0625,-0.015625,0.328125,408
393,1696244642102,-0.05859375,-0.98638916,0.093933105,-0.109375,-0.640625,0.40625,409
394,1696244642142,-0.049072266,-0.9968872,0.08807373,-0.078125,-0.625,-0.015625,410
395,1696244642182,-0.045166016,-0.9937134,0.078552246,-0.125,-0.96875,-0.078125,411
396,1696244642222,-0.052734375,-0.99005127,0.08905029,0.171875,-0.953125,0.140625,412
397,1696244642262,-0.06298828,-0.98687744,0.08905029,0.0,-1.015625,0.5,413
398,1696244642302,-0.051513672,-0.99224854,0.09075928,-0.1875,-0.28125,0.53125,414
399,1696244642342,-0.05883789,-0.98516846,0.08465576,-0.09375,-0.515625,0.546875,415
400,1696244642382,-0.055908203,-0.9944458,0.08782959,0.171875,-0.5625,1.0,416
401,1696244642422,-0.04272461,-0.9776001,0.094177246,0.25,-0.734375,0.5625,417
402,1696244642462,-0.04736328,-0.9885864,0.08660889,0.421875,-0.390625,0.515625,418
403,1696244642502,-0.05053711,-0.9829712,0.08538818,-0.09375,-0.03125,0.078125,419
404,1696244642542,-0.0546875,-0.9841919,0.07659912,-0.484375,-0.203125,0.3125,420
405,1696244642582,-0.053222656,-0.98516846,0.08807373,-0.90625,0.796875,0.125,421
406,1696244642622,-0.056640625,-0.9961548,0.0927124,0.34375,-0.09375,0.75,422
407,1696244642662,-0.052734375,-0.989563,0.08441162,-0.09375,0.375,0.421875,423
408,1696244642702,-0.053710938,-0.9907837,0.09320068,-0.0625,0.703125,0.328125,424
409,1696244642742,-0.045898438,-0.99005127,0.081970215,-0.296875,0.078125,0.21875,425
410,1696244642782,-0.04272461,-0.9859009,0.09466553,-0.390625,0.25,-0.046875,426
411,1696244642822,-0.04711914,-0.9819946,0.081970215,-0.125,-0.375,0.125,427
412,1696244642862,-0.047607422,-0.99298096,0.09197998,-0.484375,-0.09375,-0.09375,428
413,1696244642902,-0.044677734,-0.9859009,0.07928467,0.0,-0.46875,0.171875,429
414,1696244642942,-0.052978516,-1.0022583,0.09222412,0.71875,-0.625,0.6875,430
415,1696244642982,-0.040283203,-0.98223877,0.08416748,0.578125,-0.9375,0.0625,431
416,1696244643022,-0.047607422,-0.986145,0.085632324,0.25,-0.5625,0.375,432
417,1696244643062,-0.048095703,-0.99664307,0.08514404,-0.25,-0.578125,0.453125,433
418,1696244643102,-0.040283203,-0.98443604,0.07147217,-0.84375,-0.21875,0.046875,434
419,1696244643142,-0.045410156,-0.99102783,0.089538574,0.625,-0.484375,0.25,435
420,1696244643182,-0.040283203,-0.98223877,0.08148193,-0.46875,0.171875,-0.203125,436
421,1696244643222,-0.057861328,-0.98809814,0.09075928,0.34375,-0.421875,0.078125,437
422,1696244643262,-0.04736328,-0.9915161,0.09173584,0.140625,-0.203125,-0.125,438
423,1696244643302,-0.049072266,-0.98394775,0.08514404,0.4375,-0.328125,0.0,439
424,1696244643342,-0.05053711,-0.99176025,0.08929443,-0.28125,-0.359375,0.234375,440
425,1696244643382,-0.05053711,-0.9939575,0.077819824,0.359375,-0.390625,-0.125,441
426,1696244643422,-0.052734375,-0.98272705,0.07562256,-0.40625,-0.609375,0.046875,442
427,1696244643462,-0.053710938,-0.9849243,0.08758545,0.25,-0.53125,0.359375,443
428,1696244643502,-0.050048828,-0.98883057,0.07611084,0.78125,-0.859375,0.359375,444
429,1696244643542,-0.048583984,-0.99053955,0.082214355,0.703125,-0.71875,0.21875,445
430,1696244643582,-0.04663086,-0.98687744,0.078308105,0.3125,-0.53125,0.5625,446
431,1696244643622,-0.049072266,-0.9841919,0.07879639,0.1875,-0.109375,0.515625,447
432,1696244643662,-0.049560547,-0.99298096,0.08392334,0.875,-0.421875,0.734375,448
433,1696244643702,-0.047851562,-0.9776001,0.08538818,0.28125,-0.78125,0.09375,449
434,1696244643742,-0.053955078,-0.986145,0.07879639,0.1875,-0.109375,0.234375,450
435,1696244643782,-0.049804688,-0.99053955,0.074401855,-0.59375,-1.125,0.359375,451
436,1696244643822,-0.04638672,-0.9807739,0.08465576,-0.359375,-0.203125,0.421875,452
437,1696244643862,-0.047607422,-0.99346924,0.086364746,0.453125,-0.296875,0.46875,453
438,1696244643902,-0.047607422,-0.9793091,0.07366943,0.53125,-0.671875,0.421875,454
439,1696244643942,-0.047607422,-0.9924927,0.07659912,0.234375,-0.671875,0.390625,455
440,1696244643982,-0.055419922,-0.9927368,0.085876465,0.5625,-0.65625,0.421875,456
441,1696244644022,-0.044921875,-0.9854126,0.08026123,0.125,-0.609375,0.28125,457
442,1696244644062,-0.053222656,-0.98150635,0.07952881,-0.359375,-0.578125,0.25,458
443,1696244644102,-0.05908203,-0.99224854,0.07757568,-0.640625,-0.234375,0.296875,459
444,1696244644142,-0.043945312,-0.9783325,0.0758667,-0.609375,-0.234375,-0.140625,460
445,1696244644182,-0.049316406,-0.98443604,0.07196045,-0.28125,-0.453125,0.140625,461
446,1696244644222,-0.046875,-0.98809814,0.08538818,-0.15625,-0.421875,0.109375,462
447,1696244644262,-0.04296875,-0.98565674,0.07611084,-0.0625,-0.421875,-0.34375,463
448,1696244644302,-0.044433594,-0.98931885,0.07562256,-0.21875,-0.625,0.03125,464
449,1696244644342,-0.048339844,-0.9939575,0.09442139,0.21875,-0.71875,0.234375,465
450,1696244644382,-0.046875,-0.9771118,0.09613037,0.265625,0.453125,0.03125,466
451,1696244644422,-0.048095703,-0.9961548,0.07244873,-0.40625,-0.46875,0.4375,467
452,1696244644462,-0.045410156,-0.99468994,0.08441162,-0.5625,-0.40625,0.109375,468
453,1696244644502,-0.04272461,-0.986145,0.07757568,-0.46875,-0.640625,0.125,469
454,1696244644542,-0.05102539,-0.98516846,0.07757568,-0.625,-0.46875,0.09375,470
455,1696244644582,-0.036621094,-0.98809814,0.09100342,-0.28125,0.078125,0.28125,471
456,1696244644622,-0.045410156,-0.9920044,0.07293701,-0.734375,-0.578125,0.296875,472
457,1696244644662,-0.049316406,-0.97784424,0.086364746,-0.609375,-0.546875,0.5625,473
458,1696244644702,-0.056396484,-0.9915161,0.0927124,-0.484375,-0.5625,0.25,474
459,1696244644742,-0.052978516,-0.99591064,0.10247803,-0.21875,-0.734375,0.109375,475
460,1696244644782,-0.033203125,-0.9800415,0.09686279,0.9375,-0.28125,-0.140625,476
461,1696244644822,-0.05126953,-1.0022583,0.098083496,4.09375,-3.234375,-0.28125,477
462,1696244644862,-0.05517578,-0.9976196,0.08465576,2.421875,-2.578125,-0.40625,478
463,1696244644902,-0.040039062,-0.97784424,0.034606934,3.90625,-1.09375,0.328125,479
464,1696244644942,-0.04321289,-0.9714966,0.058532715,2.5,0.875,1.375,480
465,1696244644982,-0.055664062,-0.99346924,0.02923584,1.578125,-2.0625,1.1875,481
466,1696244645022,-0.032958984,-0.9849243,0.05657959,0.9375,-0.71875,0.4375,482
467,1696244645062,-0.060058594,-0.97857666,0.050231934,-1.109375,-0.84375,0.5625,483
468,1696244645102,-0.052001953,-0.9963989,0.066833496,-0.515625,-1.078125,0.359375,484
469,1696244645142,-0.037109375,-0.98223877,0.06317139,-0.96875,-0.75,0.078125,485
470,1696244645182,-0.041015625,-0.9871216,0.06707764,-1.203125,-0.953125,-0.0625,486
471,1696244645222,-0.04663086,-0.98638916,0.061706543,-1.25,-0.5625,-0.078125,487
472,1696244645262,-0.043945312,-0.99102783,0.06976318,-1.1875,-0.5625,0.0,488
473,1696244645302,-0.05029297,-0.9807739,0.061950684,-0.484375,-1.0625,0.046875,489
474,1696244645342,-0.052001953,-0.98883057,0.070495605,0.078125,-0.59375,0.6875,490
475,1696244645382,-0.045654297,-0.9758911,0.070495605,0.171875,-1.015625,0.4375,491
476,1696244645422,-0.048095703,-0.99176025,0.07611084,0.21875,-0.875,0.625,492
477,1696244645462,-0.03881836,-0.98516846,0.07269287,0.375,-0.25,0.484375,493
478,1696244645502,-0.049560547,-0.9866333,0.07684326,0.421875,-1.0,0.484375,494
479,1696244645542,-0.049316406,-0.9927368,0.061950684,0.46875,-0.578125,0.21875,495
480,1696244645582,-0.048828125,-0.9829712,0.06585693,-0.078125,-0.84375,-0.109375,496
481,1696244645622,-0.051513672,-0.987854,0.07147217,0.125,-0.53125,0.09375,497
482,1696244645662,-0.041015625,-1.0005493,0.06756592,0.40625,-1.59375,0.109375,498
483,1696244645702,-0.038085938,-0.9812622,0.057800293,-1.453125,0.46875,-0.125,499
484,1696244645742,-0.05053711,-0.9963989,0.07904053,-0.203125,-0.109375,0.171875,500
485,1696244645782,-0.04736328,-0.9834595,0.070251465,-0.484375,0.0,-0.296875,501
486,1696244645822,-0.049072266,-0.9866333,0.070251465,0.296875,-0.125,0.109375,502
487,1696244645862,-0.052734375,-0.9902954,0.07757568,-0.5,-0.40625,0.125,503
488,1696244645902,-0.052734375,-0.9890747,0.0680542,-0.3125,-0.296875,0.09375,504
489,1696244645942,-0.047851562,-0.9915161,0.066345215,-0.8125,-0.171875,0.09375,505
490,1696244645982,-0.048095703,-0.9873657,0.070007324,-0.4375,-0.109375,0.203125,506
491,1696244646022,-0.053466797,-0.9927368,0.07269287,-0.140625,-0.171875,0.359375,507
492,1696244646062,-0.045898438,-0.9883423,0.070739746,-0.171875,0.0,0.625,508
493,1696244646102,-0.05419922,-0.98760986,0.06951904,-0.53125,-0.046875,0.5625,509
494,1696244646142,-0.045654297,-0.98687744,0.07220459,-0.3125,-0.015625,0.390625,510
495,1696244646182,-0.04248047,-0.9873657,0.070251465,-0.15625,-0.390625,0.515625,511
496,1696244646222,-0.04663086,-0.9898071,0.08319092,0.53125,-0.921875,0.59375,512
497,1696244646262,-0.04345703,-0.9824829,0.0836792,0.015625,-0.234375,0.296875,513
498,1696244646302,-0.048583984,-0.99664307,0.066345215,-0.765625,-0.25,0.59375,514
499,1696244646342,-0.037109375,-0.9824829,0.07635498,-0.78125,0.1875,0.265625,515
500,1696244646382,-0.047851562,-0.9939575,0.07269287,-0.671875,0.1875,0.390625,516
501,1696244646422,-0.046142578,-0.98931885,0.07757568,-0.1875,-0.046875,0.109375,517
502,1696244646462,-0.042236328,-0.99591064,0.07904053,-0.265625,-0.84375,0.21875,518
503,1696244646502,-0.051757812,-0.9920044,0.07098389,0.1875,-1.0625,0.078125,519
504,1696244646542,-0.035888672,-0.98101807,0.07366943,-0.171875,-0.828125,0.4375,520
505,1696244646582,-0.049316406,-0.987854,0.07904053,0.25,0.015625,0.328125,521
506,1696244646622,-0.05102539,-0.99053955,0.085876465,0.40625,-0.0625,0.265625,522
507,1696244646662,-0.041992188,-0.9824829,0.077819824,0.453125,-0.390625,0.296875,523
508,1696244646702,-0.048583984,-0.9793091,0.082458496,0.03125,-0.703125,0.46875,524
509,1696244646742,-0.048095703,-0.99835205,0.07220459,0.296875,-1.125,0.15625,525
510,1696244646782,-0.043701172,-0.9817505,0.07244873,0.4375,-0.109375,0.359375,526
511,1696244646822,-0.05126953,-0.99468994,0.07537842,0.15625,-0.296875,0.75,527
512,1696244646862,-0.037109375,-0.9758911,0.08343506,0.546875,0.15625,0.21875,528
513,1696244646902,-0.041015625,-0.9883423,0.070495605,-0.140625,0.53125,0.21875,529
514,1696244646942,-0.05102539,-1.0003052,0.070739746,-0.125,-0.578125,0.578125,530
515,1696244646982,-0.038330078,-0.97857666,0.0758667,-0.671875,-0.078125,0.0625,531
516,1696244647022,-0.044433594,-0.99053955,0.0758667,-0.078125,-0.03125,0.625,532
517,1696244647062,-0.045898438,-0.9873657,0.074645996,-0.546875,0.328125,0.234375,533
518,1696244647102,-0.038330078,-0.98809814,0.08148193,-0.65625,0.28125,0.3125,534
519,1696244647142,-0.046875,-0.9873657,0.08123779,-0.203125,0.1875,-0.078125,535
520,1696244647182,-0.03881836,-0.9841919,0.07318115,-0.34375,-0.28125,-0.046875,536
521,1696244647222,-0.04296875,-0.9859009,0.07879639,-0.03125,-0.328125,0.03125,537
522,1696244647262,-0.048095703,-0.991272,0.077819824,-0.15625,-0.5625,0.234375,538
523,1696244647302,-0.044189453,-0.9944458,0.0758667,0.09375,-0.546875,0.421875,539
524,1696244647342,-0.044433594,-0.9907837,0.08709717,0.6875,-0.78125,0.328125,540
525,1696244647382,-0.030517578,-0.9944458,0.07171631,0.25,-0.71875,0.609375,541
526,1696244647422,-0.0390625,-0.98443604,0.07611084,0.203125,0.234375,0.609375,542
527,1696244647462,-0.041748047,-0.9949341,0.07635498,0.359375,-0.484375,0.53125,543
528,1696244647502,-0.033935547,-0.98565674,0.06781006,-0.125,-0.5625,0.4375,544
529,1696244647542,-0.043701172,-1.005188,0.06756592,-0.28125,-0.796875,0.515625,545
530,1696244647582,-0.034179688,-0.9939575,0.08343506,0.625,-0.578125,0.3125,546
531,1696244647622,-0.034179688,-0.9783325,0.06097412,-0.984375,0.34375,0.203125,547
532,1696244647662,-0.053955078,-0.9993286,0.078308105,0.0,-0.484375,0.28125,548
533,1696244647702,-0.033691406,-0.9873657,0.08685303,-0.328125,-0.046875,0.21875,549
534,1696244647742,-0.041503906,-0.98394775,0.073913574,-0.40625,-0.171875,0.15625,550
535,1696244647782,-0.029541016,-0.99102783,0.08416748,-0.59375,-0.125,0.25,551
536,1696244647822,-0.03491211,-0.98516846,0.07904053,-0.09375,-0.625,0.171875,552
537,1696244647862,-0.036132812,-0.9871216,0.0758667,-0.4375,-0.625,0.265625,553
538,1696244647902,-0.036865234,-0.9949341,0.08416748,-0.21875,-0.09375,0.734375,554
539,1696244647942,-0.049316406,-0.98931885,0.07733154,0.078125,-0.546875,0.6875,555
540,1696244647982,-0.03930664,-0.98394775,0.08123779,-0.640625,0.21875,0.984375,556
541,1696244648022,-0.04345703,-1.0003052,0.093688965,-0.140625,-0.1875,1.03125,557
542,1696244648062,-0.026123047,-0.987854,0.078552246,-0.4375,-0.015625,0.109375,558
543,1696244648102,-0.03149414,-0.9871216,0.08270264,0.359375,0.234375,0.296875,559
544,1696244648142,-0.032226562,-0.9915161,0.082458496,2.25,0.390625,0.359375,560
545,1696244648182,-0.04296875,-0.99346924,0.0770874,3.265625,-2.34375,0.6875,561
546,1696244648222,-0.043945312,-0.986145,0.05609131,2.90625,-3.25,0.578125,562
547,1696244648262,-0.030029297,-0.9907837,0.06072998,2.796875,-2.328125,1.0,563
548,1696244648302,-0.035888672,-0.9873657,0.059020996,1.625,-2.28125,0.4375,564
549,1696244648342,-0.041992188,-0.9866333,0.062438965,2.015625,-2.5625,0.5625,565
550,1696244648382,-0.030761719,-0.9834595,0.04876709,0.53125,-1.234375,0.671875,566
551,1696244648422,-0.026123047,-0.98101807,0.055847168,0.453125,-1.375,0.359375,567
552,1696244648462,-0.033447266,-0.9981079,0.053894043,-0.046875,-1.4375,0.421875,568
553,1696244648502,-0.02709961,-0.972229,0.05267334,-0.5625,-0.4375,0.0625,569
554,1696244648542,-0.034179688,-0.9932251,0.054870605,-0.546875,-0.71875,0.0,570
555,1696244648582,-0.03540039,-0.987854,0.06097412,-0.359375,-0.328125,0.25,571
556,1696244648622,-0.045898438,-0.9890747,0.06439209,-0.75,-0.171875,0.046875,572
557,1696244648662,-0.030761719,-0.986145,0.062927246,-0.703125,0.0625,-0.21875,573
558,1696244648702,-0.036621094,-0.9902954,0.06951904,-0.5,-0.15625,0.234375,574
559,1696244648742,-0.03491211,-0.98883057,0.062683105,-0.578125,-0.53125,0.21875,575
560,1696244648782,-0.03125,-0.989563,0.06561279,-0.46875,-0.671875,-0.015625,576
561,1696244648822,-0.03540039,-0.99346924,0.057556152,-0.734375,-0.4375,0.359375,577
562,1696244648862,-0.034179688,-0.9920044,0.06048584,-0.796875,-0.875,0.203125,578
563,1696244648902,-0.034179688,-0.98443604,0.082458496,0.671875,-0.296875,-0.078125,579
564,1696244648942,-0.03857422,-0.98760986,0.046325684,-1.203125,-0.4375,0.34375,580
565,1696244648982,-0.03491211,-0.9854126,0.07122803,-0.3125,-0.734375,0.0,581
566,1696244649022,-0.0390625,-0.9915161,0.06732178,-0.59375,-0.71875,0.328125,582
567,1696244649062,-0.040527344,-0.98101807,0.070251465,-0.390625,-0.171875,-0.09375,583
568,1696244649102,-0.026123047,-0.9932251,0.0680542,-0.34375,-0.390625,0.21875,584
569,1696244649142,-0.03515625,-0.9915161,0.05999756,-0.5625,-0.671875,0.109375,585
570,1696244649182,-0.029541016,-0.98883057,0.062194824,-0.625,-0.421875,0.25,586
571,1696244649222,-0.037597656,-0.989563,0.0758667,-0.359375,-0.109375,0.40625,587
572,1696244649262,-0.02758789,-0.9932251,0.062927246,-0.640625,-0.1875,-0.15625,588
573,1696244649302,-0.039794922,-0.98687744,0.06341553,-0.390625,-0.46875,0.484375,589
574,1696244649342,-0.03149414,-0.98687744,0.06488037,-0.53125,-0.765625,0.0,590
575,1696244649382,-0.035888672,-0.99298096,0.07122803,-0.96875,-0.015625,0.15625,591
576,1696244649422,-0.04711914,-0.9951782,0.078308105,0.28125,0.03125,0.125,592
577,1696244649462,-0.022949219,-0.98443604,0.074157715,0.40625,0.59375,-0.015625,593
578,1696244649502,-0.03515625,-0.9771118,0.08270264,0.375,0.1875,0.609375,594
579,1696244649542,-0.03955078,-0.9841919,0.066833496,0.84375,0.484375,0.75,595
580,1696244649582,-0.024902344,-0.98687744,0.06317139,0.109375,-0.28125,0.625,596
581,1696244649622,-0.027832031,-0.9841919,0.06488037,-1.03125,0.234375,0.4375,597
582,1696244649662,-0.031982422,-1.0073853,0.0770874,0.328125,-0.046875,0.796875,598
583,1696244649702,-0.037841797,-0.9824829,0.06976318,0.1875,-0.359375,0.46875,599
584,1696244649742,-0.023925781,-0.99005127,0.074645996,0.078125,0.515625,0.46875,600
585,1696244649782,-0.03857422,-0.991272,0.066589355,0.15625,-0.34375,0.203125,601
586,1696244649822,-0.039794922,-0.9873657,0.062683105,-0.1875,-0.328125,0.0,602
587,1696244649862,-0.030029297,-0.9859009,0.06781006,-0.21875,-0.65625,0.28125,603
588,1696244649902,-0.03491211,-0.9951782,0.07171631,0.0625,-0.453125,0.625,604
589,1696244649942,-0.029785156,-0.98638916,0.06951904,-0.375,-0.046875,0.140625,605
590,1696244649982,-0.036621094,-0.9890747,0.070739746,-0.09375,0.03125,0.171875,606
591,1696244650022,-0.03149414,-0.9873657,0.06072998,-0.046875,-0.390625,0.421875,607
592,1696244650062,-0.028564453,-0.98565674,0.06536865,0.015625,-0.390625,0.1875,608
593,1696244650102,-0.0390625,-0.99176025,0.06732178,-0.1875,-0.609375,0.453125,609
594,1696244650142,-0.02709961,-0.9841919,0.06756592,0.046875,-0.171875,0.375,610
595,1696244650182,-0.032226562,-0.9849243,0.062683105,-0.15625,-0.3125,0.125,611
596,1696244650222,-0.024414062,-0.9949341,0.061462402,0.0625,-0.640625,0.375,612
597,1696244650262,-0.025146484,-0.9783325,0.054138184,-0.890625,-0.140625,0.171875,613
598,1696244650302,-0.028076172,-0.9949341,0.06903076,0.125,-0.203125,0.359375,614
599,1696244650342,-0.030761719,-0.98760986,0.07366943,-0.046875,-0.1875,0.46875,615
600,1696244650382,-0.034423828,-0.9776001,0.07196045,0.203125,-0.265625,0.46875,616
601,1696244650422,-0.028320312,-0.9944458,0.0758667,0.109375,-0.171875,0.53125,617
602,1696244650462,-0.02758789,-0.99102783,0.06390381,-0.4375,-0.21875,0.34375,618
603,1696244650502,-0.025634766,-0.99298096,0.06439209,-0.515625,-0.21875,0.15625,619
604,1696244650542,-0.029541016,-0.99468994,0.073913574,-0.59375,-0.296875,-0.015625,620
605,1696244650582,-0.02319336,-0.9788208,0.0680542,-0.734375,-0.140625,0.109375,621
606,1696244650622,-0.03881836,-0.9907837,0.07244873,-0.25,-0.234375,0.96875,622
607,1696244650662,-0.026367188,-0.98931885,0.07171631,0.421875,-0.484375,0.0,623
608,1696244650702,-0.032958984,-0.9846802,0.06951904,0.515625,-0.625,0.109375,624
609,1696244650742,-0.027832031,-0.99713135,0.07122803,0.78125,-0.921875,0.3125,625
610,1696244650782,-0.033447266,-0.9932251,0.070007324,1.09375,-0.484375,0.28125,626
611,1696244650822,-0.02734375,-0.98101807,0.06317139,0.96875,0.15625,0.453125,627
612,1696244650862,-0.025146484,-0.99102783,0.059020996,1.265625,0.0,0.921875,628
613,1696244650902,-0.032470703,-0.98638916,0.062194824,0.96875,0.21875,0.625,629
614,1696244650942,-0.01586914,-0.9768677,0.06829834,0.578125,0.9375,0.46875,630
615,1696244650982,-0.030029297,-0.98443604,0.06976318,1.0,0.109375,0.890625,631
616,1696244651022,-0.024169922,-0.9907837,0.054626465,0.21875,0.453125,0.484375,632
617,1696244651062,-0.034179688,-0.9944458,0.07098389,0.484375,-0.015625,0.40625,633
618,1696244651102,-0.022460938,-0.99053955,0.051940918,0.203125,-0.34375,0.203125,634
619,1696244651142,-0.030761719,-0.98150635,0.062438965,-0.328125,-0.3125,0.109375,635
620,1696244651182,-0.018554688,-0.9907837,0.058532715,-0.234375,-0.25,-0.0625,636
621,1696244651222,-0.029296875,-0.9920044,0.061950684,0.015625,-0.0625,0.390625,637
622,1696244651262,-0.022949219,-0.991272,0.058776855,-0.0625,-0.390625,0.03125,638
623,1696244651302,-0.026123047,-0.98883057,0.062927246,-0.046875,-0.40625,0.046875,639
624,1696244651342,-0.01977539,-0.98516846,0.06097412,-0.21875,-0.28125,0.328125,640
625,1696244651382,-0.024658203,-0.9949341,0.06097412,-0.40625,-0.828125,0.46875,641
626,1696244651422,-0.041748047,-0.98883057,0.07366943,-0.046875,-1.421875,0.234375,642
627,1696244651462,-0.015136719,-0.9841919,0.06463623,-0.125,0.5,0.546875,643
628,1696244651502,-0.03149414,-0.9985962,0.05609131,-0.421875,-1.03125,0.96875,644
629,1696244651542,-0.022949219,-0.9834595,0.06439209,-0.796875,-0.875,-0.171875,645
630,1696244651582,-0.028076172,-0.9902954,0.0692749,-0.5625,-0.46875,0.0,646
631,1696244651622,-0.030517578,-0.9871216,0.06390381,-0.421875,-0.671875,0.03125,647
632,1696244651662,-0.021484375,-0.9932251,0.055847168,-1.234375,-0.3125,-0.109375,648
633,1696244651702,-0.029296875,-0.9968872,0.04852295,-1.515625,-0.28125,0.15625,649
634,1696244651742,-0.01977539,-0.9834595,0.070495605,-0.3125,-0.71875,-0.09375,650
635,1696244651782,-0.026123047,-0.99102783,0.06512451,-0.0625,-0.953125,0.203125,651
636,1696244651822,-0.02319336,-1.000061,0.06365967,1.03125,-0.8125,0.3125,652
637,1696244651862,-0.026855469,-0.9837036,0.06317139,0.5,-0.484375,0.359375,653
638,1696244651902,-0.026367188,-0.9973755,0.07147217,-0.0625,-0.359375,0.28125,654
639,1696244651942,-0.025634766,-0.9907837,0.070495605,-0.859375,-0.09375,0.1875,655
640,1696244651982,-0.021728516,-0.989563,0.06756592,-0.625,-0.609375,-0.109375,656
641,1696244652022,-0.032714844,-0.98443604,0.066833496,-0.09375,-0.859375,-0.484375,657
642,1696244652062,-0.025634766,-0.9873657,0.05633545,-0.59375,-0.9375,-0.125,658
643,1696244652102,-0.018310547,-0.9890747,0.06390381,-0.359375,-0.46875,0.234375,659
644,1696244652142,-0.02319336,-0.98443604,0.066101074,0.15625,-0.359375,0.25,660
645,1696244652182,-0.03491211,-0.99346924,0.06976318,0.203125,-0.90625,-0.015625,661
646,1696244652222,-0.029541016,-0.9883423,0.07562256,-0.28125,-0.109375,0.34375,662
647,1696244652262,-0.023925781,-0.9824829,0.06488037,-0.71875,0.015625,-0.0625,663
648,1696244652302,-0.030029297,-0.9990845,0.0692749,-0.15625,-0.59375,-0.015625,664
649,1696244652342,-0.02368164,-0.99591064,0.070739746,-0.5625,-0.609375,-0.1875,665
650,1696244652382,-0.031982422,-0.9788208,0.07879639,-0.890625,-0.875,-0.484375,666
651,1696244652422,-0.034179688,-0.9993286,0.08050537,-0.421875,-0.078125,0.0625,667
652,1696244652462,-0.030517578,-0.9990845,0.0836792,-0.03125,-0.578125,-0.21875,668
653,1696244652502,-0.03564453,-0.98760986,0.08782959,0.9375,-1.09375,-0.40625,669
654,1696244652542,0.010498047,-1.0090942,0.11175537,2.28125,-3.8125,-1.03125,670
655,1696244652582,-0.076660156,-0.97857666,0.02947998,2.609375,-6.8125,-2.015625,671
656,1696244652622,-0.028076172,-0.9697876,0.07196045,3.09375,-4.171875,0.0625,672
657,1696244652662,-0.03149414,-0.9873657,0.05267334,4.71875,-3.09375,0.96875,673
658,1696244652702,-0.041015625,-0.9976196,0.07122803,4.09375,-2.203125,0.8125,674
659,1696244652742,-0.044677734,-0.9819946,0.0368042,2.03125,-2.765625,0.703125,675
660,1696244652782,-0.026855469,-0.9834595,0.046325684,1.5625,-2.984375,-0.0625,676
661,1696244652822,-0.040283203,-0.9846802,0.0368042,0.921875,-2.3125,0.15625,677
662,1696244652862,-0.021728516,-0.9817505,0.035095215,0.078125,-1.21875,0.15625,678
663,1696244652902,-0.029052734,-0.99053955,0.039733887,-0.03125,-0.859375,0.328125,679
664,1696244652942,-0.033935547,-1.0010376,0.049743652,0.09375,-1.40625,0.34375,680
665,1696244652982,-0.037841797,-0.97979736,0.05291748,0.359375,-1.234375,-0.015625,681
666,1696244653022,-0.04638672,-0.97735596,0.0524292,0.234375,-0.203125,-0.265625,682
667,1696244653062,-0.033447266,-0.99884033,0.0368042,-0.015625,-0.34375,-0.09375,683
668,1696244653102,-0.045898438,-0.98809814,0.046813965,-0.6875,0.65625,-0.34375,684
669,1696244653142,-0.04321289,-0.98565674,0.04925537,-0.3125,0.328125,-0.09375,685
670,1696244653182,-0.030761719,-0.9859009,0.04510498,-0.453125,0.21875,-0.046875,686
671,1696244653222,-0.041992188,-0.989563,0.04559326,-0.25,0.6875,0.09375,687
672,1696244653262,-0.035888672,-0.9883423,0.051940918,0.484375,-0.078125,-0.359375,688
673,1696244653302,-0.040039062,-0.97491455,0.05316162,0.359375,0.5625,-0.328125,689
674,1696244653342,-0.039794922,-0.9956665,0.039001465,-0.0625,-0.265625,0.15625,690
675,1696244653382,-0.03540039,-0.9871216,0.047546387,-0.96875,0.0,-0.171875,691
676,1696244653422,-0.043945312,-0.99005127,0.05218506,-0.921875,0.328125,0.125,692
677,1696244653462,-0.044677734,-0.99102783,0.050964355,-0.40625,0.453125,-0.234375,693
678,1696244653502,-0.040771484,-0.9873657,0.04144287,-0.5,0.65625,0.09375,694
679,1696244653542,-0.044921875,-1.0037231,0.04071045,-0.3125,-0.34375,0.109375,695
680,1696244653582,-0.032226562,-0.98565674,0.046081543,-0.640625,-0.1875,-0.15625,696
681,1696244653622,-0.05102539,-0.99591064,0.05316162,-0.78125,-0.4375,0.015625,697
682,1696244653662,-0.036132812,-0.99884033,0.047302246,-0.421875,-0.546875,0.265625,698
683,1696244653702,-0.042236328,-0.9871216,0.055603027,-0.171875,-0.234375,0.28125,699
684,1696244653742,-0.047607422,-0.9871216,0.04534912,-0.640625,0.03125,0.390625,700
685,1696244653782,-0.041503906,-0.9859009,0.051208496,-0.4375,-0.28125,0.34375,701
686,1696244653822,-0.04296875,-0.987854,0.05340576,-0.640625,0.1875,0.46875,702
687,1696244653862,-0.048339844,-0.9976196,0.05340576,0.546875,-0.6875,0.625,703
688,1696244653902,-0.033203125,-0.97442627,0.06976318,0.46875,0.359375,0.390625,704
689,1696244653942,-0.049804688,-0.98931885,0.04071045,0.234375,0.265625,0.96875,705
690,1696244653982,-0.038085938,-0.99053955,0.05999756,-0.21875,0.265625,0.8125,706
691,1696244654022,-0.04345703,-0.9937134,0.047058105,0.109375,0.359375,1.03125,707
692,1696244654062,-0.03857422,-0.991272,0.051696777,-0.234375,0.703125,0.453125,708
693,1696244654102,-0.041259766,-0.98516846,0.05609131,-0.03125,0.34375,0.421875,709
694,1696244654142,-0.033691406,-0.99053955,0.035339355,-0.84375,0.46875,0.484375,710
695,1696244654182,-0.032714844,-0.9932251,0.057800293,-0.53125,0.171875,0.0,711
696,1696244654222,-0.040527344,-0.986145,0.055603027,-0.21875,-0.015625,0.296875,712
697,1696244654262,-0.03857422,-0.99102783,0.05731201,-0.328125,0.3125,0.375,713
698,1696244654302,-0.026367188,-0.99224854,0.055603027,0.234375,0.03125,0.15625,714
699,1696244654342,-0.03564453,-0.9976196,0.06512451,0.625,0.59375,0.671875,715
700,1696244654382,-0.033935547,-0.9829712,0.06536865,0.765625,1.09375,0.265625,716
701,1696244654422,-0.048095703,-1.0025024,0.06463623,3.578125,-0.453125,0.84375,717
702,1696244654462,-0.028076172,-0.9824829,0.04534912,4.390625,-2.390625,0.859375,718
703,1696244654502,-0.032470703,-0.97735596,0.05633545,3.265625,-1.0625,1.25,719
704,1696244654542,-0.04272461,-0.99957275,0.014099121,3.359375,-0.875,1.8125,720
705,1696244654582,-0.027832031,-0.9846802,0.03729248,1.484375,0.515625,1.203125,721
706,1696244654622,-0.02758789,-0.986145,0.014587402,2.640625,-0.109375,1.9375,722
707,1696244654662,-0.020996094,-0.97491455,-0.0051879883,1.3125,-0.609375,1.578125,723
708,1696244654702,-0.013671875,-0.98931885,0.018493652,0.078125,-1.25,0.828125,724
709,1696244654742,-0.01586914,-0.9807739,0.00579834,-0.671875,-0.125,0.703125,725
710,1696244654782,-0.020751953,-0.9837036,0.02532959,-0.890625,-0.609375,0.421875,726
711,1696244654822,-0.026367188,-1.0012817,0.034606934,-0.21875,-0.515625,0.15625,727
712,1696244654862,-0.015136719,-0.9849243,0.031188965,-0.203125,-0.546875,0.21875,728
713,1696244654902,-0.025634766,-0.98883057,0.034362793,-0.28125,-0.640625,-0.296875,729
714,1696244654942,-0.025634766,-0.99298096,0.02557373,-0.40625,-1.125,-0.109375,730
715,1696244654982,-0.027832031,-0.9944458,0.023864746,-1.0625,-1.25,-0.390625,731
716,1696244655022,-0.021240234,-0.9829712,0.027526855,-1.453125,-0.546875,-0.421875,732
717,1696244655062,-0.026367188,-0.9854126,0.030944824,-1.28125,-0.734375,0.0,733
718,1696244655102,-0.021728516,-0.98687744,0.028015137,-1.5,-0.28125,-0.59375,734
719,1696244655142,-0.021484375,-0.99224854,0.02923584,-0.609375,-0.875,-0.296875,735
720,1696244655182,-0.018310547,-0.9780884,0.032409668,-2.46875,-0.671875,-0.71875,736
721,1696244655222,-0.032958984,-0.9937134,0.050964355,-1.71875,-0.46875,-0.46875,737
722,1696244655262,-0.031982422,-0.9841919,0.03778076,-2.125,-0.421875,-0.6875,738
723,1696244655302,-0.031982422,-0.9961548,0.049743652,-1.5625,-0.21875,-0.578125,739
724,1696244655342,-0.02758789,-0.98394775,0.06317139,-1.28125,-0.5625,-0.515625,740
725,1696244655382,-0.029296875,-0.9915161,0.051208496,-1.234375,-0.84375,-0.34375,741
726,1696244655422,-0.029785156,-0.9837036,0.053649902,-1.296875,-0.890625,-0.5,742
727,1696244655462,-0.042236328,-0.9902954,0.050964355,0.078125,-0.890625,-0.03125,743
728,1696244655502,-0.03881836,-0.9920044,0.047790527,-0.28125,-0.734375,0.078125,744
729,1696244655542,-0.032226562,-0.9824829,0.058288574,-0.921875,-0.40625,-0.25,745
730,1696244655582,-0.036865234,-0.9920044,0.05218506,-0.9375,-0.546875,-0.21875,746
731,1696244655622,-0.034423828,-0.9849243,0.06365967,-0.140625,-0.921875,-0.1875,747
732,1696244655662,-0.032958984,-0.99005127,0.055114746,-0.140625,-0.8125,-0.03125,748
733,1696244655702,-0.040039062,-0.9927368,0.051452637,-0.234375,-0.9375,-0.125,749
734,1696244655742,-0.0390625,-0.9985962,0.061462402,1.109375,-0.625,-0.15625,750
735,1696244655782,-0.032714844,-0.9920044,0.03656006,-1.984375,0.265625,-0.3125,751
736,1696244655822,-0.040527344,-0.9902954,0.06756592,-0.640625,0.03125,-0.625,752
737,1696244655862,-0.04272461,-0.98883057,0.051696777,-0.171875,-0.234375,0.03125,753
738,1696244655902,-0.040771484,-0.99005127,0.066589355,0.328125,0.09375,0.0,754
739,1696244655942,-0.041503906,-0.98150635,0.047546387,0.515625,-0.46875,-0.03125,755
740,1696244655982,-0.040039062,-0.98883057,0.05316162,0.359375,-0.8125,-0.09375,756
741,1696244656022,-0.0390625,-0.9915161,0.051940918,-0.671875,-0.46875,0.109375,757
742,1696244656062,-0.040527344,-1.0112915,0.06488037,0.765625,-0.3125,0.0,758
743,1696244656102,-0.036621094,-0.98516846,0.051696777,0.03125,-0.515625,-0.28125,759
744,1696244656142,-0.037353516,-0.98687744,0.054138184,0.109375,-0.328125,0.109375,760
745,1696244656182,-0.042236328,-0.98883057,0.058044434,0.40625,-0.640625,0.1875,761
746,1696244656222,-0.051513672,-0.9951782,0.057800293,0.921875,-0.75,0.46875,762
747,1696244656262,-0.038085938,-0.97784424,0.05218506,0.921875,-0.640625,0.28125,763
748,1696244656302,-0.043945312,-0.99102783,0.043151855,0.0,-0.6875,0.765625,764
749,1696244656342,-0.044677734,-1.000061,0.042663574,-1.15625,-0.84375,0.671875,765
750,1696244656382,-0.040283203,-0.99468994,0.066589355,0.53125,-0.234375,0.421875,766
751,1696244656422,-0.03564453,-0.9771118,0.03729248,-2.609375,0.296875,0.265625,767
752,1696244656462,-0.05102539,-0.98883057,0.06341553,-0.421875,-0.046875,0.125,768
753,1696244656502,-0.05102539,-0.98516846,0.06121826,-0.40625,0.0,0.328125,769
754,1696244656542,-0.037109375,-0.98394775,0.059020996,-0.453125,-0.015625,0.109375,770
755,1696244656582,-0.04711914,-0.9937134,0.05609131,-0.46875,-0.328125,0.234375,771
756,1696244656622,-0.03564453,-0.9883423,0.05267334,0.0,0.0,0.203125,772
757,1696244656662,-0.036376953,-0.98394775,0.04876709,-0.40625,-0.0625,0.328125,773
758,1696244656702,-0.052001953,-0.9907837,0.05999756,0.09375,0.203125,0.5625,774
759,1696244656742,-0.04345703,-0.99224854,0.057800293,0.359375,0.484375,0.40625,775
