,timestamp,accel_x,accel_y,accel_z,gyro_x,gyro_y,gyro_z,ind
0,1696244774107,0.052001953,-0.98272705,-0.003967285,0.796875,0.609375,0.46875,0
1,1696244774147,0.049072266,-0.9859009,0.0045776367,2.203125,-0.578125,0.921875,1
2,1696244774187,0.045654297,-0.98638916,-0.016662598,-0.84375,0.921875,0.5,2
3,1696244774227,0.034179688,-0.9937134,0.024841309,0.984375,0.140625,0.640625,3
4,1696244774267,0.03930664,-0.98809814,-0.0051879883,0.859375,-0.09375,0.390625,4
5,1696244774307,0.039794922,-0.9824829,0.0079956055,0.21875,0.421875,0.28125,5
6,1696244774347,0.044433594,-0.98101807,-0.0012817383,-0.25,0.25,0.125,6
7,1696244774387,0.03955078,-0.9819946,0.010437012,0.46875,-0.3125,-0.015625,7
8,1696244774427,0.044921875,-0.9951782,0.001159668,-0.234375,-0.09375,0.3125,8
9,1696244774467,0.04711914,-0.9817505,-0.003967285,-0.28125,0.375,-0.09375,9
10,1696244774507,0.041748047,-0.986145,0.008483887,0.234375,-0.109375,0.578125,10
11,1696244774547,0.041015625,-0.9883423,0.011169434,0.515625,-0.71875,0.484375,11
12,1696244774587,0.05029297,-0.9873657,-0.0020141602,2.734375,-0.234375,0.484375,12
13,1696244774627,0.041015625,-0.98883057,-0.0068969727,1.140625,-0.203125,0.8125,13
14,1696244774667,0.033203125,-0.98321533,-0.01373291,1.265625,-0.734375,0.75,14
15,1696244774707,0.053710938,-0.9866333,-0.020324707,0.171875,-0.671875,0.609375,15
16,1696244774747,0.049316406,-0.98443604,-0.0032348633,0.75,-0.609375,0.4375,16
17,1696244774787,0.044677734,-0.98443604,-0.0115356445,0.390625,-0.5625,0.640625,17
18,1696244774827,0.045410156,-0.9846802,-0.0076293945,0.3125,-0.90625,0.296875,18
19,1696244774867,0.038085938,-0.9783325,-0.0049438477,0.359375,-0.875,0.5625,19
20,1696244774907,0.04638672,-0.98101807,-0.016662598,0.375,0.21875,0.28125,20
21,1696244774947,0.041748047,-0.9976196,-0.0015258789,1.21875,-0.890625,0.4375,21
22,1696244774987,0.0546875,-0.9727173,-0.022521973,-0.875,0.34375,0.28125,22
23,1696244775027,0.052490234,-0.9854126,-0.0032348633,0.65625,-0.421875,0.359375,23
24,1696244775067,0.045654297,-0.9961548,-0.0037231445,0.703125,-0.59375,0.6875,24
25,1696244775107,0.05102539,-0.98809814,-0.013000488,0.25,-0.421875,0.375,25
26,1696244775147,0.05053711,-0.9932251,-0.013244629,0.21875,-0.5,0.21875,26
27,1696244775187,0.040283203,-0.98150635,-0.003479004,0.53125,-0.453125,0.03125,27
28,1696244775227,0.053955078,-0.9883423,-0.015197754,-0.109375,-0.46875,0.25,28
29,1696244775267,0.044921875,-0.97540283,-0.019104004,0.078125,-0.09375,0.265625,29
30,1696244775307,0.0390625,-0.98028564,-0.008850098,0.1875,-0.234375,0.59375,30
31,1696244775347,0.053955078,-0.98223877,-0.01373291,0.25,-0.421875,0.46875,31
32,1696244775387,0.049072266,-0.9824829,-0.014221191,-0.015625,-0.265625,0.484375,32
33,1696244775427,0.041748047,-0.9873657,-0.008117676,0.453125,-0.25,0.640625,33
34,1696244775467,0.04345703,-0.98223877,-0.010803223,0.328125,-0.296875,0.40625,34
35,1696244775507,0.04711914,-0.98223877,-0.0134887695,0.0625,-0.65625,0.40625,35
36,1696244775547,0.04663086,-0.98272705,-0.016906738,-0.296875,-0.296875,0.3125,36
37,1696244775587,0.05053711,-0.9817505,-0.026672363,0.1875,-0.234375,0.140625,37
38,1696244775627,0.052490234,-0.9834595,-0.016662598,0.4375,-0.234375,0.28125,38
39,1696244775667,0.04736328,-0.9771118,-0.0022583008,0.765625,-0.6875,0.578125,39
40,1696244775707,0.059570312,-0.9788208,-0.024963379,0.09375,0.578125,0.109375,40
41,1696244775747,0.05126953,-0.97442627,-0.023010254,0.5625,-0.46875,0.703125,41
42,1696244775787,0.059570312,-0.9697876,-0.031311035,-0.53125,0.65625,0.203125,42
43,1696244775827,0.04638672,-0.9973755,-0.003479004,1.15625,-0.40625,0.46875,43
44,1696244775867,0.04248047,-0.99224854,-0.019836426,0.484375,0.015625,0.046875,44
45,1696244775907,0.05029297,-0.9866333,-0.016174316,0.84375,0.015625,0.390625,45
46,1696244775947,0.053955078,-0.9805298,-0.02960205,0.109375,-0.0625,0.03125,46
47,1696244775987,0.05078125,-0.98394775,-0.026916504,0.0625,-0.453125,0.03125,47
48,1696244776027,0.04711914,-0.9819946,-0.018615723,-0.265625,-0.3125,0.328125,48
49,1696244776067,0.052246094,-0.9807739,-0.023254395,-0.21875,0.015625,0.203125,49
50,1696244776107,0.053222656,-0.98272705,-0.023254395,0.125,-0.390625,0.53125,50
51,1696244776147,0.05810547,-0.9883423,-0.02520752,-0.125,-0.6875,0.140625,51
52,1696244776187,0.053466797,-0.98760986,-0.029846191,-0.03125,-0.4375,0.390625,52
53,1696244776227,0.053955078,-0.9829712,-0.020812988,0.046875,-0.109375,0.484375,53
54,1696244776267,0.04711914,-0.9837036,-0.01763916,-0.140625,0.046875,0.375,54
55,1696244776307,0.048095703,-0.9788208,-0.015930176,0.203125,-0.015625,0.40625,55
56,1696244776347,0.052001953,-0.9812622,-0.026184082,0.1875,-0.296875,0.015625,56
57,1696244776387,0.05053711,-0.9859009,-0.020324707,0.03125,-0.1875,0.109375,57
58,1696244776427,0.05053711,-0.98272705,-0.030090332,0.1875,-0.375,0.265625,58
59,1696244776467,0.048339844,-0.98516846,-0.02130127,0.171875,-0.15625,0.0,59
60,1696244776507,0.04736328,-0.9902954,-0.019836426,0.90625,-0.875,0.671875,60
61,1696244776547,0.06298828,-0.9841919,-0.042541504,-0.875,0.5625,-0.3125,61
62,1696244776587,0.05078125,-0.9837036,-0.020812988,1.109375,-0.578125,0.015625,62
63,1696244776627,0.045166016,-0.9871216,-0.031555176,0.578125,-0.828125,0.078125,63
64,1696244776667,0.05419922,-0.9846802,-0.025939941,0.703125,-0.34375,0.109375,64
65,1696244776707,0.045654297,-0.9849243,-0.030822754,0.296875,-0.59375,0.3125,65
66,1696244776747,0.040039062,-0.96881104,-0.020080566,0.65625,-0.265625,0.078125,66
67,1696244776787,0.056396484,-0.9829712,-0.0335083,0.171875,-0.625,0.125,67
68,1696244776827,0.049072266,-0.9771118,-0.026184082,0.609375,-0.65625,0.25,68
69,1696244776867,0.050048828,-0.9907837,-0.02911377,0.75,-0.546875,0.171875,69
70,1696244776907,0.044189453,-0.98809814,-0.030090332,0.3125,-0.53125,0.125,70
71,1696244776947,0.05859375,-0.98638916,-0.035217285,-0.09375,-0.078125,0.390625,71
72,1696244776987,0.051513672,-0.97906494,-0.03668213,0.15625,-0.40625,-0.203125,72
73,1696244777027,0.053222656,-0.9768677,-0.031799316,0.359375,-0.5625,0.203125,73
74,1696244777067,0.0546875,-1.0003052,-0.004211426,-1.140625,0.625,0.46875,74
75,1696244777107,0.038330078,-0.98760986,-0.013000488,-2.578125,-2.375,-0.296875,75
76,1696244777147,0.024902344,-0.98638916,-0.02545166,0.0,-2.046875,1.109375,76
77,1696244777187,0.06640625,-0.9776001,-0.046203613,0.359375,-1.015625,0.015625,77
78,1696244777227,0.05029297,-0.9651489,-0.043518066,1.03125,-1.828125,0.015625,78
79,1696244777267,0.06958008,-0.9849243,-0.051086426,-0.84375,-0.15625,0.34375,79
80,1696244777307,0.036132812,-0.98565674,-0.023986816,1.234375,-0.59375,-0.171875,80
81,1696244777347,0.051757812,-0.98883057,-0.031555176,0.625,-1.078125,-0.171875,81
82,1696244777387,0.049804688,-0.972229,-0.03643799,0.65625,-1.0625,0.078125,82
83,1696244777427,0.043701172,-0.98883057,-0.024475098,1.1875,-0.640625,-0.21875,83
84,1696244777467,0.04272461,-0.9714966,-0.026184082,-0.015625,-0.8125,-0.0625,84
85,1696244777507,0.04272461,-0.9714966,-0.03765869,0.109375,-0.53125,-0.15625,85
86,1696244777547,0.048339844,-0.9854126,-0.02960205,0.359375,-1.078125,0.046875,86
87,1696244777587,0.041015625,-0.991272,-0.027893066,0.546875,-0.859375,0.078125,87
88,1696244777627,0.046875,-0.98883057,-0.034484863,-0.3125,-1.125,-0.125,88
89,1696244777667,0.04248047,-0.98321533,-0.024963379,-0.015625,-1.0625,0.1875,89
90,1696244777707,0.03857422,-0.9812622,-0.031799316,-0.0625,-0.796875,0.296875,90
91,1696244777747,0.04345703,-0.9807739,-0.02911377,-0.234375,-0.40625,0.296875,91
92,1696244777787,0.044189453,-0.98101807,-0.03253174,-0.234375,-0.171875,0.140625,92
93,1696244777827,0.038330078,-0.9788208,-0.020324707,-0.21875,-0.5625,0.140625,93
94,1696244777867,0.049560547,-0.97906494,-0.035949707,-0.203125,-0.09375,0.0,94
95,1696244777907,0.04711914,-0.98028564,-0.037902832,0.28125,-0.640625,0.328125,95
96,1696244777947,0.057373047,-0.98101807,-0.03717041,-0.359375,0.421875,-0.125,96
97,1696244777987,0.041503906,-0.9951782,-0.026916504,0.90625,-0.453125,0.421875,97
98,1696244778027,0.04663086,-0.98687744,-0.032043457,0.546875,-0.546875,0.296875,98
99,1696244778067,0.045654297,-0.9829712,-0.027404785,0.0,-0.40625,0.453125,99
100,1696244778107,0.043945312,-0.9834595,-0.039123535,-0.234375,-0.53125,-0.03125,100
101,1696244778147,0.050048828,-0.9859009,-0.03277588,0.546875,-1.046875,0.390625,101
102,1696244778187,0.052490234,-0.9751587,-0.0335083,-0.21875,-0.421875,0.015625,102
103,1696244778227,0.048583984,-0.9793091,-0.039367676,0.1875,-0.890625,0.125,103
104,1696244778267,0.05493164,-0.9849243,-0.042297363,1.875,-1.8125,-0.046875,104
105,1696244778307,0.04272461,-0.98809814,-0.04058838,0.71875,-1.609375,0.125,105
106,1696244778347,0.044433594,-0.97906494,-0.032043457,1.375,-1.03125,0.1875,106
107,1696244778387,0.03515625,-0.9824829,-0.034729004,1.328125,-1.5625,0.421875,107
108,1696244778427,0.04321289,-0.9834595,-0.04498291,0.90625,-0.609375,0.0625,108
109,1696244778467,0.047851562,-0.9812622,-0.04058838,0.4375,-0.453125,0.546875,109
110,1696244778507,0.038085938,-0.99053955,-0.050109863,-0.03125,-1.265625,0.53125,110
111,1696244778547,0.05102539,-0.98150635,-0.030822754,0.28125,-0.6875,0.234375,111
112,1696244778587,0.05493164,-0.9795532,-0.05596924,-0.953125,0.3125,0.171875,112
113,1696244778627,0.05517578,-0.9795532,-0.035949707,-0.0625,0.0625,0.015625,113
114,1696244778667,0.032470703,-0.9898071,-0.030578613,0.140625,-0.546875,0.265625,114
115,1696244778707,0.048583984,-0.9758911,-0.04547119,-0.25,0.09375,-0.0625,115
116,1696244778747,0.044921875,-0.98321533,-0.03375244,-0.59375,-0.03125,0.609375,116
117,1696244778787,0.039794922,-0.9780884,-0.04888916,-0.8125,0.34375,-0.046875,117
118,1696244778827,0.049316406,-0.9783325,-0.03692627,-1.6875,0.234375,0.421875,118
119,1696244778867,0.038330078,-0.97784424,-0.042541504,-1.0,0.28125,0.671875,119
120,1696244778907,0.05078125,-0.9885864,-0.034729004,-0.625,-0.078125,0.109375,120
121,1696244778947,0.03173828,-0.98760986,-0.041809082,-0.234375,-0.78125,0.78125,121
122,1696244778987,0.056884766,-0.98394775,-0.035461426,-0.609375,0.546875,0.9375,122
123,1696244779027,0.0546875,-0.98394775,-0.030090332,-0.296875,-0.015625,0.265625,123
124,1696244779067,0.042236328,-0.98638916,-0.039123535,-0.015625,0.0,0.453125,124
125,1696244779107,0.04736328,-0.9788208,-0.04058838,-0.078125,0.515625,0.3125,125
126,1696244779147,0.049804688,-0.9805298,-0.030334473,0.171875,-0.140625,0.453125,126
127,1696244779187,0.048095703,-0.9800415,-0.03302002,0.15625,-0.5,0.34375,127
128,1696244779227,0.049560547,-0.9846802,-0.028625488,0.4375,-0.6875,0.4375,128
129,1696244779267,0.061767578,-0.973938,-0.04547119,-1.109375,0.203125,-0.15625,129
130,1696244779307,0.053710938,-0.97906494,-0.0015258789,-0.734375,-1.640625,-0.390625,151
131,1696244779347,0.037597656,-0.99346924,-0.013977051,-0.453125,-1.078125,0.40625,152
132,1696244779387,0.0546875,-0.9871216,-0.006164551,-0.671875,-0.8125,-0.09375,153
133,1696244779427,0.027832031,-0.9871216,0.0028686523,0.125,-1.015625,0.34375,154
134,1696244779467,0.037841797,-0.99005127,-0.008850098,-0.140625,-0.9375,0.15625,155
135,1696244779507,0.04321289,-0.9849243,-0.007385254,0.109375,-0.4375,0.078125,156
136,1696244779547,0.040527344,-0.98028564,-0.0037231445,0.046875,-0.296875,0.09375,157
137,1696244779587,0.05029297,-0.98028564,-0.009338379,0.203125,-0.1875,0.203125,158
138,1696244779627,0.043945312,-0.989563,-0.0071411133,0.65625,-0.5,0.296875,159
139,1696244779667,0.041259766,-0.9812622,-0.008361816,0.0625,-0.59375,0.3125,160
140,1696244779707,0.036621094,-0.9824829,-0.010070801,0.390625,-0.84375,0.34375,161
141,1696244779747,0.044189453,-0.9902954,-0.0012817383,0.78125,-0.875,0.4375,162
142,1696244779787,0.0546875,-0.9939575,-0.022766113,-0.421875,0.5625,0.71875,163
143,1696244779827,0.053955078,-0.99053955,-0.014953613,-0.09375,0.078125,-0.171875,164
144,1696244779867,0.030761719,-0.98931885,-0.0020141602,0.78125,-0.90625,0.234375,165
145,1696244779907,0.041992188,-0.98565674,-0.008605957,0.21875,-0.28125,0.296875,166
146,1696244779947,0.048583984,-0.9812622,-0.010559082,0.96875,-0.5625,0.171875,167
147,1696244779987,0.045898438,-0.98760986,-0.016662598,0.78125,-0.546875,0.109375,168
148,1696244780027,0.034179688,-0.9866333,-0.0134887695,0.25,-0.4375,0.40625,169
149,1696244780067,0.042236328,-0.97979736,-0.0256958,0.03125,-0.453125,0.34375,170
150,1696244780107,0.05053711,-0.986145,-0.0115356445,0.84375,0.03125,0.578125,171
151,1696244780147,0.038330078,-0.9915161,-0.019592285,0.546875,-0.546875,0.671875,172
152,1696244780187,0.04711914,-0.9819946,-0.0154418945,0.609375,-0.390625,-0.09375,173
153,1696244780227,0.0390625,-0.98443604,-0.0115356445,0.59375,-0.484375,0.5625,174
154,1696244780267,0.041992188,-0.9819946,-0.015197754,0.546875,-0.28125,0.203125,175
155,1696244780307,0.039794922,-0.9834595,-0.023498535,0.234375,-0.5,0.140625,176
156,1696244780347,0.04272461,-0.98223877,-0.019104004,0.109375,-0.34375,0.296875,177
157,1696244780387,0.045166016,-0.98565674,-0.019348145,0.625,-1.234375,0.4375,178
158,1696244780427,0.04296875,-0.9746704,-0.016418457,0.21875,-0.53125,0.15625,179
159,1696244780467,0.048339844,-0.9783325,-0.027648926,-0.15625,-0.5,0.4375,180
160,1696244780507,0.053222656,-0.9746704,-0.014953613,-0.5,0.3125,-0.34375,181
161,1696244780547,0.035888672,-0.9915161,-0.015930176,0.75,-0.59375,0.53125,182
162,1696244780587,0.047851562,-0.9771118,-0.01739502,0.234375,-0.125,0.078125,183
163,1696244780627,0.045410156,-0.98394775,-0.015930176,-0.125,-0.203125,0.171875,184
164,1696244780667,0.044677734,-0.98101807,-0.023254395,-0.203125,-0.390625,0.09375,185
165,1696244780707,0.04663086,-0.986145,-0.013977051,0.5,-0.984375,0.234375,186
166,1696244780747,0.04248047,-0.9871216,-0.028625488,-0.21875,-0.0625,-0.0625,187
167,1696244780787,0.0390625,-0.97784424,-0.019348145,0.265625,-0.171875,0.203125,188
168,1696244780827,0.04663086,-0.9932251,-0.019348145,0.328125,-0.34375,0.3125,189
169,1696244780867,0.045898438,-0.9866333,-0.019836426,0.0625,-0.3125,0.234375,190
170,1696244780907,0.052490234,-0.9780884,-0.024475098,-0.171875,-0.375,0.21875,191
171,1696244780947,0.040771484,-0.9866333,-0.023498535,0.328125,-0.359375,0.421875,192
172,1696244780987,0.041259766,-0.98223877,-0.024475098,0.734375,-0.1875,0.65625,193
173,1696244781027,0.042236328,-0.97906494,-0.023742676,0.125,0.109375,0.46875,194
174,1696244781067,0.047851562,-0.986145,-0.023742676,0.109375,0.015625,0.609375,195
175,1696244781107,0.049804688,-0.99102783,-0.020812988,0.421875,-0.4375,0.328125,196
176,1696244781147,0.047607422,-0.9812622,-0.023986816,-0.03125,-0.171875,0.21875,197
177,1696244781187,0.041748047,-0.9812622,-0.011779785,0.65625,-0.796875,0.375,198
178,1696244781227,0.048095703,-0.9866333,-0.028381348,-0.390625,0.203125,0.265625,199
179,1696244781267,0.048095703,-0.986145,-0.027648926,-0.171875,-0.46875,0.65625,200
180,1696244781307,0.053710938,-0.9746704,-0.034973145,-0.859375,0.53125,-0.171875,201
181,1696244781347,0.032226562,-0.99884033,-0.018371582,0.4375,-0.34375,0.4375,202
182,1696244781387,0.041992188,-0.9866333,-0.029846191,0.296875,0.046875,0.109375,203
183,1696244781427,0.056396484,-0.9854126,-0.02545166,0.28125,-0.03125,0.390625,204
184,1696244781467,0.05126953,-0.9841919,-0.028381348,-0.296875,-0.296875,0.09375,205
185,1696244781507,0.0390625,-0.9866333,-0.022033691,0.140625,-0.859375,0.265625,206
186,1696244781547,0.0546875,-0.98028564,-0.028625488,-0.609375,0.1875,0.28125,207
187,1696244781587,0.046142578,-0.9807739,-0.022033691,0.046875,0.21875,-0.015625,208
188,1696244781627,0.042236328,-0.9883423,-0.005432129,0.515625,-0.359375,0.296875,209
189,1696244781667,0.051757812,-0.98101807,-0.031311035,-0.734375,-0.390625,-0.359375,210
190,1696244781707,0.044921875,-0.99053955,-0.012756348,-1.15625,-1.296875,-0.375,211
191,1696244781747,0.020996094,-0.99664307,-0.027893066,-1.171875,-3.046875,0.03125,212
192,1696244781787,0.047851562,-0.98565674,-0.018127441,-1.3125,-1.6875,-0.828125,213
193,1696244781827,0.040527344,-0.97906494,-0.013000488,-0.890625,-1.296875,-0.765625,214
194,1696244781867,0.05102539,-0.9805298,-0.016662598,-1.671875,-1.34375,-0.5625,215
195,1696244781907,0.048339844,-0.98443604,-0.00982666,-1.53125,-1.578125,-0.65625,216
196,1696244781947,0.048828125,-0.98760986,-0.0049438477,-1.765625,-0.78125,-1.015625,217
197,1696244781987,0.025878906,-0.98443604,-0.0029907227,-1.78125,-1.53125,-0.75,218
198,1696244782027,0.036621094,-0.9807739,0.0018920898,-2.1875,-1.34375,-0.84375,219
199,1696244782067,0.040771484,-0.98687744,-0.005432129,-3.09375,-0.3125,-0.46875,220
200,1696244782107,0.038330078,-0.9841919,-0.012023926,-2.4375,-1.078125,-0.25,221
201,1696244782147,0.044677734,-0.9819946,0.00091552734,-2.25,0.390625,-0.84375,222
202,1696244782187,0.030029297,-0.98931885,0.012145996,-0.265625,-1.03125,-0.25,223
203,1696244782227,0.03540039,-0.98150635,-0.004211426,-0.703125,-0.734375,-0.546875,224
204,1696244782267,0.03100586,-0.9717407,0.009460449,-0.09375,-0.546875,-0.59375,225
205,1696244782307,0.01953125,-0.9819946,0.005554199,1.203125,-1.328125,-0.09375,226
206,1696244782347,0.032226562,-0.9776001,0.01727295,1.953125,-1.390625,0.03125,227
207,1696244782387,0.02709961,-0.9866333,0.0060424805,0.921875,-1.328125,0.1875,228
208,1696244782427,0.025390625,-0.989563,0.005554199,0.125,-0.953125,0.15625,229
209,1696244782467,0.028564453,-0.98565674,0.002380371,0.3125,-0.484375,0.0625,230
210,1696244782507,0.032470703,-0.99224854,0.003112793,-0.484375,-0.34375,0.46875,231
211,1696244782547,0.034179688,-0.9932251,0.008483887,-0.375,-0.546875,0.109375,232
212,1696244782587,0.022460938,-0.98883057,0.008239746,-0.28125,-0.5625,0.265625,233
213,1696244782627,0.0234375,-0.9849243,-0.00030517578,-0.3125,-0.515625,0.59375,234
214,1696244782667,0.032226562,-0.98272705,0.0018920898,0.03125,-0.546875,0.328125,235
215,1696244782707,0.024414062,-0.99176025,0.006286621,-0.34375,-0.515625,0.6875,236
216,1696244782747,0.03564453,-0.99053955,0.0028686523,-0.59375,-0.375,0.359375,237
217,1696244782787,0.025634766,-0.9846802,0.0072631836,0.640625,-1.5,0.421875,238
218,1696244782827,0.026123047,-0.9841919,0.018737793,0.3125,-0.828125,0.171875,239
219,1696244782867,0.03100586,-0.989563,-0.0056762695,-0.0625,-0.78125,0.703125,240
220,1696244782907,0.043945312,-0.9771118,0.001159668,-0.640625,-0.15625,0.09375,241
221,1696244782947,0.020019531,-0.99176025,0.014831543,0.75,-0.6875,0.203125,242
222,1696244782987,0.03173828,-0.991272,-0.0020141602,0.25,-0.53125,0.578125,243
223,1696244783027,0.040039062,-0.99713135,0.0036010742,-0.109375,-0.171875,0.203125,244
224,1696244783067,0.030761719,-0.99176025,0.00091552734,-0.28125,-0.71875,0.203125,245
225,1696244783107,0.032470703,-0.98760986,0.0060424805,1.796875,-1.046875,0.0625,246
226,1696244783147,0.038085938,-0.99005127,-0.00030517578,0.21875,-0.203125,0.3125,247
227,1696244783187,0.030761719,-0.9783325,-0.0012817383,-0.078125,-0.109375,0.046875,248
228,1696244783227,0.028808594,-0.98565674,0.0065307617,0.15625,-0.328125,0.546875,249
229,1696244783267,0.033447266,-0.98565674,-0.0005493164,0.234375,-0.65625,0.140625,250
230,1696244783307,0.028808594,-0.9854126,0.0021362305,0.265625,-0.6875,0.3125,251
231,1696244783347,0.02734375,-0.9834595,0.0072631836,-0.0625,-0.65625,0.15625,252
232,1696244783387,0.025634766,-0.98809814,-0.0051879883,-0.40625,-0.09375,0.15625,253
233,1696244783427,0.03491211,-0.99053955,-0.0029907227,-0.296875,-0.40625,0.3125,254
234,1696244783467,0.023925781,-0.987854,0.0072631836,-0.015625,-0.375,0.28125,255
235,1696244783507,0.030761719,-0.991272,-0.004211426,-0.34375,-0.328125,0.203125,256
236,1696244783547,0.030273438,-0.9841919,0.008239746,0.5625,-1.015625,0.3125,257
237,1696244783587,0.024658203,-0.99346924,0.012878418,1.4375,-0.8125,0.484375,258
238,1696244783627,0.037353516,-0.9873657,-0.014953613,-0.296875,0.328125,0.296875,259
239,1696244783667,0.040771484,-0.97784424,-0.0025024414,0.1875,-0.09375,0.421875,260
240,1696244783707,0.02368164,-1.0010376,-6.1035156e-05,1.0,-0.765625,0.65625,261
241,1696244783747,0.032470703,-0.98516846,0.005554199,0.125,0.390625,0.4375,262
242,1696244783787,0.044921875,-0.9866333,-0.0115356445,0.25,-0.15625,0.421875,263
243,1696244783827,0.031982422,-0.9824829,0.00018310547,0.40625,-0.421875,0.40625,264
244,1696244783867,0.028564453,-0.9973755,0.0014038086,0.515625,-1.09375,0.78125,265
245,1696244783907,0.040039062,-0.9890747,-0.007873535,-0.6875,-0.640625,-0.015625,266
246,1696244783947,0.03540039,-0.9824829,-0.0032348633,-0.4375,-0.34375,0.078125,267
247,1696244783987,0.03149414,-0.99420166,0.0016479492,0.53125,-0.671875,0.171875,268
248,1696244784027,0.032714844,-0.9854126,-0.005432129,0.25,-0.4375,0.265625,269
249,1696244784067,0.023925781,-0.987854,-0.00030517578,0.5625,-0.3125,0.484375,270
250,1696244784107,0.030761719,-0.98394775,0.0016479492,0.078125,-0.484375,0.390625,271
251,1696244784147,0.034423828,-0.98321533,-0.00592041,-0.234375,-0.40625,0.21875,272
252,1696244784187,0.03173828,-0.989563,-0.0029907227,0.328125,-0.5,0.25,273
253,1696244784227,0.034423828,-0.98565674,-0.004211426,0.0,-0.75,0.53125,274
254,1696244784267,0.033691406,-0.9780884,0.00091552734,0.46875,-0.53125,0.171875,275
255,1696244784307,0.03149414,-0.98443604,-0.010070801,-0.078125,0.203125,0.5,276
256,1696244784347,0.037841797,-0.9902954,-0.0032348633,0.6875,-0.765625,0.703125,277
257,1696244784387,0.037841797,-0.9829712,-0.018127441,-1.171875,1.28125,0.21875,278
258,1696244784427,0.032470703,-0.99468994,-0.0020141602,0.609375,-0.359375,0.828125,279
259,1696244784467,0.03564453,-0.99005127,-0.005432129,0.921875,-0.4375,0.40625,280
260,1696244784507,0.037597656,-0.98760986,-0.0020141602,0.1875,-0.0625,0.578125,281
261,1696244784547,0.033935547,-0.9924927,-0.010070801,0.0625,-0.09375,0.21875,282
262,1696244784587,0.03173828,-0.9729614,0.004333496,0.5625,-0.09375,0.125,283
263,1696244784627,0.045898438,-0.9795532,-0.016906738,0.328125,-0.34375,0.78125,284
264,1696244784667,0.03515625,-0.98223877,-0.010070801,0.03125,0.46875,0.40625,285
265,1696244784707,0.037353516,-0.98760986,-0.0064086914,0.359375,-0.046875,0.765625,286
266,1696244784747,0.038085938,-0.99053955,-0.01373291,0.4375,-0.25,0.609375,287
267,1696244784787,0.044677734,-0.9837036,-0.006652832,0.65625,-0.203125,0.484375,288
268,1696244784827,0.036621094,-0.98687744,-0.011779785,-0.09375,-0.328125,0.640625,289
269,1696244784867,0.040039062,-0.98394775,-0.012512207,-0.125,-0.15625,0.0625,290
270,1696244784907,0.04321289,-0.98394775,-0.0095825195,0.015625,-0.375,-0.015625,291
271,1696244784947,0.0390625,-0.9841919,-0.0154418945,0.25,-0.34375,0.140625,292
272,1696244784987,0.030273438,-0.97442627,-0.015930176,0.390625,-0.421875,0.3125,293
273,1696244785027,0.04272461,-0.98516846,-0.0134887695,-0.0625,-0.265625,0.3125,294
274,1696244785067,0.041992188,-0.9854126,-0.003967285,1.25,-0.828125,0.484375,295
275,1696244785107,0.049316406,-0.97857666,-0.035705566,-0.828125,0.5,0.109375,296
276,1696244785147,0.040771484,-0.9824829,-0.0134887695,1.046875,-0.390625,0.234375,297
277,1696244785187,0.033691406,-1.0020142,-0.015197754,0.640625,-0.5,0.171875,298
278,1696244785227,0.03881836,-0.97369385,-0.0178833,0.734375,0.078125,-0.046875,299
279,1696244785267,0.04663086,-0.975647,-0.014953613,0.265625,0.171875,0.046875,300
280,1696244785307,0.036376953,-0.97540283,-0.0017700195,0.703125,-0.34375,0.09375,301
281,1696244785347,0.044189453,-0.9883423,-0.018371582,-0.125,-0.5,0.359375,302
282,1696244785387,0.04321289,-0.9783325,-0.031799316,-0.25,-0.703125,-0.1875,303
283,1696244785427,0.04736328,-0.98931885,-0.012512207,0.109375,-0.28125,0.3125,304
284,1696244785467,0.0390625,-0.99468994,-0.014953613,-0.171875,-0.53125,0.21875,305
285,1696244785507,0.039794922,-0.98760986,-0.016174316,0.625,-0.609375,0.171875,306
286,1696244785547,0.044677734,-0.9817505,-0.015197754,0.453125,-0.421875,0.28125,307
287,1696244785587,0.029785156,-0.98321533,-0.020812988,0.421875,-0.671875,0.453125,308
288,1696244785627,0.044189453,-0.9834595,-0.014221191,-0.59375,-0.046875,0.0625,309
289,1696244785667,0.041259766,-0.9829712,-0.014221191,0.078125,-0.25,-0.046875,310
290,1696244785707,0.036376953,-0.98321533,-0.019836426,0.46875,-0.375,0.421875,311
291,1696244785747,0.041259766,-0.9849243,-0.027648926,-0.359375,0.421875,0.25,312
292,1696244785787,0.04711914,-0.9859009,-0.022277832,0.4375,-0.40625,0.453125,313
293,1696244785827,0.03930664,-0.98394775,-0.022277832,-0.53125,0.203125,-0.265625,314
294,1696244785867,0.04248047,-0.98883057,-0.013000488,1.046875,-0.609375,0.484375,315
295,1696244785907,0.040527344,-0.987854,-0.0256958,0.34375,-1.078125,-0.109375,316
296,1696244785947,0.049316406,-0.97906494,-0.01739502,0.859375,-0.234375,0.3125,317
297,1696244785987,0.03125,-0.9973755,-0.022033691,0.34375,-0.796875,0.34375,318
298,1696244786027,0.040039062,-0.98394775,-0.026184082,0.375,-0.5,0.21875,319
299,1696244786067,0.042236328,-0.98321533,-0.030334473,-0.609375,-0.109375,0.265625,320
300,1696244786107,0.041748047,-0.9771118,-0.026672363,0.453125,-0.375,0.4375,321
301,1696244786147,0.03515625,-0.9902954,-0.015686035,0.78125,-0.484375,0.609375,322
302,1696244786187,0.041015625,-0.9795532,-0.027404785,0.34375,-0.46875,0.75,323
303,1696244786227,0.045654297,-0.98443604,-0.020568848,0.125,-0.28125,0.484375,324
304,1696244786267,0.032714844,-0.98687744,-0.020080566,-0.015625,-0.421875,0.453125,325
305,1696244786307,0.046875,-0.98321533,-0.026184082,0.109375,-0.265625,0.5,326
306,1696244786347,0.045410156,-0.98028564,-0.029846191,-0.078125,-0.09375,0.375,327
307,1696244786387,0.037597656,-0.98760986,-0.03277588,-0.15625,-0.171875,0.53125,328
308,1696244786427,0.03881836,-0.9898071,-0.0256958,0.125,-0.75,0.15625,329
309,1696244786467,0.044677734,-0.9763794,-0.014465332,0.484375,-0.28125,0.453125,330
310,1696244786507,0.051757812,-0.98150635,-0.046447754,-0.453125,0.421875,0.265625,331
311,1696244786547,0.059570312,-0.97491455,-0.026428223,0.703125,0.359375,-0.046875,332
312,1696244786587,0.032714844,-1.0010376,0.00018310547,0.40625,-0.765625,0.703125,333
313,1696244786627,0.030761719,-0.98272705,-0.019836426,-3.0,-0.28125,0.609375,334
314,1696244786667,0.04736328,-0.98760986,-0.0044555664,-0.765625,-3.3125,1.09375,335
315,1696244786707,0.049804688,-0.9780884,-0.019348145,-1.234375,-2.359375,-0.015625,336
316,1696244786747,0.022460938,-0.9834595,-0.03375244,-2.625,-1.78125,-0.09375,337
317,1696244786787,0.030273438,-0.9915161,-0.016418457,0.296875,-0.65625,1.0625,338
318,1696244786827,0.06958008,-0.9902954,-0.028137207,-0.515625,-0.640625,-0.0625,339
319,1696244786867,0.048339844,-0.97491455,-0.02545166,-0.328125,-1.0,0.171875,340
320,1696244786907,0.047607422,-0.99053955,-0.023010254,0.96875,-0.703125,0.234375,341
321,1696244786947,0.037353516,-0.9697876,-0.030334473,1.21875,-0.640625,-0.625,342
322,1696244786987,0.052490234,-0.97979736,-0.0178833,1.78125,-1.296875,0.453125,343
323,1696244787027,0.045410156,-0.98394775,-0.020324707,0.734375,-0.921875,-0.140625,344
324,1696244787067,0.03930664,-0.9692993,-0.036193848,0.0625,-0.84375,-0.125,345
325,1696244787107,0.03881836,-0.9841919,-0.023986816,0.453125,-1.046875,0.0625,346
326,1696244787147,0.053222656,-0.98809814,-0.005432129,0.0,-0.640625,-0.125,347
327,1696244787187,0.03857422,-0.99224854,-0.034484863,-1.140625,-0.328125,0.265625,348
328,1696244787227,0.05517578,-0.9807739,-0.020812988,-0.40625,-0.59375,0.125,349
329,1696244787267,0.03881836,-0.99346924,-0.011047363,0.453125,-0.84375,0.28125,350
330,1696244787307,0.036376953,-0.98687744,-0.023742676,-0.171875,-0.3125,0.140625,351
331,1696244787347,0.048583984,-0.9819946,-0.016906738,-0.109375,0.0,0.34375,352
332,1696244787387,0.045410156,-0.9780884,-0.026916504,-0.1875,-0.3125,-0.03125,353
333,1696244787427,0.040283203,-0.9758911,-0.019592285,0.0625,-0.71875,0.375,354
334,1696244787467,0.05419922,-0.98223877,-0.022521973,-0.078125,-0.484375,0.265625,355
335,1696244787507,0.044433594,-0.98809814,-0.012023926,0.328125,-0.828125,0.171875,356
336,1696244787547,0.04248047,-0.99468994,-0.026184082,0.34375,-0.96875,0.453125,357
337,1696244787587,0.041015625,-0.97906494,-0.021057129,0.28125,-0.578125,0.421875,358
338,1696244787627,0.041503906,-0.99005127,-0.024719238,0.1875,-0.609375,0.515625,359
339,1696244787667,0.041015625,-0.9829712,-0.023742676,0.71875,-0.640625,0.234375,360
340,1696244787707,0.04711914,-0.98394775,-0.024230957,-0.046875,-0.15625,0.359375,361
341,1696244787747,0.040039062,-0.986145,-0.031799316,-0.359375,-0.453125,0.234375,362
342,1696244787787,0.0390625,-0.98394775,-0.018615723,-0.1875,-0.78125,0.40625,363
343,1696244787827,0.045654297,-0.9795532,-0.007385254,0.796875,-0.953125,0.34375,364
344,1696244787867,0.05126953,-0.9751587,-0.04522705,-1.28125,0.328125,0.078125,365
345,1696244787907,0.04345703,-0.98760986,-0.014221191,0.734375,-0.28125,0.34375,366
346,1696244787947,0.044189453,-0.9963989,-0.024963379,0.140625,-0.296875,0.15625,367
347,1696244787987,0.052246094,-0.9805298,-0.02130127,-0.21875,-0.0625,-0.34375,368
348,1696244788027,0.042236328,-0.99224854,-0.030090332,-0.015625,0.078125,0.046875,369
349,1696244788067,0.04272461,-0.97125244,-0.02545166,-0.1875,-0.03125,-0.109375,370
350,1696244788107,0.051757812,-0.9859009,-0.028625488,-0.453125,-0.375,0.171875,371
351,1696244788147,0.041992188,-0.975647,-0.027160645,-0.4375,-0.25,-0.3125,372
352,1696244788187,0.03515625,-0.9841919,-0.023742676,-0.125,-0.234375,0.125,373
353,1696244788227,0.041015625,-0.9854126,-0.034729004,-0.4375,-0.046875,0.015625,374
354,1696244788267,0.031982422,-0.98565674,-0.0015258789,0.328125,-0.75,0.484375,391
355,1696244788307,0.032958984,-0.9873657,0.0053100586,0.109375,-1.078125,0.1875,392
356,1696244788347,0.02368164,-0.98516846,-0.0022583008,-0.234375,-0.6875,0.484375,393
357,1696244788387,0.03125,-0.9973755,0.0004272461,0.25,-0.484375,0.46875,394
358,1696244788427,0.036376953,-0.99053955,-0.0064086914,-0.125,-0.546875,0.484375,395
359,1696244788467,0.024169922,-0.9883423,0.0036010742,-0.25,-0.796875,0.375,396
360,1696244788507,0.033691406,-0.9849243,-0.011047363,-0.25,-0.65625,0.3125,397
361,1696244788547,0.033203125,-0.9824829,0.010681152,1.140625,-1.640625,0.4375,398
362,1696244788587,0.036621094,-0.9805298,-0.023742676,-1.9375,0.609375,-0.0625,399
363,1696244788627,0.030273438,-0.98760986,0.0060424805,0.234375,-0.921875,0.25,400
364,1696244788667,0.029541016,-0.98394775,-0.0022583008,0.125,-0.859375,0.53125,401
365,1696244788707,0.03540039,-0.9817505,0.0040893555,0.1875,-0.59375,0.25,402
366,1696244788747,0.033447266,-0.99053955,-0.0005493164,0.609375,-1.25,0.390625,403
367,1696244788787,0.029541016,-0.9866333,0.00018310547,1.875,-1.34375,0.4375,404
368,1696244788827,0.031982422,-0.9783325,-0.012023926,0.171875,-0.34375,0.390625,405
369,1696244788867,0.026123047,-0.99102783,0.0028686523,0.15625,-0.46875,0.125,406
370,1696244788907,0.032470703,-0.986145,-0.0015258789,-0.078125,-0.4375,0.21875,407
371,1696244788947,0.03125,-0.9859009,-0.008605957,-0.09375,-0.78125,0.3125,408
372,1696244788987,0.037597656,-0.9902954,0.002380371,0.453125,-0.90625,0.375,409
373,1696244789027,0.030273438,-0.9932251,-0.0056762695,0.53125,-0.796875,0.234375,410
374,1696244789067,0.037353516,-0.987854,-0.0056762695,0.3125,-0.40625,0.40625,411
375,1696244789107,0.03881836,-0.98809814,-0.0037231445,0.125,-0.734375,0.4375,412
376,1696244789147,0.02709961,-0.9854126,-0.0064086914,0.046875,-0.390625,0.25,413
377,1696244789187,0.037109375,-0.99005127,-0.0056762695,1.234375,-1.109375,0.65625,414
378,1696244789227,0.026855469,-0.99346924,0.0038452148,1.5625,-0.765625,0.453125,415
379,1696244789267,0.038085938,-0.98101807,-0.030090332,-0.390625,-0.28125,0.671875,416
380,1696244789307,0.041992188,-0.98223877,-0.006164551,0.71875,0.15625,0.375,417
381,1696244789347,0.029052734,-0.99957275,-0.0049438477,1.1875,-0.828125,0.75,418
382,1696244789387,0.025634766,-0.989563,-0.0115356445,0.578125,-0.421875,0.515625,419
383,1696244789427,0.04345703,-0.9824829,-0.015686035,0.015625,-0.015625,0.40625,420
384,1696244789467,0.036132812,-0.97906494,-0.010314941,0.21875,-0.28125,0.234375,421
385,1696244789507,0.03881836,-0.99176025,-0.016662598,0.21875,-0.65625,0.4375,422
386,1696244789547,0.044189453,-0.9771118,-0.023254395,-0.078125,-0.1875,0.359375,423
387,1696244789587,0.04663086,-0.9846802,-0.0178833,0.0,-0.125,0.359375,424
388,1696244789627,0.035888672,-0.99664307,-0.008850098,-0.234375,-0.421875,0.453125,425
389,1696244789667,0.041992188,-0.9788208,-0.010070801,0.015625,-0.546875,0.09375,426
390,1696244789707,0.03930664,-0.9898071,-0.0134887695,0.34375,-1.078125,0.390625,427
391,1696244789747,0.0390625,-0.98931885,-0.011291504,-0.1875,-0.625,0.234375,428
392,1696244789787,0.029541016,-0.9871216,-0.019104004,-0.5625,-0.359375,0.09375,429
393,1696244789827,0.04638672,-0.9837036,-0.022766113,-0.59375,0.109375,-0.1875,430
394,1696244789867,0.037353516,-0.9898071,-0.020324707,-0.34375,-0.484375,0.140625,431
395,1696244789907,0.017089844,-0.97857666,-0.0154418945,1.15625,-1.046875,0.65625,432
396,1696244789947,0.042236328,-0.99176025,-0.00982666,0.5625,-0.265625,0.1875,433
397,1696244789987,0.046142578,-0.9963989,-0.02154541,-0.015625,-0.65625,0.40625,434
398,1696244790027,0.045166016,-0.9746704,-0.013977051,-0.453125,0.359375,-0.484375,435
399,1696244790067,0.03149414,-0.99005127,-0.011779785,0.65625,-0.875,0.78125,436
400,1696244790107,0.033691406,-0.98272705,-0.013244629,0.453125,-0.328125,0.3125,437
401,1696244790147,0.03881836,-0.99176025,-0.013977051,-0.34375,0.265625,0.296875,438
402,1696244790187,0.033935547,-0.98809814,-0.020812988,-0.71875,0.109375,-0.28125,439
403,1696244790227,0.045166016,-0.98028564,-0.021057129,-0.609375,-0.109375,0.125,440
404,1696244790267,0.05078125,-0.9793091,-0.012268066,-0.234375,-0.15625,-0.03125,441
405,1696244790307,0.036376953,-0.9859009,-0.0115356445,0.453125,-0.265625,0.234375,442
406,1696244790347,0.040039062,-0.9920044,-0.0115356445,0.015625,-0.578125,0.078125,443
407,1696244790387,0.029296875,-1.000061,-0.012756348,-0.109375,-0.765625,0.0,444
408,1696244790427,0.03564453,-0.987854,-0.008605957,-0.1875,-0.265625,0.0625,445
409,1696244790467,0.030273438,-0.9871216,-0.014953613,0.09375,-0.0625,0.28125,446
410,1696244790507,0.032958984,-0.98931885,-0.0044555664,-0.125,-0.03125,0.3125,447
411,1696244790547,0.03564453,-0.986145,-0.0134887695,-0.25,0.078125,0.03125,448
412,1696244790587,0.029541016,-0.98443604,-0.013977051,0.046875,-0.15625,0.453125,449
413,1696244790627,0.038085938,-0.9805298,-0.015197754,0.265625,0.03125,0.484375,450
414,1696244790667,0.040527344,-0.9829712,-0.016418457,0.03125,-0.296875,0.375,451
415,1696244790707,0.03955078,-0.9898071,-0.015686035,-0.421875,-0.203125,0.4375,452
416,1696244790747,0.043701172,-0.99346924,-0.013000488,0.265625,-0.609375,0.53125,453
417,1696244790787,0.048828125,-0.9812622,-0.032043457,-1.4375,0.765625,-0.046875,454
418,1696244790827,0.021972656,-0.9902954,0.0014038086,0.921875,-0.953125,0.46875,455
419,1696244790867,0.032470703,-0.99468994,-0.010559082,0.328125,-0.328125,0.15625,456
420,1696244790907,0.037109375,-0.98028564,-0.008850098,-0.59375,0.1875,0.0,457
421,1696244790947,0.025390625,-1.00177,-0.0044555664,-1.9375,0.65625,0.6875,458
422,1696244790987,0.041503906,-0.986145,0.016540527,-1.484375,0.34375,-0.109375,459
423,1696244791027,0.033203125,-0.98394775,0.003112793,-2.15625,-2.40625,-0.34375,460
424,1696244791067,0.0056152344,-0.98223877,-0.008850098,-2.640625,-1.890625,0.171875,461
425,1696244791107,0.035888672,-0.9937134,-0.006652832,-1.3125,0.65625,0.890625,462
426,1696244791147,0.04321289,-0.9854126,-0.018859863,-1.3125,-0.3125,0.265625,463
427,1696244791187,0.02758789,-0.96417236,-0.0015258789,-0.6875,-1.125,-0.078125,464
428,1696244791227,0.049804688,-0.99664307,-0.008117676,0.796875,-0.421875,0.75,465
429,1696244791267,0.040527344,-0.97003174,-0.00079345703,0.71875,-0.515625,-0.375,466
430,1696244791307,0.038330078,-0.9859009,0.002380371,1.984375,-1.859375,0.640625,467
431,1696244791347,0.038330078,-0.98223877,-0.0049438477,1.546875,-1.671875,0.390625,468
432,1696244791387,0.0390625,-0.97247314,-0.008605957,1.109375,-0.75,0.28125,469
433,1696244791427,0.04248047,-0.98394775,-0.0037231445,0.859375,-1.078125,0.59375,470
434,1696244791467,0.04272461,-0.9924927,0.0045776367,-0.328125,-0.671875,-0.3125,471
435,1696244791507,0.03491211,-0.9873657,0.001159668,0.53125,-1.515625,0.6875,472
436,1696244791547,0.06201172,-0.9846802,-0.0134887695,-0.875,0.015625,-0.34375,473
437,1696244791587,0.026123047,-0.9937134,-0.0020141602,0.96875,-1.390625,0.421875,474
438,1696244791627,0.030761719,-0.9956665,0.0072631836,0.734375,-1.484375,0.296875,475
439,1696244791667,0.033691406,-0.98394775,-0.0044555664,-0.015625,-0.65625,0.5,476
440,1696244791707,0.044677734,-0.97320557,-0.010803223,-0.125,-0.234375,-0.0625,477
441,1696244791747,0.036132812,-0.99346924,-0.00592041,1.328125,-1.109375,0.484375,478
442,1696244791787,0.044921875,-0.9729614,-0.015930176,0.0625,-0.4375,0.1875,479
443,1696244791827,0.04663086,-0.989563,-0.0095825195,0.015625,-0.328125,0.578125,480
444,1696244791867,0.036132812,-0.9924927,0.0018920898,1.125,-0.546875,0.328125,481
445,1696244791907,0.044433594,-0.98272705,-0.01763916,0.15625,-0.71875,0.53125,482
446,1696244791947,0.041748047,-0.9883423,-0.007873535,-0.09375,-0.453125,0.15625,483
447,1696244791987,0.036132812,-0.9829712,-0.003479004,0.03125,-0.34375,0.15625,484
448,1696244792027,0.040283203,-0.9854126,-0.016906738,0.71875,-0.5,0.03125,485
449,1696244792067,0.034179688,-0.9859009,-0.00982666,0.453125,-0.390625,0.296875,486
450,1696244792107,0.03930664,-0.9883423,-0.015930176,-0.140625,-0.359375,0.15625,487
451,1696244792147,0.037597656,-0.9788208,-0.010559082,-0.0625,-0.21875,0.046875,488
452,1696244792187,0.03564453,-0.98394775,-0.014221191,0.25,-0.40625,-0.015625,489
453,1696244792227,0.04248047,-0.9824829,-0.015197754,-0.140625,0.09375,0.046875,490
454,1696244792267,0.03515625,-0.98272705,-0.0051879883,0.53125,-0.328125,0.265625,491
455,1696244792307,0.04663086,-0.9795532,-0.018615723,-1.25,0.671875,-0.265625,492
456,1696244792347,0.0390625,-0.989563,-0.006652832,0.578125,-0.28125,0.078125,493
457,1696244792387,0.03881836,-0.99542236,-0.016906738,0.21875,-0.28125,0.140625,494
458,1696244792427,0.040283203,-0.9849243,-0.0056762695,-0.171875,-0.078125,0.234375,495
459,1696244792467,0.032958984,-0.9812622,-0.010070801,-0.046875,-0.09375,0.015625,496
460,1696244792507,0.03173828,-0.9829712,-0.0095825195,0.328125,-0.546875,-0.203125,497
461,1696244792547,0.029541016,-0.98760986,-0.0071411133,-0.0625,-0.390625,0.3125,498
462,1696244792587,0.032470703,-0.98150635,-0.020324707,-0.4375,-0.390625,-0.21875,499
463,1696244792627,0.033203125,-0.9963989,-0.0044555664,-0.171875,-0.109375,0.015625,500
464,1696244792667,0.033935547,-0.9859009,-0.01763916,-0.390625,-0.203125,0.109375,501
465,1696244792707,0.042236328,-0.98321533,-0.008361816,0.1875,-0.359375,0.265625,502
466,1696244792747,0.032470703,-0.98760986,-0.007873535,-0.0625,-0.28125,0.328125,503
467,1696244792787,0.032226562,-0.98638916,-0.01763916,0.0,-0.390625,0.171875,504
468,1696244792827,0.034179688,-0.989563,-0.012512207,0.125,-0.0625,0.3125,505
469,1696244792867,0.037353516,-0.98931885,-0.009094238,-0.109375,-0.375,0.109375,506
470,1696244792907,0.029541016,-0.9776001,-0.0037231445,0.046875,-0.296875,0.140625,507
471,1696244792947,0.033447266,-0.9854126,0.00018310547,-1.078125,0.640625,0.390625,508
472,1696244792987,0.038085938,-1.006897,0.008972168,-1.5,0.28125,0.65625,509
473,1696244793027,0.051513672,-0.98638916,-0.0064086914,-1.96875,-1.9375,-0.109375,510
474,1696244793067,0.03173828,-0.97198486,-0.025939941,-2.859375,-0.40625,0.28125,511
475,1696244793107,0.02368164,-1.0015259,0.019226074,-0.875,-0.390625,0.640625,512
476,1696244793147,0.039794922,-0.9824829,-0.015197754,-0.90625,-0.28125,0.5,513
477,1696244793187,0.045654297,-0.9717407,-0.012756348,-0.5,-0.25,0.09375,514
478,1696244793227,0.044189453,-0.98394775,-0.007873535,1.03125,-0.796875,0.109375,515
479,1696244793267,0.03540039,-0.9771118,0.0067749023,1.390625,-1.1875,0.03125,516
480,1696244793307,0.041503906,-0.99053955,-0.007385254,1.109375,-1.5625,0.859375,517
481,1696244793347,0.0390625,-0.98223877,0.0016479492,1.109375,-1.078125,0.21875,518
482,1696244793387,0.03149414,-0.98223877,-0.008605957,0.15625,-0.78125,0.140625,519
483,1696244793427,0.03930664,-0.98223877,-0.008605957,0.125,-0.890625,-0.015625,520
484,1696244793467,0.03491211,-0.9873657,-0.0049438477,0.3125,-0.46875,-0.140625,521
485,1696244793507,0.036621094,-0.98931885,-0.0095825195,0.140625,-0.875,0.171875,522
486,1696244793547,0.041015625,-0.99591064,0.0045776367,0.09375,-0.8125,0.0625,523
487,1696244793587,0.036132812,-0.9890747,-0.004699707,0.015625,-0.84375,0.015625,524
488,1696244793627,0.025146484,-0.9907837,0.0053100586,0.328125,-0.90625,0.484375,525
489,1696244793667,0.031982422,-0.9854126,-0.009338379,0.203125,-0.578125,0.84375,526
490,1696244793707,0.046875,-0.9795532,-0.009094238,-0.609375,0.375,0.046875,527
491,1696244793747,0.040039062,-0.9951782,-0.019348145,0.890625,-1.25,0.640625,528
492,1696244793787,0.052490234,-0.9710083,-0.023742676,-1.03125,0.828125,-0.421875,529
493,1696244793827,0.039794922,-0.9907837,-0.005432129,2.25,-1.046875,0.296875,530
494,1696244793867,0.025878906,-0.9963989,-0.0012817383,0.8125,-0.703125,0.328125,531
495,1696244793907,0.03173828,-0.96954346,-0.0154418945,0.5,0.078125,0.265625,532
496,1696244793947,0.04321289,-0.99346924,-0.016174316,0.4375,-0.671875,0.40625,533
497,1696244793987,0.027832031,-0.9805298,-0.012023926,0.6875,-0.859375,-0.296875,534
498,1696244794027,0.041015625,-0.9866333,-0.007873535,-0.015625,-0.21875,0.59375,535
499,1696244794067,0.032470703,-0.99005127,-0.0115356445,-0.53125,-0.359375,0.0625,536
500,1696244794107,0.03466797,-0.98565674,-0.0032348633,0.125,-0.5625,0.265625,537
501,1696244794147,0.036376953,-1.0003052,-0.016662598,-0.21875,-0.4375,0.28125,538
502,1696244794187,0.033691406,-0.97491455,-0.0049438477,-0.515625,0.203125,-0.046875,539
503,1696244794227,0.03466797,-0.98565674,-0.004699707,-0.3125,0.078125,0.5,540
504,1696244794267,0.037841797,-0.9800415,-0.011291504,0.078125,-0.203125,-0.125,541
505,1696244794307,0.04345703,-0.9824829,-0.0095825195,-0.125,-0.28125,0.484375,542
506,1696244794347,0.038330078,-0.9859009,-0.016418457,-0.5,-0.53125,0.0,543
507,1696244794387,0.033935547,-0.98101807,-0.0064086914,-0.140625,-0.390625,0.578125,544
508,1696244794427,0.03857422,-0.9854126,-0.006164551,0.375,-0.515625,0.3125,545
509,1696244794467,0.042236328,-0.9846802,-0.011047363,-0.15625,0.34375,0.015625,546
510,1696244794507,0.033447266,-0.986145,-0.017150879,-0.03125,-0.875,0.1875,547
511,1696244794547,0.045654297,-0.9734497,-0.014953613,-1.234375,0.515625,-0.046875,548
512,1696244794587,0.035888672,-0.9924927,0.0079956055,1.078125,-0.671875,0.515625,549
513,1696244794627,0.03125,-0.9849243,-0.015930176,-0.6875,-0.3125,-0.109375,550
514,1696244794667,0.029541016,-0.9795532,-0.00030517578,0.046875,0.015625,0.578125,551
515,1696244794707,0.030761719,-0.9915161,-0.01739502,-0.296875,0.09375,0.15625,552
516,1696244794747,0.03930664,-0.9758911,-0.010070801,0.359375,-0.25,0.3125,553
517,1696244794787,0.043945312,-0.9866333,-0.00982666,0.109375,0.03125,0.53125,554
518,1696244794827,0.040039062,-0.97857666,-0.0051879883,-0.0625,0.0,-0.171875,555
519,1696244794867,0.038330078,-0.9846802,-0.011779785,0.265625,-0.234375,0.296875,556
520,1696244794907,0.034179688,-0.986145,-0.009094238,-0.109375,-0.71875,0.015625,557
521,1696244794947,0.02734375,-0.9871216,-0.010070801,0.15625,-0.421875,0.390625,558
522,1696244794987,0.03881836,-0.9837036,-0.009094238,-0.0625,-0.28125,0.046875,559
523,1696244795027,0.037841797,-0.9829712,-0.007873535,0.40625,-0.5,0.0625,560
524,1696244795067,0.036132812,-0.9776001,-0.013000488,-0.03125,-0.34375,0.109375,561
525,1696244795107,0.033935547,-0.9812622,-0.004211426,-0.1875,-0.203125,0.125,562
526,1696244795147,0.040527344,-0.9854126,-0.013000488,-0.28125,-0.1875,0.0,563
527,1696244795187,0.03100586,-0.9829712,-0.012268066,-0.0625,-0.90625,0.015625,564
528,1696244795227,0.032958984,-0.98809814,-0.0005493164,0.40625,-0.421875,0.03125,565
529,1696244795267,0.03515625,-0.9883423,-0.027648926,-1.171875,0.90625,0.1875,566
530,1696244795307,0.03149414,-0.9824829,-0.0032348633,0.421875,0.328125,-0.15625,567
531,1696244795347,0.028564453,-1.00177,-0.010559082,0.609375,-0.34375,-0.046875,568
532,1696244795387,0.038085938,-0.9763794,-0.008117676,0.21875,0.171875,-0.109375,569
533,1696244795427,0.029296875,-0.9920044,-0.0012817383,-0.171875,-0.578125,0.4375,570
534,1696244795467,0.018310547,-0.9866333,0.0048217773,-0.28125,-1.3125,0.125,571
535,1696244795507,0.040771484,-0.9776001,-0.0071411133,-0.1875,-1.671875,0.359375,572
536,1696244795547,0.037353516,-0.97857666,-0.003967285,-0.203125,-1.890625,0.34375,573
537,1696244795587,0.027832031,-0.9949341,-0.0068969727,0.765625,-1.953125,0.46875,574
538,1696244795627,0.037109375,-0.9927368,-0.008850098,0.09375,-0.671875,0.9375,575
539,1696244795667,0.03100586,-0.9927368,-0.00079345703,-0.046875,-0.515625,0.90625,576
540,1696244795707,0.033447266,-0.9873657,-0.018371582,-0.59375,-0.796875,0.609375,577
541,1696244795747,0.040283203,-0.98687744,-0.00592041,-0.671875,-0.5,0.53125,578
542,1696244795787,0.036132812,-0.9866333,-0.014221191,-1.21875,0.078125,0.59375,579
543,1696244795827,0.040283203,-0.98272705,-0.013977051,-0.765625,0.015625,0.625,580
544,1696244795867,0.04345703,-0.9824829,-0.0076293945,-1.265625,0.015625,0.09375,581
545,1696244795907,0.030517578,-0.9873657,0.014831543,-1.171875,-0.921875,0.359375,582
546,1696244795947,0.04638672,-0.9746704,-0.0056762695,-0.8125,-0.25,0.390625,583
547,1696244795987,0.041992188,-0.9841919,-0.036193848,-1.671875,0.40625,0.1875,584
548,1696244796027,0.037841797,-0.987854,0.007019043,0.0625,-0.21875,0.171875,585
549,1696244796067,0.040283203,-0.9902954,-0.008361816,-0.046875,-0.796875,0.203125,586
550,1696244796107,0.045410156,-0.9656372,-0.0071411133,-0.125,-0.5625,-0.203125,587
551,1696244796147,0.033691406,-0.98687744,-6.1035156e-05,1.0,-1.21875,0.21875,588
552,1696244796187,0.034179688,-0.973938,0.009460449,1.046875,-1.578125,-0.078125,589
553,1696244796227,0.040527344,-0.98321533,-0.010803223,0.859375,-1.84375,0.578125,590
554,1696244796267,0.04248047,-0.9859009,-0.0068969727,0.453125,-1.359375,0.328125,591
555,1696244796307,0.03564453,-0.9985962,-0.0095825195,0.484375,-0.75,0.1875,592
556,1696244796347,0.043945312,-0.9907837,-0.006164551,-0.140625,-0.109375,0.34375,593
557,1696244796387,0.041259766,-0.9932251,0.0016479492,-0.46875,-0.375,0.375,594
558,1696244796427,0.038330078,-0.986145,-0.0032348633,-0.46875,-0.796875,0.203125,595
559,1696244796467,0.038085938,-0.9871216,-0.0029907227,-0.265625,-0.703125,0.234375,596
560,1696244796507,0.041748047,-0.98760986,-0.0025024414,-0.125,-0.5625,0.25,597
561,1696244796547,0.034423828,-0.9834595,-0.013000488,-0.265625,-0.578125,0.296875,598
562,1696244796587,0.045166016,-0.9834595,-0.002746582,0.484375,-1.53125,0.125,599
563,1696244796627,0.03149414,-0.986145,0.0079956055,0.640625,-1.015625,0.171875,600
564,1696244796667,0.03955078,-0.9873657,-0.03253174,-0.609375,-0.078125,0.46875,601
565,1696244796707,0.043701172,-0.9834595,-0.008117676,-0.140625,-0.1875,-0.234375,602
566,1696244796747,0.033447266,-0.9973755,0.0006713867,0.953125,-0.84375,0.3125,603
567,1696244796787,0.04321289,-0.9768677,-0.009094238,-0.21875,-0.34375,-0.09375,604
568,1696244796827,0.037597656,-0.986145,0.00018310547,0.359375,-0.46875,-0.125,605
569,1696244796867,0.032470703,-0.9800415,-0.013244629,0.109375,-0.734375,-0.15625,606
570,1696244796907,0.044433594,-0.98809814,-0.0051879883,-0.1875,-0.5,0.109375,607
571,1696244796947,0.046875,-0.9795532,-0.002746582,-0.6875,0.0625,-0.21875,608
572,1696244796987,0.032714844,-0.9907837,-0.003967285,0.046875,-0.453125,0.15625,609
573,1696244797027,0.03540039,-0.991272,0.0028686523,0.03125,-0.453125,0.078125,610
574,1696244797067,0.041503906,-0.98687744,-0.009094238,-0.1875,-0.40625,0.34375,611
575,1696244797107,0.026367188,-0.9883423,0.0048217773,0.5625,-0.75,0.1875,612
576,1696244797147,0.037841797,-0.98394775,-0.0076293945,0.15625,-0.25,0.0625,613
577,1696244797187,0.036865234,-0.99102783,-0.0032348633,0.015625,-0.359375,0.34375,614
578,1696244797227,0.032226562,-0.9849243,0.005554199,-0.171875,-0.390625,0.109375,615
579,1696244797267,0.029541016,-0.9768677,0.0033569336,0.875,-0.828125,0.59375,616
580,1696244797307,0.04711914,-0.98150635,-0.028381348,-0.140625,0.265625,0.25,617
581,1696244797347,0.031982422,-0.9920044,-0.00079345703,0.84375,-1.296875,0.59375,618
582,1696244797387,0.045166016,-0.9729614,-0.016418457,-1.96875,1.15625,-0.203125,619
583,1696244797427,0.03491211,-0.9873657,-0.0010375977,0.734375,-0.125,0.390625,620
584,1696244797467,0.03100586,-0.9976196,-0.010559082,1.21875,-0.3125,0.578125,621
585,1696244797507,0.033691406,-0.9793091,0.0006713867,0.53125,-0.140625,0.546875,622
586,1696244797547,0.037597656,-0.99346924,-0.012023926,0.15625,-0.625,0.71875,623
587,1696244797587,0.04345703,-0.98028564,-0.005432129,0.703125,-0.8125,0.0625,624
588,1696244797627,0.04345703,-0.98687744,-0.020324707,-0.25,-0.375,0.234375,625
589,1696244797667,0.040527344,-0.9902954,-0.016662598,-0.578125,0.03125,0.078125,626
590,1696244797707,0.036132812,-0.9795532,-0.0064086914,0.25,-0.609375,0.03125,627
591,1696244797747,0.03173828,-0.9795532,-0.0134887695,0.328125,-0.5625,0.75,628
592,1696244797787,0.04321289,-0.98272705,-0.006652832,0.921875,-0.296875,0.328125,629
593,1696244797827,0.040283203,-0.9837036,-0.010803223,0.0,-0.65625,0.109375,630
594,1696244797867,0.032958984,-0.9819946,-0.015686035,-0.53125,-0.03125,0.125,631
595,1696244797907,0.05126953,-0.98638916,-0.0025024414,-0.015625,0.03125,0.328125,632
596,1696244797947,0.037841797,-0.9776001,-0.010070801,-0.03125,-0.484375,0.21875,633
597,1696244797987,0.033691406,-0.9834595,-0.0056762695,0.359375,-0.21875,0.359375,634
598,1696244798027,0.029785156,-0.9795532,-0.005432129,0.625,-0.40625,0.1875,635
599,1696244798067,0.04296875,-0.98028564,-0.018127441,-0.296875,0.359375,-0.015625,636
600,1696244798107,0.03100586,-0.986145,-0.018127441,0.140625,-0.875,0.609375,637
601,1696244798147,0.04272461,-0.9783325,-0.012023926,-0.6875,0.90625,0.234375,638
602,1696244798187,0.036621094,-0.9968872,-0.0015258789,0.953125,-0.609375,0.46875,639
603,1696244798227,0.03173828,-0.99102783,-0.012268066,-0.3125,-0.25,-0.265625,640
604,1696244798267,0.036865234,-0.9819946,-0.009338379,-0.015625,-0.09375,0.53125,641
605,1696244798307,0.03930664,-0.9873657,-0.018859863,-0.234375,-0.421875,0.21875,642
606,1696244798347,0.029541016,-0.9795532,-0.014221191,0.78125,-0.984375,0.4375,643
607,1696244798387,0.045654297,-0.9854126,-0.023010254,-0.15625,-0.203125,0.125,644
608,1696244798427,0.040771484,-0.9841919,-0.010070801,-0.046875,-0.6875,-0.03125,645
609,1696244798467,0.037597656,-0.9871216,-0.013244629,-0.109375,-0.046875,0.265625,646
610,1696244798507,0.03491211,-0.9885864,-0.011291504,0.09375,-0.5,0.46875,647
611,1696244798547,0.032958984,-0.99420166,-0.0178833,0.375,-0.234375,0.328125,648
612,1696244798587,0.034423828,-0.98223877,-0.009338379,0.203125,0.25,0.265625,649
613,1696244798627,0.029052734,-0.9907837,-0.018615723,0.0625,0.078125,0.265625,650
614,1696244798667,0.04321289,-0.9854126,-0.015197754,-0.03125,0.09375,0.4375,651
615,1696244798707,0.036132812,-0.98394775,-0.009338379,-0.046875,-0.34375,0.3125,652
616,1696244798747,0.04248047,-0.9741821,-0.020812988,-0.203125,-0.140625,0.515625,653
617,1696244798787,0.03491211,-0.9819946,-0.0056762695,0.25,-0.25,0.296875,654
618,1696244798827,0.04272461,-0.98150635,-0.014221191,0.046875,-0.375,0.515625,655
619,1696244798867,0.040283203,-0.97857666,-0.018371582,-0.015625,-0.34375,0.453125,656
620,1696244798907,0.040527344,-0.991272,-0.011291504,1.046875,-1.234375,0.375,657
621,1696244798947,0.03955078,-0.9846802,-6.1035156e-05,0.765625,-0.921875,0.390625,658
622,1696244798987,0.041748047,-0.98809814,-0.03668213,-0.8125,-0.34375,0.515625,659
623,1696244799027,0.048583984,-0.9783325,-0.005432129,0.5,-0.40625,0.328125,660
624,1696244799067,0.029541016,-0.99224854,-0.019836426,0.1875,-0.390625,0.09375,661
625,1696244799107,0.033447266,-0.98809814,-0.020080566,0.09375,-0.375,0.046875,662
626,1696244799147,0.032226562,-0.9849243,-0.0115356445,0.125,-0.078125,0.453125,663
627,1696244799187,0.03515625,-0.9817505,-0.017150879,-0.171875,-0.484375,0.140625,664
628,1696244799227,0.05102539,-0.9885864,-0.014953613,0.1875,-0.75,0.8125,665
629,1696244799267,0.047607422,-0.98394775,-0.015930176,-0.40625,-0.4375,0.046875,666
630,1696244799307,0.043701172,-0.9800415,-0.014953613,-0.046875,-0.34375,0.546875,667
631,1696244799347,0.037841797,-0.9924927,-0.0178833,-0.25,-0.609375,0.625,668
632,1696244799387,0.045654297,-0.9849243,-0.012268066,-0.453125,-0.5,0.359375,669
633,1696244799427,0.036865234,-0.98321533,-0.015930176,-0.046875,-0.546875,-0.03125,670
634,1696244799467,0.031982422,-0.98321533,-0.018127441,0.328125,-0.28125,0.40625,671
635,1696244799507,0.045654297,-0.991272,-0.022277832,0.015625,-0.3125,0.328125,672
636,1696244799547,0.037841797,-0.9873657,-0.0134887695,0.015625,-0.421875,0.15625,673
637,1696244799587,0.042236328,-0.99053955,-0.0095825195,0.046875,-0.609375,0.375,674
638,1696244799627,0.045654297,-0.9812622,-0.010803223,0.078125,-0.40625,0.1875,675
639,1696244799667,0.038330078,-0.97735596,-0.0178833,0.34375,-0.890625,0.296875,676
640,1696244799707,0.042236328,-0.9902954,-0.023498535,-0.015625,-0.515625,0.203125,677
641,1696244799747,0.04321289,-0.9783325,-0.02178955,0.0,-1.171875,0.1875,678
642,1696244799787,0.04638672,-0.9829712,-0.008361816,0.453125,-0.734375,0.40625,679
643,1696244799827,0.04711914,-0.9776001,-0.031555176,-0.671875,-0.09375,0.0,680
644,1696244799867,0.040039062,-0.9902954,-0.014953613,0.4375,-0.34375,0.0625,681
645,1696244799907,0.03125,-0.9944458,-0.019104004,0.125,-0.75,0.140625,682
646,1696244799947,0.047607422,-0.98028564,-0.021057129,0.09375,-0.046875,0.046875,683
647,1696244799987,0.033447266,-0.98101807,-0.016662598,0.046875,-0.65625,0.03125,684
648,1696244800027,0.029785156,-0.9776001,-0.02545166,-0.1875,-0.765625,0.078125,685
649,1696244800067,0.04296875,-0.98883057,-0.018859863,0.15625,-0.359375,0.0625,686
650,1696244800107,0.04638672,-0.9795532,-0.028869629,-0.046875,-0.34375,-0.15625,687
651,1696244800147,0.04296875,-0.9837036,-0.0064086914,0.4375,-0.265625,0.328125,688
652,1696244800187,0.03564453,-0.98883057,-0.028137207,-0.0625,-0.90625,0.5,689
653,1696244800227,0.036621094,-0.98272705,-0.011291504,0.09375,-0.703125,0.25,690
654,1696244800267,0.029541016,-1.000061,-0.023498535,0.0,-0.65625,0.5,691
655,1696244800307,0.035888672,-0.97857666,-0.016662598,-0.265625,-0.328125,0.109375,692
656,1696244800347,0.049072266,-0.99102783,-0.023742676,-0.046875,-0.375,0.484375,693
657,1696244800387,0.04272461,-0.9812622,-0.014465332,-0.1875,-0.265625,0.28125,694
658,1696244800427,0.034423828,-0.9885864,-0.023010254,0.015625,-0.5,0.421875,695
659,1696244800467,0.040527344,-0.9793091,-0.016418457,-0.125,-0.078125,0.578125,696
660,1696244800507,0.03955078,-0.986145,-0.013000488,-0.375,0.09375,0.265625,697
661,1696244800547,0.044921875,-0.97003174,-0.020812988,-0.4375,0.359375,0.21875,698
662,1696244800587,0.04272461,-0.986145,-0.008361816,0.546875,-0.625,0.609375,699
663,1696244800627,0.041259766,-0.97735596,-0.008605957,0.1875,-0.015625,0.0625,700
664,1696244800667,0.052490234,-0.98272705,-0.032043457,-0.09375,-0.46875,0.578125,701
665,1696244800707,0.043701172,-0.97662354,-0.014953613,-0.28125,0.03125,0.015625,702
666,1696244800747,0.041503906,-1.00177,-0.02154541,-0.015625,-0.734375,0.40625,703
667,1696244800787,0.044677734,-0.9846802,-0.01739502,-0.421875,-0.453125,0.09375,704
668,1696244800827,0.031982422,-0.98931885,-0.0017700195,-0.125,-0.765625,0.703125,705
669,1696244800867,0.04248047,-0.97979736,-0.020080566,-0.796875,0.109375,0.171875,706
670,1696244800907,0.068847656,-0.98101807,-0.028625488,-0.703125,0.15625,-0.15625,707
671,1696244800947,0.044189453,-0.98760986,-0.016174316,-0.828125,-0.125,0.078125,708
672,1696244800987,0.04736328,-0.9920044,-0.0256958,-0.71875,0.109375,-0.28125,709
673,1696244801027,0.042236328,-0.989563,-0.015686035,-0.328125,-0.484375,-0.203125,710
674,1696244801067,0.02734375,-0.9854126,-0.015930176,-0.453125,-0.578125,0.1875,711
675,1696244801107,0.044921875,-0.9812622,-0.0134887695,-0.75,-0.546875,-0.03125,712
676,1696244801147,0.01953125,-0.97613525,-0.011779785,0.140625,-0.515625,0.296875,713
677,1696244801187,0.044677734,-0.9807739,0.006286621,0.4375,0.546875,0.078125,714
678,1696244801227,0.032958984,-0.9956665,-0.013000488,-0.28125,-0.3125,0.15625,715
679,1696244801267,0.044677734,-0.9907837,-0.0015258789,-0.3125,-0.484375,-0.25,716
680,1696244801307,0.03466797,-0.9898071,-0.011291504,-0.375,-0.96875,0.125,717
681,1696244801347,0.036865234,-0.9885864,-0.003967285,0.015625,-0.1875,0.453125,718
682,1696244801387,0.040283203,-0.97369385,-0.020812988,-0.359375,-0.125,-0.015625,719
683,1696244801427,0.03881836,-0.9795532,-0.0056762695,0.15625,-0.328125,0.125,720
684,1696244801467,0.039794922,-0.9824829,-0.008117676,0.125,-0.921875,0.46875,721
685,1696244801507,0.044433594,-0.9812622,-0.027893066,-0.859375,0.234375,-0.09375,722
686,1696244801547,0.028808594,-0.9846802,-0.0071411133,0.875,-0.625,0.40625,723
687,1696244801587,0.030273438,-1.0071411,-0.0134887695,0.0625,-0.578125,-0.265625,724
688,1696244801627,0.052001953,-0.9817505,-0.016662598,0.03125,0.0,-0.171875,725
689,1696244801667,0.027832031,-0.989563,-0.015197754,-0.171875,-0.703125,0.203125,726
690,1696244801707,0.03540039,-0.98760986,-0.016174316,-0.53125,-0.296875,-0.015625,727
691,1696244801747,0.049560547,-0.9902954,-0.020812988,-0.703125,-0.46875,0.03125,728
692,1696244801787,0.041992188,-0.9788208,-0.012268066,-0.46875,-0.140625,0.328125,729
693,1696244801827,0.040283203,-0.97442627,-0.012023926,-0.4375,-0.15625,-0.125,730
694,1696244801867,0.032958984,-0.97613525,-0.015197754,-0.078125,-0.25,0.046875,731
695,1696244801907,0.040283203,-0.989563,-0.013000488,0.25,-0.578125,0.078125,732
696,1696244801947,0.036376953,-0.9902954,-0.012023926,0.03125,-0.71875,-0.09375,733
697,1696244801987,0.028320312,-0.987854,-0.008605957,0.53125,-0.921875,0.09375,734
698,1696244802027,0.03466797,-0.99053955,-0.0005493164,0.28125,-0.71875,-0.203125,735
699,1696244802067,0.04345703,-0.99420166,-0.0015258789,-0.125,-2.0625,0.21875,736
700,1696244802107,0.030517578,-0.9902954,-0.0049438477,-0.828125,-4.328125,0.03125,737
701,1696244802147,0.01586914,-0.97613525,-0.008117676,-2.0625,-2.15625,0.5,738
702,1696244802187,0.017578125,-0.97735596,0.005554199,-2.5,-1.046875,0.3125,739
703,1696244802227,0.040283203,-0.99224854,0.0045776367,-2.90625,-0.546875,-0.453125,740
704,1696244802267,0.040039062,-0.98565674,-0.019104004,-2.375,-0.984375,0.03125,741
705,1696244802307,0.040283203,-0.97784424,-0.0071411133,-1.453125,-0.265625,0.015625,742
706,1696244802347,0.05419922,-0.98687744,-0.006652832,-0.375,-0.484375,0.34375,743
707,1696244802387,0.044921875,-0.9788208,-0.0134887695,0.203125,0.1875,-0.453125,744
708,1696244802427,0.025634766,-0.9956665,0.00579834,1.515625,-1.453125,0.40625,745
709,1696244802467,0.037597656,-0.96954346,0.0014038086,1.109375,-0.671875,-0.71875,746
710,1696244802507,0.03564453,-0.98516846,0.00018310547,1.078125,-2.03125,0.21875,747
711,1696244802547,0.031982422,-0.9727173,0.001159668,0.234375,-1.390625,-0.296875,748
712,1696244802587,0.032958984,-0.9717407,-0.00030517578,-0.40625,-0.921875,-0.328125,749
713,1696244802627,0.024414062,-0.99591064,0.0026245117,0.09375,-1.90625,0.296875,750
714,1696244802667,0.037109375,-0.9898071,0.0072631836,-0.203125,-1.46875,-0.140625,751
715,1696244802707,0.025390625,-0.9976196,0.005065918,-0.109375,-1.03125,0.15625,752
716,1696244802747,0.017822266,-1.0027466,-0.003967285,-0.328125,-0.875,0.3125,753
717,1696244802787,0.033691406,-0.9890747,0.008972168,-0.328125,-0.3125,0.078125,754
718,1696244802827,0.026123047,-0.9817505,0.0053100586,0.046875,-0.328125,-0.09375,755
719,1696244802867,0.025146484,-0.975647,0.011657715,-0.171875,-0.515625,0.265625,756
720,1696244802907,0.03491211,-0.9859009,-0.0076293945,0.109375,-0.890625,0.125,757
721,1696244802947,0.03955078,-0.9849243,0.017028809,0.640625,-0.828125,0.328125,758
722,1696244802987,0.038085938,-0.986145,-0.020568848,-1.375,0.09375,0.3125,759
723,1696244803027,0.045410156,-0.9746704,0.0053100586,0.015625,-0.15625,-0.359375,760
724,1696244803067,0.018066406,-1.0081177,0.010925293,0.796875,-1.515625,0.234375,761
725,1696244803107,0.032714844,-0.9746704,0.0060424805,0.1875,-0.59375,0.09375,762
726,1696244803147,0.02368164,-0.99053955,0.008483887,0.28125,-0.890625,0.15625,763
727,1696244803187,0.019042969,-0.98809814,-0.0032348633,-0.25,-0.5,0.09375,764
728,1696244803227,0.040283203,-0.9898071,-0.004211426,-0.390625,-0.265625,-0.015625,765
729,1696244803267,0.030517578,-0.9937134,-0.010559082,-0.46875,-0.125,0.078125,766
730,1696244803307,0.02734375,-0.98565674,0.011413574,0.46875,-0.140625,0.171875,767
731,1696244803347,0.01928711,-0.9927368,0.00579834,0.078125,-0.0625,0.453125,768
732,1696244803387,0.03540039,-0.9793091,0.0036010742,-0.15625,0.015625,0.109375,769
733,1696244803427,0.028564453,-0.9829712,0.00018310547,0.03125,-0.546875,0.375,770
734,1696244803467,0.030517578,-0.9854126,0.00579834,-0.265625,-0.484375,0.65625,771
735,1696244803507,0.037841797,-0.98272705,0.0028686523,-0.015625,-0.25,0.28125,772
736,1696244803547,0.024902344,-0.9885864,-0.0022583008,-0.078125,-0.25,0.21875,773
737,1696244803587,0.022949219,-0.9898071,0.00579834,0.125,-0.5,0.265625,774
738,1696244803627,0.027832031,-0.9890747,0.011169434,0.5625,-0.6875,0.28125,775
739,1696244803667,0.036865234,-0.98565674,-0.012512207,-0.84375,0.59375,-0.03125,776
740,1696244803707,0.028320312,-0.9817505,0.007019043,0.46875,-0.078125,0.046875,777
741,1696244803747,0.017333984,-0.9927368,0.0021362305,0.1875,-0.375,-0.015625,778
742,1696244803787,0.032470703,-0.9866333,0.0006713867,0.40625,-0.15625,0.265625,779
743,1696244803827,0.031982422,-0.987854,0.00091552734,0.015625,-0.015625,0.09375,780
744,1696244803867,0.026611328,-0.9800415,-0.006652832,-0.328125,-0.15625,-0.171875,781
745,1696244803907,0.03515625,-0.99053955,-0.0051879883,-0.1875,-0.390625,0.21875,782
746,1696244803947,0.03466797,-0.97857666,-0.0025024414,-0.328125,-0.75,-0.296875,783
747,1696244803987,0.02734375,-0.99053955,0.0014038086,-0.140625,-0.84375,0.1875,784
748,1696244804027,0.029541016,-0.99053955,0.0014038086,-0.296875,-0.765625,0.265625,785
749,1696244804067,0.030761719,-0.98565674,0.00018310547,0.1875,-0.234375,0.265625,786
750,1696244804107,0.02758789,-0.9854126,0.0048217773,0.171875,-0.265625,0.046875,787
751,1696244804147,0.029541016,-0.9871216,0.005065918,0.171875,-0.046875,0.171875,788
752,1696244804187,0.03564453,-0.986145,0.002380371,0.140625,-0.078125,0.25,789
753,1696244804227,0.02319336,-0.98321533,0.0026245117,0.046875,-0.46875,0.390625,790
754,1696244804267,0.024169922,-0.9973755,-0.0029907227,0.265625,-0.453125,0.5625,791
755,1696244804307,0.022705078,-0.98223877,0.022399902,0.5625,-0.171875,0.484375,792
756,1696244804347,0.028320312,-0.9915161,-0.0071411133,-0.34375,-1.1875,0.96875,793
757,1696244804387,0.037353516,-0.9807739,0.0004272461,-0.265625,-2.125,-0.046875,794
758,1696244804427,0.0061035156,-0.9927368,0.007751465,-0.921875,-3.21875,0.984375,795
759,1696244804467,0.029296875,-1.0025024,0.0053100586,-1.546875,-1.03125,0.84375,796
