,timestamp,accel_x,accel_y,accel_z,gyro_x,gyro_y,gyro_z,ind
0,1696247866274,-0.029052734,-0.95513916,0.024841309,3.03125,0.046875,-0.25,60
1,1696247866314,-0.051757812,-0.96466064,0.028747559,2.375,-1.265625,-0.53125,61
2,1696247866354,0.027832031,-0.9939575,-0.008117676,-1.375,-1.765625,-2.328125,62
3,1696247866394,-0.018066406,-0.9690552,0.035583496,0.40625,-3.09375,-0.09375,63
4,1696247866434,-0.011962891,-1.0230103,0.06414795,0.140625,-2.46875,0.359375,64
5,1696247866474,-0.033203125,-1.0037231,0.04949951,-1.75,-2.453125,1.640625,65
6,1696247866514,-0.061035156,-1.0239868,0.061462402,5.484375,3.96875,6.25,66
7,1696247866554,-0.08642578,-0.9920044,-0.033996582,1.59375,-1.484375,-0.984375,67
8,1696247866594,0.059326172,-0.94488525,-0.03326416,1.546875,0.890625,-5.828125,68
9,1696247866634,0.013427734,-0.9771118,-0.012512207,2.34375,-2.90625,0.59375,69
10,1696247866674,-0.07739258,-0.98931885,-0.054992676,1.234375,-1.484375,1.3125,70
11,1696247866714,0.115234375,-0.96051025,-0.004211426,-2.390625,13.375,1.359375,71
12,1696247866754,-0.096191406,-1.00177,0.11517334,3.9375,4.234375,7.9375,72
13,1696247866794,-0.07519531,-1.0481567,0.026062012,-4.265625,0.828125,2.734375,73
14,1696247866834,-0.008544922,-0.9109497,-0.023254395,-1.171875,0.875,-1.15625,74
15,1696247866874,0.03125,-0.9458618,0.022155762,-3.234375,3.46875,-2.09375,75
16,1696247866914,-0.030029297,-0.9951782,0.04827881,1.734375,1.046875,1.796875,76
17,1696247866954,-0.020263672,-1.0518188,0.023376465,-1.890625,-5.25,-2.59375,77
18,1696247866994,0.0041503906,-0.9585571,-0.031066895,-0.53125,5.828125,0.578125,78
19,1696247867034,-0.014892578,-0.9458618,0.034362793,1.15625,-0.578125,3.71875,79
20,1696247867074,-0.088134766,-1.0164185,0.023620605,0.5625,-2.4375,-1.28125,80
21,1696247867114,0.05126953,-0.98150635,0.015563965,-1.984375,2.234375,-1.078125,81
22,1696247867154,-0.030273438,-0.95391846,0.051696777,1.65625,-3.46875,1.90625,82
23,1696247867194,-0.048095703,-1.0217896,0.014099121,-0.03125,-6.015625,0.5625,83
24,1696247867234,-0.0034179688,-0.97442627,-6.1035156e-05,-0.078125,-4.203125,-2.78125,84
25,1696247867274,0.040039062,-0.98565674,0.019226074,2.515625,-3.09375,0.78125,85
26,1696247867314,-0.01953125,-0.9902954,-0.004211426,0.34375,-3.28125,1.515625,86
27,1696247867354,-0.0390625,-0.9927368,0.024108887,1.578125,0.234375,0.8125,87
28,1696247867394,-0.072265625,-1.0161743,0.04827881,0.015625,0.109375,2.078125,88
29,1696247867434,0.009765625,-0.9812622,0.0038452148,-0.90625,0.3125,-1.28125,89
30,1696247867474,0.017333984,-0.96539307,0.010192871,1.84375,-1.390625,-0.125,90
31,1696247867514,-0.043945312,-1.0112915,0.011169434,-1.1875,-1.390625,0.6875,91
32,1696247867554,0.012939453,-0.975647,0.027770996,-3.328125,1.265625,0.734375,92
33,1696247867594,-0.053222656,-0.97003174,0.105651855,-1.453125,-1.3125,2.453125,93
34,1696247867634,0.0007324219,-1.0125122,-0.024230957,1.390625,-4.25,2.03125,94
35,1696247867674,-0.06713867,-0.9680786,0.024841309,3.453125,-0.6875,-5.9375,95
36,1696247867714,0.044921875,-0.95391846,-0.019104004,-1.671875,2.75,-4.484375,96
37,1696247867754,0.028320312,-0.956604,0.0045776367,0.625,-1.453125,1.515625,97
38,1696247867794,-0.057373047,-1.0291138,-0.019348145,1.765625,-1.234375,-1.453125,98
39,1696247867834,0.053710938,-1.0078735,0.015075684,-4.453125,3.234375,1.53125,99
40,1696247867874,-0.09008789,-0.9771118,0.04901123,3.9375,-2.109375,4.203125,100
41,1696247867914,-0.043945312,-1.0444946,-0.002746582,-1.8125,-1.296875,-1.40625,101
42,1696247867954,0.026123047,-0.94317627,-0.012756348,-2.640625,0.015625,-1.765625,102
43,1696247867994,-0.00024414062,-0.94659424,0.008728027,-2.65625,-1.546875,-1.875,103
44,1696247868034,0.032714844,-0.9939575,0.013122559,-1.5625,-2.796875,0.125,104
45,1696247868074,-0.057617188,-1.0149536,0.08660889,1.28125,-2.125,1.59375,105
46,1696247868114,-0.06542969,-1.076477,0.019958496,0.0625,-4.5,0.5625,106
47,1696247868154,0.014404297,-0.991272,-0.004699707,1.828125,-3.765625,1.546875,107
48,1696247868194,-0.06225586,-0.9209595,-0.014221191,0.390625,-1.484375,-2.078125,108
49,1696247868234,0.026367188,-0.97540283,-0.046203613,-2.859375,5.234375,-1.6875,109
50,1696247868274,0.08154297,-0.92266846,-0.039611816,-3.703125,14.78125,1.71875,110
51,1696247868314,-0.07006836,-1.0484009,0.0770874,4.0,4.125,3.75,111
52,1696247868354,-0.03149414,-1.1062622,0.11126709,-4.46875,1.421875,1.375,112
53,1696247868394,-0.057128906,-0.9077759,-0.022277832,-1.21875,0.265625,1.953125,113
54,1696247868434,0.0014648438,-0.9529419,0.022888184,-1.671875,7.21875,-2.84375,114
55,1696247868474,-0.0107421875,-0.96710205,0.08538818,-0.328125,-0.921875,-1.171875,115
56,1696247868514,-0.072753906,-1.0437622,0.09881592,-1.046875,-5.515625,-2.078125,116
57,1696247868554,0.026611328,-1.0586548,-0.051330566,-1.09375,-0.984375,-1.625,117
58,1696247868594,0.014892578,-0.9194946,0.023132324,0.453125,3.265625,2.921875,118
59,1696247868634,-0.056396484,-0.9849243,0.06512451,4.359375,-2.609375,0.796875,119
60,1696247868674,-0.0063476562,-1.0361938,0.010925293,-0.671875,-1.65625,-1.640625,120
61,1696247868714,0.011230469,-0.9265747,0.016052246,-2.15625,0.390625,0.28125,121
62,1696247868754,-0.068359375,-0.99053955,0.078308105,3.6875,-5.5,1.125,122
63,1696247868794,-0.050048828,-1.0703735,-0.0032348633,1.015625,-6.171875,-0.296875,123
64,1696247868834,0.011962891,-0.9697876,0.0065307617,1.421875,0.984375,-0.0625,124
65,1696247868874,-0.009277344,-0.989563,-0.0025024414,2.5,-2.671875,1.296875,125
66,1696247868914,-0.036865234,-1.019104,0.03363037,-1.21875,0.0,2.859375,126
67,1696247868954,-0.015625,-0.98565674,0.030700684,-1.25,-0.734375,1.078125,127
68,1696247868994,-0.025146484,-1.0093384,0.00970459,0.546875,-3.5625,1.0625,128
69,1696247869034,0.0146484375,-0.9590454,-0.014709473,1.15625,-0.359375,-0.734375,129
70,1696247869074,-0.022216797,-0.93707275,0.0036010742,2.703125,-0.96875,0.71875,130
71,1696247869114,-0.011474609,-1.0213013,0.023864746,-1.875,-0.28125,0.890625,131
72,1696247869154,0.03149414,-0.9546509,0.04559326,-0.078125,-0.171875,1.0625,132
73,1696247869194,-0.08862305,-1.0315552,0.06585693,2.6875,-3.921875,1.671875,133
74,1696247869234,0.009277344,-1.0632935,-0.020080566,-0.71875,-3.59375,2.125,134
75,1696247869274,-0.016845703,-0.91778564,-0.017150879,-1.015625,0.84375,-1.75,135
76,1696247869314,0.04296875,-0.99468994,-0.0025024414,2.6875,-0.171875,-2.0,136
77,1696247869354,-0.0029296875,-0.9805298,-0.0020141602,1.203125,-1.875,2.046875,137
78,1696247869394,-0.02319336,-0.9336548,0.023864746,1.75,0.453125,1.65625,138
79,1696247869434,0.001953125,-1.0044556,-0.019836426,1.71875,-1.375,0.640625,139
80,1696247869474,-0.0078125,-0.9998169,-0.0115356445,1.0,1.875,1.65625,140
81,1696247869514,0.020263672,-0.93756104,0.016052246,-1.59375,2.28125,1.421875,141
82,1696247869554,-0.03466797,-1.0286255,0.035827637,1.3125,-3.9375,1.015625,142
83,1696247869594,-0.0061035156,-1.0298462,-0.020080566,0.125,0.234375,-0.71875,143
84,1696247869634,-0.0007324219,-0.9319458,-0.025939941,-1.65625,1.46875,1.125,144
85,1696247869674,0.020996094,-0.99664307,0.016540527,-1.25,-0.28125,1.34375,145
86,1696247869714,-0.009765625,-1.0049438,0.046081543,1.0625,-1.015625,1.234375,146
87,1696247869754,0.0053710938,-1.0325317,0.0211792,0.015625,-4.71875,-0.859375,147
88,1696247869794,-0.0075683594,-0.97076416,0.011413574,4.734375,-4.140625,1.109375,148
89,1696247869834,-0.053222656,-0.96417236,-6.1035156e-05,2.78125,-4.0,-1.046875,149
90,1696247869874,0.06933594,-0.95880127,-0.035705566,0.65625,0.578125,-3.59375,150
91,1696247869914,0.0107421875,-0.95806885,-0.046447754,-0.5,0.578125,2.515625,151
92,1696247869954,0.021484375,-0.98809814,0.06781006,3.140625,7.390625,1.078125,152
93,1696247869994,-0.03881836,-1.0540161,0.013122559,-1.828125,-1.734375,2.046875,153
94,1696247870034,-0.08251953,-0.9866333,0.031188965,-1.6875,-3.34375,-0.03125,154
95,1696247870074,0.017333984,-0.97076416,-0.04888916,-1.359375,-0.4375,-1.859375,155
96,1696247870114,0.017822266,-0.9212036,-0.030822754,-1.984375,-2.015625,-0.71875,156
97,1696247870154,0.033203125,-0.97735596,-0.014465332,2.0625,-1.546875,-0.703125,157
98,1696247870194,-0.018066406,-1.0335083,0.07904053,-0.703125,-1.1875,3.3125,158
99,1696247870234,-0.051757812,-1.0564575,-0.011291504,-2.203125,-2.15625,-1.984375,159
100,1696247870274,0.03125,-0.93170166,-0.008361816,0.640625,0.125,1.875,160
101,1696247870314,-0.025634766,-0.925354,-0.058898926,3.046875,-3.703125,-1.8125,161
102,1696247870354,0.05102539,-0.95880127,-0.035949707,7.125,-3.6875,-2.03125,162
103,1696247870394,0.011474609,-0.9937134,-0.015930176,-0.984375,3.625,1.5,163
104,1696247870434,-0.005126953,-0.97052,-0.042053223,-4.578125,9.75,2.71875,164
105,1696247870474,0.011474609,-1.0361938,0.043640137,-1.734375,2.671875,3.3125,165
106,1696247870514,-0.067871094,-1.0886841,0.032409668,-5.53125,0.90625,0.28125,166
107,1696247870554,0.005126953,-0.9590454,-0.042053223,-4.703125,3.625,-3.0,167
108,1696247870594,0.055908203,-0.9194946,0.00091552734,-4.609375,6.265625,-1.765625,168
109,1696247870634,-0.036865234,-0.95806885,-0.014709473,0.546875,1.453125,-0.375,169
110,1696247870674,0.010253906,-1.0791626,0.08807373,-2.046875,-4.140625,-1.375,170
111,1696247870714,-0.022460938,-0.96221924,-0.06500244,0.625,-2.1875,-0.09375,171
112,1696247870754,-0.028076172,-0.9258423,0.01361084,1.796875,1.484375,1.359375,172
113,1696247870794,0.0017089844,-0.9968872,0.0006713867,0.484375,0.34375,0.03125,173
114,1696247870834,-0.024169922,-1.0315552,0.038513184,1.5,-3.796875,-0.90625,174
115,1696247870874,-0.008544922,-1.0044556,0.015563965,-1.421875,-1.609375,-2.390625,175
116,1696247870914,0.0043945312,-0.9951782,0.008972168,1.46875,-2.828125,2.140625,176
117,1696247870954,-0.03930664,-0.989563,-0.023498535,1.953125,-0.53125,0.46875,177
118,1696247870994,0.010009766,-0.95977783,-0.010314941,0.65625,-1.640625,0.3125,178
119,1696247871034,-0.009033203,-0.9727173,0.03363037,-1.03125,0.75,0.609375,179
120,1696247871074,-0.020507812,-0.99713135,0.046569824,0.65625,-0.53125,1.1875,180
121,1696247871114,-0.024658203,-1.0405884,-0.006164551,-0.15625,-3.1875,0.609375,181
122,1696247871154,0.021240234,-0.96661377,-0.014221191,2.28125,-0.5625,-1.4375,182
123,1696247871194,-0.010986328,-0.97784424,-0.010559082,3.1875,-1.53125,1.84375,183
124,1696247871234,0.014892578,-1.0090942,-0.005432129,-0.96875,0.15625,0.5,184
125,1696247871274,-0.0063476562,-0.9727173,0.019226074,0.59375,-1.578125,0.78125,185
126,1696247871314,-0.03930664,-1.0144653,0.020446777,1.875,-2.65625,1.859375,186
127,1696247871354,0.025878906,-0.9690552,-0.0017700195,2.125,-0.15625,0.4375,187
128,1696247871394,-0.0031738281,-0.93536377,-0.04425049,0.890625,0.078125,1.515625,188
129,1696247871434,0.040283203,-1.0081177,0.0079956055,-3.421875,1.453125,0.84375,189
130,1696247871474,-0.033691406,-0.9729614,-0.007873535,-0.765625,-0.5,0.71875,190
131,1696247871514,-0.032714844,-1.0286255,0.03265381,1.453125,-1.21875,0.921875,191
132,1696247871554,0.033203125,-1.0056763,-0.016174316,-0.1875,-2.609375,-0.296875,192
133,1696247871594,-0.044189453,-0.94195557,-0.021057129,2.640625,-2.78125,1.875,193
134,1696247871634,-0.0126953125,-1.005188,0.014343262,-2.203125,2.765625,0.5,194
135,1696247871674,0.09082031,-0.9973755,-0.00079345703,-0.328125,1.890625,0.625,195
136,1696247871714,-0.01977539,-0.9963989,0.0138549805,1.09375,-3.59375,2.59375,196
137,1696247871754,0.014404297,-1.0061646,-0.05328369,1.53125,-1.34375,-0.59375,197
138,1696247871794,0.0053710938,-0.90753174,-0.03277588,-1.3125,3.484375,1.671875,198
139,1696247871834,0.025390625,-0.9714966,0.036315918,-0.65625,0.71875,-0.421875,199
140,1696247871874,-0.020507812,-1.0071411,0.04168701,1.53125,-0.109375,0.515625,200
141,1696247871914,-0.00024414062,-1.0425415,-0.016662598,-2.15625,-3.234375,-0.6875,201
142,1696247871954,0.033935547,-0.9429321,-0.033996582,2.359375,0.328125,0.90625,202
143,1696247871994,0.0012207031,-0.96954346,-0.089416504,-2.765625,0.234375,-2.75,203
144,1696247872034,0.029785156,-0.97906494,0.032165527,-3.96875,0.90625,-0.984375,204
145,1696247872074,0.021728516,-0.99713135,0.08709717,-0.265625,0.890625,0.109375,205
146,1696247872114,-0.03857422,-1.05719,0.022399902,0.15625,-8.984375,1.03125,206
147,1696247872154,-0.020507812,-0.9319458,0.078308105,1.953125,-9.09375,4.03125,207
148,1696247872194,-0.053466797,-1.0220337,-0.033996582,5.796875,-1.953125,-0.53125,208
149,1696247872234,0.046875,-0.9338989,-0.13873291,-4.796875,-0.84375,-5.625,209
150,1696247872274,0.0063476562,-0.92193604,-0.04498291,1.234375,7.71875,0.953125,210
151,1696247872314,0.08178711,-0.89508057,-0.074523926,-0.3125,12.140625,0.390625,211
152,1696247872354,-0.06518555,-1.0872192,0.07537842,3.640625,5.96875,3.3125,212
153,1696247872394,0.03173828,-1.1445923,0.22454834,-6.25,-2.75,-3.609375,213
154,1696247872434,-0.09472656,-0.9109497,-0.032287598,-0.703125,-4.328125,2.796875,214
155,1696247872474,-0.013427734,-0.93756104,-0.0015258789,1.609375,-0.25,-3.046875,215
156,1696247872514,0.03930664,-0.9631958,-0.06060791,-6.265625,9.53125,-2.578125,216
157,1696247872554,0.0107421875,-0.9492798,0.042419434,0.65625,5.71875,2.765625,217
158,1696247872594,-0.011230469,-1.1226196,0.1828003,-1.703125,-6.1875,-1.640625,218
159,1696247872634,0.030273438,-1.0120239,-0.070373535,-3.46875,-2.75,-0.640625,219
160,1696247872674,-0.0146484375,-0.8909302,0.0368042,3.65625,-3.453125,0.9375,220
161,1696247872714,-0.07885742,-0.9529419,-0.02911377,-2.84375,5.484375,-0.625,221
162,1696247872754,0.020507812,-1.0127563,0.117614746,-1.421875,-3.296875,-0.46875,222
163,1696247872794,-0.076660156,-1.0623169,0.0079956055,-0.671875,-3.078125,-1.0625,223
164,1696247872834,0.014892578,-0.97857666,0.021911621,-5.296875,-5.34375,-0.609375,224
165,1696247872874,-0.0043945312,-0.8777466,-0.0178833,4.25,-4.640625,-2.125,225
166,1696247872914,-0.01586914,-0.9927368,0.008728027,2.5625,-1.890625,1.578125,226
167,1696247872954,0.030517578,-1.0137329,0.046081543,-3.953125,2.671875,0.078125,227
168,1696247872994,-0.0073242188,-0.9866333,0.08905029,2.75,-5.125,-0.796875,228
169,1696247873034,-0.061523438,-1.05719,0.025817871,1.015625,-2.71875,1.203125,229
170,1696247873074,0.015136719,-0.9685669,0.001159668,0.15625,0.0,-1.03125,230
171,1696247873114,-0.039794922,-0.9170532,0.011657715,1.53125,1.140625,2.6875,231
172,1696247873154,0.00024414062,-1.0095825,0.04071045,-1.9375,0.90625,0.375,232
173,1696247873194,-0.072265625,-0.9949341,0.062683105,0.9375,-0.65625,-0.546875,233
174,1696247873234,0.011230469,-0.97857666,0.0018920898,-0.703125,-1.625,-0.21875,234
175,1696247873274,0.0029296875,-0.9680786,-0.015930176,2.453125,-0.9375,0.703125,235
176,1696247873314,-0.036376953,-0.99957275,-0.0005493164,-1.640625,5.53125,-0.25,236
177,1696247873354,0.028076172,-1.0071411,0.054626465,-2.984375,2.875,-0.3125,237
178,1696247873394,-0.043701172,-0.98028564,0.08294678,0.625,-1.1875,-0.78125,238
179,1696247873434,0.0146484375,-1.0835571,0.015563965,-1.484375,-6.953125,-0.8125,239
180,1696247873474,-0.021728516,-0.94903564,0.0927124,-1.1875,-5.84375,0.078125,240
181,1696247873514,-0.07861328,-1.0010376,-0.070373535,5.0625,-3.453125,1.203125,241
182,1696247873554,0.029541016,-0.94659424,-0.032043457,-3.1875,-0.015625,-3.796875,242
183,1696247873594,0.00024414062,-0.9380493,-0.022033691,-0.921875,2.21875,-1.0,243
184,1696247873634,0.03857422,-1.0286255,0.05633545,2.734375,1.03125,3.21875,244
185,1696247873674,-0.1015625,-1.0791626,0.137146,1.59375,-3.578125,-0.03125,245
186,1696247873714,-0.0073242188,-0.940979,-0.02545166,-1.90625,-1.53125,0.40625,246
187,1696247873754,-0.068115234,-0.9380493,-0.00030517578,-0.015625,0.890625,0.109375,247
188,1696247873794,-0.0012207031,-1.0596313,0.020690918,-10.390625,8.609375,-0.359375,248
189,1696247873834,-0.0075683594,-0.91412354,0.026062012,-2.75,6.78125,0.375,249
190,1696247873874,-0.025878906,-1.0442505,0.13763428,-0.15625,-3.328125,-0.078125,250
191,1696247873914,-0.031982422,-1.0498657,0.05706787,0.40625,-9.453125,-1.109375,251
192,1696247873954,-0.0234375,-0.94000244,-0.03717041,4.140625,-2.328125,1.5625,252
193,1696247873994,0.0,-0.91973877,-0.04058838,-1.9375,-1.078125,-2.84375,253
194,1696247874034,-0.018310547,-1.0750122,0.046081543,-3.25,11.171875,-0.3125,254
195,1696247874074,0.06689453,-0.9612427,0.1149292,2.890625,4.796875,1.1875,255
196,1696247874114,-0.10986328,-1.1008911,0.08709717,-5.734375,-5.5625,3.34375,256
197,1696247874154,-0.049072266,-1.0339966,0.0927124,-6.5625,-10.5625,-3.15625,257
198,1696247874194,-0.026611328,-0.91412354,0.054138184,0.828125,-9.453125,0.828125,258
199,1696247874234,-0.104003906,-0.9067993,-0.0022583008,-0.5,-5.4375,0.875,259
200,1696247874274,0.05444336,-0.98150635,-0.08062744,4.65625,-1.828125,-4.265625,260
201,1696247874314,-0.0703125,-1.0877075,0.00970459,-0.71875,9.78125,2.875,261
202,1696247874354,0.13061523,-0.9470825,0.14886475,3.484375,6.4375,2.453125,262
203,1696247874394,-0.10424805,-1.1328735,0.078552246,-5.734375,-8.1875,3.09375,263
204,1696247874434,-0.1081543,-1.0422974,0.1305542,-1.09375,-9.15625,-2.71875,264
205,1696247874474,-0.022216797,-0.9331665,0.08465576,0.15625,-8.796875,2.59375,265
206,1696247874514,-0.12084961,-0.94317627,0.026062012,-2.640625,-7.640625,-1.453125,266
207,1696247874554,0.051513672,-0.95880127,-0.05670166,2.625,0.203125,-3.109375,267
208,1696247874594,0.048583984,-1.0327759,-0.11529541,-1.140625,15.078125,2.03125,268
209,1696247874634,0.031982422,-0.9048462,0.1071167,14.546875,12.53125,4.53125,269
210,1696247874674,-0.052978516,-1.1487427,0.15350342,0.375,9.0,1.609375,270
211,1696247874714,0.028076172,-1.0283813,0.054870605,-10.34375,-9.046875,-1.125,271
212,1696247874754,-0.14672852,-0.8389282,0.0067749023,-1.9375,-3.25,2.8125,272
213,1696247874794,-0.017578125,-0.9854126,-0.014709473,-0.625,3.59375,-3.515625,273
214,1696247874834,-0.01928711,-0.9031372,0.04486084,-0.890625,10.03125,0.140625,274
215,1696247874874,-0.013183594,-1.015686,0.199646,7.71875,4.46875,1.71875,275
216,1696247874914,-0.020996094,-1.0733032,-0.07672119,-2.8125,-7.09375,1.375,276
217,1696247874954,-0.0063476562,-0.9656372,-0.02154541,-1.0,4.953125,1.03125,277
218,1696247874994,0.018066406,-0.8899536,0.08050537,0.609375,3.734375,2.1875,278
219,1696247875034,-0.038330078,-1.0623169,0.09613037,0.625,-2.21875,1.125,279
220,1696247875074,-0.006591797,-1.08844,-0.0010375977,-0.625,-5.125,-2.21875,280
221,1696247875114,-0.012939453,-0.9378052,0.012390137,-3.0,2.015625,0.265625,281
222,1696247875154,0.015625,-0.9146118,0.085876465,0.78125,-1.125,1.703125,282
223,1696247875194,-0.045654297,-1.0413208,0.03265381,1.96875,-5.40625,-0.515625,283
224,1696247875234,0.013916016,-0.9324341,0.029724121,2.84375,-1.796875,0.125,284
225,1696247875274,-0.02368164,-0.9380493,0.03363037,4.65625,-4.546875,2.046875,285
226,1696247875314,-0.009033203,-1.0620728,0.018493652,-1.28125,3.8125,1.171875,286
227,1696247875354,-0.006591797,-0.98394775,0.06732178,-4.359375,6.4375,3.15625,287
228,1696247875394,-0.06713867,-0.987854,0.055847168,0.984375,-2.0,2.046875,288
229,1696247875434,-0.0029296875,-1.0510864,0.0048217773,1.78125,0.859375,0.046875,289
230,1696247875474,-0.008544922,-0.9326782,0.008239746,-1.703125,-1.25,0.921875,290
231,1696247875514,0.01928711,-0.96954346,0.055114746,-0.984375,-0.796875,0.453125,291
232,1696247875554,0.0390625,-0.9998169,-0.02545166,-2.328125,-0.890625,-2.234375,292
233,1696247875594,0.037353516,-0.9573364,0.007019043,-0.453125,-1.75,-1.015625,293
234,1696247875634,-0.01953125,-0.97003174,0.054138184,-2.015625,0.34375,-0.3125,294
235,1696247875674,-0.026367188,-1.0029907,0.04119873,0.015625,-2.484375,-0.28125,295
236,1696247875714,0.012207031,-1.0181274,0.03265381,0.234375,-2.296875,-1.828125,296
237,1696247875754,-0.041992188,-0.9680786,0.073913574,-0.46875,-2.109375,-0.265625,297
238,1696247875794,-0.06298828,-1.03302,0.030944824,0.84375,-2.15625,-0.875,298
239,1696247875834,0.028320312,-1.006897,0.032165527,-2.140625,2.390625,-2.703125,299
240,1696247875874,0.008056641,-0.9368286,0.048034668,-0.171875,-1.203125,0.046875,300
241,1696247875914,-0.02709961,-0.97979736,0.042663574,0.28125,-2.078125,-0.171875,301
242,1696247875954,-0.02709961,-1.017395,0.043884277,-1.03125,-0.75,-1.28125,302
243,1696247875994,-0.024414062,-0.9529419,0.03778076,-2.765625,1.875,-0.40625,303
244,1696247876034,-0.012451172,-0.9873657,0.08734131,-1.390625,2.21875,0.546875,304
245,1696247876074,-0.053710938,-1.0083618,0.0045776367,-0.59375,-0.84375,-1.65625,305
246,1696247876114,-0.0087890625,-1.0012817,0.019958496,-2.71875,6.640625,0.03125,306
247,1696247876154,-0.0126953125,-0.9668579,0.09857178,-1.9375,4.078125,2.109375,307
248,1696247876194,-0.04248047,-1.0396118,0.13372803,-4.921875,-3.171875,-0.625,308
249,1696247876234,0.008300781,-1.0176392,-0.043029785,-4.296875,-3.21875,-3.90625,309
250,1696247876274,0.0024414062,-0.9619751,0.085876465,3.453125,-2.25,-0.0625,310
251,1696247876314,-0.10058594,-0.9907837,0.047058105,1.84375,-1.59375,-1.53125,311
252,1696247876354,0.027832031,-0.954895,0.13665771,-3.609375,2.84375,-0.734375,312
253,1696247876394,-0.0637207,-0.97613525,0.020935059,3.171875,-5.421875,0.3125,313
254,1696247876434,-0.04711914,-1.0098267,0.09979248,0.078125,-1.390625,-4.25,314
255,1696247876474,0.0078125,-0.95318604,0.023620605,1.953125,-1.796875,-2.25,315
256,1696247876514,-0.040283203,-0.97125244,0.06781006,2.828125,-4.75,1.984375,316
257,1696247876554,-0.08203125,-1.055481,0.03656006,0.109375,2.140625,0.875,317
258,1696247876594,-0.0056152344,-0.9727173,0.0680542,-0.390625,0.578125,-0.3125,318
259,1696247876634,-0.072265625,-1.0054321,0.06707764,1.9375,-0.46875,2.140625,319
260,1696247876674,-0.030761719,-1.0276489,0.053649902,1.125,-1.296875,-0.609375,320
261,1696247876714,-0.06274414,-0.9439087,0.047058105,0.953125,-1.28125,1.5625,321
262,1696247876754,-0.026123047,-0.9561157,0.01361084,0.21875,2.015625,1.65625,322
263,1696247876794,0.0041503906,-1.0159302,0.07684326,-1.875,4.015625,2.78125,323
264,1696247876834,-0.079589844,-0.9595337,0.1005249,1.03125,-2.859375,-0.203125,324
265,1696247876874,-0.059326172,-1.005188,0.0692749,1.9375,-3.6875,1.171875,325
266,1696247876914,-0.0075683594,-0.986145,0.030944824,2.125,-2.953125,-0.421875,326
267,1696247876954,-0.0078125,-0.9976196,0.0368042,0.71875,-0.640625,1.0,327
268,1696247876994,-0.016845703,-1.0210571,0.043884277,-1.71875,3.265625,3.1875,328
269,1696247877034,-0.045654297,-0.99224854,0.101989746,-0.21875,-1.1875,1.359375,329
270,1696247877074,-0.045410156,-0.98687744,0.03289795,0.359375,-3.28125,1.421875,330
271,1696247877114,-0.012451172,-0.9985962,0.124694824,0.671875,-3.703125,1.96875,331
272,1696247877154,0.0029296875,-0.94781494,0.09173584,-0.921875,-7.796875,2.5,332
273,1696247877194,-0.088378906,-1.0003052,-0.054504395,-0.796875,-3.0,-1.21875,333
274,1696247877234,-0.0007324219,-0.9429321,-0.025939941,-0.265625,1.5,-3.21875,334
275,1696247877274,0.029296875,-0.96661377,-0.057678223,3.078125,0.15625,2.03125,335
276,1696247877314,-0.018798828,-1.0806274,0.101989746,2.40625,2.9375,4.9375,336
277,1696247877354,-0.04663086,-1.0828247,0.085632324,-0.421875,-1.046875,0.40625,337
278,1696247877394,-0.028076172,-0.98223877,0.09539795,-3.03125,3.875,-1.765625,338
279,1696247877434,-0.0043945312,-0.9336548,0.024353027,-1.546875,-3.84375,2.6875,339
280,1696247877474,-0.05419922,-0.9451294,-0.02178955,2.046875,3.453125,-0.296875,340
281,1696247877514,0.013671875,-0.9812622,0.07904053,-5.453125,9.484375,1.578125,341
282,1696247877554,0.001953125,-0.928772,0.07171631,-1.765625,0.390625,1.03125,342
283,1696247877594,0.04296875,-1.0144653,0.031433105,-2.359375,-7.03125,-0.5,343
284,1696247877634,-0.017333984,-1.0061646,0.04437256,2.640625,-9.515625,-0.75,344
285,1696247877674,-0.087646484,-0.9429321,0.007751465,0.28125,-6.453125,-0.0625,345
286,1696247877714,-0.014892578,-1.0332642,0.023864746,1.875,3.1875,-0.390625,346
287,1696247877754,0.03930664,-1.038147,0.117370605,-1.953125,-2.078125,-0.25,347
288,1696247877794,-0.05053711,-0.9692993,0.09295654,2.59375,-4.5,2.75,348
289,1696247877834,-0.041748047,-1.0825806,0.14666748,-6.8125,-2.484375,3.796875,349
290,1696247877874,-0.018066406,-0.94610596,0.121032715,3.875,-4.734375,4.0,350
291,1696247877914,-0.016601562,-1.0532837,-0.03302002,-5.59375,0.34375,-2.984375,351
292,1696247877954,0.0024414062,-0.8467407,0.010681152,-4.296875,-1.75,-8.78125,352
293,1696247877994,0.099609375,-0.89434814,-0.117004395,7.0,-4.296875,1.109375,353
294,1696247878034,-0.1081543,-1.052063,0.089538574,9.765625,-4.03125,7.828125,354
295,1696247878074,0.025390625,-1.0640259,0.07684326,8.703125,9.78125,-1.828125,355
296,1696247878114,0.0026855469,-1.1272583,0.06488037,-5.453125,5.71875,3.078125,356
297,1696247878154,-0.07055664,-0.96221924,0.109802246,-1.90625,-4.328125,-3.25,357
298,1696247878194,-0.053222656,-0.9663696,0.0028686523,-5.765625,4.921875,-3.0,358
299,1696247878234,0.04272461,-0.8916626,0.030944824,-6.890625,5.984375,-3.265625,359
300,1696247878274,-0.044433594,-0.90411377,0.051208496,4.75,7.1875,2.421875,360
301,1696247878314,0.038330078,-1.1221313,0.1918335,3.09375,0.375,2.5625,361
302,1696247878354,-0.0847168,-1.0293579,0.04144287,3.015625,-2.25,0.671875,362
303,1696247878394,-0.0769043,-0.9390259,0.0026245117,-0.59375,1.03125,-0.40625,363
304,1696247878434,0.0021972656,-0.9614868,0.061950684,-1.96875,1.671875,-0.625,364
305,1696247878474,0.017089844,-1.0247192,0.0848999,1.90625,-0.546875,-1.375,365
306,1696247878514,-0.037109375,-1.062561,0.08758545,-1.453125,-4.125,0.3125,366
307,1696247878554,-0.024414062,-0.9507446,0.01751709,1.21875,-6.390625,2.703125,367
308,1696247878594,-0.028564453,-0.92510986,0.027282715,2.671875,-4.8125,0.265625,368
309,1696247878634,-0.028564453,-0.9841919,0.024841309,0.75,-1.09375,0.046875,369
310,1696247878674,0.007080078,-0.95758057,0.09295654,0.84375,-1.171875,1.5,370
311,1696247878714,-0.040283203,-1.0437622,0.073913574,1.5,-2.71875,1.78125,371
312,1696247878754,-0.00048828125,-1.0269165,0.022399902,1.4375,-1.390625,0.390625,372
313,1696247878794,-0.014404297,-0.954895,0.03656006,2.203125,-1.609375,0.859375,373
314,1696247878834,-0.032958984,-0.9961548,0.04119873,0.8125,0.328125,1.296875,374
315,1696247878874,0.01977539,-0.9788208,0.05682373,-0.625,-1.625,0.515625,375
316,1696247878914,-0.04248047,-0.9924927,0.04925537,1.65625,-2.484375,1.625,376
317,1696247878954,-0.017089844,-0.9854126,0.036071777,-0.21875,-2.390625,0.109375,377
318,1696247878994,0.010253906,-0.97247314,0.019714355,1.71875,-0.578125,0.078125,378
319,1696247879034,0.008300781,-0.9873657,0.03387451,0.453125,0.921875,0.15625,379
320,1696247879074,0.01171875,-0.98223877,0.051696777,0.859375,-0.984375,0.265625,380
321,1696247879114,-0.051513672,-0.9939575,0.04510498,0.671875,-1.703125,1.921875,381
322,1696247879154,0.0029296875,-1.0142212,0.023376465,0.03125,-1.046875,-0.390625,382
323,1696247879194,0.0048828125,-0.9871216,0.03704834,1.09375,-1.828125,-0.4375,383
324,1696247879234,-0.016601562,-0.98760986,0.03265381,0.828125,-2.65625,-0.328125,384
325,1696247879274,-0.02368164,-1.0112915,0.046813965,-0.40625,-2.015625,0.15625,385
326,1696247879314,-0.047851562,-1.0271606,0.10491943,-2.84375,2.0,2.78125,386
327,1696247879354,-0.015625,-0.9937134,0.04046631,-0.875,1.8125,4.953125,387
328,1696247879394,0.017089844,-1.0283813,-0.0076293945,4.859375,-6.234375,-3.5,388
329,1696247879434,-0.03564453,-0.9348755,-0.043518066,2.484375,-4.078125,-6.296875,389
330,1696247879474,0.08642578,-0.89971924,-0.08087158,2.140625,2.140625,2.9375,390
331,1696247879514,0.044189453,-0.95269775,0.011169434,3.46875,7.921875,2.921875,391
332,1696247879554,-0.040039062,-1.0838013,0.0014038086,-1.3125,4.4375,-0.703125,392
333,1696247879594,-0.016601562,-0.98150635,0.08465576,-3.6875,5.078125,1.125,393
334,1696247879634,-0.017333984,-1.000061,0.0524292,-4.28125,3.4375,-0.21875,394
335,1696247879674,-0.001953125,-0.9651489,-0.023010254,-3.5,2.96875,-2.1875,395
336,1696247879714,0.005126953,-0.9121704,0.04095459,-4.734375,6.0,-0.203125,396
337,1696247879754,-0.018066406,-0.9470825,0.02508545,6.015625,5.65625,1.65625,397
338,1696247879794,0.056884766,-1.102356,0.13348389,0.234375,-2.765625,0.46875,398
339,1696247879834,-0.07055664,-1.0005493,-0.03692627,-1.375,-0.484375,0.84375,399
340,1696247879874,-0.022460938,-0.91192627,0.07342529,0.28125,3.296875,0.703125,400
341,1696247879914,-0.06347656,-1.0440063,0.07489014,-0.640625,-9.0625,0.546875,401
342,1696247879954,0.022949219,-1.0249634,0.030700684,-0.875,-2.109375,-3.8125,402
343,1696247879994,-0.021972656,-0.9234009,0.051208496,-0.75,0.078125,0.890625,403
344,1696247880034,-0.053222656,-0.9812622,0.073913574,1.96875,-3.171875,1.9375,404
345,1696247880074,0.015625,-1.0195923,0.05609131,2.59375,-5.421875,-1.109375,405
346,1696247880114,-0.017822266,-0.9456177,0.009460449,2.71875,-2.984375,0.34375,406
347,1696247880154,0.0034179688,-0.98931885,0.013366699,1.8125,-3.4375,2.046875,407
348,1696247880194,-0.013671875,-1.0442505,0.06439209,-0.65625,-0.109375,0.46875,408
349,1696247880234,-0.06298828,-0.99542236,0.03753662,-1.234375,-0.96875,0.921875,409
350,1696247880274,0.021972656,-0.9776001,-0.0015258789,-0.625,-0.78125,-0.25,410
351,1696247880314,-0.0012207031,-0.97442627,0.04144287,2.59375,-1.359375,1.5,411
352,1696247880354,-0.044921875,-0.98565674,0.019470215,-1.34375,3.359375,1.296875,412
353,1696247880394,0.053710938,-0.96295166,0.048034668,-5.734375,5.21875,1.1875,413
354,1696247880434,-0.041259766,-0.9812622,0.09100342,3.390625,-0.015625,1.984375,414
355,1696247880474,-0.026855469,-1.003479,-0.0022583008,0.421875,1.21875,1.4375,415
356,1696247880514,0.030517578,-0.9697876,0.0045776367,-3.3125,6.046875,2.21875,416
357,1696247880554,-0.0007324219,-1.0232544,0.062194824,0.78125,2.34375,2.53125,417
358,1696247880594,0.00048828125,-1.0010376,0.094177246,-4.125,-4.96875,-0.984375,418
359,1696247880634,0.045654297,-0.9631958,0.0067749023,4.109375,-4.609375,-1.171875,419
360,1696247880674,-0.032714844,-0.9788208,0.03704834,1.015625,-4.0625,0.859375,420
361,1696247880714,-0.064941406,-0.95196533,0.010925293,-1.0,2.46875,-2.234375,421
362,1696247880754,0.083496094,-0.9685669,0.070251465,-4.796875,0.375,0.5,422
363,1696247880794,-0.040527344,-0.97125244,-0.05279541,-3.28125,-3.0625,-1.421875,423
364,1696247880834,0.04272461,-0.9819946,0.062194824,-0.8125,-0.015625,-3.171875,424
365,1696247880874,-0.05126953,-1.0408325,0.06097412,1.1875,-4.859375,-0.96875,425
366,1696247880914,-0.013183594,-0.9788208,0.023132324,-5.765625,2.5,-1.25,426
367,1696247880954,0.04345703,-0.96710205,0.10028076,1.421875,-3.078125,-0.75,427
368,1696247880994,-0.01586914,-1.0108032,0.0014038086,-0.96875,-0.109375,-1.140625,428
369,1696247881034,0.013916016,-0.9470825,0.0770874,-2.34375,-0.640625,-0.71875,429
370,1696247881074,-0.06713867,-0.98394775,0.04827881,-0.328125,-0.03125,0.296875,430
371,1696247881114,0.01977539,-0.99713135,0.08270264,-0.359375,-1.421875,-1.671875,431
372,1696247881154,-0.011230469,-0.9973755,0.07293701,2.53125,-4.25,-0.25,432
373,1696247881194,-0.071777344,-0.9956665,0.031433105,3.125,-3.1875,2.5625,433
374,1696247881234,-0.028076172,-1.0144653,0.023376465,-0.796875,2.234375,-0.671875,434
375,1696247881274,0.020751953,-0.9751587,0.04437256,-0.859375,0.46875,0.375,435
376,1696247881314,-0.011230469,-0.97784424,0.051208496,1.84375,-2.234375,1.375,436
377,1696247881354,-0.041748047,-0.9763794,0.034362793,0.921875,-0.984375,0.828125,437
378,1696247881394,-0.03100586,-0.94781494,0.04925537,1.875,0.65625,0.828125,438
379,1696247881434,-0.0087890625,-1.0249634,0.035827637,1.03125,1.625,1.3125,439
380,1696247881474,0.014404297,-0.98443604,0.04534912,-1.84375,1.140625,-0.78125,440
381,1696247881514,0.00024414062,-0.98809814,0.03387451,-0.734375,1.078125,0.890625,441
382,1696247881554,-0.0048828125,-1.0078735,0.06756592,-0.546875,-1.546875,0.59375,442
383,1696247881594,-0.030273438,-0.98272705,0.042175293,-0.28125,-1.5,-1.140625,443
384,1696247881634,-0.0009765625,-0.9727173,0.058044434,0.171875,-1.828125,0.234375,444
385,1696247881674,-0.048339844,-1.0149536,0.04486084,1.015625,-1.859375,0.984375,445
386,1696247881714,-0.02709961,-0.9985962,0.05291748,-1.3125,1.484375,0.140625,446
387,1696247881754,0.0014648438,-0.98687744,0.050476074,-1.953125,0.46875,0.46875,447
388,1696247881794,-0.0546875,-1.000061,0.06536865,1.21875,-3.109375,0.328125,448
389,1696247881834,-0.024658203,-1.0029907,0.10882568,2.59375,1.34375,1.046875,449
390,1696247881874,-0.0007324219,-1.0352173,0.121032715,-0.640625,2.203125,3.15625,450
391,1696247881914,0.008056641,-0.9805298,-0.010559082,-3.171875,1.046875,-1.3125,451
392,1696247881954,-0.010253906,-0.9072876,-0.035705566,-0.734375,1.28125,-5.4375,452
393,1696247881994,0.021240234,-0.95196533,0.020935059,5.953125,0.4375,0.84375,453
394,1696247882034,-0.022216797,-1.0046997,-0.023010254,2.65625,-2.09375,2.359375,454
395,1696247882074,0.0061035156,-1.017395,0.09661865,0.40625,0.0625,1.0625,455
396,1696247882114,-0.032958984,-1.0029907,0.05609131,2.1875,-5.921875,0.09375,456
397,1696247882154,-0.033203125,-0.97320557,-0.00030517578,-0.734375,-1.296875,0.328125,457
398,1696247882194,0.042236328,-0.9558716,0.03778076,2.171875,0.703125,-0.15625,458
399,1696247882234,-0.038330078,-1.0098267,0.042663574,-0.96875,-1.609375,1.328125,459
400,1696247882274,0.0,-0.99786377,0.062927246,-2.3125,-1.90625,0.515625,460
401,1696247882314,-0.036132812,-1.015686,0.058288574,1.40625,-5.328125,0.828125,461
402,1696247882354,-0.0029296875,-1.003479,-0.006164551,-0.640625,0.015625,0.71875,462
403,1696247882394,0.00024414062,-0.954895,0.005554199,1.984375,-1.34375,-2.375,463
404,1696247882434,-0.024658203,-0.98223877,-0.0076293945,-2.796875,1.59375,-0.734375,464
405,1696247882474,0.021484375,-1.0032349,0.046325684,-1.984375,2.5,1.421875,465
406,1696247882514,-0.07080078,-1.0076294,0.101989746,0.0,-3.15625,0.921875,466
407,1696247882554,-0.0034179688,-0.96881104,-0.0051879883,-1.3125,-1.625,1.53125,467
408,1696247882594,0.008544922,-0.94659424,0.008239746,1.8125,-1.765625,0.234375,468
409,1696247882634,-0.026367188,-1.0115356,0.051452637,-1.3125,0.234375,-0.421875,469
410,1696247882674,0.033935547,-0.98321533,0.046569824,-2.34375,-0.890625,1.15625,470
411,1696247882714,-0.029541016,-1.0059204,0.054626465,0.59375,-3.0,0.265625,471
412,1696247882754,-0.0107421875,-1.0344849,0.061706543,-1.484375,-2.53125,2.09375,472
413,1696247882794,-0.0087890625,-1.0029907,0.057556152,-0.28125,-0.390625,2.25,473
414,1696247882834,-0.018310547,-1.0115356,0.02923584,3.703125,3.171875,2.234375,474
415,1696247882874,0.021240234,-0.90948486,-0.034484863,0.6875,3.484375,-3.765625,475
416,1696247882914,0.0234375,-0.9194946,-0.038879395,0.359375,0.53125,1.296875,476
417,1696247882954,-0.011962891,-1.0527954,0.08123779,3.265625,3.234375,4.046875,477
418,1696247882994,0.017333984,-1.0845337,0.13397217,-0.421875,-0.09375,-0.21875,478
419,1696247883034,-0.025390625,-0.93218994,-0.012023926,-0.5,-1.609375,-0.21875,479
420,1696247883074,-0.0146484375,-0.93878174,0.01361084,0.5625,2.15625,1.015625,480
421,1696247883114,-0.0146484375,-1.0266724,0.018493652,-3.984375,1.71875,-1.75,481
422,1696247883154,0.02319336,-0.97662354,0.036315918,1.53125,4.1875,0.46875,482
423,1696247883194,0.053955078,-1.0161743,0.0045776367,1.28125,-0.328125,0.953125,483
424,1696247883234,-0.05419922,-0.99884033,-0.01373291,-0.296875,3.421875,1.5625,484
425,1696247883274,-0.011474609,-0.94976807,0.010925293,-4.96875,7.703125,0.578125,485
426,1696247883314,0.044921875,-0.9546509,0.09295654,0.5625,0.015625,-0.90625,486
427,1696247883354,-0.031982422,-1.0593872,0.054138184,-4.265625,-8.328125,-0.875,487
428,1696247883394,-0.009277344,-0.9685669,0.010681152,0.484375,-7.90625,-2.546875,488
429,1696247883434,-0.009521484,-0.8904419,0.023864746,5.890625,-4.09375,-1.875,489
430,1696247883474,-0.037841797,-0.9710083,0.003112793,0.78125,-2.515625,1.203125,490
431,1696247883514,0.06616211,-1.0281372,0.058532715,0.265625,-2.078125,-0.015625,491
432,1696247883554,-0.010253906,-1.0176392,0.02947998,1.171875,-5.5625,0.203125,492
433,1696247883594,-0.02734375,-1.0010376,0.011413574,2.359375,-1.140625,1.265625,493
434,1696247883634,-0.025634766,-0.98565674,0.010437012,3.03125,-0.34375,-0.078125,494
435,1696247883674,0.0036621094,-0.975647,0.027038574,-0.265625,-0.03125,1.0,495
436,1696247883714,0.030273438,-0.9937134,0.023864746,-0.90625,-0.953125,0.71875,496
437,1696247883754,-0.026123047,-0.987854,0.026794434,1.09375,-1.484375,1.53125,497
438,1696247883794,0.0073242188,-0.9924927,0.013122559,0.5625,-1.34375,0.375,498
439,1696247883834,0.0061035156,-0.9890747,0.016540527,0.703125,0.25,1.28125,499
440,1696247883874,-0.01586914,-0.9819946,0.03778076,-1.765625,-0.9375,1.734375,500
441,1696247883914,0.0075683594,-1.0039673,0.059020996,-0.765625,-0.71875,0.78125,501
442,1696247883954,-0.033691406,-0.99835205,0.08319092,-0.46875,-2.46875,0.84375,502
443,1696247883994,-0.0068359375,-1.0337524,0.08148193,-5.765625,5.828125,5.546875,503
444,1696247884034,0.018554688,-1.0498657,0.02557373,0.59375,2.671875,3.296875,504
445,1696247884074,0.021972656,-0.9204712,-0.07623291,-4.25,2.765625,-4.75,505
446,1696247884114,0.05517578,-0.87213135,-0.04864502,4.78125,-1.265625,2.359375,506
447,1696247884154,-0.057861328,-1.050354,0.05706787,5.84375,-2.375,3.328125,507
448,1696247884194,0.056152344,-1.0286255,0.036315918,-3.484375,4.640625,-1.046875,508
449,1696247884234,-0.0009765625,-1.0029907,0.028259277,-2.875,-5.4375,2.359375,509
450,1696247884274,-0.03540039,-1.0076294,0.03338623,1.328125,-2.546875,-0.375,510
451,1696247884314,0.038085938,-0.9260864,0.018005371,-2.71875,1.078125,-1.234375,511
452,1696247884354,0.03930664,-0.9590454,-0.026428223,-4.1875,3.046875,-0.9375,512
453,1696247884394,0.017822266,-0.96051025,0.066833496,2.171875,1.640625,0.515625,513
454,1696247884434,0.049072266,-1.1209106,0.04827881,-2.546875,-1.765625,-0.1875,514
455,1696247884474,-0.046142578,-0.98028564,0.042907715,0.765625,-0.90625,0.3125,515
456,1696247884514,0.0078125,-0.9512329,0.022399902,-2.578125,1.234375,0.390625,516
457,1696247884554,0.030029297,-0.9793091,-0.015686035,-4.078125,4.546875,0.0,517
458,1696247884594,0.032714844,-0.98883057,0.12786865,4.125,2.234375,1.828125,518
459,1696247884634,-0.007080078,-1.0645142,0.007751465,-0.96875,-4.640625,0.421875,519
460,1696247884674,0.0026855469,-0.9492798,0.03729248,-0.71875,3.84375,1.0625,520
461,1696247884714,0.047851562,-0.9404907,-0.0056762695,-1.546875,4.15625,3.328125,521
462,1696247884754,0.014160156,-1.0149536,0.094177246,2.25,-3.1875,1.0,522
463,1696247884794,0.010498047,-1.0405884,0.02947998,-2.203125,-5.546875,-2.265625,523
464,1696247884834,-0.008056641,-0.9614868,0.0524292,0.53125,-5.5,-3.0,524
465,1696247884874,0.03173828,-0.928772,0.025817871,4.734375,-4.390625,1.109375,525
466,1696247884914,0.020019531,-0.99298096,0.0067749023,1.484375,-1.09375,0.4375,526
467,1696247884954,0.033935547,-1.0320435,0.024353027,-0.40625,-1.28125,-0.71875,527
468,1696247884994,0.0063476562,-0.98687744,0.04510498,-2.125,-2.375,1.421875,528
469,1696247885034,-0.013916016,-0.99542236,0.038513184,0.265625,-1.78125,-0.125,529
470,1696247885074,0.036376953,-0.9885864,0.00970459,-0.6875,0.046875,-0.453125,530
471,1696247885114,0.022949219,-0.98687744,0.029968262,-0.6875,-0.359375,0.78125,531
472,1696247885154,0.018310547,-1.006897,0.054870605,-2.515625,1.9375,-0.15625,532
473,1696247885194,-0.007080078,-0.9710083,0.047058105,-1.953125,-0.859375,-0.1875,533
474,1696247885234,0.020996094,-0.98565674,0.050231934,0.984375,-1.578125,-0.09375,534
475,1696247885274,0.013183594,-0.97662354,0.04095459,1.28125,-1.375,-0.125,535
476,1696247885314,0.0075683594,-0.9973755,0.011169434,-0.09375,-0.765625,-0.078125,536
477,1696247885354,0.032714844,-1.0042114,0.02557373,-3.515625,0.84375,-0.828125,537
478,1696247885394,-0.0041503906,-0.9680786,0.07342529,-1.5,-1.609375,0.15625,538
479,1696247885434,-0.008544922,-1.0151978,0.055603027,0.5,-3.953125,0.484375,539
480,1696247885474,-0.032470703,-1.0115356,0.039978027,3.140625,-1.21875,0.578125,601
481,1696247885514,0.012451172,-1.0042114,0.051696777,5.265625,3.734375,0.34375,602
482,1696247885554,-0.07324219,-1.003479,0.049743652,4.84375,4.65625,2.109375,603
483,1696247885594,-0.037353516,-0.95196533,0.027038574,-0.25,2.640625,0.15625,604
484,1696247885634,0.118896484,-0.94244385,-0.058410645,1.375,3.5625,-1.859375,605
485,1696247885674,0.055664062,-0.9590454,-0.035461426,6.234375,-6.578125,2.453125,606
486,1696247885714,-0.049560547,-1.0076294,-0.0635376,4.265625,-2.15625,2.40625,607
487,1696247885754,0.05883789,-0.9751587,0.0368042,0.4375,7.0625,0.84375,608
488,1696247885794,-0.07739258,-1.0357056,0.081970215,-0.015625,1.078125,2.140625,609
489,1696247885834,0.02758789,-1.013977,-0.006652832,-4.21875,-0.421875,1.703125,610
490,1696247885874,0.007080078,-0.9463501,0.019958496,-1.9375,3.125,-0.1875,611
491,1696247885914,-0.0078125,-0.95806885,-0.061584473,-9.578125,8.796875,2.125,612
492,1696247885954,0.026367188,-0.9734497,0.046569824,-0.03125,3.0,3.734375,613
493,1696247885994,0.03149414,-1.0618286,0.11834717,2.59375,-6.28125,-0.28125,614
494,1696247886034,0.028076172,-1.0342407,-0.03668213,-0.15625,-1.359375,1.734375,615
495,1696247886074,-0.03149414,-0.9463501,0.026306152,-1.1875,-1.140625,1.9375,616
496,1696247886114,-0.060546875,-1.0391235,0.04852295,-2.390625,-1.984375,2.734375,617
497,1696247886154,0.06518555,-0.95196533,-0.1260376,-3.359375,-1.609375,-2.84375,618
498,1696247886194,0.036621094,-0.96954346,0.08758545,0.890625,-0.640625,0.921875,619
499,1696247886234,-0.06591797,-1.0044556,0.02557373,-2.03125,-0.1875,1.265625,620
500,1696247886274,0.088378906,-0.99176025,0.020690918,-1.828125,-1.90625,-3.4375,621
501,1696247886314,0.05883789,-0.99420166,0.028503418,2.015625,-1.28125,0.078125,622
502,1696247886354,-0.021972656,-0.9902954,0.0602417,-1.453125,-1.453125,0.765625,623
503,1696247886394,-0.0021972656,-0.99591064,0.03289795,-2.25,-0.03125,-0.96875,624
504,1696247886434,0.06518555,-0.96343994,0.042663574,0.046875,-0.71875,-0.921875,625
505,1696247886474,-0.01586914,-1.0147095,0.04901123,2.125,-1.515625,0.96875,626
506,1696247886514,-0.041748047,-0.9973755,0.02557373,-1.828125,2.5,0.578125,627
507,1696247886554,0.021240234,-0.9607544,0.05682373,-0.890625,1.21875,0.140625,628
508,1696247886594,-0.014404297,-0.9949341,0.023620605,2.546875,-1.265625,0.21875,629
509,1696247886634,0.007080078,-0.9885864,-0.002746582,0.9375,-2.59375,-0.03125,630
510,1696247886674,0.0234375,-0.99005127,0.03778076,2.984375,-2.3125,-0.1875,631
511,1696247886714,0.03466797,-1.0271606,0.035827637,2.96875,-0.921875,1.3125,632
512,1696247886754,-0.0031738281,-0.9819946,0.031921387,0.625,-0.171875,1.03125,633
513,1696247886794,0.0026855469,-0.97052,0.032165527,1.6875,0.078125,1.171875,634
514,1696247886834,0.03881836,-0.9846802,0.02142334,1.0,-0.0625,0.3125,635
515,1696247886874,0.035888672,-0.9898071,0.012145996,1.859375,-1.84375,-0.3125,636
516,1696247886914,0.012939453,-0.99542236,0.0072631836,1.296875,-0.09375,-0.1875,637
517,1696247886954,0.036865234,-0.98565674,0.014831543,-0.28125,0.875,-0.125,638
518,1696247886994,0.026611328,-0.991272,0.017028809,-0.296875,-0.28125,-1.03125,639
519,1696247887034,-0.010253906,-0.9883423,0.016052246,-0.125,-2.234375,-1.296875,640
520,1696247887074,0.025878906,-0.96466064,-0.007385254,-1.59375,-0.671875,-3.6875,641
521,1696247887114,0.010498047,-0.9631958,0.047546387,2.296875,-2.5,-1.0625,642
522,1696247887154,-0.057128906,-0.99835205,0.0065307617,0.328125,-0.3125,-0.9375,643
523,1696247887194,0.05053711,-0.9871216,0.014343262,-0.421875,-0.28125,-1.796875,644
524,1696247887234,-0.03564453,-0.9898071,0.023864746,2.125,-3.078125,0.734375,645
525,1696247887274,-0.0390625,-1.0083618,0.009460449,-0.484375,-0.046875,0.078125,646
526,1696247887314,0.04296875,-0.9849243,0.031921387,0.28125,-1.59375,0.359375,647
527,1696247887354,-0.04321289,-1.0161743,0.022644043,2.390625,-5.046875,1.984375,648
528,1696247887394,-0.0146484375,-1.022522,0.038024902,-0.40625,-0.109375,2.640625,649
529,1696247887434,0.034179688,-1.00177,0.02947998,4.09375,-0.53125,2.53125,650
530,1696247887474,-0.03466797,-1.0022583,0.00579834,2.15625,-4.90625,-0.546875,651
531,1696247887514,-0.0007324219,-0.9480591,-0.07159424,3.953125,-2.0,-0.734375,652
532,1696247887554,-0.0014648438,-0.9456177,-0.03277588,2.390625,-0.671875,1.828125,653
533,1696247887594,0.07128906,-0.98931885,-0.06939697,-0.296875,1.1875,1.640625,654
534,1696247887634,0.03173828,-0.9717407,-0.012756348,-1.734375,3.609375,1.421875,655
535,1696247887674,-0.056396484,-0.9961548,0.0016479492,-1.03125,2.03125,3.234375,656
536,1696247887714,0.048339844,-1.0449829,0.012634277,-3.140625,3.296875,0.078125,657
537,1696247887754,0.051513672,-0.95147705,-0.011779785,-3.171875,-0.0625,-0.59375,658
538,1696247887794,-0.029296875,-0.95269775,-0.018371582,-0.671875,0.921875,0.359375,659
539,1696247887834,0.04711914,-0.960022,-0.02130127,-3.921875,2.40625,0.390625,660
540,1696247887874,0.06225586,-0.9692993,0.020690918,-1.09375,3.59375,2.03125,661
541,1696247887914,0.013183594,-1.0652466,0.011657715,-0.515625,-2.25,1.265625,662
542,1696247887954,-0.0390625,-0.9890747,0.022399902,2.046875,-0.109375,-1.140625,663
543,1696247887994,0.016845703,-0.95562744,0.029724121,0.078125,0.625,0.9375,664
544,1696247888034,-0.017578125,-0.99176025,0.009216309,-3.171875,-5.1875,-0.21875,665
545,1696247888074,0.010986328,-1.0076294,0.036315918,-1.125,0.671875,-2.5,666
546,1696247888114,0.044189453,-0.9656372,-0.0044555664,0.140625,-2.828125,1.890625,667
547,1696247888154,0.0041503906,-0.9522095,0.016052246,5.171875,-2.390625,1.859375,668
548,1696247888194,-0.014160156,-0.99102783,0.004333496,3.5,-1.578125,1.375,669
549,1696247888234,0.04345703,-0.9834595,-0.00030517578,0.34375,-1.0625,0.59375,670
550,1696247888274,0.034423828,-0.99786377,0.01727295,2.0625,-4.359375,0.15625,671
551,1696247888314,-0.0056152344,-1.006897,-0.022033691,2.34375,-2.109375,0.421875,672
552,1696247888354,0.0146484375,-0.99468994,-0.0032348633,1.046875,-0.1875,0.25,673
553,1696247888394,0.0107421875,-0.973938,-0.0056762695,1.015625,-0.734375,1.28125,674
554,1696247888434,-0.0036621094,-0.99005127,0.004333496,0.765625,-2.046875,2.015625,675
555,1696247888474,0.018066406,-1.0054321,0.021911621,-2.484375,-1.203125,2.546875,676
556,1696247888514,0.0871582,-1.0042114,-0.030334473,-1.40625,3.796875,1.328125,677
557,1696247888554,-0.0048828125,-0.9758911,-0.028869629,0.625,-2.359375,-2.78125,678
558,1696247888594,0.027832031,-0.9522095,-0.050354004,1.921875,0.421875,-2.6875,679
559,1696247888634,0.056396484,-0.9727173,-0.021057129,3.203125,-0.09375,2.09375,680
560,1696247888674,0.029052734,-1.0081177,-0.06378174,0.4375,-1.5625,-0.65625,681
561,1696247888714,0.0026855469,-1.0437622,0.01751709,-3.328125,2.375,1.578125,682
562,1696247888754,0.032958984,-1.0134888,0.06854248,-0.296875,-0.4375,1.734375,683
563,1696247888794,-0.048339844,-0.9951782,-0.025939941,-3.421875,5.5,0.890625,684
564,1696247888834,0.08251953,-0.95196533,0.024597168,-2.015625,0.796875,-1.234375,685
565,1696247888874,-0.020263672,-0.9456177,-0.014953613,-0.359375,-0.796875,-0.703125,686
566,1696247888914,0.056884766,-0.97857666,0.016540527,0.59375,-0.234375,-1.140625,687
567,1696247888954,0.0107421875,-0.9546509,-0.011779785,0.296875,-4.03125,0.9375,688
568,1696247888994,0.010009766,-1.0064087,0.002380371,0.75,-2.4375,-0.609375,689
569,1696247889034,0.040527344,-1.0027466,0.02142334,-0.046875,-3.046875,-0.140625,690
570,1696247889074,0.0078125,-1.0110474,0.01727295,0.703125,-5.796875,1.40625,691
571,1696247889114,0.0017089844,-0.9976196,0.042663574,-0.59375,-3.796875,2.734375,692
572,1696247889154,0.017578125,-1.0010376,0.019714355,3.453125,-2.46875,4.546875,693
573,1696247889194,-0.021240234,-0.9961548,0.017028809,0.75,-4.09375,2.1875,694
574,1696247889234,0.059814453,-0.9714966,0.0014038086,-0.5,-3.0,-0.84375,695
575,1696247889274,0.041992188,-0.95440674,-0.010559082,2.109375,-4.15625,-0.875,696
576,1696247889314,0.031982422,-0.97979736,0.009460449,2.765625,-3.0625,-1.453125,697
577,1696247889354,0.060302734,-0.98028564,-0.06719971,-0.484375,-1.90625,-0.546875,698
578,1696247889394,0.02758789,-0.9541626,0.019714355,3.8125,-1.859375,1.046875,699
579,1696247889434,0.06616211,-1.0239868,-0.029846191,-1.109375,-3.125,-1.875,781
580,1696247889474,0.08129883,-0.9163208,-0.0017700195,1.796875,3.421875,-2.5625,782
581,1696247889514,0.00024414062,-0.97979736,0.05609131,3.703125,-3.3125,3.09375,783
582,1696247889554,0.01977539,-1.0195923,-0.010803223,-1.078125,-2.625,-0.703125,784
583,1696247889594,0.1015625,-1.005188,0.00970459,-1.578125,1.71875,-3.515625,785
584,1696247889634,-0.025634766,-0.9824829,0.0848999,-1.53125,-4.640625,3.0625,786
585,1696247889674,0.0146484375,-1.0010376,-6.1035156e-05,-0.859375,-0.953125,-0.6875,787
586,1696247889714,0.12402344,-0.98931885,0.07977295,-1.5,1.53125,-2.09375,788
587,1696247889754,-0.06567383,-0.97198486,0.020690918,-0.5,-1.53125,4.484375,789
588,1696247889794,0.008544922,-0.98883057,-0.008117676,-0.375,-0.40625,-1.90625,790
589,1696247889834,0.15893555,-0.9834595,0.050964355,-0.90625,1.1875,-2.03125,791
590,1696247889874,-0.0390625,-0.9871216,0.039001465,2.53125,-3.3125,3.5625,792
591,1696247889914,0.011474609,-1.0083618,0.007507324,-0.984375,4.640625,-3.828125,793
592,1696247889954,0.12402344,-0.9636841,0.007751465,-1.140625,-0.3125,-1.390625,794
593,1696247889994,0.008300781,-0.9661255,0.030456543,4.984375,-3.765625,1.8125,795
594,1696247890034,-0.014160156,-1.0081177,-0.00079345703,2.140625,-4.734375,-1.140625,796
595,1696247890074,0.0637207,-0.97735596,-0.022277832,0.34375,-1.0,-1.8125,797
596,1696247890114,-0.0087890625,-0.99542236,-0.00030517578,0.921875,-0.234375,-0.09375,798
597,1696247890154,0.041259766,-0.97320557,-0.0056762695,-4.078125,1.171875,-0.3125,799
598,1696247890194,0.037353516,-0.97442627,0.046325684,-1.5,-0.828125,-0.625,800
599,1696247890234,-0.033203125,-0.9963989,0.01751709,-0.53125,-1.109375,-0.59375,801
600,1696247890274,0.03955078,-0.9746704,0.020446777,-1.234375,0.53125,-0.90625,802
601,1696247890314,0.015380859,-0.9944458,0.047790527,1.09375,-1.375,0.8125,803
602,1696247890354,0.015136719,-1.0164185,0.05340576,-0.921875,0.609375,0.234375,804
603,1696247890394,-0.001953125,-0.97125244,0.02508545,-0.890625,0.8125,0.015625,805
604,1696247890434,0.016357422,-0.99664307,0.027526855,0.453125,0.46875,0.8125,806
605,1696247890474,0.05053711,-0.9898071,0.039001465,-0.96875,-1.21875,1.4375,807
606,1696247890514,0.017089844,-0.986145,-0.022033691,0.59375,-0.96875,0.890625,808
607,1696247890554,0.013427734,-0.9673462,0.07904053,0.296875,1.546875,0.84375,809
608,1696247890594,-0.0026855469,-0.9907837,0.039245605,-1.265625,-1.390625,1.265625,810
609,1696247890634,0.01586914,-1.0061646,0.062438965,-1.203125,-3.4375,-1.4375,811
610,1696247890674,-0.010986328,-0.97906494,0.09197998,1.90625,-6.546875,0.734375,812
611,1696247890714,0.024169922,-1.0234985,0.0033569336,6.265625,0.53125,0.953125,813
612,1696247890754,0.04321289,-0.9741821,-0.043762207,3.03125,3.453125,-3.765625,814
613,1696247890794,0.06713867,-0.9414673,-0.036193848,1.984375,0.328125,-0.453125,815
614,1696247890834,0.03149414,-1.0076294,0.005065918,5.3125,-2.90625,0.21875,816
615,1696247890874,-0.0009765625,-0.9915161,-0.028381348,-2.0625,0.484375,0.296875,817
616,1696247890914,0.038085938,-0.972229,0.06829834,-3.703125,1.78125,2.171875,818
617,1696247890954,-0.021484375,-0.99884033,0.039245605,0.140625,-5.3125,1.953125,819
618,1696247890994,0.0053710938,-0.9829712,0.042907715,-0.375,0.15625,-0.921875,820
619,1696247891034,0.04711914,-0.98565674,-0.023010254,-0.890625,-5.375,-1.03125,821
620,1696247891074,0.011474609,-0.9656372,-0.0076293945,2.515625,1.46875,-1.40625,822
621,1696247891114,0.0637207,-1.0005493,-0.031555176,-0.375,0.28125,-1.40625,823
622,1696247891154,0.011474609,-1.0073853,0.047302246,-0.984375,-0.296875,0.109375,824
623,1696247891194,-0.048339844,-1.0215454,0.030212402,-0.609375,-3.203125,1.953125,825
624,1696247891234,-0.008544922,-0.99346924,0.035583496,-2.203125,0.09375,-0.640625,826
625,1696247891274,0.03955078,-1.0044556,0.035827637,2.046875,-3.0625,0.90625,827
626,1696247891314,-0.0075683594,-0.9727173,0.018737793,3.65625,-1.484375,0.953125,828
627,1696247891354,0.05908203,-0.9360962,-0.04937744,0.078125,0.234375,-2.171875,829
628,1696247891394,0.07299805,-0.9570923,-0.038391113,0.6875,-0.78125,0.65625,830
629,1696247891434,-0.0063476562,-1.0151978,0.010437012,-0.625,4.71875,3.859375,831
630,1696247891474,0.0026855469,-1.0161743,-0.016662598,-2.75,6.34375,2.328125,832
631,1696247891514,0.110839844,-0.97906494,0.08123779,-4.796875,14.484375,2.203125,833
632,1696247891554,-0.041259766,-0.9685669,0.08807373,-0.046875,-0.09375,3.5625,834
633,1696247891594,0.0075683594,-1.0054321,-0.016174316,-3.015625,-0.8125,-2.90625,835
634,1696247891634,0.072509766,-0.9470825,0.0446167,-0.84375,0.421875,-1.296875,836
635,1696247891674,-0.029785156,-0.89312744,0.01727295,-3.703125,-1.203125,1.578125,837
636,1696247891714,0.022460938,-1.013977,0.048034668,0.796875,-1.09375,-1.84375,838
637,1696247891754,0.06762695,-1.02594,0.0099487305,-3.015625,-2.828125,-3.109375,839
638,1696247891794,0.029785156,-0.9151001,0.0138549805,4.890625,-4.765625,1.6875,840
639,1696247891834,-0.0107421875,-1.0332642,-0.0032348633,4.21875,-3.0625,1.140625,841
640,1696247891874,0.03540039,-1.0327759,0.045837402,-3.71875,3.203125,0.328125,842
641,1696247891914,0.014892578,-0.96539307,0.04168701,-0.734375,-0.828125,1.359375,843
642,1696247891954,0.030273438,-1.0137329,0.016296387,0.75,1.234375,0.953125,844
643,1696247891994,0.027832031,-0.97857666,0.031433105,-0.34375,-0.84375,1.203125,845
644,1696247892034,-0.05493164,-0.94732666,-0.02520752,-6.515625,2.46875,1.546875,846
645,1696247892074,0.07055664,-1.0061646,0.1720581,-1.4375,-6.796875,-0.09375,847
646,1696247892114,0.0036621094,-0.9949341,-0.028869629,0.875,0.71875,-1.125,848
647,1696247892154,0.07006836,-0.92071533,0.0758667,0.734375,0.4375,3.140625,849
648,1696247892194,-0.07128906,-0.99957275,-0.016418457,1.453125,0.734375,0.484375,850
649,1696247892234,0.06762695,-1.0012817,0.070251465,-4.96875,5.640625,0.875,851
650,1696247892274,-0.008056641,-0.9692993,0.05999756,-2.546875,-0.6875,0.75,852
651,1696247892314,0.14990234,-1.0283813,0.028503418,4.09375,1.125,0.265625,853
652,1696247892354,-0.035888672,-0.9951782,0.07879639,0.203125,-3.09375,1.796875,854
653,1696247892394,0.032226562,-0.9536743,0.04827881,-0.578125,1.203125,-1.71875,855
654,1696247892434,0.06347656,-0.9817505,0.018493652,-0.640625,-0.09375,0.453125,856
655,1696247892474,0.03881836,-0.9837036,0.03387451,0.765625,-3.203125,-2.3125,857
656,1696247892514,0.025634766,-0.95806885,0.0026245117,4.734375,-6.1875,-0.71875,858
657,1696247892554,0.0026855469,-0.9768677,0.02947998,0.5,-4.34375,1.71875,859
658,1696247892594,-0.016601562,-1.0530396,-0.0068969727,2.046875,0.828125,1.4375,860
659,1696247892634,0.057617188,-1.0088501,0.042663574,-2.75,3.125,-0.59375,861
660,1696247892674,0.025146484,-0.9697876,0.031677246,0.828125,-1.234375,0.765625,862
661,1696247892714,0.0061035156,-0.9907837,0.029968262,0.59375,0.4375,0.34375,863
662,1696247892754,0.04638672,-0.97003174,0.035095215,-0.5,0.609375,0.15625,864
663,1696247892794,0.0390625,-0.9649048,0.019470215,0.375,-0.265625,-0.109375,865
664,1696247892834,0.0107421875,-0.9990845,0.049987793,-0.921875,-0.796875,0.84375,866
665,1696247892874,0.005859375,-0.99298096,0.04559326,-0.1875,-2.046875,-0.453125,867
666,1696247892914,0.05517578,-0.98638916,0.020202637,-0.375,-2.15625,-0.140625,868
667,1696247892954,0.0053710938,-1.0164185,0.059509277,1.4375,-2.984375,0.09375,869
668,1696247892994,0.008300781,-1.0308228,0.06536865,3.375,0.265625,-0.234375,870
669,1696247893034,0.053466797,-0.9570923,-0.034240723,1.265625,0.75,-0.53125,871
670,1696247893074,0.03100586,-0.9636841,-0.004211426,1.890625,-2.1875,0.171875,872
671,1696247893114,0.038085938,-1.0227661,0.029724121,-0.546875,-0.109375,-0.5,873
672,1696247893154,-0.00048828125,-0.96343994,0.018005371,-0.609375,-1.203125,-0.03125,874
673,1696247893194,0.02758789,-0.9776001,0.014831543,1.375,-1.21875,0.78125,875
674,1696247893234,0.020263672,-0.9873657,0.018493652,-1.484375,0.78125,0.453125,876
675,1696247893274,0.016845703,-1.0032349,0.042419434,-1.078125,-1.9375,0.03125,877
676,1696247893314,0.018798828,-0.98321533,0.022888184,-0.328125,-2.046875,-0.34375,878
677,1696247893354,0.03149414,-0.97442627,0.016296387,1.265625,-1.65625,-0.375,879
678,1696247893394,0.010986328,-1.0010376,0.0033569336,1.75,0.0625,1.03125,880
679,1696247893434,0.026123047,-1.0186157,0.024353027,-2.015625,7.8125,2.25,881
680,1696247893474,0.010253906,-0.97613525,0.08099365,-0.484375,5.8125,2.390625,882
681,1696247893514,0.0056152344,-0.9924927,0.022155762,-0.65625,0.671875,0.5625,883
682,1696247893554,0.07739258,-0.9873657,0.003112793,-1.328125,1.15625,-0.40625,884
683,1696247893594,0.009277344,-0.9758911,0.019714355,-2.984375,-0.4375,2.40625,885
684,1696247893634,-0.009521484,-0.99713135,0.01751709,-0.84375,0.875,-0.453125,886
685,1696247893674,0.08251953,-0.9434204,0.054626465,-3.015625,-1.703125,-1.859375,887
686,1696247893714,0.028320312,-0.9663696,-0.031799316,3.78125,-2.90625,0.546875,888
687,1696247893754,0.030273438,-1.0003052,0.070495605,0.109375,-4.5,-1.125,889
688,1696247893794,0.029541016,-0.9714966,0.009460449,-1.515625,2.390625,-0.171875,890
689,1696247893834,0.032714844,-1.0071411,0.06488037,1.234375,-1.84375,0.265625,891
690,1696247893874,0.011474609,-0.9800415,0.051940918,-3.3125,-8.625,-3.9375,892
691,1696247893914,0.042236328,-0.93096924,0.02508545,0.375,-6.046875,-4.53125,893
692,1696247893954,-0.0126953125,-1.0322876,0.016296387,2.984375,-3.625,2.328125,894
693,1696247893994,0.0012207031,-0.94903564,0.017028809,0.546875,-1.421875,-0.34375,895
694,1696247894034,-0.026123047,-1.0093384,0.015808105,1.15625,2.78125,-0.046875,896
695,1696247894074,0.09741211,-1.0130005,0.03338623,-2.03125,1.9375,0.484375,897
696,1696247894114,-0.009277344,-0.9727173,0.014099121,-0.3125,-2.90625,-0.984375,898
697,1696247894154,0.0041503906,-0.9649048,0.035583496,-0.765625,-1.203125,-1.390625,899
698,1696247894194,0.020263672,-0.9780884,0.046813965,0.828125,-1.8125,-0.28125,900
699,1696247894234,0.0073242188,-0.9885864,0.04119873,0.234375,-1.0625,0.171875,901
700,1696247894274,0.0009765625,-0.9871216,0.051452637,0.90625,-2.09375,1.125,902
701,1696247894314,-0.02758789,-1.0066528,0.014587402,-0.125,0.4375,1.96875,903
702,1696247894354,0.045898438,-1.0095825,0.03753662,-0.796875,-0.53125,-0.515625,904
703,1696247894394,-0.0026855469,-0.9998169,0.038024902,0.421875,-2.59375,0.03125,905
704,1696247894434,0.018554688,-0.98272705,0.04071045,2.34375,-0.546875,0.40625,906
705,1696247894474,0.009033203,-0.98516846,0.005554199,2.125,-0.140625,1.71875,907
706,1696247894514,0.006591797,-0.9993286,0.008728027,1.65625,-0.671875,1.15625,908
707,1696247894554,0.01171875,-0.98150635,0.0028686523,-0.125,0.84375,0.875,909
708,1696247894594,0.052001953,-0.97784424,0.022399902,-1.796875,-0.21875,0.90625,910
709,1696247894634,-0.00024414062,-0.99176025,0.04144287,-0.921875,-3.4375,0.8125,911
710,1696247894674,0.018554688,-0.9805298,0.03778076,-1.359375,-3.390625,0.390625,912
711,1696247894714,0.0063476562,-0.9976196,0.07147217,1.359375,-3.53125,1.859375,913
712,1696247894754,0.0034179688,-1.0127563,-0.013244629,2.734375,-4.21875,-0.96875,914
713,1696247894794,0.048583984,-0.94537354,0.010437012,-0.90625,-0.4375,-0.796875,915
714,1696247894834,0.03491211,-0.97662354,0.0079956055,0.484375,0.640625,2.15625,916
715,1696247894874,0.018798828,-1.0269165,0.028015137,1.03125,0.8125,1.15625,917
716,1696247894914,0.040283203,-0.9729614,0.03289795,-0.765625,2.921875,-0.1875,918
717,1696247894954,0.037353516,-0.97369385,0.026306152,-0.125,0.015625,1.40625,919
718,1696247894994,0.005859375,-0.99591064,0.038513184,0.875,-1.1875,0.125,920
719,1696247895034,0.016357422,-0.99542236,0.012634277,-1.28125,1.0,-0.109375,921
720,1696247895074,0.030761719,-0.96466064,0.026062012,-0.703125,2.4375,1.046875,922
721,1696247895114,-0.011230469,-1.0012817,0.03265381,1.0,0.359375,1.421875,923
722,1696247895154,0.06201172,-1.0115356,-0.031311035,-1.125,6.265625,2.125,924
723,1696247895194,0.06713867,-0.99224854,0.058044434,-3.34375,6.3125,1.5,925
724,1696247895234,-0.09277344,-1.0044556,0.066345215,0.40625,0.734375,2.0625,926
725,1696247895274,0.06738281,-1.0083618,0.014587402,-0.78125,2.109375,-2.203125,927
726,1696247895314,0.020996094,-0.93536377,0.03704834,-0.015625,-0.53125,0.921875,928
727,1696247895354,-0.03881836,-0.9841919,0.078308105,-0.109375,-4.15625,1.3125,929
728,1696247895394,0.07836914,-0.9990845,-0.042053223,-3.625,1.84375,-1.921875,930
729,1696247895434,0.057617188,-0.9404907,0.078063965,-0.078125,-1.03125,0.96875,931
730,1696247895474,-0.029541016,-1.0176392,0.028015137,2.5,-5.140625,0.140625,932
731,1696247895514,0.06323242,-0.99176025,0.019714355,0.453125,-1.640625,-2.5,933
732,1696247895554,0.022705078,-0.9663696,0.023620605,1.390625,-1.15625,1.90625,934
733,1696247895594,0.032958984,-1.0112915,0.041931152,1.015625,-1.375,0.203125,935
734,1696247895634,0.061035156,-0.99542236,0.036071777,-0.65625,-0.1875,0.40625,936
735,1696247895674,-0.00390625,-0.96710205,0.028747559,0.59375,-1.875,1.1875,937
736,1696247895714,0.056396484,-0.9885864,0.022644043,0.359375,-1.421875,-0.59375,938
737,1696247895754,0.037353516,-0.96661377,0.02947998,1.453125,-3.15625,0.125,939
738,1696247895794,0.0146484375,-0.99420166,0.0119018555,-0.796875,-2.296875,-0.421875,940
739,1696247895834,0.036132812,-0.9783325,0.022155762,-0.5,-2.125,-0.484375,941
740,1696247895874,0.0043945312,-0.9783325,0.055358887,0.28125,-3.9375,0.421875,942
741,1696247895914,0.013671875,-1.0276489,0.08343506,-1.484375,-0.4375,1.9375,943
742,1696247895954,0.048095703,-1.0186157,0.036315918,-4.515625,-1.984375,0.921875,944
743,1696247895994,0.0007324219,-0.97320557,-0.0032348633,4.21875,-7.359375,-1.421875,945
744,1696247896034,0.057617188,-0.9299927,0.007507324,1.28125,1.234375,0.125,946
745,1696247896074,0.057861328,-0.9751587,-0.00982666,-1.578125,6.28125,2.96875,947
746,1696247896114,0.033935547,-0.98101807,0.0006713867,1.84375,9.9375,0.53125,948
747,1696247896154,0.04321289,-0.9846802,0.109558105,0.734375,5.71875,2.015625,949
748,1696247896194,0.033691406,-1.0095825,0.02557373,-1.828125,-2.03125,-0.109375,950
749,1696247896234,0.05029297,-0.9776001,-0.027404785,-2.09375,4.84375,-2.640625,951
750,1696247896274,0.021240234,-0.93096924,0.054138184,-3.46875,6.28125,2.125,952
751,1696247896314,0.0041503906,-0.96588135,0.070251465,1.671875,7.734375,-0.890625,953
752,1696247896354,0.07006836,-1.0481567,0.10028076,-1.78125,-3.84375,-0.5,954
753,1696247896394,-0.0014648438,-0.9421997,-0.02154541,0.046875,-5.171875,-1.59375,955
754,1696247896434,-0.038085938,-0.96832275,-0.0095825195,-0.09375,4.6875,2.765625,956
755,1696247896474,0.045898438,-0.9871216,0.070007324,2.015625,3.96875,-0.984375,957
756,1696247896514,0.061279297,-1.0149536,0.055603027,-7.578125,-5.71875,-2.265625,958
757,1696247896554,0.0024414062,-0.9771118,0.043395996,1.0,-6.015625,0.703125,959
758,1696247896594,0.07299805,-1.010315,0.058044434,0.125,1.203125,0.578125,960
759,1696247896634,0.013427734,-1.0112915,0.010437012,-1.25,1.578125,0.921875,961
