# Sensor type: Respeck
# Activity type: Lying down right
# Activity subtype: Hyperventilating
# Subject id: s2104454
# Notes: unprocessed
timestamp,accel_x,accel_y,accel_z,gyro_x,gyro_y,gyro_z
1696245722721,0.71777344,-0.010314941,0.7550659,-0.71875,-2.140625,-0.9375
1696245722780,0.7138672,-0.019592285,0.7687378,1.0625,-0.453125,-0.171875
1696245722821,0.71435547,-0.014465332,0.7926636,2.28125,0.71875,-0.390625
1696245722841,0.7297363,-0.038391113,0.7435913,-0.46875,1.765625,-0.546875
1696245722881,0.7145996,-0.043762207,0.77557373,1.0625,1.90625,-0.28125
1696245722941,0.7126465,-0.04425049,0.7435913,-0.5,2.609375,0.078125
1696245722961,0.6940918,-0.028625488,0.7665405,-0.46875,2.21875,-0.484375
1696245723000,0.720459,-0.022033691,0.72943115,-1.828125,4.140625,-1.8125
1696245723042,0.7241211,-0.019348145,0.73358154,-1.5,2.921875,-0.03125
1696245723122,0.7536621,-0.02545166,0.7723999,-3.515625,3.875,0.109375
1696245723126,0.782959,-0.026428223,0.7562866,-3.703125,4.78125,-0.96875
1696245723140,0.751709,-0.012756348,0.7406616,-4.046875,4.296875,0.15625
1696245723182,0.7475586,-0.023010254,0.7067261,-1.296875,2.390625,1.5625
1696245723222,0.73876953,-0.025939941,0.71868896,3.609375,2.375,1.59375
1696245723263,0.7468262,-0.016906738,0.6937866,4.71875,0.671875,2.703125
1696245723323,0.73535156,-0.004699707,0.6803589,3.375,-1.640625,3.0625
1696245723341,0.704834,-0.009094238,0.6725464,0.84375,-2.640625,3.53125
1696245723382,0.71435547,-0.006164551,0.6835327,-0.328125,-1.859375,2.0625
1696245723421,0.72436523,0.0079956055,0.69281006,-0.546875,-1.703125,0.109375
1696245723462,0.71728516,0.014343262,0.70355225,-0.140625,-1.5625,0.0625
1696245723506,0.72680664,9.1552734E-4,0.7128296,0.328125,-2.171875,-0.15625
1696245723541,0.7277832,-0.006652832,0.7177124,1.109375,-1.953125,-0.578125
1696245723584,0.7229004,-0.016418457,0.7250366,1.0625,-2.453125,-0.078125
1696245723626,0.7097168,-0.026916504,0.72406006,-1.296875,-3.578125,-0.1875
1696245723663,0.7128906,-0.018127441,0.7103882,-2.3125,-3.640625,-0.65625
1696245723702,0.7097168,0.012634277,0.6911011,-0.578125,-4.1875,-0.171875
1696245723744,0.67700195,0.023132324,0.69207764,4.265625,-1.1875,1.03125
1696245723782,0.7019043,-0.0025024414,0.6715698,8.046875,-1.921875,1.3125
1696245723822,0.70410156,-0.02960205,0.6925659,5.28125,1.65625,0.234375
1696245723862,0.72265625,-0.03375244,0.68914795,0.578125,1.4375,-0.53125
1696245723903,0.7441406,-0.03326416,0.75335693,0.96875,2.828125,0.0
1696245723941,0.74194336,-0.023498535,0.72943115,-0.78125,-1.84375,1.21875
1696245723981,0.7114258,-0.016418457,0.7116089,-1.59375,-4.796875,1.3125
1696245724024,0.6984863,-0.015686035,0.7062378,-4.109375,-4.90625,0.53125
1696245724063,0.7011719,-0.024230957,0.732605,-3.640625,-4.46875,-0.796875
1696245724103,0.689209,-0.022033691,0.7247925,-2.453125,-2.6875,-1.671875
1696245724143,0.7182617,-0.0115356445,0.7457886,1.328125,-0.46875,-2.015625
1696245724205,0.7216797,-0.026916504,0.743103,2.09375,0.625,-0.90625
1696245724220,0.7224121,-0.035949707,0.75531006,2.859375,-1.625,-0.578125
1696245724263,0.73339844,-0.04498291,0.74823,4.875,2.96875,-0.75
1696245724302,0.7375488,-0.014709473,0.7538452,2.875,2.125,0.0625
1696245724343,0.7421875,-0.03717041,0.72650146,0.015625,-0.046875,0.515625
1696245724382,0.7434082,-0.04888916,0.7572632,-1.578125,2.625,1.328125
1696245724421,0.7602539,-0.05596924,0.76556396,-3.734375,2.5625,0.4375
1696245724440,0.72216797,-0.04034424,0.72821045,-6.96875,0.765625,0.96875
1696245724503,0.703125,-0.01739502,0.7028198,-7.296875,1.671875,1.515625
1696245724542,0.7297363,-0.00592041,0.7201538,-5.640625,3.75,0.703125
1696245724561,0.73095703,0.003112793,0.7514038,-1.40625,2.234375,0.75
1696245724602,0.73535156,0.002380371,0.69451904,1.4375,-0.609375,1.484375
1696245724644,0.6965332,0.012634277,0.67718506,1.4375,-2.53125,0.6875
1696245724682,0.70874023,0.0048217773,0.71087646,2.265625,-1.328125,0.859375
1696245724746,0.71435547,-0.023010254,0.6937866,0.234375,-0.65625,0.65625
1696245724760,0.71850586,-0.008850098,0.70599365,0.15625,-0.90625,-0.515625
1696245724824,0.7155762,-0.0015258789,0.6935425,-0.140625,-1.1875,-0.15625
1696245724844,0.72875977,-0.0178833,0.7123413,0.0,-1.40625,0.15625
1696245724881,0.7241211,-0.015930176,0.7194214,-0.484375,-2.5,-0.296875
1696245724943,0.72094727,-0.0076293945,0.7074585,-0.609375,-2.546875,-0.4375
1696245724963,0.71069336,0.0036010742,0.71429443,0.46875,-3.234375,-0.03125
1696245725024,0.6870117,0.011413574,0.6959839,0.5,-3.71875,0.609375
1696245725040,0.6779785,0.014831543,0.6864624,2.671875,-2.328125,1.21875
1696245725082,0.68725586,-0.011291504,0.67889404,3.5,-3.21875,0.6875
1696245725143,0.70874023,-0.023010254,0.72039795,1.875,1.15625,0.34375
1696245725162,0.7336426,-0.018371582,0.7518921,1.671875,3.4375,-0.875
1696245725201,0.7495117,-0.03253174,0.71380615,0.171875,3.59375,-0.546875
1696245725241,0.7397461,-0.024230957,0.71624756,0.328125,0.625,1.875
1696245725283,0.71875,-0.011291504,0.71624756,-1.328125,-0.453125,2.46875
1696245725322,0.6936035,-0.0068969727,0.7235718,-1.53125,-3.4375,0.875
1696245725363,0.6828613,-0.013000488,0.7091675,-2.6875,-4.65625,-0.6875
1696245725402,0.71899414,-0.024963379,0.73553467,-3.609375,-2.125,-1.484375
1696245725443,0.70654297,0.010437012,0.7157593,-4.796875,-1.796875,-0.484375
1696245725482,0.7038574,0.011413574,0.73651123,-2.390625,0.4375,-0.09375
1696245725544,0.72924805,-0.013244629,0.74920654,-0.78125,1.140625,-0.140625
1696245725562,0.73706055,-0.010070801,0.75408936,0.140625,1.953125,0.5
1696245725622,0.72924805,-0.02545166,0.7614136,0.8125,1.78125,0.765625
1696245725641,0.7504883,-0.027648926,0.77630615,-2.421875,4.84375,0.5
1696245725680,0.75805664,-0.026428223,0.7416382,-2.296875,1.265625,0.890625
1696245725721,0.7392578,0.005065918,0.72039795,-2.765625,1.109375,0.375
1696245725766,0.7390137,0.0079956055,0.7020874,-2.484375,1.234375,0.28125
1696245725780,0.73291016,0.008483887,0.6930542,-1.609375,0.84375,0.375
1696245725821,0.751709,0.0067749023,0.7069702,-0.015625,1.546875,-0.125
1696245725862,0.72998047,0.010925293,0.68914795,1.8125,-0.09375,0.3125
1696245725904,0.7285156,6.713867E-4,0.6976929,1.125,-1.046875,1.03125
1696245725941,0.71606445,-0.0012817383,0.70184326,1.15625,-1.015625,0.578125
1696245725981,0.7246094,0.012145996,0.7284546,2.4375,-1.6875,0.703125
1696245726021,0.717041,0.012145996,0.70184326,0.03125,-0.953125,0.203125
1696245726082,0.7116699,0.010437012,0.67474365,0.171875,-2.53125,0.203125
1696245726121,0.71191406,4.272461E-4,0.7279663,1.328125,-2.046875,-0.1875
1696245726141,0.7150879,-0.0068969727,0.71746826,-0.1875,-2.859375,-0.4375
1696245726185,0.704834,0.0036010742,0.69647217,-0.59375,-2.484375,-0.921875
1696245726225,0.70458984,0.018249512,0.715271,0.828125,-3.265625,-0.265625
1696245726262,0.6923828,0.0099487305,0.69940186,1.578125,-3.046875,0.375
1696245726302,0.6838379,0.020446777,0.6679077,4.625,-3.84375,0.53125
1696245726343,0.7314453,-0.01373291,0.72821045,6.421875,2.203125,0.25
1696245726382,0.7194824,-0.022277832,0.684021,3.578125,1.65625,0.484375
1696245726422,0.73168945,-0.020080566,0.7213745,2.75,1.53125,1.3125
1696245726462,0.72509766,-0.024963379,0.7086792,1.1875,-1.25,1.4375
1696245726503,0.7062988,-0.010314941,0.72332764,-1.125,-2.6875,1.046875
1696245726544,0.7019043,-5.493164E-4,0.7304077,-2.078125,-4.21875,0.875
1696245726581,0.69140625,0.0036010742,0.7145386,-2.625,-5.0625,-0.15625
1696245726622,0.70336914,-0.012512207,0.7609253,-1.28125,-2.375,-1.125
1696245726662,0.7089844,-0.006164551,0.73724365,-2.4375,-0.9375,-1.4375
1696245726702,0.7141113,-0.018127441,0.7201538,-1.125,-0.046875,-1.75
1696245726743,0.72680664,-0.023742676,0.74090576,-0.328125,-0.28125,-2.140625
1696245726782,0.73583984,-0.02520752,0.74920654,-0.265625,0.171875,-1.25
1696245726823,0.74121094,-0.030578613,0.74798584,-0.515625,1.875,-0.359375
1696245726867,0.74243164,-0.02960205,0.7848511,-1.875,4.984375,0.5
1696245726902,0.75268555,-0.022766113,0.7560425,-2.109375,2.234375,0.53125
1696245726942,0.74243164,-0.014221191,0.7316284,-4.015625,1.84375,0.734375
1696245726984,0.72680664,0.0038452148,0.72650146,-2.328125,-0.421875,1.21875
1696245727026,0.7331543,4.272461E-4,0.71307373,-1.796875,0.53125,0.875
1696245727064,0.7446289,-0.0029907227,0.73553467,-1.21875,0.78125,1.78125
1696245727082,0.71972656,0.0038452148,0.697937,-1.859375,-0.765625,1.3125
1696245727122,0.7036133,0.008483887,0.7055054,-0.625,-0.546875,0.734375
1696245727165,0.7036133,0.011657715,0.7182007,0.265625,-1.21875,-0.0625
1696245727204,0.7141113,0.011657715,0.7094116,0.3125,-1.234375,0.015625
1696245727242,0.7006836,0.02166748,0.72039795,1.296875,-2.1875,-0.203125
1696245727280,0.70043945,0.01361084,0.72161865,1.375,-2.28125,-0.125
1696245727344,0.7077637,9.1552734E-4,0.72821045,1.28125,-1.546875,0.203125
1696245727363,0.7006836,0.0026245117,0.72406006,0.40625,-2.421875,0.25
1696245727424,0.69750977,-0.0025024414,0.72283936,-0.03125,-2.515625,-0.171875
1696245727442,0.6972656,0.0099487305,0.71551514,1.3125,-3.046875,-0.125
1696245727485,0.6772461,0.0119018555,0.69866943,1.4375,-1.546875,0.421875
1696245727545,0.6882324,0.0072631836,0.68621826,4.5625,-2.765625,0.265625
1696245727563,0.7067871,-0.00982666,0.72869873,5.125,-1.609375,0.5
1696245727601,0.7109375,-0.0071411133,0.71014404,0.25,1.078125,0.234375
1696245727664,0.7121582,-0.0095825195,0.7045288,-0.234375,-2.484375,0.796875
1696245727680,0.70288086,-0.004211426,0.730896,-0.21875,-1.609375,0.9375
1696245727744,0.7089844,-0.009338379,0.7694702,-0.515625,-0.515625,0.296875
1696245727762,0.69921875,-0.0064086914,0.72698975,-1.0,-2.015625,0.015625
1696245727823,0.7026367,-0.0029907227,0.7352905,-0.78125,-2.1875,-0.46875
1696245727843,0.6984863,-0.014465332,0.75579834,-1.296875,-1.515625,-0.578125
1696245727885,0.6984863,-0.029846191,0.7506714,-1.171875,-0.328125,-1.140625
1696245727943,0.69970703,-0.0115356445,0.7531128,0.28125,0.75,-0.84375
1696245727961,0.7121582,-0.02130127,0.743103,-0.546875,1.453125,-0.71875
1696245728003,0.7194824,-0.010803223,0.7584839,0.453125,2.3125,0.375
1696245728065,0.7138672,-0.020080566,0.74334717,0.453125,1.984375,0.8125
1696245728080,0.748291,-0.030334473,0.7872925,-0.75,5.5,0.171875
1696245728148,0.75390625,-0.03302002,0.76849365,-2.6875,3.484375,0.078125
1696245728161,0.7458496,-0.011047363,0.7406616,-3.46875,1.765625,0.25
1696245728203,0.74316406,-0.0012817383,0.7296753,-2.921875,1.875,0.875
1696245728244,0.7290039,-0.0064086914,0.7157593,-2.4375,1.21875,1.328125
1696245728282,0.7458496,0.007019043,0.7213745,-1.75,1.78125,1.75
1696245728322,0.7067871,0.010437012,0.6832886,-1.34375,-1.453125,2.21875
1696245728385,0.70825195,0.01751709,0.7111206,-0.21875,-1.25,0.953125
1696245728389,0.70288086,0.01361084,0.6935425,-0.328125,-2.078125,0.515625
1696245728422,0.7077637,0.018249512,0.7316284,0.78125,-1.703125,-0.3125
1696245728462,0.7062988,0.018737793,0.7189331,0.875,-2.03125,-0.421875
1696245728504,0.70825195,0.0026245117,0.7379761,1.25,-3.078125,-0.28125
1696245728542,0.7216797,0.005554199,0.75701904,-0.1875,0.296875,-0.390625
1696245728584,0.701416,0.005554199,0.715271,-2.015625,-0.796875,0.828125
1696245728621,0.70043945,0.0045776367,0.7435913,-0.71875,-2.140625,0.078125
1696245728663,0.69555664,0.01776123,0.70770264,-0.875,-1.984375,-0.28125
1696245728701,0.69433594,0.024353027,0.6954956,2.421875,-2.421875,0.578125
1696245728744,0.68725586,0.030456543,0.6911011,4.25,-1.90625,0.578125
1696245728794,0.69555664,0.007507324,0.6906128,5.390625,0.046875,0.640625
1696245728823,0.6843262,0.0014038086,0.6725464,5.703125,-3.4375,0.140625
1696245728886,0.68969727,-0.010559082,0.6906128,0.59375,-5.4375,-0.4375
1696245728904,0.7290039,-0.014221191,0.7445679,-2.109375,-0.734375,-0.671875
1696245728944,0.71533203,0.001159668,0.75042725,-0.875,-0.734375,-0.203125
1696245728982,0.7404785,-0.004211426,0.7711792,1.765625,1.90625,0.96875
1696245729022,0.7207031,-0.011291504,0.7601929,0.453125,-0.09375,1.921875
1696245729065,0.7026367,-0.023498535,0.74432373,-1.6875,-1.390625,0.8125
1696245729102,0.69799805,-0.015930176,0.73895264,-2.078125,-1.734375,0.359375
1696245729142,0.6777344,-0.0044555664,0.7296753,-1.859375,-1.65625,0.421875
1696245729182,0.68774414,0.0060424805,0.7289429,-1.515625,-0.59375,-0.0625
1696245729222,0.6945801,0.0079956055,0.74212646,-0.375,0.578125,-0.609375
1696245729262,0.72094727,0.001159668,0.75653076,0.390625,1.078125,-0.46875
1696245729303,0.7224121,-0.004211426,0.7506714,0.46875,1.640625,-0.3125
1696245729343,0.7373047,-0.012756348,0.7633667,0.375,1.828125,0.0625
1696245729386,0.7663574,-0.02178955,0.7970581,-0.8125,5.078125,-0.109375
1696245729421,0.75146484,-0.02178955,0.74017334,-2.875,2.0625,0.515625
1696245729462,0.73168945,-0.004211426,0.73651123,-2.203125,0.296875,1.25
1696245729504,0.7128906,0.0079956055,0.7453003,-1.3125,0.875,0.875
1696245729543,0.7062988,-3.0517578E-4,0.7189331,-2.828125,1.25,-0.5
1696245729582,0.7219238,0.01727295,0.6942749,-1.5625,0.125,-1.03125
1696245729623,0.71899414,0.019226074,0.69207764,0.421875,-0.6875,0.328125
1696245729663,0.71362305,0.0033569336,0.7003784,1.21875,0.0625,0.4375
1696245729682,0.72436523,0.0033569336,0.71429443,2.03125,0.5625,-0.03125
1696245729722,0.7216797,0.0018920898,0.7206421,2.171875,0.0625,0.109375
1696245729762,0.7258301,-0.0044555664,0.7301636,2.53125,-0.5625,0.015625
1696245729825,0.71069336,-0.007385254,0.7223511,1.890625,-2.28125,-0.5
1696245729841,0.7080078,-0.0032348633,0.7164917,2.15625,-2.453125,-1.296875
1696245729883,0.7246094,0.0026245117,0.7079468,3.171875,-2.640625,-0.859375
1696245729924,0.7133789,-0.003967285,0.7040405,3.75,-3.4375,0.390625
1696245729965,0.6999512,-0.008605957,0.69989014,3.390625,-3.296875,0.375
1696245730004,0.6940918,-0.008605957,0.69696045,3.0625,-2.609375,0.28125
1696245730041,0.68310547,0.0033569336,0.6847534,2.671875,-1.78125,1.109375
1696245730083,0.69799805,-0.014221191,0.70599365,5.5625,1.328125,1.4375
1696245730125,0.6984863,-0.029846191,0.7086792,4.546875,0.109375,0.34375
1696245730163,0.70410156,-0.036193848,0.70062256,0.90625,-1.953125,0.078125
1696245730202,0.6984863,-0.038146973,0.73309326,-1.140625,-3.859375,-0.109375
1696245730265,0.7077637,-0.02911377,0.7184448,-5.203125,-3.234375,-0.5
1696245730281,0.71240234,-0.026428223,0.76239014,-3.96875,-1.4375,-0.078125
1696245730321,0.7077637,-0.027160645,0.7428589,-4.40625,-2.921875,0.203125
1696245730385,0.7145996,-0.010314941,0.7567749,-3.875,-0.0625,-0.1875
1696245730401,0.7038574,-0.02960205,0.7562866,-2.328125,0.8125,-0.25
1696245730466,0.7097168,-0.02154541,0.746521,-0.84375,0.40625,-0.046875
1696245730481,0.7155762,-0.020568848,0.74871826,0.4375,0.0,-0.0625
1696245730542,0.6965332,-0.027893066,0.7404175,-1.90625,0.546875,0.0625
1696245730562,0.7109375,-0.010314941,0.727478,-2.984375,0.453125,-0.328125
1696245730624,0.7138672,-0.0020141602,0.7470093,-1.265625,0.171875,-0.078125
1696245730640,0.717041,-0.008605957,0.73065186,-1.640625,1.75,0.265625
1696245730683,0.7155762,-0.0022583008,0.74139404,0.65625,1.0,0.375
1696245730725,0.71875,-0.013000488,0.74554443,0.78125,1.25,0.5
1696245730785,0.7451172,-0.028137207,0.7850952,-0.84375,3.390625,1.015625
1696245730802,0.7258301,-0.01739502,0.7460327,-2.3125,1.671875,0.90625
1696245730842,0.73999023,-5.493164E-4,0.73773193,-3.390625,1.625,1.03125
1696245730884,0.72631836,-0.0032348633,0.7279663,-2.71875,1.1875,1.21875
1696245730923,0.7307129,0.005065918,0.7147827,-2.265625,0.328125,0.984375
1696245730965,0.7199707,0.015319824,0.71917725,-1.1875,0.625,0.59375
1696245731003,0.71191406,0.0072631836,0.70526123,-0.609375,-0.546875,0.125
1696245731022,0.717041,0.015075684,0.713562,-0.21875,-0.109375,0.0
1696245731063,0.72021484,0.0040893555,0.69744873,-0.796875,-0.171875,-0.578125
1696245731102,0.72753906,0.01776123,0.70770264,-0.203125,-1.125,-0.234375
1696245731145,0.7138672,0.011413574,0.72698975,0.890625,0.265625,0.375
1696245731182,0.71899414,0.003112793,0.7328491,0.953125,-1.453125,0.140625
1696245731224,0.71435547,-0.0029907227,0.7081909,0.421875,-1.171875,-0.390625
1696245731264,0.71875,0.01361084,0.72283936,1.703125,-0.421875,-0.75
1696245731304,0.72143555,0.010681152,0.7098999,3.25,-1.03125,0.375
1696245731344,0.7060547,-0.0017700195,0.7172241,2.8125,-0.9375,0.640625
1696245731384,0.70654297,-0.0015258789,0.71258545,1.4375,-1.46875,0.4375
1696245731422,0.701416,6.713867E-4,0.70233154,0.234375,-1.171875,0.34375
1696245731462,0.70996094,0.0021362305,0.7225952,0.953125,-2.21875,0.59375
1696245731502,0.6945801,0.006286621,0.7050171,0.375,-4.109375,0.6875
1696245731543,0.69189453,0.013366699,0.69818115,1.203125,-2.609375,0.375
1696245731582,0.68774414,0.008972168,0.6884155,2.3125,-4.359375,0.453125
1696245731623,0.6994629,-0.01763916,0.72576904,3.328125,-1.375,-0.1875
1696245731664,0.7277832,-0.016906738,0.744812,2.5,1.09375,-0.703125
1696245731702,0.7219238,-0.019348145,0.7225952,1.375,-0.890625,-0.125
1696245731743,0.72924805,-0.01373291,0.7506714,1.734375,-0.671875,0.984375
1696245731783,0.70581055,-0.0178833,0.7357788,0.4375,-1.578125,1.28125
1696245731822,0.6945801,-0.015686035,0.7194214,-2.046875,-3.5625,0.765625
1696245731862,0.70166016,-0.012756348,0.7572632,-1.046875,-1.859375,0.390625
1696245731906,0.6904297,-0.013000488,0.7238159,-3.1875,-0.625,-0.078125
1696245731943,0.6958008,-0.00592041,0.73846436,-2.203125,-0.359375,-0.3125
1696245731984,0.70214844,-0.006164551,0.7440796,-1.703125,-0.375,-0.546875
1696245732024,0.7036133,-0.020324707,0.7626343,-1.734375,0.359375,-0.515625
1696245732062,0.7138672,-0.007873535,0.7562866,-1.15625,0.828125,-0.625
1696245732102,0.7375488,-0.019836426,0.75701904,-0.3125,1.171875,-0.09375
1696245732142,0.7319336,-0.011291504,0.75164795,0.171875,1.640625,0.625
1696245732183,0.71362305,-0.0134887695,0.7440796,-0.765625,1.90625,1.171875
1696245732222,0.7253418,-0.00592041,0.7523804,-2.34375,4.03125,0.859375
1696245732263,0.73291016,-0.015686035,0.7560425,-2.21875,1.953125,0.828125
1696245732325,0.7167969,-0.002746582,0.7272339,-3.765625,0.703125,0.890625
1696245732342,0.7180176,0.0138549805,0.7223511,-3.328125,-1.125,1.171875
1696245732367,0.7260742,0.014587402,0.7304077,-1.6875,0.234375,1.0625
1696245732403,0.71728516,0.016052246,0.72821045,-1.359375,-0.15625,1.09375
1696245732442,0.7192383,0.017028809,0.71746826,-0.875,-0.59375,0.921875
1696245732484,0.717041,0.01751709,0.71698,0.5625,0.125,0.03125
1696245732524,0.71435547,0.0099487305,0.72332764,0.5625,-0.40625,-0.1875
1696245732583,0.720459,0.0119018555,0.7211304,1.1875,-0.703125,-0.296875
1696245732625,0.72387695,0.011657715,0.73309326,1.625,0.515625,0.109375
1696245732641,0.71899414,0.019226074,0.7328491,1.984375,0.234375,0.671875
1696245732704,0.7246094,0.012390137,0.7194214,2.1875,0.234375,1.3125
1696245732742,0.717041,0.012145996,0.7086792,2.265625,0.5,1.46875
1696245732783,0.6984863,0.011169434,0.70355225,2.25,0.375,1.703125
1696245732803,0.7133789,0.0033569336,0.7316284,1.21875,-1.296875,0.921875
1696245732863,0.7036133,0.0036010742,0.6954956,0.046875,-2.109375,0.234375
1696245732881,0.71313477,0.014587402,0.70843506,0.59375,-2.203125,-0.375
1696245732945,0.6989746,0.014587402,0.70770264,0.4375,-3.25,-0.109375
1696245732963,0.6940918,0.00970459,0.71307373,-0.40625,-3.15625,-0.109375
1696245733025,0.69555664,0.01776123,0.7164917,1.15625,-1.328125,-0.03125
1696245733040,0.68530273,-7.9345703E-4,0.68670654,2.828125,-2.515625,-0.34375
1696245733104,0.71118164,-0.009338379,0.73480225,3.90625,0.1875,-0.578125
1696245733122,0.7102051,-0.0115356445,0.7172241,2.328125,-0.703125,0.328125
1696245733162,0.72143555,-0.016906738,0.732605,0.1875,-0.59375,-0.1875
1696245733203,0.70825195,-3.0517578E-4,0.7394409,-1.046875,-2.453125,0.484375
1696245733243,0.703125,0.0072631836,0.7321167,-2.703125,-3.671875,1.125
1696245733282,0.7019043,-0.0015258789,0.73602295,-3.5625,-4.09375,0.421875
1696245733322,0.685791,0.002380371,0.7333374,-2.859375,-4.140625,-0.4375
1696245733394,0.6906738,-0.0017700195,0.74798584,-1.40625,-2.21875,-0.859375
1696245733401,0.6960449,-0.0076293945,0.75115967,-0.453125,-1.015625,-1.4375
1696245733442,0.70703125,-0.0064086914,0.76434326,0.546875,-0.359375,-1.28125
1696245733482,0.7133789,-0.010314941,0.76312256,-0.15625,1.703125,-1.65625
1696245733524,0.7199707,-0.01373291,0.75408936,-1.015625,1.875,-1.078125
1696245733561,0.7233887,-0.008605957,0.7550659,-2.125,1.5,-0.46875
1696245733665,0.7141113,-0.011291504,0.7609253,-0.359375,2.15625,-0.34375
1696245733670,0.7114258,-0.0037231445,0.7514038,-0.40625,1.90625,-0.3125
1696245733672,0.7438965,-0.014953613,0.78778076,-1.859375,4.671875,0.203125
1696245733701,0.73461914,-0.0051879883,0.7567749,-2.515625,1.828125,0.96875
1696245733744,0.7224121,-0.0029907227,0.7333374,-3.203125,1.328125,1.28125
1696245733782,0.7097168,0.0060424805,0.72528076,-2.71875,0.171875,1.734375
1696245733822,0.71362305,0.008972168,0.7272339,-1.59375,1.671875,1.5
1696245733863,0.71533203,0.015808105,0.7213745,-0.015625,0.765625,0.828125
1696245733902,0.7194824,0.007019043,0.7189331,1.21875,-0.640625,0.53125
1696245733942,0.7224121,0.0021362305,0.7147827,0.40625,-0.078125,0.203125
1696245733981,0.7072754,0.01361084,0.71673584,1.09375,-0.625,0.421875
1696245734023,0.71069336,0.014343262,0.7184448,1.25,-0.390625,0.1875
1696245734066,0.7141113,0.009460449,0.7218628,0.765625,-0.375,-0.171875
1696245734103,0.71484375,0.01776123,0.72406006,1.0,-0.171875,0.046875
1696245734143,0.71899414,0.0014038086,0.72161865,1.359375,-0.484375,0.15625
1696245734182,0.7241211,-0.0044555664,0.7218628,1.03125,-0.5,0.34375
1696245734223,0.7175293,-0.0029907227,0.72283936,1.03125,-0.671875,0.453125
1696245734266,0.71240234,0.011657715,0.71868896,0.828125,-0.390625,0.625
1696245734303,0.70996094,4.272461E-4,0.72161865,2.203125,-0.15625,0.765625
1696245734343,0.7224121,-3.0517578E-4,0.7160034,1.875,-2.5,0.6875
1696245734380,0.7060547,0.008972168,0.71551514,2.078125,-0.046875,0.53125
1696245734424,0.7141113,-0.0010375977,0.73553467,1.5625,-2.0,0.109375
1696245734462,0.7062988,0.0038452148,0.71209717,0.640625,-2.890625,-0.265625
1696245734502,0.6879883,0.027770996,0.70526123,0.671875,-2.09375,0.15625
1696245734545,0.703125,0.003112793,0.7025757,2.96875,-1.421875,0.609375
1696245734583,0.7067871,-0.00982666,0.6984253,3.65625,-0.671875,0.3125
1696245734623,0.7055664,-0.009338379,0.7164917,3.1875,-0.421875,0.6875
1696245734664,0.69750977,-0.019836426,0.70184326,-1.078125,-2.265625,0.21875
1696245734702,0.71972656,-0.027404785,0.7514038,-3.078125,0.5625,0.0625
1696245734745,0.71362305,6.713867E-4,0.73724365,-4.203125,-1.234375,-0.53125
1696245734785,0.7297363,0.001159668,0.75531006,-2.84375,1.828125,-0.078125
1696245734822,0.72021484,0.0038452148,0.7333374,-1.78125,-2.59375,0.578125
1696245734863,0.68066406,0.0038452148,0.7160034,-2.078125,-5.046875,1.015625
1696245734904,0.6765137,1.8310547E-4,0.73114014,-2.9375,-4.1875,-0.109375
1696245734942,0.68530273,0.0065307617,0.7350464,-2.4375,-3.015625,-1.15625
1696245734984,0.7116699,0.008972168,0.7597046,-0.765625,-0.984375,-0.78125
1696245735002,0.7126465,0.003112793,0.7548218,0.1875,-1.984375,0.21875
1696245735065,0.7102051,-0.0032348633,0.7575073,0.71875,-0.5,0.53125
1696245735082,0.7072754,-0.0068969727,0.776062,0.359375,-0.125,0.140625
1696245735122,0.7167969,6.713867E-4,0.7626343,0.25,1.15625,-0.3125
1696245735181,0.7182617,-0.0064086914,0.7418823,-1.15625,1.953125,0.15625
1696245735201,0.7229004,-0.010559082,0.77923584,-0.515625,5.1875,0.359375
1696245735244,0.7236328,-0.02154541,0.76556396,-0.0625,3.703125,0.65625
1696245735283,0.7233887,0.005554199,0.7321167,-2.5625,2.203125,1.03125
1696245735324,0.7246094,0.010681152,0.7440796,-1.40625,2.828125,0.859375
1696245735383,0.7426758,0.0033569336,0.72821045,-1.671875,2.546875,0.890625
1696245735403,0.7126465,0.01776123,0.7157593,-1.15625,-0.109375,1.390625
1696245735442,0.70214844,0.016296387,0.7074585,-0.921875,-0.59375,0.625
1696245735483,0.7126465,0.011413574,0.7103882,1.09375,0.0,0.40625
1696245735522,0.7019043,0.01361084,0.71673584,0.859375,-0.046875,0.40625
1696245735563,0.70166016,0.012390137,0.7020874,1.515625,-2.046875,0.0625
1696245735609,0.7055664,0.0138549805,0.715271,1.78125,-1.203125,-0.484375
1696245735642,0.7102051,0.009216309,0.72283936,1.4375,-1.9375,-0.21875
1696245735683,0.7182617,0.004333496,0.7223511,0.0,-1.78125,-0.1875
1696245735745,0.7133789,0.009460449,0.71673584,-0.859375,-2.625,-0.28125
1696245735763,0.7019043,0.015075684,0.7196655,-1.40625,-3.140625,-0.578125
1696245735823,0.7092285,0.011657715,0.72283936,0.265625,-2.171875,-0.875
1696245735846,0.70703125,0.014343262,0.70965576,1.625,-1.859375,0.015625
1696245735904,0.6879883,0.011413574,0.7116089,2.828125,-1.921875,0.625
1696245735921,0.6928711,0.007019043,0.68914795,3.1875,-0.546875,0.296875
1696245735984,0.68603516,-0.007385254,0.67767334,2.859375,-2.640625,0.203125
1696245736004,0.72680664,-0.008117676,0.73480225,0.703125,-0.1875,-0.328125
1696245736064,0.70825195,0.0018920898,0.7457886,-0.203125,-2.484375,-0.671875
1696245736102,0.70092773,-0.006652832,0.73895264,0.109375,-2.734375,-0.015625
1696245736121,0.703125,-6.1035156E-5,0.7477417,0.125,-2.671875,-0.171875
1696245736163,0.70214844,0.0016479492,0.74554443,-0.390625,-3.125,-0.515625
1696245736203,0.6972656,-0.007873535,0.75164795,-1.296875,-2.921875,-0.671875
1696245736266,0.69091797,-0.019592285,0.73846436,-1.828125,-2.859375,-0.390625
1696245736272,0.6904297,-0.006652832,0.7394409,-2.09375,-0.78125,-0.46875
1696245736301,0.6933594,-7.9345703E-4,0.7572632,-0.09375,1.21875,-0.546875
1696245736342,0.7084961,-0.018615723,0.75775146,1.109375,1.09375,-0.28125
1696245736383,0.71435547,-0.008117676,0.7616577,1.21875,1.125,-0.25
1696245736426,0.71362305,-0.014953613,0.7562866,1.515625,0.59375,0.3125
1696245736484,0.7180176,-0.013244629,0.7536011,0.640625,0.984375,0.71875
1696245736500,0.7145996,-0.024230957,0.74823,-1.0625,2.46875,0.578125
1696245736543,0.7270508,-0.015930176,0.76434326,-0.859375,2.890625,0.453125
1696245736585,0.72143555,-0.0095825195,0.74505615,-2.078125,2.6875,0.578125
1696245736626,0.72314453,-0.0068969727,0.7357788,-2.578125,1.9375,0.5625
1696245736664,0.720459,-0.009338379,0.7196655,-2.03125,1.25,0.75
1696245736703,0.7109375,-0.0012817383,0.72210693,-0.5625,0.96875,0.203125
1696245736764,0.7297363,0.004333496,0.71868896,0.125,2.0,-0.34375
1696245736781,0.7331543,-0.0015258789,0.7028198,-0.984375,1.109375,0.25
1696245736822,0.71313477,-0.007873535,0.7194214,0.234375,-0.6875,0.640625
1696245736884,0.7114258,0.0014038086,0.7238159,-0.140625,-0.734375,-0.21875
1696245736902,0.7102051,-0.003967285,0.7094116,-0.609375,-1.40625,-0.25
1696245736967,0.7126465,0.013122559,0.72772217,0.625,-0.6875,-0.546875
1696245736981,0.7233887,0.00579834,0.72943115,1.21875,0.140625,0.40625
1696245737022,0.71484375,-6.1035156E-5,0.7128296,1.28125,-0.671875,0.34375
1696245737065,0.7248535,-0.0029907227,0.7243042,2.078125,0.0625,0.09375
1696245737125,0.7060547,-0.0012817383,0.713562,2.125,-0.1875,0.375
1696245737142,0.71240234,-0.00592041,0.7230835,2.296875,-0.6875,0.4375
1696245737183,0.70874023,-0.011047363,0.71624756,1.046875,-2.328125,0.171875
1696245737243,0.7055664,-0.005432129,0.71502686,1.15625,-2.234375,-0.078125
1696245737283,0.7055664,0.0079956055,0.71258545,1.765625,-2.796875,0.140625
1696245737302,0.6916504,0.008239746,0.70062256,1.015625,-3.609375,0.796875
1696245737363,0.6972656,-0.0012817383,0.71917725,2.015625,0.140625,0.5625
1696245737381,0.6923828,-0.018371582,0.6989136,3.734375,-2.390625,-0.0625
1696245737422,0.7080078,-0.019836426,0.74554443,4.921875,0.28125,0.21875
1696245737465,0.7092285,-0.03765869,0.69647217,1.484375,-1.0,0.015625
1696245737502,0.703125,-0.034729004,0.70721436,-0.375,-3.421875,0.3125
1696245737545,0.7072754,-0.02178955,0.73968506,-3.046875,-0.390625,-0.484375
1696245737583,0.71313477,-0.011291504,0.75653076,-2.359375,-0.890625,-0.75
1696245737604,0.71362305,-0.020568848,0.7382202,-1.53125,-1.34375,-0.921875
1696245737643,0.70336914,-0.013000488,0.72991943,-1.453125,-2.921875,-0.34375
1696245737683,0.71899414,-0.017150879,0.75946045,-0.125,-1.8125,0.1875
1696245737725,0.701416,-0.023742676,0.7404175,-1.21875,-3.109375,1.4375
1696245737765,0.68408203,-0.015930176,0.7435913,-2.1875,-3.6875,1.75
1696245737802,0.6875,-0.013977051,0.746521,-3.0,-1.015625,0.890625
1696245737843,0.6960449,-0.0049438477,0.7501831,-2.78125,0.453125,0.4375
1696245737884,0.7043457,-0.010803223,0.76483154,-0.421875,0.171875,0.046875
1696245737922,0.7109375,-0.01373291,0.7579956,0.1875,1.8125,-0.6875
1696245737962,0.7236328,-0.014465332,0.7650757,1.1875,2.34375,0.03125
1696245738002,0.7409668,-0.02911377,0.78338623,-0.75,6.40625,0.28125
1696245738041,0.7546387,-0.030090332,0.77801514,-1.265625,5.484375,0.734375
1696245738084,0.7451172,-0.0134887695,0.7489624,-2.5625,3.296875,1.5625
1696245738123,0.732666,-5.493164E-4,0.71624756,-1.859375,1.9375,1.890625
1696245738162,0.71850586,4.272461E-4,0.7069702,-0.828125,1.265625,1.6875
1696245738205,0.7265625,0.008483887,0.7069702,0.21875,-0.1875,2.3125
1696245738244,0.7067871,0.016052246,0.7025757,0.171875,-1.09375,1.453125
1696245738282,0.6923828,0.01361084,0.6779175,-0.421875,-0.546875,0.65625
1696245738323,0.69750977,0.01727295,0.73309326,1.671875,-0.90625,0.078125
1696245738362,0.70410156,-3.0517578E-4,0.7194214,1.03125,-1.84375,-0.5
1696245738402,0.7067871,0.0067749023,0.7235718,0.453125,-1.46875,-0.859375
1696245738442,0.71777344,0.002380371,0.7362671,0.875,-1.8125,-0.734375
1696245738484,0.71606445,-0.0029907227,0.72650146,0.328125,-1.296875,0.046875
1696245738521,0.70532227,0.0036010742,0.7260132,0.203125,-1.40625,0.296875
1696245738563,0.7126465,-5.493164E-4,0.7086792,0.21875,-1.296875,0.125
1696245738602,0.6972656,0.0038452148,0.7055054,1.03125,-1.40625,0.203125
1696245738643,0.7060547,-0.002746582,0.72332764,2.234375,-1.390625,-0.09375
1696245738685,0.7050781,-0.0015258789,0.71624756,1.78125,-1.90625,-0.25
1696245738727,0.69384766,0.001159668,0.7140503,2.171875,-2.28125,0.3125
1696245738763,0.6923828,0.0119018555,0.7081909,2.015625,-1.15625,0.75
1696245738805,0.7019043,-0.0037231445,0.70843506,5.171875,-2.59375,0.53125
1696245738843,0.7055664,-0.019348145,0.7128296,3.140625,-0.1875,0.234375
1696245738923,0.7102051,-0.027160645,0.74993896,2.359375,1.328125,-0.078125
1696245738928,0.7097168,-0.030334473,0.6935425,-0.78125,-1.1875,0.046875
1696245738944,0.7011719,-0.012512207,0.7267456,-0.40625,-2.375,1.0625
1696245739023,0.6945801,-0.012268066,0.7328491,-2.703125,-2.703125,0.921875
1696245739027,0.6875,-0.012756348,0.76556396,-2.890625,0.296875,0.4375
1696245739061,0.6970215,-0.008361816,0.73480225,-2.4375,-1.328125,-1.0
1696245739104,0.70410156,-0.0049438477,0.7250366,-1.578125,-2.25,-1.046875
1696245739164,0.7114258,-0.01763916,0.7536011,-1.0,-1.625,-0.578125
1696245739182,0.70874023,-0.024475098,0.7494507,-1.328125,-1.3125,-0.5625
1696245739223,0.7089844,-0.020080566,0.7597046,-0.84375,0.140625,-0.59375
1696245739264,0.7233887,-0.013977051,0.7509155,-0.796875,1.46875,-0.34375
1696245739323,0.7080078,-0.010070801,0.7472534,-0.328125,1.328125,0.484375
1696245739341,0.7175293,-0.01739502,0.7579956,0.9375,0.921875,0.234375
1696245739383,0.71655273,-0.011047363,0.7484741,0.53125,1.40625,-0.515625
1696245739444,0.7290039,-0.015930176,0.758728,0.109375,2.109375,-0.28125
1696245739461,0.74902344,-0.035705566,0.78167725,-1.234375,3.0,-0.140625
1696245739503,0.74438477,-0.020080566,0.7514038,-2.703125,1.234375,0.078125
1696245739543,0.7307129,-0.015686035,0.7435913,-1.328125,-0.25,0.78125
1696245739605,0.7150879,-0.0049438477,0.7184448,-1.265625,-0.4375,0.984375
1696245739622,0.7062988,9.1552734E-4,0.7086792,-1.5625,-0.8125,1.109375
1696245739664,0.6994629,0.005065918,0.71624756,-0.328125,-1.21875,0.859375
1696245739703,0.71069336,0.006286621,0.7050171,-1.140625,-0.390625,0.515625
1696245739742,0.6977539,0.003112793,0.6893921,-1.578125,1.34375,0.171875
1696245739807,0.70703125,0.010681152,0.7440796,0.8125,0.3125,0.3125
1696245739822,0.6984863,-0.0037231445,0.7289429,0.09375,-1.46875,-0.078125
1696245739863,0.71313477,-0.004211426,0.73065186,0.125,-0.609375,-0.890625
1696245739903,0.7229004,0.005554199,0.73236084,0.84375,-0.78125,-0.25
1696245739944,0.73535156,-0.013977051,0.7367554,0.671875,-1.09375,0.359375
1696245740003,0.7102051,-0.004699707,0.72039795,0.171875,-1.8125,0.359375
1696245740022,0.71069336,-0.0017700195,0.7067261,-0.46875,-1.046875,0.578125
1696245740063,0.6960449,-0.00592041,0.7177124,0.546875,-0.921875,0.703125
1696245740124,0.6916504,0.0065307617,0.73187256,1.296875,-1.40625,0.265625
1696245740143,0.6921387,0.001159668,0.7218628,2.546875,-2.015625,0.421875
1696245740205,0.69555664,0.011413574,0.7111206,3.21875,-1.296875,0.6875
1696245740223,0.71362305,-5.493164E-4,0.7247925,5.3125,-0.0625,0.890625
1696245740242,0.6911621,-0.018371582,0.69573975,4.578125,-2.03125,0.8125
1696245740283,0.6965332,-0.013244629,0.6864624,0.15625,-4.0625,0.4375
1696245740323,0.6960449,-0.021057129,0.73187256,-1.65625,-1.84375,-0.265625
1696245740365,0.71313477,-0.022521973,0.7304077,-3.640625,-0.734375,-1.296875
1696245740410,0.70214844,-6.1035156E-5,0.74261475,-3.140625,-2.71875,-0.21875
1696245740441,0.7104492,0.0040893555,0.74139404,-3.140625,-2.09375,0.625
1696245740483,0.69311523,-0.0076293945,0.7716675,-1.609375,-2.46875,0.390625
1696245740524,0.6982422,-0.0115356445,0.76361084,-1.484375,-1.4375,-0.140625
1696245740565,0.6982422,-7.9345703E-4,0.76116943,-0.84375,-0.328125,-0.53125
1696245740610,0.7026367,0.001159668,0.7484741,-0.078125,-0.78125,0.03125
1696245740641,0.7006836,-0.015930176,0.7536011,-0.3125,-0.25,0.015625
1696245740683,0.6999512,-0.014221191,0.7555542,-0.796875,0.328125,-0.125
1696245740722,0.70336914,-3.0517578E-4,0.7457886,-1.359375,1.4375,0.046875
1696245740764,0.70703125,-0.0056762695,0.74749756,-0.59375,1.15625,0.390625
1696245740803,0.70825195,0.0021362305,0.75335693,0.515625,0.28125,0.5
1696245740842,0.70996094,-0.0071411133,0.74993896,-0.046875,0.875,0.1875
1696245740883,0.7104492,-0.008361816,0.7506714,-0.765625,-0.125,0.625
1696245740925,0.7258301,-0.02178955,0.76971436,-0.859375,1.390625,0.203125
1696245740964,0.7097168,-3.0517578E-4,0.75531006,-2.40625,1.453125,0.125
1696245741003,0.7219238,9.1552734E-4,0.746521,-2.375,1.171875,0.53125
1696245741046,0.70947266,-0.0051879883,0.7379761,-1.890625,1.390625,0.078125
1696245741083,0.71313477,1.8310547E-4,0.7357788,-0.40625,1.4375,0.109375
1696245741122,0.71875,-0.010070801,0.72991943,-0.3125,2.375,0.46875
1696245741165,0.7331543,-0.0012817383,0.72650146,-0.453125,1.546875,1.125
1696245741203,0.7092285,0.00579834,0.71990967,0.09375,1.265625,1.515625
1696245741241,0.70410156,0.027038574,0.7067261,0.375,2.328125,1.46875
1696245741284,0.704834,0.016540527,0.7382202,0.921875,0.921875,0.234375
1696245741323,0.71899414,0.010681152,0.7062378,0.0625,-0.453125,-0.375
1696245741362,0.7248535,0.01727295,0.71624756,0.890625,-0.203125,-0.546875
1696245741403,0.7224121,0.013122559,0.72698975,2.5,-0.671875,-0.34375
1696245741443,0.72143555,-0.0115356445,0.7079468,1.875,-1.140625,-0.0625
1696245741483,0.71435547,-0.0064086914,0.7255249,1.359375,-1.34375,0.046875
1696245741524,0.7155762,-0.01373291,0.69573975,-1.390625,-1.921875,-0.109375
1696245741541,0.70581055,0.0036010742,0.71795654,-2.203125,-2.734375,0.015625
1696245741583,0.70947266,0.0045776367,0.71917725,-1.125,-3.109375,-0.0625
1696245741622,0.7001953,0.020935059,0.7147827,-0.03125,-2.65625,0.03125
1696245741688,0.7001953,0.024841309,0.71624756,1.859375,-2.328125,0.640625
1696245741701,0.7023926,0.008239746,0.7160034,2.59375,-0.546875,0.40625
1696245741743,0.70825195,-0.008361816,0.7194214,4.390625,-0.296875,0.328125
1696245741782,0.6887207,-0.012023926,0.6889038,4.296875,-2.734375,0.4375
1696245741843,0.6989746,-0.016906738,0.74798584,2.8125,-2.1875,0.5625
1696245741862,0.7233887,-0.006652832,0.72943115,-2.109375,-0.296875,-0.109375
1696245741904,0.70947266,-0.006652832,0.713562,-1.5,-2.1875,-0.0625
1696245741943,0.7019043,0.002380371,0.74505615,-0.1875,-1.53125,0.90625
1696245742006,0.70092773,-0.0017700195,0.75531006,0.0,-2.71875,0.671875
1696245742042,0.68847656,-0.008361816,0.7328491,-1.328125,-3.515625,-0.3125
1696245742061,0.7001953,-0.0044555664,0.74676514,-0.3125,-2.046875,-0.515625
1696245742104,0.70751953,-0.020812988,0.7509155,-1.28125,-2.09375,0.1875
1696245742145,0.68530273,-0.009338379,0.7418823,-1.671875,-1.765625,0.09375
1696245742183,0.7038574,-0.0056762695,0.75701904,-0.515625,0.421875,-0.078125
1696245742224,0.7038574,-0.010559082,0.7536011,-0.640625,0.96875,0.015625
1696245742263,0.7043457,-7.9345703E-4,0.76116943,0.328125,0.359375,0.21875
1696245742306,0.70581055,-0.010803223,0.7489624,-0.171875,-0.1875,0.09375
1696245742342,0.70703125,9.1552734E-4,0.7555542,-0.234375,0.984375,-0.203125
1696245742385,0.703125,-0.008850098,0.74798584,0.296875,1.078125,0.640625
1696245742422,0.71606445,-0.008850098,0.7518921,0.0,2.4375,0.34375
1696245742463,0.7253418,-0.00982666,0.77459717,-2.21875,3.234375,0.796875
1696245742525,0.72558594,-0.0071411133,0.7601929,-1.765625,2.328125,0.578125
1696245742541,0.7294922,0.0038452148,0.73651123,-1.796875,2.125,0.625
1696245742584,0.71240234,-0.0032348633,0.7340698,-1.4375,0.796875,0.3125
1696245742625,0.7248535,0.007751465,0.7333374,-1.625,1.265625,-0.078125
1696245742687,0.72143555,0.011169434,0.7111206,-1.640625,0.875,0.265625
1696245742702,0.7038574,4.272461E-4,0.72528076,-0.90625,-0.234375,0.609375
1696245742764,0.6936035,-3.0517578E-4,0.71380615,-1.84375,-0.671875,0.359375
1696245742784,0.70654297,0.015319824,0.71502686,-1.015625,0.40625,-0.375
1696245742845,0.7158203,0.024353027,0.7352905,0.953125,0.359375,0.375
1696245742860,0.7224121,0.012390137,0.72528076,0.90625,-0.625,0.40625
1696245742883,0.7258301,0.015563965,0.7313843,1.09375,-0.921875,0.578125
1696245742923,0.71118164,0.0053100586,0.7074585,0.640625,-0.796875,0.65625
1696245742961,0.71191406,0.0048217773,0.7238159,1.359375,-0.71875,0.359375
1696245743004,0.7104492,6.713867E-4,0.73431396,1.734375,-1.46875,0.046875
1696245743043,0.7114258,-0.003479004,0.71258545,1.21875,-1.234375,0.0625
1696245743083,0.704834,0.0079956055,0.7184448,0.78125,-1.4375,-0.046875
1696245743123,0.71069336,-0.0032348633,0.7235718,0.34375,-0.75,-0.03125
1696245743162,0.71777344,0.0053100586,0.7211304,0.203125,-1.515625,-0.21875
1696245743204,0.7084961,0.016052246,0.7382202,0.328125,-1.28125,0.03125
1696245743242,0.71655273,-5.493164E-4,0.7164917,-0.046875,-0.65625,-0.09375
1696245743283,0.7155762,-0.0025024414,0.6976929,0.09375,-1.46875,-0.078125
1696245743323,0.7072754,-0.005432129,0.7477417,0.5625,-0.671875,-0.015625
1696245743365,0.7114258,-0.0076293945,0.73358154,-1.3125,-1.9375,-0.296875
1696245743403,0.704834,0.0033569336,0.72772217,-0.875,-1.21875,-0.59375
1696245743443,0.7089844,0.016784668,0.7223511,0.546875,-0.96875,-0.171875
1696245743484,0.7077637,0.0028686523,0.7321167,1.234375,-1.40625,-0.0625
1696245743525,0.69873047,0.0060424805,0.7243042,1.25,-1.25,0.296875
1696245743565,0.6970215,0.004333496,0.7267456,2.703125,0.171875,0.609375
1696245743604,0.69750977,-0.009338379,0.71014404,4.734375,1.578125,0.515625
1696245743643,0.6994629,-0.0095825195,0.7230835,6.09375,0.625,0.625
1696245743683,0.6982422,-0.02911377,0.69744873,4.34375,-2.4375,1.046875
1696245743724,0.7192383,-0.020812988,0.71917725,1.109375,0.03125,0.6875
1696245743762,0.7062988,-0.011779785,0.72943115,-0.5,-0.25,0.28125
1696245743802,0.704834,-0.012512207,0.7296753,-0.859375,-1.09375,-0.109375
1696245743842,0.7133789,-0.01373291,0.7230835,-0.890625,-0.71875,0.25
1696245743882,0.7089844,-0.014953613,0.75531006,-0.609375,0.9375,0.59375
1696245743923,0.7194824,-0.028137207,0.74139404,-0.578125,2.4375,-0.4375
1696245743961,0.7072754,-0.016662598,0.7040405,-1.234375,-1.15625,0.375
1696245744002,0.68847656,-0.02154541,0.7062378,-1.921875,-7.328125,1.875
1696245744043,0.66967773,-0.0115356445,0.74017334,-3.71875,-5.71875,0.484375
1696245744082,0.703125,-0.013000488,0.7572632,-3.375,-0.078125,-1.703125
1696245744124,0.7182617,0.0060424805,0.7496948,-2.03125,0.0,-1.65625
1696245744162,0.7253418,0.003112793,0.7453003,-0.1875,-1.140625,-0.234375
1696245744181,0.71728516,-0.026428223,0.76116943,0.703125,-0.375,-0.390625
1696245744224,0.7241211,-0.032287598,0.75653076,-0.9375,1.359375,-0.53125
1696245744282,0.73706055,-0.028381348,0.75897217,-1.859375,4.234375,0.234375
1696245744302,0.7404785,-0.02911377,0.79608154,-1.296875,3.203125,0.390625
1696245744346,0.7331543,-0.019592285,0.75579834,-3.125,0.859375,0.8125
1696245744387,0.71972656,-6.1035156E-5,0.7340698,-3.0,0.59375,0.703125
1696245744425,0.70874023,0.0119018555,0.71746826,-1.921875,-0.359375,0.765625
1696245744484,0.7138672,0.005065918,0.7211304,-1.375,-0.125,0.421875
1696245744501,0.717041,0.003112793,0.72210693,-1.125,-0.609375,0.25
1696245744544,0.6972656,1.8310547E-4,0.7147827,-1.625,-1.0,0.40625
1696245744585,0.7019043,0.008483887,0.7201538,-1.203125,-1.609375,0.53125
1696245744646,0.7055664,0.018493652,0.7352905,-0.921875,-0.890625,0.0625
1696245744661,0.6928711,0.023620605,0.72039795,0.140625,0.6875,0.3125
1696245744704,0.70410156,0.013366699,0.74383545,1.171875,-1.703125,-0.015625
1696245744744,0.70751953,-0.0010375977,0.7225952,-0.046875,-2.109375,-0.125
1696245744783,0.7055664,0.01361084,0.7328491,0.640625,-1.296875,-0.796875
1696245744824,0.7114258,0.011657715,0.7316284,0.9375,-1.5,-0.328125
1696245744882,0.7055664,0.0016479492,0.729187,0.71875,-1.921875,-0.1875
1696245744925,0.69262695,0.011169434,0.72991943,0.859375,-3.078125,-0.0625
1696245744942,0.6645508,0.016540527,0.6984253,0.21875,-0.796875,0.5625
1696245744985,0.6887207,0.014099121,0.727478,4.5625,-0.546875,0.921875
1696245745024,0.68896484,-0.0032348633,0.7194214,4.28125,-2.4375,0.609375
1696245745064,0.7080078,-0.008850098,0.7382202,2.421875,1.46875,0.25
1696245745104,0.70288086,-0.00592041,0.73846436,1.953125,-0.203125,0.125
1696245745142,0.6982422,-0.0049438477,0.72576904,0.859375,-2.6875,0.703125
1696245745205,0.7006836,-0.007385254,0.7453003,-0.765625,-2.984375,-0.03125
1696245745221,0.6855469,-0.0115356445,0.7382202,-2.28125,-3.03125,-0.15625
1696245745287,0.6894531,4.272461E-4,0.75994873,-1.03125,-3.40625,0.265625
1696245745301,0.70092773,-0.013244629,0.7523804,-1.84375,-1.375,-0.265625
1696245745365,0.701416,-0.00982666,0.74017334,-2.5,-0.21875,-0.1875
1696245745382,0.70092773,-0.0076293945,0.7572632,-0.40625,-0.328125,0.125
1696245745426,0.6958008,-0.016662598,0.75994873,0.515625,0.578125,0.203125
1696245745483,0.7019043,-0.026428223,0.76776123,0.359375,1.453125,0.0625
1696245745487,0.7133789,-0.0051879883,0.7543335,-0.75,1.140625,0.328125
1696245745523,0.7133789,-0.01373291,0.758728,-0.765625,0.609375,0.421875
1696245745603,0.71533203,-0.015930176,0.7628784,-2.28125,2.703125,-0.1875
1696245745607,0.7351074,-0.02130127,0.7885132,-1.03125,3.9375,-0.328125
1696245745643,0.7199707,-7.9345703E-4,0.7514038,-2.78125,1.96875,0.5625
1696245745684,0.7194824,-0.0020141602,0.7350464,-2.765625,1.171875,0.515625
1696245745723,0.71191406,0.0018920898,0.7262573,-3.0,0.734375,0.375
1696245745762,0.7158203,0.005065918,0.7340698,-1.8125,0.78125,0.890625
1696245745804,0.7072754,0.015808105,0.72772217,-0.453125,0.03125,0.453125
1696245745844,0.71655273,0.011413574,0.73065186,0.65625,0.71875,0.375
1696245745884,0.7060547,0.0036010742,0.73846436,1.59375,1.125,0.4375
1696245745924,0.7192383,0.013122559,0.75531006,3.375,2.578125,0.765625
1696245745965,0.7109375,0.008483887,0.72698975,4.296875,-0.15625,1.78125
1696245746004,0.7102051,0.0072631836,0.71990967,4.5,-1.046875,1.640625
1696245746044,0.70166016,-0.005432129,0.6937866,2.796875,-2.046875,1.265625
1696245746085,0.70581055,-0.0029907227,0.70843506,1.765625,-1.53125,0.59375
1696245746123,0.69091797,0.0021362305,0.71551514,1.796875,-0.359375,0.15625
1696245746163,0.70458984,-0.007873535,0.7316284,0.859375,-2.234375,-0.46875
1696245746203,0.6921387,-0.011291504,0.70233154,-0.40625,-2.84375,-0.5
1696245746244,0.69311523,0.011413574,0.71673584,0.5625,-2.296875,-0.625
1696245746283,0.7050781,0.007019043,0.72283936,0.75,-0.796875,0.015625
1696245746324,0.6945801,-0.0044555664,0.696228,3.640625,-1.75,0.21875
1696245746366,0.71118164,-0.011047363,0.72698975,3.953125,-0.65625,0.765625
1696245746402,0.7019043,-0.018371582,0.7040405,0.265625,-1.75,0.40625
1696245746446,0.6948242,-0.013977051,0.7350464,-0.640625,0.078125,0.671875
1696245746482,0.69799805,-0.010803223,0.73480225,-0.4375,-3.15625,0.484375
1696245746522,0.6916504,-0.007385254,0.7177124,-3.671875,-1.953125,0.0
1696245746563,0.6977539,-0.0025024414,0.7406616,-1.46875,-1.90625,-0.390625
1696245746602,0.7023926,-0.008605957,0.75042725,-1.296875,-3.03125,-0.234375
1696245746645,0.7084961,-0.013244629,0.7560425,-1.40625,-1.875,-0.640625
1696245746684,0.70751953,-0.014465332,0.7592163,-1.984375,-0.703125,-1.25
1696245746724,0.70825195,-0.016418457,0.7692261,-1.640625,0.734375,-0.734375
1696245746763,0.7011719,-0.01739502,0.7514038,-2.75,0.890625,-0.875
1696245746784,0.71240234,-0.008850098,0.75946045,-1.890625,-0.0625,-0.171875
1696245746844,0.7194824,-0.004211426,0.73309326,-2.625,0.953125,0.375
1696245746863,0.7060547,0.0060424805,0.7555542,0.328125,1.765625,0.28125
1696245746903,0.7109375,-0.0056762695,0.75897217,0.78125,1.375,0.171875
1696245746967,0.7355957,-0.011047363,0.75531006,-1.1875,3.40625,0.21875
1696245747003,0.73657227,-0.009094238,0.76556396,-1.078125,0.828125,0.59375
1696245747021,0.7145996,-6.1035156E-5,0.73236084,-1.984375,0.21875,1.28125
1696245747060,0.70825195,-0.0022583008,0.73773193,-1.546875,-0.3125,0.875
1696245747103,0.7138672,0.001159668,0.729187,-1.765625,1.046875,0.8125
1696245747163,0.7126465,0.017028809,0.72698975,-1.796875,0.734375,0.71875
1696245747182,0.71875,0.009216309,0.72650146,-1.296875,-0.421875,0.671875
1696245747244,0.70996094,0.011169434,0.72772217,-0.734375,-0.53125,0.515625
1696245747262,0.70581055,0.013122559,0.7235718,-0.125,-1.5625,0.46875
1696245747304,0.70336914,0.016052246,0.730896,0.9375,-0.953125,0.25
1696245747366,0.7019043,0.018981934,0.7267456,0.65625,-0.890625,0.015625
1696245747381,0.7102051,0.015319824,0.72991943,0.625,-0.765625,-0.046875
1696245747424,0.7150879,0.012634277,0.71551514,0.765625,-1.46875,0.203125
1696245747486,0.7060547,0.004333496,0.744812,1.4375,-1.0625,0.015625
1696245747502,0.7011719,0.005554199,0.711853,-0.625,-0.875,-0.40625
1696245747543,0.6916504,0.00579834,0.6847534,-0.65625,-1.59375,0.0
1696245747583,0.6994629,0.004333496,0.73968506,1.375,-0.59375,-0.140625
1696245747623,0.7006836,-0.0015258789,0.72650146,0.3125,-2.578125,0.140625
1696245747663,0.69091797,0.014831543,0.7164917,0.125,-2.0,0.25
1696245747703,0.70092773,0.023620605,0.7313843,2.65625,0.1875,-0.03125
1696245747744,0.6953125,-0.004699707,0.7279663,4.890625,-0.890625,0.453125
1696245747783,0.6738281,-0.004211426,0.7025757,4.03125,-4.828125,0.703125
1696245747822,0.6933594,-0.0071411133,0.7333374,-0.15625,-2.328125,-0.140625
1696245747864,0.6940918,-0.019836426,0.72528076,-2.046875,-0.640625,-0.375
1696245747903,0.6882324,0.00579834,0.7394409,-0.59375,-2.90625,0.703125
1696245747943,0.69921875,0.011413574,0.74920654,1.65625,-3.046875,0.796875
1696245747984,0.7077637,-0.00982666,0.78118896,1.03125,-0.4375,0.203125
1696245748045,0.7077637,-0.016662598,0.7653198,0.34375,-1.546875,0.0625
1696245748062,0.69091797,-0.022766113,0.74823,0.328125,-0.625,-0.5
1696245748102,0.6965332,-0.018371582,0.76361084,0.3125,-0.953125,-0.421875
1696245748121,0.69750977,-0.008117676,0.7555542,-0.34375,-0.234375,0.71875
1696245748162,0.6838379,-0.014465332,0.7440796,-1.4375,0.25,0.5625
1696245748202,0.7050781,-0.0012817383,0.76312256,-0.8125,0.296875,-0.25
1696245748243,0.7102051,-0.003967285,0.74432373,-1.96875,0.53125,-0.203125
1696245748283,0.7001953,-0.0025024414,0.7694702,0.578125,0.859375,0.0625
1696245748323,0.7011719,-0.0064086914,0.7538452,0.203125,0.453125,0.1875
1696245748362,0.6972656,-0.0037231445,0.74505615,-0.28125,0.609375,0.078125
1696245748404,0.7067871,-0.0049438477,0.75408936,-0.8125,-0.078125,0.21875
1696245748442,0.72631836,-0.024230957,0.7723999,-2.3125,2.234375,0.375
1696245748482,0.7145996,0.0028686523,0.7506714,-2.640625,1.703125,0.015625
1696245748522,0.7104492,6.713867E-4,0.7418823,-1.78125,1.875,0.78125
1696245748563,0.7121582,-0.0012817383,0.75579834,-0.703125,2.328125,0.25
1696245748603,0.720459,-0.002746582,0.74261475,-0.328125,2.796875,-0.03125
1696245748644,0.71655273,-0.007385254,0.7218628,-0.375,0.671875,-0.09375
1696245748683,0.7126465,0.0045776367,0.71990967,-0.8125,-0.59375,0.46875
1696245748722,0.6965332,0.0053100586,0.72039795,-0.90625,-0.921875,0.265625
1696245748765,0.70532227,0.016052246,0.72772217,-0.4375,-0.40625,-0.0625
1696245748802,0.70458984,0.015319824,0.71868896,-0.53125,-0.578125,0.296875
1696245748843,0.6965332,0.009460449,0.73480225,0.984375,-1.9375,0.15625
1696245748882,0.7138672,0.0065307617,0.7379761,0.4375,-1.078125,0.234375
1696245748924,0.6928711,0.012390137,0.7128296,0.40625,0.171875,0.765625
1696245748962,0.70214844,-0.0022583008,0.75653076,0.828125,-1.21875,0.46875
1696245749025,0.69506836,-0.017150879,0.7184448,-1.296875,-1.796875,0.28125
1696245749063,0.70166016,0.008728027,0.7206421,-0.65625,-1.046875,-0.484375
1696245749082,0.7026367,0.016296387,0.7313843,0.578125,-1.234375,0.0625
1696245749123,0.69311523,0.012634277,0.71014404,0.453125,-2.53125,0.109375
1696245749164,0.69140625,0.019470215,0.71673584,0.984375,-1.1875,0.296875
1696245749202,0.69799805,0.0018920898,0.71673584,2.625,-0.640625,0.421875
1696245749243,0.6899414,0.0026245117,0.71698,1.9375,-2.59375,1.046875
1696245749284,0.68115234,0.013122559,0.730896,0.515625,-4.75,1.125
1696245749323,0.6982422,-0.0017700195,0.74749756,-0.9375,-2.015625,0.515625
1696245749386,0.7026367,0.0021362305,0.7550659,0.171875,-0.4375,0.40625
1696245749402,0.7019043,0.010681152,0.75775146,1.703125,-0.015625,0.171875
1696245749422,0.6972656,-0.007385254,0.743103,1.53125,-1.015625,-0.078125
1696245749462,0.68969727,-0.016418457,0.7645874,2.40625,-3.578125,0.203125
1696245749504,0.6899414,-0.0064086914,0.7579956,-0.71875,-1.984375,-0.328125
1696245749543,0.6940918,-0.0134887695,0.71746826,-2.796875,-0.703125,-0.5625
1696245749584,0.6965332,-0.0010375977,0.7506714,-0.875,-0.3125,-0.1875
1696245749626,0.69921875,0.0060424805,0.7662964,-0.0625,0.0625,-0.09375
1696245749666,0.70532227,-0.007873535,0.7555542,0.328125,0.453125,0.1875
1696245749703,0.71118164,-0.006652832,0.76556396,0.125,0.71875,0.125
1696245749742,0.7121582,-0.0056762695,0.7609253,0.109375,0.578125,0.453125
1696245749784,0.7019043,-0.013977051,0.76483154,0.484375,0.578125,0.421875
1696245749823,0.6999512,-0.009338379,0.74798584,0.125,1.03125,0.546875
1696245749864,0.7128906,-0.01739502,0.7682495,-1.859375,3.359375,0.6875
1696245749904,0.70654297,-0.012268066,0.76190186,-0.671875,1.84375,0.46875
1696245749944,0.7138672,-0.00592041,0.7523804,-1.671875,2.5625,-0.078125
1696245749984,0.7192383,0.0028686523,0.7379761,-1.96875,1.390625,0.375
1696245750022,0.72216797,-0.0051879883,0.74017334,-1.359375,1.703125,0.203125
1696245750064,0.7277832,0.0038452148,0.73431396,-1.109375,1.609375,0.390625
1696245750104,0.71240234,0.0048217773,0.71698,-0.34375,1.859375,0.46875
1696245750144,0.71191406,0.001159668,0.7230835,1.140625,0.1875,1.421875
1696245750183,0.70825195,0.0079956055,0.7184448,0.3125,0.125,0.890625
1696245750226,0.7043457,0.011169434,0.6972046,-0.625,1.390625,0.625
1696245750264,0.7026367,0.010925293,0.74334717,0.875,-0.046875,0.28125
1696245750303,0.7128906,0.0014038086,0.72332764,-0.453125,-1.390625,-0.234375
1696245750342,0.7104492,0.018493652,0.71868896,-0.359375,-1.015625,-0.640625
1696245750382,0.7104492,0.013122559,0.72943115,0.703125,-1.34375,-0.046875
1696245750423,0.7038574,0.002380371,0.72088623,0.15625,-1.4375,0.140625
1696245750463,0.70336914,0.0021362305,0.7260132,0.5,-1.078125,-0.53125
1696245750504,0.69873047,0.0067749023,0.7067261,0.21875,-1.5625,-0.09375
1696245750544,0.69628906,0.007751465,0.71624756,0.1875,-2.53125,0.28125
1696245750584,0.6958008,0.007507324,0.71380615,1.0625,-0.671875,0.328125
1696245750623,0.7001953,0.010925293,0.7103882,3.828125,-2.296875,0.578125
1696245750664,0.6855469,0.0028686523,0.7074585,2.25,-5.609375,1.21875
1696245750706,0.6953125,-7.9345703E-4,0.7133179,-1.671875,-3.9375,-0.234375
1696245750745,0.69799805,-0.008850098,0.73773193,-1.359375,-2.5,-0.75
1696245750761,0.6970215,0.010437012,0.7802124,0.9375,-3.265625,0.046875
1696245750824,0.7023926,0.014343262,0.7470093,-0.765625,-2.40625,0.46875
1696245750862,0.6999512,-0.0076293945,0.74212646,-0.875,-2.296875,0.4375
1696245750882,0.6921387,-0.014709473,0.75775146,-0.25,-1.78125,0.40625
1696245750923,0.69799805,-0.0012817383,0.76971436,0.140625,-0.375,-0.25
1696245750984,0.6999512,-0.01373291,0.75823975,-0.015625,0.53125,-0.609375
1696245751025,0.704834,-0.006164551,0.7658081,0.4375,1.1875,-0.21875
1696245751041,0.7084961,-0.011779785,0.76068115,-0.046875,0.59375,0.59375
1696245751083,0.7036133,-0.012023926,0.7616577,0.46875,0.5625,0.625
1696245751123,0.7019043,-0.006652832,0.75164795,-0.171875,1.109375,0.546875
1696245751163,0.70336914,-0.008850098,0.7435913,-0.1875,0.859375,0.578125
1696245751203,0.6982422,-0.0015258789,0.7518921,0.484375,0.546875,0.5
1696245751246,0.7121582,-0.0044555664,0.746521,-0.25,0.921875,0.375
1696245751285,0.7175293,-0.015197754,0.7694702,-0.171875,2.359375,0.5
1696245751322,0.7145996,-0.008117676,0.75531006,-1.234375,1.703125,0.609375
1696245751363,0.7163086,-0.01373291,0.7628784,-2.140625,3.015625,0.15625
1696245751426,0.72216797,-0.0020141602,0.7328491,-2.28125,0.984375,0.0625
1696245751444,0.7121582,9.1552734E-4,0.72698975,-1.890625,1.625,0.234375
1696245751484,0.7155762,0.0048217773,0.73553467,0.0,1.125,0.0
1696245751525,0.70825195,0.010192871,0.7189331,-1.046875,0.5625,-0.265625
1696245751562,0.7138672,0.011413574,0.7001343,-1.890625,1.203125,0.0625
1696245751625,0.7133789,-0.0012817383,0.73602295,-0.5,0.015625,0.4375
1696245751644,0.70703125,4.272461E-4,0.72821045,-1.84375,-1.421875,0.109375
1696245751683,0.70458984,0.007507324,0.7106323,-2.453125,-1.59375,-0.484375
1696245751722,0.7128906,0.027770996,0.7340698,-0.109375,-1.25,-0.25
1696245751761,0.7077637,0.018005371,0.7284546,0.15625,-2.359375,0.609375
1696245751804,0.6921387,0.019226074,0.7399292,0.359375,-1.953125,-0.015625
1696245751843,0.70214844,0.0072631836,0.7196655,0.328125,-0.671875,-0.21875
1696245751885,0.7055664,9.1552734E-4,0.7333374,0.515625,-0.359375,-0.015625
1696245751921,0.7092285,-6.1035156E-5,0.74139404,0.84375,-0.703125,-0.140625
1696245751963,0.70703125,0.0045776367,0.7194214,0.421875,-0.9375,-0.03125
1696245752004,0.7072754,0.007507324,0.727478,0.921875,-1.15625,0.09375
1696245752042,0.7026367,0.0211792,0.72088623,1.109375,-2.234375,0.40625
1696245752061,0.6953125,0.022888184,0.70843506,1.125,-1.140625,0.65625
1696245752104,0.70288086,0.006286621,0.7157593,3.8125,-1.03125,0.578125
1696245752143,0.701416,-6.1035156E-5,0.7313843,4.421875,-1.625,0.46875
1696245752184,0.69433594,-5.493164E-4,0.696228,1.421875,-2.3125,0.9375
1696245752224,0.69873047,-0.02520752,0.71673584,-0.359375,-1.25,0.8125
1696245752262,0.69921875,-0.007385254,0.7472534,0.046875,-0.390625,0.390625
1696245752302,0.69311523,4.272461E-4,0.7550659,-0.046875,-2.390625,0.453125
1696245752344,0.69140625,0.0060424805,0.74432373,-0.28125,-4.046875,0.21875
1696245752384,0.69555664,-0.0049438477,0.75213623,-0.6875,-2.796875,-0.40625
1696245752424,0.6970215,-0.008361816,0.75897217,-0.375,-1.515625,-0.140625
1696245752464,0.7097168,-0.008361816,0.7567749,0.296875,-0.25,-0.125
1696245752504,0.70092773,-0.0020141602,0.7411499,0.015625,-0.03125,0.15625
1696245752543,0.7089844,-0.0051879883,0.7374878,-0.15625,0.328125,0.453125
1696245752584,0.6982422,-0.00592041,0.7609253,0.234375,0.515625,0.5
1696245752624,0.7067871,-0.008850098,0.7538452,0.421875,0.96875,0.828125
1696245752664,0.7145996,0.005065918,0.7501831,0.546875,1.859375,0.625
1696245752706,0.7092285,-0.011047363,0.7562866,0.9375,1.578125,0.96875
1696245752744,0.7104492,-0.011779785,0.74823,0.328125,1.359375,1.0
1696245752783,0.7260742,-0.00982666,0.7494507,-1.296875,2.21875,0.21875
1696245752822,0.7211914,-0.016418457,0.763855,-0.421875,1.671875,-0.171875
1696245752867,0.7224121,-0.0022583008,0.74749756,-2.15625,2.015625,0.171875
1696245752901,0.7182617,-0.007385254,0.7350464,-2.84375,0.78125,-0.015625
1696245752946,0.71362305,0.0060424805,0.7362671,-2.515625,1.234375,0.25
1696245752983,0.720459,0.0138549805,0.727478,-1.59375,2.15625,0.90625
1696245753024,0.72143555,0.00579834,0.75653076,0.890625,1.921875,0.40625
1696245753063,0.7199707,-0.0020141602,0.71673584,-0.21875,0.5625,0.296875
1696245753102,0.71118164,0.005554199,0.71624756,-0.65625,0.5,0.375
1696245753143,0.7155762,0.01751709,0.72332764,0.265625,-0.046875,0.375
1696245753183,0.71972656,0.011657715,0.71136475,0.46875,0.234375,0.234375
1696245753225,0.7207031,0.01751709,0.7123413,0.65625,-0.625,0.234375
1696245753265,0.7102051,0.020446777,0.7230835,1.25,-0.71875,0.3125
1696245753302,0.70532227,0.010437012,0.7223511,1.25,-1.203125,0.140625
1696245753343,0.70654297,-5.493164E-4,0.727478,1.25,-1.765625,0.03125
1696245753363,0.7097168,0.00579834,0.7196655,0.375,-1.78125,-0.015625
1696245753403,0.70874023,0.0016479492,0.72283936,0.890625,-2.0,0.0625
1696245753446,0.69750977,0.0072631836,0.715271,1.09375,-3.125,0.40625
1696245753483,0.7036133,0.01361084,0.7074585,0.765625,-2.09375,0.234375
1696245753525,0.69873047,0.008483887,0.7147827,1.765625,-0.21875,0.109375
1696245753563,0.70581055,-0.0071411133,0.7230835,4.15625,-2.296875,0.421875
1696245753626,0.69970703,1.8310547E-4,0.72088623,2.171875,-3.765625,0.765625
1696245753641,0.6984863,0.0026245117,0.7025757,-1.28125,-1.625,0.453125
1696245753686,0.71240234,0.002380371,0.7597046,-0.078125,0.765625,0.3125
1696245753746,0.7077637,-0.009094238,0.7526245,0.46875,-0.71875,0.375
1696245753761,0.7062988,-0.0037231445,0.73065186,-0.3125,-2.9375,0.71875
1696245753803,0.69311523,0.002380371,0.73773193,-1.46875,-1.171875,0.734375
1696245753865,0.7104492,-0.012023926,0.7496948,-1.375,-0.140625,0.09375
1696245753882,0.70166016,-0.0049438477,0.7367554,-0.03125,-1.4375,-0.34375
1696245753944,0.69189453,-3.0517578E-4,0.7223511,-0.859375,-3.4375,0.265625
1696245753962,0.6779785,-0.002746582,0.7250366,-2.328125,-4.28125,0.28125
1696245754028,0.6838379,0.007507324,0.76068115,-1.5,-1.65625,-1.234375
1696245754042,0.704834,0.0099487305,0.76068115,-1.875,0.265625,-1.796875
1696245754084,0.7158203,0.0038452148,0.75531006,0.078125,-0.0625,-0.921875
1696245754123,0.71606445,-0.009094238,0.76776123,1.171875,0.359375,-0.296875
1696245754184,0.7128906,-0.020812988,0.7626343,-0.078125,0.625,0.515625
1696245754223,0.7043457,-0.0178833,0.75653076,0.1875,0.828125,0.5625
1696245754242,0.7038574,-0.008605957,0.74993896,-0.359375,0.625,0.90625
1696245754284,0.72094727,-0.012268066,0.75653076,-2.203125,2.078125,0.34375
1696245754323,0.7211914,0.001159668,0.7645874,-1.421875,1.84375,0.15625
1696245754387,0.7272949,0.012390137,0.74554443,-2.734375,2.875,0.578125
1696245754433,0.7219238,0.0016479492,0.7555542,-1.296875,2.796875,0.59375
1696245754442,0.7145996,-0.004211426,0.7272339,-1.953125,1.578125,-0.125
1696245754503,0.7155762,6.713867E-4,0.7164917,-1.953125,1.515625,-0.484375
1696245754544,0.7297363,0.0099487305,0.72772217,-2.234375,-0.140625,0.671875
1696245754561,0.70458984,0.0099487305,0.7133179,-2.03125,-1.265625,1.5625
1696245754604,0.6972656,0.023620605,0.7243042,-1.890625,-0.546875,0.703125
1696245754642,0.7067871,0.029724121,0.71868896,-0.875,0.015625,-0.046875
1696245754701,0.7102051,0.031188965,0.7328491,0.375,-0.265625,-0.34375
1696245754706,0.71240234,0.01751709,0.7406616,1.265625,-1.15625,-0.46875
1696245754742,0.7072754,0.018737793,0.7457886,2.046875,-0.578125,-0.328125
1696245754784,0.6999512,0.014099121,0.7457886,4.09375,-1.5,0.375
1696245754824,0.7114258,0.005065918,0.72161865,3.703125,-0.9375,-0.15625
1696245754863,0.7062988,-0.004211426,0.72698975,2.25,-0.78125,0.015625
1696245754905,0.7050781,0.0014038086,0.7111206,0.734375,-0.46875,0.046875
1696245754949,0.70336914,-5.493164E-4,0.697937,0.078125,-0.640625,-0.328125
1696245754984,0.70288086,0.009460449,0.7015991,0.53125,-2.09375,0.03125
1696245755023,0.6936035,0.013122559,0.71746826,1.515625,-1.5,0.609375
1696245755063,0.68115234,0.0119018555,0.72088623,1.890625,-1.828125,0.625
1696245755103,0.69921875,-0.0029907227,0.69940186,2.03125,-3.84375,0.53125
1696245755143,0.6982422,-5.493164E-4,0.71502686,-0.3125,-1.515625,0.109375
1696245755186,0.6894531,-0.0017700195,0.7352905,-0.203125,-3.171875,0.09375
1696245755226,0.6970215,0.0072631836,0.73651123,1.015625,-4.359375,0.59375
1696245755264,0.68603516,-0.005432129,0.75701904,-0.109375,-4.625,1.34375
1696245755305,0.68530273,-0.010803223,0.7560425,-2.890625,-3.53125,0.265625
1696245755343,0.69628906,0.0016479492,0.7662964,-1.75,-1.953125,-0.84375
1696245755384,0.70532227,-0.0025024414,0.7640991,-0.703125,-1.25,-0.53125
1696245755422,0.69555664,-0.0017700195,0.76312256,-0.40625,0.8125,0.015625
1696245755466,0.701416,6.713867E-4,0.75701904,0.34375,0.984375,0.421875
1696245755504,0.69873047,-0.006652832,0.7626343,-0.375,1.03125,0.21875
1696245755544,0.6953125,-0.0017700195,0.76971436,-0.609375,1.078125,-0.078125
1696245755583,0.6999512,-5.493164E-4,0.74554443,-0.8125,0.625,-0.03125
1696245755622,0.6977539,-5.493164E-4,0.74090576,-0.828125,0.5625,-0.484375
1696245755663,0.704834,0.0026245117,0.7597046,0.328125,-0.015625,-0.265625
1696245755703,0.71972656,-0.004699707,0.74993896,-1.28125,1.78125,0.296875
1696245755742,0.71875,-0.012023926,0.7953491,-0.546875,3.359375,0.171875
1696245755783,0.7116699,-0.013000488,0.7523804,-1.09375,1.765625,0.484375
1696245755823,0.71533203,0.0014038086,0.7489624,-2.015625,2.265625,0.328125
1696245755862,0.7182617,0.003112793,0.732605,-1.65625,0.828125,0.734375
1696245755904,0.72143555,0.0038452148,0.7352905,-0.53125,1.65625,0.453125
1696245755944,0.7180176,0.005065918,0.7338257,0.3125,0.875,0.4375
1696245756007,0.7072754,0.0028686523,0.71746826,-0.109375,0.53125,0.671875
1696245756022,0.70288086,-7.9345703E-4,0.7164917,-0.171875,-0.109375,0.828125
1696245756044,0.6977539,0.0067749023,0.73553467,0.234375,-0.03125,0.421875
1696245756106,0.7097168,0.014587402,0.72943115,0.46875,0.921875,0.5
1696245756122,0.7055664,0.013122559,0.7316284,0.734375,-0.796875,0.109375
1696245756165,0.7006836,0.017028809,0.7182007,0.765625,-1.15625,0.484375
1696245756202,0.70825195,0.016784668,0.7301636,1.0625,-1.015625,0.484375
1696245756245,0.6923828,0.015808105,0.74017334,0.984375,-0.6875,0.328125
1696245756283,0.7109375,0.0028686523,0.71429443,-0.8125,-0.015625,-0.25
1696245756323,0.701416,0.005065918,0.68426514,-0.625,-1.515625,-0.265625
1696245756386,0.68896484,0.007507324,0.73309326,1.1875,-2.578125,0.359375
1696245756402,0.6843262,0.00579834,0.7262573,0.328125,-2.90625,0.375
1696245756464,0.6899414,0.013366699,0.6976929,0.765625,-2.453125,-0.734375
1696245756482,0.6855469,0.01751709,0.68621826,1.984375,-5.703125,-0.703125
1696245756524,0.70458984,0.0060424805,0.74334717,1.15625,-4.46875,0.421875
1696245756588,0.7055664,-0.010559082,0.77874756,0.546875,-1.921875,0.609375
1696245756601,0.69189453,9.1552734E-4,0.7387085,-0.5,-1.28125,0.71875
1696245756664,0.68652344,-0.006652832,0.7328491,0.328125,-2.640625,0.625
1696245756685,0.6804199,-0.0032348633,0.7626343,0.921875,-3.625,0.5625
1696245756743,0.67089844,-0.0051879883,0.74920654,-0.625,-2.734375,-0.1875
1696245756762,0.6945801,-0.0020141602,0.7555542,-0.921875,-0.859375,-0.953125
1696245756826,0.7006836,6.713867E-4,0.7699585,0.734375,-0.5625,-0.046875
1696245756841,0.68896484,-0.0076293945,0.7728882,0.859375,0.734375,0.515625
1696245756907,0.7001953,-0.012023926,0.776062,0.828125,1.5625,0.296875
1696245756922,0.6923828,-0.008850098,0.77923584,1.4375,1.453125,0.875
1696245756964,0.70166016,-0.0134887695,0.7509155,-1.109375,2.390625,0.296875
1696245757026,0.704834,-0.0134887695,0.7538452,-0.375,1.203125,0.765625
1696245757042,0.70874023,-0.009094238,0.7387085,-0.84375,0.8125,0.8125
1696245757083,0.7080078,-0.013244629,0.7694702,-0.796875,1.984375,0.3125
1696245757125,0.7097168,-0.0049438477,0.75457764,-2.125,2.34375,-0.484375
1696245757164,0.7180176,0.008483887,0.74871826,-2.921875,1.734375,-0.28125
1696245757226,0.7199707,6.713867E-4,0.743103,-2.671875,1.171875,0.0625
1696245757263,0.720459,-0.0015258789,0.74920654,-1.40625,1.796875,-0.171875
1696245757283,0.70996094,0.0026245117,0.7250366,-0.890625,1.296875,0.078125
1696245757342,0.7270508,-0.005432129,0.7435913,-0.015625,3.125,0.453125
1696245757344,0.7219238,0.0016479492,0.744812,1.09375,2.171875,0.84375
1696245757383,0.7011719,0.001159668,0.71087646,0.09375,-0.015625,1.359375
1696245757423,0.6958008,0.014343262,0.7260132,0.171875,0.703125,0.28125
1696245757464,0.703125,0.022155762,0.7111206,0.578125,-0.3125,0.21875
1696245757503,0.7109375,0.012145996,0.72161865,0.375,-0.15625,0.640625
1696245757549,0.7163086,0.016052246,0.72454834,0.078125,-0.703125,0.09375
1696245757585,0.69970703,0.013122559,0.7147827,-0.53125,-1.078125,0.078125
1696245757627,0.70458984,0.007507324,0.7333374,0.71875,-1.84375,0.375
1696245757663,0.71069336,0.005554199,0.73724365,-0.140625,-0.84375,-0.125
1696245757704,0.69628906,0.002380371,0.68621826,-0.671875,-0.796875,0.296875
1696245757743,0.70996094,0.0036010742,0.7470093,0.53125,-2.421875,0.234375
1696245757783,0.7006836,-0.0032348633,0.71673584,-0.9375,-3.0,0.0625
1696245757826,0.6911621,0.020690918,0.71087646,-0.546875,-1.078125,-0.46875
1696245757864,0.7036133,0.029724121,0.7250366,2.203125,-0.34375,0.25
1696245757915,0.6921387,0.0053100586,0.70477295,3.4375,-3.859375,0.546875
1696245757944,0.6862793,0.0016479492,0.7103882,1.3125,-3.546875,0.34375
1696245757982,0.6970215,0.005065918,0.7296753,-0.015625,-1.90625,-0.21875
1696245758023,0.69921875,0.006286621,0.7333374,0.328125,-2.09375,0.265625
1696245758063,0.69384766,0.0028686523,0.7550659,2.296875,-2.703125,0.765625
1696245758105,0.69970703,-0.009338379,0.7470093,0.59375,-2.96875,0.5625
1696245758144,0.69506836,-0.006652832,0.7496948,-0.328125,-3.234375,-0.296875
1696245758182,0.6945801,-0.012512207,0.7536011,-1.03125,-2.515625,-0.6875
1696245758224,0.7026367,-0.010314941,0.7575073,-0.9375,-1.09375,-1.015625
1696245758263,0.70288086,-0.007385254,0.76483154,-0.125,-0.34375,-0.046875
1696245758303,0.7011719,-0.006652832,0.7614136,-0.15625,0.734375,0.40625
1696245758343,0.69311523,-0.00982666,0.7501831,-0.515625,1.0625,0.3125
1696245758385,0.6994629,0.0018920898,0.76678467,-0.125,1.6875,0.171875
1696245758424,0.7145996,0.0045776367,0.7404175,-1.609375,2.125,0.671875
1696245758465,0.70703125,4.272461E-4,0.7658081,0.578125,1.828125,0.609375
1696245758502,0.70410156,-0.010559082,0.7489624,-0.3125,1.4375,0.40625
1696245758545,0.7414551,-0.013977051,0.78338623,-2.0625,4.75,-0.03125
1696245758585,0.7260742,-0.004211426,0.7518921,-1.6875,1.375,0.484375
1696245758622,0.7194824,-0.002746582,0.75457764,-1.375,1.625,0.71875
1696245758642,0.7194824,-0.0015258789,0.7399292,-1.53125,1.5,0.71875
1696245758684,0.70947266,0.009460449,0.7218628,-1.296875,1.234375,0.765625
1696245758723,0.7155762,0.014587402,0.7194214,-1.421875,0.53125,0.375
1696245758764,0.7167969,4.272461E-4,0.73773193,-0.171875,1.203125,0.40625
1696245758804,0.7167969,0.01361084,0.7218628,-0.96875,0.625,1.03125
1696245758865,0.70166016,0.024841309,0.7262573,-0.09375,0.359375,1.21875
1696245758884,0.7060547,0.015563965,0.7189331,0.546875,0.1875,0.546875
1696245758944,0.72265625,0.022399902,0.7189331,0.359375,0.390625,0.140625
1696245758963,0.717041,0.019226074,0.7211304,1.078125,0.109375,-0.046875
1696245759003,0.71972656,0.010437012,0.7213745,1.015625,-0.59375,0.171875
1696245759046,0.7104492,0.009216309,0.711853,0.578125,-0.671875,0.453125
1696245759083,0.70947266,0.0014038086,0.71624756,1.140625,-1.796875,0.15625
1696245759126,0.7167969,0.011169434,0.7296753,0.015625,-1.46875,0.03125
1696245759165,0.7092285,0.017028809,0.6950073,-0.75,0.328125,0.046875
1696245759204,0.71850586,0.0138549805,0.7379761,0.265625,-2.75,-0.046875
1696245759265,0.7026367,0.0119018555,0.701355,-0.59375,-3.46875,0.15625
1696245759305,0.6916504,0.030944824,0.7103882,0.875,-2.1875,0.125
1696245759321,0.70043945,0.01776123,0.72039795,3.296875,-3.71875,1.1875
1696245759384,0.7001953,6.713867E-4,0.7238159,2.640625,-3.03125,1.078125
1696245759428,0.68115234,0.007019043,0.71380615,0.875,-4.015625,1.296875
1696245759441,0.69262695,0.005554199,0.7279663,-1.015625,-1.484375,0.390625
1696245759482,0.71069336,-0.0071411133,0.7457886,-1.140625,0.015625,0.25
1696245759545,0.71118164,0.0018920898,0.746521,-0.265625,-1.296875,0.078125
1696245759564,0.7026367,1.8310547E-4,0.72772217,-0.875,-0.96875,-0.359375
1696245759627,0.7121582,-0.007873535,0.7501831,-0.71875,-1.546875,-1.59375
1696245759644,0.7089844,-0.0051879883,0.760437,-0.71875,-1.25,-1.78125
1696245759684,0.7077637,0.0026245117,0.75457764,-0.625,-1.921875,-1.0
1696245759724,0.70288086,0.00970459,0.7650757,-0.140625,-2.3125,0.09375
1696245759784,0.6928711,0.003112793,0.7592163,-1.046875,-1.40625,0.484375
1696245759825,0.68725586,0.005554199,0.7675171,-1.4375,-1.1875,0.875
1696245759843,0.6984863,0.012634277,0.75579834,-0.578125,0.078125,0.8125
1696245759884,0.70166016,0.009460449,0.73724365,-1.375,1.828125,0.65625
1696245759947,0.68896484,0.004333496,0.76239014,1.125,1.875,0.71875
1696245759954,0.7141113,-0.014465332,0.7597046,-0.5,4.015625,0.453125
1696245759983,0.72753906,-0.0017700195,0.758728,-0.734375,3.453125,-0.125
1696245760024,0.73291016,0.007751465,0.74334717,-2.109375,3.0625,0.171875
1696245760066,0.7331543,0.01361084,0.7313843,-1.234375,2.140625,0.359375
1696245760104,0.7314453,0.007751465,0.7470093,-0.765625,2.296875,0.0625
1696245760144,0.7233887,0.020690918,0.7103882,-0.9375,1.5625,0.328125
1696245760184,0.7219238,0.010925293,0.715271,0.46875,1.09375,0.171875
1696245760224,0.7175293,0.0045776367,0.73114014,1.390625,0.75,0.6875
1696245760264,0.71240234,0.0018920898,0.70770264,0.46875,-0.53125,0.578125
1696245760304,0.701416,0.01361084,0.7189331,0.46875,-0.9375,0.484375
1696245760342,0.7089844,0.0119018555,0.7201538,0.375,-0.21875,0.40625
1696245760383,0.7285156,0.008483887,0.6976929,1.5,1.15625,0.34375
1696245760424,0.732666,0.0138549805,0.7399292,1.9375,0.28125,0.296875
1696245760465,0.69018555,-0.007385254,0.72650146,-0.078125,-0.109375,0.328125
1696245760503,0.71191406,0.018493652,0.7296753,1.109375,-1.46875,-0.984375
1696245760543,0.7248535,0.0138549805,0.72821045,0.515625,-1.078125,-0.09375
1696245760583,0.70874023,0.008972168,0.6845093,-0.53125,-0.1875,0.40625
1696245760624,0.71533203,0.01727295,0.7313843,1.28125,-1.6875,-0.109375
1696245760662,0.7067871,0.009216309,0.69525146,0.59375,-3.5,0.453125
1696245760703,0.7006836,0.026794434,0.68792725,1.75,-1.015625,0.265625
1696245760746,0.7089844,0.0048217773,0.7057495,5.296875,-3.734375,0.640625
1696245760783,0.6899414,-0.0071411133,0.69085693,2.375,-6.46875,0.75
1696245760826,0.69140625,0.005065918,0.7184448,-0.859375,-5.671875,0.328125
1696245760863,0.6828613,-6.1035156E-5,0.727478,-1.546875,-3.46875,-1.078125
1696245760904,0.7050781,-0.011291504,0.7567749,-0.390625,0.15625,-0.3125
1696245760947,0.7175293,0.003112793,0.7716675,0.390625,-0.46875,-0.1875
1696245760983,0.7097168,-0.017150879,0.74627686,-1.078125,-1.578125,0.28125
1696245761024,0.70825195,-0.020080566,0.7548218,-2.359375,-2.296875,0.015625
1696245761063,0.69433594,-0.011291504,0.75457764,-3.859375,-2.109375,0.015625
1696245761104,0.69384766,0.0026245117,0.7489624,-2.515625,-1.421875,-0.1875
1696245761145,0.6945801,0.016052246,0.74798584,-1.046875,-1.203125,-0.578125
1696245761183,0.6948242,0.008728027,0.7406616,-0.859375,-0.78125,-0.21875
1696245761224,0.69799805,0.0053100586,0.7579956,-0.328125,-0.1875,-0.3125
1696245761264,0.71313477,0.001159668,0.7616577,0.3125,0.859375,-0.21875
1696245761282,0.7272949,-0.010803223,0.7489624,-1.015625,2.203125,0.25
1696245761345,0.7158203,-0.006652832,0.7640991,0.625,1.984375,0.671875
1696245761384,0.7167969,-0.019836426,0.762146,-0.53125,2.828125,0.6875
1696245761425,0.7324219,-0.011779785,0.7526245,-1.8125,2.890625,0.4375
1696245761443,0.71484375,0.017028809,0.7477417,-1.984375,2.75,0.578125
1696245761484,0.7285156,0.008239746,0.72991943,-2.375,2.9375,0.296875
1696245761526,0.71850586,0.007019043,0.7321167,-0.875,2.578125,0.4375
1696245761564,0.7373047,0.011413574,0.7247925,0.265625,2.359375,0.109375
1696245761604,0.7270508,0.0028686523,0.77679443,4.1875,1.78125,0.625
1696245761645,0.72558594,-0.0051879883,0.72869873,3.109375,-0.09375,0.75
1696245761683,0.6989746,0.0099487305,0.6852417,2.765625,-2.34375,0.90625
1696245761747,0.6960449,0.00970459,0.6959839,2.828125,-1.890625,1.078125
1696245761763,0.69799805,0.010437012,0.7091675,1.40625,-0.75,0.53125
1696245761803,0.70532227,0.0053100586,0.6918335,0.375,-1.28125,-0.234375
1696245761847,0.70703125,0.019714355,0.7160034,-0.015625,-1.046875,-0.359375
1696245761884,0.703125,0.005065918,0.7164917,0.421875,-1.390625,-0.046875
1696245761924,0.7084961,-0.003479004,0.7225952,0.75,-2.390625,-0.203125
1696245761965,0.7062988,-0.0015258789,0.72576904,-0.328125,-3.703125,0.046875
1696245762005,0.68530273,0.0036010742,0.6918335,-1.234375,-2.046875,0.890625
1696245762045,0.68359375,0.009460449,0.697937,-0.0625,-6.546875,0.953125
1696245762086,0.6582031,0.0014038086,0.6942749,-1.171875,-10.640625,0.828125
1696245762145,0.6652832,0.012145996,0.7272339,-3.140625,-8.0625,-1.046875
1696245762184,0.6923828,0.019714355,0.7633667,-2.5625,-1.546875,-2.234375
1696245762202,0.72265625,9.1552734E-4,0.7789917,-0.03125,1.65625,-1.734375
1696245762245,0.7241211,-6.1035156E-5,0.7872925,1.515625,0.8125,0.09375
1696245762282,0.7260742,-0.024230957,0.7706909,0.875,1.28125,0.796875
1696245762323,0.71728516,-0.030822754,0.78167725,-0.578125,1.890625,0.734375
1696245762366,0.70751953,-0.014709473,0.7609253,-0.390625,1.390625,1.015625
1696245762406,0.6916504,-0.0029907227,0.732605,-0.484375,1.46875,0.640625
1696245762447,0.6867676,0.008239746,0.74139404,0.03125,0.71875,0.515625
1696245762505,0.6855469,0.008483887,0.72161865,-1.3125,0.34375,0.28125
1696245762543,0.6923828,0.00970459,0.73602295,-0.96875,0.390625,-0.609375
1696245762586,0.7097168,0.011169434,0.74505615,0.375,0.734375,-0.71875
1696245762590,0.73339844,-0.016174316,0.7736206,-0.734375,5.453125,-0.4375
1696245762623,0.74438477,-0.009338379,0.79559326,0.296875,4.390625,0.328125
1696245762664,0.74731445,-0.010803223,0.7518921,-0.40625,4.359375,1.28125
1696245762705,0.7404785,-0.015686035,0.7164917,-0.5625,3.125,2.078125
1696245762744,0.7062988,-5.493164E-4,0.72039795,0.8125,0.796875,2.140625
1696245762783,0.70166016,-6.1035156E-5,0.70892334,-0.53125,0.25,0.75
1696245762822,0.71362305,0.0040893555,0.6779175,-2.5,-0.234375,-0.4375
1696245762864,0.7182617,0.029968262,0.7050171,-1.921875,-0.9375,-0.40625
1696245762903,0.70751953,0.018249512,0.71307373,-1.25,-1.171875,0.3125
1696245762945,0.717041,0.020202637,0.73236084,0.328125,-1.84375,-0.453125
1696245762985,0.71777344,0.02532959,0.71380615,-0.03125,-2.09375,-0.125
1696245763024,0.7138672,0.010437012,0.7243042,0.46875,-1.84375,0.3125
1696245763063,0.7077637,0.00579834,0.73480225,1.125,-2.359375,0.609375
1696245763102,0.701416,0.012390137,0.70965576,1.03125,-2.703125,0.6875
1696245763145,0.69091797,0.011413574,0.7182007,1.0,-2.546875,0.4375
1696245763181,0.68359375,0.00970459,0.7037964,0.53125,-0.84375,0.296875
1696245763222,0.69799805,0.01361084,0.70355225,1.921875,-1.53125,-0.359375
