,timestamp,accel_x,accel_y,accel_z,gyro_x,gyro_y,gyro_z,ind
0,1696245044518,0.75146484,-0.06011963,0.6906128,-0.703125,-0.1875,0.390625,0
1,1696245044558,0.75024414,-0.062805176,0.6884155,-0.234375,-0.5625,0.171875,1
2,1696245044598,0.7434082,-0.05718994,0.6847534,-0.171875,-0.828125,0.34375,2
3,1696245044638,0.748291,-0.061828613,0.6906128,0.65625,-1.0,0.140625,3
4,1696245044678,0.7397461,-0.06085205,0.68304443,0.0625,-1.0,0.1875,4
5,1696245044718,0.74243164,-0.06695557,0.69866943,-0.296875,-0.5,0.421875,5
6,1696245044758,0.74316406,-0.054504395,0.68499756,-0.5625,-1.09375,0.0625,6
7,1696245044798,0.7487793,-0.046203613,0.6820679,-0.921875,-0.09375,0.375,7
8,1696245044838,0.73535156,-0.05279541,0.69085693,0.21875,-0.671875,0.609375,8
9,1696245044878,0.74194336,-0.054260254,0.6942749,0.0625,-0.8125,0.0625,9
10,1696245044918,0.7531738,-0.06085205,0.67059326,-0.53125,0.03125,0.234375,10
11,1696245044958,0.7458496,-0.06109619,0.6954956,-0.5625,0.265625,0.1875,11
12,1696245044998,0.74121094,-0.057678223,0.69281006,0.6875,-0.671875,0.03125,12
13,1696245045038,0.7480469,-0.0647583,0.6820679,0.078125,-0.546875,0.0,13
14,1696245045078,0.7385254,-0.059387207,0.69329834,-0.328125,-0.296875,0.0,14
15,1696245045118,0.7441406,-0.049621582,0.69525146,-0.296875,-0.21875,0.3125,15
16,1696245045158,0.7409668,-0.062316895,0.6881714,-1.34375,-0.0625,0.40625,16
17,1696245045198,0.74975586,-0.05621338,0.6828003,-0.421875,-0.03125,0.265625,17
18,1696245045238,0.748291,-0.05645752,0.68621826,-0.46875,-0.28125,0.375,18
19,1696245045278,0.7504883,-0.059387207,0.6889038,0.34375,-0.40625,0.234375,19
20,1696245045318,0.7475586,-0.06036377,0.68914795,0.28125,-0.625,0.21875,20
21,1696245045358,0.7512207,-0.053527832,0.6832886,-0.078125,-0.875,0.234375,21
22,1696245045398,0.74121094,-0.06060791,0.6881714,-0.40625,-0.578125,0.4375,22
23,1696245045438,0.7463379,-0.058898926,0.6832886,-0.4375,-0.59375,0.296875,23
24,1696245045478,0.74731445,-0.049621582,0.6901245,-0.34375,-0.234375,0.328125,24
25,1696245045518,0.7453613,-0.05255127,0.6901245,-0.078125,-0.6875,0.34375,25
26,1696245045558,0.7492676,-0.049621582,0.69207764,-0.109375,-0.390625,0.21875,26
27,1696245045598,0.74731445,-0.055236816,0.6893921,0.03125,-0.171875,0.28125,27
28,1696245045638,0.7426758,-0.057678223,0.6947632,0.15625,-0.421875,0.421875,28
29,1696245045678,0.74243164,-0.05328369,0.69866943,0.15625,-0.4375,0.578125,29
30,1696245045718,0.74853516,-0.04937744,0.67767334,-0.4375,-0.4375,0.140625,30
31,1696245045758,0.7495117,-0.054260254,0.68084717,0.09375,-0.40625,0.453125,31
32,1696245045798,0.7470703,-0.051818848,0.6845093,-1.171875,0.5625,0.28125,32
33,1696245045838,0.74902344,-0.054016113,0.697937,-0.09375,-0.484375,0.640625,33
34,1696245045878,0.74658203,-0.057678223,0.68133545,0.390625,-0.40625,0.078125,34
35,1696245045918,0.75024414,-0.049621582,0.68426514,-0.296875,-0.1875,0.25,35
36,1696245045958,0.74609375,-0.0491333,0.69158936,0.078125,-0.34375,0.296875,36
37,1696245045998,0.74560547,-0.054504395,0.6762085,0.328125,-0.578125,0.171875,37
38,1696245046038,0.75439453,-0.047424316,0.69647217,-0.375,-0.34375,0.4375,38
39,1696245046078,0.74121094,-0.050109863,0.6935425,0.234375,-0.421875,0.75,39
40,1696245046118,0.748291,-0.05206299,0.68499756,0.1875,-0.4375,0.546875,40
41,1696245046158,0.7470703,-0.05303955,0.6923218,0.09375,-0.546875,0.421875,41
42,1696245046198,0.7470703,-0.055480957,0.68499756,-0.25,-0.390625,0.328125,42
43,1696245046238,0.7438965,-0.050842285,0.6864624,-0.296875,-0.578125,0.46875,43
44,1696245046278,0.7512207,-0.045959473,0.68499756,0.015625,-0.5,0.0625,44
45,1696245046318,0.74658203,-0.046447754,0.6889038,-0.015625,-0.71875,0.3125,45
46,1696245046358,0.74780273,-0.057922363,0.6901245,0.015625,-0.921875,0.484375,46
47,1696245046398,0.75,-0.05255127,0.6898804,0.453125,-1.015625,0.375,47
48,1696245046438,0.74780273,-0.055480957,0.6893921,0.46875,-1.171875,0.15625,48
49,1696245046478,0.7446289,-0.04888916,0.69403076,0.5,-1.125,0.421875,49
50,1696245046518,0.74316406,-0.0491333,0.6925659,0.3125,-0.78125,0.1875,50
51,1696245046558,0.751709,-0.054992676,0.68426514,-0.765625,0.40625,0.515625,51
52,1696245046598,0.7416992,-0.04840088,0.70892334,1.046875,-0.546875,1.0,52
53,1696245046638,0.7631836,-0.059387207,0.71014404,3.3125,-1.40625,0.234375,53
54,1696245046678,0.7458496,-0.05328369,0.6950073,1.390625,-2.515625,-0.421875,54
55,1696245046718,0.7519531,-0.050354004,0.6893921,-0.796875,-1.40625,0.640625,55
56,1696245046758,0.73535156,-0.058410645,0.6864624,-1.40625,-1.75,1.09375,56
57,1696245046798,0.7368164,-0.047180176,0.68914795,-1.859375,-1.796875,-0.4375,57
58,1696245046838,0.7355957,-0.043029785,0.6901245,-2.453125,-1.078125,0.390625,58
59,1696245046878,0.7302246,-0.05596924,0.69989014,-1.828125,-2.734375,0.65625,59
60,1696245046918,0.72924805,-0.047180176,0.6954956,-0.609375,-3.171875,-0.125,60
61,1696245046958,0.7229004,-0.043762207,0.6906128,-0.8125,-2.90625,0.515625,61
62,1696245046998,0.7409668,-0.043762207,0.6984253,-0.671875,-1.296875,0.5625,62
63,1696245047038,0.72924805,-0.04156494,0.6906128,-0.484375,0.125,-0.015625,63
64,1696245047078,0.7294922,-0.04547119,0.7050171,1.0625,1.015625,0.03125,64
65,1696245047118,0.7270508,-0.04840088,0.7008667,1.671875,0.609375,-0.75,65
66,1696245047158,0.7351074,-0.0491333,0.7008667,1.40625,-0.109375,-0.1875,66
67,1696245047198,0.72802734,-0.054504395,0.7045288,0.5625,-0.984375,-0.140625,67
68,1696245047238,0.7392578,-0.04034424,0.6925659,-0.828125,-0.4375,0.125,68
69,1696245047278,0.7441406,-0.050598145,0.6935425,-0.421875,0.5,-0.171875,69
70,1696245047318,0.7397461,-0.04864502,0.7037964,0.34375,0.03125,-0.171875,70
71,1696245047358,0.7429199,-0.061584473,0.70721436,1.484375,0.046875,-0.09375,71
72,1696245047398,0.73583984,-0.05718994,0.7003784,1.375,-0.484375,-0.25,72
73,1696245047438,0.7373047,-0.051086426,0.6913452,0.625,-0.515625,0.046875,73
74,1696245047478,0.736084,-0.06085205,0.7001343,0.375,-0.328125,0.03125,74
75,1696245047518,0.74072266,-0.057678223,0.69989014,0.171875,-0.5,0.078125,75
76,1696245047558,0.7414551,-0.051086426,0.6911011,-0.125,-0.34375,-0.0625,76
77,1696245047598,0.7355957,-0.057434082,0.7008667,-0.078125,-0.171875,0.015625,77
78,1696245047638,0.7392578,-0.066711426,0.71014404,1.21875,-0.296875,0.078125,78
79,1696245047678,0.7426758,-0.06524658,0.6884155,0.328125,-0.0625,0.09375,79
80,1696245047718,0.7285156,-0.06524658,0.7020874,0.234375,-0.5,0.3125,80
81,1696245047758,0.7429199,-0.061340332,0.6954956,-0.328125,-0.203125,0.296875,81
82,1696245047798,0.73706055,-0.05303955,0.69525146,-0.453125,-0.296875,0.125,82
83,1696245047838,0.7438965,-0.053771973,0.70062256,-0.046875,-0.171875,0.34375,83
84,1696245047878,0.734375,-0.062561035,0.699646,-0.546875,-0.03125,0.515625,84
85,1696245047918,0.74609375,-0.06378174,0.701355,0.25,-0.578125,0.328125,85
86,1696245047958,0.7434082,-0.061584473,0.6967163,0.125,-0.359375,0.21875,86
87,1696245047998,0.7402344,-0.057922363,0.6852417,-0.46875,0.015625,0.625,87
88,1696245048038,0.7355957,-0.058898926,0.6847534,-0.625,0.0625,0.390625,88
89,1696245048078,0.74438477,-0.055725098,0.69329834,0.609375,-0.015625,0.140625,89
90,1696245048118,0.734375,-0.05230713,0.6845093,-0.171875,-0.1875,-0.15625,90
91,1696245048158,0.7402344,-0.06109619,0.69744873,0.15625,-0.4375,0.375,91
92,1696245048198,0.73779297,-0.06036377,0.6984253,0.546875,-0.578125,0.0625,92
93,1696245048238,0.7416992,-0.05987549,0.6937866,-0.140625,-0.578125,0.40625,93
94,1696245048278,0.73950195,-0.05255127,0.6918335,-0.375,-0.3125,0.40625,94
95,1696245048318,0.73999023,-0.062072754,0.6898804,-0.125,-0.296875,0.328125,95
96,1696245048358,0.7404785,-0.059143066,0.6991577,0.078125,-0.078125,0.296875,96
97,1696245048398,0.73535156,-0.06549072,0.69207764,0.15625,-0.671875,0.4375,97
98,1696245048438,0.7458496,-0.057678223,0.69281006,-0.015625,-0.53125,0.34375,98
99,1696245048478,0.7336426,-0.057922363,0.6871948,-0.078125,-0.453125,0.203125,99
100,1696245048518,0.7421875,-0.04888916,0.6893921,-0.296875,-0.328125,0.5625,100
101,1696245048558,0.7402344,-0.055480957,0.69744873,-0.109375,-0.21875,0.40625,101
102,1696245048598,0.7453613,-0.05645752,0.69696045,0.140625,-1.046875,0.3125,102
103,1696245048638,0.7409668,-0.0491333,0.69329834,-0.28125,-0.453125,0.5625,103
104,1696245048678,0.7409668,-0.06573486,0.6889038,0.015625,-0.1875,0.625,104
105,1696245048718,0.7385254,-0.05230713,0.6967163,0.03125,-0.703125,0.4375,105
106,1696245048758,0.73999023,-0.054748535,0.6947632,0.15625,-0.828125,0.203125,106
107,1696245048798,0.7451172,-0.050598145,0.68670654,-0.921875,0.4375,0.484375,107
108,1696245048838,0.7446289,-0.05255127,0.7040405,0.078125,0.25,0.40625,108
109,1696245048878,0.7429199,-0.05987549,0.69451904,0.734375,-0.4375,0.140625,109
110,1696245048918,0.7458496,-0.04815674,0.69158936,0.421875,-0.453125,0.109375,110
111,1696245048958,0.74560547,-0.054992676,0.6913452,0.1875,-0.421875,0.296875,111
112,1696245048998,0.7404785,-0.055725098,0.6884155,-0.28125,-0.421875,0.28125,112
113,1696245049038,0.7429199,-0.059387207,0.6911011,-0.21875,-0.5,0.25,113
114,1696245049078,0.7390137,-0.05255127,0.6901245,-0.21875,-0.09375,0.390625,114
115,1696245049118,0.74072266,-0.05303955,0.68914795,-0.4375,-0.03125,0.53125,115
116,1696245049158,0.7414551,-0.059387207,0.7003784,0.53125,-0.015625,0.28125,116
117,1696245049198,0.7402344,-0.05230713,0.68255615,0.078125,-0.390625,-0.046875,117
118,1696245049238,0.74853516,-0.051086426,0.69989014,-0.046875,-0.046875,0.046875,118
119,1696245049278,0.7492676,-0.0491333,0.7055054,-0.734375,-0.296875,0.1875,119
120,1696245049318,0.75439453,-0.06109619,0.7062378,-0.59375,-0.890625,0.453125,120
121,1696245049358,0.75,-0.05328369,0.70599365,-1.0,-2.328125,-0.125,121
122,1696245049398,0.7531738,-0.047424316,0.6935425,-3.03125,-1.390625,0.8125,122
123,1696245049438,0.7348633,-0.045715332,0.68670654,-2.40625,-1.828125,0.78125,123
124,1696245049478,0.72436523,-0.041809082,0.69451904,-1.6875,-2.40625,0.4375,124
125,1696245049518,0.7158203,-0.03277588,0.68548584,-0.96875,-2.203125,0.359375,125
126,1696245049558,0.74438477,-0.046691895,0.6950073,-0.03125,-0.796875,0.46875,126
127,1696245049598,0.7297363,-0.05303955,0.67962646,0.8125,0.515625,-0.328125,127
128,1696245049638,0.736084,-0.046936035,0.70526123,2.109375,0.34375,0.125,128
129,1696245049678,0.72802734,-0.05255127,0.6991577,1.890625,0.21875,-0.421875,129
130,1696245049718,0.7397461,-0.04498291,0.68548584,1.0,0.546875,-0.078125,130
131,1696245049758,0.7416992,-0.046936035,0.7103882,0.703125,-0.25,-0.015625,131
132,1696245049798,0.74853516,-0.055236816,0.69989014,0.15625,-0.53125,-0.15625,132
133,1696245049838,0.74316406,-0.045959473,0.69207764,-0.4375,-0.171875,-0.25,133
134,1696245049878,0.74121094,-0.051330566,0.7040405,-0.015625,-0.3125,-0.484375,134
135,1696245049918,0.736084,-0.05279541,0.69403076,0.8125,-0.40625,-0.140625,135
136,1696245049958,0.73999023,-0.055480957,0.6984253,1.265625,-0.921875,-0.09375,136
137,1696245049998,0.734375,-0.058166504,0.68621826,0.546875,-0.921875,-0.109375,137
138,1696245050038,0.734375,-0.062805176,0.70184326,0.9375,-0.78125,0.078125,138
139,1696245050078,0.73657227,-0.051086426,0.7020874,1.15625,-1.171875,-0.09375,139
140,1696245050118,0.7421875,-0.051330566,0.69647217,0.328125,-0.34375,0.09375,140
141,1696245050158,0.7414551,-0.055236816,0.7098999,0.53125,-0.71875,0.265625,141
142,1696245050198,0.7385254,-0.05670166,0.7001343,0.65625,-0.734375,0.28125,142
143,1696245050238,0.7314453,-0.061340332,0.69696045,0.171875,-0.5,0.109375,143
144,1696245050278,0.7414551,-0.05718994,0.7001343,-0.203125,1.0625,0.1875,144
145,1696245050318,0.73950195,-0.07305908,0.68914795,-0.171875,-0.234375,0.015625,145
146,1696245050358,0.73583984,-0.05670166,0.701355,-0.328125,-0.5,0.421875,146
147,1696245050398,0.7392578,-0.057678223,0.6925659,-1.109375,-0.296875,0.484375,147
148,1696245050438,0.73535156,-0.054748535,0.6925659,-0.609375,-0.3125,0.40625,148
149,1696245050478,0.72875977,-0.06036377,0.70892334,0.359375,-0.5,0.359375,149
150,1696245050518,0.7434082,-0.054992676,0.6950073,-0.171875,-0.328125,-0.21875,150
151,1696245050558,0.7373047,-0.06304932,0.6947632,-0.140625,-0.4375,0.234375,151
152,1696245050598,0.7390137,-0.05596924,0.6828003,-1.015625,0.609375,0.328125,152
153,1696245050638,0.7416992,-0.062316895,0.7133179,0.828125,0.28125,-0.078125,153
154,1696245050678,0.7348633,-0.062316895,0.6884155,0.78125,-0.484375,-0.234375,154
155,1696245050718,0.736084,-0.06402588,0.6984253,0.09375,-0.296875,0.140625,155
156,1696245050758,0.7375488,-0.05230713,0.69573975,0.0625,-0.5625,0.3125,156
157,1696245050798,0.74731445,-0.054992676,0.69573975,-0.015625,-0.40625,0.34375,157
158,1696245050838,0.7390137,-0.059143066,0.69281006,0.125,-0.59375,0.09375,158
159,1696245050878,0.7355957,-0.06378174,0.6869507,-0.15625,-0.171875,0.609375,159
160,1696245050918,0.73999023,-0.06549072,0.69818115,-0.078125,-0.03125,0.25,160
161,1696245050958,0.736084,-0.0647583,0.7003784,0.046875,-0.671875,0.328125,161
162,1696245050998,0.7458496,-0.061584473,0.68084717,-0.421875,-0.625,0.21875,162
163,1696245051038,0.73461914,-0.055725098,0.70184326,-0.203125,-0.765625,0.25,163
164,1696245051078,0.74316406,-0.047180176,0.697937,-0.03125,-0.296875,0.203125,164
165,1696245051118,0.74243164,-0.059143066,0.6852417,-0.28125,-0.625,0.03125,165
166,1696245051158,0.73828125,-0.06060791,0.6967163,0.328125,-0.5625,0.328125,166
167,1696245051198,0.7438965,-0.058898926,0.69573975,0.09375,-0.9375,0.234375,167
168,1696245051238,0.73999023,-0.057922363,0.68865967,-0.125,-0.21875,0.40625,168
169,1696245051278,0.73876953,-0.06451416,0.70062256,-0.34375,-0.578125,0.234375,169
170,1696245051318,0.7426758,-0.058898926,0.68792725,-0.21875,-0.796875,0.546875,170
171,1696245051358,0.73339844,-0.057434082,0.71307373,0.5,-1.140625,0.421875,171
172,1696245051398,0.748291,-0.054260254,0.6815796,-0.484375,-0.578125,0.015625,172
173,1696245051438,0.73168945,-0.06036377,0.69403076,0.0,-0.546875,0.359375,173
174,1696245051478,0.7434082,-0.054260254,0.6893921,-1.09375,0.46875,0.4375,174
175,1696245051518,0.74243164,-0.061584473,0.70648193,0.46875,0.09375,0.25,175
176,1696245051558,0.74316406,-0.057922363,0.6942749,0.203125,-0.59375,0.203125,176
177,1696245051598,0.7404785,-0.059143066,0.6913452,-0.25,-0.140625,0.203125,177
178,1696245051638,0.7373047,-0.058898926,0.69866943,-0.609375,-0.40625,0.578125,178
179,1696245051678,0.7375488,-0.054260254,0.6942749,-0.78125,-0.640625,0.25,179
180,1696245051718,0.7380371,-0.054260254,0.6967163,-0.046875,-0.78125,0.25,180
181,1696245051758,0.7421875,-0.053771973,0.6972046,-0.046875,-0.484375,0.421875,181
182,1696245051798,0.7392578,-0.058166504,0.70111084,0.390625,-0.21875,0.375,182
183,1696245051838,0.74731445,-0.057678223,0.696228,0.46875,-0.859375,0.328125,183
184,1696245051878,0.7414551,-0.058166504,0.701355,-0.015625,-0.796875,0.453125,184
185,1696245051918,0.7392578,-0.06011963,0.6898804,-0.328125,-0.171875,0.3125,185
186,1696245051958,0.7512207,-0.054504395,0.68670654,-2.078125,1.34375,0.53125,186
187,1696245051998,0.74316406,-0.058654785,0.6959839,-1.140625,0.140625,0.765625,187
188,1696245052038,0.7397461,-0.055725098,0.7008667,-0.265625,-0.25,0.078125,188
189,1696245052078,0.7416992,-0.051086426,0.69573975,0.546875,-1.09375,0.09375,189
190,1696245052118,0.7297363,-0.049865723,0.70306396,0.53125,-0.859375,0.046875,190
191,1696245052158,0.73657227,-0.05230713,0.69744873,0.078125,-0.828125,0.0625,191
192,1696245052198,0.7380371,-0.051818848,0.7001343,0.140625,-1.046875,0.265625,192
193,1696245052238,0.7519531,-0.055236816,0.7062378,0.671875,-2.703125,0.1875,193
194,1696245052278,0.74609375,-0.05230713,0.7040405,-0.65625,-2.984375,0.3125,194
195,1696245052318,0.736084,-0.046447754,0.6989136,-1.921875,-1.59375,0.875,195
196,1696245052358,0.7348633,-0.054504395,0.70355225,-1.296875,-1.890625,0.828125,196
197,1696245052398,0.73779297,-0.06011963,0.7050171,-0.4375,-1.703125,0.0625,197
198,1696245052438,0.7282715,-0.050109863,0.6967163,-1.4375,-1.25,0.328125,198
199,1696245052478,0.73217773,-0.04425049,0.70892334,-1.5625,-0.875,0.875,199
200,1696245052518,0.7270508,-0.0413208,0.7020874,-1.875,-0.3125,0.84375,200
201,1696245052558,0.7468262,-0.046447754,0.7128296,-1.28125,-0.875,0.71875,201
202,1696245052598,0.7355957,-0.044006348,0.70355225,-1.578125,-1.5,0.5625,202
203,1696245052638,0.73461914,-0.039611816,0.7033081,-1.234375,-1.078125,0.515625,203
204,1696245052678,0.732666,-0.042541504,0.7015991,-0.375,-1.453125,0.03125,204
205,1696245052718,0.73095703,-0.041809082,0.69696045,-0.0625,-1.828125,-0.015625,205
206,1696245052758,0.7258301,-0.038146973,0.7055054,-0.25,-1.390625,-0.046875,206
207,1696245052798,0.72094727,-0.035705566,0.7033081,-0.015625,-0.5625,-0.171875,207
208,1696245052838,0.7336426,-0.03668213,0.7079468,1.390625,0.359375,-0.296875,208
209,1696245052878,0.73046875,-0.04522705,0.70428467,2.078125,-0.15625,-0.484375,209
210,1696245052918,0.72753906,-0.04815674,0.7086792,1.171875,-0.640625,0.0625,210
211,1696245052958,0.7355957,-0.046936035,0.7062378,0.625,-1.046875,0.15625,211
212,1696245052998,0.7392578,-0.04473877,0.7116089,0.046875,-0.765625,0.234375,212
213,1696245053038,0.7282715,-0.04083252,0.71258545,0.453125,-1.375,0.265625,213
214,1696245053078,0.7272949,-0.04522705,0.70306396,-0.453125,-0.59375,0.28125,214
215,1696245053118,0.73095703,-0.046203613,0.69329834,-0.234375,0.640625,-0.09375,215
216,1696245053158,0.72802734,-0.051574707,0.7206421,0.984375,-0.546875,-0.53125,216
217,1696245053198,0.7348633,-0.05621338,0.70477295,0.75,-0.859375,0.078125,217
218,1696245053238,0.72802734,-0.04815674,0.71258545,0.328125,-0.234375,-0.078125,218
219,1696245053278,0.72631836,-0.04888916,0.7140503,0.546875,-0.03125,0.109375,219
220,1696245053318,0.7348633,-0.04522705,0.7015991,-0.125,0.078125,0.046875,220
221,1696245053358,0.7348633,-0.05206299,0.7128296,0.078125,-0.09375,0.09375,221
222,1696245053398,0.7314453,-0.051086426,0.69818115,-0.125,0.0625,0.046875,222
223,1696245053438,0.73339844,-0.04864502,0.711853,0.671875,-0.171875,0.0,223
224,1696245053478,0.72680664,-0.059387207,0.7015991,1.28125,-0.359375,0.109375,224
225,1696245053518,0.73095703,-0.058166504,0.7103882,0.515625,-0.1875,0.109375,225
226,1696245053558,0.72753906,-0.049865723,0.70721436,0.0,-0.46875,0.21875,226
227,1696245053598,0.7314453,-0.04815674,0.7111206,-0.21875,-0.34375,0.09375,227
228,1696245053638,0.7319336,-0.047180176,0.70599365,0.0,0.109375,0.203125,228
229,1696245053678,0.7373047,-0.06378174,0.699646,0.5625,-0.109375,0.203125,229
230,1696245053718,0.7351074,-0.06109619,0.7037964,0.53125,0.3125,0.140625,230
231,1696245053758,0.732666,-0.06695557,0.71795654,1.046875,-1.03125,0.25,231
232,1696245053798,0.7285156,-0.05230713,0.70233154,-0.203125,-0.90625,0.203125,232
233,1696245053838,0.72558594,-0.05328369,0.6967163,-0.671875,0.546875,0.34375,233
234,1696245053878,0.73828125,-0.057678223,0.70526123,-0.15625,0.875,0.234375,234
235,1696245053918,0.7426758,-0.053771973,0.7028198,1.234375,0.109375,-0.078125,235
236,1696245053958,0.7434082,-0.06085205,0.7001343,0.578125,-0.625,-0.0625,236
237,1696245053998,0.73828125,-0.06011963,0.7062378,0.015625,0.046875,0.09375,237
238,1696245054038,0.736084,-0.059387207,0.7008667,0.390625,-0.34375,0.265625,238
239,1696245054078,0.7351074,-0.05621338,0.69403076,-0.125,-0.40625,0.328125,239
240,1696245054118,0.7363281,-0.059631348,0.69036865,0.125,-0.4375,0.140625,240
241,1696245054158,0.7319336,-0.061584473,0.70062256,-0.078125,0.28125,0.21875,241
242,1696245054198,0.73461914,-0.070129395,0.7111206,0.515625,-0.171875,0.234375,242
243,1696245054238,0.73583984,-0.066223145,0.69866943,0.40625,-0.765625,0.421875,243
244,1696245054278,0.73706055,-0.0569458,0.7050171,0.15625,-0.265625,0.390625,244
245,1696245054318,0.7363281,-0.058654785,0.7020874,0.03125,-0.25,0.171875,245
246,1696245054358,0.7373047,-0.06085205,0.7067261,0.078125,-0.015625,-0.015625,246
247,1696245054398,0.7368164,-0.062805176,0.697937,0.328125,-0.421875,0.171875,247
248,1696245054438,0.73413086,-0.06451416,0.69989014,0.390625,-0.359375,0.328125,248
249,1696245054478,0.7375488,-0.06427002,0.6935425,0.1875,0.015625,0.484375,249
250,1696245054518,0.734375,-0.0635376,0.7157593,0.0625,-1.890625,0.796875,250
251,1696245054558,0.7426758,-0.06304932,0.70428467,0.59375,-1.828125,0.0,251
252,1696245054598,0.74121094,-0.05987549,0.67962646,-1.328125,0.71875,0.734375,252
253,1696245054638,0.7373047,-0.057678223,0.70648193,-0.328125,0.484375,0.4375,253
254,1696245054678,0.732666,-0.061340332,0.6947632,0.5,-0.421875,-0.015625,254
255,1696245054718,0.73413086,-0.05718994,0.69696045,0.734375,-0.578125,0.171875,255
256,1696245054758,0.73413086,-0.059143066,0.69403076,-0.09375,-0.546875,0.234375,256
257,1696245054798,0.73095703,-0.058654785,0.6976929,-1.171875,-0.09375,0.5,257
258,1696245054838,0.7397461,-0.059387207,0.7069702,0.1875,-0.25,0.3125,258
259,1696245054878,0.7373047,-0.05279541,0.6947632,0.3125,-0.15625,0.15625,259
260,1696245054918,0.7380371,-0.054504395,0.7003784,-0.421875,0.109375,0.671875,260
261,1696245054958,0.73535156,-0.058410645,0.70306396,0.5,-0.34375,0.5625,261
262,1696245054998,0.7392578,-0.0647583,0.68670654,0.328125,-0.875,0.015625,262
263,1696245055038,0.73876953,-0.057922363,0.6967163,-0.171875,-0.25,0.515625,263
264,1696245055078,0.73291016,-0.058898926,0.69940186,-0.65625,-0.125,0.40625,264
265,1696245055118,0.7375488,-0.054992676,0.69818115,-0.078125,-0.390625,0.21875,265
266,1696245055158,0.7373047,-0.059143066,0.699646,0.34375,-0.765625,-0.09375,266
267,1696245055198,0.74560547,-0.06304932,0.6950073,-0.046875,-0.609375,0.0625,267
268,1696245055238,0.74316406,-0.054504395,0.6954956,0.0,-0.6875,0.21875,268
269,1696245055278,0.74072266,-0.059631348,0.6967163,-0.359375,-0.078125,0.3125,269
270,1696245055318,0.73217773,-0.05987549,0.70477295,0.28125,-1.296875,0.375,270
271,1696245055358,0.734375,-0.05621338,0.69451904,-0.203125,-1.4375,0.265625,271
272,1696245055398,0.73217773,-0.047668457,0.68743896,-1.0,0.34375,0.375,272
273,1696245055438,0.73095703,-0.06109619,0.7008667,-0.390625,0.5625,0.125,273
274,1696245055478,0.7404785,-0.061340332,0.7074585,0.765625,-0.328125,0.4375,274
275,1696245055518,0.73779297,-0.06378174,0.682312,0.53125,-0.265625,-0.171875,275
276,1696245055558,0.7397461,-0.05621338,0.7074585,-0.078125,-0.09375,0.453125,276
277,1696245055598,0.73950195,-0.057678223,0.6893921,-0.34375,0.015625,0.171875,277
278,1696245055638,0.7397461,-0.05987549,0.70599365,-0.171875,-0.265625,0.4375,278
279,1696245055678,0.7355957,-0.06304932,0.69525146,0.359375,-0.984375,0.328125,279
280,1696245055718,0.73583984,-0.055725098,0.68792725,-0.15625,-0.1875,0.109375,280
281,1696245055758,0.74316406,-0.05718994,0.6930542,0.125,-0.515625,0.640625,281
282,1696245055798,0.7338867,-0.06964111,0.69085693,0.015625,-0.90625,0.234375,282
283,1696245055838,0.7392578,-0.058166504,0.7028198,-0.3125,-0.25,0.421875,283
284,1696245055878,0.7297363,-0.058654785,0.6911011,-0.421875,0.140625,0.34375,284
285,1696245055918,0.7390137,-0.058898926,0.6937866,-0.265625,-0.125,0.265625,285
286,1696245055958,0.7348633,-0.06109619,0.7001343,-0.21875,-0.171875,0.484375,286
287,1696245055998,0.74487305,-0.0647583,0.70355225,-0.125,-0.484375,0.40625,287
288,1696245056038,0.7375488,-0.051330566,0.699646,-0.40625,-0.53125,0.421875,288
289,1696245056078,0.73828125,-0.06036377,0.6893921,-0.140625,-0.453125,0.328125,289
290,1696245056118,0.732666,-0.05206299,0.6935425,-0.5,-0.171875,0.40625,290
291,1696245056158,0.74243164,-0.057922363,0.68963623,-0.0625,-0.578125,0.3125,291
292,1696245056198,0.73876953,-0.05621338,0.70233154,0.125,-1.109375,0.234375,292
293,1696245056238,0.7416992,-0.057678223,0.6984253,0.375,-1.53125,0.5625,293
294,1696245056278,0.73461914,-0.054504395,0.67645264,-0.984375,-0.1875,0.328125,294
295,1696245056318,0.73828125,-0.05328369,0.7098999,-0.59375,0.359375,0.984375,295
296,1696245056358,0.7351074,-0.054748535,0.6937866,0.171875,-0.515625,0.25,296
297,1696245056398,0.73461914,-0.050109863,0.6871948,-0.375,0.03125,0.390625,297
298,1696245056438,0.74243164,-0.050842285,0.70233154,0.5,0.234375,0.125,298
299,1696245056478,0.7438965,-0.046447754,0.68792725,-0.09375,-0.484375,0.203125,299
300,1696245056518,0.7492676,-0.058410645,0.6942749,-0.25,-0.171875,0.578125,300
301,1696245056558,0.7380371,-0.04864502,0.68548584,-0.21875,-0.140625,0.296875,301
302,1696245056598,0.74072266,-0.057678223,0.6950073,-0.125,-0.1875,0.296875,302
303,1696245056638,0.74243164,-0.06036377,0.6984253,0.03125,-0.5625,0.4375,303
304,1696245056678,0.7441406,-0.054260254,0.6925659,-0.078125,-0.765625,0.3125,304
305,1696245056718,0.73779297,-0.05328369,0.6911011,-0.21875,-0.359375,0.515625,305
306,1696245056758,0.73657227,-0.051574707,0.6959839,-0.375,-0.1875,0.40625,306
307,1696245056798,0.74365234,-0.055236816,0.6942749,0.078125,-0.75,0.375,307
308,1696245056838,0.7336426,-0.05303955,0.6976929,0.90625,-1.328125,0.515625,308
309,1696245056878,0.7458496,-0.054748535,0.68548584,-0.140625,-0.375,0.234375,309
310,1696245056918,0.7397461,-0.04815674,0.6991577,0.203125,-0.234375,0.453125,310
311,1696245056958,0.7441406,-0.055725098,0.6967163,0.28125,-0.09375,-0.03125,311
312,1696245056998,0.74438477,-0.053771973,0.69403076,0.90625,-0.765625,0.375,312
313,1696245057038,0.7404785,-0.054992676,0.69744873,0.75,-0.359375,0.28125,313
314,1696245057078,0.7429199,-0.05645752,0.6820679,0.140625,0.3125,0.078125,314
315,1696245057118,0.7446289,-0.055725098,0.68548584,-0.421875,0.46875,0.296875,315
316,1696245057158,0.74609375,-0.05670166,0.69525146,-0.671875,0.453125,0.3125,316
317,1696245057198,0.7492676,-0.0647583,0.71624756,0.921875,-0.671875,0.125,317
318,1696245057238,0.748291,-0.057434082,0.68426514,-0.59375,-1.765625,-1.109375,318
319,1696245057278,0.7434082,-0.04425049,0.6989136,0.5,-2.21875,0.765625,319
320,1696245057318,0.7373047,-0.053771973,0.6901245,0.59375,-1.96875,0.390625,320
321,1696245057358,0.73339844,-0.055480957,0.6898804,0.0625,-1.046875,0.65625,321
322,1696245057398,0.7319336,-0.059387207,0.6847534,-0.359375,-0.984375,0.3125,322
323,1696245057438,0.73535156,-0.06378174,0.6984253,0.109375,-0.515625,0.59375,323
324,1696245057478,0.73535156,-0.0635376,0.7028198,0.015625,-0.203125,0.203125,324
325,1696245057518,0.7319336,-0.061828613,0.697937,-0.578125,-0.6875,0.625,325
326,1696245057558,0.74243164,-0.04547119,0.6942749,-1.390625,0.421875,0.140625,326
327,1696245057598,0.74121094,-0.043518066,0.69940186,-1.265625,0.953125,0.15625,327
328,1696245057638,0.7421875,-0.050354004,0.6991577,-0.5625,-0.140625,0.3125,328
329,1696245057678,0.7421875,-0.044006348,0.69573975,0.203125,-0.078125,0.046875,329
330,1696245057718,0.74609375,-0.050598145,0.68743896,0.078125,-0.0625,0.140625,330
331,1696245057758,0.7426758,-0.049621582,0.69818115,-0.109375,-0.03125,0.25,331
332,1696245057798,0.7458496,-0.05303955,0.68743896,0.140625,-0.53125,0.046875,332
333,1696245057838,0.7416992,-0.057434082,0.68426514,-0.078125,-0.796875,0.234375,333
334,1696245057878,0.7368164,-0.057678223,0.697937,0.484375,-1.484375,0.0625,334
335,1696245057918,0.7351074,-0.05328369,0.7008667,0.265625,-1.21875,0.46875,335
336,1696245057958,0.7402344,-0.053771973,0.6911011,-0.625,-0.21875,0.234375,336
337,1696245057998,0.73876953,-0.06085205,0.6950073,-0.8125,0.25,0.546875,337
338,1696245058038,0.74072266,-0.05718994,0.69573975,-0.140625,-0.3125,0.34375,338
339,1696245058078,0.73461914,-0.050842285,0.6950073,-0.375,-0.59375,0.265625,339
340,1696245058118,0.73291016,-0.051086426,0.6911011,-0.78125,-0.078125,0.28125,340
341,1696245058158,0.73999023,-0.046447754,0.6967163,-0.875,-0.234375,0.265625,341
342,1696245058198,0.74609375,-0.04547119,0.7015991,-0.203125,0.046875,0.234375,342
343,1696245058238,0.7458496,-0.04473877,0.6876831,-0.203125,-0.15625,0.375,343
344,1696245058278,0.7463379,-0.051086426,0.6942749,0.109375,0.078125,0.375,344
345,1696245058318,0.7463379,-0.054016113,0.69940186,0.421875,-0.703125,0.28125,345
346,1696245058358,0.7487793,-0.053771973,0.6852417,0.125,-0.84375,0.28125,346
347,1696245058398,0.7441406,-0.046203613,0.6835327,-0.4375,-0.09375,0.359375,347
348,1696245058438,0.74975586,-0.04815674,0.68743896,-0.109375,-0.71875,0.34375,348
349,1696245058478,0.74853516,-0.045715332,0.68621826,-0.3125,-0.375,0.046875,349
350,1696245058518,0.7429199,-0.04888916,0.69403076,-0.078125,-0.640625,0.296875,350
351,1696245058558,0.74487305,-0.050354004,0.6937866,0.03125,-0.765625,0.109375,351
352,1696245058598,0.74780273,-0.05279541,0.6925659,-0.140625,-0.234375,0.09375,352
353,1696245058638,0.7468262,-0.047424316,0.69158936,0.046875,-0.453125,0.328125,353
354,1696245058678,0.73706055,-0.046203613,0.69525146,-0.265625,-0.25,0.59375,354
355,1696245058718,0.7426758,-0.0413208,0.68621826,-0.484375,-0.5625,0.125,355
356,1696245058758,0.73999023,-0.043029785,0.6911011,-0.296875,0.0,0.65625,356
357,1696245058798,0.7487793,-0.04425049,0.68573,-0.8125,1.046875,0.328125,357
358,1696245058838,0.74853516,-0.050354004,0.7008667,0.078125,0.90625,-0.046875,358
359,1696245058878,0.763916,-0.051086426,0.68743896,-0.015625,0.671875,-0.1875,359
360,1696245058918,0.74731445,-0.041809082,0.7145386,0.125,-0.265625,0.109375,376
361,1696245058958,0.73999023,-0.051818848,0.7081909,0.265625,-0.78125,-0.078125,377
362,1696245058998,0.73828125,-0.049865723,0.69451904,0.359375,-0.421875,-0.09375,378
363,1696245059038,0.72998047,-0.051330566,0.701355,1.0,-0.390625,0.03125,379
364,1696245059078,0.73461914,-0.051818848,0.69573975,0.953125,-0.515625,-0.0625,380
365,1696245059118,0.73461914,-0.04864502,0.7040405,0.484375,-1.171875,0.234375,381
366,1696245059158,0.73339844,-0.047668457,0.6967163,0.09375,-0.90625,0.203125,382
367,1696245059198,0.7272949,-0.050598145,0.7081909,0.1875,-0.234375,0.109375,383
368,1696245059238,0.7421875,-0.055480957,0.7128296,1.265625,-0.421875,-0.015625,384
369,1696245059278,0.7385254,-0.055725098,0.7074585,1.234375,-0.625,-0.09375,385
370,1696245059318,0.7351074,-0.053771973,0.7103882,0.78125,-0.59375,0.265625,386
371,1696245059358,0.7307129,-0.06304932,0.699646,0.0,-0.28125,0.53125,387
372,1696245059398,0.7236328,-0.05279541,0.69744873,-0.375,0.1875,0.328125,388
373,1696245059438,0.732666,-0.057434082,0.7074585,0.171875,0.0625,0.1875,389
374,1696245059478,0.7338867,-0.05206299,0.71136475,0.671875,-0.6875,0.015625,390
375,1696245059518,0.74609375,-0.051086426,0.6898804,0.078125,-0.125,0.078125,391
376,1696245059558,0.73657227,-0.061584473,0.7033081,0.75,-0.296875,0.421875,392
377,1696245059598,0.7351074,-0.06451416,0.6881714,-0.140625,0.78125,0.21875,393
378,1696245059638,0.7348633,-0.062316895,0.70477295,0.640625,0.28125,0.21875,394
379,1696245059678,0.7373047,-0.06304932,0.69158936,0.21875,-0.5,0.015625,395
380,1696245059718,0.73828125,-0.059387207,0.7003784,-0.578125,-0.09375,0.203125,396
381,1696245059758,0.7355957,-0.058654785,0.6976929,-0.203125,-0.515625,0.421875,397
382,1696245059798,0.7355957,-0.05303955,0.7033081,-0.171875,-0.515625,0.25,398
383,1696245059838,0.7402344,-0.054260254,0.6930542,0.609375,-0.453125,0.03125,399
384,1696245059878,0.73779297,-0.059387207,0.69696045,0.6875,-0.4375,0.0625,400
385,1696245059918,0.7355957,-0.06060791,0.7062378,1.171875,-0.328125,0.328125,401
386,1696245059958,0.73657227,-0.06939697,0.70111084,1.15625,-0.796875,0.15625,402
387,1696245059998,0.73657227,-0.062561035,0.6925659,-0.390625,-0.59375,0.453125,403
388,1696245060038,0.7270508,-0.062561035,0.6898804,-0.765625,-0.125,0.390625,404
389,1696245060078,0.73583984,-0.06085205,0.7008667,-0.984375,0.15625,0.390625,405
390,1696245060118,0.7446289,-0.054748535,0.69525146,-0.390625,0.015625,0.453125,406
391,1696245060158,0.7404785,-0.054748535,0.69818115,-0.546875,-0.296875,0.40625,407
392,1696245060198,0.73779297,-0.06378174,0.7116089,0.5625,-1.046875,0.375,408
393,1696245060238,0.73828125,-0.05670166,0.696228,-0.40625,-0.703125,0.296875,409
394,1696245060278,0.73779297,-0.055480957,0.69281006,-0.3125,-1.09375,0.578125,410
395,1696245060318,0.7397461,-0.05303955,0.6881714,-0.9375,-0.15625,0.4375,411
396,1696245060358,0.73291016,-0.057434082,0.7020874,0.25,-0.328125,0.515625,412
397,1696245060398,0.7414551,-0.059631348,0.68743896,-0.3125,-0.609375,0.234375,413
398,1696245060438,0.74194336,-0.050598145,0.70355225,-0.1875,-0.25,-0.109375,414
399,1696245060478,0.7404785,-0.050842285,0.6923218,-0.03125,-0.375,0.359375,415
400,1696245060518,0.7390137,-0.054748535,0.6925659,-0.1875,-0.25,0.421875,416
401,1696245060558,0.74487305,-0.054260254,0.696228,-0.078125,-0.3125,0.390625,417
402,1696245060598,0.736084,-0.061584473,0.69329834,-0.40625,-0.328125,0.5,418
403,1696245060638,0.73461914,-0.058410645,0.69866943,-0.140625,-0.328125,0.4375,419
404,1696245060678,0.7375488,-0.051574707,0.70428467,0.234375,-0.6875,0.359375,420
405,1696245060718,0.73950195,-0.054748535,0.69647217,-0.578125,-0.140625,0.390625,421
406,1696245060758,0.7441406,-0.053527832,0.69940186,-0.625,-0.234375,0.328125,422
407,1696245060798,0.7429199,-0.05206299,0.6881714,-0.109375,-0.484375,0.015625,423
408,1696245060838,0.73999023,-0.050598145,0.697937,-0.203125,-0.1875,0.125,424
409,1696245060878,0.7480469,-0.050109863,0.69696045,-0.234375,-0.203125,0.375,425
410,1696245060918,0.7438965,-0.05303955,0.6954956,-0.234375,-0.703125,0.515625,426
411,1696245060958,0.7390137,-0.053771973,0.6950073,0.640625,-1.171875,0.140625,427
412,1696245060998,0.7312012,-0.041809082,0.6925659,-0.09375,-0.796875,0.15625,428
413,1696245061038,0.74609375,-0.0491333,0.68670654,-0.65625,-0.234375,0.5625,429
414,1696245061078,0.73535156,-0.043029785,0.70062256,-0.796875,0.46875,0.21875,430
415,1696245061118,0.74316406,-0.054504395,0.70062256,0.5,-0.640625,0.0625,431
416,1696245061158,0.73535156,-0.04888916,0.6918335,0.03125,-0.4375,0.0625,432
417,1696245061198,0.73583984,-0.053527832,0.7001343,-0.140625,-0.296875,0.296875,433
418,1696245061238,0.7429199,-0.051086426,0.6918335,-0.234375,-0.125,0.40625,434
419,1696245061278,0.7373047,-0.049621582,0.7001343,-0.390625,0.09375,0.265625,435
420,1696245061318,0.74072266,-0.04937744,0.6852417,-0.703125,0.203125,0.453125,436
421,1696245061358,0.74365234,-0.05230713,0.68963623,-0.421875,0.140625,0.453125,437
422,1696245061398,0.74731445,-0.04840088,0.7003784,0.0625,-0.046875,0.3125,438
423,1696245061438,0.7475586,-0.054504395,0.6930542,-0.765625,-0.546875,0.328125,439
424,1696245061478,0.7507324,-0.049865723,0.7025757,-1.234375,-2.265625,0.609375,440
425,1696245061518,0.74194336,-0.049621582,0.7015991,-1.578125,-3.453125,0.640625,441
426,1696245061558,0.7492676,-0.042053223,0.6972046,-1.84375,-2.640625,0.125,442
427,1696245061598,0.73461914,-0.038146973,0.70428467,-1.953125,-2.453125,0.328125,443
428,1696245061638,0.7319336,-0.04425049,0.7140503,-1.453125,-2.484375,0.296875,444
429,1696245061678,0.7351074,-0.043762207,0.69818115,-0.484375,-2.03125,-0.578125,445
430,1696245061718,0.7302246,-0.043518066,0.70184326,-0.90625,-2.296875,-0.515625,446
431,1696245061758,0.7233887,-0.042053223,0.711853,-1.671875,-2.03125,0.375,447
432,1696245061798,0.7236328,-0.039611816,0.7001343,-0.96875,-2.296875,0.265625,448
433,1696245061838,0.7233887,-0.023742676,0.7081909,-1.359375,-1.0625,0.390625,449
434,1696245061878,0.72216797,-0.030090332,0.6869507,-1.296875,1.90625,0.359375,450
435,1696245061918,0.7324219,-0.046936035,0.7218628,3.46875,2.015625,-0.671875,451
436,1696245061958,0.7290039,-0.04498291,0.69744873,3.875,0.421875,-0.546875,452
437,1696245061998,0.73535156,-0.050842285,0.69158936,1.59375,-0.078125,0.21875,453
438,1696245062038,0.73583984,-0.039611816,0.70184326,0.296875,-0.890625,0.375,454
439,1696245062078,0.73583984,-0.0413208,0.7062378,-0.25,-0.546875,0.015625,455
440,1696245062118,0.73657227,-0.035949707,0.7123413,0.109375,-0.59375,-0.078125,456
441,1696245062158,0.734375,-0.042053223,0.7033081,-0.5625,-0.015625,-0.25,457
442,1696245062198,0.7297363,-0.053527832,0.71502686,0.921875,0.0625,-0.15625,458
443,1696245062238,0.73535156,-0.057434082,0.7020874,1.875,-0.65625,-0.21875,459
444,1696245062278,0.7375488,-0.055725098,0.7020874,0.421875,0.046875,0.25,460
445,1696245062318,0.7277832,-0.05670166,0.7055054,0.21875,-0.84375,0.34375,461
446,1696245062358,0.73291016,-0.04522705,0.70770264,-0.640625,-0.34375,0.25,462
447,1696245062398,0.736084,-0.03741455,0.7057495,-0.28125,0.046875,-0.046875,463
448,1696245062438,0.734375,-0.049865723,0.7037964,0.4375,-0.265625,0.0,464
449,1696245062478,0.73657227,-0.0491333,0.7037964,0.578125,0.015625,0.0,465
450,1696245062518,0.73535156,-0.058654785,0.6991577,0.671875,-0.171875,0.1875,466
451,1696245062558,0.73950195,-0.058654785,0.69866943,0.5625,-0.125,0.234375,467
452,1696245062598,0.72753906,-0.051574707,0.699646,0.125,-0.515625,0.328125,468
453,1696245062638,0.72924805,-0.046691895,0.7111206,0.265625,-0.5,0.3125,469
454,1696245062678,0.73168945,-0.047668457,0.69085693,-0.84375,0.65625,0.03125,470
455,1696245062718,0.7351074,-0.045959473,0.72039795,0.625,0.3125,-0.015625,471
456,1696245062758,0.7380371,-0.054016113,0.70233154,0.875,-0.375,0.21875,472
457,1696245062798,0.7348633,-0.053527832,0.69818115,0.34375,0.359375,-0.046875,473
458,1696245062838,0.7390137,-0.06378174,0.70843506,0.765625,-0.515625,0.265625,474
459,1696245062878,0.73291016,-0.053771973,0.6976929,-0.015625,-0.59375,0.203125,475
460,1696245062918,0.7331543,-0.051818848,0.68743896,-0.578125,-0.6875,0.34375,476
461,1696245062958,0.73657227,-0.05621338,0.70184326,-0.875,-0.140625,0.328125,477
462,1696245062998,0.73950195,-0.045715332,0.7079468,0.078125,-0.359375,0.1875,478
463,1696245063038,0.7421875,-0.051574707,0.70111084,0.78125,-0.640625,0.25,479
464,1696245063078,0.74121094,-0.05718994,0.696228,-0.125,-0.125,0.171875,480
465,1696245063118,0.7363281,-0.057922363,0.6984253,-0.0625,-0.09375,0.34375,481
466,1696245063158,0.7331543,-0.045959473,0.7045288,-0.359375,-0.015625,0.28125,482
467,1696245063198,0.7392578,-0.051818848,0.69451904,-0.09375,-0.171875,0.25,483
468,1696245063238,0.7404785,-0.05645752,0.699646,0.3125,-0.375,0.171875,484
469,1696245063278,0.73999023,-0.046203613,0.6950073,0.453125,-0.109375,-0.046875,485
470,1696245063318,0.7390137,-0.05303955,0.6884155,0.40625,-0.265625,0.25,486
471,1696245063358,0.73779297,-0.057678223,0.699646,0.359375,-0.125,0.375,487
472,1696245063398,0.7390137,-0.05621338,0.69281006,0.0625,-0.640625,0.1875,488
473,1696245063438,0.74365234,-0.05670166,0.70428467,0.203125,-0.734375,0.09375,489
474,1696245063478,0.73168945,-0.055236816,0.7081909,0.015625,-0.4375,0.484375,490
475,1696245063518,0.7392578,-0.05645752,0.6950073,-1.53125,0.25,0.46875,491
476,1696245063558,0.7426758,-0.057434082,0.71795654,-0.703125,-1.09375,0.609375,492
477,1696245063598,0.7385254,-0.05987549,0.696228,-1.234375,-2.265625,0.28125,493
478,1696245063638,0.72802734,-0.042785645,0.6913452,-1.734375,-1.4375,0.453125,494
479,1696245063678,0.73461914,-0.03741455,0.6937866,-1.296875,-0.171875,0.703125,495
480,1696245063718,0.7277832,-0.043273926,0.70111084,-0.578125,0.046875,0.453125,496
481,1696245063758,0.7426758,-0.045715332,0.69696045,0.375,0.234375,0.234375,497
482,1696245063798,0.7414551,-0.05596924,0.69281006,0.34375,0.296875,0.46875,498
483,1696245063838,0.7487793,-0.04937744,0.6984253,0.21875,0.0625,0.125,499
484,1696245063878,0.7468262,-0.05279541,0.7033081,0.625,-0.28125,0.265625,500
485,1696245063918,0.736084,-0.042785645,0.6959839,0.015625,-0.390625,0.421875,501
486,1696245063958,0.7336426,-0.040100098,0.69207764,0.09375,-0.015625,0.53125,502
487,1696245063998,0.736084,-0.05206299,0.6984253,0.375,0.03125,0.25,503
488,1696245064038,0.7373047,-0.04498291,0.6991577,0.59375,-0.03125,0.046875,504
489,1696245064078,0.7375488,-0.06109619,0.6901245,0.75,-0.65625,0.203125,505
490,1696245064118,0.7402344,-0.06573486,0.69989014,0.546875,-0.8125,0.328125,506
491,1696245064158,0.73461914,-0.06036377,0.6954956,0.0,-1.21875,0.328125,507
492,1696245064198,0.73706055,-0.046691895,0.6991577,-0.640625,-0.390625,0.375,508
493,1696245064238,0.74194336,-0.042785645,0.6991577,-0.59375,0.140625,0.515625,509
494,1696245064278,0.73291016,-0.04498291,0.70526123,0.265625,-0.46875,0.28125,510
495,1696245064318,0.7475586,-0.04083252,0.69573975,-0.40625,-0.3125,0.1875,511
496,1696245064358,0.734375,-0.047912598,0.696228,1.53125,-2.953125,0.1875,512
497,1696245064398,0.73291016,-0.05279541,0.6810913,0.75,1.34375,-0.578125,513
498,1696245064438,0.7429199,-0.057922363,0.70892334,1.28125,0.171875,0.078125,514
499,1696245064478,0.74365234,-0.054504395,0.69744873,0.078125,-0.140625,0.0625,515
500,1696245064518,0.74316406,-0.05328369,0.7033081,-0.484375,0.25,0.125,516
501,1696245064558,0.74560547,-0.049865723,0.6976929,-0.203125,-0.234375,0.203125,517
502,1696245064598,0.7392578,-0.04840088,0.6911011,-0.21875,-0.234375,0.3125,518
503,1696245064638,0.73828125,-0.055236816,0.701355,0.65625,-0.6875,0.1875,519
504,1696245064678,0.73291016,-0.05596924,0.6930542,0.4375,-0.796875,0.1875,520
505,1696245064718,0.74121094,-0.061584473,0.69525146,0.0,-0.640625,0.484375,521
506,1696245064758,0.7363281,-0.05718994,0.6935425,0.09375,-0.640625,0.328125,522
507,1696245064798,0.74438477,-0.053527832,0.6950073,-0.59375,-0.03125,0.46875,523
508,1696245064838,0.74438477,-0.04937744,0.6906128,-0.296875,-0.234375,0.375,524
509,1696245064878,0.75024414,-0.05328369,0.6972046,-0.28125,-0.4375,0.421875,525
510,1696245064918,0.7441406,-0.049621582,0.7001343,0.046875,-0.796875,0.265625,526
511,1696245064958,0.74365234,-0.05718994,0.69281006,0.90625,-0.9375,0.03125,527
512,1696245064998,0.74560547,-0.050842285,0.69573975,0.53125,-0.71875,0.25,528
513,1696245065038,0.73828125,-0.051818848,0.69207764,0.0625,-0.890625,0.328125,529
514,1696245065078,0.7409668,-0.050842285,0.6947632,-0.09375,-0.671875,0.09375,530
515,1696245065118,0.7458496,-0.04840088,0.6923218,0.21875,-0.640625,0.53125,531
516,1696245065158,0.7324219,-0.05645752,0.70233154,0.671875,-0.46875,0.6875,532
517,1696245065198,0.74243164,-0.057922363,0.6918335,0.125,-0.734375,0.453125,533
518,1696245065238,0.7302246,-0.05596924,0.6935425,0.875,-0.890625,0.359375,534
519,1696245065278,0.73828125,-0.050354004,0.68865967,-1.09375,0.65625,0.28125,535
520,1696245065318,0.7409668,-0.061828613,0.7098999,-0.484375,0.28125,0.421875,536
521,1696245065358,0.7385254,-0.059387207,0.6845093,-0.015625,-0.171875,0.25,537
522,1696245065398,0.7380371,-0.05645752,0.69281006,-0.015625,-0.28125,0.015625,538
523,1696245065438,0.74194336,-0.04937744,0.69818115,-0.421875,-0.25,0.5,539
524,1696245065478,0.7438965,-0.058654785,0.69329834,-0.59375,-0.1875,0.4375,540
525,1696245065518,0.7409668,-0.046203613,0.6925659,-0.3125,-0.46875,0.484375,541
526,1696245065558,0.74365234,-0.051330566,0.69329834,-0.296875,-0.3125,0.234375,542
527,1696245065598,0.74560547,-0.051086426,0.69281006,0.0,-0.1875,0.359375,543
528,1696245065638,0.73706055,-0.059387207,0.7037964,0.1875,-0.609375,0.390625,544
529,1696245065678,0.74609375,-0.046203613,0.68670654,0.03125,-0.5625,0.359375,545
530,1696245065718,0.73217773,-0.054504395,0.6913452,-0.03125,-0.84375,0.171875,546
531,1696245065758,0.73291016,-0.04864502,0.6930542,-0.078125,-0.375,0.203125,547
532,1696245065798,0.7438965,-0.04937744,0.6989136,-0.078125,-0.9375,0.046875,548
533,1696245065838,0.7426758,-0.054748535,0.69085693,0.03125,-0.765625,0.21875,549
534,1696245065878,0.74072266,-0.04425049,0.6954956,0.140625,-0.71875,0.15625,550
535,1696245065918,0.7363281,-0.05596924,0.69281006,0.046875,-0.65625,0.46875,551
536,1696245065958,0.73583984,-0.05670166,0.70062256,0.21875,-0.5625,0.359375,552
537,1696245065998,0.73535156,-0.051574707,0.6935425,0.25,-0.359375,0.21875,553
538,1696245066038,0.736084,-0.05255127,0.6972046,0.1875,-0.796875,0.21875,554
539,1696245066078,0.74194336,-0.04522705,0.70233154,-0.34375,0.0,0.09375,555
540,1696245066118,0.7392578,-0.046691895,0.6898804,-0.609375,0.359375,0.296875,556
541,1696245066158,0.7421875,-0.058410645,0.6989136,-0.515625,0.4375,0.234375,557
542,1696245066198,0.74609375,-0.058898926,0.71502686,1.6875,-1.078125,0.328125,558
543,1696245066238,0.74975586,-0.050598145,0.6864624,0.15625,-2.59375,-0.046875,559
544,1696245066278,0.7390137,-0.041809082,0.7008667,-1.71875,-1.296875,1.1875,560
545,1696245066318,0.7404785,-0.04864502,0.7020874,-0.625,-1.671875,1.5,561
546,1696245066358,0.73217773,-0.043273926,0.69451904,-0.46875,-1.84375,0.234375,562
547,1696245066398,0.7285156,-0.05303955,0.6959839,-0.78125,-2.203125,0.375,563
548,1696245066438,0.7219238,-0.055236816,0.7050171,-0.796875,-1.828125,0.703125,564
549,1696245066478,0.7390137,-0.05230713,0.70477295,0.28125,-2.265625,0.390625,565
550,1696245066518,0.7312012,-0.050354004,0.69281006,-0.796875,-1.4375,0.203125,566
551,1696245066558,0.72875977,-0.041809082,0.71087646,-1.296875,-1.140625,0.734375,567
552,1696245066598,0.72753906,-0.039123535,0.70477295,-1.109375,0.234375,-0.296875,568
553,1696245066638,0.73339844,-0.035949707,0.7081909,-0.28125,1.15625,0.078125,569
554,1696245066678,0.72875977,-0.04473877,0.70428467,0.921875,1.3125,-0.328125,570
555,1696245066718,0.7336426,-0.045715332,0.696228,0.84375,0.65625,-0.25,571
556,1696245066758,0.736084,-0.054504395,0.70428467,0.0,0.640625,0.0625,572
557,1696245066798,0.74072266,-0.045959473,0.68914795,-0.015625,0.4375,0.234375,573
558,1696245066838,0.7338867,-0.05230713,0.6984253,0.65625,-0.859375,0.234375,574
559,1696245066878,0.7397461,-0.042053223,0.7086792,0.1875,-0.25,0.015625,575
560,1696245066918,0.7438965,-0.04058838,0.69329834,-0.296875,0.921875,0.234375,576
561,1696245066958,0.7404785,-0.05206299,0.70648193,0.0625,0.3125,0.078125,577
562,1696245066998,0.73706055,-0.04840088,0.7079468,1.5625,-0.03125,-0.03125,578
563,1696245067038,0.7351074,-0.047668457,0.69281006,1.03125,-0.203125,-0.125,579
564,1696245067078,0.7429199,-0.053527832,0.7037964,0.21875,-0.125,0.203125,580
565,1696245067118,0.74243164,-0.050598145,0.70111084,0.109375,-0.140625,0.125,581
566,1696245067158,0.7392578,-0.053527832,0.71087646,0.15625,-0.25,0.25,582
567,1696245067198,0.7426758,-0.055236816,0.7055054,0.890625,-1.265625,-0.203125,583
568,1696245067238,0.73706055,-0.051818848,0.6937866,0.109375,0.109375,0.015625,584
569,1696245067278,0.73950195,-0.0569458,0.6976929,-0.046875,-0.15625,0.3125,585
570,1696245067318,0.74365234,-0.055236816,0.68914795,-0.953125,0.375,0.40625,586
571,1696245067358,0.7380371,-0.04547119,0.69744873,0.015625,-0.25,0.328125,587
572,1696245067398,0.7314453,-0.046691895,0.6954956,-0.28125,-0.5625,0.421875,588
573,1696245067438,0.74072266,-0.03765869,0.68499756,-0.578125,-0.140625,-0.03125,589
574,1696245067478,0.73657227,-0.055480957,0.69403076,-0.296875,0.390625,-0.046875,590
575,1696245067518,0.7446289,-0.05206299,0.6911011,0.65625,-0.15625,-0.09375,591
576,1696245067558,0.7434082,-0.05303955,0.69158936,0.40625,-0.5,0.15625,592
577,1696245067598,0.7458496,-0.06085205,0.70184326,1.0,-0.640625,0.34375,593
578,1696245067638,0.74316406,-0.05670166,0.6845093,0.359375,-0.46875,0.015625,594
579,1696245067678,0.7375488,-0.054260254,0.69085693,0.328125,-0.6875,0.328125,595
580,1696245067718,0.7409668,-0.05303955,0.68865967,-0.296875,0.28125,0.125,596
581,1696245067758,0.7470703,-0.058898926,0.701355,0.328125,-0.6875,0.015625,597
582,1696245067798,0.7397461,-0.049865723,0.69525146,0.046875,-0.78125,0.265625,598
583,1696245067838,0.7429199,-0.045715332,0.6918335,0.0,0.140625,0.21875,599
584,1696245067878,0.7438965,-0.051574707,0.6898804,0.375,-0.484375,0.296875,600
585,1696245067918,0.73950195,-0.045959473,0.6925659,0.0625,-0.484375,0.21875,601
586,1696245067958,0.7414551,-0.049621582,0.69451904,0.09375,-0.625,0.140625,602
587,1696245067998,0.73999023,-0.0569458,0.684021,0.03125,-0.296875,0.328125,603
588,1696245068038,0.73950195,-0.06451416,0.6991577,0.125,-0.421875,0.3125,604
589,1696245068078,0.7380371,-0.058654785,0.696228,0.5625,-1.15625,0.359375,605
590,1696245068118,0.7441406,-0.057922363,0.6918335,0.390625,-0.953125,0.1875,606
591,1696245068158,0.7409668,-0.054504395,0.69866943,-0.03125,-0.546875,0.625,607
592,1696245068198,0.7404785,-0.0491333,0.6923218,-0.46875,0.125,0.453125,608
593,1696245068238,0.7414551,-0.05303955,0.69696045,0.3125,0.015625,0.3125,609
594,1696245068278,0.7470703,-0.04815674,0.69647217,0.015625,-0.328125,0.28125,610
595,1696245068318,0.74487305,-0.050109863,0.68621826,0.296875,-0.5,0.234375,611
596,1696245068358,0.74121094,-0.05279541,0.6930542,0.8125,-1.0625,0.203125,612
597,1696245068398,0.7426758,-0.049621582,0.6913452,0.703125,-0.96875,0.40625,613
598,1696245068438,0.7463379,-0.047668457,0.68377686,-0.59375,0.625,0.578125,614
599,1696245068478,0.7438965,-0.054016113,0.7033081,0.25,-0.015625,0.484375,615
600,1696245068518,0.7458496,-0.062072754,0.68621826,0.5625,-0.375,0.171875,616
601,1696245068558,0.73950195,-0.050354004,0.6911011,0.53125,-0.796875,0.03125,617
602,1696245068598,0.7373047,-0.047912598,0.6869507,0.265625,-0.171875,0.375,618
603,1696245068638,0.73828125,-0.059387207,0.6923218,0.25,-0.1875,0.265625,619
604,1696245068678,0.75097656,-0.05645752,0.6913452,0.015625,-0.40625,0.265625,620
605,1696245068718,0.73828125,-0.057434082,0.68914795,0.28125,-0.625,0.578125,621
606,1696245068758,0.7409668,-0.05718994,0.6959839,0.125,-0.046875,0.328125,622
607,1696245068798,0.74487305,-0.062561035,0.6913452,0.109375,-0.390625,0.625,623
608,1696245068838,0.7426758,-0.055236816,0.6871948,-0.375,-0.25,0.3125,624
609,1696245068878,0.7390137,-0.044006348,0.69281006,-0.234375,-0.609375,0.375,625
610,1696245068918,0.73291016,-0.051574707,0.6925659,-0.203125,-0.578125,0.125,626
611,1696245068958,0.74316406,-0.05596924,0.6889038,-0.359375,-0.609375,0.171875,627
612,1696245068998,0.7416992,-0.05206299,0.696228,-0.140625,-0.5,0.5,628
613,1696245069038,0.7429199,-0.05718994,0.6918335,-0.375,-0.84375,0.640625,629
614,1696245069078,0.7441406,-0.062072754,0.6918335,-0.671875,-1.21875,0.703125,630
615,1696245069118,0.7368164,-0.046203613,0.6967163,-0.765625,-0.546875,0.796875,631
616,1696245069158,0.74365234,-0.046447754,0.6779175,-2.125,0.453125,0.390625,632
617,1696245069198,0.748291,-0.043762207,0.6942749,-1.234375,0.234375,0.828125,633
618,1696245069238,0.7416992,-0.050598145,0.6950073,-0.015625,-0.09375,0.234375,634
619,1696245069278,0.7453613,-0.04547119,0.6876831,-0.28125,-0.296875,-0.0625,635
620,1696245069318,0.7480469,-0.04937744,0.6901245,-0.53125,0.015625,0.15625,636
621,1696245069358,0.7507324,-0.038635254,0.6911011,-0.28125,-0.328125,-0.078125,637
622,1696245069398,0.7438965,-0.043273926,0.6984253,0.765625,-0.71875,0.234375,638
623,1696245069438,0.7463379,-0.039123535,0.68499756,1.484375,-1.375,0.28125,639
624,1696245069478,0.74072266,-0.041809082,0.6918335,0.984375,-0.390625,0.203125,640
625,1696245069518,0.7348633,-0.054748535,0.69158936,1.921875,-0.90625,0.609375,641
626,1696245069558,0.74072266,-0.04888916,0.6810913,0.890625,0.375,0.859375,642
627,1696245069598,0.74731445,-0.051818848,0.6954956,1.796875,0.109375,1.09375,643
628,1696245069638,0.7441406,-0.051330566,0.69329834,1.171875,-0.5,0.40625,644
629,1696245069678,0.7429199,-0.054016113,0.6859741,0.59375,-0.21875,0.375,645
630,1696245069718,0.748291,-0.054748535,0.6950073,0.0,-0.1875,0.328125,646
631,1696245069758,0.74658203,-0.05328369,0.6937866,-0.125,-0.078125,0.546875,647
632,1696245069798,0.7429199,-0.057678223,0.69573975,-0.109375,-0.3125,0.296875,648
633,1696245069838,0.7553711,-0.050109863,0.67352295,-0.46875,-0.421875,0.25,649
634,1696245069878,0.74560547,-0.049621582,0.68914795,-0.515625,-0.28125,0.609375,650
635,1696245069918,0.75268555,-0.044006348,0.68182373,-1.109375,1.015625,0.484375,651
636,1696245069958,0.74560547,-0.05596924,0.7003784,-0.4375,-0.28125,0.34375,652
637,1696245069998,0.74487305,-0.050354004,0.68133545,0.171875,-0.671875,0.25,653
638,1696245070038,0.73779297,-0.04107666,0.69036865,-0.5625,0.484375,0.1875,654
639,1696245070078,0.7468262,-0.04840088,0.68670654,-0.5,0.140625,0.21875,655
640,1696245070118,0.7421875,-0.046691895,0.68573,-0.3125,-0.4375,0.09375,656
641,1696245070158,0.75561523,-0.046936035,0.6820679,0.484375,-0.25,0.0,657
642,1696245070198,0.75024414,-0.050109863,0.6845093,0.234375,-0.359375,0.234375,658
643,1696245070238,0.74731445,-0.05279541,0.6876831,0.671875,-0.5625,0.1875,659
644,1696245070278,0.748291,-0.049621582,0.68377686,0.3125,-0.375,0.328125,660
645,1696245070318,0.7475586,-0.051086426,0.6803589,-0.3125,-0.4375,0.296875,661
646,1696245070358,0.7429199,-0.04864502,0.6793823,-0.5,-0.4375,0.328125,662
647,1696245070398,0.7463379,-0.044006348,0.67840576,-0.296875,-1.03125,0.328125,663
648,1696245070438,0.7468262,-0.047668457,0.6845093,-0.09375,-0.84375,0.484375,664
649,1696245070478,0.7536621,-0.051086426,0.68499756,-0.09375,-0.375,0.296875,665
650,1696245070518,0.74902344,-0.047424316,0.6901245,-0.203125,-0.46875,0.265625,666
651,1696245070558,0.74560547,-0.04815674,0.68426514,0.1875,-0.453125,0.1875,667
652,1696245070598,0.7380371,-0.050598145,0.69281006,0.15625,-1.171875,0.5,668
653,1696245070638,0.7421875,-0.059143066,0.6918335,0.0,-1.4375,0.46875,669
654,1696245070678,0.7451172,-0.045959473,0.6769409,-1.03125,0.109375,0.15625,670
655,1696245070718,0.75,-0.044006348,0.68255615,-1.046875,0.796875,0.203125,671
656,1696245070758,0.75097656,-0.05230713,0.68548584,0.390625,-0.40625,-0.40625,672
657,1696245070798,0.74658203,-0.03717041,0.69158936,0.0625,-1.234375,0.25,673
658,1696245070838,0.74658203,-0.047912598,0.6869507,-0.4375,-0.71875,0.796875,674
659,1696245070878,0.7468262,-0.045715332,0.6871948,-0.65625,-0.84375,0.625,675
660,1696245070918,0.7470703,-0.05206299,0.684021,0.25,-1.640625,0.53125,676
661,1696245070958,0.7351074,-0.043762207,0.6930542,0.953125,-1.59375,0.1875,677
662,1696245070998,0.74609375,-0.054748535,0.68670654,0.671875,-0.5625,-0.03125,678
663,1696245071038,0.73779297,-0.045959473,0.68963623,0.046875,-0.359375,0.25,679
664,1696245071078,0.7558594,-0.053527832,0.68377686,-0.421875,0.390625,0.3125,680
665,1696245071118,0.75341797,-0.047424316,0.6923218,-0.59375,-0.03125,0.109375,681
666,1696245071158,0.74902344,-0.042541504,0.6835327,-0.625,-0.421875,-0.015625,682
667,1696245071198,0.74975586,-0.045715332,0.68963623,-0.515625,-0.734375,0.4375,683
668,1696245071238,0.7404785,-0.044006348,0.6859741,-0.21875,-0.296875,0.359375,684
669,1696245071278,0.7546387,-0.045959473,0.6918335,0.0625,-0.9375,0.125,685
670,1696245071318,0.7475586,-0.042297363,0.68377686,-0.1875,-0.875,0.1875,686
671,1696245071358,0.7507324,-0.05255127,0.69940186,0.140625,-1.796875,0.265625,687
672,1696245071398,0.7441406,-0.051086426,0.68499756,-0.328125,-1.046875,0.0,688
673,1696245071438,0.73706055,-0.04425049,0.6901245,-0.640625,-0.078125,-0.015625,689
674,1696245071478,0.73413086,-0.04864502,0.70111084,-0.203125,-0.921875,0.109375,690
675,1696245071518,0.7385254,-0.04547119,0.6889038,-0.390625,-0.421875,0.328125,691
676,1696245071558,0.7451172,-0.0413208,0.6871948,-0.890625,1.34375,0.4375,692
677,1696245071598,0.74902344,-0.043762207,0.70184326,-0.390625,0.0,0.25,693
678,1696245071638,0.74316406,-0.050598145,0.6847534,0.640625,-0.96875,-0.140625,694
679,1696245071678,0.7470703,-0.04498291,0.6871948,0.09375,-0.515625,0.0,695
680,1696245071718,0.7414551,-0.041809082,0.69036865,-0.578125,0.015625,0.25,696
681,1696245071758,0.74780273,-0.039855957,0.68670654,-0.59375,-0.203125,0.09375,697
682,1696245071798,0.7451172,-0.038391113,0.6901245,-0.03125,-1.0625,0.40625,698
683,1696245071838,0.7380371,-0.043273926,0.6871948,-0.3125,-0.28125,0.28125,699
684,1696245071878,0.7409668,-0.045959473,0.69940186,0.203125,-0.59375,0.390625,700
685,1696245071918,0.7414551,-0.050842285,0.68743896,0.4375,-0.75,-0.03125,701
686,1696245071958,0.74731445,-0.047180176,0.6967163,0.046875,-0.6875,0.203125,702
687,1696245071998,0.7368164,-0.038146973,0.69158936,-0.546875,-0.703125,0.21875,703
688,1696245072038,0.7558594,-0.043518066,0.68865967,-1.578125,0.046875,0.328125,704
689,1696245072078,0.75,-0.04083252,0.68963623,-2.53125,0.375,0.1875,705
690,1696245072118,0.74658203,-0.042541504,0.68865967,-1.5,0.25,0.1875,706
691,1696245072158,0.74658203,-0.043273926,0.6845093,-0.640625,-0.046875,0.5,707
692,1696245072198,0.7441406,-0.040100098,0.6864624,-0.234375,-0.25,0.40625,708
693,1696245072238,0.7463379,-0.039123535,0.68573,-0.109375,-0.375,0.265625,709
694,1696245072278,0.7375488,-0.035949707,0.6937866,0.546875,0.546875,-0.234375,736
695,1696245072318,0.7373047,-0.037902832,0.7074585,1.265625,-0.3125,0.21875,737
696,1696245072358,0.74121094,-0.03643799,0.6954956,1.03125,-0.8125,0.0,738
697,1696245072398,0.73046875,-0.02911377,0.6901245,-0.234375,-0.546875,-0.140625,739
698,1696245072438,0.74072266,-0.02520752,0.7074585,0.859375,-0.84375,0.0,740
699,1696245072478,0.74121094,-0.02935791,0.7079468,0.9375,-1.078125,-0.421875,741
700,1696245072518,0.7397461,-0.037902832,0.7123413,0.921875,-0.828125,-0.171875,742
701,1696245072558,0.74121094,-0.04522705,0.6947632,0.21875,-0.546875,0.234375,743
702,1696245072598,0.73217773,-0.04058838,0.7037964,0.84375,-0.265625,0.09375,744
703,1696245072638,0.7290039,-0.038391113,0.701355,0.78125,-0.765625,0.328125,745
704,1696245072678,0.7282715,-0.034240723,0.70111084,-0.28125,0.171875,0.375,746
705,1696245072718,0.7260742,-0.035949707,0.69866943,0.3125,-0.046875,0.03125,747
706,1696245072758,0.72998047,-0.035705566,0.70233154,0.578125,0.078125,-0.140625,748
707,1696245072798,0.736084,-0.040100098,0.699646,0.671875,-0.109375,0.296875,749
708,1696245072838,0.74121094,-0.042785645,0.7033081,0.671875,-0.078125,0.09375,750
709,1696245072878,0.73779297,-0.042785645,0.6984253,0.640625,0.03125,0.109375,751
710,1696245072918,0.73583984,-0.050598145,0.69940186,0.125,-0.25,0.40625,752
711,1696245072958,0.7355957,-0.04058838,0.70233154,0.203125,-0.234375,0.296875,753
712,1696245072998,0.7373047,-0.04498291,0.69647217,0.453125,-0.515625,0.265625,754
713,1696245073038,0.7397461,-0.040100098,0.680603,-0.78125,0.453125,0.28125,755
714,1696245073078,0.73999023,-0.047180176,0.7111206,0.390625,-0.015625,0.265625,756
715,1696245073118,0.734375,-0.04840088,0.7055054,1.078125,-0.484375,-0.015625,757
716,1696245073158,0.73950195,-0.04888916,0.7033081,0.515625,-0.5625,-0.25,758
717,1696245073198,0.7375488,-0.0491333,0.6918335,-0.234375,-0.078125,0.234375,759
718,1696245073238,0.74072266,-0.04815674,0.6954956,-0.71875,0.203125,0.015625,760
719,1696245073278,0.73706055,-0.04547119,0.699646,-0.234375,0.03125,0.09375,761
720,1696245073318,0.72875977,-0.04522705,0.6947632,-1.015625,0.125,0.421875,762
721,1696245073358,0.73779297,-0.039367676,0.69744873,-0.546875,-0.1875,0.0625,763
722,1696245073398,0.73583984,-0.0413208,0.70233154,0.234375,-0.375,0.203125,764
723,1696245073438,0.74243164,-0.039611816,0.6845093,-0.015625,-0.609375,0.421875,765
724,1696245073478,0.7453613,-0.043029785,0.699646,-0.125,-0.125,0.375,766
725,1696245073518,0.7409668,-0.0413208,0.69281006,0.078125,0.1875,0.46875,767
726,1696245073558,0.73779297,-0.039855957,0.697937,0.25,-0.140625,0.34375,768
727,1696245073598,0.74072266,-0.043518066,0.6954956,0.140625,0.046875,0.09375,769
728,1696245073638,0.7458496,-0.038391113,0.69696045,0.671875,0.078125,0.21875,770
729,1696245073678,0.74438477,-0.046447754,0.6972046,0.296875,-0.25,0.03125,771
730,1696245073718,0.7402344,-0.04449463,0.6727905,-0.796875,-0.546875,0.15625,772
731,1696245073758,0.7446289,-0.04498291,0.6950073,-0.40625,-0.5,0.734375,773
732,1696245073798,0.7363281,-0.042541504,0.68133545,-1.015625,0.8125,0.453125,774
733,1696245073838,0.74902344,-0.043273926,0.70477295,0.59375,0.3125,0.140625,775
734,1696245073878,0.73828125,-0.04937744,0.6881714,0.28125,-0.28125,0.296875,776
735,1696245073918,0.7421875,-0.04107666,0.68865967,-0.359375,0.046875,-0.03125,777
736,1696245073958,0.7441406,-0.043273926,0.6950073,0.046875,0.0625,0.171875,778
737,1696245073998,0.7446289,-0.042785645,0.6828003,0.1875,-0.140625,-0.34375,779
738,1696245074038,0.74975586,-0.0335083,0.6950073,-0.28125,-0.171875,0.15625,780
739,1696245074078,0.74243164,-0.04156494,0.69207764,-0.34375,0.1875,0.421875,781
740,1696245074118,0.7504883,-0.042785645,0.68963623,0.125,0.71875,0.3125,782
741,1696245074158,0.7475586,-0.046447754,0.69696045,0.78125,-0.015625,0.15625,783
742,1696245074198,0.7468262,-0.03717041,0.69744873,-0.1875,-0.296875,0.578125,784
743,1696245074238,0.76342773,-0.04449463,0.7050171,-0.671875,-1.5,0.9375,785
744,1696245074278,0.74975586,-0.03717041,0.68573,-1.703125,-2.4375,0.578125,786
745,1696245074318,0.74780273,-0.04156494,0.69940186,-0.828125,-2.046875,0.171875,787
746,1696245074358,0.7463379,-0.043029785,0.6942749,-0.46875,-2.765625,-0.578125,788
747,1696245074398,0.7338867,-0.04449463,0.6869507,-2.65625,-3.515625,-0.5625,789
748,1696245074438,0.7392578,-0.034484863,0.69989014,-2.203125,-2.890625,0.28125,790
749,1696245074478,0.7463379,-0.04034424,0.70233154,-0.96875,-1.375,0.734375,791
750,1696245074518,0.74438477,-0.03326416,0.70892334,-0.296875,-2.953125,0.125,792
751,1696245074558,0.7373047,-0.024719238,0.7098999,-1.09375,-2.1875,0.625,793
752,1696245074598,0.73339844,-0.020812988,0.7040405,-1.703125,0.421875,-0.1875,794
753,1696245074638,0.72875977,-0.03692627,0.7235718,-0.46875,-1.96875,-0.109375,795
754,1696245074678,0.7290039,-0.02911377,0.69989014,-2.109375,-1.703125,0.265625,796
755,1696245074718,0.7294922,-0.030578613,0.697937,-1.125,-0.71875,-0.078125,797
756,1696245074758,0.72875977,-0.024475098,0.6991577,-0.109375,-0.625,-0.140625,798
757,1696245074798,0.71777344,-0.020080566,0.69036865,0.328125,0.515625,0.34375,799
758,1696245074838,0.7224121,-0.03302002,0.7045288,1.984375,1.234375,0.21875,800
759,1696245074878,0.72387695,-0.035949707,0.6989136,2.5625,0.234375,-0.15625,801
