# Sensor type: Respeck
# Activity type: Lying down on left
# Activity subtype: Singing
# Subject id: s2104454
# Notes: unprocessed
timestamp,accel_x,accel_y,accel_z,gyro_x,gyro_y,gyro_z
1696244951054,-0.7102051,-0.2420044,-0.65582275,0.109375,-1.046875,0.0625
1696244951094,-0.7133789,-0.23223877,-0.6482544,-0.015625,-1.25,0.140625
1696244951134,-0.70825195,-0.24249268,-0.6524048,-0.328125,-1.953125,0.15625
1696244951182,-0.70043945,-0.24127197,-0.6416626,-0.40625,-0.859375,0.140625
1696244951215,-0.7158203,-0.24517822,-0.65875244,-0.515625,-1.671875,-0.28125
1696244951255,-0.7026367,-0.23468018,-0.64849854,-0.71875,-1.734375,0.234375
1696244951296,-0.7006836,-0.24468994,-0.6477661,-0.90625,-0.46875,0.1875
1696244951334,-0.7211914,-0.24298096,-0.6602173,-1.203125,-0.4375,-0.15625
1696244951374,-0.6982422,-0.24224854,-0.6375122,0.0625,-1.84375,0.46875
1696244951415,-0.70996094,-0.23980713,-0.65802,-0.71875,-0.78125,0.125
1696244951454,-0.7102051,-0.2341919,-0.647522,-0.421875,-0.734375,0.5625
1696244951495,-0.7128906,-0.24786377,-0.6548462,0.375,-0.609375,-0.046875
1696244951535,-0.70410156,-0.24761963,-0.6585083,-0.125,-0.84375,0.265625
1696244951575,-0.70166016,-0.24005127,-0.647522,-0.296875,-1.171875,0.109375
1696244951615,-0.7072754,-0.2444458,-0.6604614,-0.296875,-0.703125,0.28125
1696244951656,-0.7050781,-0.24395752,-0.65289307,0.546875,-1.515625,0.375
1696244951694,-0.6948242,-0.24078369,-0.6399536,0.59375,-0.96875,0.4375
1696244951735,-0.7026367,-0.24029541,-0.6670532,0.265625,-1.1875,0.484375
1696244951776,-0.6960449,-0.24029541,-0.6482544,0.484375,-0.1875,0.3125
1696244951814,-0.6960449,-0.24029541,-0.6589966,0.640625,-0.421875,0.1875
1696244951854,-0.70825195,-0.24224854,-0.6663208,0.0625,-0.09375,0.296875
1696244951895,-0.7026367,-0.24005127,-0.6560669,0.015625,-0.046875,0.28125
1696244951936,-0.7026367,-0.23931885,-0.6638794,-0.109375,0.421875,0.21875
1696244951977,-0.6977539,-0.24395752,-0.6511841,0.5625,-0.0625,0.140625
1696244951994,-0.69506836,-0.25030518,-0.6585083,0.046875,-0.140625,0.109375
1696244952056,-0.7055664,-0.23883057,-0.65802,0.0,0.125,0.15625
1696244952074,-0.70166016,-0.24078369,-0.64923096,0.34375,-0.171875,0.265625
1696244952115,-0.70410156,-0.2468872,-0.6687622,-0.203125,-0.21875,0.40625
1696244952157,-0.70166016,-0.23614502,-0.6448364,0.703125,-0.65625,0.203125
1696244952197,-0.7077637,-0.24493408,-0.6589966,-0.296875,-0.265625,0.1875
1696244952256,-0.70703125,-0.23980713,-0.64556885,0.359375,-0.65625,0.140625
1696244952274,-0.7019043,-0.23394775,-0.66656494,0.453125,-1.4375,0.328125
1696244952340,-0.70214844,-0.24102783,-0.6589966,-0.09375,-0.671875,0.3125
1696244952375,-0.7026367,-0.23883057,-0.6531372,0.15625,-0.859375,0.234375
1696244952395,-0.70581055,-0.24127197,-0.6589966,-0.203125,-0.6875,0.359375
1696244952458,-0.70043945,-0.24029541,-0.65289307,0.171875,-0.796875,0.328125
1696244952496,-0.6972656,-0.24053955,-0.6646118,-0.328125,-0.546875,0.3125
1696244952514,-0.7036133,-0.2444458,-0.65338135,-0.109375,0.1875,0.203125
1696244952559,-0.70654297,-0.2432251,-0.6592407,0.28125,-0.625,0.265625
1696244952595,-0.6977539,-0.23931885,-0.65093994,-0.125,-0.390625,0.359375
1696244952636,-0.69873047,-0.24249268,-0.66192627,-0.015625,-0.359375,0.265625
1696244952675,-0.7023926,-0.237854,-0.6585083,-0.0625,-0.28125,0.34375
1696244952718,-0.70751953,-0.24591064,-0.65631104,-0.15625,-0.1875,0.171875
1696244952755,-0.7062988,-0.24151611,-0.6506958,-0.046875,-0.484375,0.28125
1696244952795,-0.70336914,-0.24151611,-0.65948486,-0.046875,-0.703125,0.125
1696244952838,-0.7043457,-0.2432251,-0.65948486,0.203125,-0.671875,0.21875
1696244952875,-0.70214844,-0.23980713,-0.65948486,-0.078125,-0.59375,0.21875
1696244952916,-0.70166016,-0.2390747,-0.6560669,-0.09375,-0.375,0.421875
1696244952958,-0.7050781,-0.2366333,-0.65802,-0.625,0.09375,0.171875
1696244952997,-0.6958008,-0.2444458,-0.6487427,-0.21875,-0.328125,0.234375
1696244953037,-0.7077637,-0.23614502,-0.66534424,-0.28125,-0.546875,0.296875
1696244953075,-0.7019043,-0.23516846,-0.65167236,-0.0625,-0.40625,0.1875
1696244953117,-0.70947266,-0.24346924,-0.6602173,-0.03125,-0.484375,0.15625
1696244953156,-0.7084961,-0.24224854,-0.6626587,-0.140625,-0.453125,0.203125
1696244953196,-0.6977539,-0.23736572,-0.645813,0.34375,-0.46875,0.171875
1696244953235,-0.69799805,-0.23809814,-0.65289307,-0.3125,-0.453125,0.390625
1696244953277,-0.69970703,-0.24737549,-0.644104,0.125,-0.125,0.328125
1696244953296,-0.7011719,-0.24810791,-0.65997314,0.28125,-0.578125,0.265625
1696244953336,-0.701416,-0.24151611,-0.6526489,0.0625,-0.4375,0.203125
1696244953378,-0.70825195,-0.23931885,-0.65875244,-0.03125,-0.21875,0.078125
1696244953418,-0.70654297,-0.24102783,-0.6643677,-0.28125,-0.0625,0.25
1696244953456,-0.70825195,-0.24176025,-0.65631104,-0.03125,-0.53125,0.21875
1696244953495,-0.704834,-0.23956299,-0.6609497,-0.125,-0.296875,0.15625
1696244953555,-0.7050781,-0.24249268,-0.6548462,-0.046875,-0.203125,0.109375
1696244953596,-0.69921875,-0.2420044,-0.6477661,0.125,-0.09375,0.28125
1696244953615,-0.7043457,-0.2432251,-0.66973877,-0.234375,-0.5,0.0625
1696244953668,-0.6972656,-0.23931885,-0.6499634,0.015625,-0.21875,0.046875
1696244953698,-0.7060547,-0.23956299,-0.6668091,-0.578125,0.171875,0.125
1696244953738,-0.7023926,-0.24371338,-0.644104,0.09375,0.171875,0.15625
1696244953796,-0.7011719,-0.24053955,-0.6565552,0.078125,-0.1875,0.078125
1696244953816,-0.7104492,-0.23858643,-0.6555786,-0.203125,-0.234375,0.234375
1696244953857,-0.7150879,-0.23834229,-0.6589966,-0.0625,-0.328125,0.3125
1696244953895,-0.7055664,-0.237854,-0.6567993,-0.265625,-0.15625,0.25
1696244953936,-0.7072754,-0.23712158,-0.6465454,0.1875,-0.390625,0.234375
1696244953974,-0.69921875,-0.24420166,-0.65045166,-0.1875,-0.15625,0.171875
1696244954021,-0.7023926,-0.24176025,-0.6433716,0.125,-0.453125,0.21875
1696244954076,-0.70214844,-0.24005127,-0.65093994,0.203125,-0.546875,0.078125
1696244954094,-0.70947266,-0.23590088,-0.6482544,0.0,-0.40625,0.25
1696244954135,-0.70947266,-0.2390747,-0.65826416,-0.125,-0.3125,0.09375
1696244954175,-0.7084961,-0.24371338,-0.6555786,-0.046875,-0.265625,0.0625
1696244954238,-0.703125,-0.2366333,-0.64727783,-0.0625,-0.21875,0.1875
1696244954276,-0.70581055,-0.24371338,-0.6531372,-0.0625,-0.15625,0.21875
1696244954294,-0.71240234,-0.23956299,-0.6555786,-0.21875,0.0,0.3125
1696244954337,-0.6994629,-0.23736572,-0.6489868,-0.171875,0.09375,0.265625
1696244954375,-0.7116699,-0.24786377,-0.6524048,-0.1875,-0.375,0.25
1696244954414,-0.704834,-0.2468872,-0.647522,-0.34375,0.078125,0.328125
1696244954458,-0.7126465,-0.24615479,-0.65289307,-0.390625,-0.15625,0.25
1696244954496,-0.7067871,-0.24859619,-0.64971924,-0.734375,0.578125,0.109375
1696244954557,-0.70532227,-0.24127197,-0.6421509,0.15625,-0.21875,0.1875
1696244954575,-0.71118164,-0.24053955,-0.64801025,-0.046875,-0.796875,0.078125
1696244954594,-0.70825195,-0.24371338,-0.6526489,-0.296875,-0.59375,0.046875
1696244954636,-0.7141113,-0.24176025,-0.6499634,-0.171875,-0.46875,0.3125
1696244954718,-0.70947266,-0.23834229,-0.6499634,-0.03125,-0.46875,0.171875
1696244954722,-0.7128906,-0.25201416,-0.65997314,-0.453125,-0.734375,0.296875
1696244954755,-0.7026367,-0.2432251,-0.64508057,-0.375,0.1875,0.171875
1696244954797,-0.71484375,-0.23809814,-0.645813,0.125,-0.578125,-0.03125
1696244954837,-0.71118164,-0.24468994,-0.6553345,-0.046875,-1.4375,0.1875
1696244954876,-0.70654297,-0.2354126,-0.6514282,-0.0625,-1.09375,-0.078125
1696244954917,-0.71191406,-0.24249268,-0.6536255,-0.09375,-1.625,-0.03125
1696244954956,-0.7050781,-0.2390747,-0.6548462,-0.296875,-2.125,0.171875
1696244954997,-0.704834,-0.24371338,-0.6555786,-0.453125,-1.984375,0.09375
1696244955036,-0.70166016,-0.24713135,-0.6567993,-0.375,-1.390625,0.203125
1696244955075,-0.6970215,-0.24957275,-0.6643677,-0.734375,-0.796875,0.203125
1696244955115,-0.7026367,-0.24639893,-0.6506958,-0.21875,-0.625,0.265625
1696244955155,-0.70336914,-0.24542236,-0.66241455,0.515625,-1.203125,0.203125
1696244955195,-0.70166016,-0.24786377,-0.6592407,0.0625,-0.078125,0.15625
1696244955236,-0.70288086,-0.24468994,-0.659729,-0.125,-0.125,0.140625
1696244955275,-0.71606445,-0.24737549,-0.65411377,0.125,-0.046875,0.328125
1696244955316,-0.69873047,-0.24468994,-0.6565552,0.375,-0.546875,0.3125
1696244955356,-0.69921875,-0.24151611,-0.6543579,0.171875,-0.34375,0.109375
1696244955396,-0.69970703,-0.24151611,-0.6567993,0.21875,-0.5,0.234375
1696244955435,-0.70703125,-0.24053955,-0.6555786,-0.203125,-0.015625,0.21875
1696244955476,-0.7036133,-0.23931885,-0.6460571,0.4375,-0.3125,0.34375
1696244955518,-0.70288086,-0.2432251,-0.65289307,-0.25,-0.015625,0.171875
1696244955556,-0.70288086,-0.24371338,-0.6524048,0.0625,-0.1875,0.09375
1696244955596,-0.70532227,-0.24029541,-0.65997314,0.34375,-0.609375,0.15625
1696244955637,-0.70336914,-0.23956299,-0.65704346,-0.03125,-0.359375,0.296875
1696244955676,-0.7089844,-0.23980713,-0.6511841,-0.03125,-0.296875,0.203125
1696244955716,-0.70336914,-0.24395752,-0.65509033,-0.015625,-0.25,0.171875
1696244955755,-0.70458984,-0.24737549,-0.6572876,0.0,-0.3125,0.078125
1696244955796,-0.6994629,-0.2420044,-0.6538696,0.0625,-0.40625,0.28125
1696244955837,-0.70703125,-0.23883057,-0.6538696,0.109375,-0.203125,0.40625
1696244955899,-0.70996094,-0.24273682,-0.6511841,0.21875,-0.5625,0.125
1696244955914,-0.7019043,-0.24664307,-0.6555786,-0.203125,0.015625,0.03125
1696244955935,-0.70581055,-0.24151611,-0.6663208,-0.328125,-0.546875,0.171875
1696244955976,-0.6953125,-0.24420166,-0.63848877,-0.03125,0.625,0.203125
1696244956037,-0.70214844,-0.24493408,-0.6506958,0.203125,-0.328125,0.25
1696244956056,-0.70654297,-0.24224854,-0.6524048,0.0625,-0.234375,0.15625
1696244956115,-0.70825195,-0.23834229,-0.6519165,-0.140625,-0.03125,0.21875
1696244956157,-0.7067871,-0.24835205,-0.6567993,-0.296875,0.171875,0.390625
1696244956174,-0.70947266,-0.24249268,-0.64971924,0.046875,-0.234375,0.328125
1696244956237,-0.7104492,-0.24395752,-0.661438,-0.171875,-0.578125,0.21875
1696244956277,-0.7055664,-0.24102783,-0.647522,-0.09375,-0.125,0.25
1696244956296,-0.70703125,-0.24371338,-0.6448364,0.171875,-0.59375,0.359375
1696244956334,-0.70996094,-0.24102783,-0.65411377,0.171875,-0.421875,0.109375
1696244956374,-0.7092285,-0.24468994,-0.6567993,-0.015625,-0.5,0.421875
1696244956437,-0.7067871,-0.23297119,-0.6543579,0.015625,-0.171875,0.34375
1696244956475,-0.7038574,-0.24078369,-0.6428833,0.125,-0.546875,0.234375
1696244956497,-0.7060547,-0.24395752,-0.6487427,-0.125,-0.453125,-0.015625
1696244956557,-0.7084961,-0.24761963,-0.6553345,-0.15625,-0.21875,0.21875
1696244956574,-0.7097168,-0.24273682,-0.6460571,0.15625,-0.28125,0.140625
1696244956615,-0.704834,-0.23883057,-0.65216064,0.09375,-0.546875,0.1875
1696244956657,-0.69799805,-0.2354126,-0.63531494,0.546875,-0.046875,0.125
1696244956697,-0.71069336,-0.24737549,-0.67071533,-0.5,-0.4375,0.265625
1696244956737,-0.704834,-0.2354126,-0.63897705,0.0625,0.65625,0.1875
1696244956776,-0.71069336,-0.23760986,-0.6553345,0.234375,-0.65625,0.21875
1696244956814,-0.7026367,-0.23883057,-0.647522,0.03125,-0.296875,0.109375
1696244956858,-0.70751953,-0.24395752,-0.65093994,0.109375,-0.296875,0.125
1696244956896,-0.7241211,-0.24053955,-0.64849854,-0.28125,-0.390625,0.171875
1696244956936,-0.7055664,-0.23614502,-0.64263916,-0.140625,-0.453125,0.234375
1696244956977,-0.7145996,-0.24078369,-0.6524048,-0.125,-0.28125,0.359375
1696244957016,-0.7128906,-0.2366333,-0.6448364,0.0,-0.484375,0.140625
1696244957079,-0.7126465,-0.24298096,-0.64971924,0.265625,-0.53125,0.03125
1696244957095,-0.71313477,-0.23590088,-0.6531372,-0.109375,-0.546875,0.1875
1696244957135,-0.71533203,-0.24249268,-0.6524048,-0.171875,-0.328125,0.171875
1696244957199,-0.7084961,-0.24371338,-0.65460205,-0.0625,-0.375,0.203125
1696244957237,-0.70654297,-0.2456665,-0.6470337,-0.078125,-0.28125,0.203125
1696244957240,-0.7050781,-0.24224854,-0.6470337,0.03125,-0.25,0.171875
1696244957275,-0.70825195,-0.24468994,-0.65289307,-0.078125,-0.171875,0.328125
1696244957317,-0.71313477,-0.24737549,-0.6433716,0.171875,-0.234375,0.375
1696244957357,-0.7084961,-0.24053955,-0.6543579,-0.140625,-0.5625,0.21875
1696244957395,-0.70654297,-0.23956299,-0.647522,-0.3125,-0.078125,0.046875
1696244957436,-0.7150879,-0.24249268,-0.6506958,-0.78125,-0.09375,0.109375
1696244957477,-0.71069336,-0.24346924,-0.644104,-0.109375,-1.0625,0.078125
1696244957517,-0.71435547,-0.24102783,-0.65411377,-0.296875,-1.59375,-0.125
1696244957556,-0.7080078,-0.24127197,-0.6506958,-0.203125,-1.546875,0.203125
1696244957595,-0.70703125,-0.24371338,-0.6531372,-0.328125,-1.1875,0.28125
1696244957636,-0.7104492,-0.24468994,-0.65289307,-0.4375,-0.875,0.203125
1696244957676,-0.70214844,-0.24810791,-0.65045166,0.359375,-1.28125,0.40625
1696244957715,-0.70092773,-0.24127197,-0.644104,0.328125,-0.640625,0.21875
1696244957756,-0.7043457,-0.23858643,-0.6477661,0.125,-0.515625,0.234375
1696244957795,-0.70581055,-0.24639893,-0.6499634,0.28125,-0.625,0.1875
1696244957835,-0.7097168,-0.24005127,-0.6543579,0.140625,-0.078125,0.234375
1696244957876,-0.71191406,-0.24005127,-0.6560669,0.203125,-0.453125,0.265625
1696244957916,-0.70825195,-0.24127197,-0.661438,0.171875,-0.15625,0.234375
1696244957956,-0.7084961,-0.23883057,-0.6565552,0.25,-0.375,0.34375
1696244957997,-0.7077637,-0.24664307,-0.6567993,-0.03125,-0.125,0.296875
1696244958037,-0.70581055,-0.237854,-0.6453247,0.171875,-0.453125,0.25
1696244958077,-0.70288086,-0.24005127,-0.64801025,0.21875,-0.359375,0.28125
1696244958117,-0.7019043,-0.23956299,-0.65045166,-0.140625,-0.015625,0.203125
1696244958155,-0.7145996,-0.23834229,-0.659729,-0.46875,-0.53125,0.328125
1696244958196,-0.71313477,-0.24249268,-0.64385986,-0.40625,0.3125,-0.03125
1696244958239,-0.7102051,-0.24737549,-0.64678955,0.28125,-0.546875,0.203125
1696244958276,-0.70947266,-0.24298096,-0.65216064,0.03125,-0.078125,0.125
1696244958315,-0.70410156,-0.23590088,-0.64727783,0.265625,-0.5625,0.15625
1696244958355,-0.7089844,-0.24078369,-0.65338135,-0.1875,-0.5,0.21875
1696244958396,-0.70703125,-0.24176025,-0.6453247,0.421875,0.09375,0.3125
1696244958437,-0.70581055,-0.24298096,-0.6502075,0.65625,0.15625,0.46875
1696244958477,-0.7060547,-0.2432251,-0.64971924,0.359375,0.578125,0.453125
1696244958537,-0.7038574,-0.24615479,-0.64849854,0.421875,0.0625,0.34375
1696244958553,-0.71069336,-0.23443604,-0.64678955,0.453125,-0.25,0.125
1696244958597,-0.71728516,-0.23809814,-0.6489868,0.421875,-0.1875,0.296875
1696244958615,-0.7097168,-0.23687744,-0.6536255,0.359375,0.0625,0.171875
1696244958678,-0.70825195,-0.23760986,-0.65045166,0.109375,0.03125,0.21875
1696244958697,-0.7084961,-0.23614502,-0.65289307,-0.125,-0.25,0.109375
1696244958735,-0.70336914,-0.23687744,-0.64556885,0.15625,-0.28125,0.359375
1696244958776,-0.71191406,-0.24029541,-0.65216064,0.03125,-0.046875,0.21875
1696244958815,-0.7067871,-0.23931885,-0.644104,0.328125,0.359375,0.171875
1696244958856,-0.71728516,-0.2366333,-0.6397095,0.625,-0.078125,0.3125
1696244958897,-0.7114258,-0.2354126,-0.6292114,0.328125,0.28125,0.140625
1696244958935,-0.72509766,-0.24273682,-0.6646118,-0.390625,-0.5,0.453125
1696244958978,-0.7097168,-0.23468018,-0.64068604,-0.203125,0.28125,0.3125
1696244959017,-0.71313477,-0.24371338,-0.6555786,0.59375,-0.3125,0.3125
1696244959055,-0.7126465,-0.22979736,-0.645813,1.765625,1.125,0.5
1696244959117,-0.7163086,-0.23370361,-0.644104,0.984375,0.078125,0.359375
1696244959156,-0.7150879,-0.23370361,-0.64263916,0.828125,0.359375,0.53125
1696244959175,-0.72021484,-0.22979736,-0.6380005,1.46875,0.484375,0.421875
1696244959216,-0.7175293,-0.23638916,-0.65216064,0.609375,0.296875,0.46875
1696244959255,-0.7216797,-0.237854,-0.6380005,0.875,0.59375,0.484375
1696244959296,-0.7236328,-0.23565674,-0.64385986,0.765625,0.21875,0.328125
1696244959336,-0.7207031,-0.22662354,-0.6411743,0.765625,-0.125,0.515625
1696244959375,-0.71777344,-0.23590088,-0.64312744,0.3125,0.0,0.375
1696244959440,-0.7241211,-0.23345947,-0.65216064,0.578125,0.078125,0.453125
1696244959455,-0.72509766,-0.2366333,-0.6416626,0.765625,0.671875,0.625
1696244959519,-0.71850586,-0.22979736,-0.6416626,1.234375,0.265625,0.53125
1696244959534,-0.7241211,-0.23101807,-0.65045166,0.9375,-0.078125,0.546875
1696244959576,-0.7192383,-0.22711182,-0.6411743,0.625,0.046875,0.484375
1696244959617,-0.7270508,-0.22589111,-0.64263916,0.546875,-0.15625,0.21875
1696244959657,-0.7253418,-0.22418213,-0.63946533,0.953125,0.015625,0.515625
1696244959699,-0.72631836,-0.22979736,-0.6399536,0.734375,-0.28125,0.421875
1696244959735,-0.71972656,-0.22442627,-0.6489868,0.21875,-0.453125,0.40625
1696244959797,-0.72021484,-0.22955322,-0.64630127,0.25,-0.484375,0.203125
1696244959815,-0.7229004,-0.22686768,-0.65093994,-0.40625,0.3125,0.53125
1696244959857,-0.7175293,-0.22393799,-0.63165283,0.515625,-0.03125,0.515625
1696244959876,-0.7199707,-0.23101807,-0.645813,0.5625,-0.609375,0.28125
1696244959918,-0.72265625,-0.22784424,-0.64068604,0.0625,-0.375,0.359375
1696244959958,-0.7229004,-0.22808838,-0.64019775,0.640625,-0.1875,0.390625
1696244959997,-0.7248535,-0.2263794,-0.6436157,0.4375,-0.140625,0.40625
1696244960036,-0.7199707,-0.22515869,-0.63604736,0.625,-0.0625,0.515625
1696244960078,-0.72509766,-0.2276001,-0.63409424,-0.0625,0.015625,0.25
1696244960118,-0.7270508,-0.2276001,-0.6279907,-0.28125,-0.53125,0.0625
1696244960158,-0.72314453,-0.22735596,-0.6382446,-0.40625,-1.640625,-0.046875
1696244960196,-0.72021484,-0.22686768,-0.6477661,-1.15625,-2.421875,-0.375
1696244960238,-0.7277832,-0.23370361,-0.6448364,-1.0,-2.6875,-0.109375
1696244960277,-0.7167969,-0.22711182,-0.64385986,-2.890625,-4.0,-0.21875
1696244960318,-0.717041,-0.2276001,-0.6526489,-4.5,-5.328125,-0.25
1696244960355,-0.70288086,-0.23101807,-0.6445923,-3.984375,-5.3125,-0.484375
1696244960398,-0.70532227,-0.23687744,-0.6543579,-3.171875,-4.78125,-0.359375
1696244960437,-0.70166016,-0.237854,-0.65338135,-1.984375,-3.25,-0.0625
1696244960477,-0.7001953,-0.2456665,-0.6638794,-1.53125,-2.75,-0.046875
1696244960516,-0.70214844,-0.24151611,-0.6538696,-0.640625,-2.078125,0.078125
1696244960556,-0.7011719,-0.24078369,-0.66607666,-0.984375,-2.03125,0.125
1696244960595,-0.7006836,-0.24298096,-0.66192627,-0.640625,-2.265625,0.109375
1696244960634,-0.689209,-0.2366333,-0.64678955,-0.734375,-1.5625,-0.015625
1696244960673,-0.6982422,-0.24786377,-0.67071533,-0.953125,-1.453125,0.0625
1696244960713,-0.6916504,-0.24053955,-0.6548462,-0.421875,-0.875,-0.140625
1696244960755,-0.69677734,-0.2468872,-0.6760864,-0.59375,-1.4375,0.265625
1696244960798,-0.68774414,-0.23883057,-0.6548462,-0.453125,-0.40625,-0.078125
1696244960836,-0.6911621,-0.24078369,-0.6589966,0.15625,-1.1875,0.15625
1696244960876,-0.6994629,-0.24395752,-0.67266846,-0.046875,-0.796875,0.40625
1696244960917,-0.68774414,-0.24737549,-0.65460205,0.140625,-0.15625,0.28125
1696244960957,-0.6923828,-0.2456665,-0.65997314,-0.140625,-0.734375,0.28125
1696244960997,-0.69262695,-0.24371338,-0.6655884,0.03125,-0.546875,0.4375
1696244961036,-0.6870117,-0.2498169,-0.66485596,0.234375,-0.84375,0.421875
1696244961074,-0.689209,-0.25030518,-0.6682739,0.109375,-0.515625,0.125
1696244961117,-0.6899414,-0.24810791,-0.66778564,-0.171875,-0.625,0.140625
1696244961157,-0.69311523,-0.24615479,-0.673645,-0.21875,-0.453125,0.171875
1696244961174,-0.6945801,-0.24957275,-0.66900635,0.0,-0.765625,0.1875
1696244961217,-0.6838379,-0.24127197,-0.663147,-0.15625,-0.21875,0.125
1696244961258,-0.69677734,-0.24615479,-0.67266846,-0.234375,-0.375,0.328125
1696244961295,-0.6948242,-0.253479,-0.66778564,0.078125,-0.171875,0.15625
1696244961339,-0.6801758,-0.24615479,-0.6638794,0.0625,-0.46875,0.3125
1696244961398,-0.6984863,-0.24395752,-0.6760864,-0.125,-0.015625,0.234375
1696244961415,-0.6965332,-0.24810791,-0.67144775,-0.265625,0.625,0.015625
1696244961456,-0.6879883,-0.23883057,-0.65875244,0.0625,-0.28125,0.1875
1696244961519,-0.69311523,-0.24542236,-0.6692505,0.203125,-0.3125,0.3125
1696244961558,-0.6850586,-0.24761963,-0.6543579,0.15625,0.109375,0.25
1696244961573,-0.6894531,-0.24493408,-0.659729,-0.015625,-0.296875,0.203125
1696244961616,-0.6921387,-0.23980713,-0.6592407,-0.046875,-0.109375,0.375
1696244961656,-0.68896484,-0.24420166,-0.6506958,0.390625,-0.296875,0.234375
1696244961697,-0.68896484,-0.24346924,-0.66241455,0.046875,-0.375,0.203125
1696244961737,-0.6855469,-0.24176025,-0.65338135,0.234375,-0.1875,0.3125
1696244961799,-0.6904297,-0.24005127,-0.6675415,0.265625,-0.765625,0.125
1696244961814,-0.69311523,-0.2432251,-0.66412354,0.21875,-0.453125,0.25
1696244961857,-0.6994629,-0.24810791,-0.6694946,0.0625,-0.5,0.203125
1696244961898,-0.6916504,-0.24029541,-0.6724243,-0.09375,-0.359375,0.21875
1696244961935,-0.70043945,-0.24224854,-0.66412354,-0.015625,-0.359375,0.1875
1696244961977,-0.69262695,-0.24884033,-0.66729736,0.109375,-0.390625,0.28125
1696244962016,-0.6977539,-0.24664307,-0.66119385,-0.03125,0.015625,0.15625
1696244962063,-0.7001953,-0.24517822,-0.6567993,0.359375,-0.09375,0.359375
1696244962118,-0.6923828,-0.24127197,-0.6524048,0.28125,0.03125,0.15625
1696244962134,-0.69506836,-0.24420166,-0.6712036,-0.25,-0.15625,0.25
1696244962176,-0.69433594,-0.24371338,-0.6531372,0.015625,0.34375,0.078125
1696244962216,-0.6936035,-0.24737549,-0.66851807,0.046875,-0.421875,0.375
1696244962255,-0.6882324,-0.24273682,-0.6592407,0.015625,-0.1875,0.03125
1696244962318,-0.69970703,-0.24029541,-0.6638794,0.015625,-0.03125,0.328125
1696244962335,-0.7001953,-0.24298096,-0.6633911,-0.09375,-0.046875,0.203125
1696244962378,-0.6989746,-0.24859619,-0.6592407,-0.046875,-0.171875,0.265625
1696244962417,-0.7023926,-0.25201416,-0.66729736,-0.28125,-0.53125,0.328125
1696244962458,-0.6933594,-0.23883057,-0.6604614,0.03125,-0.03125,0.078125
1696244962475,-0.6977539,-0.24859619,-0.6538696,0.15625,-0.34375,0.0625
1696244962517,-0.6940918,-0.2420044,-0.663147,0.21875,-0.4375,0.03125
1696244962556,-0.69433594,-0.24224854,-0.6638794,-0.03125,-0.234375,0.171875
1696244962594,-0.69921875,-0.24639893,-0.6609497,-0.15625,-0.046875,0.25
1696244962641,-0.70654297,-0.24151611,-0.66241455,-0.078125,0.015625,0.0625
1696244962676,-0.6945801,-0.24298096,-0.661438,0.265625,-0.140625,0.015625
1696244962717,-0.6960449,-0.24713135,-0.6655884,0.0625,-0.390625,0.265625
1696244962760,-0.6982422,-0.24102783,-0.66070557,0.140625,0.1875,0.1875
1696244962794,-0.6989746,-0.24395752,-0.65704346,0.28125,-0.28125,0.171875
1696244962836,-0.69506836,-0.24493408,-0.6626587,-0.125,-0.203125,0.171875
1696244962877,-0.7019043,-0.24420166,-0.6585083,0.0625,0.046875,0.15625
1696244962916,-0.6977539,-0.24786377,-0.6633911,-0.578125,0.46875,0.34375
1696244962955,-0.7023926,-0.24542236,-0.6494751,0.328125,0.1875,0.265625
1696244962994,-0.70288086,-0.24420166,-0.65582275,0.21875,-0.21875,0.234375
1696244963038,-0.6984863,-0.24273682,-0.6536255,-0.09375,-0.0625,0.234375
1696244963075,-0.69873047,-0.24053955,-0.65826416,0.109375,-0.21875,0.15625
1696244963115,-0.71069336,-0.23883057,-0.6621704,0.609375,0.3125,0.1875
1696244963156,-0.6989746,-0.24102783,-0.65216064,2.34375,0.84375,0.40625
1696244963196,-0.7043457,-0.24102783,-0.6560669,0.90625,0.390625,0.3125
1696244963238,-0.7116699,-0.24029541,-0.6511841,1.21875,0.5625,0.3125
1696244963281,-0.7141113,-0.23175049,-0.6538696,0.984375,-0.1875,0.4375
1696244963316,-0.7121582,-0.23809814,-0.65289307,0.3125,-0.328125,0.125
1696244963356,-0.7072754,-0.23565674,-0.65045166,0.828125,-0.046875,0.015625
1696244963397,-0.703125,-0.237854,-0.6609497,0.625,0.296875,0.375
1696244963437,-0.7133789,-0.23175049,-0.6538696,0.40625,0.359375,0.46875
1696244963477,-0.71069336,-0.23150635,-0.6494751,0.53125,0.203125,0.15625
1696244963517,-0.7133789,-0.2390747,-0.6487427,0.40625,-0.078125,0.328125
1696244963556,-0.70703125,-0.237854,-0.65338135,0.671875,0.25,0.375
1696244963597,-0.71118164,-0.23150635,-0.65460205,0.234375,-0.234375,0.28125
1696244963637,-0.70874023,-0.23394775,-0.6514282,-0.046875,-0.015625,0.265625
1696244963676,-0.7019043,-0.23492432,-0.647522,0.46875,-0.078125,0.359375
1696244963716,-0.7060547,-0.2312622,-0.6609497,-0.140625,-0.140625,0.21875
1696244963758,-0.71240234,-0.23321533,-0.66363525,-0.4375,-0.34375,0.46875
1696244963801,-0.7072754,-0.22955322,-0.64849854,-0.203125,0.984375,0.1875
1696244963815,-0.7138672,-0.23492432,-0.64630127,0.625,-0.328125,0.359375
1696244963856,-0.7155762,-0.23443604,-0.6502075,-0.015625,-0.203125,0.015625
1696244963896,-0.70654297,-0.23468018,-0.6465454,-0.1875,-0.21875,0.3125
1696244963960,-0.7182617,-0.22857666,-0.6577759,-0.328125,-0.328125,0.171875
1696244964000,-0.70874023,-0.22711182,-0.64312744,-0.03125,-0.3125,0.265625
1696244964015,-0.71240234,-0.23760986,-0.65875244,0.015625,-0.671875,0.296875
1696244964056,-0.7097168,-0.23370361,-0.6499634,0.28125,0.03125,0.359375
1696244964095,-0.71362305,-0.23638916,-0.64508057,0.421875,0.03125,0.3125
1696244964157,-0.72021484,-0.22930908,-0.64727783,0.4375,-0.328125,0.140625
1696244964174,-0.70825195,-0.22833252,-0.64434814,0.25,0.0,0.296875
1696244964215,-0.7097168,-0.22686768,-0.6489868,-0.03125,-0.484375,0.21875
1696244964256,-0.72021484,-0.23077393,-0.6428833,-0.125,-0.078125,0.21875
1696244964296,-0.7163086,-0.23028564,-0.64923096,0.078125,-0.3125,0.4375
1696244964339,-0.7216797,-0.22784424,-0.6448364,-0.234375,-0.4375,0.203125
1696244964399,-0.71240234,-0.22857666,-0.64556885,-0.1875,-0.125,0.421875
1696244964417,-0.71484375,-0.22833252,-0.64141846,0.375,0.109375,0.328125
1696244964480,-0.7150879,-0.23150635,-0.6499634,0.28125,-0.328125,0.296875
1696244964495,-0.71362305,-0.2341919,-0.6436157,-0.125,-0.1875,0.234375
1696244964557,-0.7163086,-0.22808838,-0.64385986,0.078125,-0.28125,0.0625
1696244964576,-0.7158203,-0.23297119,-0.6577759,-0.109375,0.0625,0.109375
1696244964617,-0.7219238,-0.22930908,-0.65045166,0.015625,-0.421875,0.3125
1696244964656,-0.71777344,-0.23175049,-0.64434814,1.25,0.96875,0.546875
1696244964698,-0.720459,-0.23248291,-0.64434814,1.171875,-0.3125,0.328125
1696244964736,-0.71362305,-0.2263794,-0.6538696,0.484375,-0.03125,0.296875
1696244964777,-0.7150879,-0.22491455,-0.6460571,0.625,-0.109375,0.1875
1696244964836,-0.71899414,-0.22247314,-0.64971924,0.421875,-0.0625,0.34375
1696244964855,-0.7253418,-0.23297119,-0.6445923,0.234375,-0.15625,0.3125
1696244964918,-0.7207031,-0.23077393,-0.6565552,0.0,-0.75,0.40625
1696244964935,-0.7145996,-0.23150635,-0.6577759,0.15625,0.796875,0.484375
1696244964998,-0.7224121,-0.23443604,-0.6465454,2.640625,4.625,0.859375
1696244965016,-0.7224121,-0.22540283,-0.6387329,1.515625,1.15625,0.5625
1696244965056,-0.7282715,-0.22564697,-0.6343384,0.5625,0.203125,0.3125
1696244965117,-0.72314453,-0.22296143,-0.6397095,-0.015625,-0.4375,0.296875
1696244965119,-0.7285156,-0.22467041,-0.64068604,-0.453125,-0.640625,0.203125
1696244965155,-0.72802734,-0.22808838,-0.6411743,-0.140625,-1.1875,0.09375
1696244965236,-0.7241211,-0.22247314,-0.6436157,0.09375,-1.0625,0.15625
1696244965240,-0.720459,-0.22125244,-0.6375122,0.0,-0.59375,0.28125
1696244965277,-0.717041,-0.23052979,-0.63775635,0.21875,-0.25,0.3125
1696244965316,-0.7253418,-0.22149658,-0.63531494,0.5,0.125,0.203125
1696244965357,-0.7236328,-0.222229,-0.6470337,1.28125,0.859375,0.90625
1696244965396,-0.72143555,-0.22027588,-0.63848877,1.65625,1.03125,1.359375
1696244965436,-0.72094727,-0.22174072,-0.6296997,0.828125,0.625,0.8125
1696244965475,-0.7277832,-0.22393799,-0.6436157,0.046875,-0.265625,0.765625
1696244965517,-0.72558594,-0.22271729,-0.6226196,0.140625,0.109375,0.328125
1696244965557,-0.73095703,-0.22711182,-0.6399536,0.390625,-0.71875,0.25
1696244965596,-0.72387695,-0.22735596,-0.6343384,0.203125,-0.609375,0.1875
1696244965634,-0.7351074,-0.22808838,-0.63946533,0.09375,-0.6875,0.28125
1696244965676,-0.72802734,-0.22613525,-0.64556885,-0.171875,-0.796875,0.03125
1696244965718,-0.7192383,-0.22271729,-0.6380005,-0.015625,-0.109375,0.25
1696244965756,-0.7294922,-0.22198486,-0.6370239,0.015625,-0.421875,0.296875
1696244965796,-0.72436523,-0.22906494,-0.63604736,0.078125,-0.09375,0.234375
1696244965834,-0.7229004,-0.22540283,-0.6411743,0.1875,-0.515625,0.4375
1696244965879,-0.7253418,-0.22076416,-0.644104,0.0,-0.234375,0.171875
1696244965917,-0.7233887,-0.22149658,-0.6333618,0.03125,-0.3125,0.125
1696244965958,-0.7233887,-0.21929932,-0.6416626,0.046875,-0.375,0.078125
1696244965996,-0.732666,-0.22442627,-0.644104,0.125,-0.28125,0.25
1696244966036,-0.7219238,-0.22003174,-0.63482666,0.3125,-0.328125,0.4375
1696244966077,-0.7253418,-0.22296143,-0.64141846,0.0,-0.5,0.3125
1696244966122,-0.720459,-0.22247314,-0.62872314,-0.234375,-0.421875,0.265625
1696244966158,-0.7302246,-0.22149658,-0.6321411,0.03125,-0.703125,0.3125
1696244966197,-0.72875977,-0.21685791,-0.64263916,0.078125,-0.71875,0.203125
1696244966236,-0.73095703,-0.22174072,-0.6514282,-0.25,-1.09375,0.296875
1696244966278,-0.7248535,-0.22198486,-0.64801025,-0.09375,-0.734375,0.125
1696244966317,-0.7277832,-0.22393799,-0.64678955,-0.6875,-0.140625,0.359375
1696244966357,-0.72021484,-0.22686768,-0.62994385,-0.140625,-0.0625,0.46875
1696244966436,-0.72753906,-0.22589111,-0.6489868,-0.140625,-0.40625,0.328125
1696244966440,-0.72436523,-0.22491455,-0.63653564,-0.53125,-0.203125,0.359375
1696244966455,-0.73095703,-0.21759033,-0.6362915,-0.1875,-0.171875,0.375
1696244966496,-0.7285156,-0.22467041,-0.6399536,-0.25,-0.46875,0.25
1696244966538,-0.7270508,-0.22589111,-0.63604736,0.359375,-0.421875,0.296875
1696244966577,-0.7297363,-0.22418213,-0.6358032,0.453125,-0.3125,0.546875
1696244966616,-0.72802734,-0.22808838,-0.6375122,0.609375,-0.171875,0.5625
1696244966657,-0.7260742,-0.222229,-0.64263916,0.328125,-0.5,0.34375
1696244966699,-0.7246094,-0.21954346,-0.6350708,0.171875,-0.109375,0.34375
1696244966757,-0.7229004,-0.22271729,-0.62579346,-0.015625,-0.203125,0.171875
1696244966775,-0.7307129,-0.2210083,-0.6387329,-0.25,-0.625,0.234375
1696244966817,-0.7331543,-0.23150635,-0.63653564,0.71875,-1.734375,0.015625
1696244966856,-0.7385254,-0.21832275,-0.63726807,0.8125,-2.3125,0.03125
1696244966896,-0.7194824,-0.21685791,-0.64141846,-1.25,-2.09375,-0.109375
1696244966936,-0.7233887,-0.22296143,-0.63726807,-2.015625,-3.546875,-0.125
1696244966977,-0.70996094,-0.22589111,-0.6355591,-2.25,-4.859375,-0.34375
1696244967038,-0.7138672,-0.23101807,-0.6555786,-2.859375,-5.140625,-0.203125
1696244967076,-0.7126465,-0.23272705,-0.6638794,-3.265625,-5.640625,-0.234375
1696244967116,-0.7043457,-0.23223877,-0.6553345,-2.25,-3.46875,-0.0625
1696244967136,-0.6999512,-0.23345947,-0.6616821,-1.296875,-3.0625,-0.09375
1696244967196,-0.7077637,-0.23223877,-0.6716919,-0.8125,-1.71875,0.046875
1696244967236,-0.70654297,-0.23150635,-0.65631104,-0.296875,-1.265625,0.140625
1696244967255,-0.70214844,-0.23199463,-0.6621704,-0.0625,-1.171875,0.0625
1696244967296,-0.7055664,-0.23345947,-0.6729126,-0.8125,-0.375,0.125
1696244967337,-0.7026367,-0.23468018,-0.6668091,-0.53125,-0.796875,0.265625
1696244967376,-0.69506836,-0.23223877,-0.663147,-0.859375,-0.53125,0.265625
1696244967421,-0.6989746,-0.23565674,-0.659729,-0.765625,-0.5,0.421875
1696244967457,-0.7062988,-0.24615479,-0.6626587,-0.796875,-0.1875,0.28125
1696244967498,-0.7036133,-0.23394775,-0.6519165,-0.40625,-0.21875,0.1875
1696244967538,-0.69677734,-0.23712158,-0.6643677,-0.4375,-0.25,0.21875
1696244967576,-0.7102051,-0.23883057,-0.6621704,-0.78125,0.1875,-0.015625
1696244967639,-0.7080078,-0.23736572,-0.6589966,-0.265625,-0.015625,0.109375
1696244967657,-0.70996094,-0.23712158,-0.6609497,-0.328125,-0.4375,0.296875
1696244967696,-0.6989746,-0.23858643,-0.6531372,-0.15625,-0.375,0.296875
1696244967736,-0.7077637,-0.24786377,-0.659729,-0.21875,-0.734375,0.15625
1696244967755,-0.69921875,-0.24127197,-0.65411377,0.171875,-0.203125,0.140625
1696244967798,-0.70288086,-0.24493408,-0.66973877,-0.59375,-0.25,0.1875
1696244967836,-0.70532227,-0.23638916,-0.64556885,0.09375,-0.125,0.03125
1696244967876,-0.7026367,-0.23809814,-0.663147,0.125,-0.59375,0.1875
1696244967918,-0.7055664,-0.237854,-0.6514282,0.03125,0.40625,0.140625
1696244967957,-0.7060547,-0.23809814,-0.6567993,0.0625,-0.21875,0.296875
1696244967999,-0.70532227,-0.23980713,-0.6567993,-0.15625,0.171875,0.078125
1696244968039,-0.6982422,-0.23858643,-0.6428833,0.3125,-0.1875,0.265625
1696244968077,-0.7062988,-0.23931885,-0.659729,-0.125,-0.3125,0.3125
1696244968118,-0.6940918,-0.24176025,-0.64678955,0.125,-0.265625,0.203125
1696244968155,-0.6945801,-0.23883057,-0.6589966,0.25,-0.6875,0.109375
1696244968196,-0.70458984,-0.23687744,-0.65460205,-0.140625,-0.25,0.28125
1696244968239,-0.7011719,-0.24224854,-0.6519165,-0.109375,-0.40625,0.203125
1696244968276,-0.70874023,-0.2312622,-0.6592407,-0.21875,-0.140625,0.265625
1696244968318,-0.70947266,-0.23858643,-0.6565552,-0.3125,-0.40625,0.234375
1696244968356,-0.7121582,-0.24468994,-0.65411377,-0.390625,-0.28125,0.28125
1696244968395,-0.70751953,-0.24127197,-0.65167236,-0.03125,-0.34375,0.25
1696244968436,-0.7072754,-0.23858643,-0.65338135,-0.0625,0.078125,0.25
1696244968476,-0.7102051,-0.23712158,-0.6548462,0.328125,-0.515625,0.25
1696244968518,-0.7077637,-0.24029541,-0.6567993,-0.140625,0.59375,0.109375
1696244968557,-0.7077637,-0.24102783,-0.6428833,1.53125,0.140625,0.234375
1696244968597,-0.7062988,-0.23492432,-0.6621704,0.671875,0.109375,0.078125
1696244968636,-0.7072754,-0.23150635,-0.6526489,0.390625,-0.390625,0.203125
1696244968676,-0.7077637,-0.24078369,-0.6538696,0.28125,-0.140625,0.328125
1696244968717,-0.7092285,-0.23736572,-0.6538696,0.375,-0.125,0.375
1696244968756,-0.7116699,-0.23492432,-0.6572876,0.59375,-0.578125,0.125
1696244968798,-0.70654297,-0.24298096,-0.6585083,0.09375,-0.234375,0.234375
1696244968838,-0.70581055,-0.23590088,-0.64385986,0.171875,-0.21875,0.203125
1696244968876,-0.7126465,-0.24127197,-0.647522,0.296875,-0.390625,0.375
1696244968918,-0.7067871,-0.23370361,-0.6585083,0.203125,-0.265625,0.171875
1696244968958,-0.7109375,-0.23468018,-0.65753174,0.359375,-0.3125,0.34375
1696244968997,-0.7116699,-0.23394775,-0.6585083,0.234375,-0.1875,0.109375
1696244969056,-0.717041,-0.23052979,-0.6548462,0.125,-0.296875,0.28125
1696244969060,-0.7150879,-0.23370361,-0.6560669,0.359375,-0.1875,0.3125
1696244969097,-0.71069336,-0.23223877,-0.6524048,0.359375,0.125,0.1875
1696244969136,-0.70654297,-0.23443604,-0.65093994,1.1875,0.65625,0.359375
1696244969198,-0.71606445,-0.23223877,-0.6565552,0.75,0.515625,0.359375
1696244969236,-0.7145996,-0.22735596,-0.6506958,0.90625,0.671875,0.1875
1696244969255,-0.717041,-0.22979736,-0.6548462,0.421875,0.75,0.578125
1696244969317,-0.7167969,-0.23199463,-0.6436157,0.8125,0.53125,0.3125
1696244969336,-0.71240234,-0.23028564,-0.6436157,0.546875,-0.078125,0.28125
1696244969376,-0.7163086,-0.22833252,-0.6465454,0.46875,0.15625,0.375
1696244969417,-0.7133789,-0.23052979,-0.65631104,0.28125,-0.375,0.375
1696244969458,-0.7194824,-0.22784424,-0.64727783,0.296875,0.03125,0.28125
1696244969496,-0.7141113,-0.23272705,-0.642395,1.140625,-0.109375,0.5
1696244969557,-0.70947266,-0.2312622,-0.64630127,0.296875,-0.09375,0.296875
1696244969596,-0.7133789,-0.22955322,-0.63409424,0.109375,-0.109375,0.40625
1696244969615,-0.7182617,-0.23101807,-0.6511841,0.03125,-0.296875,0.359375
1696244969679,-0.7199707,-0.22320557,-0.6436157,-0.015625,-0.28125,0.140625
1696244969696,-0.7219238,-0.2276001,-0.6524048,0.09375,0.0625,0.15625
1696244969757,-0.71484375,-0.23028564,-0.6453247,0.28125,-0.078125,0.390625
1696244969774,-0.71899414,-0.23297119,-0.6482544,0.28125,-0.09375,0.4375
1696244969839,-0.7219238,-0.22686768,-0.644104,0.15625,0.109375,0.421875
1696244969874,-0.7199707,-0.23443604,-0.6421509,0.390625,0.109375,0.359375
1696244969895,-0.71850586,-0.22418213,-0.6433716,0.203125,0.03125,0.328125
1696244969936,-0.717041,-0.23150635,-0.64190674,0.046875,0.078125,0.359375
1696244969979,-0.7158203,-0.21954346,-0.63531494,0.078125,-0.1875,0.265625
1696244970017,-0.71875,-0.23077393,-0.6343384,-0.234375,-0.484375,0.15625
1696244970057,-0.71777344,-0.22247314,-0.63531494,-0.03125,-1.25,0.078125
1696244970119,-0.7246094,-0.22857666,-0.6489868,0.015625,-2.234375,0.0625
1696244970157,-0.71606445,-0.2234497,-0.64508057,-1.71875,-1.859375,-0.234375
1696244970176,-0.72436523,-0.2300415,-0.65045166,0.0,-3.1875,0.0
1696244970215,-0.71655273,-0.22979736,-0.6604614,-0.734375,-3.140625,0.0625
1696244970277,-0.7121582,-0.22686768,-0.64923096,-1.453125,-3.109375,-0.140625
1696244970296,-0.7089844,-0.23248291,-0.6602173,-1.359375,-3.390625,0.015625
1696244970337,-0.704834,-0.23883057,-0.6643677,-1.640625,-1.890625,0.078125
1696244970396,-0.70947266,-0.2354126,-0.65948486,-1.0625,-1.5,0.265625
1696244970399,-0.7006836,-0.23321533,-0.65045166,-0.625,-1.078125,0.15625
1696244970436,-0.703125,-0.22955322,-0.6553345,-0.28125,-0.609375,0.015625
1696244970476,-0.70458984,-0.24053955,-0.663147,-0.46875,-1.03125,-0.015625
1696244970516,-0.704834,-0.23321533,-0.65948486,-0.5625,-0.625,0.109375
1696244970556,-0.7084961,-0.24078369,-0.6602173,-0.640625,-0.609375,0.015625
1696244970597,-0.7026367,-0.23712158,-0.65997314,-0.609375,-0.171875,0.0625
1696244970637,-0.69433594,-0.23565674,-0.65704346,-0.75,-0.109375,0.109375
1696244970677,-0.70166016,-0.237854,-0.65093994,-0.5,0.1875,0.328125
1696244970716,-0.7023926,-0.24395752,-0.6565552,-0.078125,-0.015625,0.28125
1696244970759,-0.7092285,-0.23345947,-0.65826416,-0.171875,-0.328125,0.109375
1696244970795,-0.70336914,-0.23565674,-0.6499634,0.046875,-0.328125,0.09375
1696244970835,-0.70214844,-0.23101807,-0.65289307,-0.453125,0.0625,0.0625
1696244970880,-0.70458984,-0.23443604,-0.6638794,-0.328125,-0.65625,0.203125
1696244970918,-0.70214844,-0.24273682,-0.6560669,-0.328125,0.765625,0.125
1696244970956,-0.7128906,-0.24127197,-0.6543579,0.234375,-0.09375,0.21875
1696244970997,-0.7036133,-0.23321533,-0.6536255,-0.171875,0.21875,0.265625
1696244971035,-0.70336914,-0.2366333,-0.6519165,-0.203125,-0.359375,-0.046875
1696244971076,-0.70214844,-0.23370361,-0.65045166,-0.03125,-0.15625,0.09375
1696244971119,-0.7116699,-0.23956299,-0.6499634,-0.15625,-0.40625,0.1875
1696244971158,-0.70825195,-0.23687744,-0.659729,-0.328125,-0.59375,0.265625
1696244971197,-0.70703125,-0.23712158,-0.6511841,-0.3125,-0.4375,0.265625
1696244971236,-0.7092285,-0.23858643,-0.6626587,-0.109375,-0.40625,0.125
1696244971277,-0.7062988,-0.23956299,-0.6494751,0.09375,-0.359375,0.125
1696244971319,-0.7062988,-0.24639893,-0.65411377,0.046875,-0.6875,0.15625
1696244971355,-0.7043457,-0.23956299,-0.6536255,0.015625,-0.390625,0.0625
1696244971395,-0.704834,-0.237854,-0.6555786,-0.359375,-0.203125,0.15625
1696244971435,-0.7077637,-0.24371338,-0.6494751,-0.140625,-0.296875,0.171875
1696244971480,-0.7097168,-0.2444458,-0.6626587,-0.203125,-0.625,0.234375
1696244971518,-0.7067871,-0.23931885,-0.65093994,-0.21875,-0.328125,0.1875
1696244971556,-0.70214844,-0.24249268,-0.6524048,-0.328125,-0.484375,0.203125
1696244971598,-0.7011719,-0.23809814,-0.6511841,0.234375,-0.25,0.28125
1696244971635,-0.70410156,-0.24224854,-0.65216064,0.328125,-0.453125,0.296875
1696244971678,-0.71435547,-0.24420166,-0.64630127,-0.1875,-0.171875,0.140625
1696244971695,-0.7133789,-0.23712158,-0.65631104,-0.4375,-0.71875,0.453125
1696244971736,-0.70996094,-0.23883057,-0.64508057,-0.234375,0.40625,0.15625
1696244971776,-0.7133789,-0.24346924,-0.6604614,0.125,-0.5625,0.234375
1696244971816,-0.7104492,-0.23834229,-0.6616821,0.0,-0.203125,0.15625
1696244971876,-0.71240234,-0.24102783,-0.6553345,-0.015625,-0.125,0.15625
1696244971895,-0.71533203,-0.23858643,-0.6489868,-0.265625,-0.25,0.09375
1696244971958,-0.7026367,-0.2354126,-0.64727783,-0.28125,-0.25,0.109375
1696244971976,-0.7109375,-0.24102783,-0.6572876,-0.671875,-1.3125,0.375
1696244972017,-0.70410156,-0.23760986,-0.63409424,0.03125,-1.84375,0.328125
1696244972056,-0.70336914,-0.24639893,-0.65826416,0.328125,-2.84375,0.5
1696244972096,-0.71240234,-0.2444458,-0.66363525,0.5,-2.484375,0.3125
1696244972142,-0.69799805,-0.24493408,-0.6609497,0.078125,-2.84375,0.234375
1696244972178,-0.69555664,-0.24249268,-0.66485596,-0.0625,-2.140625,0.0
1696244972216,-0.69311523,-0.24542236,-0.6651001,-0.609375,-2.125,-0.140625
1696244972257,-0.69018555,-0.23931885,-0.6651001,-0.625,-1.59375,0.09375
1696244972297,-0.6894531,-0.23980713,-0.66778564,-0.59375,-0.96875,0.25
1696244972336,-0.69506836,-0.24395752,-0.6680298,-0.625,-0.1875,0.046875
1696244972378,-0.69262695,-0.24273682,-0.65216064,0.09375,-0.34375,-0.03125
1696244972416,-0.6933594,-0.2354126,-0.6585083,0.328125,-0.109375,0.140625
1696244972460,-0.6928711,-0.23980713,-0.6638794,0.53125,-0.03125,0.140625
1696244972496,-0.69873047,-0.23590088,-0.6609497,0.15625,0.515625,0.015625
1696244972558,-0.69970703,-0.24273682,-0.66412354,-0.421875,0.28125,0.28125
1696244972575,-0.69970703,-0.24371338,-0.6524048,0.265625,0.375,0.265625
1696244972617,-0.7006836,-0.24005127,-0.66851807,0.125,-0.21875,0.3125
1696244972656,-0.69873047,-0.23809814,-0.6626587,-0.328125,-0.171875,0.203125
1696244972718,-0.69970703,-0.2432251,-0.659729,-0.21875,-0.03125,0.234375
1696244972734,-0.6977539,-0.24298096,-0.66778564,-0.03125,-0.171875,0.03125
1696244972796,-0.70043945,-0.24078369,-0.6567993,-0.109375,0.09375,0.1875
1696244972819,-0.70043945,-0.24005127,-0.6577759,-0.359375,-0.21875,0.265625
1696244972856,-0.69873047,-0.24053955,-0.6572876,-0.140625,0.4375,0.265625
1696244972896,-0.701416,-0.2432251,-0.661438,0.203125,-0.25,0.203125
1696244972936,-0.7001953,-0.24053955,-0.66485596,-0.046875,-0.28125,0.15625
1696244972977,-0.6945801,-0.23956299,-0.6616821,0.078125,-0.171875,0.125
1696244973000,-0.7023926,-0.24127197,-0.66729736,-0.1875,-0.25,0.15625
1696244973036,-0.70410156,-0.24127197,-0.65509033,-0.078125,-0.265625,0.21875
1696244973077,-0.703125,-0.24517822,-0.6555786,-0.1875,-0.390625,0.234375
1696244973116,-0.7001953,-0.24273682,-0.6646118,-0.046875,-0.328125,0.21875
1696244973155,-0.70214844,-0.24029541,-0.6572876,-0.21875,-0.265625,0.1875
1696244973196,-0.69677734,-0.24053955,-0.6572876,-0.015625,0.078125,0.265625
1696244973236,-0.70947266,-0.23834229,-0.6548462,0.109375,-0.1875,0.078125
1696244973276,-0.70336914,-0.24420166,-0.65509033,0.0,-0.140625,0.109375
1696244973317,-0.7080078,-0.24542236,-0.66534424,-0.265625,-0.421875,0.234375
1696244973362,-0.7092285,-0.24029541,-0.6567993,-0.4375,0.15625,0.203125
1696244973396,-0.7026367,-0.23931885,-0.6536255,0.078125,-0.34375,0.203125
1696244973437,-0.70336914,-0.24493408,-0.6555786,-0.140625,-0.265625,0.265625
1696244973479,-0.6989746,-0.24542236,-0.6514282,-0.03125,-0.125,0.109375
1696244973515,-0.7055664,-0.24029541,-0.6555786,-0.25,-0.21875,0.21875
1696244973561,-0.7043457,-0.24102783,-0.65997314,-0.34375,-0.171875,0.296875
1696244973602,-0.6999512,-0.24127197,-0.64801025,0.03125,-0.140625,0.234375
1696244973634,-0.7062988,-0.24273682,-0.6526489,-0.25,-0.09375,0.296875
1696244973674,-0.7062988,-0.23980713,-0.6477661,0.046875,0.34375,0.4375
1696244973715,-0.70996094,-0.24029541,-0.6538696,0.0625,-0.25,0.171875
1696244973755,-0.70410156,-0.23809814,-0.6511841,-0.0625,-0.265625,0.078125
1696244973794,-0.7072754,-0.23590088,-0.6565552,-0.15625,-0.046875,0.140625
1696244973835,-0.7092285,-0.23956299,-0.65582275,0.078125,0.25,0.328125
1696244973875,-0.71240234,-0.23956299,-0.65631104,0.140625,-0.140625,0.171875
1696244973915,-0.7026367,-0.25054932,-0.6560669,-0.03125,-0.234375,0.15625
1696244973954,-0.701416,-0.24468994,-0.6499634,0.15625,-0.171875,0.265625
1696244973995,-0.70581055,-0.2390747,-0.6543579,-0.09375,-0.234375,0.0625
1696244974036,-0.7084961,-0.237854,-0.65509033,-0.1875,-0.25,0.25
1696244974074,-0.7060547,-0.2420044,-0.64971924,0.0,-0.390625,0.109375
1696244974117,-0.70410156,-0.23858643,-0.64385986,0.125,-0.171875,0.0625
1696244974155,-0.71362305,-0.24151611,-0.659729,-0.453125,-0.796875,0.421875
1696244974197,-0.7023926,-0.23809814,-0.6404419,-0.21875,0.234375,0.265625
1696244974239,-0.7062988,-0.24249268,-0.65582275,-0.046875,-0.578125,0.1875
1696244974274,-0.7050781,-0.23565674,-0.65289307,-0.4375,-0.453125,0.0625
1696244974317,-0.71069336,-0.24346924,-0.6421509,-0.140625,-0.4375,0.34375
1696244974357,-0.7116699,-0.24493408,-0.6524048,-0.28125,-0.5,0.296875
1696244974375,-0.71069336,-0.24371338,-0.6489868,-0.0625,-0.546875,0.421875
1696244974417,-0.7084961,-0.24029541,-0.6560669,-0.46875,-0.515625,0.171875
1696244974462,-0.7102051,-0.24395752,-0.6433716,-0.125,-0.40625,0.265625
1696244974517,-0.70825195,-0.24468994,-0.6506958,-0.109375,-0.921875,0.15625
1696244974535,-0.70654297,-0.23980713,-0.65045166,-0.171875,-1.640625,0.0
1696244974577,-0.70581055,-0.23736572,-0.6460571,-0.21875,-2.859375,-0.15625
1696244974616,-0.70336914,-0.23858643,-0.6572876,-1.21875,-3.46875,-0.28125
1696244974656,-0.70410156,-0.25201416,-0.66192627,-1.09375,-3.046875,-0.09375
1696244974697,-0.69555664,-0.24713135,-0.6589966,-1.453125,-2.65625,0.0625
1696244974736,-0.69873047,-0.24493408,-0.661438,-1.03125,-2.484375,0.0
1696244974778,-0.69555664,-0.25421143,-0.66412354,-1.0,-2.3125,-0.125
1696244974818,-0.69311523,-0.24249268,-0.6621704,-0.9375,-2.453125,-0.0625
1696244974880,-0.69018555,-0.2539673,-0.66534424,-0.890625,-2.3125,-0.078125
1696244974895,-0.68310547,-0.24884033,-0.66851807,-1.0625,-2.03125,-0.03125
1696244974937,-0.6945801,-0.24127197,-0.6758423,-1.328125,-1.796875,0.0
1696244974976,-0.68408203,-0.25494385,-0.6721802,-0.78125,-0.9375,0.140625
1696244975016,-0.6904297,-0.25323486,-0.6709595,-0.375,-1.3125,0.21875
1696244975056,-0.685791,-0.2539673,-0.6765747,0.015625,-0.9375,0.125
1696244975096,-0.68408203,-0.24859619,-0.66070557,0.140625,-0.203125,0.15625
1696244975135,-0.6828613,-0.2539673,-0.67144775,0.5625,-0.5625,0.15625
1696244975176,-0.6772461,-0.2444458,-0.6795044,0.234375,-0.28125,0.421875
1696244975237,-0.69018555,-0.2522583,-0.6795044,0.234375,-0.296875,0.359375
1696244975255,-0.6845703,-0.24713135,-0.67437744,0.015625,-0.1875,0.28125
1696244975320,-0.68310547,-0.25250244,-0.6626587,0.375,0.125,0.1875
1696244975334,-0.689209,-0.24859619,-0.6765747,0.359375,-0.25,0.328125
1696244975399,-0.68603516,-0.2444458,-0.66607666,0.140625,-0.046875,0.1875
1696244975415,-0.68530273,-0.2510376,-0.6651001,0.28125,-0.296875,0.203125
1696244975457,-0.6838379,-0.25372314,-0.6663208,0.1875,-0.015625,0.15625
1696244975496,-0.68896484,-0.24737549,-0.66290283,0.125,0.0,0.15625
1696244975537,-0.6940918,-0.24639893,-0.6704712,0.203125,-0.125,0.171875
1696244975601,-0.6904297,-0.24615479,-0.6651001,0.078125,0.015625,0.03125
1696244975616,-0.69311523,-0.25250244,-0.66119385,-0.09375,-0.234375,0.265625
1696244975637,-0.69091797,-0.24078369,-0.66656494,-0.0625,-0.53125,0.359375
1696244975675,-0.6899414,-0.25445557,-0.66729736,-0.125,-0.34375,0.171875
1696244975718,-0.6933594,-0.2456665,-0.6724243,-0.484375,0.3125,0.015625
1696244975757,-0.68847656,-0.24932861,-0.6592407,0.1875,-0.125,0.21875
1696244975799,-0.6936035,-0.24346924,-0.6694946,0.140625,-0.421875,-0.015625
1696244975841,-0.69262695,-0.25006104,-0.6658325,-0.171875,-0.234375,0.03125
1696244975879,-0.69262695,-0.24786377,-0.6712036,-0.296875,-0.390625,0.171875
1696244975917,-0.6928711,-0.24761963,-0.6670532,0.0,-0.3125,0.046875
1696244975956,-0.68603516,-0.24542236,-0.66070557,0.03125,-0.171875,0.15625
1696244975997,-0.6809082,-0.2498169,-0.6626587,-0.1875,-0.15625,0.25
1696244976039,-0.6826172,-0.24127197,-0.6585083,0.3125,-0.046875,0.140625
1696244976075,-0.69750977,-0.25054932,-0.66119385,-0.046875,-0.40625,0.09375
1696244976118,-0.69018555,-0.24542236,-0.661438,-0.28125,-0.140625,0.078125
1696244976175,-0.69628906,-0.2546997,-0.66900635,-0.1875,-0.1875,0.0625
1696244976196,-0.6923828,-0.24786377,-0.6616821,0.03125,-0.296875,0.1875
1696244976236,-0.6936035,-0.24737549,-0.6651001,0.125,-0.140625,0.109375
1696244976276,-0.6958008,-0.24884033,-0.6680298,0.203125,-0.0625,0.078125
1696244976318,-0.69555664,-0.24761963,-0.6633911,0.15625,-0.140625,0.21875
1696244976357,-0.6911621,-0.24298096,-0.66290283,0.203125,-0.359375,0.15625
1696244976397,-0.6855469,-0.24908447,-0.6487427,0.359375,-0.109375,0.015625
1696244976437,-0.69555664,-0.24908447,-0.67681885,-0.375,0.046875,0.234375
1696244976477,-0.69628906,-0.24908447,-0.65411377,0.140625,0.5,0.015625
1696244976519,-0.6928711,-0.24298096,-0.66119385,0.25,-0.109375,0.234375
1696244976557,-0.70092773,-0.24761963,-0.66119385,-0.09375,-0.078125,0.359375
1696244976597,-0.6984863,-0.24249268,-0.65753174,0.21875,-0.296875,0.125
1696244976636,-0.7043457,-0.24884033,-0.6680298,-0.171875,-0.09375,0.265625
1696244976675,-0.701416,-0.24932861,-0.65875244,0.203125,-0.296875,0.28125
1696244976720,-0.69873047,-0.24591064,-0.66729736,-0.296875,-0.25,0.46875
1696244976756,-0.6936035,-0.24151611,-0.6519165,0.015625,0.03125,0.15625
1696244976798,-0.69628906,-0.24786377,-0.6592407,0.25,-0.53125,0.171875
1696244976836,-0.7036133,-0.24786377,-0.6633911,0.0625,-0.28125,0.25
1696244976877,-0.69750977,-0.24273682,-0.66119385,-0.09375,-0.265625,0.234375
1696244976959,-0.7055664,-0.24664307,-0.6626587,-0.0625,-0.1875,0.109375
1696244976965,-0.70166016,-0.24932861,-0.659729,-0.015625,-0.421875,0.40625
1696244976974,-0.69677734,-0.24908447,-0.6704712,-0.09375,-0.34375,0.328125
1696244977039,-0.6965332,-0.24468994,-0.66119385,-0.15625,-0.25,0.375
1696244977055,-0.69921875,-0.24517822,-0.65997314,0.25,-0.375,0.28125
1696244977096,-0.7001953,-0.24029541,-0.65509033,0.828125,-0.265625,0.234375
1696244977160,-0.6977539,-0.24249268,-0.6524048,0.078125,-0.015625,-0.03125
1696244977174,-0.69970703,-0.2498169,-0.66192627,-0.296875,-0.5625,0.15625
1696244977236,-0.6945801,-0.24664307,-0.6404419,0.1875,0.359375,0.140625
1696244977255,-0.703125,-0.25054932,-0.66363525,0.6875,-0.53125,0.34375
1696244977297,-0.69384766,-0.2444458,-0.6638794,0.21875,-0.21875,0.09375
1696244977337,-0.70214844,-0.24273682,-0.65509033,0.3125,0.5625,0.015625
1696244977377,-0.6970215,-0.24639893,-0.65411377,0.4375,-0.203125,0.359375
1696244977437,-0.7084961,-0.24639893,-0.6675415,0.5625,-0.234375,0.296875
1696244977457,-0.7001953,-0.24102783,-0.6646118,-0.015625,-0.421875,0.3125
1696244977500,-0.7026367,-0.24298096,-0.6602173,0.125,0.203125,0.265625
1696244977536,-0.703125,-0.24371338,-0.6536255,0.21875,-0.28125,0.3125
1696244977597,-0.6948242,-0.24053955,-0.6577759,0.296875,-0.375,0.140625
1696244977637,-0.70874023,-0.24786377,-0.6565552,0.078125,-0.265625,0.03125
1696244977655,-0.7011719,-0.24078369,-0.65093994,0.234375,-0.21875,0.25
1696244977697,-0.7011719,-0.24224854,-0.65948486,0.28125,-0.203125,0.296875
1696244977737,-0.70703125,-0.24029541,-0.6604614,0.0625,-0.109375,0.265625
1696244977777,-0.70214844,-0.24053955,-0.65875244,0.171875,-0.25,0.375
1696244977817,-0.7043457,-0.2432251,-0.6560669,0.265625,-0.25,0.40625
1696244977857,-0.7036133,-0.2444458,-0.65826416,0.125,-0.640625,0.140625
1696244977896,-0.7084961,-0.2354126,-0.65631104,0.265625,-0.453125,-0.015625
1696244977939,-0.70581055,-0.24078369,-0.66070557,0.078125,-0.375,0.140625
1696244977996,-0.6989746,-0.23687744,-0.65509033,0.25,-0.296875,0.28125
1696244978016,-0.7077637,-0.24127197,-0.6560669,0.015625,-0.015625,0.1875
1696244978059,-0.70703125,-0.24053955,-0.66607666,-0.296875,-0.625,0.203125
1696244978117,-0.7077637,-0.23956299,-0.6482544,0.34375,0.8125,0.109375
1696244978135,-0.7036133,-0.23736572,-0.6555786,0.765625,-0.234375,0.203125
1696244978176,-0.70166016,-0.23931885,-0.6585083,0.25,0.25,0.078125
1696244978219,-0.7060547,-0.23638916,-0.6567993,0.21875,0.015625,0.21875
1696244978279,-0.70654297,-0.23687744,-0.6553345,0.171875,-0.03125,0.40625
1696244978283,-0.7092285,-0.2390747,-0.65338135,-0.0625,-0.1875,0.28125
1696244978316,-0.70214844,-0.2420044,-0.66070557,0.234375,-0.328125,0.40625
1696244978357,-0.7026367,-0.24273682,-0.65045166,0.21875,0.015625,0.3125
1696244978397,-0.7036133,-0.23809814,-0.6460571,0.28125,-0.28125,0.25
1696244978437,-0.7092285,-0.23712158,-0.65753174,0.078125,-0.65625,0.171875
1696244978480,-0.70874023,-0.23223877,-0.65948486,0.234375,-0.515625,0.15625
1696244978516,-0.71069336,-0.23516846,-0.6555786,0.1875,-0.25,0.171875
1696244978555,-0.71313477,-0.23248291,-0.65411377,0.0,-0.34375,0.25
1696244978596,-0.7080078,-0.23956299,-0.6567993,0.015625,-0.359375,0.3125
1696244978637,-0.7102051,-0.2390747,-0.65289307,0.046875,-0.15625,0.28125
1696244978678,-0.7104492,-0.237854,-0.6519165,0.515625,-0.125,0.328125
1696244978717,-0.7133789,-0.2300415,-0.65631104,0.171875,-0.046875,0.296875
1696244978758,-0.7038574,-0.23394775,-0.6548462,0.203125,-0.140625,0.40625
1696244978796,-0.70825195,-0.23834229,-0.647522,0.28125,-0.0625,0.1875
1696244978837,-0.7089844,-0.23565674,-0.65875244,-0.03125,-0.046875,-0.015625
1696244978877,-0.7150879,-0.23638916,-0.65826416,-0.015625,-0.21875,0.390625
1696244978918,-0.7092285,-0.23760986,-0.65460205,-0.296875,0.71875,0.296875
1696244978958,-0.7175293,-0.23956299,-0.6519165,0.40625,0.0625,0.15625
1696244978995,-0.7072754,-0.23028564,-0.6524048,0.234375,-0.234375,-0.03125
1696244979039,-0.7060547,-0.23248291,-0.6494751,-0.171875,-0.1875,0.125
1696244979076,-0.70874023,-0.23321533,-0.6477661,0.046875,-0.234375,0.28125
1696244979117,-0.7158203,-0.24029541,-0.6489868,-0.15625,-0.171875,0.25
1696244979156,-0.70703125,-0.2432251,-0.6567993,0.03125,-0.4375,0.421875
1696244979195,-0.7126465,-0.2288208,-0.6436157,-0.046875,-0.046875,0.265625
1696244979236,-0.70947266,-0.23468018,-0.64678955,0.03125,-0.328125,0.1875
1696244979276,-0.71240234,-0.2390747,-0.64385986,0.234375,-0.328125,0.203125
1696244979316,-0.7126465,-0.2341919,-0.6536255,0.3125,-0.34375,0.234375
1696244979360,-0.71435547,-0.23565674,-0.64923096,0.8125,0.40625,0.4375
1696244979395,-0.7207031,-0.23809814,-0.6487427,0.515625,0.34375,0.4375
1696244979436,-0.70996094,-0.2341919,-0.65093994,0.171875,0.34375,0.453125
1696244979478,-0.71606445,-0.23834229,-0.6460571,0.40625,0.140625,0.296875
1696244979516,-0.7067871,-0.23223877,-0.64971924,0.484375,0.109375,0.15625
1696244979560,-0.71606445,-0.23638916,-0.6526489,0.375,0.21875,0.296875
1696244979576,-0.7116699,-0.23150635,-0.644104,0.90625,0.234375,0.3125
1696244979642,-0.7199707,-0.23492432,-0.64727783,0.703125,0.15625,0.546875
1696244979654,-0.7116699,-0.23492432,-0.6560669,0.359375,-0.28125,0.390625
1696244979695,-0.71728516,-0.23175049,-0.65802,-0.234375,-0.46875,0.203125
1696244979740,-0.7121582,-0.23712158,-0.6531372,-0.4375,0.25,0.59375
1696244979784,-0.7138672,-0.23614502,-0.63775635,0.203125,-0.125,0.109375
1696244979816,-0.72436523,-0.2366333,-0.6411743,0.21875,-0.34375,0.28125
1696244979856,-0.7150879,-0.2276001,-0.64263916,0.109375,-0.25,0.21875
1696244979918,-0.7175293,-0.2300415,-0.6421509,0.125,-0.203125,0.15625
1696244979936,-0.71875,-0.23370361,-0.64141846,0.09375,-0.390625,0.28125
1696244979976,-0.71533203,-0.22467041,-0.63897705,0.375,-0.328125,0.203125
1696244980036,-0.72216797,-0.23223877,-0.6448364,-0.09375,-0.296875,0.34375
1696244980055,-0.7133789,-0.23052979,-0.6428833,0.109375,-0.328125,0.375
1696244980096,-0.71362305,-0.2341919,-0.6470337,0.515625,0.03125,0.296875
1696244980159,-0.71728516,-0.23492432,-0.645813,0.765625,0.234375,0.453125
1696244980174,-0.72314453,-0.2341919,-0.6465454,0.53125,0.34375,0.296875
1696244980217,-0.72143555,-0.23248291,-0.6416626,0.15625,0.21875,0.390625
1696244980257,-0.71875,-0.2234497,-0.6448364,-0.125,-0.1875,0.328125
1696244980296,-0.72631836,-0.22930908,-0.6445923,-0.265625,-0.28125,0.328125
1696244980337,-0.7270508,-0.23370361,-0.63531494,-0.125,-0.421875,0.1875
1696244980400,-0.7236328,-0.23052979,-0.6411743,-0.3125,-0.734375,0.296875
1696244980416,-0.7155762,-0.23052979,-0.6397095,-0.03125,-0.53125,0.3125
1696244980479,-0.7260742,-0.22930908,-0.6487427,0.6875,-0.4375,0.359375
1696244980496,-0.720459,-0.23028564,-0.647522,0.90625,-0.140625,0.328125
1696244980539,-0.7290039,-0.2341919,-0.6604614,0.203125,-0.09375,0.421875
1696244980577,-0.7199707,-0.22930908,-0.64727783,0.484375,0.28125,0.4375
1696244980624,-0.7121582,-0.23394775,-0.63238525,0.9375,0.203125,0.21875
1696244980657,-0.7199707,-0.22613525,-0.63653564,0.4375,-0.328125,0.171875
1696244980697,-0.72143555,-0.22491455,-0.63653564,0.09375,-0.1875,0.15625
1696244980735,-0.7297363,-0.22955322,-0.64508057,0.265625,-0.203125,0.515625
1696244980776,-0.7180176,-0.22857666,-0.64190674,0.25,-0.09375,0.25
1696244980815,-0.7290039,-0.22467041,-0.64727783,0.09375,-0.234375,0.453125
1696244980857,-0.7260742,-0.23052979,-0.6411743,-0.25,-0.09375,0.328125
1696244980909,-0.7241211,-0.2288208,-0.6355591,-0.15625,-1.046875,-0.125
1696244980917,-0.7233887,-0.22491455,-0.6477661,-0.671875,-2.9375,-0.15625
1696244980956,-0.7150879,-0.23028564,-0.6397095,-3.03125,-3.859375,-0.046875
1696244981017,-0.7182617,-0.23492432,-0.6375122,-2.796875,-4.265625,-0.09375
1696244981036,-0.7092285,-0.23468018,-0.65411377,-1.53125,-4.59375,-0.28125
1696244981076,-0.7128906,-0.2432251,-0.6589966,-3.28125,-5.703125,-0.4375
1696244981116,-0.71118164,-0.23638916,-0.6506958,-2.8125,-4.9375,-0.34375
1696244981184,-0.70996094,-0.23272705,-0.64923096,-2.46875,-4.46875,-0.375
1696244981219,-0.6899414,-0.24346924,-0.6609497,-0.53125,-3.765625,0.078125
1696244981237,-0.69921875,-0.2456665,-0.68414307,-0.328125,-1.84375,0.15625
1696244981299,-0.69677734,-0.2498169,-0.6819458,-0.4375,-0.75,0.109375
1696244981337,-0.68969727,-0.24273682,-0.65802,0.328125,-0.296875,0.0625
1696244981355,-0.6904297,-0.24371338,-0.6675415,-0.0625,0.078125,0.046875
1696244981417,-0.6972656,-0.23516846,-0.64385986,0.296875,0.40625,0.09375
1696244981457,-0.6948242,-0.23883057,-0.6616821,0.15625,0.046875,0.078125
1696244981498,-0.70092773,-0.2341919,-0.6670532,-0.3125,0.109375,0.140625
1696244981515,-0.69628906,-0.23516846,-0.6687622,-0.25,-0.15625,0.328125
1696244981559,-0.6982422,-0.24395752,-0.66485596,-0.15625,-0.234375,0.265625
1696244981597,-0.7006836,-0.23760986,-0.65216064,0.0625,-0.03125,0.25
1696244981661,-0.6887207,-0.24078369,-0.6638794,-0.03125,-0.078125,0.203125
1696244981697,-0.6984863,-0.24176025,-0.6572876,0.296875,0.203125,0.03125
1696244981715,-0.69750977,-0.24615479,-0.6567993,0.125,-0.421875,0.171875
1696244981779,-0.6958008,-0.23175049,-0.6626587,-0.15625,-0.265625,0.25
1696244981798,-0.7001953,-0.24517822,-0.65997314,-0.046875,-0.140625,0.203125
1696244981837,-0.6970215,-0.24591064,-0.6638794,0.015625,-0.21875,0.109375
1696244981880,-0.6989746,-0.24517822,-0.6604614,0.015625,-0.1875,0.359375
1696244981917,-0.69970703,-0.24810791,-0.66192627,0.0,-0.421875,0.203125
1696244981957,-0.69873047,-0.23443604,-0.6687622,-0.15625,-0.359375,0.21875
1696244981997,-0.6921387,-0.24273682,-0.6560669,0.3125,-0.453125,0.359375
1696244982036,-0.7006836,-0.24420166,-0.6655884,-0.25,0.0,0.3125
1696244982076,-0.6984863,-0.23834229,-0.65826416,-0.03125,-0.359375,0.28125
1696244982138,-0.6965332,-0.23687744,-0.65753174,0.375,0.53125,0.296875
1696244982155,-0.6970215,-0.2420044,-0.6553345,0.59375,0.078125,0.265625
1696244982219,-0.7019043,-0.23590088,-0.66485596,-0.046875,-0.0625,0.234375
1696244982222,-0.7089844,-0.23736572,-0.6531372,0.1875,0.0,0.3125
1696244982257,-0.70043945,-0.24005127,-0.65997314,0.078125,-0.125,0.359375
1696244982338,-0.7023926,-0.24273682,-0.6592407,0.09375,-0.0625,0.203125
1696244982342,-0.70947266,-0.23858643,-0.6675415,-0.171875,-0.640625,0.46875
1696244982377,-0.6994629,-0.24005127,-0.65509033,0.03125,-0.125,0.28125
1696244982417,-0.70532227,-0.24053955,-0.6536255,0.1875,-0.4375,0.25
1696244982456,-0.703125,-0.24395752,-0.6646118,-0.09375,-0.28125,0.28125
1696244982496,-0.7050781,-0.2444458,-0.6577759,-0.015625,-0.4375,0.1875
1696244982537,-0.7050781,-0.23712158,-0.65704346,0.109375,-0.4375,0.234375
1696244982579,-0.7026367,-0.23809814,-0.6609497,-0.078125,-0.15625,0.171875
1696244982617,-0.70825195,-0.23712158,-0.6577759,-0.046875,-0.109375,0.21875
1696244982658,-0.703125,-0.23468018,-0.6548462,0.078125,-0.390625,0.375
1696244982697,-0.7038574,-0.2390747,-0.6604614,0.015625,-0.59375,0.328125
1696244982737,-0.6994629,-0.23321533,-0.6565552,0.21875,-0.1875,0.296875
1696244982775,-0.7084961,-0.24615479,-0.6682739,-0.359375,0.09375,0.203125
1696244982814,-0.70288086,-0.2354126,-0.6465454,0.234375,0.3125,0.28125
1696244982855,-0.7023926,-0.24615479,-0.66363525,0.15625,-0.328125,0.328125
1696244982894,-0.7055664,-0.2354126,-0.6526489,-0.296875,-0.046875,0.234375
1696244982935,-0.70825195,-0.2390747,-0.6604614,0.046875,-0.328125,0.25
1696244982979,-0.70581055,-0.23443604,-0.6526489,-0.015625,-0.1875,0.125
1696244983017,-0.70288086,-0.23370361,-0.6514282,0.109375,-0.359375,0.3125
1696244983055,-0.70336914,-0.23687744,-0.6560669,-0.046875,-0.234375,0.484375
1696244983097,-0.7019043,-0.23809814,-0.6511841,0.0625,-0.109375,0.234375
1696244983137,-0.7080078,-0.24493408,-0.659729,0.109375,-0.53125,0.21875
1696244983178,-0.70581055,-0.2444458,-0.66070557,-0.125,-0.578125,0.296875
1696244983217,-0.70996094,-0.2341919,-0.6585083,-0.171875,-0.328125,0.125
1696244983257,-0.7116699,-0.24224854,-0.6526489,0.0625,-0.390625,0.234375
1696244983300,-0.71899414,-0.24127197,-0.6655884,-0.265625,-0.3125,0.09375
1696244983336,-0.7084961,-0.23687744,-0.65631104,-0.125,-0.25,0.265625
1696244983379,-0.70458984,-0.24127197,-0.65460205,-0.140625,-0.015625,0.078125
1696244983416,-0.70532227,-0.23931885,-0.6489868,-0.15625,-0.015625,0.03125
1696244983456,-0.6984863,-0.24102783,-0.6555786,-0.421875,-0.375,0.296875
1696244983519,-0.69921875,-0.23980713,-0.64849854,-0.65625,0.375,0.03125
1696244983535,-0.7114258,-0.24639893,-0.6502075,-0.28125,-0.484375,0.171875
1696244983556,-0.7102051,-0.23516846,-0.6543579,-0.359375,-0.90625,0.171875
1696244983597,-0.70947266,-0.23590088,-0.65460205,0.171875,-1.109375,0.03125
1696244983638,-0.70996094,-0.23883057,-0.65338135,0.0,-1.421875,0.296875
1696244983678,-0.71240234,-0.23638916,-0.661438,-0.265625,-1.65625,0.171875
1696244983716,-0.7001953,-0.24884033,-0.6651001,-0.515625,-2.46875,0.171875
1696244983758,-0.69628906,-0.23931885,-0.6489868,-0.375,-2.0625,0.28125
1696244983797,-0.6958008,-0.23809814,-0.65802,-0.171875,-2.359375,-0.09375
1696244983838,-0.69506836,-0.23565674,-0.65460205,-0.484375,-2.046875,-0.09375
1696244983877,-0.6960449,-0.24395752,-0.6638794,0.25,-1.96875,-0.21875
1696244983917,-0.7072754,-0.24786377,-0.6704712,-0.3125,-1.859375,-0.25
1696244983956,-0.7089844,-0.24493408,-0.67071533,-0.4375,-1.796875,-0.140625
1696244983997,-0.69921875,-0.24371338,-0.6687622,-0.375,-1.84375,-0.046875
1696244984036,-0.69018555,-0.23883057,-0.6724243,-0.421875,-1.328125,0.28125
1696244984077,-0.6921387,-0.24176025,-0.66851807,-0.125,-0.703125,0.25
1696244984118,-0.69140625,-0.24761963,-0.6716919,0.359375,-0.78125,0.171875
1696244984157,-0.68237305,-0.23516846,-0.65631104,0.53125,-0.03125,0.03125
1696244984198,-0.7019043,-0.2420044,-0.67681885,-0.453125,-0.03125,0.3125
1696244984237,-0.6904297,-0.24615479,-0.65338135,0.03125,0.140625,0.171875
1696244984275,-0.7036133,-0.24346924,-0.6646118,0.078125,-0.359375,0.25
1696244984318,-0.6933594,-0.2366333,-0.66851807,-0.0625,-0.140625,0.296875
1696244984355,-0.69677734,-0.24078369,-0.66729736,-0.015625,-0.109375,0.46875
1696244984396,-0.6936035,-0.2420044,-0.66363525,-0.109375,0.0625,0.421875
1696244984456,-0.69018555,-0.24273682,-0.6658325,0.421875,-0.171875,0.203125
1696244984477,-0.68725586,-0.24639893,-0.6682739,-0.15625,-0.109375,0.0625
1696244984518,-0.69799805,-0.23443604,-0.65582275,-0.09375,-0.171875,0.296875
1696244984558,-0.7019043,-0.24371338,-0.6704712,0.0625,-0.265625,0.203125
1696244984596,-0.6945801,-0.2341919,-0.6651001,0.140625,-0.21875,0.125
1696244984638,-0.69799805,-0.2354126,-0.67071533,-0.09375,-0.375,0.09375
1696244984699,-0.69506836,-0.2456665,-0.6651001,0.09375,0.15625,0.15625
1696244984716,-0.7006836,-0.23712158,-0.6643677,-0.03125,-0.203125,0.234375
1696244984757,-0.69750977,-0.23883057,-0.6663208,0.125,-0.546875,0.328125
1696244984798,-0.6945801,-0.23345947,-0.6609497,-0.1875,-0.265625,0.328125
1696244984837,-0.6982422,-0.24053955,-0.66070557,0.015625,-0.125,0.328125
1696244984854,-0.6948242,-0.24542236,-0.67071533,-0.0625,-0.53125,0.203125
1696244984896,-0.6970215,-0.23931885,-0.67266846,-0.125,-0.5,0.09375
1696244984937,-0.69628906,-0.2420044,-0.6694946,-0.59375,0.390625,0.15625
1696244984981,-0.69799805,-0.23712158,-0.65631104,0.0,-0.09375,0.140625
1696244985018,-0.6977539,-0.23809814,-0.66973877,0.0625,-0.34375,0.1875
1696244985056,-0.6977539,-0.2390747,-0.65802,0.046875,-0.15625,0.109375
1696244985096,-0.70458984,-0.23687744,-0.6670532,0.015625,-0.375,0.25
1696244985136,-0.69433594,-0.23370361,-0.6643677,-0.03125,-0.015625,0.234375
1696244985177,-0.701416,-0.23931885,-0.6482544,0.328125,-0.0625,0.40625
1696244985216,-0.70214844,-0.23590088,-0.65948486,-0.125,-0.09375,0.3125
1696244985276,-0.7026367,-0.2456665,-0.6572876,-0.015625,-0.203125,0.453125
1696244985296,-0.69970703,-0.2390747,-0.66070557,0.15625,-0.40625,0.03125
1696244985337,-0.7019043,-0.24127197,-0.6663208,-0.0625,-0.265625,0.125
1696244985398,-0.70410156,-0.2420044,-0.65948486,0.109375,-0.34375,0.125
1696244985416,-0.70288086,-0.24176025,-0.65753174,0.140625,-0.25,0.109375
1696244985454,-0.70410156,-0.24468994,-0.6616821,0.28125,-0.171875,0.328125
1696244985519,-0.70092773,-0.23687744,-0.6604614,0.078125,-0.296875,0.234375
1696244985556,-0.69384766,-0.2432251,-0.6565552,0.15625,0.03125,0.328125
1696244985577,-0.6994629,-0.24249268,-0.66241455,0.0,-0.015625,0.078125
1696244985638,-0.7089844,-0.23492432,-0.6565552,0.078125,-0.203125,0.234375
1696244985655,-0.70532227,-0.23492432,-0.66241455,-0.1875,-0.421875,0.1875
1696244985720,-0.69873047,-0.2366333,-0.65216064,0.328125,-0.09375,0.21875
1696244985757,-0.704834,-0.24517822,-0.66607666,-0.125,0.234375,0.421875
1696244985775,-0.7072754,-0.23614502,-0.65411377,0.34375,0.25,0.234375
1696244985818,-0.70336914,-0.2390747,-0.6621704,0.484375,-0.25,0.078125
1696244985857,-0.7097168,-0.23736572,-0.663147,-0.125,-0.015625,0.171875
1696244985897,-0.70288086,-0.24053955,-0.6565552,0.140625,-0.28125,0.359375
1696244985938,-0.7067871,-0.23468018,-0.6555786,-0.09375,0.15625,0.203125
1696244985979,-0.6972656,-0.23345947,-0.6460571,0.1875,-0.3125,0.3125
1696244986036,-0.7080078,-0.24102783,-0.6514282,-0.03125,-0.328125,0.359375
1696244986056,-0.70581055,-0.23834229,-0.65338135,0.171875,-0.09375,0.328125
1696244986097,-0.7089844,-0.23931885,-0.6572876,0.1875,-0.4375,0.328125
1696244986159,-0.71655273,-0.23638916,-0.65948486,0.109375,-0.421875,0.3125
1696244986176,-0.7089844,-0.23175049,-0.6519165,-0.125,-0.4375,0.15625
1696244986196,-0.7023926,-0.23614502,-0.6585083,-0.15625,-0.46875,0.0
1696244986237,-0.70703125,-0.24151611,-0.6519165,-0.03125,-0.328125,0.203125
1696244986277,-0.7023926,-0.23394775,-0.65509033,0.0,-0.171875,0.359375
1696244986316,-0.7114258,-0.24664307,-0.6553345,0.0625,-0.34375,0.28125
1696244986357,-0.7023926,-0.23443604,-0.65826416,0.0,-0.171875,0.421875
1696244986401,-0.7011719,-0.24053955,-0.6567993,0.15625,-0.28125,0.28125
1696244986436,-0.7023926,-0.24224854,-0.65509033,0.0,-0.03125,0.203125
1696244986478,-0.7043457,-0.23834229,-0.6506958,0.171875,-0.359375,0.234375
1696244986517,-0.7145996,-0.23516846,-0.663147,-0.1875,-0.53125,0.3125
1696244986556,-0.7026367,-0.23345947,-0.6433716,0.34375,-0.046875,0.28125
1696244986597,-0.7175293,-0.24249268,-0.65997314,-0.5,-0.03125,0.359375
1696244986638,-0.71191406,-0.23638916,-0.64556885,-0.0625,-0.140625,0.21875
1696244986677,-0.7023926,-0.24298096,-0.6543579,0.171875,-0.171875,0.1875
1696244986718,-0.70947266,-0.23736572,-0.6553345,-0.1875,-0.21875,0.140625
1696244986756,-0.7023926,-0.24127197,-0.6482544,0.25,-0.1875,0.265625
1696244986798,-0.7128906,-0.23516846,-0.6565552,0.09375,-0.078125,0.359375
1696244986837,-0.7104492,-0.2341919,-0.6428833,0.78125,0.375,0.53125
1696244986878,-0.7060547,-0.23370361,-0.6604614,1.015625,0.90625,0.640625
1696244986918,-0.70751953,-0.23834229,-0.64190674,0.8125,0.90625,0.453125
1696244986957,-0.71728516,-0.2390747,-0.65826416,0.734375,0.296875,0.5
1696244986998,-0.7097168,-0.23809814,-0.64849854,0.671875,0.234375,0.234375
1696244987036,-0.7102051,-0.23272705,-0.64727783,0.65625,-0.015625,0.390625
1696244987079,-0.7167969,-0.23248291,-0.64630127,0.5625,0.296875,0.234375
1696244987116,-0.7128906,-0.23370361,-0.65411377,0.4375,0.25,0.4375
1696244987157,-0.7211914,-0.23712158,-0.65289307,0.25,0.171875,0.453125
1696244987197,-0.7145996,-0.23834229,-0.64727783,0.4375,0.046875,0.59375
1696244987238,-0.71118164,-0.23248291,-0.64556885,0.40625,0.1875,0.328125
1696244987277,-0.7089844,-0.23492432,-0.6470337,0.0,0.03125,0.28125
1696244987318,-0.71362305,-0.23052979,-0.642395,0.390625,-0.296875,0.328125
1696244987357,-0.72509766,-0.23077393,-0.6397095,0.09375,-0.21875,0.359375
1696244987400,-0.7145996,-0.23394775,-0.6536255,0.203125,-0.65625,0.375
1696244987439,-0.7114258,-0.23590088,-0.63775635,0.109375,-0.453125,0.125
1696244987478,-0.717041,-0.23248291,-0.66070557,-0.625,-0.453125,0.328125
1696244987495,-0.7114258,-0.2354126,-0.6399536,-0.40625,-0.25,0.28125
1696244987538,-0.7182617,-0.23687744,-0.64849854,-0.109375,-0.703125,0.078125
1696244987576,-0.71191406,-0.23077393,-0.6382446,-0.125,-0.546875,-0.015625
1696244987616,-0.7133789,-0.23614502,-0.64312744,-0.015625,-0.453125,0.015625
1696244987658,-0.7155762,-0.2300415,-0.6494751,-0.1875,-0.390625,0.296875
1696244987699,-0.7192383,-0.23590088,-0.6392212,-0.140625,-0.390625,0.328125
1696244987757,-0.71875,-0.23370361,-0.64630127,-0.203125,-0.625,0.40625
1696244987777,-0.7163086,-0.23687744,-0.64312744,0.21875,-0.296875,0.375
1696244987837,-0.7158203,-0.23736572,-0.645813,0.109375,-0.609375,0.390625
1696244987875,-0.7150879,-0.22711182,-0.6448364,0.25,-0.3125,0.25
1696244987917,-0.71728516,-0.23345947,-0.64630127,0.09375,-0.3125,0.15625
1696244987938,-0.72387695,-0.23760986,-0.64923096,0.0,-0.171875,0.34375
1696244987977,-0.71606445,-0.23101807,-0.63897705,0.03125,0.046875,0.34375
1696244988016,-0.717041,-0.237854,-0.65093994,0.03125,0.0625,0.265625
1696244988077,-0.71069336,-0.22857666,-0.64068604,0.3125,0.03125,0.25
1696244988118,-0.71899414,-0.23858643,-0.6460571,0.28125,-0.046875,0.328125
1696244988136,-0.71484375,-0.23175049,-0.64263916,0.046875,0.015625,0.265625
1696244988176,-0.71899414,-0.23297119,-0.64508057,-0.03125,-0.078125,0.328125
1696244988217,-0.7192383,-0.2390747,-0.63775635,0.1875,-0.375,0.21875
1696244988260,-0.7155762,-0.2300415,-0.6304321,0.203125,-0.421875,0.203125
1696244988295,-0.7277832,-0.2366333,-0.6494751,0.15625,-0.8125,0.5
1696244988338,-0.7219238,-0.23736572,-0.6355591,0.03125,0.328125,0.34375
1696244988377,-0.71777344,-0.23712158,-0.64849854,0.453125,0.0,0.375
1696244988416,-0.7207031,-0.23394775,-0.64434814,0.140625,0.125,0.21875
1696244988457,-0.7211914,-0.23028564,-0.6409302,0.359375,-0.375,0.390625
1696244988496,-0.7229004,-0.2312622,-0.64019775,0.40625,-0.015625,0.359375
1696244988538,-0.72509766,-0.22784424,-0.6436157,-0.015625,-0.09375,0.375
1696244988577,-0.7229004,-0.22955322,-0.64849854,-0.171875,-0.125,0.3125
1696244988617,-0.7163086,-0.23150635,-0.63482666,-0.109375,-0.109375,0.40625
1696244988659,-0.72094727,-0.23858643,-0.64508057,-0.046875,-0.53125,0.15625
1696244988695,-0.72021484,-0.23614502,-0.6487427,-0.015625,-0.46875,0.203125
1696244988736,-0.7241211,-0.23345947,-0.64727783,0.1875,-0.21875,0.078125
1696244988798,-0.7241211,-0.22491455,-0.6411743,0.15625,-0.328125,0.328125
1696244988802,-0.7297363,-0.23321533,-0.6448364,-0.234375,-0.375,0.25
1696244988838,-0.7236328,-0.23687744,-0.64019775,-0.03125,-0.5,0.34375
1696244988920,-0.71875,-0.23516846,-0.63848877,0.0,-0.671875,0.328125
1696244988923,-0.7167969,-0.23565674,-0.6436157,-0.0625,-0.84375,0.109375
1696244988956,-0.7192383,-0.23052979,-0.6392212,-0.125,-1.25,0.0625
1696244988995,-0.71118164,-0.23248291,-0.6433716,-0.4375,-1.828125,0.109375
1696244989040,-0.72094727,-0.2312622,-0.6453247,-0.734375,-1.703125,-0.078125
1696244989079,-0.7163086,-0.23809814,-0.65802,-1.359375,-2.484375,0.046875
1696244989117,-0.7121582,-0.2390747,-0.64727783,-0.0625,-1.46875,0.265625
1696244989161,-0.7077637,-0.23687744,-0.6524048,0.21875,-2.6875,0.015625
1696244989196,-0.7150879,-0.23492432,-0.6487427,-0.6875,-2.28125,-0.078125
1696244989239,-0.7092285,-0.23712158,-0.644104,-0.53125,-2.515625,-0.15625
1696244989277,-0.70532227,-0.23590088,-0.6577759,-0.171875,-2.671875,-0.078125
1696244989317,-0.7138672,-0.23394775,-0.6609497,-0.984375,-2.6875,-0.09375
1696244989358,-0.6999512,-0.23565674,-0.66412354,-0.78125,-2.375,0.25
1696244989395,-0.69921875,-0.23565674,-0.6543579,-0.4375,-1.953125,-0.125
1696244989437,-0.6994629,-0.23345947,-0.659729,0.03125,-2.234375,0.046875
1696244989479,-0.6982422,-0.24151611,-0.6670532,-0.796875,-2.625,-0.15625
1696244989518,-0.6982422,-0.23736572,-0.6643677,-0.75,-2.75,-0.140625
1696244989557,-0.69628906,-0.23272705,-0.66607666,-0.953125,-2.640625,-0.0625
1696244989596,-0.6936035,-0.23931885,-0.6712036,-0.703125,-2.375,0.203125
1696244989638,-0.6916504,-0.23980713,-0.67071533,-0.875,-2.09375,0.15625
1696244989678,-0.68408203,-0.23809814,-0.67071533,-0.59375,-1.578125,0.125
1696244989717,-0.6960449,-0.2444458,-0.6692505,-0.15625,-1.078125,0.234375
1696244989757,-0.69091797,-0.24127197,-0.6838989,-0.296875,-0.96875,0.140625
1696244989798,-0.6816406,-0.23760986,-0.66656494,-0.125,-0.375,0.265625
1696244989836,-0.6870117,-0.23809814,-0.6704712,-0.5625,-0.484375,0.078125
1696244989881,-0.68896484,-0.24249268,-0.66241455,-0.59375,-0.953125,-0.0625
1696244989917,-0.6970215,-0.24371338,-0.67388916,-0.546875,-1.5625,0.09375
1696244989957,-0.6904297,-0.24371338,-0.6716919,-0.9375,-1.25,-0.0625
1696244989997,-0.6870117,-0.23834229,-0.67755127,-0.546875,-1.421875,0.078125
1696244990037,-0.68774414,-0.24029541,-0.67803955,-0.921875,-1.65625,0.109375
1696244990077,-0.67944336,-0.23809814,-0.6553345,-0.234375,-1.546875,0.0
1696244990096,-0.6779785,-0.2390747,-0.6724243,-0.203125,-1.890625,-0.140625
1696244990137,-0.6833496,-0.24127197,-0.67193604,-0.546875,-1.578125,0.140625
1696244990177,-0.68408203,-0.24395752,-0.6734009,-0.375,-1.984375,0.171875
1696244990239,-0.67822266,-0.24420166,-0.6838989,-0.46875,-1.234375,0.078125
1696244990257,-0.6838379,-0.24346924,-0.6760864,-0.0625,-0.96875,0.25
1696244990317,-0.6804199,-0.2456665,-0.68536377,-0.09375,-0.46875,0.15625
1696244990336,-0.68066406,-0.2498169,-0.677063,0.015625,-0.4375,0.1875
1696244990377,-0.67822266,-0.24005127,-0.6790161,0.0,-0.5,0.265625
1696244990416,-0.6804199,-0.24102783,-0.6748657,0.265625,-0.328125,0.265625
1696244990456,-0.6755371,-0.2432251,-0.6699829,-0.21875,0.078125,0.171875
1696244990496,-0.68188477,-0.24542236,-0.6807251,-0.28125,-0.3125,0.34375
1696244990537,-0.6772461,-0.24078369,-0.6712036,-0.4375,0.25,0.234375
1696244990576,-0.68310547,-0.24884033,-0.6831665,0.015625,-0.609375,0.265625
1696244990617,-0.67626953,-0.2432251,-0.67315674,-0.46875,-0.015625,0.109375
1696244990656,-0.6843262,-0.2420044,-0.67144775,-0.109375,-0.40625,0.21875
1696244990699,-0.68310547,-0.2468872,-0.6773071,-0.15625,-0.421875,0.265625
1696244990738,-0.6862793,-0.24395752,-0.67974854,-0.078125,-0.59375,0.203125
1696244990776,-0.68188477,-0.25079346,-0.677063,-0.25,-0.921875,0.390625
1696244990837,-0.6750488,-0.24395752,-0.6748657,-0.34375,-0.375,0.078125
1696244990856,-0.6826172,-0.24639893,-0.6734009,-0.03125,-0.640625,0.296875
1696244990897,-0.68310547,-0.24371338,-0.6773071,-0.09375,-0.609375,0.234375
1696244990937,-0.6784668,-0.24542236,-0.6746216,-0.0625,-0.34375,0.078125
1696244990997,-0.68115234,-0.24493408,-0.68292236,-0.265625,-0.21875,0.453125
1696244991040,-0.67749023,-0.24371338,-0.6729126,-0.171875,-0.125,0.203125
1696244991057,-0.67822266,-0.25128174,-0.6721802,-0.125,-0.171875,0.171875
1696244991118,-0.68115234,-0.23931885,-0.6799927,-0.03125,0.15625,0.21875
1696244991137,-0.6838379,-0.24761963,-0.6782837,0.078125,0.21875,0.140625
1696244991177,-0.6804199,-0.2432251,-0.6577759,0.671875,0.171875,0.109375
1696244991239,-0.6828613,-0.24298096,-0.6868286,-0.359375,0.140625,0.1875
1696244991256,-0.68115234,-0.24176025,-0.6609497,0.015625,0.984375,0.28125
1696244991300,-0.68725586,-0.24786377,-0.67266846,0.09375,-0.234375,0.203125
1696244991358,-0.6828613,-0.24395752,-0.6694946,-0.0625,0.03125,0.140625
1696244991376,-0.68969727,-0.24810791,-0.6748657,-0.046875,0.09375,0.109375
1696244991417,-0.6945801,-0.24346924,-0.67071533,0.203125,0.015625,0.328125
1696244991436,-0.6845703,-0.24249268,-0.67633057,0.015625,0.09375,0.359375
1696244991476,-0.68652344,-0.24591064,-0.6721802,-0.125,-0.359375,0.265625
1696244991518,-0.68896484,-0.23687744,-0.6663208,-0.125,0.0625,0.125
1696244991557,-0.6833496,-0.25250244,-0.6746216,-0.03125,-0.328125,0.046875
1696244991596,-0.6870117,-0.24542236,-0.6658325,-0.0625,-0.484375,0.03125
1696244991639,-0.6870117,-0.24542236,-0.6699829,-0.046875,0.0,0.328125
1696244991676,-0.6906738,-0.24835205,-0.6724243,-0.140625,-0.3125,0.1875
1696244991718,-0.69140625,-0.24224854,-0.66973877,-0.171875,-0.28125,0.359375
1696244991759,-0.6887207,-0.24273682,-0.6680298,0.21875,-0.453125,0.234375
1696244991798,-0.6875,-0.24273682,-0.66851807,0.0,-0.25,0.0625
1696244991837,-0.68896484,-0.24249268,-0.66778564,-0.203125,-0.359375,0.265625
1696244991878,-0.6838379,-0.24273682,-0.6734009,0.125,-0.390625,0.09375
1696244991919,-0.6838379,-0.24761963,-0.67510986,-0.078125,-0.515625,0.140625
1696244991957,-0.69262695,-0.24932861,-0.6790161,-0.53125,0.171875,0.265625
1696244991998,-0.6899414,-0.24957275,-0.6616821,-0.046875,0.046875,0.046875
1696244992036,-0.6921387,-0.24395752,-0.6699829,-0.03125,-0.1875,0.140625
1696244992078,-0.6882324,-0.237854,-0.6668091,-0.015625,-0.15625,0.09375
1696244992117,-0.6953125,-0.24346924,-0.67315674,-0.0625,-0.078125,0.28125
1696244992156,-0.68530273,-0.24102783,-0.6675415,-0.015625,0.0625,0.125
1696244992199,-0.6894531,-0.24395752,-0.65460205,0.203125,0.09375,0.171875
1696244992237,-0.6916504,-0.24517822,-0.6592407,0.03125,-0.25,0.21875
1696244992277,-0.69311523,-0.24493408,-0.6609497,-0.09375,-0.296875,0.109375
1696244992316,-0.701416,-0.24932861,-0.66607666,0.015625,-0.59375,0.015625
1696244992357,-0.6906738,-0.24737549,-0.66290283,-0.15625,-0.484375,0.3125
1696244992398,-0.6928711,-0.25250244,-0.66778564,-0.203125,-0.171875,0.265625
1696244992436,-0.69140625,-0.24078369,-0.6609497,-0.109375,-0.515625,0.203125
1696244992476,-0.69311523,-0.24737549,-0.661438,-0.1875,-0.984375,0.25
1696244992519,-0.6958008,-0.24102783,-0.6638794,-0.234375,-1.5,0.140625
1696244992557,-0.6887207,-0.24346924,-0.66192627,-0.578125,-1.59375,0.234375
1696244992600,-0.68774414,-0.24224854,-0.6729126,-0.796875,-1.546875,0.203125
1696244992639,-0.69140625,-0.24468994,-0.67193604,-0.609375,-1.328125,0.140625
1696244992682,-0.6850586,-0.24395752,-0.67144775,-0.140625,-1.5625,0.3125
1696244992716,-0.6843262,-0.2468872,-0.6734009,-0.828125,-1.09375,0.203125
1696244992736,-0.6879883,-0.2432251,-0.6819458,-0.640625,-0.625,0.34375
1696244992777,-0.6875,-0.24932861,-0.6651001,-0.3125,0.171875,0.078125
1696244992817,-0.67944336,-0.24810791,-0.66900635,0.578125,-0.65625,0.15625
1696244992857,-0.685791,-0.24395752,-0.6782837,0.3125,0.109375,0.0
1696244992919,-0.6906738,-0.25372314,-0.67071533,0.265625,0.15625,0.25
1696244992935,-0.6904297,-0.24639893,-0.6709595,0.28125,0.109375,0.15625
1696244992999,-0.6921387,-0.24395752,-0.66607666,0.0,0.171875,0.15625
1696244993038,-0.69018555,-0.23956299,-0.6692505,-0.046875,-0.359375,0.390625
1696244993055,-0.69140625,-0.24639893,-0.66778564,-0.109375,0.28125,0.28125
1696244993098,-0.69091797,-0.24127197,-0.65802,0.078125,-0.3125,0.34375
1696244993138,-0.6916504,-0.24176025,-0.66900635,0.234375,-0.296875,0.296875
1696244993178,-0.69262695,-0.24493408,-0.6616821,0.03125,0.234375,0.171875
1696244993217,-0.68896484,-0.24127197,-0.6682739,0.109375,-0.4375,0.3125
1696244993266,-0.6882324,-0.24737549,-0.6670532,-0.078125,0.125,0.15625
1696244993296,-0.68847656,-0.24591064,-0.6638794,-0.046875,0.03125,0.078125
1696244993359,-0.69506836,-0.24908447,-0.6704712,0.125,-0.359375,0.25
1696244993395,-0.6845703,-0.24395752,-0.6675415,0.109375,0.046875,0.046875
