# Sensor type: Respeck
# Activity type: Sitting
# Activity subtype: Singing
# Subject id: s2104454
# Notes: unprocessed
timestamp,accel_x,accel_y,accel_z,gyro_x,gyro_y,gyro_z
1696244774107,0.052001953,-0.98272705,-0.003967285,0.796875,0.609375,0.46875
1696244774148,0.049072266,-0.9859009,0.0045776367,2.203125,-0.578125,0.921875
1696244774189,0.045654297,-0.98638916,-0.016662598,-0.84375,0.921875,0.5
1696244774228,0.034179688,-0.9937134,0.024841309,0.984375,0.140625,0.640625
1696244774269,0.03930664,-0.98809814,-0.0051879883,0.859375,-0.09375,0.390625
1696244774309,0.039794922,-0.9824829,0.0079956055,0.21875,0.421875,0.28125
1696244774349,0.044433594,-0.98101807,-0.0012817383,-0.25,0.25,0.125
1696244774391,0.03955078,-0.9819946,0.010437012,0.46875,-0.3125,-0.015625
1696244774408,0.044921875,-0.9951782,0.001159668,-0.234375,-0.09375,0.3125
1696244774470,0.04711914,-0.9817505,-0.003967285,-0.28125,0.375,-0.09375
1696244774489,0.041748047,-0.986145,0.008483887,0.234375,-0.109375,0.578125
1696244774529,0.041015625,-0.9883423,0.011169434,0.515625,-0.71875,0.484375
1696244774569,0.05029297,-0.9873657,-0.0020141602,2.734375,-0.234375,0.484375
1696244774609,0.041015625,-0.98883057,-0.0068969727,1.140625,-0.203125,0.8125
1696244774650,0.033203125,-0.98321533,-0.01373291,1.265625,-0.734375,0.75
1696244774710,0.053710938,-0.9866333,-0.020324707,0.171875,-0.671875,0.609375
1696244774728,0.049316406,-0.98443604,-0.0032348633,0.75,-0.609375,0.4375
1696244774769,0.044677734,-0.98443604,-0.0115356445,0.390625,-0.5625,0.640625
1696244774810,0.045410156,-0.9846802,-0.0076293945,0.3125,-0.90625,0.296875
1696244774851,0.038085938,-0.9783325,-0.0049438477,0.359375,-0.875,0.5625
1696244774891,0.04638672,-0.98101807,-0.016662598,0.375,0.21875,0.28125
1696244774929,0.041748047,-0.9976196,-0.0015258789,1.21875,-0.890625,0.4375
1696244774990,0.0546875,-0.9727173,-0.022521973,-0.875,0.34375,0.28125
1696244775008,0.052490234,-0.9854126,-0.0032348633,0.65625,-0.421875,0.359375
1696244775072,0.045654297,-0.9961548,-0.0037231445,0.703125,-0.59375,0.6875
1696244775088,0.05102539,-0.98809814,-0.013000488,0.25,-0.421875,0.375
1696244775150,0.05053711,-0.9932251,-0.013244629,0.21875,-0.5,0.21875
1696244775169,0.040283203,-0.98150635,-0.003479004,0.53125,-0.453125,0.03125
1696244775232,0.053955078,-0.9883423,-0.015197754,-0.109375,-0.46875,0.25
1696244775249,0.044921875,-0.97540283,-0.019104004,0.078125,-0.09375,0.265625
1696244775293,0.0390625,-0.98028564,-0.008850098,0.1875,-0.234375,0.59375
1696244775329,0.053955078,-0.98223877,-0.01373291,0.25,-0.421875,0.46875
1696244775369,0.049072266,-0.9824829,-0.014221191,-0.015625,-0.265625,0.484375
1696244775409,0.041748047,-0.9873657,-0.008117676,0.453125,-0.25,0.640625
1696244775448,0.04345703,-0.98223877,-0.010803223,0.328125,-0.296875,0.40625
1696244775489,0.04711914,-0.98223877,-0.0134887695,0.0625,-0.65625,0.40625
1696244775551,0.04663086,-0.98272705,-0.016906738,-0.296875,-0.296875,0.3125
1696244775569,0.05053711,-0.9817505,-0.026672363,0.1875,-0.234375,0.140625
1696244775609,0.052490234,-0.9834595,-0.016662598,0.4375,-0.234375,0.28125
1696244775673,0.04736328,-0.9771118,-0.0022583008,0.765625,-0.6875,0.578125
1696244775688,0.059570312,-0.9788208,-0.024963379,0.09375,0.578125,0.109375
1696244775709,0.05126953,-0.97442627,-0.023010254,0.5625,-0.46875,0.703125
1696244775752,0.059570312,-0.9697876,-0.031311035,-0.53125,0.65625,0.203125
1696244775788,0.04638672,-0.9973755,-0.003479004,1.15625,-0.40625,0.46875
1696244775828,0.04248047,-0.99224854,-0.019836426,0.484375,0.015625,0.046875
1696244775870,0.05029297,-0.9866333,-0.016174316,0.84375,0.015625,0.390625
1696244775913,0.053955078,-0.9805298,-0.02960205,0.109375,-0.0625,0.03125
1696244775951,0.05078125,-0.98394775,-0.026916504,0.0625,-0.453125,0.03125
1696244775992,0.04711914,-0.9819946,-0.018615723,-0.265625,-0.3125,0.328125
1696244776030,0.052246094,-0.9807739,-0.023254395,-0.21875,0.015625,0.203125
1696244776070,0.053222656,-0.98272705,-0.023254395,0.125,-0.390625,0.53125
1696244776110,0.05810547,-0.9883423,-0.02520752,-0.125,-0.6875,0.140625
1696244776149,0.053466797,-0.98760986,-0.029846191,-0.03125,-0.4375,0.390625
1696244776189,0.053955078,-0.9829712,-0.020812988,0.046875,-0.109375,0.484375
1696244776229,0.04711914,-0.9837036,-0.01763916,-0.140625,0.046875,0.375
1696244776269,0.048095703,-0.9788208,-0.015930176,0.203125,-0.015625,0.40625
1696244776310,0.052001953,-0.9812622,-0.026184082,0.1875,-0.296875,0.015625
1696244776350,0.05053711,-0.9859009,-0.020324707,0.03125,-0.1875,0.109375
1696244776388,0.05053711,-0.98272705,-0.030090332,0.1875,-0.375,0.265625
1696244776430,0.048339844,-0.98516846,-0.02130127,0.171875,-0.15625,0.0
1696244776470,0.04736328,-0.9902954,-0.019836426,0.90625,-0.875,0.671875
1696244776509,0.06298828,-0.9841919,-0.042541504,-0.875,0.5625,-0.3125
1696244776549,0.05078125,-0.9837036,-0.020812988,1.109375,-0.578125,0.015625
1696244776589,0.045166016,-0.9871216,-0.031555176,0.578125,-0.828125,0.078125
1696244776629,0.05419922,-0.9846802,-0.025939941,0.703125,-0.34375,0.109375
1696244776670,0.045654297,-0.9849243,-0.030822754,0.296875,-0.59375,0.3125
1696244776711,0.040039062,-0.96881104,-0.020080566,0.65625,-0.265625,0.078125
1696244776752,0.056396484,-0.9829712,-0.0335083,0.171875,-0.625,0.125
1696244776790,0.049072266,-0.9771118,-0.026184082,0.609375,-0.65625,0.25
1696244776830,0.050048828,-0.9907837,-0.02911377,0.75,-0.546875,0.171875
1696244776870,0.044189453,-0.98809814,-0.030090332,0.3125,-0.53125,0.125
1696244776910,0.05859375,-0.98638916,-0.035217285,-0.09375,-0.078125,0.390625
1696244776950,0.051513672,-0.97906494,-0.03668213,0.15625,-0.40625,-0.203125
1696244776990,0.053222656,-0.9768677,-0.031799316,0.359375,-0.5625,0.203125
1696244777030,0.0546875,-1.0003052,-0.004211426,-1.140625,0.625,0.46875
1696244777052,0.038330078,-0.98760986,-0.013000488,-2.578125,-2.375,-0.296875
1696244777093,0.024902344,-0.98638916,-0.02545166,0.0,-2.046875,1.109375
1696244777150,0.06640625,-0.9776001,-0.046203613,0.359375,-1.015625,0.015625
1696244777189,0.05029297,-0.9651489,-0.043518066,1.03125,-1.828125,0.015625
1696244777210,0.06958008,-0.9849243,-0.051086426,-0.84375,-0.15625,0.34375
1696244777249,0.036132812,-0.98565674,-0.023986816,1.234375,-0.59375,-0.171875
1696244777290,0.051757812,-0.98883057,-0.031555176,0.625,-1.078125,-0.171875
1696244777331,0.049804688,-0.972229,-0.03643799,0.65625,-1.0625,0.078125
1696244777389,0.043701172,-0.98883057,-0.024475098,1.1875,-0.640625,-0.21875
1696244777412,0.04272461,-0.9714966,-0.026184082,-0.015625,-0.8125,-0.0625
1696244777452,0.04272461,-0.9714966,-0.03765869,0.109375,-0.53125,-0.15625
1696244777511,0.048339844,-0.9854126,-0.02960205,0.359375,-1.078125,0.046875
1696244777528,0.041015625,-0.991272,-0.027893066,0.546875,-0.859375,0.078125
1696244777571,0.046875,-0.98883057,-0.034484863,-0.3125,-1.125,-0.125
1696244777612,0.04248047,-0.98321533,-0.024963379,-0.015625,-1.0625,0.1875
1696244777650,0.03857422,-0.9812622,-0.031799316,-0.0625,-0.796875,0.296875
1696244777688,0.04345703,-0.9807739,-0.02911377,-0.234375,-0.40625,0.296875
1696244777729,0.044189453,-0.98101807,-0.03253174,-0.234375,-0.171875,0.140625
1696244777770,0.038330078,-0.9788208,-0.020324707,-0.21875,-0.5625,0.140625
1696244777831,0.049560547,-0.97906494,-0.035949707,-0.203125,-0.09375,0.0
1696244777849,0.04711914,-0.98028564,-0.037902832,0.28125,-0.640625,0.328125
1696244777890,0.057373047,-0.98101807,-0.03717041,-0.359375,0.421875,-0.125
1696244777929,0.041503906,-0.9951782,-0.026916504,0.90625,-0.453125,0.421875
1696244777972,0.04663086,-0.98687744,-0.032043457,0.546875,-0.546875,0.296875
1696244778010,0.045654297,-0.9829712,-0.027404785,0.0,-0.40625,0.453125
1696244778050,0.043945312,-0.9834595,-0.039123535,-0.234375,-0.53125,-0.03125
1696244778112,0.050048828,-0.9859009,-0.03277588,0.546875,-1.046875,0.390625
1696244778148,0.052490234,-0.9751587,-0.0335083,-0.21875,-0.421875,0.015625
1696244778169,0.048583984,-0.9793091,-0.039367676,0.1875,-0.890625,0.125
1696244778214,0.05493164,-0.9849243,-0.042297363,1.875,-1.8125,-0.046875
1696244778273,0.04272461,-0.98809814,-0.04058838,0.71875,-1.609375,0.125
1696244778290,0.044433594,-0.97906494,-0.032043457,1.375,-1.03125,0.1875
1696244778350,0.03515625,-0.9824829,-0.034729004,1.328125,-1.5625,0.421875
1696244778357,0.04321289,-0.9834595,-0.04498291,0.90625,-0.609375,0.0625
1696244778391,0.047851562,-0.9812622,-0.04058838,0.4375,-0.453125,0.546875
1696244778431,0.038085938,-0.99053955,-0.050109863,-0.03125,-1.265625,0.53125
1696244778472,0.05102539,-0.98150635,-0.030822754,0.28125,-0.6875,0.234375
1696244778511,0.05493164,-0.9795532,-0.05596924,-0.953125,0.3125,0.171875
1696244778552,0.05517578,-0.9795532,-0.035949707,-0.0625,0.0625,0.015625
1696244778593,0.032470703,-0.9898071,-0.030578613,0.140625,-0.546875,0.265625
1696244778630,0.048583984,-0.9758911,-0.04547119,-0.25,0.09375,-0.0625
1696244778671,0.044921875,-0.98321533,-0.03375244,-0.59375,-0.03125,0.609375
1696244778709,0.039794922,-0.9780884,-0.04888916,-0.8125,0.34375,-0.046875
1696244778750,0.049316406,-0.9783325,-0.03692627,-1.6875,0.234375,0.421875
1696244778792,0.038330078,-0.97784424,-0.042541504,-1.0,0.28125,0.671875
1696244778829,0.05078125,-0.9885864,-0.034729004,-0.625,-0.078125,0.109375
1696244778869,0.03173828,-0.98760986,-0.041809082,-0.234375,-0.78125,0.78125
1696244778915,0.056884766,-0.98394775,-0.035461426,-0.609375,0.546875,0.9375
1696244778949,0.0546875,-0.98394775,-0.030090332,-0.296875,-0.015625,0.265625
1696244778991,0.042236328,-0.98638916,-0.039123535,-0.015625,0.0,0.453125
1696244779030,0.04736328,-0.9788208,-0.04058838,-0.078125,0.515625,0.3125
1696244779070,0.049804688,-0.9805298,-0.030334473,0.171875,-0.140625,0.453125
1696244779111,0.048095703,-0.9800415,-0.03302002,0.15625,-0.5,0.34375
1696244779152,0.049560547,-0.9846802,-0.028625488,0.4375,-0.6875,0.4375
1696244779189,0.061767578,-0.973938,-0.04547119,-1.109375,0.203125,-0.15625
1696244779230,0.04345703,-0.9873657,-0.03277588,0.484375,-0.9375,0.1875
1696244779270,0.03955078,-0.98931885,-0.036193848,0.21875,-0.515625,0.09375
1696244779312,0.045654297,-0.9788208,-0.030090332,0.359375,0.140625,0.328125
1696244779353,0.04272461,-0.99176025,-0.035949707,1.15625,-0.59375,0.953125
1696244779391,0.04736328,-0.9783325,-0.03277588,1.109375,0.0625,0.484375
1696244779429,0.052734375,-0.98101807,-0.039367676,1.390625,0.96875,1.015625
1696244779472,0.050048828,-0.98883057,-0.026672363,0.703125,1.234375,1.015625
1696244779509,0.032226562,-0.99542236,-0.019348145,0.625,0.734375,2.03125
1696244779551,0.032226562,-0.99468994,-0.05328369,-5.625,2.671875,1.109375
1696244779591,0.05078125,-0.9585571,-0.030822754,-4.03125,2.875,0.21875
1696244779629,0.10595703,-1.0039673,-0.025939941,-3.6875,0.375,-0.953125
1696244779670,0.06665039,-0.9817505,-0.019836426,-5.71875,-2.5,-1.21875
1696244779689,0.028076172,-0.97491455,-0.018615723,-5.046875,-4.109375,-1.921875
1696244779733,0.018066406,-0.9819946,-0.014221191,-4.65625,-0.640625,0.09375
1696244779793,0.07055664,-0.9849243,-0.025939941,0.9375,-0.96875,-0.828125
1696244779808,0.068115234,-0.956604,-0.010314941,0.0,-0.8125,-0.828125
1696244779851,0.043945312,-0.9961548,-0.027893066,0.859375,-1.25,0.53125
1696244779892,0.038330078,-0.98565674,-0.010314941,2.1875,-2.328125,-0.046875
1696244779930,0.045166016,-0.9771118,-0.008850098,1.078125,-1.296875,0.140625
1696244779971,0.041992188,-0.9898071,-0.0022583008,0.5,-1.5,0.53125
1696244780011,0.045654297,-0.9788208,-0.014465332,-0.609375,-1.171875,-0.578125
1696244780051,0.053710938,-0.97906494,-0.0015258789,-0.734375,-1.640625,-0.390625
1696244780088,0.037597656,-0.99346924,-0.013977051,-0.453125,-1.078125,0.40625
1696244780129,0.0546875,-0.9871216,-0.006164551,-0.671875,-0.8125,-0.09375
1696244780169,0.027832031,-0.9871216,0.0028686523,0.125,-1.015625,0.34375
1696244780209,0.037841797,-0.99005127,-0.008850098,-0.140625,-0.9375,0.15625
1696244780270,0.04321289,-0.9849243,-0.007385254,0.109375,-0.4375,0.078125
1696244780288,0.040527344,-0.98028564,-0.0037231445,0.046875,-0.296875,0.09375
1696244780331,0.05029297,-0.98028564,-0.009338379,0.203125,-0.1875,0.203125
1696244780370,0.043945312,-0.989563,-0.0071411133,0.65625,-0.5,0.296875
1696244780412,0.041259766,-0.9812622,-0.008361816,0.0625,-0.59375,0.3125
1696244780448,0.036621094,-0.9824829,-0.010070801,0.390625,-0.84375,0.34375
1696244780492,0.044189453,-0.9902954,-0.0012817383,0.78125,-0.875,0.4375
1696244780533,0.0546875,-0.9939575,-0.022766113,-0.421875,0.5625,0.71875
1696244780572,0.053955078,-0.99053955,-0.014953613,-0.09375,0.078125,-0.171875
1696244780612,0.030761719,-0.98931885,-0.0020141602,0.78125,-0.90625,0.234375
1696244780652,0.041992188,-0.98565674,-0.008605957,0.21875,-0.28125,0.296875
1696244780713,0.048583984,-0.9812622,-0.010559082,0.96875,-0.5625,0.171875
1696244780728,0.045898438,-0.98760986,-0.016662598,0.78125,-0.546875,0.109375
1696244780768,0.034179688,-0.9866333,-0.0134887695,0.25,-0.4375,0.40625
1696244780812,0.042236328,-0.97979736,-0.0256958,0.03125,-0.453125,0.34375
1696244780852,0.05053711,-0.986145,-0.0115356445,0.84375,0.03125,0.578125
1696244780889,0.038330078,-0.9915161,-0.019592285,0.546875,-0.546875,0.671875
1696244780930,0.04711914,-0.9819946,-0.0154418945,0.609375,-0.390625,-0.09375
1696244780990,0.0390625,-0.98443604,-0.0115356445,0.59375,-0.484375,0.5625
1696244780995,0.041992188,-0.9819946,-0.015197754,0.546875,-0.28125,0.203125
1696244781030,0.039794922,-0.9834595,-0.023498535,0.234375,-0.5,0.140625
1696244781070,0.04272461,-0.98223877,-0.019104004,0.109375,-0.34375,0.296875
1696244781111,0.045166016,-0.98565674,-0.019348145,0.625,-1.234375,0.4375
1696244781149,0.04296875,-0.9746704,-0.016418457,0.21875,-0.53125,0.15625
1696244781190,0.048339844,-0.9783325,-0.027648926,-0.15625,-0.5,0.4375
1696244781232,0.053222656,-0.9746704,-0.014953613,-0.5,0.3125,-0.34375
1696244781272,0.035888672,-0.9915161,-0.015930176,0.75,-0.59375,0.53125
1696244781312,0.047851562,-0.9771118,-0.01739502,0.234375,-0.125,0.078125
1696244781348,0.045410156,-0.98394775,-0.015930176,-0.125,-0.203125,0.171875
1696244781390,0.044677734,-0.98101807,-0.023254395,-0.203125,-0.390625,0.09375
1696244781430,0.04663086,-0.986145,-0.013977051,0.5,-0.984375,0.234375
1696244781491,0.04248047,-0.9871216,-0.028625488,-0.21875,-0.0625,-0.0625
1696244781510,0.0390625,-0.97784424,-0.019348145,0.265625,-0.171875,0.203125
1696244781551,0.04663086,-0.9932251,-0.019348145,0.328125,-0.34375,0.3125
1696244781589,0.045898438,-0.9866333,-0.019836426,0.0625,-0.3125,0.234375
1696244781630,0.052490234,-0.9780884,-0.024475098,-0.171875,-0.375,0.21875
1696244781673,0.040771484,-0.9866333,-0.023498535,0.328125,-0.359375,0.421875
1696244781710,0.041259766,-0.98223877,-0.024475098,0.734375,-0.1875,0.65625
1696244781750,0.042236328,-0.97906494,-0.023742676,0.125,0.109375,0.46875
1696244781790,0.047851562,-0.986145,-0.023742676,0.109375,0.015625,0.609375
1696244781833,0.049804688,-0.99102783,-0.020812988,0.421875,-0.4375,0.328125
1696244781871,0.047607422,-0.9812622,-0.023986816,-0.03125,-0.171875,0.21875
1696244781910,0.041748047,-0.9812622,-0.011779785,0.65625,-0.796875,0.375
1696244781951,0.048095703,-0.9866333,-0.028381348,-0.390625,0.203125,0.265625
1696244781990,0.048095703,-0.986145,-0.027648926,-0.171875,-0.46875,0.65625
1696244782031,0.053710938,-0.9746704,-0.034973145,-0.859375,0.53125,-0.171875
1696244782070,0.032226562,-0.99884033,-0.018371582,0.4375,-0.34375,0.4375
1696244782109,0.041992188,-0.9866333,-0.029846191,0.296875,0.046875,0.109375
1696244782149,0.056396484,-0.9854126,-0.02545166,0.28125,-0.03125,0.390625
1696244782188,0.05126953,-0.9841919,-0.028381348,-0.296875,-0.296875,0.09375
1696244782229,0.0390625,-0.9866333,-0.022033691,0.140625,-0.859375,0.265625
1696244782288,0.0546875,-0.98028564,-0.028625488,-0.609375,0.1875,0.28125
1696244782310,0.046142578,-0.9807739,-0.022033691,0.046875,0.21875,-0.015625
1696244782333,0.042236328,-0.9883423,-0.005432129,0.515625,-0.359375,0.296875
1696244782370,0.051757812,-0.98101807,-0.031311035,-0.734375,-0.390625,-0.359375
1696244782433,0.044921875,-0.99053955,-0.012756348,-1.15625,-1.296875,-0.375
1696244782448,0.020996094,-0.99664307,-0.027893066,-1.171875,-3.046875,0.03125
1696244782512,0.047851562,-0.98565674,-0.018127441,-1.3125,-1.6875,-0.828125
1696244782529,0.040527344,-0.97906494,-0.013000488,-0.890625,-1.296875,-0.765625
1696244782591,0.05102539,-0.9805298,-0.016662598,-1.671875,-1.34375,-0.5625
1696244782609,0.048339844,-0.98443604,-0.00982666,-1.53125,-1.578125,-0.65625
1696244782674,0.048828125,-0.98760986,-0.0049438477,-1.765625,-0.78125,-1.015625
1696244782691,0.025878906,-0.98443604,-0.0029907227,-1.78125,-1.53125,-0.75
1696244782729,0.036621094,-0.9807739,0.0018920898,-2.1875,-1.34375,-0.84375
1696244782770,0.040771484,-0.98687744,-0.005432129,-3.09375,-0.3125,-0.46875
1696244782832,0.038330078,-0.9841919,-0.012023926,-2.4375,-1.078125,-0.25
1696244782875,0.044677734,-0.9819946,9.1552734E-4,-2.25,0.390625,-0.84375
1696244782887,0.030029297,-0.98931885,0.012145996,-0.265625,-1.03125,-0.25
1696244782951,0.03540039,-0.98150635,-0.004211426,-0.703125,-0.734375,-0.546875
1696244782991,0.03100586,-0.9717407,0.009460449,-0.09375,-0.546875,-0.59375
1696244783007,0.01953125,-0.9819946,0.005554199,1.203125,-1.328125,-0.09375
1696244783072,0.032226562,-0.9776001,0.01727295,1.953125,-1.390625,0.03125
1696244783088,0.02709961,-0.9866333,0.0060424805,0.921875,-1.328125,0.1875
1696244783129,0.025390625,-0.989563,0.005554199,0.125,-0.953125,0.15625
1696244783171,0.028564453,-0.98565674,0.002380371,0.3125,-0.484375,0.0625
1696244783209,0.032470703,-0.99224854,0.003112793,-0.484375,-0.34375,0.46875
1696244783250,0.034179688,-0.9932251,0.008483887,-0.375,-0.546875,0.109375
1696244783292,0.022460938,-0.98883057,0.008239746,-0.28125,-0.5625,0.265625
1696244783331,0.0234375,-0.9849243,-3.0517578E-4,-0.3125,-0.515625,0.59375
1696244783390,0.032226562,-0.98272705,0.0018920898,0.03125,-0.546875,0.328125
1696244783429,0.024414062,-0.99176025,0.006286621,-0.34375,-0.515625,0.6875
1696244783449,0.03564453,-0.99053955,0.0028686523,-0.59375,-0.375,0.359375
1696244783490,0.025634766,-0.9846802,0.0072631836,0.640625,-1.5,0.421875
1696244783552,0.026123047,-0.9841919,0.018737793,0.3125,-0.828125,0.171875
1696244783568,0.03100586,-0.989563,-0.0056762695,-0.0625,-0.78125,0.703125
1696244783651,0.043945312,-0.9771118,0.001159668,-0.640625,-0.15625,0.09375
1696244783655,0.020019531,-0.99176025,0.014831543,0.75,-0.6875,0.203125
1696244783668,0.03173828,-0.991272,-0.0020141602,0.25,-0.53125,0.578125
1696244783709,0.040039062,-0.99713135,0.0036010742,-0.109375,-0.171875,0.203125
1696244783750,0.030761719,-0.99176025,9.1552734E-4,-0.28125,-0.71875,0.203125
1696244783791,0.032470703,-0.98760986,0.0060424805,1.796875,-1.046875,0.0625
1696244783829,0.038085938,-0.99005127,-3.0517578E-4,0.21875,-0.203125,0.3125
1696244783872,0.030761719,-0.9783325,-0.0012817383,-0.078125,-0.109375,0.046875
1696244783910,0.028808594,-0.98565674,0.0065307617,0.15625,-0.328125,0.546875
1696244783951,0.033447266,-0.98565674,-5.493164E-4,0.234375,-0.65625,0.140625
1696244783992,0.028808594,-0.9854126,0.0021362305,0.265625,-0.6875,0.3125
1696244784029,0.02734375,-0.9834595,0.0072631836,-0.0625,-0.65625,0.15625
1696244784072,0.025634766,-0.98809814,-0.0051879883,-0.40625,-0.09375,0.15625
1696244784110,0.03491211,-0.99053955,-0.0029907227,-0.296875,-0.40625,0.3125
1696244784154,0.023925781,-0.987854,0.0072631836,-0.015625,-0.375,0.28125
1696244784190,0.030761719,-0.991272,-0.004211426,-0.34375,-0.328125,0.203125
1696244784229,0.030273438,-0.9841919,0.008239746,0.5625,-1.015625,0.3125
1696244784269,0.024658203,-0.99346924,0.012878418,1.4375,-0.8125,0.484375
1696244784310,0.037353516,-0.9873657,-0.014953613,-0.296875,0.328125,0.296875
1696244784353,0.040771484,-0.97784424,-0.0025024414,0.1875,-0.09375,0.421875
1696244784389,0.02368164,-1.0010376,-6.1035156E-5,1.0,-0.765625,0.65625
1696244784430,0.032470703,-0.98516846,0.005554199,0.125,0.390625,0.4375
1696244784469,0.044921875,-0.9866333,-0.0115356445,0.25,-0.15625,0.421875
1696244784510,0.031982422,-0.9824829,1.8310547E-4,0.40625,-0.421875,0.40625
1696244784551,0.028564453,-0.9973755,0.0014038086,0.515625,-1.09375,0.78125
1696244784591,0.040039062,-0.9890747,-0.007873535,-0.6875,-0.640625,-0.015625
1696244784630,0.03540039,-0.9824829,-0.0032348633,-0.4375,-0.34375,0.078125
1696244784670,0.03149414,-0.99420166,0.0016479492,0.53125,-0.671875,0.171875
1696244784709,0.032714844,-0.9854126,-0.005432129,0.25,-0.4375,0.265625
1696244784752,0.023925781,-0.987854,-3.0517578E-4,0.5625,-0.3125,0.484375
1696244784790,0.030761719,-0.98394775,0.0016479492,0.078125,-0.484375,0.390625
1696244784830,0.034423828,-0.98321533,-0.00592041,-0.234375,-0.40625,0.21875
1696244784870,0.03173828,-0.989563,-0.0029907227,0.328125,-0.5,0.25
1696244784910,0.034423828,-0.98565674,-0.004211426,0.0,-0.75,0.53125
1696244784928,0.033691406,-0.9780884,9.1552734E-4,0.46875,-0.53125,0.171875
1696244784991,0.03149414,-0.98443604,-0.010070801,-0.078125,0.203125,0.5
1696244785029,0.037841797,-0.9902954,-0.0032348633,0.6875,-0.765625,0.703125
1696244785048,0.037841797,-0.9829712,-0.018127441,-1.171875,1.28125,0.21875
1696244785092,0.032470703,-0.99468994,-0.0020141602,0.609375,-0.359375,0.828125
1696244785130,0.03564453,-0.99005127,-0.005432129,0.921875,-0.4375,0.40625
1696244785170,0.037597656,-0.98760986,-0.0020141602,0.1875,-0.0625,0.578125
1696244785209,0.033935547,-0.9924927,-0.010070801,0.0625,-0.09375,0.21875
1696244785273,0.03173828,-0.9729614,0.004333496,0.5625,-0.09375,0.125
1696244785289,0.045898438,-0.9795532,-0.016906738,0.328125,-0.34375,0.78125
1696244785328,0.03515625,-0.98223877,-0.010070801,0.03125,0.46875,0.40625
1696244785392,0.037353516,-0.98760986,-0.0064086914,0.359375,-0.046875,0.765625
1696244785428,0.038085938,-0.99053955,-0.01373291,0.4375,-0.25,0.609375
1696244785451,0.044677734,-0.9837036,-0.006652832,0.65625,-0.203125,0.484375
1696244785491,0.036621094,-0.98687744,-0.011779785,-0.09375,-0.328125,0.640625
1696244785551,0.040039062,-0.98394775,-0.012512207,-0.125,-0.15625,0.0625
1696244785569,0.04321289,-0.98394775,-0.0095825195,0.015625,-0.375,-0.015625
1696244785632,0.0390625,-0.9841919,-0.0154418945,0.25,-0.34375,0.140625
1696244785674,0.030273438,-0.97442627,-0.015930176,0.390625,-0.421875,0.3125
1696244785692,0.04272461,-0.98516846,-0.0134887695,-0.0625,-0.265625,0.3125
1696244785730,0.041992188,-0.9854126,-0.003967285,1.25,-0.828125,0.484375
1696244785792,0.049316406,-0.97857666,-0.035705566,-0.828125,0.5,0.109375
1696244785809,0.040771484,-0.9824829,-0.0134887695,1.046875,-0.390625,0.234375
1696244785874,0.033691406,-1.0020142,-0.015197754,0.640625,-0.5,0.171875
1696244785889,0.03881836,-0.97369385,-0.0178833,0.734375,0.078125,-0.046875
1696244785930,0.04663086,-0.975647,-0.014953613,0.265625,0.171875,0.046875
1696244785970,0.036376953,-0.97540283,-0.0017700195,0.703125,-0.34375,0.09375
1696244786012,0.044189453,-0.9883423,-0.018371582,-0.125,-0.5,0.359375
1696244786051,0.04321289,-0.9783325,-0.031799316,-0.25,-0.703125,-0.1875
1696244786091,0.04736328,-0.98931885,-0.012512207,0.109375,-0.28125,0.3125
1696244786130,0.0390625,-0.99468994,-0.014953613,-0.171875,-0.53125,0.21875
1696244786170,0.039794922,-0.98760986,-0.016174316,0.625,-0.609375,0.171875
1696244786230,0.044677734,-0.9817505,-0.015197754,0.453125,-0.421875,0.28125
1696244786270,0.029785156,-0.98321533,-0.020812988,0.421875,-0.671875,0.453125
1696244786274,0.044189453,-0.9834595,-0.014221191,-0.59375,-0.046875,0.0625
1696244786309,0.041259766,-0.9829712,-0.014221191,0.078125,-0.25,-0.046875
1696244786349,0.036376953,-0.98321533,-0.019836426,0.46875,-0.375,0.421875
1696244786391,0.041259766,-0.9849243,-0.027648926,-0.359375,0.421875,0.25
1696244786431,0.04711914,-0.9859009,-0.022277832,0.4375,-0.40625,0.453125
1696244786470,0.03930664,-0.98394775,-0.022277832,-0.53125,0.203125,-0.265625
1696244786510,0.04248047,-0.98883057,-0.013000488,1.046875,-0.609375,0.484375
1696244786549,0.040527344,-0.987854,-0.0256958,0.34375,-1.078125,-0.109375
1696244786592,0.049316406,-0.97906494,-0.01739502,0.859375,-0.234375,0.3125
1696244786632,0.03125,-0.9973755,-0.022033691,0.34375,-0.796875,0.34375
1696244786670,0.040039062,-0.98394775,-0.026184082,0.375,-0.5,0.21875
1696244786711,0.042236328,-0.98321533,-0.030334473,-0.609375,-0.109375,0.265625
1696244786748,0.041748047,-0.9771118,-0.026672363,0.453125,-0.375,0.4375
1696244786789,0.03515625,-0.9902954,-0.015686035,0.78125,-0.484375,0.609375
1696244786831,0.041015625,-0.9795532,-0.027404785,0.34375,-0.46875,0.75
1696244786873,0.045654297,-0.98443604,-0.020568848,0.125,-0.28125,0.484375
1696244786917,0.032714844,-0.98687744,-0.020080566,-0.015625,-0.421875,0.453125
1696244786948,0.046875,-0.98321533,-0.026184082,0.109375,-0.265625,0.5
1696244786990,0.045410156,-0.98028564,-0.029846191,-0.078125,-0.09375,0.375
1696244787030,0.037597656,-0.98760986,-0.03277588,-0.15625,-0.171875,0.53125
1696244787070,0.03881836,-0.9898071,-0.0256958,0.125,-0.75,0.15625
1696244787113,0.044677734,-0.9763794,-0.014465332,0.484375,-0.28125,0.453125
1696244787151,0.051757812,-0.98150635,-0.046447754,-0.453125,0.421875,0.265625
1696244787190,0.059570312,-0.97491455,-0.026428223,0.703125,0.359375,-0.046875
1696244787234,0.032714844,-1.0010376,1.8310547E-4,0.40625,-0.765625,0.703125
1696244787272,0.030761719,-0.98272705,-0.019836426,-3.0,-0.28125,0.609375
1696244787310,0.04736328,-0.98760986,-0.0044555664,-0.765625,-3.3125,1.09375
1696244787351,0.049804688,-0.9780884,-0.019348145,-1.234375,-2.359375,-0.015625
1696244787390,0.022460938,-0.9834595,-0.03375244,-2.625,-1.78125,-0.09375
1696244787432,0.030273438,-0.9915161,-0.016418457,0.296875,-0.65625,1.0625
1696244787472,0.06958008,-0.9902954,-0.028137207,-0.515625,-0.640625,-0.0625
1696244787511,0.048339844,-0.97491455,-0.02545166,-0.328125,-1.0,0.171875
1696244787552,0.047607422,-0.99053955,-0.023010254,0.96875,-0.703125,0.234375
1696244787567,0.037353516,-0.9697876,-0.030334473,1.21875,-0.640625,-0.625
1696244787610,0.052490234,-0.97979736,-0.0178833,1.78125,-1.296875,0.453125
1696244787652,0.045410156,-0.98394775,-0.020324707,0.734375,-0.921875,-0.140625
1696244787690,0.03930664,-0.9692993,-0.036193848,0.0625,-0.84375,-0.125
1696244787731,0.03881836,-0.9841919,-0.023986816,0.453125,-1.046875,0.0625
1696244787773,0.053222656,-0.98809814,-0.005432129,0.0,-0.640625,-0.125
1696244787810,0.03857422,-0.99224854,-0.034484863,-1.140625,-0.328125,0.265625
1696244787849,0.05517578,-0.9807739,-0.020812988,-0.40625,-0.59375,0.125
1696244787913,0.03881836,-0.99346924,-0.011047363,0.453125,-0.84375,0.28125
1696244787951,0.036376953,-0.98687744,-0.023742676,-0.171875,-0.3125,0.140625
1696244787968,0.048583984,-0.9819946,-0.016906738,-0.109375,0.0,0.34375
1696244788030,0.045410156,-0.9780884,-0.026916504,-0.1875,-0.3125,-0.03125
1696244788049,0.040283203,-0.9758911,-0.019592285,0.0625,-0.71875,0.375
1696244788091,0.05419922,-0.98223877,-0.022521973,-0.078125,-0.484375,0.265625
1696244788132,0.044433594,-0.98809814,-0.012023926,0.328125,-0.828125,0.171875
1696244788169,0.04248047,-0.99468994,-0.026184082,0.34375,-0.96875,0.453125
1696244788210,0.041015625,-0.97906494,-0.021057129,0.28125,-0.578125,0.421875
1696244788249,0.041503906,-0.99005127,-0.024719238,0.1875,-0.609375,0.515625
1696244788291,0.041015625,-0.9829712,-0.023742676,0.71875,-0.640625,0.234375
1696244788350,0.04711914,-0.98394775,-0.024230957,-0.046875,-0.15625,0.359375
1696244788367,0.040039062,-0.986145,-0.031799316,-0.359375,-0.453125,0.234375
1696244788432,0.0390625,-0.98394775,-0.018615723,-0.1875,-0.78125,0.40625
1696244788449,0.045654297,-0.9795532,-0.007385254,0.796875,-0.953125,0.34375
1696244788489,0.05126953,-0.9751587,-0.04522705,-1.28125,0.328125,0.078125
1696244788530,0.04345703,-0.98760986,-0.014221191,0.734375,-0.28125,0.34375
1696244788570,0.044189453,-0.9963989,-0.024963379,0.140625,-0.296875,0.15625
1696244788632,0.052246094,-0.9805298,-0.02130127,-0.21875,-0.0625,-0.34375
1696244788649,0.042236328,-0.99224854,-0.030090332,-0.015625,0.078125,0.046875
1696244788689,0.04272461,-0.97125244,-0.02545166,-0.1875,-0.03125,-0.109375
1696244788731,0.051757812,-0.9859009,-0.028625488,-0.453125,-0.375,0.171875
1696244788770,0.041992188,-0.975647,-0.027160645,-0.4375,-0.25,-0.3125
1696244788810,0.03515625,-0.9841919,-0.023742676,-0.125,-0.234375,0.125
1696244788872,0.041015625,-0.9854126,-0.034729004,-0.4375,-0.046875,0.015625
1696244788876,0.04321289,-0.987854,-0.027648926,0.15625,-0.171875,-0.21875
1696244788910,0.04296875,-0.9805298,-0.020080566,0.03125,0.203125,-0.125
1696244788992,0.040039062,-0.97857666,-0.023986816,0.03125,-0.03125,-0.140625
1696244788996,0.041748047,-0.9829712,-0.01739502,-0.34375,0.125,-0.171875
1696244789030,0.04663086,-1.005188,-0.0056762695,-1.828125,2.375,0.5625
1696244789070,0.048095703,-1.0049438,0.014099121,-2.984375,-0.796875,-0.546875
1696244789111,0.032226562,-0.973938,4.272461E-4,-3.65625,-2.46875,-1.5
1696244789150,0.026123047,-0.97784424,-0.03375244,-4.734375,-2.15625,-0.328125
1696244789189,0.029785156,-0.98883057,0.012878418,-2.734375,-0.671875,-1.109375
1696244789229,0.020996094,-0.9944458,-0.012268066,-3.390625,-0.0625,-0.328125
1696244789269,0.0390625,-0.9673462,-0.024475098,-1.546875,-0.671875,-0.796875
1696244789311,0.034179688,-0.97613525,0.007751465,-0.375,-0.796875,-0.390625
1696244789350,0.022705078,-0.9741821,-0.0025024414,1.578125,-1.234375,0.125
1696244789390,0.028320312,-0.989563,0.0018920898,2.03125,-2.1875,0.453125
1696244789432,0.029052734,-0.973938,-0.0068969727,0.625,-1.640625,0.1875
1696244789471,0.03564453,-0.9932251,0.0014038086,0.21875,-0.71875,-0.09375
1696244789513,0.031982422,-0.98565674,-0.0015258789,0.328125,-0.75,0.484375
1696244789552,0.032958984,-0.9873657,0.0053100586,0.109375,-1.078125,0.1875
1696244789589,0.02368164,-0.98516846,-0.0022583008,-0.234375,-0.6875,0.484375
1696244789633,0.03125,-0.9973755,4.272461E-4,0.25,-0.484375,0.46875
1696244789672,0.036376953,-0.99053955,-0.0064086914,-0.125,-0.546875,0.484375
1696244789712,0.024169922,-0.9883423,0.0036010742,-0.25,-0.796875,0.375
1696244789751,0.033691406,-0.9849243,-0.011047363,-0.25,-0.65625,0.3125
1696244789789,0.033203125,-0.9824829,0.010681152,1.140625,-1.640625,0.4375
1696244789830,0.036621094,-0.9805298,-0.023742676,-1.9375,0.609375,-0.0625
1696244789870,0.030273438,-0.98760986,0.0060424805,0.234375,-0.921875,0.25
1696244789910,0.029541016,-0.98394775,-0.0022583008,0.125,-0.859375,0.53125
1696244789950,0.03540039,-0.9817505,0.0040893555,0.1875,-0.59375,0.25
1696244789991,0.033447266,-0.99053955,-5.493164E-4,0.609375,-1.25,0.390625
1696244790035,0.029541016,-0.9866333,1.8310547E-4,1.875,-1.34375,0.4375
1696244790070,0.031982422,-0.9783325,-0.012023926,0.171875,-0.34375,0.390625
1696244790110,0.026123047,-0.99102783,0.0028686523,0.15625,-0.46875,0.125
1696244790152,0.032470703,-0.986145,-0.0015258789,-0.078125,-0.4375,0.21875
1696244790169,0.03125,-0.9859009,-0.008605957,-0.09375,-0.78125,0.3125
1696244790211,0.037597656,-0.9902954,0.002380371,0.453125,-0.90625,0.375
1696244790249,0.030273438,-0.9932251,-0.0056762695,0.53125,-0.796875,0.234375
1696244790289,0.037353516,-0.987854,-0.0056762695,0.3125,-0.40625,0.40625
1696244790353,0.03881836,-0.98809814,-0.0037231445,0.125,-0.734375,0.4375
1696244790368,0.02709961,-0.9854126,-0.0064086914,0.046875,-0.390625,0.25
1696244790434,0.037109375,-0.99005127,-0.0056762695,1.234375,-1.109375,0.65625
1696244790473,0.026855469,-0.99346924,0.0038452148,1.5625,-0.765625,0.453125
1696244790512,0.038085938,-0.98101807,-0.030090332,-0.390625,-0.28125,0.671875
1696244790531,0.041992188,-0.98223877,-0.006164551,0.71875,0.15625,0.375
1696244790591,0.029052734,-0.99957275,-0.0049438477,1.1875,-0.828125,0.75
1696244790609,0.025634766,-0.989563,-0.0115356445,0.578125,-0.421875,0.515625
1696244790671,0.04345703,-0.9824829,-0.015686035,0.015625,-0.015625,0.40625
1696244790712,0.036132812,-0.97906494,-0.010314941,0.21875,-0.28125,0.234375
1696244790730,0.03881836,-0.99176025,-0.016662598,0.21875,-0.65625,0.4375
1696244790774,0.044189453,-0.9771118,-0.023254395,-0.078125,-0.1875,0.359375
1696244790810,0.04663086,-0.9846802,-0.0178833,0.0,-0.125,0.359375
1696244790852,0.035888672,-0.99664307,-0.008850098,-0.234375,-0.421875,0.453125
1696244790890,0.041992188,-0.9788208,-0.010070801,0.015625,-0.546875,0.09375
1696244790932,0.03930664,-0.9898071,-0.0134887695,0.34375,-1.078125,0.390625
1696244790991,0.0390625,-0.98931885,-0.011291504,-0.1875,-0.625,0.234375
1696244791009,0.029541016,-0.9871216,-0.019104004,-0.5625,-0.359375,0.09375
1696244791052,0.04638672,-0.9837036,-0.022766113,-0.59375,0.109375,-0.1875
1696244791092,0.037353516,-0.9898071,-0.020324707,-0.34375,-0.484375,0.140625
1696244791130,0.017089844,-0.97857666,-0.0154418945,1.15625,-1.046875,0.65625
1696244791171,0.042236328,-0.99176025,-0.00982666,0.5625,-0.265625,0.1875
1696244791211,0.046142578,-0.9963989,-0.02154541,-0.015625,-0.65625,0.40625
1696244791249,0.045166016,-0.9746704,-0.013977051,-0.453125,0.359375,-0.484375
1696244791312,0.03149414,-0.99005127,-0.011779785,0.65625,-0.875,0.78125
1696244791330,0.033691406,-0.98272705,-0.013244629,0.453125,-0.328125,0.3125
1696244791371,0.03881836,-0.99176025,-0.013977051,-0.34375,0.265625,0.296875
1696244791411,0.033935547,-0.98809814,-0.020812988,-0.71875,0.109375,-0.28125
1696244791474,0.045166016,-0.98028564,-0.021057129,-0.609375,-0.109375,0.125
1696244791490,0.05078125,-0.9793091,-0.012268066,-0.234375,-0.15625,-0.03125
1696244791510,0.036376953,-0.9859009,-0.0115356445,0.453125,-0.265625,0.234375
1696244791551,0.040039062,-0.9920044,-0.0115356445,0.015625,-0.578125,0.078125
1696244791611,0.029296875,-1.000061,-0.012756348,-0.109375,-0.765625,0.0
1696244791629,0.03564453,-0.987854,-0.008605957,-0.1875,-0.265625,0.0625
1696244791671,0.030273438,-0.9871216,-0.014953613,0.09375,-0.0625,0.28125
1696244791711,0.032958984,-0.98931885,-0.0044555664,-0.125,-0.03125,0.3125
1696244791750,0.03564453,-0.986145,-0.0134887695,-0.25,0.078125,0.03125
1696244791795,0.029541016,-0.98443604,-0.013977051,0.046875,-0.15625,0.453125
1696244791832,0.038085938,-0.9805298,-0.015197754,0.265625,0.03125,0.484375
1696244791872,0.040527344,-0.9829712,-0.016418457,0.03125,-0.296875,0.375
1696244791910,0.03955078,-0.9898071,-0.015686035,-0.421875,-0.203125,0.4375
1696244791952,0.043701172,-0.99346924,-0.013000488,0.265625,-0.609375,0.53125
1696244791991,0.048828125,-0.9812622,-0.032043457,-1.4375,0.765625,-0.046875
1696244792033,0.021972656,-0.9902954,0.0014038086,0.921875,-0.953125,0.46875
1696244792071,0.032470703,-0.99468994,-0.010559082,0.328125,-0.328125,0.15625
1696244792112,0.037109375,-0.98028564,-0.008850098,-0.59375,0.1875,0.0
1696244792151,0.025390625,-1.00177,-0.0044555664,-1.9375,0.65625,0.6875
1696244792190,0.041503906,-0.986145,0.016540527,-1.484375,0.34375,-0.109375
1696244792230,0.033203125,-0.98394775,0.003112793,-2.15625,-2.40625,-0.34375
1696244792269,0.0056152344,-0.98223877,-0.008850098,-2.640625,-1.890625,0.171875
1696244792311,0.035888672,-0.9937134,-0.006652832,-1.3125,0.65625,0.890625
1696244792354,0.04321289,-0.9854126,-0.018859863,-1.3125,-0.3125,0.265625
1696244792390,0.02758789,-0.96417236,-0.0015258789,-0.6875,-1.125,-0.078125
1696244792430,0.049804688,-0.99664307,-0.008117676,0.796875,-0.421875,0.75
1696244792470,0.040527344,-0.97003174,-7.9345703E-4,0.71875,-0.515625,-0.375
1696244792510,0.038330078,-0.9859009,0.002380371,1.984375,-1.859375,0.640625
1696244792549,0.038330078,-0.98223877,-0.0049438477,1.546875,-1.671875,0.390625
1696244792589,0.0390625,-0.97247314,-0.008605957,1.109375,-0.75,0.28125
1696244792631,0.04248047,-0.98394775,-0.0037231445,0.859375,-1.078125,0.59375
1696244792672,0.04272461,-0.9924927,0.0045776367,-0.328125,-0.671875,-0.3125
1696244792709,0.03491211,-0.9873657,0.001159668,0.53125,-1.515625,0.6875
1696244792750,0.06201172,-0.9846802,-0.0134887695,-0.875,0.015625,-0.34375
1696244792832,0.026123047,-0.9937134,-0.0020141602,0.96875,-1.390625,0.421875
1696244792836,0.030761719,-0.9956665,0.0072631836,0.734375,-1.484375,0.296875
1696244792849,0.033691406,-0.98394775,-0.0044555664,-0.015625,-0.65625,0.5
1696244792894,0.044677734,-0.97320557,-0.010803223,-0.125,-0.234375,-0.0625
1696244792931,0.036132812,-0.99346924,-0.00592041,1.328125,-1.109375,0.484375
1696244792969,0.044921875,-0.9729614,-0.015930176,0.0625,-0.4375,0.1875
1696244793011,0.04663086,-0.989563,-0.0095825195,0.015625,-0.328125,0.578125
1696244793051,0.036132812,-0.9924927,0.0018920898,1.125,-0.546875,0.328125
1696244793092,0.044433594,-0.98272705,-0.01763916,0.15625,-0.71875,0.53125
1696244793150,0.041748047,-0.9883423,-0.007873535,-0.09375,-0.453125,0.15625
1696244793192,0.036132812,-0.9829712,-0.003479004,0.03125,-0.34375,0.15625
1696244793209,0.040283203,-0.9854126,-0.016906738,0.71875,-0.5,0.03125
1696244793250,0.034179688,-0.9859009,-0.00982666,0.453125,-0.390625,0.296875
1696244793291,0.03930664,-0.9883423,-0.015930176,-0.140625,-0.359375,0.15625
1696244793352,0.037597656,-0.9788208,-0.010559082,-0.0625,-0.21875,0.046875
1696244793370,0.03564453,-0.98394775,-0.014221191,0.25,-0.40625,-0.015625
1696244793411,0.04248047,-0.9824829,-0.015197754,-0.140625,0.09375,0.046875
1696244793472,0.03515625,-0.98272705,-0.0051879883,0.53125,-0.328125,0.265625
1696244793489,0.04663086,-0.9795532,-0.018615723,-1.25,0.671875,-0.265625
1696244793551,0.0390625,-0.989563,-0.006652832,0.578125,-0.28125,0.078125
1696244793569,0.03881836,-0.99542236,-0.016906738,0.21875,-0.28125,0.140625
1696244793611,0.040283203,-0.9849243,-0.0056762695,-0.171875,-0.078125,0.234375
1696244793671,0.032958984,-0.9812622,-0.010070801,-0.046875,-0.09375,0.015625
1696244793690,0.03173828,-0.9829712,-0.0095825195,0.328125,-0.546875,-0.203125
1696244793731,0.029541016,-0.98760986,-0.0071411133,-0.0625,-0.390625,0.3125
1696244793769,0.032470703,-0.98150635,-0.020324707,-0.4375,-0.390625,-0.21875
1696244793810,0.033203125,-0.9963989,-0.0044555664,-0.171875,-0.109375,0.015625
1696244793850,0.033935547,-0.9859009,-0.01763916,-0.390625,-0.203125,0.109375
1696244793892,0.042236328,-0.98321533,-0.008361816,0.1875,-0.359375,0.265625
1696244793951,0.032470703,-0.98760986,-0.007873535,-0.0625,-0.28125,0.328125
1696244793969,0.032226562,-0.98638916,-0.01763916,0.0,-0.390625,0.171875
1696244794032,0.034179688,-0.989563,-0.012512207,0.125,-0.0625,0.3125
1696244794049,0.037353516,-0.98931885,-0.009094238,-0.109375,-0.375,0.109375
1696244794134,0.029541016,-0.9776001,-0.0037231445,0.046875,-0.296875,0.140625
1696244794139,0.033447266,-0.9854126,1.8310547E-4,-1.078125,0.640625,0.390625
1696244794151,0.038085938,-1.006897,0.008972168,-1.5,0.28125,0.65625
1696244794190,0.051513672,-0.98638916,-0.0064086914,-1.96875,-1.9375,-0.109375
1696244794231,0.03173828,-0.97198486,-0.025939941,-2.859375,-0.40625,0.28125
1696244794269,0.02368164,-1.0015259,0.019226074,-0.875,-0.390625,0.640625
1696244794311,0.039794922,-0.9824829,-0.015197754,-0.90625,-0.28125,0.5
1696244794351,0.045654297,-0.9717407,-0.012756348,-0.5,-0.25,0.09375
1696244794391,0.044189453,-0.98394775,-0.007873535,1.03125,-0.796875,0.109375
1696244794431,0.03540039,-0.9771118,0.0067749023,1.390625,-1.1875,0.03125
1696244794473,0.041503906,-0.99053955,-0.007385254,1.109375,-1.5625,0.859375
1696244794509,0.0390625,-0.98223877,0.0016479492,1.109375,-1.078125,0.21875
1696244794551,0.03149414,-0.98223877,-0.008605957,0.15625,-0.78125,0.140625
1696244794590,0.03930664,-0.98223877,-0.008605957,0.125,-0.890625,-0.015625
1696244794629,0.03491211,-0.9873657,-0.0049438477,0.3125,-0.46875,-0.140625
1696244794671,0.036621094,-0.98931885,-0.0095825195,0.140625,-0.875,0.171875
1696244794710,0.041015625,-0.99591064,0.0045776367,0.09375,-0.8125,0.0625
1696244794750,0.036132812,-0.9890747,-0.004699707,0.015625,-0.84375,0.015625
1696244794790,0.025146484,-0.9907837,0.0053100586,0.328125,-0.90625,0.484375
1696244794832,0.031982422,-0.9854126,-0.009338379,0.203125,-0.578125,0.84375
1696244794869,0.046875,-0.9795532,-0.009094238,-0.609375,0.375,0.046875
1696244794909,0.040039062,-0.9951782,-0.019348145,0.890625,-1.25,0.640625
1696244794949,0.052490234,-0.9710083,-0.023742676,-1.03125,0.828125,-0.421875
1696244794989,0.039794922,-0.9907837,-0.005432129,2.25,-1.046875,0.296875
1696244795030,0.025878906,-0.9963989,-0.0012817383,0.8125,-0.703125,0.328125
1696244795070,0.03173828,-0.96954346,-0.0154418945,0.5,0.078125,0.265625
1696244795111,0.04321289,-0.99346924,-0.016174316,0.4375,-0.671875,0.40625
1696244795150,0.027832031,-0.9805298,-0.012023926,0.6875,-0.859375,-0.296875
1696244795191,0.041015625,-0.9866333,-0.007873535,-0.015625,-0.21875,0.59375
1696244795230,0.032470703,-0.99005127,-0.0115356445,-0.53125,-0.359375,0.0625
1696244795270,0.03466797,-0.98565674,-0.0032348633,0.125,-0.5625,0.265625
1696244795310,0.036376953,-1.0003052,-0.016662598,-0.21875,-0.4375,0.28125
1696244795350,0.033691406,-0.97491455,-0.0049438477,-0.515625,0.203125,-0.046875
1696244795394,0.03466797,-0.98565674,-0.004699707,-0.3125,0.078125,0.5
1696244795431,0.037841797,-0.9800415,-0.011291504,0.078125,-0.203125,-0.125
1696244795450,0.04345703,-0.9824829,-0.0095825195,-0.125,-0.28125,0.484375
1696244795512,0.038330078,-0.9859009,-0.016418457,-0.5,-0.53125,0.0
1696244795528,0.033935547,-0.98101807,-0.0064086914,-0.140625,-0.390625,0.578125
1696244795591,0.03857422,-0.9854126,-0.006164551,0.375,-0.515625,0.3125
1696244795609,0.042236328,-0.9846802,-0.011047363,-0.15625,0.34375,0.015625
1696244795670,0.033447266,-0.986145,-0.017150879,-0.03125,-0.875,0.1875
1696244795710,0.045654297,-0.9734497,-0.014953613,-1.234375,0.515625,-0.046875
1696244795730,0.035888672,-0.9924927,0.0079956055,1.078125,-0.671875,0.515625
1696244795771,0.03125,-0.9849243,-0.015930176,-0.6875,-0.3125,-0.109375
1696244795811,0.029541016,-0.9795532,-3.0517578E-4,0.046875,0.015625,0.578125
1696244795850,0.030761719,-0.9915161,-0.01739502,-0.296875,0.09375,0.15625
1696244795890,0.03930664,-0.9758911,-0.010070801,0.359375,-0.25,0.3125
1696244795930,0.043945312,-0.9866333,-0.00982666,0.109375,0.03125,0.53125
1696244795969,0.040039062,-0.97857666,-0.0051879883,-0.0625,0.0,-0.171875
1696244796012,0.038330078,-0.9846802,-0.011779785,0.265625,-0.234375,0.296875
1696244796051,0.034179688,-0.986145,-0.009094238,-0.109375,-0.71875,0.015625
1696244796090,0.02734375,-0.9871216,-0.010070801,0.15625,-0.421875,0.390625
1696244796130,0.03881836,-0.9837036,-0.009094238,-0.0625,-0.28125,0.046875
1696244796171,0.037841797,-0.9829712,-0.007873535,0.40625,-0.5,0.0625
1696244796234,0.036132812,-0.9776001,-0.013000488,-0.03125,-0.34375,0.109375
1696244796249,0.033935547,-0.9812622,-0.004211426,-0.1875,-0.203125,0.125
1696244796289,0.040527344,-0.9854126,-0.013000488,-0.28125,-0.1875,0.0
1696244796352,0.03100586,-0.9829712,-0.012268066,-0.0625,-0.90625,0.015625
1696244796392,0.032958984,-0.98809814,-5.493164E-4,0.40625,-0.421875,0.03125
1696244796410,0.03515625,-0.9883423,-0.027648926,-1.171875,0.90625,0.1875
1696244796450,0.03149414,-0.9824829,-0.0032348633,0.421875,0.328125,-0.15625
1696244796491,0.028564453,-1.00177,-0.010559082,0.609375,-0.34375,-0.046875
1696244796553,0.038085938,-0.9763794,-0.008117676,0.21875,0.171875,-0.109375
1696244796569,0.029296875,-0.9920044,-0.0012817383,-0.171875,-0.578125,0.4375
1696244796611,0.018310547,-0.9866333,0.0048217773,-0.28125,-1.3125,0.125
1696244796653,0.040771484,-0.9776001,-0.0071411133,-0.1875,-1.671875,0.359375
1696244796691,0.037353516,-0.97857666,-0.003967285,-0.203125,-1.890625,0.34375
1696244796754,0.027832031,-0.9949341,-0.0068969727,0.765625,-1.953125,0.46875
1696244796770,0.037109375,-0.9927368,-0.008850098,0.09375,-0.671875,0.9375
1696244796790,0.03100586,-0.9927368,-7.9345703E-4,-0.046875,-0.515625,0.90625
1696244796830,0.033447266,-0.9873657,-0.018371582,-0.59375,-0.796875,0.609375
1696244796870,0.040283203,-0.98687744,-0.00592041,-0.671875,-0.5,0.53125
1696244796911,0.036132812,-0.9866333,-0.014221191,-1.21875,0.078125,0.59375
1696244796954,0.040283203,-0.98272705,-0.013977051,-0.765625,0.015625,0.625
1696244796990,0.04345703,-0.9824829,-0.0076293945,-1.265625,0.015625,0.09375
1696244797031,0.030517578,-0.9873657,0.014831543,-1.171875,-0.921875,0.359375
1696244797070,0.04638672,-0.9746704,-0.0056762695,-0.8125,-0.25,0.390625
1696244797111,0.041992188,-0.9841919,-0.036193848,-1.671875,0.40625,0.1875
1696244797151,0.037841797,-0.987854,0.007019043,0.0625,-0.21875,0.171875
1696244797191,0.040283203,-0.9902954,-0.008361816,-0.046875,-0.796875,0.203125
1696244797232,0.045410156,-0.9656372,-0.0071411133,-0.125,-0.5625,-0.203125
1696244797271,0.033691406,-0.98687744,-6.1035156E-5,1.0,-1.21875,0.21875
1696244797309,0.034179688,-0.973938,0.009460449,1.046875,-1.578125,-0.078125
1696244797351,0.040527344,-0.98321533,-0.010803223,0.859375,-1.84375,0.578125
1696244797392,0.04248047,-0.9859009,-0.0068969727,0.453125,-1.359375,0.328125
1696244797429,0.03564453,-0.9985962,-0.0095825195,0.484375,-0.75,0.1875
1696244797473,0.043945312,-0.9907837,-0.006164551,-0.140625,-0.109375,0.34375
1696244797512,0.041259766,-0.9932251,0.0016479492,-0.46875,-0.375,0.375
1696244797550,0.038330078,-0.986145,-0.0032348633,-0.46875,-0.796875,0.203125
1696244797588,0.038085938,-0.9871216,-0.0029907227,-0.265625,-0.703125,0.234375
1696244797629,0.041748047,-0.98760986,-0.0025024414,-0.125,-0.5625,0.25
1696244797671,0.034423828,-0.9834595,-0.013000488,-0.265625,-0.578125,0.296875
1696244797712,0.045166016,-0.9834595,-0.002746582,0.484375,-1.53125,0.125
1696244797750,0.03149414,-0.986145,0.0079956055,0.640625,-1.015625,0.171875
1696244797791,0.03955078,-0.9873657,-0.03253174,-0.609375,-0.078125,0.46875
1696244797831,0.043701172,-0.9834595,-0.008117676,-0.140625,-0.1875,-0.234375
1696244797871,0.033447266,-0.9973755,6.713867E-4,0.953125,-0.84375,0.3125
1696244797909,0.04321289,-0.9768677,-0.009094238,-0.21875,-0.34375,-0.09375
1696244797950,0.037597656,-0.986145,1.8310547E-4,0.359375,-0.46875,-0.125
1696244797991,0.032470703,-0.9800415,-0.013244629,0.109375,-0.734375,-0.15625
1696244798033,0.044433594,-0.98809814,-0.0051879883,-0.1875,-0.5,0.109375
1696244798071,0.046875,-0.9795532,-0.002746582,-0.6875,0.0625,-0.21875
1696244798091,0.032714844,-0.9907837,-0.003967285,0.046875,-0.453125,0.15625
1696244798131,0.03540039,-0.991272,0.0028686523,0.03125,-0.453125,0.078125
1696244798171,0.041503906,-0.98687744,-0.009094238,-0.1875,-0.40625,0.34375
1696244798211,0.026367188,-0.9883423,0.0048217773,0.5625,-0.75,0.1875
1696244798272,0.037841797,-0.98394775,-0.0076293945,0.15625,-0.25,0.0625
1696244798289,0.036865234,-0.99102783,-0.0032348633,0.015625,-0.359375,0.34375
1696244798331,0.032226562,-0.9849243,0.005554199,-0.171875,-0.390625,0.109375
1696244798372,0.029541016,-0.9768677,0.0033569336,0.875,-0.828125,0.59375
1696244798431,0.04711914,-0.98150635,-0.028381348,-0.140625,0.265625,0.25
1696244798454,0.031982422,-0.9920044,-7.9345703E-4,0.84375,-1.296875,0.59375
1696244798490,0.045166016,-0.9729614,-0.016418457,-1.96875,1.15625,-0.203125
1696244798533,0.03491211,-0.9873657,-0.0010375977,0.734375,-0.125,0.390625
1696244798569,0.03100586,-0.9976196,-0.010559082,1.21875,-0.3125,0.578125
1696244798610,0.033691406,-0.9793091,6.713867E-4,0.53125,-0.140625,0.546875
1696244798650,0.037597656,-0.99346924,-0.012023926,0.15625,-0.625,0.71875
1696244798693,0.04345703,-0.98028564,-0.005432129,0.703125,-0.8125,0.0625
1696244798731,0.04345703,-0.98687744,-0.020324707,-0.25,-0.375,0.234375
1696244798788,0.040527344,-0.9902954,-0.016662598,-0.578125,0.03125,0.078125
1696244798809,0.036132812,-0.9795532,-0.0064086914,0.25,-0.609375,0.03125
1696244798850,0.03173828,-0.9795532,-0.0134887695,0.328125,-0.5625,0.75
1696244798891,0.04321289,-0.98272705,-0.006652832,0.921875,-0.296875,0.328125
1696244798951,0.040283203,-0.9837036,-0.010803223,0.0,-0.65625,0.109375
1696244798994,0.032958984,-0.9819946,-0.015686035,-0.53125,-0.03125,0.125
1696244799011,0.05126953,-0.98638916,-0.0025024414,-0.015625,0.03125,0.328125
1696244799050,0.037841797,-0.9776001,-0.010070801,-0.03125,-0.484375,0.21875
1696244799091,0.033691406,-0.9834595,-0.0056762695,0.359375,-0.21875,0.359375
1696244799152,0.029785156,-0.9795532,-0.005432129,0.625,-0.40625,0.1875
1696244799170,0.04296875,-0.98028564,-0.018127441,-0.296875,0.359375,-0.015625
1696244799211,0.03100586,-0.986145,-0.018127441,0.140625,-0.875,0.609375
1696244799251,0.04272461,-0.9783325,-0.012023926,-0.6875,0.90625,0.234375
1696244799313,0.036621094,-0.9968872,-0.0015258789,0.953125,-0.609375,0.46875
1696244799329,0.03173828,-0.99102783,-0.012268066,-0.3125,-0.25,-0.265625
1696244799391,0.036865234,-0.9819946,-0.009338379,-0.015625,-0.09375,0.53125
1696244799398,0.03930664,-0.9873657,-0.018859863,-0.234375,-0.421875,0.21875
1696244799430,0.029541016,-0.9795532,-0.014221191,0.78125,-0.984375,0.4375
1696244799513,0.045654297,-0.9854126,-0.023010254,-0.15625,-0.203125,0.125
1696244799529,0.040771484,-0.9841919,-0.010070801,-0.046875,-0.6875,-0.03125
1696244799550,0.037597656,-0.9871216,-0.013244629,-0.109375,-0.046875,0.265625
1696244799590,0.03491211,-0.9885864,-0.011291504,0.09375,-0.5,0.46875
1696244799630,0.032958984,-0.99420166,-0.0178833,0.375,-0.234375,0.328125
1696244799672,0.034423828,-0.98223877,-0.009338379,0.203125,0.25,0.265625
1696244799710,0.029052734,-0.9907837,-0.018615723,0.0625,0.078125,0.265625
1696244799751,0.04321289,-0.9854126,-0.015197754,-0.03125,0.09375,0.4375
1696244799791,0.036132812,-0.98394775,-0.009338379,-0.046875,-0.34375,0.3125
1696244799829,0.04248047,-0.9741821,-0.020812988,-0.203125,-0.140625,0.515625
1696244799870,0.03491211,-0.9819946,-0.0056762695,0.25,-0.25,0.296875
1696244799911,0.04272461,-0.98150635,-0.014221191,0.046875,-0.375,0.515625
1696244799950,0.040283203,-0.97857666,-0.018371582,-0.015625,-0.34375,0.453125
1696244799992,0.040527344,-0.991272,-0.011291504,1.046875,-1.234375,0.375
1696244800031,0.03955078,-0.9846802,-6.1035156E-5,0.765625,-0.921875,0.390625
1696244800071,0.041748047,-0.98809814,-0.03668213,-0.8125,-0.34375,0.515625
1696244800110,0.048583984,-0.9783325,-0.005432129,0.5,-0.40625,0.328125
1696244800151,0.029541016,-0.99224854,-0.019836426,0.1875,-0.390625,0.09375
1696244800193,0.033447266,-0.98809814,-0.020080566,0.09375,-0.375,0.046875
1696244800231,0.032226562,-0.9849243,-0.0115356445,0.125,-0.078125,0.453125
1696244800271,0.03515625,-0.9817505,-0.017150879,-0.171875,-0.484375,0.140625
1696244800310,0.05102539,-0.9885864,-0.014953613,0.1875,-0.75,0.8125
1696244800350,0.047607422,-0.98394775,-0.015930176,-0.40625,-0.4375,0.046875
1696244800390,0.043701172,-0.9800415,-0.014953613,-0.046875,-0.34375,0.546875
1696244800430,0.037841797,-0.9924927,-0.0178833,-0.25,-0.609375,0.625
1696244800471,0.045654297,-0.9849243,-0.012268066,-0.453125,-0.5,0.359375
1696244800510,0.036865234,-0.98321533,-0.015930176,-0.046875,-0.546875,-0.03125
1696244800551,0.031982422,-0.98321533,-0.018127441,0.328125,-0.28125,0.40625
1696244800593,0.045654297,-0.991272,-0.022277832,0.015625,-0.3125,0.328125
1696244800633,0.037841797,-0.9873657,-0.0134887695,0.015625,-0.421875,0.15625
1696244800672,0.042236328,-0.99053955,-0.0095825195,0.046875,-0.609375,0.375
1696244800688,0.045654297,-0.9812622,-0.010803223,0.078125,-0.40625,0.1875
1696244800733,0.038330078,-0.97735596,-0.0178833,0.34375,-0.890625,0.296875
1696244800770,0.042236328,-0.9902954,-0.023498535,-0.015625,-0.515625,0.203125
1696244800832,0.04321289,-0.9783325,-0.02178955,0.0,-1.171875,0.1875
1696244800871,0.04638672,-0.9829712,-0.008361816,0.453125,-0.734375,0.40625
1696244800889,0.04711914,-0.9776001,-0.031555176,-0.671875,-0.09375,0.0
1696244800933,0.040039062,-0.9902954,-0.014953613,0.4375,-0.34375,0.0625
1696244800973,0.03125,-0.9944458,-0.019104004,0.125,-0.75,0.140625
1696244801013,0.047607422,-0.98028564,-0.021057129,0.09375,-0.046875,0.046875
1696244801049,0.033447266,-0.98101807,-0.016662598,0.046875,-0.65625,0.03125
1696244801091,0.029785156,-0.9776001,-0.02545166,-0.1875,-0.765625,0.078125
1696244801130,0.04296875,-0.98883057,-0.018859863,0.15625,-0.359375,0.0625
1696244801171,0.04638672,-0.9795532,-0.028869629,-0.046875,-0.34375,-0.15625
1696244801211,0.04296875,-0.9837036,-0.0064086914,0.4375,-0.265625,0.328125
1696244801252,0.03564453,-0.98883057,-0.028137207,-0.0625,-0.90625,0.5
1696244801290,0.036621094,-0.98272705,-0.011291504,0.09375,-0.703125,0.25
1696244801333,0.029541016,-1.000061,-0.023498535,0.0,-0.65625,0.5
1696244801372,0.035888672,-0.97857666,-0.016662598,-0.265625,-0.328125,0.109375
1696244801410,0.049072266,-0.99102783,-0.023742676,-0.046875,-0.375,0.484375
1696244801450,0.04272461,-0.9812622,-0.014465332,-0.1875,-0.265625,0.28125
1696244801490,0.034423828,-0.9885864,-0.023010254,0.015625,-0.5,0.421875
1696244801552,0.040527344,-0.9793091,-0.016418457,-0.125,-0.078125,0.578125
1696244801592,0.03955078,-0.986145,-0.013000488,-0.375,0.09375,0.265625
1696244801609,0.044921875,-0.97003174,-0.020812988,-0.4375,0.359375,0.21875
1696244801674,0.04272461,-0.986145,-0.008361816,0.546875,-0.625,0.609375
1696244801713,0.041259766,-0.97735596,-0.008605957,0.1875,-0.015625,0.0625
1696244801729,0.052490234,-0.98272705,-0.032043457,-0.09375,-0.46875,0.578125
1696244801791,0.043701172,-0.97662354,-0.014953613,-0.28125,0.03125,0.015625
1696244801808,0.041503906,-1.00177,-0.02154541,-0.015625,-0.734375,0.40625
1696244801853,0.044677734,-0.9846802,-0.01739502,-0.421875,-0.453125,0.09375
1696244801890,0.031982422,-0.98931885,-0.0017700195,-0.125,-0.765625,0.703125
1696244801930,0.04248047,-0.97979736,-0.020080566,-0.796875,0.109375,0.171875
1696244801990,0.068847656,-0.98101807,-0.028625488,-0.703125,0.15625,-0.15625
1696244802010,0.044189453,-0.98760986,-0.016174316,-0.828125,-0.125,0.078125
1696244802032,0.04736328,-0.9920044,-0.0256958,-0.71875,0.109375,-0.28125
1696244802073,0.042236328,-0.989563,-0.015686035,-0.328125,-0.484375,-0.203125
1696244802110,0.02734375,-0.9854126,-0.015930176,-0.453125,-0.578125,0.1875
1696244802151,0.044921875,-0.9812622,-0.0134887695,-0.75,-0.546875,-0.03125
1696244802190,0.01953125,-0.97613525,-0.011779785,0.140625,-0.515625,0.296875
1696244802234,0.044677734,-0.9807739,0.006286621,0.4375,0.546875,0.078125
1696244802269,0.032958984,-0.9956665,-0.013000488,-0.28125,-0.3125,0.15625
1696244802310,0.044677734,-0.9907837,-0.0015258789,-0.3125,-0.484375,-0.25
1696244802350,0.03466797,-0.9898071,-0.011291504,-0.375,-0.96875,0.125
1696244802392,0.036865234,-0.9885864,-0.003967285,0.015625,-0.1875,0.453125
1696244802431,0.040283203,-0.97369385,-0.020812988,-0.359375,-0.125,-0.015625
1696244802470,0.03881836,-0.9795532,-0.0056762695,0.15625,-0.328125,0.125
1696244802512,0.039794922,-0.9824829,-0.008117676,0.125,-0.921875,0.46875
1696244802555,0.044433594,-0.9812622,-0.027893066,-0.859375,0.234375,-0.09375
1696244802593,0.028808594,-0.9846802,-0.0071411133,0.875,-0.625,0.40625
1696244802631,0.030273438,-1.0071411,-0.0134887695,0.0625,-0.578125,-0.265625
1696244802670,0.052001953,-0.9817505,-0.016662598,0.03125,0.0,-0.171875
1696244802710,0.027832031,-0.989563,-0.015197754,-0.171875,-0.703125,0.203125
1696244802750,0.03540039,-0.98760986,-0.016174316,-0.53125,-0.296875,-0.015625
1696244802790,0.049560547,-0.9902954,-0.020812988,-0.703125,-0.46875,0.03125
1696244802830,0.041992188,-0.9788208,-0.012268066,-0.46875,-0.140625,0.328125
1696244802871,0.040283203,-0.97442627,-0.012023926,-0.4375,-0.15625,-0.125
1696244802914,0.032958984,-0.97613525,-0.015197754,-0.078125,-0.25,0.046875
1696244802951,0.040283203,-0.989563,-0.013000488,0.25,-0.578125,0.078125
1696244802991,0.036376953,-0.9902954,-0.012023926,0.03125,-0.71875,-0.09375
1696244803033,0.028320312,-0.987854,-0.008605957,0.53125,-0.921875,0.09375
1696244803071,0.03466797,-0.99053955,-5.493164E-4,0.28125,-0.71875,-0.203125
1696244803112,0.04345703,-0.99420166,-0.0015258789,-0.125,-2.0625,0.21875
1696244803152,0.030517578,-0.9902954,-0.0049438477,-0.828125,-4.328125,0.03125
1696244803190,0.01586914,-0.97613525,-0.008117676,-2.0625,-2.15625,0.5
1696244803229,0.017578125,-0.97735596,0.005554199,-2.5,-1.046875,0.3125
1696244803269,0.040283203,-0.99224854,0.0045776367,-2.90625,-0.546875,-0.453125
1696244803354,0.040039062,-0.98565674,-0.019104004,-2.375,-0.984375,0.03125
1696244803358,0.040283203,-0.97784424,-0.0071411133,-1.453125,-0.265625,0.015625
1696244803369,0.05419922,-0.98687744,-0.006652832,-0.375,-0.484375,0.34375
1696244803411,0.044921875,-0.9788208,-0.0134887695,0.203125,0.1875,-0.453125
1696244803471,0.025634766,-0.9956665,0.00579834,1.515625,-1.453125,0.40625
1696244803489,0.037597656,-0.96954346,0.0014038086,1.109375,-0.671875,-0.71875
1696244803554,0.03564453,-0.98516846,1.8310547E-4,1.078125,-2.03125,0.21875
1696244803569,0.031982422,-0.9727173,0.001159668,0.234375,-1.390625,-0.296875
1696244803632,0.032958984,-0.9717407,-3.0517578E-4,-0.40625,-0.921875,-0.328125
1696244803651,0.024414062,-0.99591064,0.0026245117,0.09375,-1.90625,0.296875
1696244803691,0.037109375,-0.9898071,0.0072631836,-0.203125,-1.46875,-0.140625
1696244803751,0.025390625,-0.9976196,0.005065918,-0.109375,-1.03125,0.15625
1696244803789,0.017822266,-1.0027466,-0.003967285,-0.328125,-0.875,0.3125
1696244803810,0.033691406,-0.9890747,0.008972168,-0.328125,-0.3125,0.078125
1696244803872,0.026123047,-0.9817505,0.0053100586,0.046875,-0.328125,-0.09375
1696244803914,0.025146484,-0.975647,0.011657715,-0.171875,-0.515625,0.265625
1696244803929,0.03491211,-0.9859009,-0.0076293945,0.109375,-0.890625,0.125
1696244803970,0.03955078,-0.9849243,0.017028809,0.640625,-0.828125,0.328125
1696244804013,0.038085938,-0.986145,-0.020568848,-1.375,0.09375,0.3125
1696244804051,0.045410156,-0.9746704,0.0053100586,0.015625,-0.15625,-0.359375
1696244804091,0.018066406,-1.0081177,0.010925293,0.796875,-1.515625,0.234375
1696244804132,0.032714844,-0.9746704,0.0060424805,0.1875,-0.59375,0.09375
1696244804171,0.02368164,-0.99053955,0.008483887,0.28125,-0.890625,0.15625
1696244804212,0.019042969,-0.98809814,-0.0032348633,-0.25,-0.5,0.09375
1696244804254,0.040283203,-0.9898071,-0.004211426,-0.390625,-0.265625,-0.015625
1696244804292,0.030517578,-0.9937134,-0.010559082,-0.46875,-0.125,0.078125
1696244804331,0.02734375,-0.98565674,0.011413574,0.46875,-0.140625,0.171875
1696244804370,0.01928711,-0.9927368,0.00579834,0.078125,-0.0625,0.453125
1696244804430,0.03540039,-0.9793091,0.0036010742,-0.15625,0.015625,0.109375
1696244804449,0.028564453,-0.9829712,1.8310547E-4,0.03125,-0.546875,0.375
1696244804489,0.030517578,-0.9854126,0.00579834,-0.265625,-0.484375,0.65625
1696244804530,0.037841797,-0.98272705,0.0028686523,-0.015625,-0.25,0.28125
1696244804571,0.024902344,-0.9885864,-0.0022583008,-0.078125,-0.25,0.21875
1696244804653,0.022949219,-0.9898071,0.00579834,0.125,-0.5,0.265625
1696244804660,0.027832031,-0.9890747,0.011169434,0.5625,-0.6875,0.28125
1696244804668,0.036865234,-0.98565674,-0.012512207,-0.84375,0.59375,-0.03125
1696244804711,0.028320312,-0.9817505,0.007019043,0.46875,-0.078125,0.046875
1696244804751,0.017333984,-0.9927368,0.0021362305,0.1875,-0.375,-0.015625
1696244804791,0.032470703,-0.9866333,6.713867E-4,0.40625,-0.15625,0.265625
1696244804830,0.031982422,-0.987854,9.1552734E-4,0.015625,-0.015625,0.09375
1696244804870,0.026611328,-0.9800415,-0.006652832,-0.328125,-0.15625,-0.171875
1696244804911,0.03515625,-0.99053955,-0.0051879883,-0.1875,-0.390625,0.21875
1696244804950,0.03466797,-0.97857666,-0.0025024414,-0.328125,-0.75,-0.296875
1696244804992,0.02734375,-0.99053955,0.0014038086,-0.140625,-0.84375,0.1875
1696244805030,0.029541016,-0.99053955,0.0014038086,-0.296875,-0.765625,0.265625
1696244805072,0.030761719,-0.98565674,1.8310547E-4,0.1875,-0.234375,0.265625
1696244805112,0.02758789,-0.9854126,0.0048217773,0.171875,-0.265625,0.046875
1696244805150,0.029541016,-0.9871216,0.005065918,0.171875,-0.046875,0.171875
1696244805191,0.03564453,-0.986145,0.002380371,0.140625,-0.078125,0.25
1696244805234,0.02319336,-0.98321533,0.0026245117,0.046875,-0.46875,0.390625
1696244805271,0.024169922,-0.9973755,-0.0029907227,0.265625,-0.453125,0.5625
1696244805311,0.022705078,-0.98223877,0.022399902,0.5625,-0.171875,0.484375
1696244805350,0.028320312,-0.9915161,-0.0071411133,-0.34375,-1.1875,0.96875
1696244805390,0.037353516,-0.9807739,4.272461E-4,-0.265625,-2.125,-0.046875
1696244805431,0.0061035156,-0.9927368,0.007751465,-0.921875,-3.21875,0.984375
1696244805469,0.029296875,-1.0025024,0.0053100586,-1.546875,-1.03125,0.84375
1696244805511,0.029052734,-0.9885864,0.010925293,-0.40625,-0.984375,0.671875
1696244805552,0.029296875,-0.98931885,6.713867E-4,-0.6875,-0.40625,1.53125
1696244805589,0.036865234,-0.99298096,1.8310547E-4,0.328125,-0.421875,1.265625
1696244805631,0.03930664,-0.9849243,-0.010803223,-0.375,-0.3125,1.359375
1696244805669,0.030761719,-0.9883423,0.015319824,-0.40625,-0.328125,0.859375
1696244805709,0.029052734,-0.9841919,0.005065918,-0.515625,0.109375,0.515625
1696244805749,0.040283203,-0.98101807,0.008483887,-0.390625,0.96875,1.15625
1696244805790,0.044921875,-0.9849243,0.0028686523,0.0,0.34375,0.8125
1696244805830,0.041015625,-0.98638916,0.010681152,-0.703125,-0.09375,0.28125
1696244805871,0.030517578,-0.99542236,0.015808105,-1.515625,0.5625,0.65625
1696244805910,0.043945312,-0.9885864,-0.004699707,-0.703125,0.328125,0.765625
1696244805951,0.041015625,-0.98321533,0.010925293,0.125,-0.078125,0.171875
1696244805969,0.03955078,-0.99713135,0.007019043,-0.484375,0.3125,0.8125
1696244806033,0.040283203,-0.9780884,-0.005432129,0.421875,-1.0625,0.109375
1696244806050,0.04248047,-0.97491455,0.008483887,-0.0625,-0.03125,0.0625
1696244806091,0.03100586,-0.9961548,0.009460449,1.015625,-0.859375,0.3125
1696244806152,0.039794922,-0.98565674,0.0060424805,0.375,-0.71875,0.21875
1696244806170,0.04345703,-0.97857666,0.011169434,0.921875,-1.203125,0.234375
1696244806214,0.037353516,-0.9841919,-7.9345703E-4,1.1875,-1.625,0.234375
1696244806253,0.048828125,-0.98516846,0.011413574,1.625,-1.46875,0.5625
1696244806289,0.044921875,-0.98760986,0.00970459,-0.109375,-1.0625,0.453125
1696244806330,0.04248047,-0.9859009,0.008239746,-0.46875,-0.828125,0.453125
1696244806392,0.037597656,-0.9949341,0.00970459,0.453125,-1.0625,0.4375
1696244806410,0.041015625,-0.99224854,0.0036010742,-0.078125,-0.640625,0.234375
1696244806451,0.03540039,-0.989563,0.0119018555,0.015625,-0.671875,0.171875
1696244806492,0.040771484,-0.9829712,0.011169434,-0.375,-0.796875,0.203125
1696244806552,0.041259766,-0.98809814,0.005065918,-0.078125,-0.796875,0.453125
1696244806571,0.043701172,-0.9817505,0.0099487305,-0.09375,-0.421875,0.328125
1696244806611,0.03930664,-0.98321533,0.018005371,0.453125,-1.140625,0.484375
1696244806652,0.043701172,-0.98272705,-5.493164E-4,-0.734375,-0.296875,-0.078125
1696244806712,0.040771484,-0.991272,-5.493164E-4,0.640625,-1.078125,0.796875
1696244806729,0.055908203,-0.9763794,-0.0020141602,-1.109375,0.40625,0.03125
1696244806773,0.035888672,-0.9902954,0.01776123,0.625,-0.953125,0.46875
1696244806833,0.040771484,-0.9924927,0.010925293,-0.390625,-0.671875,0.265625
1696244806849,0.044921875,-0.9829712,0.0072631836,-0.125,-0.40625,0.234375
1696244806914,0.04248047,-0.98321533,0.0033569336,0.234375,-0.5625,0.0
1696244806929,0.033935547,-0.9846802,0.019226074,0.578125,-1.03125,0.421875
1696244806971,0.041992188,-0.9854126,-0.0051879883,-0.34375,-0.4375,0.296875
1696244807011,0.041748047,-0.9771118,-3.0517578E-4,-0.5625,0.0625,0.109375
1696244807051,0.03564453,-1.0022583,0.019958496,0.09375,-0.734375,0.453125
1696244807093,0.04272461,-0.986145,0.008728027,-0.53125,-0.703125,0.0
1696244807131,0.047851562,-0.9849243,-0.004211426,-0.328125,-0.28125,0.21875
1696244807171,0.040283203,-0.9859009,0.0079956055,0.015625,-0.390625,0.28125
1696244807231,0.04296875,-0.9902954,0.009460449,-0.078125,-0.234375,0.03125
1696244807252,0.039794922,-0.9788208,0.0065307617,-0.15625,-0.15625,-0.046875
1696244807269,0.041259766,-0.9841919,0.012634277,-0.125,-0.25,0.15625
1696244807312,0.04248047,-0.9807739,-3.0517578E-4,-0.34375,0.03125,0.15625
1696244807352,0.03466797,-0.98687744,0.0072631836,0.15625,-1.453125,0.375
1696244807391,0.044433594,-0.99176025,0.015319824,0.4375,-0.90625,0.265625
1696244807430,0.052734375,-0.9837036,-0.0044555664,-1.140625,0.328125,0.3125
1696244807471,0.04248047,-0.97906494,0.010681152,0.046875,-0.203125,-0.140625
1696244807513,0.028076172,-1.0015259,0.0038452148,0.3125,-0.734375,0.296875
1696244807550,0.043701172,-0.97735596,0.0048217773,-0.125,-0.328125,-0.046875
1696244807593,0.040771484,-0.9859009,0.006286621,-0.3125,-0.34375,0.0625
1696244807630,0.032958984,-0.9849243,0.009460449,-0.625,-0.28125,-0.078125
1696244807674,0.038085938,-0.9902954,0.0072631836,0.46875,-1.0625,0.5625
1696244807710,0.043701172,-0.9763794,-0.004211426,-1.234375,0.359375,-0.015625
1696244807750,0.041992188,-0.9956665,0.0119018555,-0.125,-0.5,0.359375
1696244807792,0.034179688,-0.9866333,0.016296387,0.078125,-0.40625,0.0625
1696244807831,0.039794922,-0.9873657,0.007751465,-0.1875,-0.34375,0.921875
1696244807872,0.04321289,-0.99176025,0.00579834,0.21875,0.203125,0.515625
1696244807911,0.037109375,-0.97906494,0.013122559,-0.1875,-0.328125,0.53125
1696244807952,0.036132812,-0.9854126,0.005554199,-0.125,-0.65625,0.296875
1696244807990,0.03491211,-0.98272705,0.013366699,-0.03125,-0.15625,0.453125
1696244808031,0.041748047,-0.98883057,0.008483887,0.453125,-0.90625,0.546875
1696244808072,0.03540039,-0.9871216,0.008972168,0.6875,-0.640625,0.1875
1696244808110,0.037109375,-0.9834595,0.007751465,-0.03125,-0.671875,0.453125
1696244808151,0.037109375,-0.9871216,0.015808105,-0.34375,-0.578125,0.015625
1696244808191,0.041015625,-0.991272,0.012390137,-0.078125,-0.5,0.515625
1696244808230,0.037109375,-0.98931885,0.013122559,0.3125,-1.109375,0.375
1696244808271,0.041992188,-0.97540283,0.02557373,0.03125,-0.25,0.234375
1696244808313,0.043701172,-0.98150635,0.0036010742,-0.8125,-0.640625,0.515625
1696244808351,0.041259766,-0.96954346,0.009460449,-0.703125,0.09375,-0.3125
1696244808391,0.03881836,-0.9968872,0.013122559,0.9375,-1.109375,0.546875
1696244808430,0.041259766,-0.9871216,0.013122559,-0.109375,-0.375,0.046875
1696244808471,0.042236328,-0.99053955,0.013366699,-0.140625,-0.1875,-0.046875
1696244808511,0.044921875,-0.9883423,0.011169434,-0.265625,-0.359375,-0.046875
1696244808553,0.038085938,-0.9763794,0.019958496,0.109375,-0.671875,0.1875
1696244808591,0.041503906,-0.97613525,-0.010314941,-1.25,0.296875,-0.09375
1696244808610,0.05102539,-0.9873657,0.018737793,0.15625,0.3125,-0.09375
1696244808653,0.036865234,-1.0005493,0.010925293,0.4375,-0.546875,0.140625
1696244808712,0.041259766,-0.98028564,0.012145996,0.34375,-0.6875,-0.203125
1696244808729,0.038330078,-0.9834595,0.010925293,0.015625,-0.53125,-0.078125
1696244808771,0.03540039,-0.98931885,0.0119018555,-0.03125,-0.296875,-0.171875
1696244808814,0.036621094,-0.98809814,0.008483887,0.203125,-0.71875,-0.03125
1696244808851,0.038330078,-0.98760986,0.013122559,0.15625,-0.234375,-0.03125
1696244808890,0.037109375,-0.98931885,0.008972168,0.28125,-0.5,0.1875
1696244808949,0.032226562,-0.9871216,0.008483887,0.15625,-0.328125,0.0625
1696244808992,0.025146484,-0.98687744,9.1552734E-4,0.34375,-0.28125,0.03125
1696244809010,0.03955078,-0.99053955,0.00970459,0.078125,-0.421875,0.125
1696244809052,0.040527344,-0.9788208,0.01361084,0.6875,0.3125,-0.078125
1696244809091,0.037841797,-0.98565674,1.8310547E-4,0.328125,-0.28125,0.1875
1696244809151,0.045898438,-0.98931885,0.0119018555,0.375,-0.34375,-0.0625
1696244809191,0.041992188,-0.99176025,0.016052246,1.296875,-0.5625,0.390625
1696244809209,0.043701172,-0.9859009,-0.011291504,-0.890625,0.59375,-0.1875
1696244809250,0.031982422,-0.98394775,0.010681152,1.15625,-0.515625,0.25
1696244809290,0.032470703,-0.9949341,0.0045776367,0.953125,-1.078125,0.265625
1696244809350,0.030761719,-0.9927368,0.0040893555,0.234375,-0.421875,-0.078125
1696244809371,0.036621094,-0.9854126,0.005554199,0.5,-0.203125,0.046875
1696244809411,0.036621094,-0.97662354,-0.0017700195,0.171875,-0.46875,-0.015625
1696244809470,0.03881836,-0.989563,-0.0010375977,0.0625,-0.8125,0.390625
1696244809492,0.037597656,-0.98321533,-0.0025024414,-0.3125,-0.140625,0.171875
1696244809551,0.030029297,-0.9866333,0.009460449,-0.09375,-0.546875,0.234375
1696244809593,0.029296875,-0.99420166,0.002380371,0.90625,-0.5,0.109375
1696244809610,0.041992188,-0.9841919,-0.0025024414,0.265625,-0.140625,0.296875
1696244809649,0.026367188,-0.9776001,-6.1035156E-5,-0.1875,-0.265625,0.078125
1696244809714,0.03466797,-0.98223877,0.0072631836,0.25,-0.40625,0.3125
1696244809730,0.036621094,-0.9873657,-0.0020141602,0.328125,-0.453125,0.109375
1696244809771,0.03930664,-0.991272,-0.0037231445,0.03125,-0.28125,0.15625
1696244809812,0.037841797,-0.989563,0.0026245117,0.078125,-0.71875,0.625
1696244809851,0.032470703,-0.98223877,-0.0051879883,-0.46875,-0.171875,0.40625
1696244809892,0.037109375,-0.9829712,-0.002746582,-0.5625,-0.3125,0.421875
1696244809909,0.028320312,-0.98321533,0.0060424805,0.046875,-0.40625,0.53125
1696244809952,0.04345703,-0.9866333,-0.0056762695,-0.234375,-0.0625,0.3125
1696244809992,0.032714844,-0.99005127,-0.008117676,0.15625,-0.734375,0.390625
1696244810031,0.041503906,-0.98272705,0.014831543,0.59375,-0.65625,0.28125
1696244810070,0.037597656,-0.9837036,-0.013000488,-0.640625,-0.015625,0.546875
1696244810112,0.03125,-0.97979736,0.0036010742,0.140625,-0.328125,0.1875
1696244810152,0.03149414,-0.9949341,-0.004699707,0.046875,-0.328125,0.265625
1696244810193,0.03515625,-0.9873657,0.0014038086,0.046875,-0.1875,0.1875
1696244810231,0.035888672,-0.9890747,0.001159668,-0.1875,-0.03125,0.34375
1696244810271,0.045166016,-0.98638916,-0.003967285,-0.46875,-0.265625,0.203125
1696244810311,0.044433594,-0.99102783,-0.002746582,-0.390625,-0.5,0.40625
1696244810350,0.04272461,-0.9771118,-0.004211426,-0.59375,-0.1875,0.109375
1696244810391,0.03491211,-0.9817505,1.8310547E-4,0.421875,-0.59375,0.5625
1696244810430,0.029296875,-0.99713135,0.00579834,0.53125,-0.765625,0.65625
1696244810471,0.036865234,-0.989563,-0.007873535,0.34375,-0.5625,0.625
1696244810513,0.041259766,-0.98272705,-0.0076293945,0.5,-0.609375,0.09375
1696244810553,0.038085938,-0.9812622,-0.006652832,0.453125,-0.453125,0.34375
1696244810591,0.0390625,-0.98638916,-0.007385254,0.0625,-0.25,0.3125
1696244810631,0.044433594,-0.9937134,-0.0071411133,0.03125,-0.1875,0.5
1696244810670,0.03930664,-0.9783325,-0.004211426,0.140625,-0.421875,0.296875
1696244810714,0.033691406,-0.98028564,-0.0051879883,0.140625,-0.515625,0.46875
1696244810752,0.049072266,-0.986145,-6.1035156E-5,0.25,-0.296875,0.5625
1696244810792,0.04248047,-0.98101807,0.0016479492,0.015625,-0.359375,0.359375
1696244810832,0.04321289,-0.991272,-0.0056762695,0.359375,-0.421875,0.484375
1696244810870,0.036865234,-0.99224854,-0.008117676,0.34375,-0.921875,0.40625
1696244810911,0.04663086,-0.98394775,0.007507324,0.53125,-0.5,0.234375
1696244810951,0.036621094,-0.9829712,-0.023010254,-0.71875,0.0625,0.28125
1696244810990,0.048583984,-0.9780884,-0.00592041,-0.125,0.171875,0.171875
1696244811033,0.03881836,-0.9907837,-0.006652832,0.40625,-0.375,0.109375
1696244811070,0.05126953,-0.9849243,-0.00592041,-0.125,-0.140625,-0.0625
1696244811110,0.041015625,-0.98760986,-0.00592041,0.09375,-0.453125,0.15625
1696244811152,0.037109375,-0.9837036,-0.010314941,0.078125,-0.515625,0.09375
1696244811191,0.046142578,-0.9885864,-0.022766113,-0.28125,-0.40625,0.21875
1696244811211,0.04248047,-0.98809814,-0.00592041,-0.03125,-0.34375,0.265625
1696244811253,0.036865234,-0.98883057,-0.0012817383,0.234375,-0.328125,0.265625
1696244811294,0.033447266,-0.99053955,-0.0012817383,0.03125,-0.21875,0.4375
1696244811331,0.047607422,-0.99053955,-0.00592041,-0.1875,-0.375,0.234375
1696244811392,0.036621094,-0.98150635,-0.012512207,-0.0625,-0.265625,0.28125
1696244811432,0.040771484,-0.98101807,-0.0076293945,0.09375,-0.21875,0.34375
1696244811450,0.047607422,-0.98638916,-0.012023926,0.0625,-0.265625,0.21875
1696244811513,0.041748047,-0.98687744,-0.0071411133,0.140625,-0.265625,0.25
1696244811529,0.035888672,-0.9837036,-0.007873535,0.15625,-0.265625,0.34375
1696244811595,0.045166016,-0.99053955,-0.0095825195,0.203125,-0.203125,0.4375
1696244811610,0.037353516,-0.9800415,-0.014465332,0.453125,-0.03125,0.34375
1696244811653,0.038330078,-0.987854,-0.009338379,0.03125,0.21875,0.515625
1696244811691,0.040527344,-0.99053955,-0.0010375977,0.40625,-0.53125,0.265625
1696244811731,0.04296875,-0.986145,-0.011779785,0.109375,-0.140625,0.265625
1696244811792,0.04272461,-0.9795532,-0.023010254,0.03125,-0.546875,0.5625
1696244811831,0.049316406,-0.97320557,-0.009094238,-0.46875,0.046875,0.171875
1696244811871,0.03955078,-0.9890747,-0.015930176,0.234375,-0.53125,0.546875
1696244811890,0.04296875,-0.9907837,-0.0115356445,0.234375,0.015625,-0.03125
1696244811933,0.04638672,-0.9873657,-0.012023926,0.015625,-0.421875,0.28125
1696244811973,0.039794922,-0.98516846,-0.009094238,0.125,-0.15625,0.015625
1696244812012,0.04248047,-0.98272705,-0.0037231445,0.546875,-0.59375,0.1875
1696244812059,0.038330078,-0.9846802,-0.016418457,-0.140625,-0.734375,0.015625
1696244812089,0.041992188,-0.98687744,-0.008605957,0.015625,-0.390625,0.109375
1696244812133,0.03466797,-0.98809814,-0.005432129,0.15625,-1.03125,-0.015625
1696244812173,0.048339844,-0.98272705,-0.00982666,-0.390625,-0.9375,0.078125
1696244812214,0.041259766,-0.9829712,-0.0056762695,0.1875,-0.921875,0.375
1696244812275,0.037597656,-0.98321533,-0.0154418945,-0.328125,-0.46875,0.09375
1696244812291,0.043945312,-0.98321533,-0.010559082,-0.484375,-0.71875,0.3125
1696244812333,0.03125,-0.98809814,-0.007385254,-0.03125,-0.46875,-0.125
1696244812391,0.042236328,-0.98687744,-0.010070801,-0.296875,-0.734375,0.3125
1696244812410,0.041259766,-0.99005127,-0.0068969727,0.0,-0.46875,0.109375
1696244812453,0.04272461,-0.9841919,-0.010314941,0.0,-0.53125,0.125
1696244812490,0.036621094,-0.99005127,0.0016479492,0.359375,-1.03125,0.140625
1696244812531,0.04345703,-0.9890747,-0.0051879883,-0.5,-0.421875,0.125
1696244812550,0.046142578,-0.9871216,-0.014709473,-0.625,-1.296875,0.28125
1696244812594,0.037597656,-0.98394775,0.0038452148,-0.390625,-0.921875,0.171875
1696244812631,0.038085938,-0.9915161,0.0014038086,-0.53125,-1.046875,0.765625
1696244812673,0.041992188,-0.9885864,-0.0025024414,-0.859375,-1.484375,0.5625
1696244812714,0.042236328,-0.98516846,-0.0029907227,-0.984375,-1.78125,0.609375
1696244812753,0.030029297,-0.97979736,9.1552734E-4,0.0,-2.109375,0.734375
1696244812793,0.048583984,-0.9854126,-0.006652832,-0.765625,-0.90625,0.921875
1696244812834,0.05053711,-0.9783325,-0.006652832,-1.0,-1.234375,0.546875
1696244812873,0.045654297,-0.9871216,-0.008850098,-0.421875,-1.265625,0.953125
1696244812914,0.046142578,-0.97906494,-0.0029907227,-0.59375,-0.59375,0.234375
1696244812950,0.05126953,-0.9837036,1.8310547E-4,-0.21875,-0.375,0.484375
1696244812991,0.049316406,-0.9829712,-0.0051879883,0.625,-0.59375,0.265625
1696244813034,0.055908203,-0.9859009,-0.0051879883,0.375,-0.703125,0.4375
1696244813070,0.05126953,-0.9837036,-0.0154418945,0.4375,-0.375,-0.15625
1696244813113,0.047607422,-0.9890747,-0.004699707,-0.09375,-0.078125,0.125
1696244813151,0.05859375,-0.9854126,-7.9345703E-4,0.03125,-0.171875,-0.015625
1696244813190,0.041015625,-0.98809814,-0.0115356445,0.03125,-0.859375,0.109375
1696244813234,0.04296875,-0.9793091,0.0060424805,0.546875,-0.59375,0.125
1696244813274,0.05493164,-0.9883423,-0.013244629,-0.890625,0.265625,-0.109375
1696244813313,0.043701172,-0.98760986,0.00970459,0.5,-0.984375,-0.140625
1696244813351,0.037109375,-0.9841919,6.713867E-4,0.34375,-0.59375,0.09375
1696244813391,0.05053711,-0.98321533,0.0026245117,0.21875,0.25,0.109375
1696244813433,0.044433594,-0.98760986,0.005554199,-0.421875,-0.171875,0.1875
1696244813473,0.041259766,-0.98321533,-0.0010375977,-0.484375,-0.359375,-0.28125
1696244813510,0.045898438,-0.98223877,-0.003479004,-0.109375,-0.890625,0.515625
1696244813551,0.055664062,-0.9849243,-0.008850098,-0.28125,-0.28125,-0.0625
1696244813592,0.044433594,-0.9859009,9.1552734E-4,0.046875,-0.40625,0.078125
1696244813633,0.041015625,-0.9866333,0.0028686523,-0.046875,-0.359375,0.203125
1696244813671,0.045410156,-0.9819946,-0.0017700195,0.03125,-0.515625,0.28125
1696244813711,0.04345703,-0.9883423,-0.00592041,0.234375,-0.421875,0.1875
1696244813750,0.044189453,-0.9824829,0.00579834,0.265625,-0.1875,0.09375
1696244813794,0.048583984,-0.9920044,-0.0012817383,-0.046875,0.0,0.28125
1696244813853,0.046875,-0.9846802,0.0016479492,-0.046875,-0.125,0.25
1696244813870,0.03930664,-0.98809814,4.272461E-4,-0.09375,-0.34375,0.25
1696244813891,0.049316406,-0.9849243,-0.009094238,-0.09375,0.375,0.171875
1696244813932,0.041259766,-0.9841919,-6.1035156E-5,0.15625,-0.828125,0.328125
1696244813971,0.052490234,-0.9746704,-0.006164551,0.109375,-0.28125,0.171875
1696244814014,0.04272461,-0.9793091,0.0065307617,0.671875,-0.109375,-0.03125
1696244814050,0.03173828,-0.9866333,0.002380371,0.765625,-0.59375,0.078125
1696244814090,0.043701172,-0.9951782,9.1552734E-4,0.546875,-0.09375,0.203125
1696244814154,0.040283203,-0.9885864,-0.007385254,0.265625,-0.328125,0.015625
1696244814172,0.04296875,-0.9807739,0.010925293,0.140625,0.171875,0.3125
1696244814212,0.04272461,-0.9937134,-0.01763916,-0.671875,0.09375,-0.078125
1696244814251,0.041503906,-0.97442627,-0.0020141602,-0.4375,0.28125,0.40625
1696244814290,0.04638672,-0.9846802,-0.0010375977,0.03125,-0.28125,0.15625
1696244814355,0.033935547,-0.9902954,-0.0010375977,0.171875,-0.71875,0.59375
1696244814370,0.040283203,-0.9890747,-0.003967285,0.078125,-0.59375,0.265625
1696244814433,0.03955078,-0.9866333,-0.0022583008,0.125,-0.765625,0.296875
1696244814449,0.045166016,-0.99053955,-0.004211426,-0.296875,-0.28125,0.359375
1696244814513,0.040771484,-0.9834595,-6.1035156E-5,-0.234375,-0.03125,0.203125
1696244814531,0.031982422,-0.9890747,0.002380371,0.0,-0.609375,0.515625
1696244814572,0.041259766,-0.97906494,-0.0037231445,-0.59375,-0.125,0.3125
1696244814612,0.044677734,-0.97857666,-0.012512207,-0.703125,-0.65625,0.375
1696244814674,0.04345703,-0.96832275,-0.0025024414,-0.359375,-0.015625,0.078125
1696244814690,0.040283203,-0.9985962,0.0060424805,0.265625,-0.734375,0.453125
1696244814730,0.041015625,-0.9883423,0.0067749023,-0.109375,-0.328125,0.25
1696244814793,0.033691406,-1.0007935,0.0067749023,-0.9375,-0.515625,1.140625
1696244814809,0.041748047,-0.99224854,0.0036010742,-1.59375,-1.0,0.15625
1696244814852,0.05029297,-0.9788208,0.0067749023,-0.8125,-2.03125,0.65625
1696244814896,0.041992188,-0.97735596,-7.9345703E-4,-0.9375,-0.546875,0.203125
1696244814953,0.057373047,-0.9849243,-0.0015258789,-0.078125,0.34375,0.578125
1696244814969,0.047607422,-0.9924927,0.007019043,0.15625,0.296875,-0.046875
1696244815011,0.041015625,-0.9924927,0.007507324,0.015625,-0.171875,0.140625
1696244815053,0.03955078,-0.98272705,1.8310547E-4,0.53125,0.0625,-0.3125
1696244815091,0.047851562,-0.9871216,-0.0032348633,0.546875,-0.0625,0.09375
1696244815150,0.04345703,-0.9829712,0.0016479492,-0.234375,-0.25,-0.21875
1696244815171,0.048095703,-0.987854,0.005554199,0.15625,-0.25,-0.28125
1696244815191,0.040283203,-0.989563,0.009460449,0.15625,-1.046875,-0.109375
1696244815231,0.045654297,-0.9924927,0.0119018555,-0.0625,-0.765625,-0.125
1696244815270,0.04248047,-0.9885864,-0.0049438477,-0.171875,-1.390625,0.1875
1696244815309,0.049804688,-0.9771118,-6.1035156E-5,-0.234375,-0.046875,-0.328125
1696244815351,0.03125,-1.003479,0.011169434,0.703125,-0.75,-0.1875
1696244815390,0.045654297,-0.9824829,0.001159668,0.15625,-0.140625,-0.1875
