,timestamp,accel_x,accel_y,accel_z,gyro_x,gyro_y,gyro_z,ind
0,1696244256791,0.7429199,-0.07745361,0.68499756,0.15625,-0.421875,0.484375,0
1,1696244256831,0.7441406,-0.07940674,0.69085693,0.46875,-0.921875,0.28125,1
2,1696244256871,0.7363281,-0.06890869,0.6876831,-0.1875,-0.578125,0.015625,2
3,1696244256911,0.7438965,-0.07183838,0.6925659,0.078125,-0.265625,0.203125,3
4,1696244256951,0.7416992,-0.07647705,0.670105,0.703125,-0.25,0.359375,4
5,1696244256991,0.7458496,-0.07965088,0.6923218,0.828125,-0.03125,0.390625,5
6,1696244257031,0.73095703,-0.09283447,0.6947632,2.296875,-1.671875,1.09375,6
7,1696244257071,0.751709,-0.082092285,0.68426514,0.640625,-0.484375,0.71875,7
8,1696244257111,0.73657227,-0.07281494,0.66864014,-0.515625,-0.578125,0.625,8
9,1696244257151,0.75146484,-0.06695557,0.7020874,0.71875,0.125,0.296875,9
10,1696244257191,0.75024414,-0.082336426,0.7003784,1.484375,-0.71875,0.03125,10
11,1696244257231,0.7363281,-0.07989502,0.6732788,-0.59375,-0.015625,-0.234375,11
12,1696244257271,0.75097656,-0.0803833,0.7045288,-0.03125,-0.0625,0.671875,12
13,1696244257311,0.7421875,-0.08331299,0.6893921,-0.015625,-0.828125,0.203125,13
14,1696244257351,0.7414551,-0.074523926,0.6742554,-0.21875,-1.0,0.171875,14
15,1696244257391,0.73828125,-0.08306885,0.67523193,-0.203125,-0.46875,0.3125,15
16,1696244257431,0.75,-0.08404541,0.6774292,-0.96875,0.609375,0.140625,16
17,1696244257471,0.7438965,-0.069885254,0.6950073,0.546875,-0.03125,-0.015625,17
18,1696244257511,0.7421875,-0.07745361,0.68182373,1.40625,-1.25,0.15625,18
19,1696244257551,0.748291,-0.07989502,0.6901245,0.578125,-0.46875,-0.03125,19
20,1696244257591,0.73535156,-0.08502197,0.68182373,0.8125,-0.765625,0.484375,20
21,1696244257631,0.74658203,-0.08648682,0.6876831,0.484375,-0.75,-0.109375,21
22,1696244257671,0.7390137,-0.07867432,0.6911011,0.21875,-0.390625,-0.03125,22
23,1696244257711,0.7438965,-0.07867432,0.7008667,0.359375,-0.375,0.375,23
24,1696244257751,0.7463379,-0.08673096,0.69403076,-0.078125,-0.21875,0.359375,24
25,1696244257791,0.73828125,-0.077941895,0.6954956,-0.328125,-0.375,0.046875,25
26,1696244257831,0.73291016,-0.08062744,0.6871948,-0.140625,-0.453125,0.359375,26
27,1696244257871,0.74194336,-0.082336426,0.68548584,-0.171875,-0.4375,0.171875,27
28,1696244257911,0.73583984,-0.07281494,0.697937,-0.03125,-0.09375,0.296875,28
29,1696244257951,0.7441406,-0.08355713,0.6852417,-0.390625,0.046875,0.359375,29
30,1696244257991,0.75,-0.08282471,0.682312,0.921875,-0.453125,0.4375,30
31,1696244258031,0.74560547,-0.077697754,0.68914795,0.546875,-0.296875,0.34375,31
32,1696244258071,0.736084,-0.07940674,0.668396,-0.375,0.359375,0.203125,32
33,1696244258111,0.7404785,-0.078430176,0.6901245,0.8125,0.625,0.3125,33
34,1696244258151,0.74609375,-0.08502197,0.680603,1.015625,-0.15625,0.390625,34
35,1696244258191,0.751709,-0.08428955,0.680603,1.25,-0.203125,-0.0625,35
36,1696244258231,0.7504883,-0.08013916,0.6893921,1.046875,-0.578125,0.515625,36
37,1696244258271,0.75341797,-0.08282471,0.6911011,0.78125,-1.0,-0.109375,37
38,1696244258311,0.74487305,-0.086242676,0.6881714,0.375,-0.390625,0.390625,38
39,1696244258351,0.748291,-0.08673096,0.6852417,-0.359375,-0.25,0.40625,39
40,1696244258391,0.7446289,-0.085754395,0.68133545,-0.390625,-0.015625,0.3125,40
41,1696244258431,0.7438965,-0.07720947,0.69403076,0.484375,-0.265625,0.390625,41
42,1696244258471,0.7480469,-0.09039307,0.68011475,0.890625,-0.796875,0.28125,42
43,1696244258511,0.7519531,-0.089904785,0.6798706,0.625,-0.46875,0.0625,43
44,1696244258551,0.74780273,-0.07989502,0.68426514,0.40625,-0.6875,0.296875,44
45,1696244258591,0.7463379,-0.08721924,0.68182373,0.25,-0.21875,0.15625,45
46,1696244258631,0.74438477,-0.08526611,0.6810913,0.359375,-0.5,0.109375,46
47,1696244258671,0.7507324,-0.09185791,0.68182373,0.71875,-0.59375,0.296875,47
48,1696244258711,0.74316406,-0.08795166,0.6852417,0.59375,-0.875,0.296875,48
49,1696244258751,0.75097656,-0.09259033,0.680603,0.90625,-1.28125,0.25,49
50,1696244258791,0.7426758,-0.09234619,0.6779175,0.015625,-0.9375,0.140625,50
51,1696244258831,0.73461914,-0.085754395,0.6852417,0.109375,-1.203125,-0.0625,51
52,1696244258871,0.73950195,-0.09259033,0.68963623,0.078125,-2.640625,0.078125,52
53,1696244258911,0.7385254,-0.08477783,0.66986084,-0.34375,-1.484375,0.21875,53
54,1696244258951,0.74121094,-0.09283447,0.6972046,0.3125,-1.34375,0.53125,54
55,1696244258991,0.7504883,-0.09063721,0.68377686,-0.546875,-0.5625,0.15625,55
56,1696244259031,0.73828125,-0.08453369,0.6820679,-0.359375,-0.8125,0.375,56
57,1696244259071,0.73535156,-0.078430176,0.68133545,-1.265625,0.859375,0.09375,57
58,1696244259111,0.7438965,-0.09674072,0.69158936,1.515625,0.03125,-0.015625,58
59,1696244259151,0.7392578,-0.101135254,0.67962646,1.515625,-0.765625,-0.46875,59
60,1696244259191,0.74121094,-0.0869751,0.68914795,0.734375,-1.140625,-0.265625,60
61,1696244259231,0.7390137,-0.08795166,0.71258545,0.171875,-0.90625,-0.296875,61
62,1696244259271,0.7475586,-0.097229004,0.6864624,0.578125,-1.421875,-0.125,62
63,1696244259311,0.73461914,-0.09698486,0.6898804,1.15625,-2.734375,0.375,63
64,1696244259351,0.73706055,-0.101379395,0.68963623,1.3125,-1.765625,0.21875,64
65,1696244259391,0.7380371,-0.08770752,0.6947632,0.875,-0.25,0.296875,65
66,1696244259431,0.72875977,-0.101135254,0.69281006,1.515625,-0.984375,0.3125,66
67,1696244259471,0.73706055,-0.08868408,0.6820679,-1.171875,0.90625,0.140625,67
68,1696244259511,0.7368164,-0.094055176,0.6967163,-0.296875,0.21875,0.1875,68
69,1696244259551,0.7409668,-0.085510254,0.6942749,-0.65625,0.890625,0.046875,69
70,1696244259591,0.748291,-0.08868408,0.696228,-0.125,0.03125,0.421875,70
71,1696244259631,0.73999023,-0.09503174,0.6923218,0.5625,-0.46875,0.203125,71
72,1696244259671,0.7434082,-0.101135254,0.6871948,0.734375,-0.8125,0.453125,72
73,1696244259711,0.7390137,-0.094055176,0.69281006,0.421875,-0.84375,0.4375,73
74,1696244259751,0.73657227,-0.101135254,0.6847534,-0.375,-0.0625,0.15625,74
75,1696244259791,0.7434082,-0.093811035,0.6906128,0.390625,-0.71875,0.0625,75
76,1696244259831,0.74243164,-0.09918213,0.6852417,0.515625,-0.875,0.28125,76
77,1696244259871,0.7385254,-0.09649658,0.6918335,0.375,-0.4375,0.375,77
78,1696244259911,0.7368164,-0.09649658,0.70306396,0.265625,-0.328125,0.609375,78
79,1696244259951,0.7385254,-0.09307861,0.6847534,-0.046875,-0.109375,0.46875,79
80,1696244259991,0.73657227,-0.0960083,0.69647217,0.671875,-0.765625,0.28125,80
81,1696244260031,0.74609375,-0.093811035,0.68084717,-0.53125,0.34375,0.484375,81
82,1696244260071,0.7414551,-0.09210205,0.6991577,0.5,0.171875,0.1875,82
83,1696244260111,0.7397461,-0.09942627,0.6869507,1.0625,-0.5,-0.09375,83
84,1696244260151,0.7458496,-0.09552002,0.6881714,0.765625,-0.46875,-0.25,84
85,1696244260191,0.7429199,-0.09039307,0.7020874,0.703125,-0.59375,0.453125,85
86,1696244260231,0.73291016,-0.097961426,0.69207764,0.0,-1.046875,0.125,86
87,1696244260271,0.7307129,-0.09844971,0.6925659,-0.21875,-0.9375,0.390625,87
88,1696244260311,0.7307129,-0.09869385,0.69818115,-0.34375,-0.328125,0.421875,88
89,1696244260351,0.7302246,-0.09869385,0.6884155,-0.265625,0.28125,0.21875,89
90,1696244260391,0.7297363,-0.09820557,0.69744873,1.421875,-0.734375,0.46875,90
91,1696244260431,0.7336426,-0.101135254,0.68304443,0.25,-0.296875,0.109375,91
92,1696244260471,0.7438965,-0.10015869,0.6972046,-0.65625,-0.0625,0.3125,92
93,1696244260511,0.74609375,-0.09625244,0.7025757,-0.203125,-0.828125,0.3125,93
94,1696244260551,0.7368164,-0.0960083,0.6876831,1.34375,-2.484375,-0.03125,94
95,1696244260591,0.73535156,-0.09429932,0.68548584,0.46875,-0.859375,0.546875,95
96,1696244260631,0.7373047,-0.09967041,0.69525146,0.328125,-1.046875,0.5625,96
97,1696244260671,0.73876953,-0.101135254,0.68499756,-0.1875,-0.484375,0.453125,97
98,1696244260711,0.7446289,-0.09820557,0.67596436,-0.34375,-0.046875,0.109375,98
99,1696244260751,0.736084,-0.105285645,0.68011475,0.15625,-0.046875,-0.1875,99
100,1696244260791,0.7390137,-0.09576416,0.68743896,-0.34375,-0.296875,0.265625,100
101,1696244260831,0.7373047,-0.10235596,0.6835327,-0.03125,-0.5,-0.125,101
102,1696244260871,0.7373047,-0.097717285,0.70599365,1.125,-1.125,0.09375,102
103,1696244260911,0.7402344,-0.09918213,0.68670654,-0.078125,0.34375,0.265625,103
104,1696244260951,0.73413086,-0.09991455,0.68011475,-0.4375,0.328125,0.734375,104
105,1696244260991,0.74560547,-0.09674072,0.6847534,-0.6875,1.0625,0.546875,105
106,1696244261031,0.73461914,-0.09625244,0.6954956,0.78125,0.28125,-0.015625,106
107,1696244261071,0.7421875,-0.109191895,0.69329834,0.53125,-0.484375,-0.0625,107
108,1696244261111,0.74658203,-0.09649658,0.68548584,-0.140625,-0.40625,0.109375,108
109,1696244261151,0.748291,-0.10333252,0.68499756,0.21875,-0.5625,0.234375,109
110,1696244261191,0.7453613,-0.10235596,0.68621826,-0.21875,-0.671875,0.28125,110
111,1696244261231,0.7426758,-0.08746338,0.69207764,-0.578125,-0.03125,0.421875,111
112,1696244261271,0.7421875,-0.09967041,0.6864624,-0.40625,0.421875,0.8125,112
113,1696244261311,0.7416992,-0.10284424,0.6864624,0.421875,-0.140625,0.359375,113
114,1696244261351,0.7438965,-0.112854004,0.68255615,-0.109375,-0.96875,0.390625,114
115,1696244261391,0.7404785,-0.09649658,0.682312,-0.578125,-0.296875,0.75,115
116,1696244261431,0.74121094,-0.10357666,0.6869507,-0.46875,-0.015625,0.453125,116
117,1696244261471,0.7468262,-0.09210205,0.68792725,-0.53125,0.484375,0.421875,117
118,1696244261511,0.74365234,-0.089660645,0.6911011,-0.5,-0.078125,0.609375,118
119,1696244261551,0.7463379,-0.10064697,0.67718506,-0.40625,-0.046875,0.5,119
120,1696244261591,0.73779297,-0.09210205,0.6793823,1.296875,-0.015625,0.328125,141
121,1696244261631,0.7438965,-0.09307861,0.6937866,1.515625,-0.4375,0.296875,142
122,1696244261671,0.73779297,-0.09259033,0.6884155,1.828125,-0.984375,-0.296875,143
123,1696244261711,0.7453613,-0.09869385,0.6906128,1.0,-0.96875,-0.1875,144
124,1696244261751,0.7421875,-0.10015869,0.7037964,1.1875,-1.96875,-0.0625,145
125,1696244261791,0.74731445,-0.10675049,0.67889404,0.125,-0.515625,-0.1875,146
126,1696244261831,0.73950195,-0.10675049,0.6852417,-0.65625,-0.390625,0.359375,147
127,1696244261871,0.732666,-0.10040283,0.68914795,-1.0,0.65625,0.375,148
128,1696244261911,0.7297363,-0.08795166,0.7003784,0.4375,-0.1875,0.15625,149
129,1696244261951,0.73828125,-0.09307861,0.6901245,0.25,-0.25,0.109375,150
130,1696244261991,0.7451172,-0.09307861,0.6815796,-0.015625,0.203125,0.234375,151
131,1696244262031,0.7487793,-0.10235596,0.6732788,0.171875,-0.140625,0.234375,152
132,1696244262071,0.7414551,-0.09991455,0.67474365,0.171875,-0.1875,0.265625,153
133,1696244262111,0.748291,-0.101135254,0.6757202,0.21875,-0.453125,0.40625,154
134,1696244262151,0.75024414,-0.1026001,0.6779175,-0.265625,0.3125,0.375,155
135,1696244262191,0.74658203,-0.09503174,0.6972046,0.296875,0.0,0.28125,156
136,1696244262231,0.7302246,-0.1026001,0.68963623,0.4375,-1.125,0.046875,157
137,1696244262271,0.7416992,-0.10455322,0.6803589,0.046875,-0.90625,0.15625,158
138,1696244262311,0.74487305,-0.097961426,0.6913452,0.234375,-0.578125,0.3125,159
139,1696244262351,0.7416992,-0.08282471,0.69281006,0.03125,-0.109375,0.203125,160
140,1696244262391,0.74658203,-0.097961426,0.68743896,0.25,-0.4375,0.078125,161
141,1696244262431,0.7348633,-0.101867676,0.69647217,0.359375,0.0625,0.578125,162
142,1696244262471,0.74194336,-0.10479736,0.68182373,0.046875,-0.171875,0.421875,163
143,1696244262511,0.74316406,-0.11212158,0.6918335,1.171875,-1.4375,0.203125,164
144,1696244262551,0.73779297,-0.10211182,0.682312,0.265625,-1.390625,0.265625,165
145,1696244262591,0.7392578,-0.09991455,0.6815796,-0.984375,-0.46875,0.1875,166
146,1696244262631,0.74072266,-0.097229004,0.67767334,-0.421875,0.625,-0.03125,167
147,1696244262671,0.7392578,-0.09942627,0.6976929,1.09375,-0.671875,0.109375,168
148,1696244262711,0.74243164,-0.11212158,0.68182373,0.734375,-0.609375,-0.078125,169
149,1696244262751,0.7468262,-0.10040283,0.6898804,-0.421875,-0.046875,0.25,170
150,1696244262791,0.74072266,-0.1038208,0.68182373,0.0,-0.46875,0.28125,171
151,1696244262831,0.74438477,-0.10235596,0.68499756,-0.375,-0.234375,0.46875,172
152,1696244262871,0.74902344,-0.10455322,0.6769409,-0.03125,-0.46875,0.171875,173
153,1696244262911,0.7373047,-0.101867676,0.6688843,-0.296875,0.015625,0.234375,174
154,1696244262951,0.7404785,-0.09552002,0.69281006,0.609375,-0.4375,0.125,175
155,1696244262991,0.7414551,-0.10357666,0.6835327,1.328125,-1.046875,0.125,176
156,1696244263031,0.7453613,-0.10479736,0.6950073,0.875,-1.109375,-0.046875,177
157,1696244263071,0.7373047,-0.10797119,0.7182007,-0.09375,-2.75,0.203125,178
158,1696244263111,0.7548828,-0.1104126,0.6727905,-0.828125,-2.46875,0.453125,179
159,1696244263151,0.74365234,-0.09552002,0.6781616,-2.21875,0.359375,1.484375,180
160,1696244263191,0.7312012,-0.097961426,0.6937866,-0.71875,0.421875,1.296875,181
161,1696244263231,0.7290039,-0.09136963,0.6754761,0.828125,-0.515625,0.453125,182
162,1696244263271,0.7307129,-0.09649658,0.6676636,0.890625,-0.453125,0.125,183
163,1696244263311,0.73339844,-0.105529785,0.68621826,0.453125,-0.59375,-0.171875,184
164,1696244263351,0.73583984,-0.10089111,0.6810913,-0.796875,-0.15625,0.046875,185
165,1696244263391,0.7368164,-0.1026001,0.6967163,-0.390625,0.234375,-0.03125,186
166,1696244263431,0.74609375,-0.10626221,0.70062256,1.125,-1.078125,0.078125,187
167,1696244263471,0.7468262,-0.105041504,0.69085693,0.484375,-0.4375,-0.171875,188
168,1696244263511,0.74902344,-0.09844971,0.6786499,-0.59375,-0.328125,0.203125,189
169,1696244263551,0.73413086,-0.10235596,0.69281006,-0.640625,-0.453125,0.203125,190
170,1696244263591,0.73291016,-0.09674072,0.6911011,-0.65625,-0.59375,0.40625,191
171,1696244263631,0.7294922,-0.09820557,0.6781616,-0.5,0.03125,0.359375,192
172,1696244263671,0.7351074,-0.0960083,0.682312,-0.75,0.234375,0.0625,193
173,1696244263711,0.7414551,-0.09893799,0.69451904,0.703125,-0.09375,0.5,194
174,1696244263751,0.74780273,-0.10430908,0.68865967,1.046875,-0.421875,0.5625,195
175,1696244263791,0.7480469,-0.09649658,0.6871948,0.546875,-0.6875,0.328125,196
176,1696244263831,0.74658203,-0.097717285,0.67962646,-0.21875,-0.71875,0.46875,197
177,1696244263871,0.74243164,-0.09625244,0.6774292,-0.28125,-0.453125,-0.0625,198
178,1696244263911,0.73583984,-0.09967041,0.6893921,-0.140625,-0.90625,0.046875,199
179,1696244263951,0.7409668,-0.105285645,0.6742554,0.671875,-1.359375,0.25,200
180,1696244263991,0.7404785,-0.10211182,0.67523193,0.125,-0.46875,0.40625,201
181,1696244264031,0.7375488,-0.10089111,0.69085693,-0.5,-0.640625,0.375,202
182,1696244264071,0.7302246,-0.097717285,0.6947632,-0.46875,-0.5625,0.234375,203
183,1696244264111,0.7429199,-0.097961426,0.6984253,-0.078125,-0.53125,0.25,204
184,1696244264151,0.73657227,-0.10455322,0.67645264,-0.203125,-0.296875,0.015625,205
185,1696244264191,0.7380371,-0.10064697,0.69036865,-0.203125,-0.25,0.3125,206
186,1696244264231,0.7434082,-0.10333252,0.66571045,-1.265625,0.40625,0.15625,207
187,1696244264271,0.74194336,-0.0960083,0.7033081,0.390625,-0.4375,0.640625,208
188,1696244264311,0.7441406,-0.10015869,0.68963623,0.359375,-0.59375,0.59375,209
189,1696244264351,0.74365234,-0.101135254,0.68377686,-0.65625,-0.390625,0.328125,210
190,1696244264391,0.74121094,-0.101135254,0.6930542,-0.375,-0.234375,0.640625,211
191,1696244264431,0.7507324,-0.097229004,0.6774292,-0.28125,-0.171875,0.46875,212
192,1696244264471,0.7458496,-0.09307861,0.68377686,-0.109375,-0.09375,-0.109375,213
193,1696244264511,0.74487305,-0.10040283,0.6898804,0.265625,-0.9375,0.078125,214
194,1696244264551,0.74316406,-0.09967041,0.6835327,0.515625,-0.96875,-0.1875,215
195,1696244264591,0.7441406,-0.108947754,0.6911011,0.484375,-1.09375,0.15625,216
196,1696244264631,0.74072266,-0.10284424,0.6937866,-0.671875,-0.59375,0.21875,217
197,1696244264671,0.7338867,-0.093811035,0.6898804,-0.390625,-0.5625,0.015625,218
198,1696244264711,0.74609375,-0.101867676,0.69696045,0.484375,0.265625,0.546875,219
199,1696244264751,0.74902344,-0.105529785,0.6954956,1.296875,0.03125,1.203125,220
200,1696244264791,0.7495117,-0.109680176,0.68377686,-0.984375,1.953125,0.625,221
201,1696244264831,0.75927734,-0.101135254,0.7091675,-1.875,1.65625,0.75,222
202,1696244264871,0.7495117,-0.10308838,0.6713257,-2.078125,-1.375,-0.125,223
203,1696244264911,0.7434082,-0.093811035,0.68499756,-2.46875,-0.84375,-0.5625,224
204,1696244264951,0.7282715,-0.082092285,0.68426514,-3.046875,-1.390625,-0.875,225
205,1696244264991,0.7297363,-0.08355713,0.6742554,-3.765625,-2.328125,-0.3125,226
206,1696244265031,0.74902344,-0.085998535,0.69696045,-1.140625,-1.828125,-0.375,227
207,1696244265071,0.74194336,-0.08917236,0.6762085,-2.5,-1.609375,0.0,228
208,1696244265111,0.73461914,-0.090148926,0.6688843,-1.625,-1.640625,0.234375,229
209,1696244265151,0.7302246,-0.085510254,0.68573,0.453125,0.0625,0.1875,230
210,1696244265191,0.73583984,-0.08892822,0.68255615,0.96875,-0.484375,0.28125,231
211,1696244265231,0.7438965,-0.07867432,0.6859741,2.21875,0.234375,0.15625,232
212,1696244265271,0.7385254,-0.08453369,0.6876831,3.21875,-0.78125,0.0625,233
213,1696244265311,0.73950195,-0.08843994,0.6810913,1.671875,-1.828125,0.46875,234
214,1696244265351,0.7380371,-0.08843994,0.67840576,0.21875,-0.78125,0.03125,235
215,1696244265391,0.75024414,-0.08795166,0.69329834,0.46875,-0.84375,-0.234375,236
216,1696244265431,0.7468262,-0.093322754,0.69281006,0.625,-0.625,0.125,237
217,1696244265471,0.74365234,-0.09942627,0.7074585,1.53125,-0.890625,0.078125,238
218,1696244265511,0.72924805,-0.101623535,0.69085693,1.71875,-1.53125,-0.0625,239
219,1696244265551,0.7336426,-0.101623535,0.6820679,0.734375,-0.703125,0.0625,240
220,1696244265591,0.73168945,-0.101867676,0.69989014,1.140625,-1.171875,0.046875,241
221,1696244265631,0.7297363,-0.09503174,0.6950073,0.515625,-1.09375,-0.09375,242
222,1696244265671,0.736084,-0.0960083,0.701355,0.09375,-0.359375,0.46875,243
223,1696244265711,0.74609375,-0.093322754,0.6989136,0.203125,0.296875,0.671875,244
224,1696244265751,0.73950195,-0.09161377,0.6959839,0.3125,0.265625,0.5625,245
225,1696244265791,0.7446289,-0.10333252,0.6935425,1.28125,-0.578125,0.265625,246
226,1696244265831,0.7385254,-0.10308838,0.6869507,1.0625,-1.015625,0.375,247
227,1696244265871,0.72558594,-0.10357666,0.6815796,-0.140625,-0.09375,0.03125,248
228,1696244265911,0.7351074,-0.10064697,0.6832886,0.484375,-1.34375,-0.15625,249
229,1696244265951,0.7348633,-0.0960083,0.6893921,0.34375,-1.453125,-0.328125,250
230,1696244265991,0.73828125,-0.097229004,0.6762085,-0.625,-0.140625,0.171875,251
231,1696244266031,0.736084,-0.1026001,0.697937,0.3125,0.6875,-0.078125,252
232,1696244266071,0.74316406,-0.11456299,0.69525146,1.0,-0.28125,-0.015625,253
233,1696244266111,0.7434082,-0.10797119,0.696228,0.1875,-0.25,0.078125,254
234,1696244266151,0.7404785,-0.101135254,0.696228,0.03125,-0.671875,0.421875,255
235,1696244266191,0.7314453,-0.10064697,0.6881714,-0.25,-0.984375,-0.09375,256
236,1696244266231,0.7233887,-0.08843994,0.6852417,-0.609375,-0.28125,-0.046875,257
237,1696244266271,0.73999023,-0.1104126,0.6727905,0.0625,-0.21875,-0.171875,258
238,1696244266311,0.7324219,-0.09942627,0.6959839,-0.296875,0.28125,0.09375,259
239,1696244266351,0.74072266,-0.105285645,0.69989014,1.109375,-0.6875,0.046875,260
240,1696244266391,0.7385254,-0.11260986,0.6893921,1.1875,-1.21875,0.09375,261
241,1696244266431,0.7373047,-0.10845947,0.69647217,0.625,-0.9375,0.25,262
242,1696244266471,0.73876953,-0.117004395,0.6937866,-0.34375,-0.9375,0.21875,263
243,1696244266511,0.73046875,-0.10211182,0.6815796,-0.875,-0.609375,0.125,264
244,1696244266551,0.7368164,-0.10308838,0.6967163,-0.640625,-0.859375,0.359375,265
245,1696244266591,0.73876953,-0.10064697,0.69207764,0.328125,-0.6875,0.109375,266
246,1696244266631,0.7338867,-0.11651611,0.6859741,0.140625,-0.671875,0.40625,267
247,1696244266671,0.7331543,-0.09454346,0.7028198,-0.09375,-0.75,0.375,268
248,1696244266711,0.73999023,-0.10992432,0.6864624,0.359375,-0.859375,0.296875,269
249,1696244266751,0.73657227,-0.105041504,0.696228,-0.171875,-0.671875,0.234375,270
250,1696244266791,0.7324219,-0.10211182,0.6906128,0.015625,-0.9375,0.046875,271
251,1696244266831,0.73095703,-0.10064697,0.6923218,0.265625,-0.453125,-0.1875,272
252,1696244266871,0.73950195,-0.1116333,0.67230225,-0.109375,0.03125,0.109375,273
253,1696244266911,0.7294922,-0.11456299,0.6950073,0.546875,0.21875,0.203125,274
254,1696244266951,0.7355957,-0.11773682,0.6906128,0.703125,-0.640625,0.203125,275
255,1696244266991,0.73828125,-0.108947754,0.69329834,0.421875,-0.484375,0.03125,276
256,1696244267031,0.74438477,-0.11236572,0.69451904,-0.578125,-0.5625,0.140625,277
257,1696244267071,0.74194336,-0.10992432,0.6906128,-1.390625,0.015625,0.296875,278
258,1696244267111,0.7338867,-0.11016846,0.69281006,-0.625,-0.28125,0.234375,279
259,1696244267151,0.73291016,-0.105041504,0.6828003,-0.4375,-0.578125,0.203125,280
260,1696244267191,0.72753906,-0.1026001,0.6876831,-0.53125,-0.109375,0.828125,281
261,1696244267231,0.736084,-0.11383057,0.6893921,0.65625,-0.921875,0.40625,282
262,1696244267271,0.7390137,-0.11456299,0.6884155,0.34375,-1.078125,0.453125,283
263,1696244267311,0.7373047,-0.10699463,0.68377686,-0.703125,-0.4375,0.71875,284
264,1696244267351,0.7392578,-0.113586426,0.6942749,-1.46875,-0.6875,1.28125,285
265,1696244267391,0.74316406,-0.10064697,0.701355,-1.390625,-1.453125,0.3125,286
266,1696244267431,0.736084,-0.09552002,0.6923218,-1.03125,-1.296875,0.390625,287
267,1696244267471,0.7348633,-0.09527588,0.69281006,-0.828125,-1.296875,0.65625,288
268,1696244267511,0.7265625,-0.089416504,0.6911011,-0.328125,-1.0,0.125,289
269,1696244267551,0.7258301,-0.085754395,0.7001343,0.203125,-0.734375,-0.21875,290
270,1696244267591,0.72802734,-0.10333252,0.7008667,0.625,-0.890625,0.140625,291
271,1696244267631,0.73291016,-0.10406494,0.6967163,0.296875,-0.6875,0.234375,292
272,1696244267671,0.7211914,-0.101867676,0.71136475,0.953125,-1.390625,0.234375,293
273,1696244267711,0.7272949,-0.09820557,0.6984253,1.140625,-1.109375,0.34375,294
274,1696244267751,0.7265625,-0.09161377,0.70062256,-0.5,0.546875,0.6875,295
275,1696244267791,0.73413086,-0.09625244,0.70648193,0.03125,0.859375,0.578125,296
276,1696244267831,0.72436523,-0.10015869,0.6935425,0.84375,-0.09375,0.375,297
277,1696244267871,0.73168945,-0.10430908,0.69525146,0.53125,-0.359375,0.015625,298
278,1696244267911,0.72998047,-0.09844971,0.6972046,0.59375,-0.8125,0.265625,299
279,1696244267951,0.7348633,-0.10601807,0.6810913,-0.21875,-0.984375,-0.03125,300
280,1696244267991,0.73950195,-0.101135254,0.70184326,0.15625,-0.6875,0.265625,301
281,1696244268031,0.73461914,-0.101623535,0.7008667,0.140625,-0.40625,0.21875,302
282,1696244268071,0.73217773,-0.105529785,0.70111084,-0.25,-0.53125,0.359375,303
283,1696244268111,0.7265625,-0.105041504,0.7020874,0.375,-1.109375,0.375,304
284,1696244268151,0.7246094,-0.10211182,0.6893921,0.359375,-0.625,0.4375,305
285,1696244268191,0.72753906,-0.10235596,0.6967163,0.03125,-0.625,0.3125,306
286,1696244268231,0.72680664,-0.0947876,0.69989014,-0.296875,-0.578125,0.09375,307
287,1696244268271,0.7285156,-0.10211182,0.69525146,-0.03125,-0.703125,0.171875,308
288,1696244268311,0.73657227,-0.097717285,0.6942749,0.140625,-0.578125,0.0,309
289,1696244268351,0.72998047,-0.10455322,0.70233154,0.796875,-1.25,-0.09375,310
290,1696244268391,0.72021484,-0.11065674,0.69207764,0.984375,-1.078125,0.1875,311
291,1696244268431,0.72143555,-0.10870361,0.69866943,0.71875,-1.125,-0.15625,312
292,1696244268471,0.7338867,-0.117004395,0.6942749,0.5,-1.359375,-0.1875,313
293,1696244268511,0.72802734,-0.10699463,0.7045288,-0.453125,-0.796875,0.03125,314
294,1696244268551,0.72021484,-0.11090088,0.7128296,-0.15625,-0.890625,0.3125,315
295,1696244268591,0.73291016,-0.11236572,0.69940186,-1.265625,-0.03125,0.140625,316
296,1696244268631,0.72680664,-0.10699463,0.68914795,-0.75,0.171875,0.453125,317
297,1696244268671,0.7224121,-0.109191895,0.6937866,-0.4375,0.34375,0.40625,318
298,1696244268711,0.7282715,-0.10235596,0.6984253,0.234375,0.34375,0.484375,319
299,1696244268751,0.7307129,-0.10479736,0.6959839,-0.109375,-0.015625,-0.125,320
300,1696244268791,0.7312012,-0.094055176,0.70965576,-0.734375,0.125,0.296875,321
301,1696244268831,0.736084,-0.105041504,0.69573975,-0.140625,-0.25,0.34375,322
302,1696244268871,0.7290039,-0.09918213,0.69573975,-0.015625,-0.1875,0.375,323
303,1696244268911,0.73291016,-0.1038208,0.6906128,0.21875,-0.390625,0.328125,324
304,1696244268951,0.7338867,-0.10357666,0.7003784,0.0,-0.46875,0.125,325
305,1696244268991,0.73339844,-0.10333252,0.69940186,0.3125,-0.5625,0.3125,326
306,1696244269031,0.73168945,-0.109191895,0.6889038,0.265625,-1.03125,0.21875,327
307,1696244269071,0.73339844,-0.10235596,0.6947632,-0.953125,-0.625,0.265625,328
308,1696244269111,0.72875977,-0.09698486,0.6959839,-0.5,-0.34375,0.3125,329
309,1696244269151,0.73461914,-0.10650635,0.69989014,-0.171875,-0.125,0.421875,330
310,1696244269191,0.73999023,-0.10308838,0.6954956,-0.234375,-0.078125,0.265625,331
311,1696244269231,0.7338867,-0.10406494,0.7001343,-0.28125,-0.28125,0.453125,332
312,1696244269271,0.73217773,-0.09698486,0.69866943,-0.34375,-0.375,0.3125,333
313,1696244269311,0.72753906,-0.10015869,0.7028198,0.015625,-0.984375,0.5,334
314,1696244269351,0.73168945,-0.10601807,0.6954956,-0.015625,-0.265625,0.21875,335
315,1696244269391,0.7368164,-0.101379395,0.6947632,0.609375,-0.5625,0.203125,336
316,1696244269431,0.7302246,-0.10064697,0.71209717,0.765625,-0.59375,0.359375,337
317,1696244269471,0.73217773,-0.10748291,0.6989136,-0.640625,0.8125,0.515625,338
318,1696244269511,0.734375,-0.09820557,0.69940186,0.171875,0.75,0.9375,339
319,1696244269551,0.73828125,-0.09820557,0.68304443,-0.8125,0.921875,0.75,340
320,1696244269591,0.73657227,-0.09429932,0.71014404,0.4375,0.84375,0.65625,341
321,1696244269631,0.73706055,-0.10211182,0.6954956,1.15625,-0.921875,-0.03125,342
322,1696244269671,0.73217773,-0.09942627,0.6884155,0.140625,-0.546875,-0.046875,343
323,1696244269711,0.7331543,-0.09503174,0.6898804,-0.71875,-0.46875,-0.046875,344
324,1696244269751,0.7390137,-0.10308838,0.699646,-0.015625,-0.84375,0.125,345
325,1696244269791,0.73706055,-0.08917236,0.7055054,0.109375,-0.5625,0.25,346
326,1696244269831,0.7282715,-0.11065674,0.6911011,-0.203125,-0.375,0.28125,347
327,1696244269871,0.7336426,-0.10015869,0.6937866,-0.390625,-0.140625,0.265625,348
328,1696244269911,0.72875977,-0.10308838,0.69818115,0.3125,-0.515625,0.109375,349
329,1696244269951,0.7375488,-0.09649658,0.69451904,-0.109375,-0.203125,0.53125,350
330,1696244269991,0.7392578,-0.097961426,0.69329834,0.140625,-0.421875,0.09375,351
331,1696244270031,0.73779297,-0.101135254,0.69281006,0.46875,-0.296875,0.40625,352
332,1696244270071,0.74316406,-0.09161377,0.6876831,-1.15625,0.65625,-0.109375,353
333,1696244270111,0.7487793,-0.11578369,0.70306396,0.953125,-2.046875,-0.28125,354
334,1696244270151,0.7402344,-0.105529785,0.69744873,0.671875,-2.1875,-0.65625,355
335,1696244270191,0.7385254,-0.105285645,0.69866943,-0.953125,-1.65625,-0.828125,356
336,1696244270231,0.73217773,-0.101135254,0.7020874,-0.9375,-1.375,-0.9375,357
337,1696244270271,0.72143555,-0.10015869,0.70184326,-1.25,-1.125,-1.296875,358
338,1696244270311,0.7241211,-0.10284424,0.7123413,-0.5625,-1.84375,-0.9375,359
339,1696244270351,0.7133789,-0.09698486,0.7062378,0.328125,0.015625,0.234375,376
340,1696244270391,0.72094727,-0.10650635,0.6984253,0.65625,-0.546875,0.53125,377
341,1696244270431,0.73168945,-0.10772705,0.7069702,0.125,-0.421875,0.265625,378
342,1696244270471,0.74072266,-0.09991455,0.6889038,-0.5,0.40625,0.140625,379
343,1696244270511,0.73291016,-0.097717285,0.711853,0.15625,-0.328125,-0.09375,380
344,1696244270551,0.7294922,-0.10870361,0.6754761,-0.640625,0.953125,0.328125,381
345,1696244270591,0.7258301,-0.10797119,0.7040405,0.59375,0.203125,0.25,382
346,1696244270631,0.7265625,-0.11187744,0.6859741,1.140625,-1.109375,-0.28125,383
347,1696244270671,0.73339844,-0.117004395,0.6852417,0.234375,-0.6875,0.078125,384
348,1696244270711,0.72998047,-0.113098145,0.70355225,-0.234375,-0.84375,0.265625,385
349,1696244270751,0.7211914,-0.09552002,0.7079468,-0.171875,-0.84375,0.109375,386
350,1696244270791,0.72998047,-0.105041504,0.7040405,0.265625,-0.953125,0.359375,387
351,1696244270831,0.732666,-0.109436035,0.699646,0.140625,-0.390625,0.390625,388
352,1696244270871,0.72387695,-0.105041504,0.6984253,-0.546875,0.859375,0.296875,389
353,1696244270911,0.72436523,-0.1116333,0.7103882,0.390625,-0.171875,0.40625,390
354,1696244270951,0.73046875,-0.10479736,0.69451904,-0.625,-0.140625,0.25,391
355,1696244270991,0.72753906,-0.10211182,0.7050171,-0.53125,-0.515625,0.328125,392
356,1696244271031,0.7282715,-0.101623535,0.7079468,-0.1875,-0.890625,0.265625,393
357,1696244271071,0.72265625,-0.10040283,0.69329834,0.25,0.140625,0.078125,394
358,1696244271111,0.7348633,-0.1104126,0.68914795,0.984375,-0.703125,0.234375,395
359,1696244271151,0.73657227,-0.11090088,0.7045288,0.484375,-0.5,0.125,396
360,1696244271191,0.72265625,-0.11236572,0.71551514,1.0,-1.203125,0.234375,397
361,1696244271231,0.7319336,-0.10748291,0.6967163,-0.09375,-0.546875,0.1875,398
362,1696244271271,0.7272949,-0.10772705,0.6884155,0.09375,-0.71875,0.203125,399
363,1696244271311,0.72680664,-0.11138916,0.68182373,-0.765625,0.328125,0.15625,400
364,1696244271351,0.72753906,-0.10650635,0.70892334,1.15625,-0.125,0.03125,401
365,1696244271391,0.73583984,-0.117004395,0.6898804,0.390625,-0.453125,-0.21875,402
366,1696244271431,0.7297363,-0.101623535,0.7028198,-0.53125,-0.109375,0.390625,403
367,1696244271471,0.73168945,-0.10650635,0.696228,-0.3125,-0.375,0.265625,404
368,1696244271511,0.7290039,-0.108947754,0.7040405,-0.78125,0.046875,0.546875,405
369,1696244271551,0.73657227,-0.11090088,0.6930542,-1.578125,0.609375,0.65625,406
370,1696244271591,0.7246094,-0.10699463,0.70306396,-1.0,0.765625,0.484375,407
371,1696244271631,0.7331543,-0.10626221,0.6925659,-0.84375,0.21875,0.046875,408
372,1696244271671,0.72875977,-0.11383057,0.7025757,0.109375,-0.59375,0.078125,409
373,1696244271711,0.7312012,-0.097961426,0.6911011,0.0,-0.28125,0.046875,410
374,1696244271751,0.72802734,-0.101135254,0.6925659,0.125,-0.703125,0.359375,411
375,1696244271791,0.7385254,-0.105041504,0.69989014,0.109375,-0.5625,0.34375,412
376,1696244271831,0.7307129,-0.105529785,0.6937866,0.640625,-0.59375,0.359375,413
377,1696244271871,0.73535156,-0.10748291,0.699646,0.921875,-0.765625,0.3125,414
378,1696244271911,0.7390137,-0.10430908,0.6950073,0.828125,-0.890625,0.296875,415
379,1696244271951,0.72509766,-0.11090088,0.6972046,0.671875,-1.171875,-0.171875,416
380,1696244271991,0.7260742,-0.10845947,0.7040405,0.890625,-1.9375,0.1875,417
381,1696244272031,0.7285156,-0.10772705,0.7033081,0.625,-1.703125,0.078125,418
382,1696244272071,0.7314453,-0.105529785,0.68865967,-0.921875,-0.375,0.484375,419
383,1696244272111,0.7307129,-0.10870361,0.70111084,-0.34375,0.40625,0.46875,420
384,1696244272151,0.7282715,-0.10772705,0.697937,0.390625,-0.125,0.40625,421
385,1696244272191,0.73217773,-0.10797119,0.70233154,-0.4375,0.078125,0.3125,422
386,1696244272231,0.7338867,-0.11090088,0.7094116,-1.40625,-0.015625,0.828125,423
387,1696244272271,0.73535156,-0.10845947,0.69158936,-0.984375,-0.96875,0.671875,424
388,1696244272311,0.7285156,-0.09698486,0.7020874,-0.34375,-0.625,0.4375,425
389,1696244272351,0.7260742,-0.097961426,0.6947632,-0.734375,-0.53125,0.5625,426
390,1696244272391,0.72680664,-0.0960083,0.69647217,-0.921875,0.484375,0.59375,427
391,1696244272431,0.72802734,-0.10333252,0.7133179,0.390625,-0.46875,0.25,428
392,1696244272471,0.72875977,-0.10675049,0.69573975,0.671875,-0.796875,0.421875,429
393,1696244272511,0.72802734,-0.09820557,0.70184326,0.109375,-0.5,0.15625,430
394,1696244272551,0.7294922,-0.10650635,0.6906128,-0.046875,-0.71875,0.21875,431
395,1696244272591,0.7224121,-0.105773926,0.7001343,0.46875,-0.53125,0.28125,432
396,1696244272631,0.73291016,-0.09649658,0.7025757,0.25,-0.25,0.234375,433
397,1696244272671,0.7331543,-0.1038208,0.7055054,0.390625,-0.765625,0.234375,434
398,1696244272711,0.7355957,-0.10797119,0.7003784,0.328125,-1.34375,0.421875,435
399,1696244272751,0.7285156,-0.10845947,0.69696045,-0.25,-1.453125,0.34375,436
400,1696244272791,0.7290039,-0.109680176,0.69647217,-0.40625,-0.59375,0.4375,437
401,1696244272831,0.7285156,-0.101379395,0.69281006,-0.515625,-0.046875,0.375,438
402,1696244272871,0.7348633,-0.10772705,0.69989014,-0.25,-0.734375,0.546875,439
403,1696244272911,0.72314453,-0.105285645,0.70648193,0.875,-1.21875,0.5625,440
404,1696244272951,0.73583984,-0.10333252,0.70306396,-0.390625,-0.078125,0.171875,441
405,1696244272991,0.7312012,-0.09967041,0.6864624,-1.109375,0.53125,0.171875,442
406,1696244273031,0.72998047,-0.097717285,0.6972046,-1.125,0.640625,0.78125,443
407,1696244273071,0.7351074,-0.1026001,0.7045288,0.75,-0.1875,0.203125,444
408,1696244273111,0.7385254,-0.10406494,0.68914795,0.25,-0.390625,-0.328125,445
409,1696244273151,0.73876953,-0.10479736,0.6864624,0.109375,-0.28125,-0.03125,446
410,1696244273191,0.73291016,-0.10821533,0.6852417,0.28125,-0.6875,0.0625,447
411,1696244273231,0.7307129,-0.105529785,0.69403076,0.140625,-0.578125,0.234375,448
412,1696244273271,0.73095703,-0.10479736,0.696228,0.5625,-1.125,0.34375,449
413,1696244273311,0.72558594,-0.10455322,0.6976929,0.046875,-0.296875,0.484375,450
414,1696244273351,0.7285156,-0.105285645,0.7057495,0.296875,-0.34375,0.375,451
415,1696244273391,0.7312012,-0.11187744,0.6876831,0.109375,-0.796875,0.25,452
416,1696244273431,0.73413086,-0.09869385,0.6898804,-0.640625,-0.0625,0.40625,453
417,1696244273471,0.73339844,-0.101379395,0.6901245,-0.375,-0.34375,0.453125,454
418,1696244273511,0.72631836,-0.09552002,0.70355225,0.421875,-0.921875,0.203125,455
419,1696244273551,0.7319336,-0.10040283,0.6869507,0.4375,-0.4375,0.1875,456
420,1696244273591,0.7397461,-0.10626221,0.69085693,0.171875,-0.4375,0.515625,457
421,1696244273631,0.73291016,-0.10235596,0.69207764,0.09375,-0.375,0.265625,458
422,1696244273671,0.73095703,-0.10308838,0.7003784,0.140625,-0.265625,0.328125,459
423,1696244273711,0.7363281,-0.10089111,0.71307373,0.578125,-0.71875,0.328125,460
424,1696244273751,0.7312012,-0.10675049,0.69207764,-0.046875,-0.65625,0.09375,461
425,1696244273791,0.73168945,-0.10675049,0.7028198,-0.4375,-0.359375,0.1875,462
426,1696244273831,0.7312012,-0.1038208,0.71087646,0.546875,-0.9375,0.328125,463
427,1696244273871,0.7314453,-0.10064697,0.68792725,-0.734375,0.125,0.265625,464
428,1696244273911,0.7314453,-0.097961426,0.6913452,-0.421875,-0.125,0.40625,465
429,1696244273951,0.73291016,-0.101135254,0.69744873,-0.734375,0.640625,0.421875,466
430,1696244273991,0.73779297,-0.105773926,0.71014404,0.515625,-0.59375,0.015625,467
431,1696244274031,0.7236328,-0.1038208,0.6913452,-0.25,0.0625,-0.296875,468
432,1696244274071,0.7373047,-0.097961426,0.6942749,-0.453125,0.359375,0.296875,469
433,1696244274111,0.73413086,-0.09429932,0.7062378,0.46875,-0.359375,0.203125,470
434,1696244274151,0.7270508,-0.10308838,0.6991577,-0.015625,-0.65625,0.265625,471
435,1696244274191,0.7351074,-0.105773926,0.68743896,0.28125,-0.421875,0.3125,472
436,1696244274231,0.7302246,-0.10406494,0.6984253,-0.375,-0.0625,0.375,473
437,1696244274271,0.7380371,-0.097717285,0.69940186,0.125,-0.03125,0.4375,474
438,1696244274311,0.7319336,-0.11016846,0.69329834,0.421875,-0.78125,0.359375,475
439,1696244274351,0.73168945,-0.10089111,0.69744873,0.03125,-0.78125,0.15625,476
440,1696244274391,0.72802734,-0.1038208,0.7001343,0.0,-0.71875,0.34375,477
441,1696244274431,0.73657227,-0.105285645,0.6906128,-0.046875,-0.578125,0.25,478
442,1696244274471,0.7397461,-0.09698486,0.6976929,-0.234375,-0.140625,0.1875,479
443,1696244274511,0.7348633,-0.10772705,0.69573975,-0.125,-0.15625,0.234375,480
444,1696244274551,0.7294922,-0.105773926,0.69036865,0.203125,-0.6875,0.234375,481
445,1696244274591,0.734375,-0.09967041,0.6972046,0.09375,-0.234375,0.21875,482
446,1696244274631,0.7277832,-0.101867676,0.70233154,0.296875,-1.15625,0.15625,483
447,1696244274671,0.7282715,-0.10089111,0.69451904,-0.1875,-0.75,0.265625,484
448,1696244274711,0.7258301,-0.109680176,0.6859741,-0.84375,-0.4375,0.46875,485
449,1696244274751,0.7336426,-0.10040283,0.7015991,0.0,-0.34375,0.375,486
450,1696244274791,0.7385254,-0.10211182,0.68304443,-0.03125,-0.453125,0.15625,487
451,1696244274831,0.73339844,-0.0960083,0.69451904,0.0,-0.484375,0.46875,488
452,1696244274871,0.7297363,-0.105529785,0.6893921,-1.3125,0.65625,0.40625,489
453,1696244274911,0.73950195,-0.10797119,0.6976929,0.015625,0.078125,0.40625,490
454,1696244274951,0.7351074,-0.10089111,0.6976929,0.390625,-0.53125,0.171875,491
455,1696244274991,0.73950195,-0.09820557,0.6984253,0.09375,-0.453125,0.109375,492
456,1696244275031,0.7319336,-0.094055176,0.7008667,0.203125,-0.453125,0.28125,493
457,1696244275071,0.73046875,-0.10089111,0.68914795,-0.359375,-0.375,0.28125,494
458,1696244275111,0.73706055,-0.10308838,0.699646,0.0,-0.390625,0.375,495
459,1696244275151,0.73535156,-0.10284424,0.6852417,-0.203125,-0.125,0.046875,496
460,1696244275191,0.7404785,-0.09942627,0.6881714,0.078125,-0.09375,0.15625,497
461,1696244275231,0.7338867,-0.11114502,0.69158936,0.28125,-1.125,-0.03125,498
462,1696244275271,0.7446289,-0.101867676,0.69085693,-0.59375,-0.765625,-0.09375,499
463,1696244275311,0.73461914,-0.09844971,0.7025757,-0.484375,-0.8125,0.328125,500
464,1696244275351,0.7246094,-0.101135254,0.6991577,-0.578125,-0.3125,0.265625,501
465,1696244275391,0.7307129,-0.09649658,0.69525146,-0.328125,0.171875,0.125,502
466,1696244275431,0.736084,-0.11407471,0.6884155,-0.390625,-0.40625,0.15625,503
467,1696244275471,0.7355957,-0.094055176,0.69696045,-1.359375,0.296875,0.265625,504
468,1696244275511,0.7297363,-0.08917236,0.7003784,-0.1875,-0.546875,0.46875,505
469,1696244275551,0.73095703,-0.09844971,0.6923218,0.03125,-0.84375,0.328125,506
470,1696244275591,0.7426758,-0.09161377,0.69940186,-0.234375,-0.140625,0.484375,507
471,1696244275631,0.7351074,-0.10430908,0.68133545,-0.140625,0.0,0.390625,508
472,1696244275671,0.73950195,-0.093322754,0.70648193,0.859375,-0.84375,0.359375,509
473,1696244275711,0.73657227,-0.101623535,0.68792725,0.75,-1.015625,0.21875,510
474,1696244275751,0.7277832,-0.09234619,0.6803589,-0.53125,0.09375,0.359375,511
475,1696244275791,0.7414551,-0.0960083,0.6937866,-0.53125,0.15625,0.078125,512
476,1696244275831,0.7451172,-0.09259033,0.69866943,0.546875,-0.53125,-0.046875,513
477,1696244275871,0.7397461,-0.09649658,0.69036865,0.34375,-0.84375,-0.296875,514
478,1696244275911,0.7319336,-0.097473145,0.6884155,0.171875,-0.625,0.1875,515
479,1696244275951,0.73535156,-0.10357666,0.7128296,0.265625,-0.484375,0.65625,516
480,1696244275991,0.7416992,-0.09820557,0.68963623,-0.515625,-0.75,0.421875,517
481,1696244276031,0.74365234,-0.1038208,0.67401123,-1.34375,0.1875,0.1875,518
482,1696244276071,0.7390137,-0.105773926,0.6889038,-1.71875,0.671875,0.21875,519
483,1696244276111,0.7402344,-0.09039307,0.68548584,-1.15625,1.046875,-0.09375,520
484,1696244276151,0.7546387,-0.10333252,0.70721436,-0.078125,0.171875,-0.25,521
485,1696244276191,0.748291,-0.11456299,0.6930542,0.03125,-2.28125,0.140625,522
486,1696244276231,0.73876953,-0.094055176,0.70428467,-0.75,-3.796875,-0.015625,523
487,1696244276271,0.7224121,-0.085754395,0.7037964,-2.109375,-3.296875,-0.25,524
488,1696244276311,0.72436523,-0.08648682,0.70355225,-3.484375,-4.4375,-0.265625,525
489,1696244276351,0.7128906,-0.07696533,0.69818115,-1.9375,-4.28125,-0.375,526
490,1696244276391,0.70288086,-0.070373535,0.69647217,-1.875,-2.75,0.0625,527
491,1696244276431,0.71435547,-0.07745361,0.6959839,-1.171875,1.15625,0.59375,528
492,1696244276471,0.7126465,-0.089660645,0.711853,2.234375,0.90625,0.28125,529
493,1696244276511,0.71875,-0.08404541,0.70111084,2.078125,0.140625,-0.484375,530
494,1696244276551,0.7233887,-0.09649658,0.6947632,2.8125,-0.390625,0.078125,531
495,1696244276591,0.7270508,-0.10235596,0.69329834,1.375,-0.046875,-0.046875,532
496,1696244276631,0.732666,-0.09454346,0.71746826,1.546875,-0.1875,-0.171875,533
497,1696244276671,0.7463379,-0.093566895,0.7116089,0.5625,1.21875,-0.328125,534
498,1696244276711,0.73291016,-0.10284424,0.72991943,1.3125,-0.015625,-0.0625,535
499,1696244276751,0.7390137,-0.11016846,0.6923218,1.375,-0.4375,-0.390625,536
500,1696244276791,0.7282715,-0.10430908,0.69573975,0.421875,-0.296875,-0.21875,537
501,1696244276831,0.7258301,-0.109191895,0.69573975,0.765625,-0.71875,-0.046875,538
502,1696244276871,0.71484375,-0.10040283,0.6959839,0.828125,-0.5625,-0.109375,539
503,1696244276911,0.720459,-0.09088135,0.7081909,0.6875,-0.90625,0.046875,540
504,1696244276951,0.7285156,-0.09869385,0.70184326,0.078125,0.65625,0.15625,541
505,1696244276991,0.7373047,-0.101135254,0.7106323,1.421875,0.671875,-0.015625,542
506,1696244277031,0.732666,-0.11383057,0.71746826,1.984375,0.609375,0.171875,543
507,1696244277071,0.7348633,-0.11480713,0.7081909,0.171875,0.828125,0.46875,544
508,1696244277111,0.72436523,-0.10772705,0.6976929,-0.578125,0.5625,0.515625,545
509,1696244277151,0.7336426,-0.1026001,0.69329834,-1.0625,0.375,0.578125,546
510,1696244277191,0.72631836,-0.09625244,0.6911011,0.03125,0.296875,0.0625,547
511,1696244277231,0.7307129,-0.09527588,0.6991577,0.53125,-0.078125,0.21875,548
512,1696244277271,0.73657227,-0.105285645,0.6967163,0.6875,-0.390625,0.1875,549
513,1696244277311,0.7402344,-0.11212158,0.6954956,0.953125,-0.671875,0.0625,550
514,1696244277351,0.7390137,-0.11602783,0.69647217,0.75,-1.140625,0.203125,551
515,1696244277391,0.7285156,-0.11627197,0.7050171,-0.1875,-0.546875,0.15625,552
516,1696244277431,0.7207031,-0.1104126,0.6869507,-1.46875,0.234375,0.40625,553
517,1696244277471,0.72802734,-0.11138916,0.69158936,-1.28125,0.6875,0.390625,554
518,1696244277511,0.7285156,-0.09869385,0.70892334,0.375,0.125,-0.0625,555
519,1696244277551,0.7409668,-0.105529785,0.6972046,0.65625,-0.390625,0.03125,556
520,1696244277591,0.73950195,-0.10626221,0.6967163,0.609375,-0.328125,0.1875,557
521,1696244277631,0.73583984,-0.112854004,0.69573975,-0.046875,-0.4375,0.171875,558
522,1696244277671,0.73779297,-0.1104126,0.68133545,-0.078125,-0.9375,0.21875,559
523,1696244277711,0.73828125,-0.10211182,0.69696045,-0.625,-0.046875,0.421875,560
524,1696244277751,0.73706055,-0.10601807,0.69085693,-0.578125,-0.265625,0.390625,561
525,1696244277791,0.7277832,-0.11480713,0.6972046,0.671875,-0.9375,0.171875,562
526,1696244277831,0.7270508,-0.11383057,0.69207764,0.875,-1.578125,0.109375,563
527,1696244277871,0.7355957,-0.109191895,0.6959839,-0.015625,-1.03125,0.203125,564
528,1696244277911,0.72436523,-0.10870361,0.6898804,-0.65625,-0.671875,0.34375,565
529,1696244277951,0.7285156,-0.10064697,0.69744873,-0.96875,0.0625,0.484375,566
530,1696244277991,0.7368164,-0.097473145,0.697937,-0.96875,0.34375,0.34375,567
531,1696244278031,0.7351074,-0.109191895,0.6989136,0.0,-0.375,0.09375,568
532,1696244278071,0.73168945,-0.10675049,0.6766968,-0.03125,-0.15625,0.4375,569
533,1696244278111,0.7380371,-0.10089111,0.6815796,0.3125,-0.71875,0.25,570
534,1696244278151,0.73168945,-0.101867676,0.7040405,-0.46875,-0.765625,0.390625,571
535,1696244278191,0.7282715,-0.09869385,0.6893921,-0.875,-0.328125,0.4375,572
536,1696244278231,0.72753906,-0.10015869,0.7055054,-0.140625,0.65625,0.703125,573
537,1696244278271,0.73828125,-0.10357666,0.69451904,0.9375,-0.328125,0.3125,574
538,1696244278311,0.7373047,-0.09967041,0.69085693,0.25,0.046875,-0.03125,575
539,1696244278351,0.73461914,-0.10357666,0.71014404,-0.46875,-0.03125,0.421875,576
540,1696244278391,0.73413086,-0.10308838,0.69940186,-0.28125,-0.6875,0.4375,577
541,1696244278431,0.7373047,-0.10235596,0.6923218,0.0,-0.296875,0.390625,578
542,1696244278471,0.734375,-0.1026001,0.6918335,-0.65625,-0.1875,0.234375,579
543,1696244278511,0.7380371,-0.1038208,0.6976929,-0.34375,0.0,0.5,580
544,1696244278551,0.736084,-0.09967041,0.6881714,0.53125,-0.8125,0.34375,581
545,1696244278591,0.73217773,-0.10455322,0.6925659,-0.3125,-0.265625,0.28125,582
546,1696244278631,0.73828125,-0.10357666,0.6832886,1.109375,-2.375,-0.1875,583
547,1696244278671,0.7373047,-0.097473145,0.69525146,0.5,-0.453125,0.40625,584
548,1696244278711,0.736084,-0.10430908,0.696228,0.328125,-0.234375,0.390625,585
549,1696244278751,0.73583984,-0.09918213,0.7008667,0.375,-0.796875,0.375,586
550,1696244278791,0.7409668,-0.09625244,0.6976929,0.265625,-0.546875,0.421875,587
551,1696244278831,0.7319336,-0.109191895,0.6898804,0.015625,-0.75,0.515625,588
552,1696244278871,0.7272949,-0.10333252,0.7103882,0.484375,-1.0625,0.265625,589
553,1696244278911,0.73291016,-0.11016846,0.68743896,-0.5625,-0.34375,0.03125,590
554,1696244278951,0.7282715,-0.101135254,0.68621826,-0.984375,-0.0625,0.15625,591
555,1696244278991,0.7368164,-0.10211182,0.68573,-0.4375,0.8125,0.484375,592
556,1696244279031,0.7363281,-0.105773926,0.70843506,0.65625,-0.203125,0.484375,593
557,1696244279071,0.7363281,-0.10845947,0.6876831,-0.234375,0.203125,-0.015625,594
558,1696244279111,0.73461914,-0.097717285,0.68304443,-1.25,1.171875,0.171875,595
559,1696244279151,0.7480469,-0.105529785,0.71087646,-0.875,-0.21875,0.0625,596
560,1696244279191,0.748291,-0.10748291,0.6942749,-0.265625,-1.890625,-0.265625,597
561,1696244279231,0.75097656,-0.10064697,0.71551514,-0.296875,-1.8125,-0.28125,598
562,1696244279271,0.72631836,-0.1026001,0.70233154,-0.453125,-0.8125,0.625,599
563,1696244279311,0.7282715,-0.097229004,0.7079468,-0.0625,-0.640625,0.296875,616
564,1696244279351,0.7302246,-0.10675049,0.684021,-0.046875,-0.640625,0.3125,617
565,1696244279391,0.72314453,-0.093811035,0.6937866,-0.5625,0.328125,0.53125,618
566,1696244279431,0.7277832,-0.09552002,0.6893921,-0.328125,0.78125,0.265625,619
567,1696244279471,0.7272949,-0.09527588,0.7055054,0.578125,-0.578125,0.171875,620
568,1696244279511,0.7414551,-0.09674072,0.6798706,0.09375,-0.625,0.03125,621
569,1696244279551,0.7338867,-0.09307861,0.7028198,0.609375,-1.15625,0.0,622
570,1696244279591,0.73095703,-0.093566895,0.70355225,1.140625,-1.421875,0.03125,623
571,1696244279631,0.72875977,-0.09283447,0.6991577,1.109375,-1.046875,-0.171875,624
572,1696244279671,0.7272949,-0.10308838,0.6976929,0.953125,-0.71875,0.03125,625
573,1696244279711,0.7297363,-0.109680176,0.7001343,0.078125,0.140625,0.359375,626
574,1696244279751,0.7351074,-0.10650635,0.69696045,0.25,0.09375,0.3125,627
575,1696244279791,0.73168945,-0.10333252,0.7062378,0.171875,-0.96875,0.359375,628
576,1696244279831,0.7373047,-0.101379395,0.70355225,-0.484375,-0.3125,0.296875,629
577,1696244279871,0.7368164,-0.10455322,0.6847534,-0.1875,-0.3125,0.453125,630
578,1696244279911,0.7277832,-0.10308838,0.69525146,-0.390625,0.21875,0.1875,631
579,1696244279951,0.7314453,-0.09918213,0.7074585,0.484375,-0.09375,0.078125,632
580,1696244279991,0.73291016,-0.10040283,0.69573975,0.859375,-0.375,-0.046875,633
581,1696244280031,0.7470703,-0.093811035,0.6959839,0.765625,-0.6875,0.078125,634
582,1696244280071,0.73095703,-0.1038208,0.69281006,0.703125,-1.359375,0.078125,635
583,1696244280111,0.73828125,-0.10455322,0.68670654,0.453125,-1.125,-0.25,636
584,1696244280151,0.7314453,-0.10064697,0.7055054,0.40625,-0.765625,-0.046875,637
585,1696244280191,0.7355957,-0.10455322,0.7025757,-0.046875,-0.296875,0.21875,638
586,1696244280231,0.7348633,-0.11114502,0.70111084,0.265625,-0.546875,0.0625,639
587,1696244280271,0.7241211,-0.112854004,0.6972046,0.53125,-0.921875,0.34375,640
588,1696244280311,0.7319336,-0.10430908,0.6959839,-0.421875,-0.390625,0.171875,641
589,1696244280351,0.72680664,-0.10040283,0.696228,-0.0625,-0.703125,0.34375,642
590,1696244280391,0.73168945,-0.10406494,0.6937866,-0.03125,-0.5,-0.03125,643
591,1696244280431,0.73168945,-0.1026001,0.6935425,-0.1875,0.046875,0.078125,644
592,1696244280471,0.7414551,-0.10992432,0.6935425,0.296875,-0.40625,0.046875,645
593,1696244280511,0.7314453,-0.109680176,0.6984253,0.109375,-0.734375,0.265625,646
594,1696244280551,0.72998047,-0.11260986,0.7040405,0.28125,-0.578125,0.359375,647
595,1696244280591,0.7272949,-0.11090088,0.6959839,0.484375,-1.046875,0.234375,648
596,1696244280631,0.7312012,-0.10406494,0.68963623,-0.203125,-0.515625,-0.125,649
597,1696244280671,0.7182617,-0.10821533,0.6898804,0.03125,-0.59375,0.1875,650
598,1696244280711,0.7294922,-0.10870361,0.6930542,-0.5625,0.28125,-0.296875,651
599,1696244280751,0.73657227,-0.10821533,0.6989136,1.171875,-0.390625,-0.5,652
600,1696244280791,0.7416992,-0.116760254,0.684021,1.21875,-0.484375,-0.0625,653
601,1696244280831,0.7468262,-0.11260986,0.69989014,0.359375,-0.015625,0.296875,654
602,1696244280871,0.7336426,-0.11651611,0.69989014,0.046875,-0.859375,0.3125,655
603,1696244280911,0.73413086,-0.10723877,0.6972046,-0.34375,-0.578125,0.4375,656
604,1696244280951,0.7272949,-0.10601807,0.69281006,-0.171875,-0.859375,0.171875,657
605,1696244280991,0.7277832,-0.11138916,0.67767334,-0.609375,0.40625,0.359375,658
606,1696244281031,0.734375,-0.108947754,0.6954956,-0.375,-0.03125,0.375,659
607,1696244281071,0.7348633,-0.11065674,0.6901245,0.5625,-0.90625,0.21875,660
608,1696244281111,0.7363281,-0.11602783,0.6852417,0.09375,0.03125,0.25,661
609,1696244281151,0.73583984,-0.10040283,0.70062256,-0.234375,-0.171875,0.21875,662
610,1696244281191,0.7272949,-0.10675049,0.69744873,-0.25,-0.28125,0.40625,663
611,1696244281231,0.7302246,-0.10992432,0.6832886,-0.078125,-0.6875,0.1875,664
612,1696244281271,0.7380371,-0.09844971,0.6925659,-0.078125,-0.5,0.25,665
613,1696244281311,0.72924805,-0.10821533,0.697937,-0.40625,-0.5625,0.09375,666
614,1696244281351,0.73217773,-0.10479736,0.69818115,0.578125,-1.453125,0.1875,667
615,1696244281391,0.72875977,-0.1116333,0.69818115,0.1875,-0.96875,0.34375,668
616,1696244281431,0.7312012,-0.10845947,0.6950073,-0.546875,-0.546875,0.25,669
617,1696244281471,0.7336426,-0.12164307,0.7057495,-0.34375,-0.265625,0.359375,670
618,1696244281511,0.7331543,-0.10040283,0.699646,-0.515625,0.015625,0.359375,671
619,1696244281551,0.73217773,-0.10992432,0.7062378,0.296875,-1.140625,0.140625,672
620,1696244281591,0.7324219,-0.105529785,0.69696045,-0.421875,-0.875,0.4375,673
621,1696244281631,0.7285156,-0.10333252,0.6757202,-1.734375,0.796875,0.59375,674
622,1696244281671,0.7302246,-0.10235596,0.68426514,-1.265625,1.640625,0.546875,675
623,1696244281711,0.7416992,-0.10479736,0.7062378,0.578125,0.125,0.171875,676
624,1696244281751,0.74560547,-0.11114502,0.70184326,0.75,-1.65625,-0.40625,677
625,1696244281791,0.73657227,-0.105041504,0.69207764,-0.4375,-1.1875,0.171875,678
626,1696244281831,0.7373047,-0.11651611,0.68670654,-1.109375,-0.703125,0.484375,679
627,1696244281871,0.73217773,-0.09820557,0.7062378,-0.515625,-0.421875,0.515625,680
628,1696244281911,0.73413086,-0.10089111,0.68865967,-0.421875,0.125,0.40625,681
629,1696244281951,0.7336426,-0.097961426,0.6918335,-0.296875,0.421875,0.1875,682
630,1696244281991,0.7338867,-0.09698486,0.6911011,0.578125,0.359375,0.46875,683
631,1696244282031,0.732666,-0.1038208,0.69207764,1.015625,-0.34375,0.28125,684
632,1696244282071,0.7314453,-0.101867676,0.70062256,0.328125,-0.1875,0.34375,685
633,1696244282111,0.7414551,-0.09967041,0.69451904,-0.265625,-0.140625,0.125,686
634,1696244282151,0.73413086,-0.10089111,0.69744873,-0.1875,0.109375,0.203125,687
635,1696244282191,0.73706055,-0.10406494,0.69696045,-0.046875,-0.265625,0.4375,688
636,1696244282231,0.7363281,-0.10211182,0.701355,0.375,-0.453125,0.4375,689
637,1696244282271,0.73779297,-0.113342285,0.69744873,0.46875,-0.578125,0.109375,690
638,1696244282311,0.7312012,-0.10089111,0.6911011,0.234375,-1.265625,0.296875,691
639,1696244282351,0.7336426,-0.10430908,0.68914795,-0.59375,-0.453125,0.15625,692
640,1696244282391,0.7336426,-0.11553955,0.69036865,-0.40625,-0.515625,0.171875,693
641,1696244282431,0.7348633,-0.09674072,0.69696045,-0.03125,-0.5,0.171875,694
642,1696244282471,0.73828125,-0.11114502,0.6967163,0.59375,-0.765625,0.1875,695
643,1696244282511,0.7404785,-0.0960083,0.68963623,-0.3125,-0.015625,0.171875,696
644,1696244282551,0.7297363,-0.113586426,0.684021,-0.125,-0.421875,0.359375,697
645,1696244282591,0.734375,-0.10333252,0.6923218,-0.8125,0.65625,0.546875,698
646,1696244282631,0.73095703,-0.10357666,0.6889038,0.0625,0.578125,0.03125,699
647,1696244282671,0.7512207,-0.11578369,0.70721436,-1.15625,0.890625,-0.359375,700
648,1696244282711,0.7573242,-0.11114502,0.71551514,-0.78125,-0.625,-0.3125,701
649,1696244282751,0.7495117,-0.10870361,0.699646,-2.09375,-1.59375,0.0625,702
650,1696244282791,0.73095703,-0.101867676,0.6881714,-3.015625,-1.1875,0.328125,703
651,1696244282831,0.72802734,-0.094055176,0.6906128,-2.8125,-1.28125,0.40625,704
652,1696244282871,0.7260742,-0.085998535,0.6898804,-2.34375,-1.078125,0.46875,705
653,1696244282911,0.7392578,-0.08477783,0.6925659,-1.09375,-0.921875,0.140625,706
654,1696244282951,0.7277832,-0.097961426,0.6935425,-0.046875,-1.75,0.234375,707
655,1696244282991,0.7314453,-0.09869385,0.7025757,-1.125,-0.90625,-0.125,708
656,1696244283031,0.7414551,-0.093566895,0.70770264,-1.921875,-0.921875,0.0625,709
657,1696244283071,0.7380371,-0.08843994,0.70111084,-2.578125,-0.65625,-0.109375,710
658,1696244283111,0.73168945,-0.082336426,0.7020874,-2.078125,-1.03125,0.28125,711
659,1696244283151,0.7302246,-0.077941895,0.69744873,-2.171875,-0.359375,0.796875,712
660,1696244283191,0.72802734,-0.081604004,0.70062256,-2.15625,0.5625,0.59375,713
661,1696244283231,0.7302246,-0.077941895,0.70306396,-1.703125,-0.078125,0.609375,714
662,1696244283271,0.7402344,-0.082092285,0.70599365,-0.5625,-0.09375,0.6875,715
663,1696244283311,0.7331543,-0.07598877,0.70892334,-0.40625,0.0625,0.625,716
664,1696244283351,0.7504883,-0.085998535,0.7094116,-0.390625,1.03125,0.859375,717
665,1696244283391,0.73583984,-0.07525635,0.6911011,-1.078125,-0.8125,1.5625,718
666,1696244283431,0.72802734,-0.070373535,0.6864624,-1.0625,1.0625,1.203125,719
667,1696244283471,0.7216797,-0.07330322,0.6911011,-0.78125,-0.46875,0.84375,720
668,1696244283511,0.7116699,-0.062316895,0.6725464,-0.359375,-0.75,0.671875,721
669,1696244283551,0.7158203,-0.053527832,0.6803589,1.734375,-0.609375,0.171875,722
670,1696244283591,0.7272949,-0.07574463,0.6762085,3.609375,-2.375,-0.015625,723
671,1696244283631,0.7331543,-0.081848145,0.6793823,2.953125,-1.734375,0.015625,724
672,1696244283671,0.7390137,-0.08111572,0.7025757,1.0,-1.015625,-0.09375,725
673,1696244283711,0.7416992,-0.07965088,0.7201538,0.0625,-0.265625,0.015625,726
674,1696244283751,0.73950195,-0.08087158,0.7103882,1.140625,-0.578125,-0.140625,727
675,1696244283791,0.73583984,-0.077697754,0.7057495,1.125,-0.671875,0.25,728
676,1696244283831,0.7307129,-0.08306885,0.7147827,0.25,-0.234375,0.390625,729
677,1696244283871,0.7285156,-0.07867432,0.69158936,-0.015625,-0.171875,0.25,730
678,1696244283911,0.7224121,-0.07623291,0.69818115,-0.0625,-0.125,0.171875,731
679,1696244283951,0.73217773,-0.0803833,0.68621826,0.640625,0.015625,0.09375,732
680,1696244283991,0.73535156,-0.08477783,0.69989014,0.5,-0.75,-0.046875,733
681,1696244284031,0.732666,-0.07940674,0.7037964,0.25,-0.21875,-0.25,734
682,1696244284071,0.74121094,-0.085510254,0.70648193,0.6875,-0.53125,-0.0625,735
683,1696244284111,0.7468262,-0.09820557,0.7033081,1.15625,-1.296875,0.078125,736
684,1696244284151,0.7375488,-0.08795166,0.6703491,-0.78125,0.234375,0.21875,737
685,1696244284191,0.7241211,-0.089904785,0.69403076,0.109375,-0.265625,0.109375,738
686,1696244284231,0.7265625,-0.08892822,0.6832886,0.3125,-1.1875,-0.0625,739
687,1696244284271,0.73046875,-0.089416504,0.6976929,0.328125,-0.390625,-0.40625,740
688,1696244284311,0.7402344,-0.077941895,0.7145386,-0.390625,0.5,-0.09375,741
689,1696244284351,0.7434082,-0.093811035,0.7069702,-0.546875,-0.0625,0.125,742
690,1696244284391,0.7368164,-0.08843994,0.70062256,-0.890625,0.3125,0.625,743
691,1696244284431,0.74194336,-0.08673096,0.69158936,-0.5,0.8125,0.890625,744
692,1696244284471,0.7324219,-0.08917236,0.69085693,0.0625,0.890625,0.359375,745
693,1696244284511,0.7324219,-0.090148926,0.68573,0.546875,-0.4375,0.5,746
694,1696244284551,0.73291016,-0.08868408,0.6835327,0.15625,-0.75,0.203125,747
695,1696244284591,0.7312012,-0.08770752,0.69036865,0.5625,-0.75,0.21875,748
696,1696244284631,0.7390137,-0.08062744,0.682312,0.078125,-0.328125,0.265625,749
697,1696244284671,0.74975586,-0.08453369,0.68573,-0.1875,-0.6875,-0.0625,750
698,1696244284711,0.7421875,-0.08868408,0.6930542,0.359375,-0.40625,0.234375,751
699,1696244284751,0.7414551,-0.09039307,0.7050171,1.359375,-0.421875,0.375,752
700,1696244284791,0.7438965,-0.09088135,0.67889404,0.890625,-1.390625,-0.125,753
701,1696244284831,0.73461914,-0.08453369,0.6847534,0.515625,-1.671875,-0.09375,754
702,1696244284871,0.7294922,-0.08404541,0.6881714,-0.59375,0.078125,0.375,755
703,1696244284911,0.7297363,-0.0881958,0.7057495,0.90625,-0.640625,-0.0625,756
704,1696244284951,0.7265625,-0.09088135,0.68743896,0.484375,-1.015625,-0.5,757
705,1696244284991,0.7468262,-0.09234619,0.69573975,-0.078125,-0.1875,-0.15625,758
706,1696244285031,0.74243164,-0.09307861,0.6991577,-0.171875,-0.046875,0.375,759
707,1696244285071,0.73583984,-0.09552002,0.684021,-0.46875,-0.375,0.359375,760
708,1696244285111,0.732666,-0.081848145,0.6947632,-0.734375,-0.234375,0.71875,761
709,1696244285151,0.7375488,-0.08087158,0.6793823,-0.90625,0.359375,0.328125,762
710,1696244285191,0.7285156,-0.08062744,0.69989014,0.140625,0.40625,0.28125,763
711,1696244285231,0.73413086,-0.09259033,0.6845093,1.28125,-1.234375,0.078125,764
712,1696244285271,0.73779297,-0.085510254,0.6967163,0.96875,-0.84375,-0.015625,765
713,1696244285311,0.74072266,-0.09112549,0.69573975,0.578125,-0.65625,0.375,766
714,1696244285351,0.73706055,-0.085998535,0.697937,0.265625,-0.140625,0.28125,767
715,1696244285391,0.73876953,-0.09527588,0.6972046,0.34375,-0.421875,-0.015625,768
716,1696244285431,0.73657227,-0.10064697,0.6967163,0.625,-0.9375,0.28125,769
717,1696244285471,0.73779297,-0.09283447,0.68548584,0.34375,-0.78125,0.28125,770
718,1696244285511,0.7319336,-0.0947876,0.69573975,0.8125,-1.5625,0.09375,771
719,1696244285551,0.7404785,-0.09259033,0.6950073,0.109375,-0.953125,0.0625,772
720,1696244285591,0.73876953,-0.08673096,0.6810913,-0.5,-0.265625,0.296875,773
721,1696244285631,0.73217773,-0.09649658,0.7037964,0.15625,0.0625,0.296875,774
722,1696244285671,0.7314453,-0.093322754,0.7008667,1.421875,-0.75,0.09375,775
723,1696244285711,0.73461914,-0.09869385,0.69329834,0.765625,-0.640625,-0.03125,776
724,1696244285751,0.7368164,-0.08892822,0.70062256,-0.25,-0.421875,0.171875,777
725,1696244285791,0.73046875,-0.097229004,0.6950073,0.0,-0.609375,0.3125,778
726,1696244285831,0.73046875,-0.093811035,0.6937866,-0.046875,-0.53125,0.21875,779
727,1696244285871,0.73339844,-0.08526611,0.6918335,-0.5,-0.203125,0.3125,780
728,1696244285911,0.734375,-0.085510254,0.69158936,-0.703125,0.25,0.21875,781
729,1696244285951,0.7451172,-0.10064697,0.701355,0.796875,-0.84375,0.109375,782
730,1696244285991,0.73535156,-0.08892822,0.6923218,0.5625,-1.109375,-0.046875,783
731,1696244286031,0.7331543,-0.09063721,0.70648193,-0.484375,-0.640625,0.1875,784
732,1696244286071,0.7363281,-0.08526611,0.6976929,-0.21875,-0.171875,0.21875,785
733,1696244286111,0.7368164,-0.097961426,0.6864624,0.1875,-0.4375,0.140625,786
734,1696244286151,0.7258301,-0.09210205,0.69818115,0.3125,-0.46875,0.234375,787
735,1696244286191,0.7331543,-0.097229004,0.69451904,0.34375,-0.21875,0.3125,788
736,1696244286231,0.7392578,-0.09625244,0.6913452,0.03125,-0.625,0.3125,789
737,1696244286271,0.73657227,-0.09283447,0.70233154,0.09375,-0.453125,0.265625,790
738,1696244286311,0.7390137,-0.08648682,0.6937866,0.109375,-0.546875,0.171875,791
739,1696244286351,0.7421875,-0.09625244,0.6845093,0.609375,-1.046875,0.21875,792
740,1696244286391,0.7336426,-0.08770752,0.701355,0.265625,-0.84375,0.0,793
741,1696244286431,0.734375,-0.09234619,0.68621826,-0.84375,1.109375,0.296875,794
742,1696244286471,0.736084,-0.097961426,0.7140503,1.109375,0.4375,0.328125,795
743,1696244286511,0.73461914,-0.10308838,0.6845093,1.25,-1.171875,0.078125,796
744,1696244286551,0.73168945,-0.09136963,0.6935425,-0.265625,-0.21875,0.03125,797
745,1696244286591,0.73950195,-0.10357666,0.696228,-0.734375,-0.234375,0.296875,798
746,1696244286631,0.7390137,-0.09454346,0.68182373,-0.328125,-0.671875,-0.078125,799
747,1696244286671,0.7409668,-0.093811035,0.6845093,-0.125,-0.90625,0.203125,800
748,1696244286711,0.72436523,-0.0947876,0.68914795,0.03125,-0.5625,0.203125,801
749,1696244286751,0.7373047,-0.09698486,0.7001343,-0.09375,0.28125,0.234375,802
750,1696244286791,0.7302246,-0.09967041,0.69696045,0.828125,-0.875,0.4375,803
751,1696244286831,0.74072266,-0.10040283,0.6901245,0.21875,-0.875,0.28125,804
752,1696244286871,0.7307129,-0.09967041,0.69940186,-0.125,-0.984375,0.421875,805
753,1696244286911,0.7397461,-0.08721924,0.6935425,-0.09375,-0.375,0.28125,806
754,1696244286951,0.7373047,-0.101379395,0.68621826,0.375,-0.78125,0.140625,807
755,1696244286991,0.7368164,-0.09576416,0.6935425,0.46875,-0.9375,0.578125,808
756,1696244287031,0.7373047,-0.09649658,0.69158936,0.234375,-0.75,0.234375,809
757,1696244287071,0.73657227,-0.10015869,0.69989014,0.140625,-0.671875,0.328125,810
758,1696244287111,0.7331543,-0.10455322,0.69647217,-0.265625,-0.96875,0.1875,811
759,1696244287151,0.7351074,-0.10089111,0.6889038,-0.234375,-0.75,0.359375,812
