,timestamp,accel_x,accel_y,accel_z,gyro_x,gyro_y,gyro_z,ind
0,1696243114519,0.12402344,-1.1172485,-0.24957275,-4.015625,4.46875,3.234375,0
1,1696243114559,0.42919922,-0.71710205,-0.36187744,6.90625,11.796875,-3.234375,1
2,1696243114599,0.53100586,-0.6687622,-0.32037354,7.109375,10.53125,7.484375,2
3,1696243114639,0.49267578,-0.862854,-0.25445557,0.8125,-1.890625,2.765625,3
4,1696243114679,0.44213867,-0.96099854,-0.20684814,-3.6875,-8.265625,-3.046875,4
5,1696243114719,0.31298828,-0.89923096,-0.1885376,-6.125,-0.65625,-1.578125,5
6,1696243114759,0.31811523,-0.83551025,-0.26885986,-6.5,1.21875,-5.03125,6
7,1696243114799,0.45288086,-0.8567505,-0.2654419,-5.546875,0.0625,-0.671875,7
8,1696243114839,0.39160156,-0.9319458,-0.22442627,-5.265625,-0.59375,0.40625,8
9,1696243114879,0.34399414,-0.89678955,-0.20709229,-2.71875,-0.640625,-1.84375,9
10,1696243114919,0.3605957,-0.8464966,-0.18170166,-4.53125,-2.359375,-0.28125,10
11,1696243114959,0.32885742,-0.9011841,-0.18634033,-7.546875,-3.34375,-1.890625,11
12,1696243114999,0.33935547,-0.90338135,-0.1519165,-4.359375,-2.234375,-0.78125,12
13,1696243115039,0.35595703,-0.892395,-0.1663208,-5.75,-5.609375,-0.96875,13
14,1696243115079,0.3388672,-0.9319458,-0.16485596,-7.109375,-7.703125,-1.515625,14
15,1696243115119,0.31689453,-0.8960571,-0.11798096,-2.53125,-4.203125,-0.4375,15
16,1696243115159,0.33447266,-0.8496704,-0.11260986,-5.140625,-2.0,-0.953125,16
17,1696243115199,0.30664062,-0.85943604,-0.09576416,-2.0,-4.53125,-0.71875,17
18,1696243115239,0.30908203,-0.87457275,-0.12628174,-2.171875,-2.59375,-1.40625,18
19,1696243115279,0.33666992,-0.87213135,-0.08062744,0.90625,2.328125,0.0625,19
20,1696243115319,0.23779297,-0.83013916,-0.09307861,3.015625,4.78125,-1.46875,20
21,1696243115359,0.23779297,-0.80596924,-0.14703369,5.359375,8.921875,-2.84375,21
22,1696243115399,0.33276367,-0.90631104,-0.13458252,0.578125,11.28125,1.515625,22
23,1696243115439,0.24121094,-0.9783325,-0.26641846,1.40625,5.203125,-0.609375,23
24,1696243115479,0.4724121,-0.94488525,-0.3057251,14.1875,1.03125,4.4375,24
25,1696243115519,0.44970703,-0.881897,-0.22198486,19.609375,5.859375,19.171875,25
26,1696243115559,0.30444336,-0.79693604,-0.16973877,9.921875,-2.328125,2.203125,26
27,1696243115599,0.29907227,-0.93048096,-0.21954346,-3.640625,-2.890625,-0.71875,27
28,1696243115639,0.39526367,-0.94854736,-0.25128174,-2.15625,-0.984375,-2.46875,28
29,1696243115679,0.3774414,-0.9290161,-0.253479,0.5625,1.609375,-1.75,29
30,1696243115719,0.30786133,-0.88287354,-0.22613525,4.453125,-1.609375,-3.6875,30
31,1696243115759,0.33984375,-0.88360596,-0.20977783,0.453125,1.0,-4.3125,31
32,1696243115799,0.31420898,-0.89434814,-0.17901611,0.859375,-2.046875,-3.9375,32
33,1696243115839,0.25805664,-0.9085083,-0.20880127,-2.453125,-1.359375,-6.109375,33
34,1696243115879,0.2529297,-0.9182739,-0.20611572,-4.390625,1.046875,-7.890625,34
35,1696243115919,0.25146484,-0.9507446,-0.1638794,-4.890625,4.734375,-7.484375,35
36,1696243115959,0.23071289,-0.9163208,-0.27008057,-4.59375,-0.59375,-10.796875,36
37,1696243115999,0.22143555,-0.87872314,-0.28448486,-4.5,1.96875,-7.90625,37
38,1696243116039,0.20263672,-0.93292236,-0.23638916,-3.265625,1.1875,-8.625,38
39,1696243116079,0.21191406,-0.9414673,-0.21221924,-1.078125,3.46875,-4.90625,39
40,1696243116119,0.22241211,-0.925354,-0.2144165,-1.859375,3.0625,-3.9375,40
41,1696243116159,0.18945312,-0.9216919,-0.22540283,-2.578125,3.6875,-2.421875,41
42,1696243116199,0.18969727,-0.9246216,-0.22564697,-3.359375,7.21875,-0.546875,42
43,1696243116239,0.16503906,-0.92559814,-0.22125244,-1.3125,4.984375,-0.515625,43
44,1696243116279,0.15161133,-0.92266846,-0.24176025,-1.015625,4.296875,0.5625,44
45,1696243116319,0.19897461,-0.92510986,-0.20147705,-1.015625,5.0,3.0,45
46,1696243116359,0.14892578,-0.9175415,-0.24737549,-0.6875,-2.34375,4.828125,46
47,1696243116399,0.18481445,-0.8897095,-0.22027588,-5.703125,-5.28125,5.078125,47
48,1696243116439,0.22558594,-0.9055786,-0.23272705,-2.921875,-21.09375,7.84375,48
49,1696243116479,0.32958984,-0.881897,-0.25909424,-6.65625,-32.390625,6.65625,49
50,1696243116519,0.3515625,-0.9585571,-0.10650635,7.78125,-24.09375,9.734375,50
51,1696243116559,0.2109375,-1.0401001,0.073913574,13.78125,-4.296875,15.28125,51
52,1696243116599,0.1550293,-0.9871216,-0.21124268,-7.3125,-6.03125,11.265625,52
53,1696243116639,0.2722168,-0.82354736,-0.31427002,-4.53125,-0.484375,-4.078125,53
54,1696243116679,0.4309082,-0.70440674,-0.32989502,14.203125,6.5,6.46875,54
55,1696243116719,0.36743164,-0.8713989,-0.16558838,11.8125,4.890625,13.203125,55
56,1696243116759,0.38183594,-1.0505981,-0.16192627,-1.3125,-1.484375,0.8125,56
57,1696243116799,0.3828125,-0.8584595,-0.20513916,-5.25,0.484375,0.4375,57
58,1696243116839,0.34985352,-0.8521118,-0.17364502,-4.1875,-1.453125,2.984375,58
59,1696243116879,0.31884766,-0.9483032,-0.17755127,-3.890625,3.75,2.59375,59
60,1696243116919,0.40063477,-0.878479,-0.14215088,2.734375,8.125,0.96875,60
61,1696243116959,0.4020996,-0.8862915,-0.1716919,3.4375,5.234375,4.734375,61
62,1696243116999,0.41870117,-0.8753052,-0.13995361,-1.0,8.21875,2.609375,62
63,1696243117039,0.41552734,-0.88726807,-0.27178955,-0.421875,-0.234375,2.265625,63
64,1696243117079,0.45825195,-0.81866455,-0.20050049,5.265625,-1.96875,1.515625,64
65,1696243117119,0.33642578,-0.87872314,-0.19415283,2.984375,-4.09375,1.40625,65
66,1696243117159,0.38793945,-0.8357544,-0.20050049,3.375,-4.859375,-1.65625,66
67,1696243117199,0.3659668,-0.86846924,-0.19976807,3.96875,-5.234375,1.09375,67
68,1696243117239,0.36083984,-0.8604126,-0.18878174,6.78125,-7.28125,-0.953125,68
69,1696243117279,0.39916992,-0.8772583,-0.15167236,6.96875,-6.28125,0.53125,69
70,1696243117319,0.41064453,-0.8740845,-0.19561768,4.671875,-9.125,-0.078125,70
71,1696243117359,0.35620117,-0.8574829,-0.12017822,5.828125,-5.8125,-0.484375,71
72,1696243117399,0.23535156,-0.8069458,-0.14801025,4.125,-0.421875,-3.78125,72
73,1696243117439,0.3034668,-0.786438,-0.18267822,4.640625,6.109375,-4.203125,73
74,1696243117479,0.2854004,-0.8477173,-0.09893799,3.203125,18.765625,-0.375,74
75,1696243117519,0.11035156,-0.866272,-0.25811768,-3.65625,27.875,-10.53125,75
76,1696243117559,0.4831543,-0.9055786,-0.6170044,8.859375,2.203125,-12.203125,76
77,1696243117599,0.6176758,-1.0513306,-0.41607666,17.484375,5.28125,25.4375,77
78,1696243117639,0.36254883,-0.87823486,-0.24835205,11.703125,-9.078125,-0.859375,78
79,1696243117679,0.3059082,-0.8027954,-0.27764893,-0.03125,-6.15625,-4.46875,79
80,1696243117719,0.26489258,-0.8179321,-0.37554932,-6.359375,-3.546875,3.546875,80
81,1696243117759,0.35766602,-0.89971924,-0.33062744,-1.421875,5.296875,-5.109375,81
82,1696243117799,0.31640625,-0.88726807,-0.33233643,-8.109375,2.78125,-5.5,82
83,1696243117839,0.24780273,-0.8753052,-0.2798462,-0.21875,0.59375,-7.859375,83
84,1696243117879,0.27441406,-0.8479614,-0.28204346,2.65625,4.78125,-6.8125,84
85,1696243117919,0.31054688,-0.7905884,-0.2930298,3.71875,1.78125,-5.703125,85
86,1696243117959,0.28808594,-0.8115845,-0.33233643,5.296875,-2.125,-3.59375,86
87,1696243117999,0.24682617,-0.835022,-0.30426025,5.984375,0.96875,-2.421875,87
88,1696243118039,0.24658203,-0.880188,-0.35943604,4.671875,0.3125,-3.03125,88
89,1696243118079,0.29223633,-0.87677,-0.3567505,5.0625,0.15625,-2.109375,89
90,1696243118119,0.23071289,-0.89434814,-0.34942627,4.671875,-0.921875,-1.375,90
91,1696243118159,0.24389648,-0.911438,-0.3826294,2.609375,-0.015625,-1.828125,91
92,1696243118199,0.24291992,-0.8965454,-0.36602783,1.0625,3.015625,-0.5,92
93,1696243118239,0.24023438,-0.89727783,-0.37994385,-2.28125,2.125,-3.90625,93
94,1696243118279,0.21582031,-0.84381104,-0.39068604,-3.453125,2.546875,-4.703125,94
95,1696243118319,0.23657227,-0.86846924,-0.3748169,-4.03125,0.75,-2.578125,95
96,1696243118359,0.25097656,-0.8845825,-0.34503174,-5.5625,-1.90625,-0.359375,96
97,1696243118399,0.19873047,-0.8989868,-0.33624268,-6.171875,-2.140625,-0.25,97
98,1696243118439,0.19018555,-0.8867798,-0.33843994,-6.84375,1.1875,0.03125,98
99,1696243118479,0.18823242,-0.8862915,-0.34039307,-4.328125,2.5,2.125,99
100,1696243118519,0.22192383,-0.8796997,-0.33673096,-4.421875,2.109375,3.015625,100
101,1696243118559,0.22631836,-0.8718872,-0.3731079,-8.953125,1.0625,3.0,101
102,1696243118599,0.23779297,-0.8777466,-0.26080322,-4.1875,-4.671875,4.375,102
103,1696243118639,0.19067383,-0.927063,-0.30548096,-9.6875,-12.375,5.328125,103
104,1696243118679,0.2800293,-0.87213135,-0.28033447,-9.328125,-22.90625,4.421875,104
105,1696243118719,0.2927246,-0.81744385,-0.3665161,0.703125,-25.578125,11.421875,105
106,1696243118759,0.3864746,-0.86260986,0.047546387,17.5,3.3125,18.53125,106
107,1696243118799,0.29467773,-0.9859009,-0.23834229,-3.859375,-11.0625,17.109375,107
108,1696243118839,0.2548828,-0.79156494,-0.3665161,-4.765625,-0.734375,2.0625,108
109,1696243118879,0.49682617,-0.68878174,-0.37799072,8.03125,4.3125,6.828125,109
110,1696243118919,0.44458008,-0.8526001,-0.23297119,6.125,0.640625,14.890625,110
111,1696243118959,0.3881836,-1.0327759,-0.18829346,-0.328125,-5.15625,6.171875,111
112,1696243118999,0.38549805,-0.9019165,-0.23883057,-5.640625,-0.890625,-1.0625,112
113,1696243119039,0.36157227,-0.78790283,-0.28277588,-5.109375,2.0625,1.578125,113
114,1696243119079,0.39697266,-0.8272095,-0.27886963,-6.453125,3.015625,2.125,114
115,1696243119119,0.42651367,-0.9011841,-0.29156494,-7.390625,4.546875,-0.125,115
116,1696243119159,0.47314453,-0.85406494,-0.22491455,-6.34375,8.0,3.484375,116
117,1696243119199,0.4736328,-0.847229,-0.2131958,-6.53125,3.1875,2.5,117
118,1696243119239,0.43945312,-0.8711548,-0.17681885,-4.9375,0.953125,1.9375,118
119,1696243119279,0.44189453,-0.8430786,-0.20440674,-5.21875,-0.09375,1.140625,119
120,1696243119319,0.4597168,-0.8335571,-0.24615479,-9.765625,-2.71875,0.0,120
121,1696243119359,0.36206055,-0.83843994,-0.1807251,-2.75,-1.703125,-1.40625,121
122,1696243119399,0.3491211,-0.87701416,-0.19366455,-3.03125,0.765625,-2.296875,122
123,1696243119439,0.39770508,-0.84454346,-0.1831665,-3.5,1.453125,-3.390625,123
124,1696243119479,0.3869629,-0.8648071,-0.1716919,-4.234375,-0.71875,-4.15625,124
125,1696243119519,0.37451172,-0.85113525,-0.15582275,-3.46875,-1.5625,-3.6875,125
126,1696243119559,0.38208008,-0.8464966,-0.14141846,-0.734375,-2.046875,-3.5,126
127,1696243119599,0.38208008,-0.83721924,-0.16070557,-1.34375,-1.90625,-3.328125,127
128,1696243119639,0.38452148,-0.8521118,-0.12554932,1.984375,-1.34375,-2.234375,128
129,1696243119679,0.3251953,-0.8418579,-0.14190674,4.671875,-1.546875,-1.828125,129
130,1696243119719,0.32104492,-0.80426025,-0.15435791,6.78125,1.296875,-2.125,130
131,1696243119759,0.32739258,-0.83795166,-0.13238525,8.96875,5.5625,-3.3125,131
132,1696243119799,0.27807617,-0.84210205,-0.14727783,10.28125,10.5625,-5.421875,132
133,1696243119839,0.25170898,-0.8311157,-0.25079346,8.59375,15.34375,-6.78125,133
134,1696243119879,0.33911133,-0.9368286,-0.43902588,7.5,-2.984375,-9.671875,134
135,1696243119919,0.61743164,-1.0112915,-0.34942627,14.765625,-1.71875,10.84375,135
136,1696243119959,0.2956543,-0.9204712,-0.25860596,24.078125,-0.71875,9.140625,136
137,1696243119999,0.31811523,-0.7529907,-0.286438,20.296875,-7.9375,-6.5,137
138,1696243120039,0.41210938,-0.83599854,-0.35308838,2.90625,-14.15625,0.515625,138
139,1696243120079,0.35888672,-0.9336548,-0.3399048,0.203125,-9.109375,-2.359375,139
140,1696243120119,0.30493164,-0.9209595,-0.41778564,-5.6875,-2.265625,-6.71875,140
141,1696243120159,0.35302734,-0.8118286,-0.3213501,5.125,-2.546875,-4.78125,141
142,1696243120199,0.36645508,-0.83966064,-0.31158447,3.921875,-7.203125,-1.140625,142
143,1696243120239,0.3659668,-0.85040283,-0.28863525,0.75,-9.671875,-2.375,143
144,1696243120279,0.28881836,-0.87286377,-0.24102783,-3.0,-6.3125,-1.359375,144
145,1696243120319,0.24975586,-0.85479736,-0.2637329,-1.65625,-4.46875,-4.984375,145
146,1696243120359,0.30029297,-0.8272095,-0.23809814,-0.8125,2.09375,-3.390625,146
147,1696243120399,0.26049805,-0.87384033,-0.25494385,-2.1875,3.640625,-4.71875,147
148,1696243120439,0.28564453,-0.89923096,-0.3027954,-0.3125,4.703125,-5.75,148
149,1696243120479,0.28735352,-0.8723755,-0.31427002,1.6875,8.125,-4.875,149
150,1696243120519,0.25756836,-0.85821533,-0.33966064,1.90625,7.40625,-7.953125,150
151,1696243120559,0.27612305,-0.8855591,-0.3682251,0.796875,4.546875,-4.734375,151
152,1696243120599,0.23583984,-0.87335205,-0.34332275,1.46875,6.09375,-4.640625,152
153,1696243120639,0.20874023,-0.8652954,-0.35699463,1.3125,5.96875,-5.4375,153
154,1696243120679,0.22485352,-0.8911743,-0.38287354,-1.25,10.46875,-2.265625,154
155,1696243120719,0.2866211,-0.8726196,-0.38238525,-0.109375,8.515625,-3.140625,155
156,1696243120759,0.26245117,-0.8555298,-0.3496704,1.0625,1.921875,-0.828125,156
157,1696243120799,0.24804688,-0.8772583,-0.33135986,0.65625,-3.453125,-0.5,157
158,1696243120839,0.19165039,-0.87286377,-0.3274536,0.625,-6.078125,0.375,158
159,1696243120879,0.16259766,-0.87677,-0.31011963,-1.265625,-0.015625,0.015625,159
160,1696243120919,0.18603516,-0.8753052,-0.41851807,-7.40625,1.234375,0.859375,160
161,1696243120959,0.21020508,-0.8189087,-0.3526001,-1.453125,-0.5625,1.0,161
162,1696243120999,0.18334961,-0.88482666,-0.3423462,-2.078125,-4.25,2.0625,162
163,1696243121039,0.20776367,-0.8960571,-0.33087158,-6.125,-6.046875,1.9375,163
164,1696243121079,0.2019043,-0.8916626,-0.3250122,-7.0,-10.984375,3.03125,164
165,1696243121119,0.2368164,-0.86968994,-0.2979126,-6.859375,-16.265625,6.234375,165
166,1696243121159,0.28515625,-0.8735962,-0.29888916,-7.5,-26.6875,10.203125,166
167,1696243121199,0.32617188,-0.94732666,-0.41241455,-8.390625,-27.921875,12.84375,167
168,1696243121239,0.47680664,-0.9446411,0.11541748,10.0625,4.265625,23.9375,168
169,1696243121279,0.18920898,-0.96539307,-0.2456665,-5.171875,-13.875,13.125,169
170,1696243121319,0.22436523,-0.68927,-0.37335205,-6.53125,3.390625,0.75,170
171,1696243121359,0.5168457,-0.6748657,-0.34283447,5.03125,10.046875,10.125,171
172,1696243121399,0.42919922,-0.89678955,-0.2720337,2.953125,4.484375,9.453125,172
173,1696243121439,0.42456055,-0.97198486,-0.21832275,1.765625,5.578125,3.1875,173
174,1696243121479,0.40161133,-0.8389282,-0.25054932,-3.671875,5.28125,-2.6875,174
175,1696243121519,0.38452148,-0.79815674,-0.27838135,-5.09375,3.515625,2.953125,175
176,1696243121559,0.40771484,-0.85943604,-0.2637329,-5.78125,2.78125,3.171875,176
177,1696243121599,0.4111328,-0.9121704,-0.22930908,-4.0,7.390625,1.828125,177
178,1696243121639,0.41064453,-0.8411255,-0.24078369,-5.84375,5.390625,1.203125,178
179,1696243121679,0.40942383,-0.83721924,-0.23931885,-7.421875,4.453125,3.46875,179
180,1696243121719,0.3881836,-0.8394165,-0.29571533,-5.28125,-2.984375,1.171875,180
181,1696243121759,0.4807129,-0.8496704,-0.2234497,-1.34375,-0.9375,2.640625,181
182,1696243121799,0.45361328,-0.8960571,-0.22320557,1.625,-2.96875,7.640625,182
183,1696243121839,0.44726562,-0.8648071,-0.27764893,-3.8125,-3.625,2.265625,183
184,1696243121879,0.5168457,-0.78448486,-0.2432251,1.734375,-4.1875,3.484375,184
185,1696243121919,0.46044922,-0.83184814,-0.20953369,0.078125,-5.96875,3.578125,185
186,1696243121959,0.375,-0.8599243,-0.21929932,-4.140625,-7.671875,-1.1875,186
187,1696243121999,0.4177246,-0.8389282,-0.21295166,-3.59375,-2.78125,-1.625,187
188,1696243122039,0.41259766,-0.8311157,-0.17730713,0.125,-3.4375,-1.65625,188
189,1696243122079,0.43652344,-0.8677368,-0.17877197,-0.75,-6.046875,-3.03125,189
190,1696243122119,0.43798828,-0.8574829,-0.1519165,-0.484375,-7.875,-2.28125,190
191,1696243122159,0.42456055,-0.8377075,-0.12799072,-0.828125,-6.5625,-0.484375,191
192,1696243122199,0.40454102,-0.8386841,-0.12286377,0.21875,-5.765625,-2.0625,192
193,1696243122239,0.37060547,-0.833313,-0.13214111,0.96875,-3.1875,-2.4375,193
194,1696243122279,0.38085938,-0.81500244,-0.09429932,3.890625,3.625,-2.328125,194
195,1696243122319,0.30688477,-0.784729,-0.07208252,6.125,11.109375,-2.59375,195
196,1696243122359,0.25390625,-0.7595825,-0.105529785,3.984375,19.90625,-5.9375,196
197,1696243122399,0.2590332,-0.9175415,-0.3887329,-4.71875,17.890625,-11.71875,197
198,1696243122439,0.61083984,-1.022522,-0.4331665,-4.59375,-4.0,-11.046875,198
199,1696243122479,0.43286133,-0.96173096,-0.26104736,14.515625,12.96875,11.609375,199
200,1696243122519,0.28271484,-0.7283325,-0.23516846,23.265625,5.8125,-4.1875,200
201,1696243122559,0.39526367,-0.7803345,-0.23809814,10.859375,-0.203125,-0.671875,201
202,1696243122599,0.4506836,-0.8640747,-0.29156494,-4.296875,-10.03125,-0.640625,202
203,1696243122639,0.38427734,-0.97052,-0.29571533,-4.296875,-3.3125,-5.375,203
204,1696243122679,0.3203125,-0.8753052,-0.28985596,3.8125,-0.25,-5.171875,204
205,1696243122719,0.31958008,-0.86798096,-0.3032837,3.671875,-2.859375,-6.046875,205
206,1696243122759,0.3557129,-0.87506104,-0.2756958,3.3125,-4.09375,-5.171875,206
207,1696243122799,0.34472656,-0.8740845,-0.26812744,0.421875,-3.5,-6.6875,207
208,1696243122839,0.2932129,-0.895813,-0.2564087,-3.28125,-3.796875,-8.234375,208
209,1696243122879,0.25341797,-0.8977661,-0.2695923,-5.3125,-1.21875,-9.1875,209
210,1696243122919,0.22973633,-0.87628174,-0.28277588,-4.578125,0.953125,-10.09375,210
211,1696243122959,0.2163086,-0.87335205,-0.30499268,-4.0625,2.109375,-9.625,211
212,1696243122999,0.23144531,-0.87750244,-0.28692627,-2.25,3.46875,-8.8125,212
213,1696243123039,0.23999023,-0.88116455,-0.3477173,-0.671875,3.546875,-5.1875,213
214,1696243123079,0.22583008,-0.91192627,-0.36138916,-1.515625,2.375,-5.1875,214
215,1696243123119,0.1875,-0.9019165,-0.3008423,1.96875,2.953125,-4.5625,215
216,1696243123159,0.22631836,-0.90509033,-0.3201294,-3.9375,5.09375,-4.203125,216
217,1696243123199,0.20214844,-0.8904419,-0.25323486,1.296875,0.484375,-2.9375,217
218,1696243123239,0.17944336,-0.9170532,-0.29693604,-0.890625,-2.921875,-3.09375,218
219,1696243123279,0.1862793,-0.8814087,-0.2769165,-1.359375,-1.765625,-0.671875,219
220,1696243123319,0.12573242,-0.8862915,-0.30426025,-1.359375,-0.6875,-0.1875,220
221,1696243123359,0.16723633,-0.87750244,-0.3135376,-0.53125,0.25,1.171875,221
222,1696243123399,0.20288086,-0.850647,-0.30645752,1.40625,-1.53125,4.25,222
223,1696243123439,0.17700195,-0.87823486,-0.2925415,1.40625,-8.453125,4.75,223
224,1696243123479,0.14526367,-0.90411377,-0.31817627,0.46875,-10.84375,7.109375,224
225,1696243123519,0.24438477,-0.91656494,-0.30548096,-0.6875,-15.296875,8.296875,225
226,1696243123559,0.26098633,-0.928772,-0.34014893,-0.828125,-21.5625,9.875,226
227,1696243123599,0.28979492,-1.046936,-0.13555908,-2.0,-3.90625,11.953125,227
228,1696243123639,0.26464844,-0.9920044,-0.08477783,6.015625,-1.5,15.265625,228
229,1696243123679,0.13256836,-0.90802,-0.28546143,-2.328125,-1.390625,2.96875,229
230,1696243123719,0.35473633,-0.6716919,-0.38653564,5.71875,4.9375,2.828125,230
231,1696243123759,0.4284668,-0.73028564,-0.30621338,7.984375,4.484375,12.890625,231
232,1696243123799,0.32080078,-0.9163208,-0.25079346,12.328125,3.203125,14.359375,232
233,1696243123839,0.35913086,-0.90045166,-0.33966064,1.984375,4.625,4.5,233
234,1696243123879,0.45507812,-0.82891846,-0.3340454,3.265625,4.25,9.203125,234
235,1696243123919,0.39257812,-0.8230591,-0.2949829,1.28125,1.59375,8.25,235
236,1696243123959,0.32714844,-0.8430786,-0.29473877,-3.359375,4.1875,3.953125,236
237,1696243123999,0.4338379,-0.8657837,-0.31280518,-3.21875,7.453125,3.109375,237
238,1696243124039,0.49853516,-0.9194946,-0.27960205,-5.25,5.796875,2.875,238
239,1696243124079,0.43774414,-0.8442993,-0.31256104,-7.8125,-0.78125,0.25,239
240,1696243124119,0.4794922,-0.83184814,-0.28985596,-4.28125,-2.875,1.9375,240
241,1696243124159,0.4567871,-0.8513794,-0.25177002,-6.203125,-5.5,1.234375,241
242,1696243124199,0.42871094,-0.84088135,-0.23150635,-7.3125,-6.234375,-0.921875,242
243,1696243124239,0.37353516,-0.83673096,-0.24664307,-11.09375,-7.75,-2.984375,243
244,1696243124279,0.32421875,-0.84161377,-0.23150635,-10.28125,-3.296875,-6.421875,244
245,1696243124319,0.35961914,-0.8699341,-0.23101807,-8.515625,-0.203125,-3.875,245
246,1696243124359,0.42163086,-0.8616333,-0.19366455,-6.703125,-1.28125,-2.9375,246
247,1696243124399,0.40063477,-0.84259033,-0.17071533,-4.96875,-3.703125,-1.921875,247
248,1696243124439,0.37963867,-0.8621216,-0.14801025,-2.90625,-3.0,-1.859375,248
249,1696243124479,0.35131836,-0.84503174,-0.124572754,-2.84375,-3.421875,-2.921875,249
250,1696243124519,0.3828125,-0.84039307,-0.12994385,-6.203125,0.671875,-2.078125,250
251,1696243124559,0.29370117,-0.83013916,-0.07305908,1.703125,3.5,-1.359375,251
252,1696243124599,0.23706055,-0.82696533,-0.10089111,1.328125,13.671875,-4.6875,252
253,1696243124639,0.26000977,-0.82037354,-0.19439697,-1.125,17.65625,-8.8125,253
254,1696243124679,0.3244629,-0.91119385,-0.30426025,-5.4375,16.734375,-7.734375,254
255,1696243124719,0.47875977,-0.942688,-0.3640747,2.6875,-4.359375,-4.140625,255
256,1696243124759,0.51416016,-0.88897705,-0.26617432,23.40625,5.296875,19.296875,256
257,1696243124799,0.27294922,-0.74835205,-0.16192627,21.0,0.234375,6.359375,257
258,1696243124839,0.3017578,-0.89678955,-0.17388916,-0.09375,-8.546875,0.6875,258
259,1696243124879,0.35913086,-0.98516846,-0.2715454,-9.234375,-8.390625,1.171875,259
260,1696243124919,0.36938477,-0.9627075,-0.31695557,-0.796875,3.15625,-1.96875,260
261,1696243124959,0.3334961,-0.82525635,-0.26617432,6.328125,1.875,-3.03125,261
262,1696243124999,0.35742188,-0.8777466,-0.25543213,3.65625,-4.5,-1.390625,262
263,1696243125039,0.4033203,-0.9002075,-0.22076416,0.84375,-5.078125,-3.796875,263
264,1696243125079,0.3413086,-0.88946533,-0.18487549,-0.34375,-6.828125,-4.40625,264
265,1696243125119,0.27539062,-0.894104,-0.159729,-0.109375,-4.578125,-4.84375,265
266,1696243125159,0.2434082,-0.8726196,-0.21002197,-2.78125,-0.53125,-7.640625,266
267,1696243125199,0.2998047,-0.8555298,-0.30230713,-4.578125,2.484375,-5.0625,267
268,1696243125239,0.29541016,-0.8279419,-0.26275635,2.640625,2.4375,-3.734375,268
269,1696243125279,0.28393555,-0.91192627,-0.29742432,0.1875,1.453125,-2.375,269
270,1696243125319,0.2980957,-0.91070557,-0.29058838,0.484375,2.34375,-2.890625,270
271,1696243125359,0.25390625,-0.9053345,-0.30108643,2.953125,0.5,-3.625,271
272,1696243125399,0.24487305,-0.9146118,-0.30059814,2.46875,0.015625,-3.59375,272
273,1696243125439,0.24169922,-0.90631104,-0.32281494,2.09375,2.796875,-3.96875,273
274,1696243125479,0.2253418,-0.8452759,-0.32208252,4.078125,6.015625,-3.5,274
275,1696243125519,0.28588867,-0.8789673,-0.3430786,3.484375,3.6875,-1.234375,275
276,1696243125559,0.30810547,-0.925354,-0.31280518,2.09375,1.40625,-1.515625,276
277,1696243125599,0.25585938,-0.9067993,-0.28155518,-0.578125,-1.890625,-2.0,277
278,1696243125639,0.21484375,-0.9170532,-0.29180908,-2.828125,-5.078125,-2.765625,278
279,1696243125679,0.19360352,-0.89263916,-0.2925415,-2.234375,-1.78125,-2.625,279
280,1696243125719,0.21313477,-0.8740845,-0.3098755,-2.640625,-0.546875,-2.40625,280
281,1696243125759,0.20019531,-0.91534424,-0.3032837,-3.09375,-0.90625,-2.28125,281
282,1696243125799,0.20361328,-0.8989868,-0.2715454,-3.640625,0.28125,-2.03125,282
283,1696243125839,0.19311523,-0.89801025,-0.29644775,-9.8125,1.078125,-1.71875,283
284,1696243125879,0.18969727,-0.89190674,-0.23614502,-3.4375,-3.453125,0.375,284
285,1696243125919,0.1796875,-0.9092407,-0.26275635,-2.546875,-5.71875,2.75,285
286,1696243125959,0.21313477,-0.87091064,-0.24761963,-3.78125,-9.171875,3.515625,286
287,1696243125999,0.23632812,-0.84942627,-0.2678833,-1.5625,-15.8125,8.640625,287
288,1696243126039,0.26879883,-0.8779907,-0.35968018,-3.453125,-20.25,10.296875,288
289,1696243126079,0.39697266,-1.0176392,-0.006652832,11.28125,8.265625,19.578125,289
290,1696243126119,0.29174805,-0.9800415,-0.15631104,6.609375,-6.84375,15.859375,290
291,1696243126159,0.20214844,-0.7930298,-0.33062744,2.140625,-7.921875,1.875,291
292,1696243126199,0.4387207,-0.6746216,-0.37139893,10.0625,1.78125,9.390625,292
293,1696243126239,0.37573242,-0.9060669,-0.2588501,6.15625,-2.671875,12.328125,293
294,1696243126279,0.3100586,-1.0742798,-0.16485596,3.46875,-3.390625,8.296875,294
295,1696243126319,0.37280273,-0.866272,-0.24591064,1.25,1.5625,0.421875,295
296,1696243126359,0.38842773,-0.7727661,-0.25909424,1.171875,3.078125,3.859375,296
297,1696243126399,0.32495117,-0.8574829,-0.27496338,-1.046875,4.625,6.046875,297
298,1696243126439,0.36865234,-0.8755493,-0.28204346,0.5,2.53125,2.25,298
299,1696243126479,0.43164062,-0.8621216,-0.27764893,-2.359375,5.125,3.46875,299
300,1696243126519,0.39672852,-0.85235596,-0.23077393,1.34375,0.828125,5.0625,300
301,1696243126559,0.39160156,-0.88067627,-0.25030518,-1.484375,1.28125,3.8125,301
302,1696243126599,0.43676758,-0.8533325,-0.23980713,-2.8125,2.53125,4.59375,302
303,1696243126639,0.41357422,-0.80181885,-0.24005127,0.21875,6.546875,8.953125,303
304,1696243126679,0.4777832,-0.8081665,-0.3164673,-0.84375,-0.40625,7.84375,304
305,1696243126719,0.45776367,-0.85162354,-0.2539673,-0.046875,1.65625,4.4375,305
306,1696243126759,0.47509766,-0.8101196,-0.25128174,-0.328125,-1.3125,4.125,306
307,1696243126799,0.51538086,-0.772522,-0.25665283,-0.15625,-4.6875,3.234375,307
308,1696243126839,0.4206543,-0.82110596,-0.25982666,-1.921875,-4.40625,1.671875,308
309,1696243126879,0.45410156,-0.87628174,-0.23760986,-0.96875,-2.953125,-0.125,309
310,1696243126919,0.41064453,-0.8464966,-0.21270752,-1.9375,-0.6875,-0.34375,310
311,1696243126959,0.41992188,-0.80670166,-0.2210083,-1.75,-0.8125,-3.5625,311
312,1696243126999,0.46166992,-0.81817627,-0.19610596,-0.8125,-1.3125,-1.0,312
313,1696243127039,0.3852539,-0.84503174,-0.16021729,-0.515625,5.453125,-2.3125,313
314,1696243127079,0.32592773,-0.8069458,-0.1963501,-0.375,8.203125,-5.171875,314
315,1696243127119,0.40649414,-0.7683716,-0.1873169,3.515625,10.5625,-3.515625,315
316,1696243127159,0.36376953,-0.82110596,-0.1795044,9.375,14.3125,0.53125,316
317,1696243127199,0.25341797,-0.76763916,-0.22686768,4.703125,16.1875,-1.484375,317
318,1696243127239,0.33666992,-0.8147583,-0.41119385,3.5625,18.9375,-0.109375,318
319,1696243127279,0.5859375,-0.9192505,-0.49957275,7.109375,9.328125,2.71875,319
320,1696243127319,0.5031738,-0.9380493,-0.37042236,10.28125,3.15625,11.421875,320
321,1696243127359,0.31079102,-0.68292236,-0.2720337,3.890625,0.0625,-0.34375,321
322,1696243127399,0.3852539,-0.737854,-0.3423462,1.765625,-1.609375,-2.5625,322
323,1696243127439,0.43798828,-0.9158325,-0.427063,1.875,-2.078125,4.265625,323
324,1696243127479,0.38671875,-0.9348755,-0.36553955,-2.375,-2.0,-4.671875,324
325,1696243127519,0.36450195,-0.79107666,-0.3731079,-4.015625,-5.8125,-8.6875,325
326,1696243127559,0.40625,-0.7637329,-0.3591919,-0.6875,-8.25,-4.53125,326
327,1696243127599,0.4309082,-0.8213501,-0.32110596,-0.1875,-8.46875,-3.25,327
328,1696243127639,0.37158203,-0.8225708,-0.28131104,-0.234375,-8.78125,-3.109375,328
329,1696243127679,0.37109375,-0.8242798,-0.28033447,-3.96875,-5.84375,-5.6875,329
330,1696243127719,0.33496094,-0.8530884,-0.32574463,-6.484375,-2.4375,-6.609375,330
331,1696243127759,0.36401367,-0.81988525,-0.25860596,-0.1875,-1.9375,-5.828125,331
332,1696243127799,0.3251953,-0.85406494,-0.2942505,-0.40625,-1.890625,-5.03125,332
333,1696243127839,0.3251953,-0.8496704,-0.30181885,-2.546875,0.171875,-8.40625,333
334,1696243127879,0.31298828,-0.81036377,-0.33184814,-2.625,-0.25,-8.5625,334
335,1696243127919,0.30810547,-0.8374634,-0.3616333,-2.9375,0.109375,-6.09375,335
336,1696243127959,0.32128906,-0.8875122,-0.3555298,-2.09375,-2.203125,-5.171875,336
337,1696243127999,0.2783203,-0.92022705,-0.31134033,-0.453125,-1.703125,-4.6875,337
338,1696243128039,0.2602539,-0.90216064,-0.3352661,0.375,-2.375,-4.5,338
339,1696243128079,0.2841797,-0.84820557,-0.30889893,1.625,-0.421875,-4.515625,339
340,1696243128119,0.27490234,-0.8442993,-0.3213501,-0.828125,-1.640625,-4.0,340
341,1696243128159,0.25634766,-0.8880005,-0.33062744,-1.828125,-3.171875,-4.125,341
342,1696243128199,0.24536133,-0.89019775,-0.2883911,-0.078125,-3.0,-4.75,342
343,1696243128239,0.23828125,-0.87579346,-0.32061768,-2.359375,-5.234375,-4.09375,343
344,1696243128279,0.21948242,-0.8948364,-0.3032837,-2.78125,-2.953125,-1.34375,344
345,1696243128319,0.22485352,-0.8965454,-0.32354736,-0.515625,-4.421875,1.03125,345
346,1696243128359,0.26831055,-0.8682251,-0.30230713,-1.75,-3.46875,0.546875,346
347,1696243128399,0.21875,-0.87628174,-0.29571533,1.0625,-9.3125,2.53125,347
348,1696243128439,0.2512207,-0.8694458,-0.3164673,-3.09375,-9.546875,2.53125,348
349,1696243128479,0.25634766,-0.9089966,-0.28326416,-4.328125,-15.640625,3.15625,349
350,1696243128519,0.25610352,-0.93170166,-0.2539673,-3.9375,-17.6875,5.09375,350
351,1696243128559,0.2980957,-0.9138794,-0.28179932,-5.984375,-22.5,5.640625,351
352,1696243128599,0.3269043,-0.944397,-0.28668213,-2.015625,-20.546875,8.96875,352
353,1696243128639,0.38305664,-0.9180298,0.0119018555,13.96875,1.796875,16.34375,353
354,1696243128679,0.26660156,-0.85113525,-0.222229,0.65625,-9.296875,10.234375,354
355,1696243128719,0.30200195,-0.7090454,-0.33966064,-0.0625,-2.03125,2.078125,355
356,1696243128759,0.4741211,-0.7173462,-0.3040161,9.21875,5.59375,12.78125,356
357,1696243128799,0.4182129,-0.85601807,-0.2029419,8.203125,1.21875,15.296875,357
358,1696243128839,0.43115234,-0.92071533,-0.21026611,4.09375,2.109375,9.296875,358
359,1696243128879,0.3972168,-0.835022,-0.2678833,2.328125,6.921875,6.609375,359
360,1696243128919,0.40283203,-0.7764282,-0.2695923,1.109375,9.75,9.015625,360
361,1696243128959,0.43676758,-0.8340454,-0.30743408,3.34375,15.421875,5.59375,361
362,1696243128999,0.4567871,-0.88067627,-0.3015747,2.515625,12.21875,3.46875,362
363,1696243129039,0.47753906,-0.8320923,-0.29327393,1.171875,10.375,4.828125,363
364,1696243129079,0.46704102,-0.83013916,-0.30010986,-1.4375,6.765625,3.375,364
365,1696243129119,0.4350586,-0.83917236,-0.3135376,-2.359375,7.125,2.21875,365
366,1696243129159,0.47509766,-0.8101196,-0.33966064,-3.375,4.421875,1.859375,366
367,1696243129199,0.55908203,-0.7695923,-0.33551025,-0.359375,-0.0625,2.828125,367
368,1696243129239,0.56225586,-0.78692627,-0.28692627,0.265625,-0.234375,10.140625,368
369,1696243129279,0.4260254,-0.8274536,-0.29644775,-4.28125,-0.765625,4.234375,369
370,1696243129319,0.46826172,-0.739563,-0.30670166,-2.828125,1.21875,-0.796875,370
371,1696243129359,0.609375,-0.71343994,-0.31011963,-1.796875,-3.890625,4.390625,371
372,1696243129399,0.47216797,-0.80474854,-0.29400635,-1.359375,-6.203125,3.40625,372
373,1696243129439,0.42651367,-0.829895,-0.286438,-3.828125,-1.03125,-0.4375,373
374,1696243129479,0.48657227,-0.7901001,-0.27301025,-4.609375,1.328125,-1.0625,374
375,1696243129519,0.48486328,-0.78448486,-0.24298096,-5.4375,1.5,-0.328125,375
376,1696243129559,0.4362793,-0.788147,-0.23345947,-5.5,2.296875,-1.671875,376
377,1696243129599,0.43481445,-0.77593994,-0.20123291,-2.109375,3.28125,-1.265625,377
378,1696243129639,0.41845703,-0.7539673,-0.20123291,-4.40625,9.140625,-1.28125,378
379,1696243129679,0.36328125,-0.73565674,-0.17584229,1.84375,12.171875,-0.46875,379
380,1696243129719,0.3334961,-0.7839966,-0.22857666,0.15625,18.234375,-1.578125,380
381,1696243129759,0.39697266,-0.86505127,-0.31939697,-0.828125,22.296875,-5.796875,381
382,1696243129799,0.46899414,-0.9121704,-0.4072876,1.40625,17.265625,-2.90625,382
383,1696243129839,0.5407715,-0.8579712,-0.39923096,6.625,9.390625,1.8125,383
384,1696243129879,0.35791016,-0.7949829,-0.31817627,11.015625,9.25,6.953125,384
385,1696243129919,0.39208984,-0.69903564,-0.2756958,5.484375,6.078125,-4.21875,385
386,1696243129959,0.4567871,-0.8394165,-0.34576416,2.796875,1.265625,3.546875,386
387,1696243129999,0.4650879,-0.85723877,-0.40679932,2.65625,0.234375,0.96875,387
388,1696243130039,0.44873047,-0.7984009,-0.39678955,4.125,-1.140625,-2.59375,388
389,1696243130079,0.39233398,-0.75909424,-0.37530518,2.4375,-6.5,-2.1875,389
390,1696243130119,0.39160156,-0.8115845,-0.37091064,1.890625,-7.734375,-0.90625,390
391,1696243130159,0.37304688,-0.81622314,-0.3484497,2.078125,-5.59375,-2.59375,391
392,1696243130199,0.36328125,-0.8062134,-0.35162354,1.34375,-4.375,-3.375,392
393,1696243130239,0.3232422,-0.82525635,-0.34039307,0.71875,-1.75,-2.9375,393
394,1696243130279,0.3395996,-0.81256104,-0.35333252,-0.125,-0.421875,-5.921875,394
395,1696243130319,0.3881836,-0.8106079,-0.38604736,-3.6875,2.4375,-7.765625,395
396,1696243130359,0.37426758,-0.80181885,-0.3477173,3.84375,-3.4375,-9.84375,396
397,1696243130399,0.3395996,-0.8452759,-0.36724854,0.9375,-3.921875,-10.234375,397
398,1696243130439,0.3190918,-0.77838135,-0.38555908,-0.046875,-4.9375,-8.234375,398
399,1696243130479,0.3474121,-0.80914307,-0.4024048,-1.84375,-6.5,-5.328125,399
400,1696243130519,0.30371094,-0.84332275,-0.41192627,-2.828125,-8.21875,-4.671875,400
401,1696243130559,0.31469727,-0.86138916,-0.4085083,-2.21875,-5.71875,-3.6875,401
402,1696243130599,0.3112793,-0.8772583,-0.35772705,0.234375,-5.578125,-3.75,402
403,1696243130639,0.24780273,-0.8399048,-0.39630127,-0.515625,-4.59375,-4.4375,403
404,1696243130679,0.26245117,-0.80963135,-0.40118408,-0.1875,-2.0,-3.328125,404
405,1696243130719,0.31811523,-0.8320923,-0.39263916,-0.375,-1.875,-1.359375,405
406,1696243130759,0.30737305,-0.8674927,-0.38433838,-1.515625,-4.03125,-2.421875,406
407,1696243130799,0.28735352,-0.8689575,-0.3862915,-2.9375,-7.875,-3.609375,407
408,1696243130839,0.24780273,-0.87286377,-0.35235596,-4.125,-7.515625,-2.5,408
409,1696243130879,0.22924805,-0.8657837,-0.37408447,-4.84375,-5.640625,-1.921875,409
410,1696243130919,0.27246094,-0.8364868,-0.34674072,-2.859375,-5.28125,-0.21875,410
411,1696243130959,0.32421875,-0.8579712,-0.31744385,-5.6875,-6.984375,1.578125,411
412,1696243130999,0.27441406,-0.8635864,-0.39996338,-8.5625,-13.15625,2.015625,412
413,1696243131039,0.28466797,-0.7805786,-0.26031494,-5.484375,-17.40625,3.125,413
414,1696243131079,0.2536621,-0.8508911,-0.35333252,-10.875,-27.421875,6.546875,414
415,1696243131119,0.37524414,-0.92315674,-0.2835083,-3.109375,-17.640625,4.453125,415
416,1696243131159,0.38256836,-0.9951782,0.10760498,15.453125,6.984375,16.59375,416
417,1696243131199,0.15405273,-0.94195557,-0.28204346,-8.203125,-2.3125,7.484375,417
418,1696243131239,0.37573242,-0.6392212,-0.39093018,-4.890625,4.6875,-6.953125,418
419,1696243131279,0.56518555,-0.6304321,-0.32208252,11.0,4.09375,9.6875,419
420,1696243131319,0.4741211,-0.83380127,-0.26861572,12.265625,0.578125,20.890625,420
421,1696243131359,0.53100586,-0.96099854,-0.20855713,5.5625,-1.25,9.0,421
422,1696243131399,0.45629883,-0.84332275,-0.2876587,-4.59375,-0.015625,5.203125,422
423,1696243131439,0.5031738,-0.74298096,-0.26055908,-2.9375,4.375,8.015625,423
424,1696243131479,0.4802246,-0.79351807,-0.25909424,-1.3125,3.53125,6.578125,424
425,1696243131519,0.54052734,-0.8152466,-0.26055908,-1.375,5.046875,5.84375,425
426,1696243131559,0.5432129,-0.802063,-0.27056885,-2.421875,1.125,3.640625,426
427,1696243131599,0.51293945,-0.7949829,-0.25811768,-2.453125,-0.328125,2.28125,427
428,1696243131639,0.4909668,-0.8189087,-0.25543213,-5.578125,2.546875,1.421875,428
429,1696243131679,0.48266602,-0.8272095,-0.29693604,-7.625,1.71875,1.15625,429
430,1696243131719,0.5136719,-0.78326416,-0.24127197,-6.734375,0.9375,-0.703125,430
431,1696243131759,0.47705078,-0.84552,-0.21588135,-5.96875,-0.125,0.453125,431
432,1696243131799,0.4609375,-0.83673096,-0.23321533,-9.859375,0.125,-2.84375,432
433,1696243131839,0.44726562,-0.8374634,-0.22369385,-12.8125,1.109375,-2.71875,433
434,1696243131879,0.4560547,-0.84088135,-0.1819458,-11.78125,4.9375,-2.671875,434
435,1696243131919,0.45141602,-0.8230591,-0.19195557,-11.265625,4.71875,-4.375,435
436,1696243131959,0.46923828,-0.7930298,-0.18756104,-9.703125,4.234375,-2.921875,436
437,1696243131999,0.43652344,-0.8167114,-0.17730713,-7.375,4.65625,-2.421875,437
438,1696243132039,0.44580078,-0.8023071,-0.18804932,-6.71875,6.03125,-1.140625,438
439,1696243132079,0.4675293,-0.79766846,-0.16558838,-6.40625,5.421875,-0.046875,439
440,1696243132119,0.42504883,-0.8023071,-0.1819458,-4.734375,5.234375,0.53125,440
441,1696243132159,0.4477539,-0.8027954,-0.18536377,-3.8125,4.15625,1.421875,441
442,1696243132199,0.4350586,-0.847229,-0.15997314,-2.8125,5.75,2.796875,442
443,1696243132239,0.42211914,-0.85162354,-0.1362915,-1.828125,6.375,2.34375,443
444,1696243132279,0.40478516,-0.8237915,-0.13848877,0.671875,6.484375,1.828125,444
445,1696243132319,0.44921875,-0.8076782,-0.1428833,0.5,9.546875,2.3125,445
446,1696243132359,0.39941406,-0.82647705,-0.14556885,3.53125,7.234375,2.890625,446
447,1696243132399,0.38867188,-0.78985596,-0.15411377,4.25,11.796875,1.3125,447
448,1696243132439,0.3696289,-0.77911377,-0.16143799,9.015625,14.40625,2.359375,448
449,1696243132479,0.38891602,-0.7764282,-0.23516846,9.203125,15.15625,0.71875,449
450,1696243132519,0.45458984,-0.84820557,-0.33868408,9.75,9.3125,3.296875,450
451,1696243132559,0.52783203,-0.9180298,-0.36920166,13.53125,2.6875,7.96875,451
452,1696243132599,0.51342773,-0.82818604,-0.27764893,15.453125,7.96875,8.6875,452
453,1696243132639,0.41796875,-0.7554321,-0.25543213,9.953125,-0.453125,-1.625,453
454,1696243132679,0.4494629,-0.8621216,-0.3110962,5.9375,-3.65625,-0.28125,454
455,1696243132719,0.4814453,-0.8960571,-0.33868408,4.484375,-3.9375,-2.515625,455
456,1696243132759,0.45410156,-0.850647,-0.33599854,5.53125,-4.515625,-5.53125,456
457,1696243132799,0.42700195,-0.77301025,-0.32110596,4.390625,-5.921875,-6.09375,457
458,1696243132839,0.4428711,-0.7715454,-0.30523682,3.734375,-7.9375,-5.515625,458
459,1696243132879,0.41455078,-0.8057251,-0.28399658,2.390625,-8.9375,-5.125,459
460,1696243132919,0.36132812,-0.83477783,-0.29571533,-0.3125,-6.890625,-5.1875,460
461,1696243132959,0.40063477,-0.8320923,-0.34454346,-0.921875,-4.09375,-7.046875,461
462,1696243132999,0.39526367,-0.831604,-0.29986572,1.53125,-1.234375,-5.25,462
463,1696243133039,0.33813477,-0.8110962,-0.30352783,1.515625,-0.9375,-7.9375,463
464,1696243133079,0.34350586,-0.77349854,-0.39215088,-4.5625,2.46875,-9.484375,464
465,1696243133119,0.36132812,-0.803772,-0.40875244,0.546875,-0.78125,-7.65625,465
466,1696243133159,0.41455078,-0.9006958,-0.40411377,-0.234375,-3.1875,-7.671875,466
467,1696243133199,0.31176758,-0.9192505,-0.34527588,0.0625,-2.296875,-10.84375,467
468,1696243133239,0.27392578,-0.85943604,-0.35113525,-2.65625,-1.03125,-11.796875,468
469,1696243133279,0.2956543,-0.8081665,-0.35577393,-2.53125,0.71875,-8.0625,469
470,1696243133319,0.29956055,-0.8062134,-0.3821411,-3.671875,1.828125,-6.921875,470
471,1696243133359,0.34057617,-0.83551025,-0.3772583,-3.84375,-0.546875,-5.125,471
472,1696243133399,0.3100586,-0.8821411,-0.34381104,-3.515625,-1.015625,-3.234375,472
473,1696243133439,0.31958008,-0.895813,-0.33795166,-4.390625,-2.921875,-6.0625,473
474,1696243133479,0.2614746,-0.87994385,-0.30914307,-3.703125,-4.0625,-4.53125,474
475,1696243133519,0.21582031,-0.8755493,-0.29644775,-4.203125,-3.171875,-4.90625,475
476,1696243133559,0.19262695,-0.864563,-0.31549072,-3.796875,-0.3125,-4.234375,476
477,1696243133599,0.2265625,-0.82525635,-0.33624268,-3.15625,0.5,-1.96875,477
478,1696243133639,0.23999023,-0.8362427,-0.33184814,-2.953125,-2.953125,-0.3125,478
479,1696243133679,0.24584961,-0.89141846,-0.2835083,-2.890625,-4.96875,2.8125,479
480,1696243133719,0.22973633,-0.8858032,-0.2822876,-3.015625,-9.390625,3.5625,480
481,1696243133759,0.23339844,-0.8899536,-0.26837158,-5.953125,-8.5625,4.953125,481
482,1696243133799,0.2487793,-0.9146118,-0.2805786,-1.265625,-14.0,6.625,482
483,1696243133839,0.3100586,-0.99542236,-0.26226807,0.859375,-7.859375,8.953125,483
484,1696243133879,0.33251953,-0.9751587,-0.15704346,1.4375,-3.734375,11.890625,484
485,1696243133919,0.18774414,-0.87384033,-0.2937622,-2.90625,-7.890625,6.078125,485
486,1696243133959,0.3413086,-0.7637329,-0.32598877,1.828125,-0.828125,4.59375,486
487,1696243133999,0.45361328,-0.835022,-0.269104,3.015625,-1.9375,8.015625,487
488,1696243134039,0.42016602,-0.9133911,-0.19683838,1.875,-5.078125,6.734375,488
489,1696243134079,0.37304688,-0.84820557,-0.22979736,-0.3125,-2.78125,1.265625,489
490,1696243134119,0.4272461,-0.7835083,-0.24639893,0.234375,0.171875,4.515625,490
491,1696243134159,0.40722656,-0.8196411,-0.25494385,-1.0625,-2.078125,4.734375,491
492,1696243134199,0.4555664,-0.85821533,-0.2468872,2.28125,-2.453125,3.3125,492
493,1696243134239,0.48486328,-0.8352661,-0.23297119,2.46875,-2.796875,6.0625,493
494,1696243134279,0.47436523,-0.81915283,-0.21002197,0.40625,-4.046875,4.359375,494
495,1696243134319,0.4638672,-0.86431885,-0.1716919,-3.984375,-0.671875,3.734375,495
496,1696243134359,0.41577148,-0.85650635,-0.24761963,-6.046875,-1.6875,1.046875,496
497,1696243134399,0.44799805,-0.78082275,-0.21807861,-1.6875,-0.953125,-0.421875,497
498,1696243134439,0.42016602,-0.8357544,-0.2234497,0.359375,-2.5625,1.09375,498
499,1696243134479,0.42016602,-0.88482666,-0.20465088,-1.015625,-0.828125,-2.046875,499
500,1696243134519,0.4345703,-0.8652954,-0.19342041,-1.859375,-0.796875,-2.296875,500
501,1696243134559,0.42163086,-0.8569946,-0.20343018,-1.890625,-3.859375,-2.890625,501
502,1696243134599,0.44311523,-0.8303833,-0.20367432,-1.203125,-3.109375,-1.84375,502
503,1696243134639,0.4128418,-0.82818604,-0.18609619,-0.703125,-1.9375,-2.21875,503
504,1696243134679,0.39770508,-0.84747314,-0.19903564,-1.953125,-2.8125,-2.96875,504
505,1696243134719,0.40307617,-0.8657837,-0.17437744,-2.015625,-1.3125,-1.84375,505
506,1696243134759,0.38671875,-0.8665161,-0.1506958,-1.171875,-1.84375,-1.875,506
507,1696243134799,0.3630371,-0.85943604,-0.1482544,-0.359375,-1.453125,-1.25,507
508,1696243134839,0.3557129,-0.8591919,-0.16241455,-0.234375,1.28125,0.046875,508
509,1696243134879,0.3642578,-0.86431885,-0.17388916,-0.75,4.625,-1.203125,509
510,1696243134919,0.38305664,-0.86968994,-0.16851807,1.125,8.0,-0.53125,510
511,1696243134959,0.40161133,-0.86138916,-0.1404419,-0.859375,9.421875,-0.78125,511
512,1696243134999,0.36108398,-0.8430786,-0.1506958,-5.234375,15.234375,-1.875,512
513,1696243135039,0.2265625,-0.7920532,-0.10845947,-1.375,23.84375,-3.40625,513
514,1696243135079,0.29541016,-0.8779907,-0.32598877,-6.8125,24.921875,-6.453125,514
515,1696243135119,0.56396484,-0.9109497,-0.4505005,3.140625,3.703125,-3.40625,515
516,1696243135159,0.5095215,-0.93414307,-0.29083252,22.015625,10.09375,16.671875,516
517,1696243135199,0.23266602,-0.7407837,-0.21002197,8.28125,5.859375,4.5,517
518,1696243135239,0.36669922,-0.74591064,-0.20831299,0.703125,2.859375,-5.625,518
519,1696243135279,0.4638672,-0.92144775,-0.3147583,-2.09375,-2.875,7.96875,519
520,1696243135319,0.41601562,-0.989563,-0.33892822,5.5625,-0.34375,0.71875,520
521,1696243135359,0.31811523,-0.79571533,-0.29205322,4.0,-1.890625,-4.90625,521
522,1696243135399,0.38110352,-0.79937744,-0.27667236,2.59375,-4.328125,-0.234375,522
523,1696243135439,0.39379883,-0.9126587,-0.26153564,1.203125,-6.015625,-0.984375,523
524,1696243135479,0.3330078,-0.8989868,-0.26348877,0.09375,-5.34375,-5.34375,524
525,1696243135519,0.33154297,-0.8311157,-0.2617798,-0.90625,-5.515625,-5.328125,525
526,1696243135559,0.32202148,-0.8701782,-0.26153564,-1.359375,-2.890625,-3.6875,526
527,1696243135599,0.32910156,-0.87750244,-0.2420044,1.25,-3.5625,-2.75,527
528,1696243135639,0.30932617,-0.84088135,-0.2588501,-2.015625,-3.21875,-6.484375,528
529,1696243135679,0.2902832,-0.87286377,-0.2876587,1.875,-1.875,-4.421875,529
530,1696243135719,0.30200195,-0.8526001,-0.315979,1.9375,1.578125,-5.953125,530
531,1696243135759,0.30371094,-0.83917236,-0.33111572,2.46875,-1.0625,-5.0,531
532,1696243135799,0.31030273,-0.8760376,-0.33917236,1.3125,-0.40625,-3.234375,532
533,1696243135839,0.28466797,-0.8735962,-0.34869385,1.203125,0.421875,-2.15625,533
534,1696243135879,0.2944336,-0.8411255,-0.347229,0.28125,-1.8125,-3.96875,534
535,1696243135919,0.23754883,-0.8753052,-0.3274536,-0.359375,-0.671875,-3.53125,535
536,1696243135959,0.24926758,-0.87335205,-0.35064697,-5.09375,2.140625,-3.765625,536
537,1696243135999,0.3540039,-0.86309814,-0.35577393,0.796875,-0.078125,-2.5,537
538,1696243136039,0.30419922,-0.90826416,-0.3032837,0.015625,-3.796875,-1.453125,538
539,1696243136079,0.26220703,-0.909729,-0.28277588,-1.65625,-6.25,-2.1875,539
540,1696243136119,0.24023438,-0.90826416,-0.2835083,-4.203125,-4.984375,-3.0625,540
541,1696243136159,0.23999023,-0.8814087,-0.2901001,-4.109375,-3.890625,-3.171875,541
542,1696243136199,0.25195312,-0.8699341,-0.2695923,-3.234375,-1.53125,-2.171875,542
543,1696243136239,0.22045898,-0.9168091,-0.3201294,-7.9375,-2.28125,-1.34375,543
544,1696243136279,0.23168945,-0.8948364,-0.24713135,-2.734375,-4.078125,-2.578125,544
545,1696243136319,0.21411133,-0.8928833,-0.25079346,-3.28125,-7.1875,-0.421875,545
546,1696243136359,0.22753906,-0.8599243,-0.26861572,-6.3125,-9.96875,0.28125,546
547,1696243136399,0.2277832,-0.87628174,-0.28375244,-7.3125,-13.796875,1.765625,547
548,1696243136439,0.30688477,-0.9146118,-0.29180908,-7.703125,-17.546875,3.953125,548
549,1696243136479,0.3449707,-1.0186157,-0.09454346,3.578125,-0.265625,10.34375,549
550,1696243136519,0.2626953,-0.9805298,-0.042541504,7.46875,0.703125,11.96875,550
551,1696243136559,0.1003418,-0.8530884,-0.29864502,-7.1875,-5.234375,0.296875,551
552,1696243136599,0.34887695,-0.6675415,-0.38189697,2.4375,4.15625,1.53125,552
553,1696243136639,0.48461914,-0.7930298,-0.25958252,7.671875,2.375,9.3125,553
554,1696243136679,0.40356445,-1.0337524,-0.18536377,2.9375,-8.03125,10.328125,554
555,1696243136719,0.3527832,-0.96588135,-0.20098877,-1.515625,-8.4375,-0.078125,555
556,1696243136759,0.36376953,-0.7612915,-0.19073486,2.5625,-3.34375,-0.046875,556
557,1696243136799,0.35083008,-0.7798462,-0.2197876,-0.296875,0.046875,5.171875,557
558,1696243136839,0.39916992,-0.9048462,-0.27545166,-4.171875,-0.0625,3.0,558
559,1696243136879,0.47583008,-0.91363525,-0.19195557,-2.421875,-0.65625,0.984375,559
560,1696243136919,0.40966797,-0.86602783,-0.19708252,-0.90625,-4.09375,1.671875,560
561,1696243136959,0.3852539,-0.85601807,-0.18658447,-1.375,-2.421875,0.828125,561
562,1696243136999,0.3869629,-0.8621216,-0.1873169,-0.703125,-0.78125,2.015625,562
563,1696243137039,0.40722656,-0.84381104,-0.20245361,-0.765625,-3.0625,1.3125,563
564,1696243137079,0.421875,-0.84869385,-0.19732666,-1.453125,-2.0625,2.421875,564
565,1696243137119,0.4482422,-0.8550415,-0.2131958,0.953125,-5.1875,1.46875,565
566,1696243137159,0.47509766,-0.8755493,-0.16485596,1.84375,-5.171875,3.328125,566
567,1696243137199,0.34326172,-0.9006958,-0.16339111,-1.984375,-5.3125,-0.359375,567
568,1696243137239,0.32861328,-0.8699341,-0.20172119,-1.8125,-1.875,-2.21875,568
569,1696243137279,0.41381836,-0.8496704,-0.16217041,0.5,1.859375,-0.59375,569
570,1696243137319,0.3918457,-0.8945923,-0.16973877,-0.453125,-1.046875,-1.21875,570
571,1696243137359,0.41845703,-0.8779907,-0.14996338,0.4375,-1.734375,-0.4375,571
572,1696243137399,0.40576172,-0.8526001,-0.13043213,-1.171875,1.125,-0.203125,572
573,1696243137439,0.33422852,-0.85601807,-0.17584229,-3.171875,1.359375,-1.46875,573
574,1696243137479,0.3930664,-0.85040283,-0.11383057,-0.84375,3.578125,-0.859375,574
575,1696243137519,0.34716797,-0.93756104,-0.14508057,-1.140625,3.328125,0.59375,575
576,1696243137559,0.32763672,-0.88409424,-0.15264893,-3.265625,7.609375,-3.21875,576
577,1696243137599,0.3515625,-0.83843994,-0.15289307,-0.34375,10.328125,-1.53125,577
578,1696243137639,0.35791016,-0.83013916,-0.15167236,1.5625,10.8125,-0.109375,578
579,1696243137679,0.40649414,-0.8460083,-0.15289307,2.078125,8.390625,0.65625,579
580,1696243137719,0.37402344,-0.8491821,-0.15264893,4.765625,7.59375,2.09375,580
581,1696243137759,0.32299805,-0.82818604,-0.18267822,6.65625,10.21875,1.453125,581
582,1696243137799,0.35205078,-0.8279419,-0.27960205,5.375,9.078125,-0.40625,582
583,1696243137839,0.47827148,-0.8735962,-0.33233643,10.421875,3.75,3.40625,583
584,1696243137879,0.3935547,-0.9277954,-0.28326416,10.78125,1.265625,8.671875,584
585,1696243137919,0.29614258,-0.881897,-0.23248291,6.9375,0.3125,-2.25,585
586,1696243137959,0.39404297,-0.86724854,-0.26593018,7.1875,0.296875,-0.921875,586
587,1696243137999,0.4633789,-0.88531494,-0.30523682,3.09375,-1.34375,2.140625,587
588,1696243138039,0.3618164,-0.8899536,-0.30474854,2.78125,-3.890625,-2.3125,588
589,1696243138079,0.3449707,-0.81085205,-0.30352783,1.046875,-2.859375,-4.5625,589
590,1696243138119,0.3972168,-0.8323364,-0.2888794,3.03125,-4.59375,-1.328125,590
591,1696243138159,0.35107422,-0.8413696,-0.2769165,-0.296875,-2.953125,-1.75,591
592,1696243138199,0.30859375,-0.8609009,-0.29083252,-1.171875,-1.28125,-3.390625,592
593,1696243138239,0.35864258,-0.85650635,-0.2925415,-1.140625,0.4375,-2.28125,593
594,1696243138279,0.35986328,-0.8533325,-0.27764893,0.90625,-1.1875,-2.453125,594
595,1696243138319,0.34326172,-0.8389282,-0.27398682,0.546875,-0.609375,-2.78125,595
596,1696243138359,0.3623047,-0.87750244,-0.26739502,-0.5,-1.09375,-3.890625,596
597,1696243138399,0.32421875,-0.91241455,-0.25982666,-3.171875,1.328125,-3.421875,597
598,1696243138439,0.27270508,-0.85040283,-0.32647705,-0.140625,1.359375,-8.65625,598
599,1696243138479,0.2763672,-0.8237915,-0.33795166,-0.15625,3.75,-6.03125,599
600,1696243138519,0.28515625,-0.8723755,-0.3357544,-0.6875,0.5,-4.046875,600
601,1696243138559,0.30078125,-0.8753052,-0.32696533,-1.125,0.390625,-4.0,601
602,1696243138599,0.2902832,-0.88067627,-0.31671143,-2.015625,0.9375,-2.75,602
603,1696243138639,0.2607422,-0.9089966,-0.32574463,-1.84375,-1.171875,-2.703125,603
604,1696243138679,0.25805664,-0.8389282,-0.31256104,-1.484375,1.625,-3.859375,604
605,1696243138719,0.23608398,-0.89801025,-0.30963135,-0.453125,-0.6875,-2.671875,605
606,1696243138759,0.2854004,-0.92437744,-0.302063,-1.890625,-2.46875,-4.109375,606
607,1696243138799,0.28173828,-0.8994751,-0.26934814,-1.40625,-7.59375,-4.375,607
608,1696243138839,0.19384766,-0.8909302,-0.27349854,-2.703125,-10.359375,-4.078125,608
609,1696243138879,0.20898438,-0.9163208,-0.28179932,-6.765625,-9.015625,-3.671875,609
610,1696243138919,0.25219727,-0.91534424,-0.2720337,-5.4375,-8.40625,-3.6875,610
611,1696243138959,0.22729492,-0.88360596,-0.2666626,-3.390625,-12.109375,-3.4375,611
612,1696243138999,0.19750977,-0.8753052,-0.2522583,-3.265625,-13.546875,-1.984375,612
613,1696243139039,0.22583008,-0.9031372,-0.24420166,-4.984375,-14.234375,0.140625,613
614,1696243139079,0.24243164,-0.90411377,-0.25250244,-4.140625,-18.46875,1.640625,614
615,1696243139119,0.26879883,-0.9507446,-0.23980713,0.15625,-15.78125,5.09375,615
616,1696243139159,0.29516602,-0.9573364,-0.020080566,9.78125,-0.125,11.0625,616
617,1696243139199,0.19555664,-0.90338135,-0.20269775,-1.078125,-5.453125,9.390625,617
618,1696243139239,0.2541504,-0.8123169,-0.33868408,-2.21875,-2.234375,3.78125,618
619,1696243139279,0.3840332,-0.81573486,-0.24737549,7.828125,1.671875,9.109375,619
620,1696243139319,0.33422852,-0.9351196,-0.20733643,4.5,-3.53125,11.96875,620
621,1696243139359,0.36572266,-0.9378052,-0.19927979,0.109375,-2.359375,7.0625,621
622,1696243139399,0.3955078,-0.8508911,-0.23345947,-0.09375,-2.03125,4.421875,622
623,1696243139439,0.45166016,-0.8184204,-0.22271729,0.65625,-4.703125,8.71875,623
624,1696243139479,0.43945312,-0.8587036,-0.22393799,-1.203125,-3.53125,7.765625,624
625,1696243139519,0.4465332,-0.8584595,-0.2288208,0.546875,-4.140625,4.21875,625
626,1696243139559,0.47583008,-0.86016846,-0.21490479,0.4375,-5.484375,5.609375,626
627,1696243139599,0.44262695,-0.8821411,-0.19073486,-1.96875,-5.484375,4.734375,627
628,1696243139639,0.43579102,-0.8657837,-0.18927002,-2.046875,-4.9375,3.21875,628
629,1696243139679,0.43920898,-0.79644775,-0.18389893,-1.953125,-2.171875,2.640625,629
630,1696243139719,0.44213867,-0.81085205,-0.21490479,-0.296875,-4.984375,4.171875,630
631,1696243139759,0.43359375,-0.881897,-0.12017822,-1.84375,1.671875,7.96875,631
632,1696243139799,0.36743164,-0.8674927,-0.1560669,-5.796875,3.796875,-0.90625,632
633,1696243139839,0.5031738,-0.8064575,-0.22442627,-5.75,6.8125,-0.34375,633
634,1696243139879,0.5007324,-0.78204346,-0.14239502,-0.9375,3.375,1.203125,634
635,1696243139919,0.3828125,-0.89508057,-0.13800049,-2.03125,5.046875,0.453125,635
636,1696243139959,0.39526367,-0.8821411,-0.15240479,-5.125,8.421875,-3.203125,636
637,1696243139999,0.43310547,-0.8718872,-0.15338135,-4.03125,8.359375,-2.078125,637
638,1696243140039,0.4013672,-0.87335205,-0.13165283,-4.28125,8.375,-2.375,638
639,1696243140079,0.35742188,-0.8599243,-0.1296997,-5.953125,11.53125,-5.0625,639
640,1696243140119,0.40478516,-0.8562622,-0.120666504,-4.953125,12.625,-4.265625,640
641,1696243140159,0.37719727,-0.86724854,-0.10723877,-3.515625,12.03125,-3.75,641
642,1696243140199,0.3178711,-0.82232666,-0.08306885,1.234375,19.0625,-3.46875,642
643,1696243140239,0.27612305,-0.77178955,-0.105041504,1.890625,21.046875,-4.734375,643
644,1696243140279,0.30664062,-0.815979,-0.21124268,1.234375,21.21875,-5.265625,644
645,1696243140319,0.41748047,-0.97369385,-0.33721924,1.34375,14.609375,-0.828125,645
646,1696243140359,0.5095215,-0.973938,-0.37823486,17.9375,6.078125,5.375,646
647,1696243140399,0.3322754,-0.8579712,-0.28009033,15.875,10.140625,10.359375,647
648,1696243140439,0.3635254,-0.6970825,-0.24151611,7.09375,2.109375,-1.5625,648
649,1696243140479,0.45898438,-0.85772705,-0.2539673,0.90625,-4.796875,7.859375,649
650,1696243140519,0.41552734,-0.9451294,-0.3279419,4.75,-5.140625,5.09375,650
651,1696243140559,0.3618164,-0.85406494,-0.32354736,4.78125,-1.75,-1.578125,651
652,1696243140599,0.3540039,-0.7893677,-0.31622314,3.515625,-3.203125,0.453125,652
653,1696243140639,0.4008789,-0.86676025,-0.331604,2.65625,-4.984375,1.65625,653
654,1696243140679,0.38916016,-0.8352661,-0.31134033,3.546875,-5.953125,0.34375,654
655,1696243140719,0.37646484,-0.8115845,-0.28155518,3.546875,-6.203125,-1.203125,655
656,1696243140759,0.3659668,-0.85894775,-0.27105713,3.578125,-5.953125,0.25,656
657,1696243140799,0.3371582,-0.8604126,-0.2883911,0.4375,-4.484375,-2.09375,657
658,1696243140839,0.3486328,-0.84820557,-0.31402588,2.984375,-2.84375,-3.65625,658
659,1696243140879,0.3479004,-0.8357544,-0.30792236,3.046875,-0.546875,-3.28125,659
660,1696243140919,0.34594727,-0.8652954,-0.33013916,2.28125,-0.171875,-3.25,660
661,1696243140959,0.33154297,-0.8411255,-0.3772583,2.25,-0.515625,-4.5,661
662,1696243140999,0.34887695,-0.84332275,-0.36846924,2.671875,-1.125,-2.84375,662
663,1696243141039,0.34350586,-0.8530884,-0.35162354,2.953125,-5.34375,-3.65625,663
664,1696243141079,0.33422852,-0.8657837,-0.3652954,-0.953125,-1.65625,-2.859375,664
665,1696243141119,0.32373047,-0.83062744,-0.33770752,1.796875,-2.5625,-2.640625,665
666,1696243141159,0.28930664,-0.86016846,-0.34991455,-0.84375,-1.484375,-3.09375,666
667,1696243141199,0.31518555,-0.8518677,-0.3501587,-3.3125,-1.5625,-4.859375,667
668,1696243141239,0.3178711,-0.85601807,-0.32818604,-3.75,-3.765625,-4.25,668
669,1696243141279,0.26000977,-0.8550415,-0.32818604,-3.828125,-4.171875,-3.21875,669
670,1696243141319,0.28564453,-0.8616333,-0.32037354,-3.625,-1.9375,-2.59375,670
671,1696243141359,0.27661133,-0.8760376,-0.3032837,-3.46875,-0.859375,-0.828125,671
672,1696243141399,0.23339844,-0.8821411,-0.33111572,-3.84375,1.40625,0.15625,672
673,1696243141439,0.31030273,-0.86187744,-0.33184814,-1.90625,1.421875,1.3125,673
674,1696243141479,0.2927246,-0.8579712,-0.30792236,-1.25,-2.546875,2.34375,674
675,1696243141519,0.31054688,-0.8591919,-0.3069458,-3.59375,-8.328125,2.1875,675
676,1696243141559,0.2709961,-0.88238525,-0.28375244,-5.03125,-12.90625,3.46875,676
677,1696243141599,0.29345703,-0.9143677,-0.29718018,-9.890625,-16.390625,2.0625,677
678,1696243141639,0.33764648,-0.87042236,-0.27252197,-11.390625,-20.1875,1.796875,678
679,1696243141679,0.40014648,-0.88775635,-0.3262329,-10.046875,-23.75,3.265625,679
680,1696243141719,0.43701172,-0.9710083,0.058532715,6.609375,13.59375,12.265625,680
681,1696243141759,0.20727539,-0.89678955,-0.18780518,-0.546875,-7.984375,4.375,681
682,1696243141799,0.25561523,-0.7476196,-0.35455322,-4.921875,-2.125,-3.203125,682
683,1696243141839,0.5786133,-0.67266846,-0.31134033,9.828125,4.125,9.125,683
684,1696243141879,0.4506836,-0.82818604,-0.16925049,7.140625,-5.953125,12.34375,684
685,1696243141919,0.41992188,-0.9612427,-0.14996338,0.75,-5.25,9.125,685
686,1696243141959,0.46679688,-0.881897,-0.21392822,-5.796875,1.640625,1.0,686
687,1696243141999,0.46704102,-0.788147,-0.19342041,-5.296875,3.859375,5.984375,687
688,1696243142039,0.4404297,-0.866272,-0.20904541,-2.828125,2.046875,4.015625,688
689,1696243142079,0.49804688,-0.8821411,-0.20245361,-1.28125,4.125,1.3125,689
690,1696243142119,0.5241699,-0.8255005,-0.18560791,0.390625,4.25,2.578125,690
691,1696243142159,0.5073242,-0.84259033,-0.1951294,-1.296875,-1.078125,1.0,691
692,1696243142199,0.46606445,-0.83843994,-0.17584229,-1.90625,-0.828125,-0.234375,692
693,1696243142239,0.44360352,-0.8311157,-0.19561768,-3.921875,0.03125,-0.390625,693
694,1696243142279,0.453125,-0.8452759,-0.18536377,-3.8125,-0.359375,-1.671875,694
695,1696243142319,0.4333496,-0.848938,-0.15655518,-4.265625,3.46875,-1.578125,695
696,1696243142359,0.42626953,-0.8569946,-0.18951416,-8.515625,4.578125,-2.828125,696
697,1696243142399,0.42578125,-0.8225708,-0.13995361,-4.078125,2.8125,-1.84375,697
698,1696243142439,0.4182129,-0.862854,-0.14263916,-3.34375,2.515625,-0.625,698
699,1696243142479,0.3984375,-0.83966064,-0.13433838,-3.03125,5.765625,-1.171875,699
700,1696243142519,0.3869629,-0.84503174,-0.1453247,-4.625,6.796875,-1.171875,700
701,1696243142559,0.40673828,-0.85479736,-0.1572876,-3.875,6.734375,-0.328125,701
702,1696243142599,0.4099121,-0.85284424,-0.14459229,-2.5,10.296875,0.296875,702
703,1696243142639,0.36547852,-0.83306885,-0.12579346,-1.3125,12.734375,-0.3125,703
704,1696243142679,0.35717773,-0.80841064,-0.14996338,0.09375,13.59375,0.484375,704
705,1696243142719,0.41064453,-0.80963135,-0.17022705,1.953125,15.890625,2.984375,705
706,1696243142759,0.3491211,-0.8201294,-0.112854004,3.453125,23.5,5.03125,706
707,1696243142799,0.2722168,-0.84332275,-0.31549072,-4.71875,22.578125,-1.46875,707
708,1696243142839,0.5727539,-0.92315674,-0.43292236,1.03125,4.546875,-1.53125,708
709,1696243142879,0.6044922,-0.9949341,-0.26739502,18.5,12.859375,18.03125,709
710,1696243142919,0.25219727,-0.7476196,-0.21270752,10.53125,5.625,1.0625,710
711,1696243142959,0.3388672,-0.6939087,-0.2756958,-0.578125,4.875,-9.125,711
712,1696243142999,0.5144043,-0.9192505,-0.35040283,-3.8125,0.265625,9.234375,712
713,1696243143039,0.4934082,-0.93292236,-0.31793213,3.40625,0.890625,-3.140625,713
714,1696243143079,0.34570312,-0.7608032,-0.2774048,6.578125,-4.4375,-4.296875,714
715,1696243143119,0.37231445,-0.76446533,-0.29351807,4.359375,-5.921875,-1.4375,715
716,1696243143159,0.40356445,-0.8440552,-0.30596924,8.15625,-4.46875,-0.09375,716
717,1696243143199,0.37646484,-0.86676025,-0.31695557,5.78125,-4.8125,-1.90625,717
718,1696243143239,0.38745117,-0.8386841,-0.27593994,4.625,-4.765625,-3.4375,718
719,1696243143279,0.34472656,-0.85943604,-0.28204346,2.1875,-4.609375,-5.125,719
720,1696243143319,0.3474121,-0.8711548,-0.28448486,2.25,-2.21875,-6.375,720
721,1696243143359,0.3725586,-0.8501587,-0.28253174,0.96875,-1.5,-8.0625,721
722,1696243143399,0.32666016,-0.87335205,-0.3196411,-2.1875,-1.171875,-9.71875,722
723,1696243143439,0.30932617,-0.88287354,-0.3262329,-3.984375,1.203125,-10.78125,723
724,1696243143479,0.28808594,-0.8911743,-0.33892822,-4.90625,1.359375,-11.375,724
725,1696243143519,0.3034668,-0.8687134,-0.32305908,-3.90625,-0.609375,-11.890625,725
726,1696243143559,0.29174805,-0.8726196,-0.29058838,-2.15625,-0.671875,-7.4375,726
727,1696243143599,0.2397461,-0.8682251,-0.32598877,-2.125,-1.421875,-7.65625,727
728,1696243143639,0.2446289,-0.833313,-0.33111572,0.09375,2.015625,-4.640625,728
729,1696243143679,0.30981445,-0.8569946,-0.36749268,-2.75,5.015625,-2.546875,729
730,1696243143719,0.28051758,-0.89263916,-0.2901001,4.296875,-1.140625,-2.40625,730
731,1696243143759,0.22729492,-0.89630127,-0.28814697,0.6875,-5.625,-3.21875,731
732,1696243143799,0.24633789,-0.8928833,-0.30255127,-1.9375,-8.875,-2.5,732
733,1696243143839,0.18188477,-0.9006958,-0.28863525,-4.03125,-10.515625,-2.328125,733
734,1696243143879,0.19042969,-0.9109497,-0.2991333,-4.921875,-9.109375,-2.015625,734
735,1696243143919,0.23925781,-0.8821411,-0.2913208,-5.3125,-10.375,-0.390625,735
736,1696243143959,0.22729492,-0.9006958,-0.24102783,-5.28125,-14.359375,-0.34375,736
737,1696243143999,0.22290039,-0.9204712,-0.27008057,-6.640625,-20.984375,-0.6875,737
738,1696243144039,0.25,-0.8899536,-0.25372314,-9.328125,-25.546875,0.015625,738
739,1696243144079,0.27001953,-0.9849243,-0.2390747,-6.0,-16.375,7.25,739
740,1696243144119,0.3623047,-0.9612427,0.049743652,12.609375,-1.40625,14.625,740
741,1696243144159,0.16699219,-0.8960571,-0.2197876,-2.5625,-8.671875,4.875,741
742,1696243144199,0.24902344,-0.7053833,-0.34405518,-4.375,1.25,-1.1875,742
743,1696243144239,0.4416504,-0.7581177,-0.28814697,7.765625,4.734375,12.125,743
744,1696243144279,0.29614258,-0.9812622,-0.17803955,4.234375,1.0625,14.671875,744
745,1696243144319,0.32836914,-0.973938,-0.23516846,-0.234375,-0.40625,2.40625,745
746,1696243144359,0.3947754,-0.835022,-0.24761963,-2.5625,3.265625,1.46875,746
747,1696243144399,0.4243164,-0.83673096,-0.20831299,0.21875,0.03125,9.21875,747
748,1696243144439,0.38061523,-0.88531494,-0.21002197,-1.96875,1.0,4.890625,748
749,1696243144479,0.390625,-0.89019775,-0.20050049,-1.96875,3.328125,0.765625,749
750,1696243144519,0.4350586,-0.862854,-0.2078247,-2.625,3.09375,1.5625,750
751,1696243144559,0.4411621,-0.87286377,-0.21539307,-2.859375,0.828125,0.796875,751
752,1696243144599,0.40771484,-0.84698486,-0.2276001,-2.0625,-0.390625,0.78125,752
753,1696243144639,0.43530273,-0.85479736,-0.2185669,-1.640625,-2.671875,1.34375,753
754,1696243144679,0.43969727,-0.881897,-0.1975708,-2.578125,-1.578125,2.15625,754
755,1696243144719,0.4338379,-0.8604126,-0.2000122,-3.234375,-3.21875,1.78125,755
756,1696243144759,0.40698242,-0.8635864,-0.18585205,-3.9375,-3.375,1.515625,756
757,1696243144799,0.45776367,-0.8623657,-0.16461182,-2.40625,-3.09375,1.9375,757
758,1696243144839,0.41796875,-0.8477173,-0.15899658,-0.890625,-3.34375,1.203125,758
759,1696243144879,0.41552734,-0.84576416,-0.1687622,-1.75,-4.109375,-0.234375,759
