,timestamp,accel_x,accel_y,accel_z,gyro_x,gyro_y,gyro_z,ind
0,1696246697814,-0.6784668,-0.07940674,0.8209839,0.5625,-0.125,0.53125,0
1,1696246697854,-0.67871094,-0.09259033,0.8265991,0.046875,-0.1875,0.125,1
2,1696246697894,-0.67407227,-0.08258057,0.81829834,-0.34375,-0.015625,0.140625,2
3,1696246697934,-0.67089844,-0.07696533,0.82025146,-0.34375,-0.203125,0.203125,3
4,1696246697974,-0.67089844,-0.082336426,0.82489014,0.03125,0.28125,0.234375,4
5,1696246698014,-0.67163086,-0.08453369,0.8241577,-0.3125,0.28125,0.40625,5
6,1696246698054,-0.671875,-0.09698486,0.8463745,-1.1875,0.90625,0.0625,6
7,1696246698094,-0.6743164,-0.101379395,0.83148193,-2.46875,0.90625,-0.84375,7
8,1696246698134,-0.68774414,-0.089660645,0.82684326,-4.21875,1.453125,-1.15625,8
9,1696246698174,-0.69091797,-0.074279785,0.83148193,-3.625,3.46875,-1.03125,9
10,1696246698214,-0.6791992,-0.08795166,0.83514404,-4.4375,4.71875,-1.1875,10
11,1696246698254,-0.62060547,-0.07232666,0.8446655,-3.59375,2.53125,-2.734375,11
12,1696246698294,-0.62646484,-0.05596924,0.82806396,-3.828125,-0.71875,-4.21875,12
13,1696246698334,-0.66503906,-0.054016113,0.85321045,2.09375,-4.921875,-4.828125,13
14,1696246698374,-0.70043945,-0.024719238,0.7523804,8.859375,-7.09375,-4.421875,14
15,1696246698414,-0.57250977,0.101501465,0.77142334,11.953125,1.5,0.609375,15
16,1696246698454,-0.67407227,0.016052246,0.8209839,16.1875,-7.6875,5.25,16
17,1696246698494,-0.6911621,-0.18804932,0.7560425,9.375,0.015625,-1.65625,17
18,1696246698534,-0.57373047,-0.120910645,0.8661499,4.90625,1.234375,0.90625,18
19,1696246698574,-0.779541,-0.14898682,0.87615967,1.03125,-0.609375,-0.140625,19
20,1696246698614,-0.7182617,-0.10430908,0.8270874,-2.21875,0.765625,-0.171875,20
21,1696246698654,-0.6738281,-0.08282471,0.8695679,-1.59375,0.234375,0.1875,21
22,1696246698694,-0.7312012,-0.12213135,0.8307495,-2.59375,0.765625,0.0,22
23,1696246698734,-0.6279297,-0.06304932,0.7470093,-5.953125,2.765625,-0.765625,23
24,1696246698774,-0.59228516,-0.017150879,0.8407593,-1.828125,4.609375,1.640625,24
25,1696246698814,-0.73583984,-0.1716919,0.8859253,-0.09375,-4.15625,2.21875,25
26,1696246698854,-0.7023926,-0.121398926,0.8468628,-4.109375,-2.25,-4.4375,26
27,1696246698894,-0.62524414,-0.07354736,0.8095093,-2.671875,-1.0,-2.75,27
28,1696246698934,-0.68530273,-0.082336426,0.7662964,0.5,-2.40625,0.5,28
29,1696246698974,-0.7084961,-0.08258057,0.8251343,1.0625,1.109375,-0.984375,29
30,1696246699014,-0.69750977,-0.07110596,0.84124756,2.1875,0.90625,0.875,30
31,1696246699054,-0.66625977,-0.077941895,0.8156128,1.296875,1.6875,1.90625,31
32,1696246699094,-0.6635742,-0.05987549,0.75823975,2.734375,1.671875,1.453125,32
33,1696246699134,-0.6401367,-0.089904785,0.79022217,2.078125,4.4375,2.875,33
34,1696246699174,-0.60424805,-0.050109863,0.8756714,-5.0,13.8125,6.03125,34
35,1696246699214,-0.7307129,-0.14849854,1.0077515,2.4375,-3.484375,2.984375,35
36,1696246699254,-0.6760254,-0.11895752,0.85809326,-1.015625,3.03125,-4.125,36
37,1696246699294,-0.6484375,-0.089660645,0.8756714,-3.1875,-0.875,-3.890625,37
38,1696246699334,-0.66137695,-0.07354736,0.8258667,0.015625,-2.75,-2.34375,38
39,1696246699374,-0.65649414,-0.08721924,0.7929077,-0.03125,0.203125,-0.40625,39
40,1696246699414,-0.6123047,-0.07354736,0.83587646,0.796875,-0.890625,0.515625,40
41,1696246699454,-0.67333984,-0.089660645,0.8324585,0.515625,-0.3125,1.8125,41
42,1696246699494,-0.6550293,-0.07574463,0.83465576,0.203125,-0.703125,1.546875,42
43,1696246699534,-0.62646484,-0.05206299,0.84368896,-0.03125,0.203125,2.625,43
44,1696246699574,-0.60717773,-0.08062744,0.78778076,-4.9375,6.21875,5.234375,44
45,1696246699614,-0.5625,-0.101867676,0.9867554,-0.21875,1.484375,4.8125,45
46,1696246699654,-0.7529297,-0.1338501,0.8463745,-0.5625,-5.703125,-3.484375,46
47,1696246699694,-0.6203613,-0.089416504,0.8720093,-4.28125,-0.71875,-6.03125,47
48,1696246699734,-0.6411133,-0.06719971,0.8685913,-1.46875,-6.765625,-5.859375,48
49,1696246699774,-0.69555664,-0.09112549,0.8727417,-2.84375,-12.640625,-6.921875,49
50,1696246699814,-0.65356445,-0.055236816,0.8197632,-8.171875,-11.609375,-4.515625,50
51,1696246699854,-0.64208984,-0.025939941,0.7977905,-7.0625,-9.25,-1.8125,51
52,1696246699894,-0.6928711,-0.050109863,0.81951904,-3.703125,-6.21875,2.90625,52
53,1696246699934,-0.71484375,-0.03717041,0.80926514,-4.25,-1.21875,2.09375,53
54,1696246699974,-0.67871094,-0.0256958,0.82196045,-4.828125,1.078125,0.453125,54
55,1696246700014,-0.6828613,-0.038391113,0.77996826,-5.640625,1.671875,0.734375,55
56,1696246700054,-0.7133789,-0.002746582,0.78582764,-0.578125,1.953125,-0.8125,56
57,1696246700094,-0.685791,0.0072631836,0.77142334,4.828125,0.5,-0.28125,57
58,1696246700134,-0.6296387,0.0021362305,0.73724365,9.046875,4.421875,3.578125,58
59,1696246700174,-0.69311523,-0.01739502,0.84051514,10.5,-2.09375,5.015625,59
60,1696246700214,-0.6452637,-0.13775635,0.8307495,6.296875,3.5625,2.90625,60
61,1696246700254,-0.6635742,-0.09063721,0.8617554,3.5,3.078125,1.5625,61
62,1696246700294,-0.7116699,-0.062316895,0.8563843,0.515625,1.765625,0.53125,62
63,1696246700334,-0.63720703,-0.034729004,0.8505249,-1.296875,2.421875,0.796875,63
64,1696246700374,-0.6738281,-0.07525635,0.8356323,-0.5625,0.953125,2.25,64
65,1696246700414,-0.6689453,-0.081848145,0.84954834,-3.984375,12.78125,2.9375,65
66,1696246700454,-0.6520996,-0.07110596,0.9840698,2.25,-2.15625,4.296875,66
67,1696246700494,-0.7138672,-0.11553955,0.8307495,-1.875,-2.5625,-4.5625,67
68,1696246700534,-0.63623047,-0.070129395,0.81170654,-1.75,-3.125,-4.359375,68
69,1696246700574,-0.62060547,-0.039611816,0.8085327,2.421875,-4.390625,-1.875,69
70,1696246700614,-0.701416,-0.06695557,0.7926636,0.484375,-0.984375,-0.390625,70
71,1696246700654,-0.61938477,-0.03375244,0.83587646,1.234375,0.0625,0.359375,71
72,1696246700694,-0.66259766,-0.0635376,0.8410034,1.53125,-1.15625,1.9375,72
73,1696246700734,-0.68652344,-0.07183838,0.82855225,0.734375,0.53125,1.40625,73
74,1696246700774,-0.63549805,-0.057922363,0.82928467,-0.640625,0.859375,1.09375,74
75,1696246700814,-0.63964844,-0.074279785,0.84368896,-2.5625,-0.578125,0.90625,75
76,1696246700854,-0.69140625,-0.06060791,0.81414795,-4.625,9.03125,3.515625,76
77,1696246700894,-0.5776367,-0.04156494,0.9501343,-1.078125,0.765625,1.75,77
78,1696246700934,-0.7404785,-0.10797119,0.84832764,0.625,-5.015625,-1.6875,78
79,1696246700974,-0.6125488,-0.02178955,0.84906006,-1.84375,-3.9375,-5.109375,79
80,1696246701014,-0.64746094,-0.06890869,0.7921753,2.890625,-4.296875,-0.734375,80
81,1696246701054,-0.67749023,-0.07696533,0.79608154,1.765625,-2.0,-1.25,81
82,1696246701094,-0.63134766,-0.038635254,0.81585693,0.515625,1.0625,-0.453125,82
83,1696246701134,-0.63916016,-0.043518066,0.840271,0.5625,-0.296875,1.625,83
84,1696246701174,-0.6694336,-0.06085205,0.8512573,-0.078125,0.1875,1.34375,84
85,1696246701214,-0.6647949,-0.04864502,0.8200073,-0.96875,-0.9375,1.0,85
86,1696246701254,-0.6352539,-0.04547119,0.85491943,-2.203125,1.234375,0.96875,86
87,1696246701294,-0.6594238,-0.059387207,0.7946167,-4.109375,8.84375,3.421875,87
88,1696246701334,-0.71069336,-0.101135254,1.0079956,-0.21875,-4.296875,-0.078125,88
89,1696246701374,-0.6455078,-0.09112549,0.8583374,0.6875,-1.15625,-3.484375,89
90,1696246701414,-0.60668945,-0.04156494,0.88079834,-2.640625,-9.421875,-7.328125,90
91,1696246701454,-0.69799805,-0.051818848,0.84490967,-4.296875,-13.546875,-9.53125,91
92,1696246701494,-0.7067871,-0.030334473,0.79730225,-5.203125,-9.453125,-3.828125,92
93,1696246701534,-0.6645508,-0.0012817383,0.7782593,-2.65625,-5.5,1.640625,93
94,1696246701574,-0.6982422,-0.0032348633,0.79852295,-1.8125,-3.40625,3.46875,94
95,1696246701614,-0.71435547,-0.03253174,0.83099365,-1.34375,-0.25,5.125,95
96,1696246701654,-0.68310547,-0.023010254,0.81243896,-2.421875,1.09375,1.9375,96
97,1696246701694,-0.6813965,-0.017150879,0.8378296,-0.40625,1.828125,0.53125,97
98,1696246701734,-0.7019043,-0.03741455,0.8234253,-1.359375,1.828125,0.796875,98
99,1696246701774,-0.6652832,-0.024475098,0.81707764,-2.609375,0.671875,-0.484375,99
100,1696246701814,-0.67578125,-0.0010375977,0.7723999,-1.796875,1.03125,-1.328125,100
101,1696246701854,-0.6813965,0.038757324,0.74139404,2.5625,-1.5625,0.078125,101
102,1696246701894,-0.6159668,0.03289795,0.77948,8.75,3.28125,1.21875,102
103,1696246701934,-0.6623535,0.0067749023,0.81585693,12.3125,0.1875,5.453125,103
104,1696246701974,-0.7507324,-0.10333252,0.8468628,9.671875,-0.046875,3.265625,104
105,1696246702014,-0.6130371,-0.13311768,0.8366089,4.46875,5.625,1.71875,105
106,1696246702054,-0.69311523,-0.055236816,0.8344116,3.109375,3.828125,0.453125,106
107,1696246702094,-0.69189453,-0.03668213,0.8275757,2.46875,7.046875,1.296875,107
108,1696246702134,-0.6152344,-0.04547119,0.8710327,1.765625,4.71875,3.09375,108
109,1696246702174,-0.6796875,-0.105041504,0.7982788,2.375,6.953125,3.75,109
110,1696246702214,-0.63793945,-0.06402588,0.7523804,-4.90625,11.4375,1.3125,110
111,1696246702254,-0.38183594,-0.012756348,0.8908081,0.421875,7.28125,6.90625,111
112,1696246702294,-0.7858887,-0.1687622,0.9957886,4.234375,-10.875,4.671875,112
113,1696246702334,-0.78222656,-0.16143799,0.87371826,-3.1875,-2.5,-6.734375,113
114,1696246702374,-0.5625,-0.0335083,0.8649292,-1.578125,-5.65625,-3.9375,114
115,1696246702414,-0.68774414,-0.09454346,0.809021,2.0625,-4.546875,-1.53125,115
116,1696246702454,-0.671875,-0.07232666,0.7868042,-1.359375,0.875,-3.125,116
117,1696246702494,-0.6069336,-0.06011963,0.8353882,0.65625,0.1875,-0.578125,117
118,1696246702534,-0.6669922,-0.06890869,0.83636475,1.765625,0.0,0.53125,118
119,1696246702574,-0.654541,-0.04547119,0.8517456,0.9375,0.46875,0.796875,119
120,1696246702614,-0.6142578,-0.066223145,0.82318115,1.640625,1.484375,1.390625,120
121,1696246702654,-0.62109375,-0.082336426,0.85028076,-2.671875,0.890625,1.3125,121
122,1696246702694,-0.6569824,-0.0725708,0.7863159,-3.5,8.171875,4.15625,122
123,1696246702734,-0.5566406,-0.09649658,0.96551514,-1.296875,-0.9375,0.828125,123
124,1696246702774,-0.7121582,-0.1338501,0.8187866,-1.453125,-2.78125,-2.578125,124
125,1696246702814,-0.5974121,-0.05303955,0.8331909,-7.078125,-3.109375,-5.34375,125
126,1696246702854,-0.64819336,-0.050598145,0.79559326,1.53125,-5.796875,-3.09375,126
127,1696246702894,-0.66918945,-0.054016113,0.78778076,0.703125,-1.28125,-0.328125,127
128,1696246702934,-0.6022949,-0.02935791,0.8348999,-1.09375,-0.359375,-1.578125,128
129,1696246702974,-0.64331055,-0.054016113,0.84661865,1.5625,-0.28125,1.484375,129
130,1696246703014,-0.66967773,-0.05255127,0.85369873,1.34375,0.328125,1.03125,130
131,1696246703054,-0.6550293,-0.046447754,0.8756714,0.875,0.578125,1.03125,131
132,1696246703094,-0.63500977,-0.06915283,0.84417725,1.5,0.875,2.15625,132
133,1696246703134,-0.6242676,-0.05255127,0.8473511,-0.046875,1.265625,2.109375,133
134,1696246703174,-0.6166992,-0.053771973,0.8197632,0.90625,2.390625,2.765625,134
135,1696246703214,-0.6015625,-0.049865723,0.7658081,-1.796875,6.328125,4.734375,135
136,1696246703254,-0.5715332,-0.070373535,0.95843506,1.5625,-1.59375,2.671875,136
137,1696246703294,-0.7648926,-0.11505127,0.8602905,0.90625,-4.5625,-2.484375,137
138,1696246703334,-0.61621094,-0.066223145,0.89178467,-4.375,-6.671875,-5.53125,138
139,1696246703374,-0.6208496,-0.050109863,0.88739014,-7.453125,-15.859375,-12.4375,139
140,1696246703414,-0.6972656,-0.04815674,0.8632202,-7.84375,-15.84375,-6.390625,140
141,1696246703454,-0.72509766,-0.019104004,0.76239014,-5.125,-9.96875,-0.09375,141
142,1696246703494,-0.6477051,-0.0051879883,0.79730225,-3.53125,-4.3125,1.171875,142
143,1696246703534,-0.69091797,-0.026428223,0.8085327,-0.25,-1.703125,4.359375,143
144,1696246703574,-0.7150879,-0.022033691,0.8187866,-0.40625,0.734375,1.828125,144
145,1696246703614,-0.6628418,-0.020812988,0.8156128,-0.921875,2.421875,0.1875,145
146,1696246703654,-0.6640625,-0.026184082,0.8390503,-0.9375,1.5625,-0.046875,146
147,1696246703694,-0.69091797,-0.039855957,0.852478,-1.28125,1.125,-0.21875,147
148,1696246703734,-0.69018555,-0.031066895,0.85565186,-2.515625,1.921875,0.640625,148
149,1696246703774,-0.6621094,-0.006652832,0.8324585,-3.984375,1.515625,0.6875,149
150,1696246703814,-0.6594238,0.00579834,0.809021,-1.65625,-1.0,0.765625,150
151,1696246703854,-0.6567383,0.00018310547,0.79852295,-1.953125,-1.359375,0.265625,151
152,1696246703894,-0.6669922,-0.012023926,0.7963257,-1.6875,-0.75,0.015625,152
153,1696246703934,-0.6928711,-0.0068969727,0.8151245,-0.375,-1.53125,-0.546875,153
154,1696246703974,-0.6921387,0.014831543,0.76483154,3.3125,-4.15625,-0.265625,154
155,1696246704014,-0.64990234,0.012878418,0.7736206,9.78125,2.6875,0.21875,155
156,1696246704054,-0.703125,-0.03375244,0.8475952,16.765625,-0.84375,4.515625,156
157,1696246704094,-0.7001953,-0.09063721,0.8331909,9.15625,1.234375,2.6875,157
158,1696246704134,-0.6281738,-0.074523926,0.85369873,5.578125,2.484375,2.46875,158
159,1696246704174,-0.69018555,-0.05328369,0.8395386,6.765625,-0.59375,2.53125,159
160,1696246704214,-0.6586914,-0.05303955,0.84710693,3.546875,-0.015625,3.46875,160
161,1696246704254,-0.64697266,-0.070129395,0.8366089,3.15625,2.296875,4.453125,161
162,1696246704294,-0.7006836,-0.09552002,0.83221436,2.828125,1.96875,4.1875,162
163,1696246704334,-0.6608887,-0.07305908,0.7838745,0.453125,2.34375,1.90625,163
164,1696246704374,-0.5979004,-0.06451416,0.838562,-3.53125,9.34375,1.875,164
165,1696246704414,-0.65356445,-0.11016846,0.9501343,1.9375,-1.5,2.125,165
166,1696246704454,-0.7590332,-0.124816895,0.8656616,-1.53125,-0.625,-3.421875,166
167,1696246704494,-0.6418457,-0.10015869,0.88861084,-6.125,-1.34375,-5.453125,167
168,1696246704534,-0.6320801,-0.034484863,0.80926514,-2.4375,-7.921875,-5.0,168
169,1696246704574,-0.6730957,-0.046691895,0.7977905,-0.8125,-3.28125,-0.09375,169
170,1696246704614,-0.66137695,-0.050842285,0.8197632,1.015625,-1.9375,-0.515625,170
171,1696246704654,-0.6677246,-0.09112549,0.8217163,0.78125,-0.265625,1.296875,171
172,1696246704694,-0.64160156,-0.055480957,0.8319702,0.8125,0.453125,0.3125,172
173,1696246704734,-0.6779785,-0.065979004,0.83026123,1.484375,-0.09375,0.9375,173
174,1696246704774,-0.65405273,-0.06427002,0.84198,0.703125,1.859375,1.0625,174
175,1696246704814,-0.65527344,-0.054260254,0.86761475,-0.015625,1.015625,0.515625,175
176,1696246704854,-0.67871094,-0.07354736,0.83221436,0.5,0.765625,1.484375,176
177,1696246704894,-0.64331055,-0.07476807,0.84588623,0.34375,1.828125,1.171875,177
178,1696246704934,-0.6501465,-0.07208252,0.85443115,0.078125,-0.765625,1.3125,178
179,1696246704974,-0.6599121,-0.09454346,0.82366943,1.21875,-1.3125,1.59375,179
180,1696246705014,-0.6401367,-0.06500244,0.8432007,-0.5,-0.984375,-0.203125,180
181,1696246705054,-0.69018555,-0.07281494,0.83587646,0.25,-1.484375,0.46875,181
182,1696246705094,-0.62768555,-0.06890869,0.8473511,0.078125,-1.21875,0.71875,182
183,1696246705134,-0.69311523,-0.058654785,0.82147217,1.625,-1.796875,1.28125,183
184,1696246705174,-0.6447754,-0.094055176,0.8446655,0.984375,0.71875,0.859375,184
185,1696246705214,-0.6447754,-0.06842041,0.83709717,-1.15625,0.109375,0.53125,185
186,1696246705254,-0.64697266,-0.08673096,0.82733154,-0.25,1.609375,1.0,186
187,1696246705294,-0.6245117,-0.070373535,0.7345581,-4.75,4.046875,1.59375,187
188,1696246705334,-0.56762695,-0.0491333,0.9088745,-4.4375,9.15625,1.75,188
189,1696246705374,-0.7841797,-0.10699463,0.95843506,0.78125,-4.59375,0.546875,189
190,1696246705414,-0.65405273,-0.08721924,0.883728,-5.4375,-1.015625,-5.375,190
191,1696246705454,-0.6298828,-0.012756348,0.8444214,-0.875,-8.859375,-7.125,191
192,1696246705494,-0.65649414,-0.059387207,0.8390503,3.0,-8.28125,-1.84375,192
193,1696246705534,-0.6933594,-0.077697754,0.77948,0.265625,-4.9375,-0.90625,193
194,1696246705574,-0.6447754,-0.082336426,0.8185425,1.109375,-1.453125,-0.3125,194
195,1696246705614,-0.65405273,-0.04864502,0.8148804,1.359375,-1.375,0.34375,195
196,1696246705654,-0.67944336,-0.047912598,0.8234253,0.671875,0.03125,0.453125,196
197,1696246705694,-0.6491699,-0.050598145,0.83099365,0.015625,0.5,0.84375,197
198,1696246705734,-0.6870117,-0.06842041,0.8361206,0.78125,-0.578125,1.015625,198
199,1696246705774,-0.68481445,-0.08062744,0.84539795,0.1875,-0.390625,0.875,199
200,1696246705814,-0.66064453,-0.06329346,0.85736084,0.0,0.234375,0.890625,200
201,1696246705854,-0.66845703,-0.06500244,0.8187866,-0.5,0.671875,0.65625,201
202,1696246705894,-0.63916016,-0.058898926,0.8290405,0.953125,0.4375,0.546875,202
203,1696246705934,-0.66430664,-0.065979004,0.82073975,0.21875,0.5625,1.09375,203
204,1696246705974,-0.6513672,-0.05718994,0.8290405,-0.015625,0.84375,0.546875,204
205,1696246706014,-0.6743164,-0.0569458,0.8383179,0.640625,1.921875,0.59375,205
206,1696246706054,-0.63964844,-0.06744385,0.8463745,0.15625,2.453125,1.234375,206
207,1696246706094,-0.69921875,-0.04840088,0.85150146,6.375,0.234375,3.265625,207
208,1696246706134,-0.67749023,-0.13433838,0.84832764,5.75,4.9375,3.765625,208
209,1696246706174,-0.58374023,-0.08526611,0.77630615,1.09375,4.328125,2.734375,209
210,1696246706214,-0.5571289,-0.050842285,0.8571167,0.671875,8.140625,4.609375,210
211,1696246706254,-0.7607422,-0.1326294,0.9508667,4.296875,-4.234375,0.96875,211
212,1696246706294,-0.6154785,-0.1453247,0.84417725,-0.9375,1.15625,-4.53125,212
213,1696246706334,-0.57788086,-0.07305908,0.8595581,-2.140625,-2.078125,-1.375,213
214,1696246706374,-0.6430664,-0.09503174,0.8395386,-0.984375,-4.59375,-2.375,214
215,1696246706414,-0.69311523,-0.09210205,0.8529663,-3.1875,-4.34375,-1.859375,215
216,1696246706454,-0.642334,-0.0803833,0.86932373,-3.78125,-6.875,-4.15625,216
217,1696246706494,-0.68310547,-0.09625244,0.82440186,-4.53125,-9.015625,-2.609375,217
218,1696246706534,-0.6791992,-0.043762207,0.83099365,-3.3125,-6.421875,-2.484375,218
219,1696246706574,-0.69189453,-0.06695557,0.81365967,-1.96875,-3.484375,0.8125,219
220,1696246706614,-0.66064453,-0.07476807,0.82440186,-1.90625,-1.4375,1.15625,220
221,1696246706654,-0.6635742,-0.054260254,0.8444214,-1.265625,-2.0,0.34375,221
222,1696246706694,-0.6970215,-0.06524658,0.82147217,-2.078125,-1.984375,-0.21875,222
223,1696246706734,-0.6672363,-0.058898926,0.8305054,-3.046875,-0.765625,1.125,223
224,1696246706774,-0.64697266,-0.047668457,0.8095093,-2.984375,-0.953125,0.0625,224
225,1696246706814,-0.6789551,-0.038635254,0.8143921,-0.75,-2.4375,-0.8125,225
226,1696246706854,-0.7023926,-0.054260254,0.8019409,-0.453125,-0.90625,-0.75,226
227,1696246706894,-0.68066406,-0.04864502,0.793396,1.65625,-1.34375,-0.078125,227
228,1696246706934,-0.69873047,-0.010559082,0.8197632,-0.5625,0.515625,-1.109375,228
229,1696246706974,-0.6621094,-0.03717041,0.78118896,5.421875,4.25,2.046875,229
230,1696246707014,-0.6862793,-0.03302002,0.8341675,8.03125,4.34375,5.953125,230
231,1696246707054,-0.6953125,-0.11578369,0.81073,5.015625,4.3125,4.234375,231
232,1696246707094,-0.62280273,-0.117248535,0.8707886,2.78125,5.6875,3.859375,232
233,1696246707134,-0.63256836,-0.0803833,0.85858154,3.15625,2.671875,3.921875,233
234,1696246707174,-0.61157227,-0.08648682,0.86590576,1.5,5.140625,4.78125,234
235,1696246707214,-0.67211914,-0.09283447,0.87005615,5.4375,-0.328125,6.640625,235
236,1696246707254,-0.7451172,-0.16119385,0.82806396,0.046875,1.921875,1.359375,236
237,1696246707294,-0.5751953,-0.0791626,0.82733154,-1.453125,1.3125,-1.34375,237
238,1696246707334,-0.6311035,-0.081848145,0.7616577,-1.765625,4.90625,1.203125,238
239,1696246707374,-0.6176758,-0.08331299,0.8937378,-0.953125,4.90625,1.625,239
240,1696246707414,-0.74072266,-0.1296997,0.90252686,-1.03125,-2.546875,-3.734375,240
241,1696246707454,-0.5878906,-0.13116455,0.8590698,-6.21875,-2.125,-4.171875,241
242,1696246707494,-0.62841797,-0.08843994,0.88446045,-5.796875,-7.28125,-8.234375,242
243,1696246707534,-0.7036133,-0.066467285,0.80877686,-3.109375,-4.359375,-5.75,243
244,1696246707574,-0.63720703,-0.04864502,0.82440186,-2.171875,-1.578125,-1.4375,244
245,1696246707614,-0.62231445,-0.046691895,0.82733154,0.46875,-4.75,-0.3125,245
246,1696246707654,-0.67871094,-0.08013916,0.82611084,0.421875,-3.25,0.0625,246
247,1696246707694,-0.6635742,-0.04937744,0.8290405,-1.203125,-0.75,-0.21875,247
248,1696246707734,-0.64746094,-0.06011963,0.8356323,-0.046875,-0.84375,0.078125,248
249,1696246707774,-0.65844727,-0.06890869,0.84002686,0.5,-0.8125,0.359375,249
250,1696246707814,-0.6657715,-0.07598877,0.8278198,-1.203125,0.265625,0.1875,250
251,1696246707854,-0.65234375,-0.05303955,0.8344116,0.421875,-0.015625,0.203125,251
252,1696246707894,-0.67089844,-0.073791504,0.83929443,0.328125,0.46875,0.515625,252
253,1696246707934,-0.63500977,-0.06890869,0.807312,0.609375,1.1875,1.28125,253
254,1696246707974,-0.64819336,-0.051818848,0.85150146,1.953125,-0.578125,1.34375,254
255,1696246708014,-0.6796875,-0.074279785,0.8161011,3.4375,-0.03125,1.609375,255
256,1696246708054,-0.6472168,-0.07305908,0.83636475,1.96875,2.84375,2.171875,256
257,1696246708094,-0.6689453,-0.06744385,0.82928467,1.359375,5.84375,3.40625,257
258,1696246708134,-0.67529297,-0.08453369,0.8217163,6.234375,3.828125,5.78125,258
259,1696246708174,-0.6062012,-0.10235596,0.8192749,1.046875,6.390625,5.96875,259
260,1696246708214,-0.54956055,-0.11187744,0.90374756,-1.703125,6.984375,0.765625,260
261,1696246708254,-0.7080078,-0.13189697,0.90179443,0.25,-5.34375,-3.171875,261
262,1696246708294,-0.62768555,-0.06866455,0.85272217,-4.0,0.140625,-3.453125,262
263,1696246708334,-0.65112305,-0.097229004,0.89886475,-3.859375,-2.515625,-3.84375,263
264,1696246708374,-0.64160156,-0.12213135,0.8600464,-2.0625,-6.0,-4.75,264
265,1696246708414,-0.6652832,-0.062561035,0.84490967,-2.546875,-9.015625,-4.0625,265
266,1696246708454,-0.6520996,-0.0413208,0.8185425,-1.53125,-8.203125,-2.6875,266
267,1696246708494,-0.63378906,-0.07574463,0.8226929,0.140625,-2.5,1.375,267
268,1696246708534,-0.67089844,-0.0713501,0.8168335,1.359375,-1.0,1.71875,268
269,1696246708574,-0.6608887,-0.06793213,0.8312378,-0.015625,-0.140625,-0.3125,269
270,1696246708614,-0.6677246,-0.08380127,0.8390503,0.390625,0.515625,1.09375,270
271,1696246708654,-0.6694336,-0.062316895,0.8305054,-0.234375,1.46875,0.078125,271
272,1696246708694,-0.65356445,-0.06915283,0.85687256,0.265625,1.296875,0.765625,272
273,1696246708734,-0.6569824,-0.06939697,0.82489014,0.640625,1.890625,1.734375,273
274,1696246708774,-0.6413574,-0.06573486,0.82806396,0.59375,3.859375,1.84375,274
275,1696246708814,-0.6333008,-0.07696533,0.80096436,0.6875,3.671875,3.046875,275
276,1696246708854,-0.64941406,-0.06695557,0.8773804,-0.3125,3.03125,2.890625,276
277,1696246708894,-0.63720703,-0.09307861,0.7579956,-5.34375,12.8125,3.65625,277
278,1696246708934,-0.4897461,-0.021057129,1.0993042,0.140625,1.703125,2.640625,278
279,1696246708974,-0.85058594,-0.14337158,0.8890991,1.5,-7.0625,-1.546875,279
280,1696246709014,-0.6098633,-0.101135254,0.8624878,-5.0625,-1.03125,-5.75,280
281,1696246709054,-0.56103516,-0.04937744,0.8588257,-3.90625,-7.0625,-6.453125,281
282,1696246709094,-0.65771484,-0.065979004,0.8607788,-3.09375,-13.28125,-5.8125,282
283,1696246709134,-0.7192383,-0.03741455,0.7616577,-3.90625,-13.21875,-4.375,283
284,1696246709174,-0.66967773,-0.030334473,0.8226929,-2.796875,-8.390625,-2.0,284
285,1696246709214,-0.68725586,-0.06817627,0.82611084,-3.34375,-3.984375,2.46875,285
286,1696246709254,-0.68530273,-0.031555176,0.8432007,-4.1875,-0.109375,3.078125,286
287,1696246709294,-0.66259766,-0.003967285,0.84417725,-3.0,2.578125,3.09375,287
288,1696246709334,-0.67993164,-0.042541504,0.85369873,-1.84375,1.8125,3.234375,288
289,1696246709374,-0.66674805,-0.05596924,0.82562256,-4.296875,2.09375,0.78125,289
290,1696246709414,-0.67578125,-0.03277588,0.8488159,-2.546875,2.296875,-0.65625,290
291,1696246709454,-0.6647949,-0.038879395,0.8324585,-2.75,1.828125,0.21875,291
292,1696246709494,-0.63500977,-0.0134887695,0.8078003,-2.53125,0.21875,-0.140625,292
293,1696246709534,-0.67163086,0.0016479492,0.8185425,-0.984375,-0.640625,-0.578125,293
294,1696246709574,-0.6838379,-0.022033691,0.8041382,-2.921875,0.125,-0.921875,294
295,1696246709614,-0.657959,0.007019043,0.7301636,5.171875,-4.75,-1.953125,295
296,1696246709654,-0.6125488,0.050720215,0.77874756,11.796875,-0.09375,0.046875,296
297,1696246709694,-0.74487305,-0.004699707,0.9039917,17.109375,-6.046875,4.125,297
298,1696246709734,-0.6569824,-0.12774658,0.7892456,6.28125,3.890625,1.734375,298
299,1696246709774,-0.58203125,-0.082092285,0.8781128,3.4375,3.734375,0.375,299
300,1696246709814,-0.7133789,-0.042053223,0.85980225,1.359375,5.296875,2.03125,300
301,1696246709854,-0.6035156,-0.02911377,0.8720093,1.125,6.5625,5.015625,301
302,1696246709894,-0.6594238,-0.061828613,0.80389404,-1.828125,5.171875,4.703125,302
303,1696246709934,-0.6159668,-0.055236816,0.9501343,2.421875,3.453125,3.375,303
304,1696246709974,-0.7133789,-0.120666504,0.9105835,1.09375,-4.515625,-3.53125,304
305,1696246710014,-0.66186523,-0.09283447,0.8817749,-1.984375,1.0625,-2.578125,305
306,1696246710054,-0.64575195,-0.08892822,0.83026123,-2.21875,-3.390625,-2.03125,306
307,1696246710094,-0.65844727,-0.08648682,0.82073975,-0.5,-2.859375,-2.0,307
308,1696246710134,-0.6496582,-0.051574707,0.80999756,-0.921875,-0.3125,-0.390625,308
309,1696246710174,-0.6582031,-0.059631348,0.8307495,0.515625,-0.890625,1.1875,309
310,1696246710214,-0.64575195,-0.057678223,0.8348999,0.15625,0.484375,0.703125,310
311,1696246710254,-0.6376953,-0.0491333,0.8539429,0.0,1.28125,1.859375,311
312,1696246710294,-0.654541,-0.054016113,0.8583374,0.484375,-0.265625,1.921875,312
313,1696246710334,-0.6113281,-0.08770752,0.8654175,-0.703125,2.484375,2.71875,313
314,1696246710374,-0.6743164,-0.06329346,0.79486084,0.015625,3.53125,4.0625,314
315,1696246710414,-0.54833984,-0.058410645,0.9454956,2.359375,-1.4375,0.078125,315
316,1696246710454,-0.68530273,-0.11016846,0.8173218,2.859375,-3.640625,-1.359375,316
317,1696246710494,-0.64453125,-0.09307861,0.85321045,-2.265625,-2.421875,-1.25,317
318,1696246710534,-0.6711426,-0.07183838,0.84124756,-0.765625,-4.65625,-4.859375,318
319,1696246710574,-0.69091797,-0.0635376,0.8175659,-1.0,0.203125,-2.5625,319
320,1696246710614,-0.6281738,-0.019592285,0.8217163,0.046875,2.578125,-0.9375,320
321,1696246710654,-0.6279297,-0.07305908,0.83465576,-0.59375,-0.140625,0.484375,321
322,1696246710694,-0.62939453,-0.051330566,0.857605,1.390625,0.9375,0.9375,322
323,1696246710734,-0.63378906,-0.06036377,0.8578491,0.71875,0.734375,1.171875,323
324,1696246710774,-0.63012695,-0.08111572,0.86224365,1.9375,1.171875,1.765625,324
325,1696246710814,-0.611084,-0.06939697,0.8695679,0.765625,0.375,2.09375,325
326,1696246710854,-0.6171875,-0.0881958,0.83343506,3.21875,-0.796875,2.9375,326
327,1696246710894,-0.6582031,-0.089660645,0.83514404,-0.890625,2.28125,4.03125,327
328,1696246710934,-0.61279297,-0.07891846,0.869812,-0.78125,2.4375,2.9375,328
329,1696246710974,-0.6501465,-0.061828613,0.75457764,-3.25,3.359375,1.40625,329
330,1696246711014,-0.54785156,-0.0134887695,0.97698975,1.4375,-4.234375,-1.625,330
331,1696246711054,-0.72143555,-0.14727783,0.8065796,2.0,-1.265625,-0.328125,331
332,1696246711094,-0.62402344,-0.1104126,0.87249756,-2.125,2.015625,-4.9375,332
333,1696246711134,-0.5913086,-0.06842041,0.8932495,-0.46875,-5.09375,-3.734375,333
334,1696246711174,-0.69628906,-0.07891846,0.83929443,-2.984375,-8.0,-7.984375,334
335,1696246711214,-0.5839844,-0.022521973,0.84954834,-5.15625,-8.203125,-5.390625,335
336,1696246711254,-0.66748047,-0.05596924,0.8969116,-2.046875,-8.453125,0.703125,336
337,1696246711294,-0.6928711,-0.04888916,0.8168335,-2.34375,-5.75,3.3125,337
338,1696246711334,-0.63964844,-0.028137207,0.81951904,-4.734375,-4.484375,1.84375,338
339,1696246711374,-0.63500977,-0.045959473,0.87420654,-3.078125,-2.796875,1.390625,339
340,1696246711414,-0.7114258,-0.077941895,0.8510132,-4.1875,-1.15625,2.109375,340
341,1696246711454,-0.6730957,-0.04864502,0.85150146,-4.09375,1.6875,1.125,341
342,1696246711494,-0.66625977,-0.03253174,0.82806396,-3.9375,0.640625,-0.296875,342
343,1696246711534,-0.6633301,-0.02178955,0.82244873,-3.703125,2.171875,-0.578125,343
344,1696246711574,-0.6887207,-0.026672363,0.840271,-1.71875,2.125,0.078125,344
345,1696246711614,-0.64819336,-0.027404785,0.7658081,-3.265625,1.734375,-0.8125,345
346,1696246711654,-0.6557617,0.0021362305,0.82318115,2.03125,0.1875,-1.6875,346
347,1696246711694,-0.6088867,0.039245605,0.68621826,8.296875,-2.5625,0.140625,347
348,1696246711734,-0.62280273,0.026550293,0.8175659,15.3125,1.21875,3.75,348
349,1696246711774,-0.7050781,-0.1182251,0.9110718,13.875,-3.5625,4.1875,349
350,1696246711814,-0.61279297,-0.17852783,0.871521,4.046875,3.0625,1.265625,350
351,1696246711854,-0.6057129,-0.04547119,0.8319702,0.875,2.5,-0.578125,351
352,1696246711894,-0.6813965,-0.015686035,0.87371826,0.140625,-0.390625,2.84375,352
353,1696246711934,-0.6220703,-0.061584473,0.85565186,-2.859375,-3.34375,3.5625,353
354,1696246711974,-0.6843262,-0.08135986,0.8805542,0.421875,-1.9375,2.90625,354
355,1696246712014,-0.7348633,-0.07989502,0.80755615,0.8125,0.53125,0.984375,355
356,1696246712054,-0.6586914,-0.097229004,0.8602905,1.71875,-3.265625,1.8125,356
357,1696246712094,-0.7023926,-0.15704346,0.81903076,-1.84375,-2.75,-3.34375,357
358,1696246712134,-0.64160156,-0.094055176,0.8290405,-3.125,0.8125,-2.765625,358
359,1696246712174,-0.6711426,-0.0178833,0.8180542,-1.96875,-1.34375,-2.53125,359
360,1696246712214,-0.64868164,-0.07525635,0.8265991,0.453125,-0.703125,-0.890625,360
361,1696246712254,-0.6821289,-0.06793213,0.8602905,0.984375,-0.0625,-0.375,361
362,1696246712294,-0.6411133,-0.05645752,0.8168335,0.265625,1.453125,0.671875,362
363,1696246712334,-0.67333984,-0.0635376,0.8197632,2.1875,0.96875,2.6875,363
364,1696246712374,-0.61157227,-0.08892822,0.8234253,-0.96875,1.59375,0.203125,364
365,1696246712414,-0.65063477,-0.06768799,0.83026123,1.0,-1.578125,2.375,365
366,1696246712454,-0.65356445,-0.08282471,0.83587646,-1.484375,1.171875,-0.484375,366
367,1696246712494,-0.63549805,-0.050109863,0.8834839,-1.78125,-2.828125,0.296875,367
368,1696246712534,-0.7236328,-0.06549072,0.81414795,-3.0,0.953125,-1.296875,368
369,1696246712574,-0.6520996,-0.05596924,0.8825073,-3.078125,3.046875,-1.359375,369
370,1696246712614,-0.6459961,-0.09674072,0.8661499,1.234375,-2.546875,-0.65625,370
371,1696246712654,-0.69018555,-0.07623291,0.8529663,-0.78125,-0.34375,-0.75,371
372,1696246712694,-0.6374512,-0.041809082,0.84002686,-0.40625,-0.140625,0.5625,372
373,1696246712734,-0.65649414,-0.07354736,0.8583374,1.28125,-3.9375,-0.078125,373
374,1696246712774,-0.66625977,-0.09185791,0.84783936,0.703125,-4.875,-1.703125,374
375,1696246712814,-0.66308594,-0.0335083,0.81658936,1.421875,-4.359375,-0.640625,375
376,1696246712854,-0.6755371,-0.05255127,0.82366943,0.59375,-1.03125,0.109375,376
377,1696246712894,-0.6682129,-0.059631348,0.8414917,0.90625,1.265625,1.28125,377
378,1696246712934,-0.65722656,-0.07110596,0.83880615,0.671875,1.359375,1.34375,378
379,1696246712974,-0.6381836,-0.054504395,0.8414917,0.375,0.796875,1.171875,379
380,1696246713014,-0.67700195,-0.05328369,0.83880615,0.890625,0.46875,1.0,380
381,1696246713054,-0.6623535,-0.09112549,0.8300171,1.375,1.265625,1.4375,381
382,1696246713094,-0.6555176,-0.0713501,0.8407593,-0.34375,1.375,-0.546875,382
383,1696246713134,-0.670166,-0.0725708,0.8534546,0.03125,-0.234375,1.109375,383
384,1696246713174,-0.6269531,-0.057922363,0.8173218,-0.09375,-1.421875,0.921875,384
385,1696246713214,-0.6726074,-0.044006348,0.82440186,0.125,0.109375,2.765625,385
386,1696246713254,-0.6123047,-0.11602783,0.82562256,-4.734375,4.34375,2.796875,386
387,1696246713294,-0.64501953,-0.0713501,0.8356323,0.53125,8.90625,-0.609375,387
388,1696246713334,-0.7192383,-0.105529785,0.96917725,1.34375,-5.3125,3.09375,388
389,1696246713374,-0.6936035,-0.12017822,0.8617554,-2.515625,-2.984375,-4.90625,389
390,1696246713414,-0.61499023,-0.08648682,0.8890991,-7.5,-9.171875,-8.265625,390
391,1696246713454,-0.7067871,-0.04083252,0.8739624,-7.25,-13.0,-7.75,391
392,1696246713494,-0.6982422,-0.030578613,0.76898193,-5.09375,-9.046875,-4.546875,392
393,1696246713534,-0.6484375,-0.020568848,0.7975464,-1.65625,-4.4375,0.640625,393
394,1696246713574,-0.6713867,-0.031799316,0.8307495,0.125,-3.046875,3.5,394
395,1696246713614,-0.69873047,-0.016174316,0.7872925,0.171875,0.34375,4.1875,395
396,1696246713654,-0.6850586,-0.027893066,0.8197632,0.359375,0.4375,3.640625,396
397,1696246713694,-0.6599121,-0.053527832,0.80023193,-0.765625,0.015625,2.265625,397
398,1696246713734,-0.69970703,-0.04522705,0.8463745,-0.34375,-1.296875,-0.71875,398
399,1696246713774,-0.7312012,-0.06964111,0.8222046,-1.734375,0.203125,-0.265625,399
400,1696246713814,-0.6911621,0.011657715,0.77801514,-0.625,-0.015625,-0.484375,400
401,1696246713854,-0.6130371,0.031677246,0.8119507,4.515625,1.71875,0.875,401
402,1696246713894,-0.67578125,-0.03253174,0.77142334,7.375,2.09375,4.453125,402
403,1696246713934,-0.66064453,-0.06744385,0.7929077,6.421875,1.0,1.84375,403
404,1696246713974,-0.6118164,-0.10870361,0.8410034,2.734375,3.875,1.765625,404
405,1696246714014,-0.7023926,-0.054504395,0.8475952,0.25,-1.1875,-0.0625,405
406,1696246714054,-0.68066406,0.005065918,0.77679443,-5.6875,2.3125,-1.359375,406
407,1696246714094,-0.6430664,-0.05279541,0.8776245,-1.484375,2.828125,2.75,407
408,1696246714134,-0.7114258,-0.094055176,0.9838257,3.1875,-3.265625,0.546875,408
409,1696246714174,-0.69799805,-0.09185791,0.80340576,0.21875,0.421875,-4.359375,409
410,1696246714214,-0.6188965,-0.10235596,0.80804443,-2.140625,-1.171875,-2.375,410
411,1696246714254,-0.65478516,-0.051574707,0.8278198,-3.75,-4.8125,-6.296875,411
412,1696246714294,-0.72875977,-0.016906738,0.77948,-1.515625,-3.828125,-2.875,412
413,1696246714334,-0.6401367,-0.019104004,0.79559326,2.015625,0.078125,1.28125,413
414,1696246714374,-0.6779785,-0.062561035,0.8029175,0.578125,0.921875,0.765625,414
415,1696246714414,-0.6809082,-0.030334473,0.8065796,2.21875,1.375,1.9375,415
416,1696246714454,-0.6750488,-0.026672363,0.83709717,4.046875,1.84375,3.21875,416
417,1696246714494,-0.6574707,-0.05987549,0.8505249,1.8125,0.96875,1.875,417
418,1696246714534,-0.66137695,-0.062072754,0.81048584,-0.28125,1.046875,1.5625,418
419,1696246714574,-0.6567383,-0.07476807,0.77337646,-7.046875,5.28125,-0.4375,419
420,1696246714614,-0.51953125,0.025817871,0.95062256,-3.078125,6.375,-3.46875,420
421,1696246714654,-0.8083496,0.001159668,0.94281006,6.03125,-9.9375,0.0,421
422,1696246714694,-0.5654297,-0.13409424,0.8139038,-0.953125,-1.765625,-4.0,422
423,1696246714734,-0.6472168,-0.02911377,0.85809326,0.171875,-1.609375,2.3125,423
424,1696246714774,-0.81274414,-0.06695557,0.8331909,1.078125,-2.984375,-1.4375,424
425,1696246714814,-0.65649414,-0.070129395,0.8275757,-1.265625,1.53125,-0.296875,425
426,1696246714854,-0.65527344,-0.050598145,0.8204956,0.0625,-0.765625,1.484375,426
427,1696246714894,-0.7141113,-0.037902832,0.8175659,1.515625,1.15625,0.09375,427
428,1696246714934,-0.6516113,-0.0076293945,0.81365967,0.03125,3.09375,-0.15625,428
429,1696246714974,-0.6008301,-0.02545166,0.8222046,1.78125,2.71875,1.890625,429
430,1696246715014,-0.6340332,-0.06500244,0.8324585,1.640625,0.0625,2.53125,430
431,1696246715054,-0.6098633,-0.049621582,0.8043823,-0.296875,1.390625,4.59375,431
432,1696246715094,-0.64404297,-0.070373535,0.826355,-0.75,0.234375,2.6875,432
433,1696246715134,-0.63964844,-0.08477783,0.92230225,0.0,1.328125,0.53125,433
434,1696246715174,-0.7246094,-0.04156494,0.84832764,1.265625,-3.21875,0.390625,434
435,1696246715214,-0.6516113,-0.074035645,0.8300171,-0.265625,-0.359375,0.0,435
436,1696246715254,-0.6677246,-0.07525635,0.87249756,-1.546875,-1.859375,-3.34375,436
437,1696246715294,-0.69750977,-0.082336426,0.8644409,-3.4375,-6.0,-6.375,437
438,1696246715334,-0.67407227,-0.04888916,0.8134155,-4.15625,-8.03125,-5.59375,438
439,1696246715374,-0.63183594,-0.031555176,0.84490967,-3.125,-6.640625,-2.703125,439
440,1696246715414,-0.6845703,-0.036193848,0.80218506,-2.34375,-4.890625,1.796875,440
441,1696246715454,-0.6789551,-0.004211426,0.8024292,-0.375,-2.65625,2.671875,441
442,1696246715494,-0.6574707,-0.023010254,0.840271,0.75,-3.015625,2.640625,442
443,1696246715534,-0.69189453,-0.039123535,0.8317261,0.21875,-1.828125,3.703125,443
444,1696246715574,-0.6796875,-0.021057129,0.7597046,-0.359375,0.015625,1.765625,444
445,1696246715614,-0.68359375,-0.020812988,0.83880615,2.765625,-1.078125,-1.375,445
446,1696246715654,-0.6477051,-0.03277588,0.72039795,1.828125,3.34375,0.6875,446
447,1696246715694,-0.6489258,-0.014709473,0.78289795,7.5,4.734375,4.6875,447
448,1696246715734,-0.68188477,-0.06549072,0.86102295,4.765625,2.609375,2.03125,448
449,1696246715774,-0.6459961,-0.11456299,0.82855225,2.0625,1.609375,2.328125,449
450,1696246715814,-0.6791992,-0.042053223,0.8410034,0.75,3.03125,-0.21875,450
451,1696246715854,-0.67456055,-0.059387207,0.8290405,0.71875,3.78125,1.171875,451
452,1696246715894,-0.6376953,-0.0647583,0.8485718,4.078125,-0.78125,1.71875,452
453,1696246715934,-0.6020508,-0.03668213,0.8434448,3.859375,2.125,1.9375,453
454,1696246715974,-0.64575195,-0.08868408,0.9413452,4.390625,-7.640625,2.4375,454
455,1696246716014,-0.7355957,-0.1350708,0.73553467,0.0,-1.15625,0.03125,455
456,1696246716054,-0.6057129,-0.059143066,0.8978882,-0.0625,4.265625,-0.796875,456
457,1696246716094,-0.7583008,-0.0960083,0.7789917,-0.265625,-4.453125,-0.09375,457
458,1696246716134,-0.6989746,-0.12017822,0.776062,-3.65625,4.21875,-1.734375,458
459,1696246716174,-0.66674805,-0.08062744,0.87054443,-1.15625,0.796875,-0.6875,459
460,1696246716214,-0.6767578,-0.1104126,0.8414917,0.15625,-4.9375,-2.65625,460
461,1696246716254,-0.6689453,-0.03717041,0.8253784,-2.53125,-0.359375,-0.953125,461
462,1696246716294,-0.66674805,-0.05303955,0.85443115,0.578125,0.15625,1.046875,462
463,1696246716334,-0.6196289,-0.0791626,0.8319702,-0.421875,1.625,0.65625,463
464,1696246716374,-0.6323242,-0.042053223,0.83221436,0.328125,-0.390625,1.125,464
465,1696246716414,-0.6237793,-0.057678223,0.8234253,0.484375,-1.4375,1.09375,465
466,1696246716454,-0.6479492,-0.08282471,0.8517456,-0.671875,0.921875,1.28125,466
467,1696246716494,-0.67700195,-0.07623291,0.80145264,-0.21875,0.8125,1.796875,467
468,1696246716534,-0.6418457,-0.09088135,0.9328003,0.0625,2.375,1.859375,468
469,1696246716574,-0.74902344,-0.061340332,0.77801514,-0.28125,-0.96875,-2.65625,469
470,1696246716614,-0.6555176,-0.081848145,0.86468506,-3.703125,1.578125,-1.40625,470
471,1696246716654,-0.66845703,-0.047668457,0.8739624,-1.375,-4.9375,-4.3125,471
472,1696246716694,-0.7011719,-0.08428955,0.86468506,-2.046875,-8.765625,-3.609375,472
473,1696246716734,-0.6713867,-0.07330322,0.836853,-4.15625,-10.71875,-4.78125,473
474,1696246716774,-0.6723633,-0.078186035,0.7880249,-3.5625,-7.546875,-2.59375,474
475,1696246716814,-0.67089844,-0.030822754,0.7807007,-4.671875,-0.71875,0.1875,475
476,1696246716854,-0.6911621,-0.047424316,0.7977905,-2.125,1.21875,2.1875,476
477,1696246716894,-0.66186523,-0.031555176,0.80682373,-1.84375,0.9375,1.1875,477
478,1696246716934,-0.6633301,-0.020324707,0.8097534,-0.875,-0.75,1.484375,478
479,1696246716974,-0.69873047,-0.016418457,0.83026123,-0.390625,-0.78125,1.265625,479
480,1696246717014,-0.7023926,-0.047668457,0.85321045,-0.71875,-0.109375,0.890625,480
481,1696246717054,-0.68481445,-0.044006348,0.8488159,-1.140625,0.421875,1.171875,481
482,1696246717094,-0.6706543,-0.045715332,0.8319702,-1.484375,0.421875,1.21875,482
483,1696246717134,-0.67749023,-0.049621582,0.8043823,-2.515625,-0.21875,1.28125,483
484,1696246717174,-0.6574707,-0.018859863,0.78948975,-2.4375,-0.65625,0.15625,484
485,1696246717214,-0.689209,-0.03375244,0.7982788,2.34375,-1.8125,-0.578125,485
486,1696246717254,-0.68115234,-0.019592285,0.77264404,4.078125,-2.34375,0.375,486
487,1696246717294,-0.6508789,0.008239746,0.7584839,9.84375,-1.25,1.390625,487
488,1696246717334,-0.6765137,-0.0569458,0.8446655,10.703125,-0.859375,4.6875,488
489,1696246717374,-0.67993164,-0.12994385,0.80389404,1.921875,2.859375,1.96875,489
490,1696246717414,-0.67822266,-0.054504395,0.88031006,2.234375,5.875,-0.234375,490
491,1696246717454,-0.6098633,-0.047180176,0.87957764,-0.1875,4.96875,2.765625,491
492,1696246717494,-0.65112305,-0.06939697,0.85321045,1.9375,-2.0,3.296875,492
493,1696246717534,-0.7792969,-0.10699463,0.8336792,1.484375,-0.75,-0.625,493
494,1696246717574,-0.6479492,-0.09210205,0.84198,0.78125,-1.40625,-2.421875,494
495,1696246717614,-0.7158203,-0.10992432,0.82489014,-3.046875,-0.453125,-1.328125,495
496,1696246717654,-0.69384766,-0.08331299,0.82147217,-3.65625,-1.09375,-2.34375,496
497,1696246717694,-0.7104492,-0.04840088,0.8060913,-4.609375,-0.09375,-4.4375,497
498,1696246717734,-0.6467285,-0.043273926,0.82196045,-1.671875,0.171875,0.296875,498
499,1696246717774,-0.67211914,-0.057678223,0.822937,-0.078125,0.515625,1.421875,499
500,1696246717814,-0.6501465,-0.046691895,0.85272217,0.359375,1.921875,0.21875,500
501,1696246717854,-0.6171875,-0.049865723,0.8510132,1.578125,2.078125,1.9375,501
502,1696246717894,-0.64624023,-0.05987549,0.85491943,2.53125,-0.09375,1.453125,502
503,1696246717934,-0.64453125,-0.06451416,0.82025146,1.0625,1.09375,1.875,503
504,1696246717974,-0.63964844,-0.05718994,0.8456421,2.046875,-1.453125,2.28125,504
505,1696246718014,-0.6530762,-0.050598145,0.8348999,4.828125,0.515625,3.890625,505
506,1696246718054,-0.6567383,-0.07720947,0.7885132,0.015625,2.53125,2.671875,506
507,1696246718094,-0.67285156,-0.08770752,0.84783936,0.265625,0.859375,0.0,507
508,1696246718134,-0.7138672,-0.10821533,0.8632202,0.15625,0.046875,-0.109375,508
509,1696246718174,-0.6647949,-0.08428955,0.8649292,-0.875,0.203125,-0.78125,509
510,1696246718214,-0.6870117,-0.09820557,0.8554077,-2.4375,-0.4375,-3.375,510
511,1696246718254,-0.64086914,-0.06695557,0.85272217,-3.140625,-0.625,-4.859375,511
512,1696246718294,-0.6496582,-0.047180176,0.8554077,-2.6875,-0.75,-2.390625,512
513,1696246718334,-0.6345215,-0.053527832,0.84002686,-2.359375,-4.71875,-2.09375,513
514,1696246718374,-0.6225586,-0.0491333,0.805603,-0.515625,-3.03125,-0.515625,514
515,1696246718414,-0.6464844,-0.026916504,0.82684326,2.046875,-1.984375,2.140625,515
516,1696246718454,-0.68725586,-0.047180176,0.8278198,0.96875,-1.328125,1.21875,516
517,1696246718494,-0.6599121,-0.06304932,0.85614014,1.609375,0.90625,1.421875,517
518,1696246718534,-0.67285156,-0.06768799,0.8143921,2.203125,2.78125,1.921875,518
519,1696246718574,-0.63378906,-0.022033691,0.8173218,1.328125,4.0625,2.421875,519
520,1696246718614,-0.63549805,-0.045715332,0.85443115,0.28125,3.0625,3.609375,520
521,1696246718654,-0.59033203,-0.09454346,0.79071045,2.0,8.578125,3.484375,521
522,1696246718694,-0.66967773,-0.05621338,0.95233154,1.515625,0.734375,2.59375,522
523,1696246718734,-0.73828125,-0.09625244,0.89959717,-1.390625,-2.53125,-2.59375,523
524,1696246718774,-0.6069336,-0.13018799,0.81121826,-4.5625,1.375,-2.3125,524
525,1696246718814,-0.6357422,-0.058410645,0.8480835,-5.203125,-1.296875,-3.3125,525
526,1696246718854,-0.6923828,-0.053771973,0.8607788,-3.109375,-3.734375,-3.703125,526
527,1696246718894,-0.66308594,-0.054504395,0.84783936,-3.125,-5.09375,-2.34375,527
528,1696246718934,-0.62939453,-0.073791504,0.85272217,-0.8125,-9.953125,-0.71875,528
529,1696246718974,-0.685791,-0.047424316,0.82806396,-1.09375,-7.734375,-0.734375,529
530,1696246719014,-0.65405273,-0.03717041,0.8173218,-2.0,-5.234375,-0.890625,530
531,1696246719054,-0.6647949,-0.055725098,0.8422241,-1.375,-5.109375,1.140625,531
532,1696246719094,-0.6953125,-0.058654785,0.8209839,-2.296875,-4.4375,0.5625,532
533,1696246719134,-0.70214844,-0.04888916,0.86712646,-1.5625,-1.390625,1.0,533
534,1696246719174,-0.6904297,-0.04522705,0.8121948,-3.9375,0.859375,0.875,534
535,1696246719214,-0.6916504,-0.018615723,0.8029175,-1.578125,1.578125,0.515625,535
536,1696246719254,-0.6928711,-0.03765869,0.791687,-2.140625,2.015625,0.078125,536
537,1696246719294,-0.65527344,-0.008850098,0.76898193,0.09375,0.015625,-0.3125,537
538,1696246719334,-0.64038086,-0.0044555664,0.79241943,3.890625,-1.125,-0.9375,538
539,1696246719374,-0.6435547,-0.047424316,0.76849365,8.921875,1.9375,3.015625,539
540,1696246719414,-0.7145996,-0.034973145,0.8551636,8.53125,-0.78125,2.78125,540
541,1696246719454,-0.6328125,-0.101135254,0.8029175,5.203125,3.875,0.765625,541
542,1696246719494,-0.6491699,-0.089416504,0.8500366,4.28125,4.25,-1.125,542
543,1696246719534,-0.67944336,-0.024230957,0.8602905,3.3125,9.59375,-2.234375,543
544,1696246719574,-0.60375977,-0.023742676,0.8759155,1.859375,3.515625,2.71875,544
545,1696246719614,-0.7155762,-0.09039307,0.84588623,3.4375,-1.078125,4.203125,545
546,1696246719654,-0.6750488,-0.12359619,0.85614014,2.859375,6.0625,2.75,546
547,1696246719694,-0.7097168,-0.08917236,0.9459839,1.375,-4.234375,0.671875,547
548,1696246719734,-0.6064453,-0.10870361,0.7423706,-1.78125,5.84375,-3.078125,548
549,1696246719774,-0.607666,-0.093566895,0.8825073,-0.890625,-1.0625,0.3125,549
550,1696246719814,-0.70703125,-0.09503174,0.8463745,-2.1875,-4.625,-1.140625,550
551,1696246719854,-0.62890625,-0.062561035,0.85150146,-0.859375,-2.375,-0.640625,551
552,1696246719894,-0.66625977,-0.08062744,0.8324585,0.015625,-3.0625,0.90625,552
553,1696246719934,-0.6538086,-0.07965088,0.85272217,0.34375,-0.828125,0.453125,553
554,1696246719974,-0.6530762,-0.06793213,0.81121826,-0.234375,0.171875,0.796875,554
555,1696246720014,-0.6557617,-0.07476807,0.8578491,1.390625,-0.421875,1.890625,555
556,1696246720054,-0.6418457,-0.082336426,0.81781006,0.234375,1.671875,1.640625,556
557,1696246720094,-0.62475586,-0.058166504,0.8307495,1.953125,3.6875,3.90625,557
558,1696246720134,-0.64941406,-0.10650635,0.8397827,-1.765625,0.8125,2.046875,558
559,1696246720174,-0.6335449,-0.08282471,0.826355,0.640625,1.328125,1.3125,559
560,1696246720214,-0.64624023,-0.04815674,0.8930054,0.796875,-0.625,1.34375,560
561,1696246720254,-0.7758789,-0.15582275,0.8161011,1.265625,-0.0625,0.65625,561
562,1696246720294,-0.56591797,-0.097717285,0.8629761,-3.5625,-0.625,-0.484375,562
563,1696246720334,-0.6394043,-0.093322754,0.8751831,-0.8125,1.125,0.875,563
564,1696246720374,-0.63378906,-0.08770752,0.8954468,-3.25,3.046875,-0.65625,564
565,1696246720414,-0.671875,-0.09576416,0.7875366,-2.09375,-1.546875,0.46875,565
566,1696246720454,-0.6154785,-0.08673096,0.87323,-1.625,-1.78125,-2.390625,566
567,1696246720494,-0.67407227,-0.11480713,0.88616943,-0.03125,-6.234375,-2.359375,567
568,1696246720534,-0.70410156,-0.09454346,0.8241577,-2.71875,-6.0625,-5.0625,568
569,1696246720574,-0.5944824,-0.038635254,0.8461304,-0.59375,-1.875,-2.109375,569
570,1696246720614,-0.67407227,-0.054260254,0.83807373,-0.265625,-2.140625,0.75,570
571,1696246720654,-0.6230469,-0.05328369,0.79022217,0.96875,0.390625,0.96875,571
572,1696246720694,-0.61938477,-0.020812988,0.8331909,1.515625,0.25,0.984375,572
573,1696246720734,-0.6569824,-0.07867432,0.81365967,2.828125,-0.171875,2.453125,573
574,1696246720774,-0.6262207,-0.07867432,0.8571167,0.078125,0.421875,1.828125,574
575,1696246720814,-0.66015625,-0.054748535,0.8082886,2.3125,2.625,2.0,575
576,1696246720854,-0.64282227,-0.12823486,0.8817749,0.421875,2.3125,3.625,576
577,1696246720894,-0.673584,-0.08258057,0.95233154,-2.546875,-1.359375,-0.9375,577
578,1696246720934,-0.64868164,-0.10772705,0.87542725,0.6875,-2.53125,-1.765625,578
579,1696246720974,-0.6591797,-0.097717285,0.8305054,-3.890625,-3.78125,-2.796875,579
580,1696246721014,-0.657959,-0.06915283,0.84368896,-5.40625,-6.9375,-6.25,580
581,1696246721054,-0.6726074,-0.06524658,0.8505249,-4.8125,-10.265625,-4.953125,581
582,1696246721094,-0.67993164,-0.059631348,0.82806396,-5.5625,-8.203125,-1.484375,582
583,1696246721134,-0.66381836,-0.015686035,0.81121826,-3.4375,-6.3125,0.5,583
584,1696246721174,-0.7312012,-0.031799316,0.80023193,-1.359375,-3.390625,0.984375,584
585,1696246721214,-0.6916504,-0.055480957,0.8414917,-0.703125,-0.421875,2.0,585
586,1696246721254,-0.66967773,-0.050354004,0.8348999,-0.265625,-0.109375,2.28125,586
587,1696246721294,-0.69555664,-0.047912598,0.83880615,-0.78125,1.515625,2.421875,587
588,1696246721334,-0.685791,-0.043273926,0.8109741,-1.828125,1.140625,1.8125,588
589,1696246721374,-0.6608887,-0.02935791,0.8004761,-1.65625,2.015625,0.890625,589
590,1696246721414,-0.6657715,-0.04522705,0.81365967,-1.203125,0.625,1.25,590
591,1696246721454,-0.6665039,-0.02935791,0.7982788,-1.375,0.359375,0.59375,591
592,1696246721494,-0.66430664,-0.012512207,0.7460327,2.515625,0.21875,-0.203125,592
593,1696246721534,-0.6464844,0.016052246,0.7938843,4.015625,1.40625,0.0,593
594,1696246721574,-0.6977539,-0.04425049,0.7543335,12.453125,-0.8125,2.578125,594
595,1696246721614,-0.64208984,-0.1182251,0.8480835,4.6875,0.4375,0.9375,595
596,1696246721654,-0.6286621,-0.09259033,0.8102417,3.75,4.15625,0.234375,596
597,1696246721694,-0.7077637,-0.05206299,0.8722534,7.53125,2.8125,1.390625,597
598,1696246721734,-0.6230469,-0.097473145,0.83636475,-0.9375,8.359375,0.75,598
599,1696246721774,-0.6882324,-0.058166504,0.8786011,7.28125,2.4375,3.09375,599
600,1696246721814,-0.6772461,-0.13214111,0.8241577,1.984375,3.0,3.0625,600
601,1696246721854,-0.66259766,-0.08355713,0.90374756,1.453125,2.421875,2.515625,601
602,1696246721894,-0.66674805,-0.14190674,0.8744507,2.015625,-3.03125,1.765625,602
603,1696246721934,-0.61572266,-0.10992432,0.8307495,-1.96875,1.0625,-1.421875,603
604,1696246721974,-0.6748047,-0.058410645,0.86346436,-2.265625,3.25,-1.546875,604
605,1696246722014,-0.6376953,-0.11016846,0.87615967,0.90625,-2.78125,1.953125,605
606,1696246722054,-0.64038086,-0.11773682,0.8397827,-2.828125,0.0625,-1.546875,606
607,1696246722094,-0.6394043,-0.10479736,0.8607788,-5.15625,-3.703125,-2.703125,607
608,1696246722134,-0.67578125,-0.07354736,0.83929443,-2.203125,-4.109375,-2.09375,608
609,1696246722174,-0.6357422,-0.08673096,0.82684326,-1.828125,-1.09375,0.703125,609
610,1696246722214,-0.657959,-0.066711426,0.8529663,0.90625,-0.875,0.265625,610
611,1696246722254,-0.6699219,-0.074523926,0.8126831,1.1875,-0.359375,0.171875,611
612,1696246722294,-0.63793945,-0.07647705,0.84906006,0.609375,1.15625,0.21875,612
613,1696246722334,-0.66064453,-0.06964111,0.80682373,1.09375,-0.296875,0.984375,613
614,1696246722374,-0.61694336,-0.085754395,0.8473511,-0.1875,0.703125,1.03125,614
615,1696246722414,-0.6555176,-0.058898926,0.8139038,-0.34375,2.265625,0.765625,615
616,1696246722454,-0.6320801,-0.12017822,0.87493896,1.578125,0.296875,4.390625,616
617,1696246722494,-0.61938477,-0.0791626,0.8197632,-1.484375,4.515625,1.21875,617
618,1696246722534,-0.6401367,-0.055725098,0.93743896,0.1875,2.265625,1.234375,618
619,1696246722574,-0.654541,-0.13409424,0.826355,2.6875,-0.640625,1.671875,619
620,1696246722614,-0.66625977,-0.13653564,0.88934326,1.5625,0.21875,0.109375,620
621,1696246722654,-0.6159668,-0.10089111,0.85076904,-2.15625,0.296875,-2.421875,621
622,1696246722694,-0.6591797,-0.0791626,0.85076904,-2.71875,-1.140625,-1.71875,622
623,1696246722734,-0.6604004,-0.07501221,0.86468506,0.109375,-0.875,-0.65625,623
624,1696246722774,-0.59350586,-0.09942627,0.82806396,-0.890625,-0.703125,-0.234375,624
625,1696246722814,-0.63378906,-0.062072754,0.8512573,0.25,-1.578125,0.078125,625
626,1696246722854,-0.6555176,-0.08135986,0.84954834,0.765625,-0.234375,0.65625,626
627,1696246722894,-0.6125488,-0.08013916,0.85272217,-0.328125,0.203125,0.515625,627
628,1696246722934,-0.6254883,-0.093811035,0.84783936,0.125,-0.671875,0.828125,628
629,1696246722974,-0.64868164,-0.10455322,0.8356323,0.84375,0.828125,0.6875,629
630,1696246723014,-0.59350586,-0.06085205,0.8707886,-0.484375,3.21875,1.515625,630
631,1696246723054,-0.71533203,-0.10308838,0.84539795,0.90625,-2.671875,1.25,631
632,1696246723094,-0.5822754,-0.13238525,0.8825073,-1.015625,1.890625,0.671875,632
633,1696246723134,-0.62280273,-0.06085205,0.84539795,-1.265625,0.453125,-1.828125,633
634,1696246723174,-0.6525879,-0.09942627,0.87420654,-1.140625,-2.9375,-0.453125,634
635,1696246723214,-0.6452637,-0.11016846,0.8847046,-3.90625,-3.8125,-2.84375,635
636,1696246723254,-0.64697266,-0.08111572,0.90057373,-4.921875,-8.21875,-2.21875,636
637,1696246723294,-0.69921875,-0.08721924,0.8654175,-5.671875,-9.421875,-0.15625,637
638,1696246723334,-0.6296387,-0.054260254,0.80511475,-7.0625,-3.484375,-0.953125,638
639,1696246723374,-0.62890625,-0.042053223,0.83465576,-3.546875,-3.046875,0.234375,639
640,1696246723414,-0.6779785,-0.057678223,0.8226929,-1.03125,-4.03125,0.59375,640
641,1696246723454,-0.6760254,-0.039123535,0.8312378,-1.203125,-2.65625,-0.125,641
642,1696246723494,-0.6750488,-0.045959473,0.8317261,-0.890625,-2.078125,0.828125,642
643,1696246723534,-0.6862793,-0.066467285,0.81707764,-2.8125,-0.390625,1.234375,643
644,1696246723574,-0.6320801,-0.03765869,0.80145264,-1.609375,-0.703125,-0.078125,644
645,1696246723614,-0.6867676,-0.030822754,0.78900146,1.609375,-0.984375,-0.765625,645
646,1696246723654,-0.6254883,-0.04083252,0.7826538,3.390625,1.171875,0.671875,646
647,1696246723694,-0.6291504,-0.029846191,0.8317261,8.8125,-0.390625,1.484375,647
648,1696246723734,-0.68359375,-0.054016113,0.8654175,6.8125,-0.828125,1.890625,648
649,1696246723774,-0.65185547,-0.1104126,0.81903076,3.515625,-1.65625,-0.46875,649
650,1696246723814,-0.6516113,-0.06451416,0.8036499,5.203125,-2.4375,0.515625,650
651,1696246723854,-0.66552734,-0.05206299,0.8300171,3.15625,-0.5,-0.390625,651
652,1696246723894,-0.7043457,-0.085510254,0.8278198,0.84375,0.734375,-0.15625,652
653,1696246723934,-0.6921387,-0.04156494,0.821228,-5.296875,5.6875,-2.484375,653
654,1696246723974,-0.6464844,-0.090148926,0.83587646,-1.953125,3.1875,-2.1875,654
655,1696246724014,-0.6218262,-0.08282471,0.8890991,-0.21875,4.1875,-1.21875,655
656,1696246724054,-0.71606445,-0.12188721,0.85076904,3.46875,-3.46875,2.28125,656
657,1696246724094,-0.63427734,-0.09234619,0.84198,-1.234375,2.625,-1.125,657
658,1696246724134,-0.61450195,-0.070617676,0.8554077,-2.203125,0.359375,0.84375,658
659,1696246724174,-0.6875,-0.04864502,0.8265991,-0.6875,0.078125,0.140625,659
660,1696246724214,-0.6413574,-0.0635376,0.8410034,0.578125,0.765625,1.78125,660
661,1696246724254,-0.6816406,-0.06890869,0.8488159,1.0,0.21875,1.03125,661
662,1696246724294,-0.6513672,-0.0647583,0.84198,0.90625,1.21875,1.078125,662
663,1696246724334,-0.61694336,-0.06011963,0.7848511,0.46875,3.203125,1.4375,663
664,1696246724374,-0.62060547,-0.08746338,0.82366943,2.3125,3.265625,3.734375,664
665,1696246724414,-0.62768555,-0.07574463,0.84954834,1.453125,1.0625,4.125,665
666,1696246724454,-0.609375,-0.10333252,0.8078003,-0.03125,5.0625,1.09375,666
667,1696246724494,-0.6467285,-0.07525635,0.85272217,0.9375,1.75,3.515625,667
668,1696246724534,-0.6296387,-0.07305908,0.8378296,-2.34375,-1.5625,0.34375,668
669,1696246724574,-0.6225586,-0.11187744,0.947937,0.203125,-0.78125,0.078125,669
670,1696246724614,-0.67822266,-0.085510254,0.8344116,0.203125,-0.84375,0.0625,670
671,1696246724654,-0.6242676,-0.086242676,0.85369873,-0.9375,1.09375,0.484375,671
672,1696246724694,-0.6538086,-0.09698486,0.8512573,-0.046875,0.921875,0.078125,672
673,1696246724734,-0.6057129,-0.08282471,0.86883545,-1.78125,-0.625,-0.203125,673
674,1696246724774,-0.6069336,-0.093322754,0.87005615,-0.40625,0.375,0.15625,674
675,1696246724814,-0.63134766,-0.082336426,0.8324585,-1.03125,-1.6875,0.828125,675
676,1696246724854,-0.61450195,-0.053527832,0.8876343,-0.578125,2.265625,-0.828125,676
677,1696246724894,-0.66186523,-0.12359619,0.8817749,1.25,-1.9375,0.46875,677
678,1696246724934,-0.6374512,-0.109436035,0.8805542,-0.734375,-3.53125,-1.96875,678
679,1696246724974,-0.6640625,-0.105285645,0.90130615,-3.078125,-7.171875,-4.828125,679
680,1696246725014,-0.62109375,-0.066711426,0.8607788,-3.734375,-8.390625,-5.640625,680
681,1696246725054,-0.67211914,-0.074035645,0.84173584,-4.578125,-10.890625,-3.296875,681
682,1696246725094,-0.6804199,-0.07183838,0.82025146,-4.453125,-8.125,-1.546875,682
683,1696246725134,-0.63427734,-0.042541504,0.795105,-1.921875,-3.03125,0.625,683
684,1696246725174,-0.6867676,-0.06304932,0.83758545,-0.65625,-1.21875,1.921875,684
685,1696246725214,-0.69873047,-0.08380127,0.8383179,-1.9375,1.625,2.75,685
686,1696246725254,-0.6623535,-0.058654785,0.8275757,-3.0,1.4375,1.140625,686
687,1696246725294,-0.63256836,-0.026916504,0.82440186,-3.1875,1.3125,0.390625,687
688,1696246725334,-0.6555176,-0.042785645,0.8344116,-2.53125,1.46875,1.0625,688
689,1696246725374,-0.64746094,-0.054260254,0.83709717,-2.25,1.828125,0.984375,689
690,1696246725414,-0.67529297,-0.046936035,0.8529663,-1.203125,0.328125,1.15625,690
691,1696246725454,-0.66503906,-0.05230713,0.8444214,-1.171875,0.03125,0.546875,691
692,1696246725494,-0.6516113,-0.053771973,0.82440186,-1.625,0.078125,0.0625,692
693,1696246725534,-0.6621094,-0.042297363,0.8456421,-0.40625,-0.015625,-0.171875,693
694,1696246725574,-0.6645508,-0.046936035,0.822937,-0.96875,0.234375,-0.984375,694
695,1696246725614,-0.6687012,-0.023742676,0.8319702,-0.421875,-0.765625,-1.25,695
696,1696246725654,-0.6538086,-0.031066895,0.8270874,-0.875,0.203125,-1.28125,696
697,1696246725694,-0.65478516,-0.0056762695,0.78460693,2.171875,-2.90625,-0.640625,697
698,1696246725734,-0.6291504,0.018249512,0.70428467,8.390625,-4.078125,2.0,698
699,1696246725774,-0.6489258,-0.012756348,0.81951904,18.5625,-6.734375,4.65625,699
700,1696246725814,-0.7128906,-0.1482544,0.87835693,10.875,-3.765625,5.109375,700
701,1696246725854,-0.59350586,-0.13433838,0.82733154,5.375,0.65625,0.109375,701
702,1696246725894,-0.65966797,-0.06524658,0.86346436,3.28125,0.203125,0.109375,702
703,1696246725934,-0.7211914,-0.061340332,0.8283081,1.53125,-2.75,1.078125,703
704,1696246725974,-0.6604004,-0.085754395,0.82684326,1.078125,-0.8125,0.359375,704
705,1696246726014,-0.67578125,-0.12994385,0.8336792,0.40625,-1.03125,1.25,705
706,1696246726054,-0.6965332,-0.11895752,0.8329468,0.484375,-0.953125,-0.15625,706
707,1696246726094,-0.67529297,-0.11627197,0.81658936,-0.8125,-0.953125,-0.0625,707
708,1696246726134,-0.67456055,-0.09698486,0.8283081,0.703125,-1.171875,0.90625,708
709,1696246726174,-0.685791,-0.120910645,0.8151245,-0.34375,-0.390625,0.015625,709
710,1696246726214,-0.6623535,-0.10455322,0.8329468,-3.390625,1.171875,-0.78125,710
711,1696246726254,-0.71850586,-0.06549072,0.826355,-0.5,-1.4375,0.5,711
712,1696246726294,-0.7084961,-0.0947876,0.83148193,0.125,0.625,-0.96875,712
713,1696246726334,-0.6977539,-0.11602783,0.84246826,0.328125,0.078125,-0.625,713
714,1696246726374,-0.6586914,-0.11846924,0.81658936,0.03125,-0.796875,-1.171875,714
715,1696246726414,-0.64819336,-0.10699463,0.8175659,-0.765625,-2.25,-0.59375,715
716,1696246726454,-0.66625977,-0.0881958,0.8134155,-0.6875,-3.6875,-1.3125,716
717,1696246726494,-0.6887207,-0.08331299,0.82318115,-1.390625,-3.765625,-1.15625,717
718,1696246726534,-0.6958008,-0.06964111,0.8341675,-1.734375,-3.90625,-0.5625,718
719,1696246726574,-0.6999512,-0.08770752,0.8148804,-1.984375,-3.046875,-0.6875,719
720,1696246726614,-0.6953125,-0.07867432,0.7802124,0.4375,-0.875,0.203125,720
721,1696246726654,-0.6843262,-0.07110596,0.80145264,0.0625,0.453125,0.234375,721
722,1696246726694,-0.7055664,-0.07720947,0.8036499,2.9375,0.40625,0.859375,722
723,1696246726734,-0.6789551,-0.07281494,0.78533936,3.671875,2.125,0.90625,723
724,1696246726774,-0.6557617,-0.08135986,0.7975464,1.453125,1.921875,1.078125,724
725,1696246726814,-0.6748047,-0.1116333,0.8097534,-0.546875,-0.140625,1.625,725
726,1696246726854,-0.65625,-0.06793213,0.7687378,-2.46875,5.0625,-0.640625,726
727,1696246726894,-0.6335449,-0.003479004,0.90423584,-0.984375,5.046875,1.75,727
728,1696246726934,-0.7470703,-0.14361572,0.8798218,0.4375,-1.4375,3.3125,728
729,1696246726974,-0.69970703,-0.15875244,0.854187,-3.25,1.4375,-2.40625,729
730,1696246727014,-0.6298828,-0.09527588,0.85150146,-8.984375,-1.046875,-5.265625,730
731,1696246727054,-0.72680664,-0.034240723,0.776062,-4.625,-6.09375,-3.515625,731
732,1696246727094,-0.7077637,-0.078186035,0.793396,-0.203125,2.9375,-0.578125,732
733,1696246727134,-0.64868164,-0.04522705,0.79241943,1.828125,1.296875,1.140625,733
734,1696246727174,-0.70996094,-0.05718994,0.79803467,3.28125,4.46875,2.5625,734
735,1696246727214,-0.6022949,-0.07965088,0.8148804,-2.09375,16.609375,5.484375,735
736,1696246727254,-0.49072266,0.024108887,1.0582886,4.171875,4.421875,5.3125,736
737,1696246727294,-0.8063965,-0.15435791,0.8751831,2.53125,0.765625,4.296875,737
738,1696246727334,-0.6875,-0.17071533,0.9515991,-3.203125,0.953125,-0.0625,738
739,1696246727374,-0.6633301,-0.11114502,0.90789795,-4.109375,-5.203125,-2.234375,739
740,1696246727414,-0.7055664,-0.046936035,0.81658936,-5.171875,-8.25,-6.015625,740
741,1696246727454,-0.72143555,-0.07159424,0.81414795,0.109375,-0.546875,-4.453125,741
742,1696246727494,-0.54345703,-0.024963379,0.71209717,-3.59375,8.046875,0.75,742
743,1696246727534,-0.5444336,-0.00079345703,0.8217163,2.890625,4.375,2.984375,743
744,1696246727574,-0.6633301,-0.058654785,0.88739014,5.28125,0.109375,2.203125,744
745,1696246727614,-0.6611328,-0.18121338,0.87005615,0.171875,-3.75,3.109375,745
746,1696246727654,-0.6347656,-0.09576416,0.86517334,-0.375,-5.65625,-3.359375,746
747,1696246727694,-0.736084,-0.0413208,0.8510132,0.171875,-1.421875,-0.53125,747
748,1696246727734,-0.6801758,-0.062805176,0.8539429,-1.140625,0.0625,-1.265625,748
749,1696246727774,-0.6291504,-0.085510254,0.8317261,-1.34375,2.09375,-0.21875,749
750,1696246727814,-0.6218262,-0.039367676,0.84051514,-3.625,3.296875,0.515625,750
751,1696246727854,-0.59814453,-0.059387207,0.8759155,2.25,7.703125,5.109375,751
752,1696246727894,-0.71655273,-0.128479,0.9935913,3.34375,-5.484375,3.75,752
753,1696246727934,-0.6936035,-0.13165283,0.8690796,0.015625,-2.25,-1.171875,753
754,1696246727974,-0.64208984,-0.08892822,0.8768921,-4.1875,-6.65625,-5.125,754
755,1696246728014,-0.6479492,-0.08770752,0.82196045,-5.46875,-7.796875,-8.015625,755
756,1696246728054,-0.67822266,-0.039367676,0.78900146,-4.53125,-2.0,-2.078125,756
757,1696246728094,-0.6791992,-0.016662598,0.7946167,-2.328125,0.90625,-1.546875,757
758,1696246728134,-0.6555176,-0.02545166,0.7394409,-1.1875,5.890625,2.875,758
759,1696246728174,-0.51586914,0.030212402,0.868103,1.9375,12.1875,6.84375,759
