# Sensor type: Respeck
# Activity type: Lying down back
# Activity subtype: Normal
# Subject id: s2104454
# Notes: unprocessed
timestamp,accel_x,accel_y,accel_z,gyro_x,gyro_y,gyro_z
1696243003796,-0.74731445,-0.04107666,0.732605,-0.34375,-0.21875,-0.5625
1696243003836,-0.7375488,-0.047912598,0.7160034,-0.265625,-0.4375,-0.21875
1696243003875,-0.7451172,-0.042785645,0.7128296,0.125,-0.546875,0.40625
1696243003916,-0.75219727,-0.054260254,0.71624756,-0.09375,0.53125,0.78125
1696243003957,-0.7692871,-0.053771973,0.7484741,1.0625,-1.03125,1.21875
1696243003997,-0.77734375,-0.0491333,0.7445679,0.21875,0.375,0.578125
1696243004055,-0.8046875,-0.07476807,0.76483154,1.34375,-0.765625,0.9375
1696243004076,-0.7753906,-0.05645752,0.74505615,0.0,-0.0625,0.203125
1696243004136,-0.76464844,-0.049621582,0.7304077,0.15625,0.140625,-0.109375
1696243004156,-0.751709,-0.051330566,0.72528076,0.390625,-0.078125,0.109375
1696243004217,-0.73706055,-0.054992676,0.71868896,0.328125,-0.453125,0.578125
1696243004255,-0.75634766,-0.061828613,0.73651123,0.796875,-0.875,0.765625
1696243004274,-0.7636719,-0.054016113,0.73724365,0.328125,-0.25,1.015625
1696243004316,-0.7770996,-0.06817627,0.7567749,0.625,-0.375,1.0625
1696243004357,-0.7878418,-0.05987549,0.7460327,0.046875,-0.609375,0.671875
1696243004398,-0.7770996,-0.049621582,0.7418823,-0.125,-0.421875,0.078125
1696243004459,-0.77197266,-0.05328369,0.72943115,0.09375,-0.046875,0.078125
1696243004464,-0.7492676,-0.058166504,0.730896,0.25,-0.140625,0.015625
1696243004496,-0.7480469,-0.059387207,0.72991943,0.15625,-0.1875,0.3125
1696243004578,-0.7624512,-0.06695557,0.7514038,0.890625,-0.515625,0.5625
1696243004582,-0.76342773,-0.06109619,0.74993896,0.125,-0.28125,0.3125
1696243004616,-0.76782227,-0.066467285,0.72650146,-0.984375,0.21875,0.421875
1696243004656,-0.78027344,-0.058898926,0.76239014,0.359375,-0.5625,0.203125
1696243004697,-0.77368164,-0.07525635,0.74920654,-0.296875,-0.21875,0.25
1696243004738,-0.75805664,-0.051086426,0.732605,-0.75,-0.578125,-0.328125
1696243004777,-0.7595215,-0.044006348,0.7230835,-0.453125,-0.75,-0.21875
1696243004818,-0.77197266,-0.054992676,0.73773193,-0.515625,-0.15625,0.03125
1696243004859,-0.7714844,-0.05718994,0.73773193,-0.890625,-0.046875,0.125
1696243004895,-0.7631836,-0.06036377,0.73968506,-1.109375,0.109375,-0.03125
1696243004936,-0.76049805,-0.055725098,0.7514038,-0.71875,0.171875,-0.390625
1696243004977,-0.75683594,-0.0635376,0.7514038,-0.796875,-0.265625,-0.1875
1696243005016,-0.74609375,-0.0491333,0.74090576,-1.03125,-1.0625,-0.1875
1696243005056,-0.76342773,-0.04498291,0.73651123,-0.875,-1.09375,-0.046875
1696243005096,-0.7727051,-0.04937744,0.73553467,-1.15625,-0.90625,0.03125
1696243005137,-0.7746582,-0.045715332,0.7399292,-1.078125,-0.59375,-0.03125
1696243005177,-0.77783203,-0.050354004,0.73773193,-0.796875,-0.234375,-0.03125
1696243005237,-0.7702637,-0.055725098,0.7387085,-0.90625,-0.578125,0.015625
1696243005256,-0.76171875,-0.042297363,0.75823975,-1.09375,-0.828125,-0.515625
1696243005337,-0.7583008,-0.03668213,0.7196655,-1.265625,0.015625,-0.4375
1696243005341,-0.7753906,-0.05279541,0.7601929,0.171875,-0.6875,0.0
1696243005375,-0.7512207,-0.042541504,0.73724365,-1.28125,-0.421875,-0.15625
1696243005417,-0.7553711,-0.035949707,0.7379761,-0.96875,-0.375,-0.46875
1696243005456,-0.76342773,-0.04156494,0.74871826,-0.515625,-0.46875,-0.046875
1696243005496,-0.7609863,-0.042297363,0.73724365,-0.921875,-0.578125,-0.09375
1696243005535,-0.7661133,-0.035705566,0.7506714,-0.5,-0.765625,-0.046875
1696243005576,-0.76171875,-0.030334473,0.73553467,-1.28125,-0.234375,-0.25
1696243005616,-0.76538086,-0.03375244,0.7435913,-0.59375,-0.59375,-0.1875
1696243005657,-0.76660156,-0.038879395,0.73651123,-0.65625,-0.734375,-0.046875
1696243005719,-0.767334,-0.0335083,0.75213623,-0.453125,-0.640625,-0.265625
1696243005736,-0.76782227,-0.028137207,0.73968506,-0.609375,-0.328125,-0.203125
1696243005777,-0.7626953,-0.028381348,0.74627686,-0.703125,-0.5625,-0.21875
1696243005817,-0.76586914,-0.035705566,0.7518921,-0.484375,-0.78125,0.09375
1696243005836,-0.76538086,-0.02911377,0.7379761,-0.71875,-0.640625,-0.078125
1696243005877,-0.7734375,-0.03717041,0.7367554,-0.53125,-1.078125,0.171875
1696243005918,-0.77001953,-0.020812988,0.7650757,-0.4375,-1.109375,-0.140625
1696243005958,-0.765625,-0.023254395,0.7250366,-0.90625,0.40625,-0.1875
1696243005999,-0.7741699,-0.03717041,0.7626343,0.453125,-0.78125,0.375
1696243006038,-0.7504883,-0.02960205,0.73651123,-0.890625,-0.53125,-0.125
1696243006076,-0.7636719,-0.01373291,0.7387085,-0.578125,-0.71875,-0.34375
1696243006138,-0.76660156,-0.016418457,0.7453003,-0.21875,-0.625,0.0625
1696243006156,-0.76586914,-0.019836426,0.73358154,0.09375,-0.9375,0.359375
1696243006197,-0.7746582,-0.021057129,0.7518921,0.796875,-1.515625,0.40625
1696243006237,-0.7624512,-0.024963379,0.7304077,0.078125,-0.65625,0.375
1696243006275,-0.76831055,-0.028869629,0.7423706,0.640625,-0.984375,0.53125
1696243006317,-0.763916,-0.03253174,0.73724365,0.734375,-0.875,0.640625
1696243006359,-0.76953125,-0.021057129,0.7435913,1.109375,-0.8125,0.65625
1696243006397,-0.76904297,-0.032287598,0.74432373,0.65625,-0.34375,0.96875
1696243006439,-0.75927734,-0.02154541,0.7394409,0.53125,-0.75,0.78125
1696243006477,-0.7729492,-0.027160645,0.73724365,0.5625,-1.03125,0.953125
1696243006540,-0.76538086,-0.033996582,0.73553467,0.59375,-0.921875,0.8125
1696243006576,-0.77001953,-0.043762207,0.74017334,0.25,0.078125,0.6875
1696243006595,-0.7685547,-0.03326416,0.7367554,0.640625,-0.796875,0.765625
1696243006638,-0.7631836,-0.024230957,0.7255249,0.34375,0.4375,-0.0625
1696243006720,-0.7819824,-0.046447754,0.7506714,1.515625,-0.84375,0.921875
1696243006724,-0.76220703,-0.04034424,0.73724365,0.53125,-0.0625,0.53125
1696243006758,-0.7709961,-0.032287598,0.73895264,0.546875,-0.484375,0.5
1696243006796,-0.767334,-0.035705566,0.7435913,0.71875,-0.421875,0.859375
1696243006835,-0.7663574,-0.041809082,0.7338257,0.453125,-0.796875,0.8125
1696243006876,-0.76782227,-0.046203613,0.7369995,0.484375,-0.875,0.546875
1696243006916,-0.7573242,-0.036193848,0.7211304,-0.109375,0.03125,0.1875
1696243006957,-0.77319336,-0.045959473,0.7411499,0.71875,-0.375,0.453125
1696243006996,-0.7727051,-0.046203613,0.7338257,0.328125,-0.546875,0.53125
1696243007036,-0.77246094,-0.042053223,0.7428589,0.578125,-0.484375,0.53125
1696243007098,-0.77319336,-0.043518066,0.73358154,0.453125,-0.171875,0.5625
1696243007117,-0.7619629,-0.042297363,0.7374878,0.65625,-0.53125,0.5625
1696243007136,-0.77246094,-0.043518066,0.73602295,0.5625,-0.578125,0.5625
1696243007177,-0.7590332,-0.047424316,0.73309326,0.15625,-0.171875,0.515625
1696243007217,-0.7766113,-0.054260254,0.7391968,0.625,-0.25,0.65625
1696243007257,-0.76904297,-0.033996582,0.75775146,0.671875,-0.890625,0.515625
1696243007296,-0.75390625,-0.04058838,0.71502686,-0.3125,0.296875,0.59375
1696243007336,-0.7763672,-0.06036377,0.75164795,1.4375,-0.890625,0.59375
1696243007376,-0.7687988,-0.058410645,0.73773193,0.34375,-0.25,0.53125
1696243007416,-0.7675781,-0.043518066,0.7387085,0.21875,-0.4375,0.21875
1696243007458,-0.7687988,-0.04058838,0.7338257,0.65625,-0.515625,0.453125
1696243007497,-0.77124023,-0.054504395,0.73602295,0.5625,-0.125,0.75
1696243007539,-0.76293945,-0.054504395,0.7509155,0.828125,-0.3125,0.75
1696243007577,-0.7595215,-0.055725098,0.73480225,-0.078125,0.015625,0.1875
1696243007618,-0.75634766,-0.058654785,0.74627686,0.40625,0.1875,0.34375
1696243007658,-0.765625,-0.058410645,0.7472534,0.296875,-0.515625,0.484375
1696243007702,-0.76538086,-0.05645752,0.7453003,0.03125,-0.71875,0.53125
1696243007737,-0.77197266,-0.054748535,0.73114014,0.234375,-0.78125,0.625
1696243007799,-0.7680664,-0.05621338,0.7379761,0.078125,-0.375,0.21875
1696243007815,-0.77563477,-0.058410645,0.73651123,0.203125,-0.265625,0.4375
1696243007860,-0.7675781,-0.06719971,0.73602295,-0.203125,0.0625,0.0625
1696243007899,-0.76049805,-0.06085205,0.7523804,-0.21875,0.203125,0.0625
1696243007937,-0.76586914,-0.05303955,0.7445679,-0.6875,-0.21875,-0.03125
1696243007976,-0.75439453,-0.05596924,0.73114014,-1.546875,0.25,-0.296875
1696243008018,-0.7561035,-0.05621338,0.7399292,-0.671875,-0.78125,-0.21875
1696243008057,-0.76220703,-0.046447754,0.74823,-0.515625,-0.390625,-0.46875
1696243008097,-0.77856445,-0.06793213,0.74017334,-0.453125,-0.8125,-0.03125
1696243008135,-0.76123047,-0.050354004,0.7321167,-1.28125,-0.453125,-0.484375
1696243008177,-0.7661133,-0.038879395,0.73895264,-0.671875,-0.1875,-0.3125
1696243008218,-0.7626953,-0.042541504,0.7460327,-0.5625,-0.25,0.140625
1696243008257,-0.75512695,-0.051330566,0.7416382,-0.53125,-0.53125,0.21875
1696243008298,-0.7619629,-0.06304932,0.73846436,-0.828125,-0.75,-0.109375
1696243008337,-0.7558594,-0.043273926,0.74554443,-0.90625,-0.5,-0.546875
1696243008401,-0.77124023,-0.050842285,0.7416382,-1.171875,-0.8125,-0.1875
1696243008416,-0.767334,-0.043518066,0.7340698,-1.578125,-0.703125,-0.25
1696243008437,-0.7709961,-0.037902832,0.73895264,-0.921875,-0.75,-0.421875
1696243008519,-0.7651367,-0.031311035,0.7394409,-0.828125,-0.546875,-0.390625
1696243008524,-0.765625,-0.039611816,0.74090576,-0.75,-0.65625,-0.1875
1696243008559,-0.7675781,-0.041809082,0.7445679,-0.6875,-0.34375,-0.140625
1696243008597,-0.7685547,-0.043518066,0.7457886,-0.828125,-0.46875,-0.390625
1696243008660,-0.76464844,-0.037902832,0.73724365,-0.78125,-0.578125,-0.390625
1696243008676,-0.7648926,-0.038391113,0.73431396,-0.625,-0.8125,-0.140625
1696243008736,-0.76342773,-0.018615723,0.7662964,-0.296875,-0.859375,-0.203125
1696243008756,-0.7541504,-0.02960205,0.727478,-0.796875,0.28125,-0.25
1696243008798,-0.7832031,-0.045959473,0.76361084,0.234375,-0.609375,0.09375
1696243008836,-0.7619629,-0.035217285,0.7453003,-1.203125,-0.484375,-0.328125
1696243008877,-0.7717285,-0.02130127,0.74383545,-0.78125,-0.515625,-0.375
1696243008916,-0.7763672,-0.028625488,0.7379761,-0.71875,-0.296875,0.171875
1696243008957,-0.7536621,-0.024230957,0.73431396,-0.71875,-0.375,0.0
1696243008997,-0.7631836,-0.031555176,0.7501831,0.109375,-1.125,0.0
1696243009037,-0.75439453,-0.031066895,0.73114014,-0.921875,-0.4375,-0.296875
1696243009077,-0.7739258,-0.027404785,0.7453003,-0.546875,-0.59375,-0.234375
1696243009117,-0.77197266,-0.02520752,0.7428589,-0.6875,-0.671875,-0.171875
1696243009180,-0.7751465,-0.016174316,0.7526245,-0.4375,-0.5625,-0.078125
1696243009216,-0.75634766,-0.017150879,0.7394409,-0.75,-0.546875,-0.15625
1696243009236,-0.7597656,-0.018371582,0.73602295,-0.53125,-0.859375,0.0625
1696243009278,-0.763916,-0.022766113,0.73602295,-0.1875,-0.859375,0.109375
1696243009318,-0.76904297,-0.01763916,0.7391968,0.015625,-0.859375,-0.03125
1696243009358,-0.7741699,-0.023498535,0.73431396,0.09375,-1.0625,0.34375
1696243009421,-0.7727051,-0.015930176,0.73431396,0.65625,-1.265625,0.578125
1696243009435,-0.7697754,-0.005432129,0.76068115,0.796875,-0.734375,0.484375
1696243009477,-0.7553711,-0.011047363,0.7211304,0.0625,0.265625,0.5
1696243009537,-0.77783203,-0.03375244,0.75946045,1.1875,-1.09375,0.65625
1696243009577,-0.75341797,-0.02545166,0.7255249,0.578125,-1.109375,0.4375
1696243009596,-0.76953125,-0.016174316,0.7445679,1.34375,-1.21875,0.640625
1696243009637,-0.7746582,-0.028869629,0.7423706,1.421875,-1.09375,1.234375
1696243009699,-0.765625,-0.02911377,0.73187256,1.0625,-0.84375,1.25
1696243009716,-0.7727051,-0.031555176,0.7453003,1.34375,-1.1875,0.921875
1696243009736,-0.76953125,-0.031799316,0.73065186,0.765625,-0.53125,0.78125
1696243009778,-0.76782227,-0.032287598,0.74627686,1.0625,-0.203125,0.53125
1696243009816,-0.7702637,-0.04058838,0.7406616,1.171875,-0.375,0.875
1696243009858,-0.7722168,-0.031311035,0.7362671,1.0,-0.734375,0.625
1696243009897,-0.7714844,-0.04156494,0.73431396,0.84375,-0.875,0.640625
1696243009937,-0.7651367,-0.039123535,0.7352905,0.40625,-0.34375,0.640625
1696243009976,-0.76953125,-0.039367676,0.729187,0.453125,-0.765625,0.859375
1696243010019,-0.77124023,-0.04034424,0.73431396,0.90625,-0.5625,0.65625
1696243010057,-0.77441406,-0.04425049,0.7289429,0.578125,-0.234375,0.5
1696243010099,-0.7751465,-0.041809082,0.7394409,1.0625,-0.3125,0.625
1696243010137,-0.7648926,-0.038391113,0.7304077,0.265625,0.5,0.59375
1696243010177,-0.76464844,-0.04547119,0.74017334,0.921875,-0.546875,0.90625
1696243010219,-0.75219727,-0.033996582,0.7328491,0.296875,0.203125,0.21875
1696243010257,-0.7763672,-0.05987549,0.74383545,1.15625,-0.984375,0.8125
1696243010297,-0.76342773,-0.054504395,0.73358154,0.328125,-0.328125,0.59375
1696243010357,-0.7751465,-0.04058838,0.73480225,0.453125,-0.4375,0.40625
1696243010376,-0.7687988,-0.050842285,0.7411499,0.875,-0.390625,0.734375
1696243010417,-0.7614746,-0.054260254,0.7267456,0.609375,-0.328125,0.671875
1696243010457,-0.77001953,-0.062805176,0.7362671,0.640625,-0.5,0.59375
1696243010497,-0.7714844,-0.047180176,0.7284546,-0.046875,-0.21875,0.296875
1696243010537,-0.7692871,-0.047912598,0.74212646,0.640625,-0.140625,0.375
1696243010577,-0.7648926,-0.06036377,0.7435913,0.484375,-0.34375,0.703125
1696243010617,-0.76049805,-0.049621582,0.7362671,0.328125,-0.59375,0.53125
1696243010657,-0.76904297,-0.051574707,0.7399292,0.453125,-0.359375,0.421875
1696243010698,-0.7663574,-0.05206299,0.7382202,0.421875,-0.359375,0.359375
1696243010739,-0.77001953,-0.054748535,0.74017334,0.484375,-0.359375,0.546875
1696243010778,-0.7687988,-0.058654785,0.7338257,0.140625,-0.25,0.5625
1696243010816,-0.76904297,-0.051574707,0.73431396,0.21875,-0.125,0.40625
1696243010857,-0.7675781,-0.057678223,0.7328491,0.359375,-0.265625,0.484375
1696243010897,-0.76782227,-0.055480957,0.73846436,0.375,-0.25,0.625
1696243010936,-0.76782227,-0.05279541,0.7418823,0.46875,-0.125,0.359375
1696243010976,-0.7668457,-0.05621338,0.7382202,0.28125,-0.4375,0.359375
1696243011018,-0.7663574,-0.06329346,0.7369995,0.203125,-0.46875,0.4375
1696243011036,-0.77685547,-0.054992676,0.7628784,0.859375,-0.984375,0.703125
1696243011075,-0.75097656,-0.057678223,0.7123413,-0.828125,0.3125,-0.03125
1696243011116,-0.7753906,-0.06109619,0.75457764,0.859375,-0.828125,0.25
1696243011179,-0.7644043,-0.07647705,0.7423706,0.3125,-0.421875,0.359375
1696243011196,-0.76464844,-0.057678223,0.73724365,-0.171875,-0.484375,0.15625
1696243011238,-0.7685547,-0.04937744,0.7399292,-0.03125,-0.703125,0.203125
1696243011279,-0.7651367,-0.061584473,0.73846436,0.015625,-0.390625,0.453125
1696243011319,-0.7663574,-0.06817627,0.7418823,0.25,-0.5,0.171875
1696243011376,-0.7702637,-0.057678223,0.7301636,-0.390625,-0.296875,0.359375
1696243011396,-0.76123047,-0.058410645,0.73968506,-0.15625,-0.1875,0.125
1696243011458,-0.76660156,-0.065979004,0.74554443,0.03125,-0.28125,0.296875
1696243011498,-0.76660156,-0.0635376,0.7340698,-0.453125,-0.421875,0.125
1696243011516,-0.7727051,-0.05670166,0.7387085,-0.46875,-0.25,0.0
1696243011579,-0.75805664,-0.062561035,0.74212646,-0.390625,-0.359375,-0.09375
1696243011596,-0.7636719,-0.061828613,0.74212646,-0.546875,-0.484375,0.03125
1696243011658,-0.76464844,-0.066467285,0.7445679,-0.703125,-0.59375,0.078125
1696243011676,-0.76171875,-0.05596924,0.7379761,-1.28125,-0.34375,-0.25
1696243011741,-0.7626953,-0.05718994,0.73846436,-1.03125,-0.3125,-0.234375
1696243011756,-0.7668457,-0.049621582,0.7435913,-0.671875,-0.453125,0.0625
1696243011798,-0.7626953,-0.055725098,0.7404175,-0.875,-0.625,0.015625
1696243011837,-0.76416016,-0.05670166,0.73553467,-0.9375,-0.78125,-0.234375
1696243011876,-0.76538086,-0.05596924,0.73602295,-0.703125,-0.453125,-0.296875
1696243011917,-0.77441406,-0.050354004,0.7406616,-0.90625,-0.78125,0.0
1696243011957,-0.7609863,-0.054016113,0.72821045,-1.734375,0.375,-0.296875
1696243011998,-0.763916,-0.043518066,0.73236084,-0.921875,-0.703125,-0.296875
1696243012041,-0.7602539,-0.03668213,0.743103,-0.515625,-0.25,-0.40625
1696243012100,-0.76904297,-0.055236816,0.7457886,-0.65625,-0.46875,-0.015625
1696243012138,-0.7585449,-0.044006348,0.7369995,-1.03125,-0.5625,-0.25
1696243012158,-0.7675781,-0.035217285,0.7514038,-0.53125,-0.3125,-0.078125
1696243012219,-0.75927734,-0.04034424,0.7428589,-0.625,-0.25,0.359375
1696243012237,-0.7529297,-0.037902832,0.73236084,-0.875,-0.40625,0.109375
1696243012278,-0.765625,-0.05328369,0.73187256,-0.640625,-1.265625,-0.0625
1696243012338,-0.751709,-0.04083252,0.73602295,-1.40625,-0.453125,-0.46875
1696243012355,-0.7685547,-0.046936035,0.74823,-0.828125,-0.625,0.0625
1696243012377,-0.7705078,-0.035705566,0.74139404,-1.109375,-0.8125,-0.078125
1696243012420,-0.7651367,-0.03302002,0.74383545,-0.734375,-0.84375,-0.25
1696243012457,-0.7626953,-0.03277588,0.7387085,-1.0,-0.4375,-0.1875
1696243012500,-0.76586914,-0.032043457,0.7374878,-0.59375,-0.65625,-0.21875
1696243012537,-0.77197266,-0.035949707,0.73724365,-0.390625,-0.59375,-0.265625
1696243012577,-0.7661133,-0.043029785,0.7387085,-0.78125,-0.203125,-0.21875
1696243012619,-0.767334,-0.032287598,0.7399292,-0.734375,-0.296875,-0.078125
1696243012659,-0.76416016,-0.030822754,0.74139404,-0.6875,-0.390625,-0.0625
1696243012699,-0.7648926,-0.028869629,0.73846436,-0.671875,-0.28125,0.09375
1696243012738,-0.77612305,-0.023742676,0.7494507,-0.234375,-0.59375,0.03125
1696243012777,-0.75683594,-0.03717041,0.7382202,-1.40625,0.5,-0.15625
1696243012818,-0.76220703,-0.019348145,0.72528076,-0.71875,-0.265625,-0.453125
1696243012858,-0.76538086,-0.026672363,0.74871826,-0.21875,0.078125,-0.328125
1696243012898,-0.76538086,-0.035461426,0.7406616,-1.03125,-0.296875,0.0625
1696243012938,-0.7614746,-0.019592285,0.7367554,-1.046875,-0.375,-0.640625
1696243012978,-0.76831055,-0.016174316,0.74090576,-0.6875,-0.4375,-0.328125
1696243013018,-0.76220703,-0.020812988,0.7418823,-0.90625,-0.25,-0.125
1696243013057,-0.76464844,-0.018371582,0.74139404,-0.953125,-0.21875,-0.234375
1696243013097,-0.76586914,-0.029846191,0.7379761,-0.703125,-0.75,-0.234375
1696243013138,-0.75390625,-0.014221191,0.73724365,-1.09375,-0.1875,-0.390625
1696243013176,-0.76831055,-0.02154541,0.74505615,-0.15625,-0.671875,-0.015625
1696243013217,-0.7595215,-0.023010254,0.7352905,-0.125,-1.015625,0.28125
1696243013259,-0.76708984,-0.012756348,0.74432373,0.484375,-1.140625,0.140625
1696243013296,-0.76000977,-0.0115356445,0.73895264,0.578125,-0.9375,0.46875
1696243013336,-0.7687988,-0.018615723,0.74261475,0.6875,-1.1875,0.875
1696243013377,-0.76538086,-0.018127441,0.7367554,0.84375,-1.015625,0.65625
1696243013418,-0.7663574,-0.02545166,0.74139404,0.9375,-1.125,0.703125
1696243013478,-0.76660156,-0.016174316,0.73846436,1.0,-1.15625,0.765625
1696243013496,-0.7692871,-0.02935791,0.72650146,1.0,-1.140625,1.0
1696243013537,-0.77734375,-0.0178833,0.76361084,1.734375,-1.59375,1.03125
1696243013577,-0.7583008,-0.018127441,0.72039795,0.671875,-0.1875,0.875
1696243013617,-0.78271484,-0.03717041,0.7550659,1.671875,-1.21875,1.03125
1696243013657,-0.7661133,-0.03643799,0.73187256,0.59375,-0.53125,0.625
1696243013698,-0.77197266,-0.02178955,0.7352905,0.75,-0.5625,0.359375
1696243013716,-0.77319336,-0.027404785,0.7340698,1.078125,-0.53125,0.828125
1696243013758,-0.7675781,-0.0335083,0.7357788,1.4375,-0.578125,0.96875
1696243013817,-0.7722168,-0.035705566,0.732605,1.9375,-1.140625,0.859375
1696243013838,-0.77441406,-0.051574707,0.7391968,1.5,-0.953125,0.875
1696243013898,-0.767334,-0.04107666,0.7362671,0.578125,-0.390625,0.765625
1696243013917,-0.7675781,-0.04522705,0.7382202,0.375,-0.796875,0.859375
1696243013979,-0.76953125,-0.04107666,0.729187,0.28125,-0.703125,0.765625
1696243013997,-0.7746582,-0.03692627,0.7367554,0.15625,-0.5,0.484375
1696243014037,-0.7675781,-0.04058838,0.72698975,0.125,-0.359375,0.46875
1696243014078,-0.7722168,-0.03741455,0.7304077,0.484375,-0.34375,0.484375
1696243014120,-0.7763672,-0.05255127,0.7369995,0.609375,-0.140625,0.328125
1696243014157,-0.7709961,-0.042053223,0.7404175,0.46875,0.078125,0.359375
1696243014199,-0.7741699,-0.04547119,0.7387085,0.484375,-0.4375,0.484375
1696243014236,-0.7692871,-0.04864502,0.7304077,0.21875,-0.078125,0.71875
1696243014296,-0.7709961,-0.043273926,0.76239014,1.171875,-1.21875,0.96875
1696243014317,-0.7585449,-0.040100098,0.7157593,-0.265625,0.328125,0.296875
1696243014357,-0.78466797,-0.055480957,0.7494507,1.203125,-0.8125,0.8125
1696243014419,-0.7668457,-0.06060791,0.7352905,0.359375,-0.390625,0.4375
1696243014457,-0.77197266,-0.046691895,0.7338257,-0.1875,-0.390625,0.3125
1696243014477,-0.7687988,-0.042053223,0.7333374,0.359375,-0.453125,0.453125
1696243014520,-0.7705078,-0.049621582,0.73602295,0.46875,-0.109375,0.578125
1696243014559,-0.77246094,-0.05230713,0.74139404,0.703125,-0.484375,0.5625
1696243014619,-0.7614746,-0.05328369,0.73114014,0.015625,-0.0625,0.453125
1696243014636,-0.7727051,-0.049621582,0.7394409,0.375,-0.109375,0.265625
1696243014697,-0.77075195,-0.06036377,0.7445679,0.359375,-0.28125,0.4375
1696243014717,-0.7636719,-0.051574707,0.7369995,-0.03125,-0.453125,0.40625
1696243014758,-0.7709961,-0.04522705,0.7321167,0.0625,-0.546875,0.203125
1696243014795,-0.76782227,-0.051574707,0.73480225,0.140625,-0.125,0.4375
1696243014861,-0.76538086,-0.05279541,0.7316284,0.40625,-0.25,0.375
1696243014877,-0.7680664,-0.05621338,0.7369995,0.34375,-0.078125,0.3125
1696243014917,-0.76831055,-0.055236816,0.73724365,0.421875,-0.0625,0.359375
1696243014980,-0.7644043,-0.058654785,0.7379761,0.453125,-0.078125,0.46875
1696243014986,-0.7685547,-0.05621338,0.74261475,0.453125,-0.25,0.640625
1696243015017,-0.76220703,-0.049621582,0.7404175,0.203125,-0.359375,0.5625
1696243015058,-0.765625,-0.05670166,0.74432373,0.15625,-0.40625,0.34375
1696243015098,-0.76586914,-0.055236816,0.73773193,0.046875,-0.578125,0.34375
1696243015138,-0.767334,-0.062805176,0.7333374,0.078125,-0.21875,0.328125
1696243015178,-0.7709961,-0.06842041,0.74676514,0.359375,-0.4375,0.625
1696243015242,-0.75512695,-0.05230713,0.7340698,-0.734375,0.875,-0.03125
1696243015256,-0.7687988,-0.06964111,0.7313843,-0.421875,-0.140625,0.078125
1696243015296,-0.7595215,-0.046203613,0.74334717,-0.390625,0.0,-0.4375
1696243015339,-0.77368164,-0.074279785,0.7501831,-0.5,-0.359375,0.0
1696243015398,-0.75927734,-0.054748535,0.74505615,-1.125,-0.546875,-0.21875
1696243015417,-0.767334,-0.044006348,0.7345581,-1.078125,-0.59375,-0.25
1696243015481,-0.7685547,-0.046203613,0.74334717,-0.875,-0.75,-0.09375
1696243015498,-0.76171875,-0.05328369,0.73480225,-0.90625,-0.4375,0.015625
1696243015539,-0.76782227,-0.05987549,0.7399292,-0.65625,-0.828125,-0.21875
1696243015578,-0.75927734,-0.044006348,0.7406616,-0.828125,-0.53125,-0.34375
1696243015620,-0.7661133,-0.05279541,0.74871826,-0.46875,-0.453125,-0.125
1696243015657,-0.765625,-0.05279541,0.73846436,-0.984375,-0.734375,-0.109375
1696243015696,-0.7636719,-0.038879395,0.7457886,-0.859375,-0.9375,-0.4375
1696243015739,-0.75805664,-0.042297363,0.74334717,-0.875,-0.578125,-0.28125
1696243015777,-0.7648926,-0.03717041,0.730896,-1.0625,-0.6875,-0.265625
1696243015823,-0.7648926,-0.038635254,0.73895264,-0.640625,-0.6875,-0.109375
1696243015860,-0.7624512,-0.042541504,0.7418823,-0.671875,-0.453125,-0.25
1696243015899,-0.76708984,-0.042785645,0.7367554,-0.78125,-0.125,-0.203125
1696243015938,-0.76416016,-0.03643799,0.7367554,-0.9375,-0.421875,-0.125
1696243015976,-0.76293945,-0.035949707,0.7416382,-0.59375,-0.375,-0.109375
1696243016018,-0.76782227,-0.03741455,0.743103,-0.484375,-0.515625,-0.21875
1696243016081,-0.77124023,-0.03692627,0.7418823,-0.609375,-0.859375,-0.21875
1696243016097,-0.76586914,-0.03765869,0.730896,-1.234375,-0.4375,-0.234375
1696243016139,-0.7595215,-0.025939941,0.74334717,-0.671875,-1.140625,-0.203125
1696243016178,-0.765625,-0.027648926,0.73236084,-0.5625,0.109375,-0.328125
1696243016217,-0.7729492,-0.038391113,0.7536011,-0.15625,-0.453125,0.09375
1696243016260,-0.7548828,-0.027404785,0.7304077,-1.078125,-0.265625,-0.328125
1696243016276,-0.76293945,-0.0178833,0.743103,-0.109375,-0.203125,-0.328125
1696243016318,-0.76831055,-0.02520752,0.74090576,-0.265625,-0.203125,0.359375
1696243016380,-0.7651367,-0.027648926,0.7367554,-0.453125,-0.28125,0.125
1696243016396,-0.77124023,-0.030334473,0.75653076,0.015625,-0.734375,-0.015625
1696243016438,-0.75341797,-0.028625488,0.73724365,-0.921875,-0.390625,-0.34375
1696243016499,-0.76342773,-0.024963379,0.75286865,-0.640625,-0.640625,-0.25
1696243016537,-0.76293945,-0.034973145,0.7428589,-0.625,-0.71875,-0.046875
1696243016556,-0.76586914,-0.02520752,0.7501831,-0.453125,-0.796875,-0.265625
1696243016599,-0.76586914,-0.02520752,0.73846436,-0.703125,-0.703125,-0.078125
1696243016661,-0.7675781,-0.020812988,0.74139404,-0.625,-0.765625,-0.09375
1696243016698,-0.7680664,-0.027404785,0.7379761,-0.765625,-0.53125,-0.1875
1696243016718,-0.76831055,-0.030334473,0.7406616,-0.375,-0.375,-0.40625
1696243016757,-0.7636719,-0.021057129,0.7369995,-0.28125,-0.46875,-0.328125
1696243016839,-0.76293945,-0.022033691,0.74017334,0.265625,-0.796875,0.125
1696243016856,-0.76220703,-0.018615723,0.7399292,0.625,-1.28125,0.671875
1696243016878,-0.77368164,-0.0256958,0.74676514,0.90625,-1.234375,0.90625
1696243016915,-0.7614746,-0.013977051,0.729187,-0.140625,-0.234375,0.421875
1696243016957,-0.763916,-0.0256958,0.71551514,0.484375,-0.34375,0.5625
1696243016997,-0.7758789,-0.029846191,0.7494507,1.40625,-0.890625,0.703125
1696243017038,-0.76538086,-0.034240723,0.73187256,0.359375,-0.671875,0.671875
1696243017099,-0.7702637,-0.024230957,0.7321167,0.8125,-0.859375,0.59375
1696243017138,-0.7687988,-0.020812988,0.7367554,0.921875,-0.984375,0.671875
1696243017156,-0.76904297,-0.024230957,0.73773193,1.390625,-0.65625,0.8125
1696243017224,-0.7626953,-0.034729004,0.73236084,1.046875,-0.546875,0.84375
1696243017235,-0.76953125,-0.04156494,0.7338257,1.0625,-1.0,0.640625
1696243017278,-0.7626953,-0.023742676,0.7262573,0.40625,-0.015625,0.3125
1696243017320,-0.7739258,-0.03717041,0.744812,0.859375,-0.484375,0.875
1696243017358,-0.76538086,-0.038635254,0.727478,-0.09375,-0.5,0.734375
1696243017421,-0.76538086,-0.02960205,0.73846436,0.34375,-0.71875,0.234375
1696243017459,-0.7783203,-0.033996582,0.7313843,0.4375,-0.25,0.453125
1696243017475,-0.76904297,-0.039611816,0.7340698,0.53125,-0.390625,0.75
1696243017519,-0.7668457,-0.04156494,0.7321167,0.734375,-0.40625,0.40625
1696243017577,-0.7709961,-0.038879395,0.7321167,0.65625,-0.609375,0.296875
1696243017617,-0.7624512,-0.038635254,0.7304077,0.4375,-0.171875,0.53125
1696243017620,-0.7746582,-0.0413208,0.74090576,0.984375,-0.5625,0.71875
1696243017660,-0.75390625,-0.04840088,0.72528076,0.171875,0.65625,0.59375
1696243017698,-0.7680664,-0.050598145,0.74212646,0.796875,-0.34375,0.796875
1696243017738,-0.767334,-0.03741455,0.7362671,0.703125,0.078125,0.25
1696243017780,-0.7805176,-0.058898926,0.7387085,1.140625,-0.84375,0.84375
1696243017818,-0.7714844,-0.055236816,0.7382202,0.5625,-0.171875,0.796875
1696243017858,-0.7714844,-0.042785645,0.7345581,0.53125,-0.03125,0.453125
1696243017897,-0.7636719,-0.04815674,0.7379761,0.75,-0.234375,0.625
1696243017938,-0.76660156,-0.047180176,0.73724365,0.640625,-0.28125,0.859375
1696243017977,-0.7714844,-0.062316895,0.74993896,0.84375,-0.578125,0.53125
1696243018038,-0.76708984,-0.051818848,0.7379761,0.125,0.0,0.390625
1696243018056,-0.76904297,-0.050354004,0.74676514,0.375,-0.078125,0.484375
1696243018097,-0.7687988,-0.06524658,0.74090576,0.421875,-0.234375,0.578125
1696243018159,-0.7614746,-0.05596924,0.7440796,0.1875,-0.40625,0.390625
1696243018175,-0.7697754,-0.054748535,0.7267456,0.25,-0.234375,0.484375
1696243018219,-0.7607422,-0.04888916,0.7333374,0.203125,-0.0625,0.375
1696243018260,-0.7680664,-0.058654785,0.7357788,0.546875,-0.25,0.484375
1696243018297,-0.76904297,-0.05645752,0.7387085,0.28125,-0.03125,0.453125
1696243018338,-0.76782227,-0.059631348,0.7333374,0.234375,-0.046875,0.421875
1696243018378,-0.7648926,-0.057678223,0.73968506,0.390625,-0.3125,0.34375
1696243018420,-0.76538086,-0.057434082,0.74505615,0.3125,-0.234375,0.578125
1696243018458,-0.763916,-0.05621338,0.7435913,0.21875,-0.390625,0.359375
1696243018499,-0.7624512,-0.06085205,0.7338257,0.3125,-0.28125,0.109375
1696243018536,-0.767334,-0.057678223,0.7367554,0.3125,-0.140625,0.21875
1696243018577,-0.76831055,-0.06451416,0.74432373,0.390625,-0.328125,0.421875
1696243018618,-0.7595215,-0.049621582,0.7428589,0.0625,-0.1875,0.359375
1696243018657,-0.75878906,-0.066223145,0.7230835,-0.5625,0.015625,0.3125
1696243018697,-0.76586914,-0.0491333,0.744812,0.46875,-0.671875,0.078125
1696243018735,-0.7687988,-0.077941895,0.75115967,0.3125,-0.296875,0.640625
1696243018777,-0.7687988,-0.06695557,0.7382202,-0.015625,-0.375,0.359375
1696243018817,-0.7624512,-0.059143066,0.7416382,-0.1875,-0.421875,0.109375
1696243018857,-0.7648926,-0.06036377,0.7428589,0.109375,-0.234375,0.3125
1696243018935,-0.76782227,-0.06329346,0.74212646,-0.203125,-0.21875,0.28125
1696243018936,-0.75634766,-0.07281494,0.73895264,-0.546875,0.0,0.21875
1696243018975,-0.7536621,-0.0569458,0.7362671,-0.515625,-0.21875,-0.03125
1696243019015,-0.75805664,-0.06378174,0.74798584,-0.328125,-0.34375,-0.078125
1696243019035,-0.7663574,-0.070373535,0.74383545,-0.765625,-0.46875,-0.109375
1696243019076,-0.7709961,-0.055236816,0.7460327,-0.859375,-0.609375,-0.015625
1696243019115,-0.76049805,-0.051574707,0.743103,-0.90625,-0.578125,-0.125
1696243019156,-0.7597656,-0.05230713,0.74261475,-1.0,-0.53125,-0.1875
1696243019195,-0.7663574,-0.058898926,0.7411499,-0.796875,-0.515625,0.0
1696243019235,-0.7602539,-0.058898926,0.74212646,-0.890625,-0.34375,-0.3125
1696243019275,-0.7565918,-0.05645752,0.744812,-0.75,-0.515625,-0.09375
1696243019315,-0.7626953,-0.050109863,0.73846436,-0.75,-0.640625,0.0
1696243019355,-0.7702637,-0.050598145,0.7440796,-0.765625,-0.5,0.1875
1696243019395,-0.76660156,-0.046203613,0.73846436,-0.890625,-0.734375,-0.28125
1696243019475,-0.7609863,-0.047912598,0.744812,-0.640625,-0.59375,-0.34375
1696243019495,-0.76293945,-0.047668457,0.7435913,-0.609375,-0.71875,-0.078125
1696243019515,-0.7697754,-0.04888916,0.7350464,-1.15625,-0.59375,0.0625
1696243019555,-0.75927734,-0.034484863,0.7477417,-0.8125,-1.03125,-0.140625
1696243019596,-0.7565918,-0.035217285,0.73358154,-0.71875,0.03125,-0.28125
1696243019635,-0.7717285,-0.05303955,0.7562866,-0.1875,-0.859375,-0.015625
1696243019677,-0.7570801,-0.041809082,0.73846436,-1.03125,-0.546875,-0.234375
1696243019716,-0.76416016,-0.028137207,0.7416382,-0.859375,-0.546875,-0.234375
1696243019777,-0.7692871,-0.038879395,0.7404175,-0.703125,-0.515625,-0.21875
1696243019818,-0.7663574,-0.042053223,0.74212646,-0.734375,-0.5,-0.109375
1696243019836,-0.77612305,-0.038635254,0.75531006,-0.1875,-1.03125,0.0
1696243019878,-0.77001953,-0.03643799,0.7394409,-0.859375,-0.703125,-0.265625
1696243019920,-0.76708984,-0.031066895,0.74554443,-0.65625,-0.359375,-0.109375
1696243019979,-0.7602539,-0.043273926,0.7399292,-0.6875,-0.65625,-0.109375
1696243019999,-0.765625,-0.035217285,0.7411499,-0.671875,-0.84375,-0.1875
1696243020037,-0.7661133,-0.02545166,0.74017334,-0.828125,-1.0625,-0.328125
1696243020077,-0.76660156,-0.027160645,0.7411499,-0.828125,-0.28125,-0.296875
1696243020116,-0.7680664,-0.02960205,0.7367554,-0.71875,-0.40625,-0.046875
1696243020177,-0.77124023,-0.03326416,0.7394409,-0.703125,-0.546875,-0.078125
1696243020217,-0.7663574,-0.02960205,0.7345581,-0.71875,-0.40625,-0.1875
1696243020220,-0.76660156,-0.027404785,0.7399292,-0.578125,-0.4375,-0.265625
1696243020256,-0.7626953,-0.027404785,0.746521,-0.546875,-0.53125,-0.046875
1696243020301,-0.763916,-0.026672363,0.7418823,-0.5,-0.421875,-0.078125
1696243020337,-0.7739258,-0.027893066,0.7489624,0.109375,-0.96875,0.015625
1696243020377,-0.76171875,-0.026184082,0.73846436,-0.96875,0.0,0.0
1696243020417,-0.7668457,-0.015930176,0.72772217,-0.421875,-0.75,-0.09375
1696243020456,-0.7663574,-0.023010254,0.7399292,-0.09375,-0.515625,0.03125
1696243020499,-0.7661133,-0.032287598,0.7382202,-0.0625,-0.34375,0.234375
1696243020538,-0.7631836,-0.015197754,0.73358154,0.15625,-0.671875,0.046875
1696243020579,-0.7702637,-0.020080566,0.7406616,0.5,-0.90625,0.3125
1696243020620,-0.767334,-0.022033691,0.73846436,0.59375,-0.609375,0.6875
1696243020658,-0.76293945,-0.022766113,0.7367554,0.84375,-1.046875,0.828125
1696243020699,-0.7729492,-0.031311035,0.7509155,1.390625,-1.46875,0.828125
1696243020740,-0.76171875,-0.027893066,0.73236084,0.625,-0.421875,0.59375
1696243020800,-0.76708984,-0.030822754,0.7394409,1.0625,-0.890625,0.640625
1696243020818,-0.77319336,-0.03326416,0.7338257,0.859375,-0.796875,0.890625
1696243020858,-0.7644043,-0.025939941,0.7440796,1.0,-0.875,0.546875
1696243020897,-0.763916,-0.031066895,0.7289429,0.65625,-0.6875,0.625
1696243020938,-0.7648926,-0.028137207,0.73773193,0.734375,-0.53125,0.53125
1696243020978,-0.765625,-0.04034424,0.7316284,0.609375,-0.59375,0.671875
1696243021021,-0.7675781,-0.042541504,0.7404175,0.59375,-0.421875,0.484375
1696243021058,-0.7661133,-0.039855957,0.7362671,0.34375,-0.40625,0.515625
1696243021097,-0.77001953,-0.03692627,0.74383545,0.734375,-0.53125,0.453125
1696243021141,-0.7770996,-0.038146973,0.7406616,0.921875,-0.765625,1.03125
1696243021178,-0.7668457,-0.04498291,0.7272339,0.234375,-0.265625,0.625
1696243021217,-0.77490234,-0.031066895,0.7575073,1.1875,-1.359375,0.625
1696243021259,-0.7519531,-0.029846191,0.71673584,0.09375,0.328125,0.234375
1696243021299,-0.77563477,-0.04815674,0.7560425,1.359375,-0.84375,0.734375
1696243021338,-0.7680664,-0.05303955,0.7382202,0.671875,-0.53125,0.671875
1696243021377,-0.7741699,-0.04083252,0.7333374,0.328125,-0.640625,0.53125
1696243021418,-0.77490234,-0.03741455,0.7362671,0.671875,-0.546875,0.5625
1696243021458,-0.77612305,-0.042541504,0.730896,0.609375,-0.40625,0.9375
1696243021498,-0.779541,-0.04547119,0.7338257,0.71875,-0.40625,0.65625
1696243021538,-0.76904297,-0.055725098,0.7238159,0.34375,-0.25,0.46875
1696243021556,-0.7626953,-0.04864502,0.7321167,0.21875,-0.03125,0.125
1696243021619,-0.7644043,-0.059631348,0.74554443,0.421875,-0.234375,0.46875
1696243021636,-0.7626953,-0.05670166,0.73309326,-0.0625,-0.578125,0.53125
1696243021678,-0.7685547,-0.047668457,0.7362671,0.421875,-0.6875,0.28125
1696243021717,-0.7668457,-0.046203613,0.73724365,0.265625,-0.234375,0.578125
1696243021761,-0.76708984,-0.05596924,0.72869873,0.359375,-0.328125,0.5625
1696243021798,-0.7680664,-0.066467285,0.73602295,0.3125,-0.4375,0.265625
1696243021838,-0.7692871,-0.054748535,0.73187256,-0.09375,-0.296875,0.296875
1696243021878,-0.76660156,-0.05670166,0.7379761,0.09375,-0.109375,0.359375
1696243021918,-0.76123047,-0.054748535,0.7382202,0.34375,-0.53125,0.640625
1696243021978,-0.7687988,-0.053527832,0.7338257,0.265625,-0.5,0.453125
1696243021998,-0.7692871,-0.058898926,0.7367554,0.25,-0.21875,0.25
1696243022040,-0.7722168,-0.057678223,0.74334717,0.515625,-0.515625,0.375
1696243022078,-0.7619629,-0.059631348,0.7387085,-0.1875,-0.3125,0.421875
1696243022117,-0.77075195,-0.054992676,0.7555542,0.75,-1.21875,0.765625
1696243022157,-0.7529297,-0.04498291,0.71795654,-0.4375,0.0,0.0625
1696243022198,-0.77685547,-0.062561035,0.7418823,0.78125,-0.625,0.765625
1696243022238,-0.7609863,-0.06793213,0.7362671,0.390625,-0.015625,0.625
1696243022278,-0.7741699,-0.054016113,0.73065186,0.140625,-0.625,0.46875
1696243022318,-0.76708984,-0.04937744,0.73773193,0.265625,-0.75,0.375
1696243022357,-0.767334,-0.05621338,0.7367554,0.25,-0.046875,0.515625
1696243022397,-0.7619629,-0.06427002,0.74334717,0.34375,-0.25,0.265625
1696243022440,-0.75878906,-0.061340332,0.72869873,-0.46875,-0.0625,0.296875
1696243022477,-0.76220703,-0.058166504,0.73773193,-0.21875,-0.296875,0.21875
1696243022516,-0.7770996,-0.06427002,0.746521,0.015625,-0.5,0.3125
1696243022557,-0.76660156,-0.059387207,0.7362671,-0.234375,-0.390625,0.078125
1696243022597,-0.7602539,-0.057922363,0.743103,-0.1875,-0.421875,-0.09375
1696243022637,-0.75756836,-0.06329346,0.7406616,-0.203125,0.078125,-0.109375
1696243022675,-0.75512695,-0.05987549,0.74627686,-0.1875,-0.46875,-0.015625
1696243022717,-0.76000977,-0.06524658,0.74432373,-0.546875,-0.484375,-0.171875
1696243022757,-0.7644043,-0.05230713,0.74627686,-0.890625,-0.578125,-0.046875
1696243022819,-0.76538086,-0.05206299,0.73895264,-0.71875,-0.84375,-0.03125
1696243022837,-0.7702637,-0.05255127,0.73553467,-0.75,-0.5,0.078125
1696243022857,-0.77001953,-0.057678223,0.74017334,-0.546875,-0.46875,-0.015625
1696243022899,-0.76586914,-0.055236816,0.7374878,-0.578125,-0.296875,-0.171875
1696243022939,-0.76293945,-0.050109863,0.73553467,-0.4375,-0.390625,-0.328125
1696243022977,-0.75927734,-0.051818848,0.7367554,-0.75,-0.203125,-0.078125
1696243023040,-0.76416016,-0.059143066,0.758728,-0.171875,-0.84375,0.21875
1696243023057,-0.7458496,-0.04425049,0.7345581,-1.671875,0.140625,-0.46875
1696243023098,-0.7717285,-0.051818848,0.72869873,-1.203125,-0.59375,0.0
1696243023138,-0.7792969,-0.04937744,0.7567749,-0.421875,-0.53125,-0.109375
1696243023201,-0.7763672,-0.054016113,0.732605,-1.25,-0.296875,-0.140625
1696243023237,-0.767334,-0.041809082,0.7301636,-1.421875,-0.359375,-0.5625
1696243023256,-0.76708984,-0.039611816,0.7484741,-0.53125,-0.21875,-0.3125
1696243023298,-0.76123047,-0.038391113,0.74871826,-0.609375,-0.28125,0.0625
1696243023336,-0.76293945,-0.042053223,0.74212646,-0.859375,-0.703125,-0.09375
1696243023379,-0.76464844,-0.04547119,0.7394409,-0.828125,-0.703125,-0.109375
1696243023416,-0.7546387,-0.03741455,0.732605,-1.34375,-0.28125,-0.75
1696243023457,-0.76660156,-0.039367676,0.7470093,-0.6875,-0.75,-0.03125
1696243023499,-0.7607422,-0.03717041,0.7369995,-0.984375,-0.640625,-0.015625
1696243023539,-0.76293945,-0.031555176,0.74383545,-0.703125,-0.796875,-0.125
1696243023577,-0.7692871,-0.030334473,0.73236084,-0.75,-0.625,-0.09375
1696243023617,-0.76831055,-0.030090332,0.7404175,-0.640625,-0.765625,-0.125
1696243023658,-0.7709961,-0.03277588,0.74334717,-0.46875,-0.609375,-0.265625
1696243023698,-0.7697754,-0.03253174,0.7357788,-0.65625,-0.5,-0.171875
1696243023759,-0.76171875,-0.03375244,0.7382202,-0.71875,-0.421875,-0.328125
1696243023776,-0.767334,-0.022033691,0.74139404,-0.515625,-0.5625,-0.125
1696243023839,-0.7595215,-0.030334473,0.7416382,-0.703125,-0.40625,-0.140625
1696243023857,-0.7644043,-0.026184082,0.74676514,-0.546875,-0.5,-0.09375
1696243023919,-0.7626953,-0.028869629,0.7333374,-0.625,-0.546875,-0.109375
1696243023936,-0.7722168,-0.028869629,0.7477417,-0.25,-0.734375,0.1875
1696243023976,-0.76293945,-0.021057129,0.73309326,-1.3125,0.375,-0.390625
1696243024041,-0.7636719,-0.020324707,0.72991943,-0.609375,-0.265625,-0.140625
1696243024057,-0.7734375,-0.03375244,0.7572632,0.09375,-0.625,0.125
1696243024121,-0.763916,-0.028869629,0.7382202,-0.421875,-0.578125,0.171875
1696243024181,-0.7668457,-0.016662598,0.72991943,-0.390625,-0.5,-0.125
1696243024185,-0.77197266,-0.023254395,0.7435913,-0.09375,-0.828125,0.234375
1696243024198,-0.7685547,-0.019592285,0.74334717,-0.15625,-0.46875,0.21875
1696243024238,-0.7661133,-0.022277832,0.7374878,-0.09375,-0.578125,0.15625
1696243024278,-0.763916,-0.027648926,0.73773193,0.1875,-1.171875,0.3125
1696243024318,-0.75927734,-0.01739502,0.72943115,-0.171875,-0.34375,0.1875
1696243024358,-0.7685547,-0.029846191,0.746521,0.78125,-0.8125,0.6875
1696243024398,-0.76904297,-0.033996582,0.7387085,0.71875,-0.921875,0.84375
1696243024438,-0.76342773,-0.0256958,0.7411499,1.15625,-0.9375,0.703125
1696243024478,-0.7651367,-0.026184082,0.7328491,1.15625,-0.8125,0.859375
1696243024517,-0.77197266,-0.024230957,0.74261475,1.03125,-0.6875,0.859375
1696243024558,-0.7758789,-0.03692627,0.73187256,0.921875,-0.53125,0.84375
1696243024598,-0.7729492,-0.038146973,0.73895264,0.703125,-0.5625,0.640625
1696243024638,-0.76831055,-0.033996582,0.7328491,0.671875,-0.484375,0.6875
1696243024677,-0.763916,-0.035949707,0.73431396,0.953125,-0.59375,0.78125
1696243024718,-0.7663574,-0.044006348,0.74383545,0.9375,-0.71875,0.875
1696243024758,-0.77001953,-0.03741455,0.72943115,0.625,-0.5625,0.59375
1696243024799,-0.779541,-0.046447754,0.7350464,0.84375,-0.6875,0.734375
1696243024836,-0.76904297,-0.02960205,0.73358154,0.515625,-0.296875,0.390625
1696243024880,-0.76586914,-0.039611816,0.7230835,0.28125,0.25,0.546875
1696243024917,-0.7746582,-0.04425049,0.74871826,1.40625,-0.484375,0.5625
1696243024960,-0.76538086,-0.054504395,0.73773193,0.984375,-0.359375,0.78125
1696243024996,-0.75927734,-0.04840088,0.7382202,0.34375,-0.34375,0.609375
1696243025039,-0.7692871,-0.035705566,0.732605,0.703125,-0.59375,0.609375
1696243025078,-0.77978516,-0.04156494,0.7374878,0.5,-0.296875,0.921875
1696243025118,-0.7685547,-0.047180176,0.73358154,0.578125,-0.328125,0.609375
1696243025161,-0.7714844,-0.05303955,0.7399292,0.859375,-0.484375,0.578125
1696243025200,-0.75927734,-0.042785645,0.72528076,0.234375,0.03125,0.265625
1696243025239,-0.7739258,-0.050842285,0.7406616,0.5625,-0.140625,0.5625
1696243025279,-0.7692871,-0.057678223,0.73724365,0.375,-0.296875,0.59375
1696243025318,-0.767334,-0.0491333,0.7387085,0.34375,-0.453125,0.40625
1696243025357,-0.7619629,-0.047912598,0.7350464,0.296875,-0.421875,0.421875
1696243025397,-0.7648926,-0.05230713,0.73431396,0.28125,-0.515625,0.640625
1696243025437,-0.767334,-0.06109619,0.74212646,0.40625,-0.484375,0.453125
1696243025499,-0.7680664,-0.051818848,0.73309326,0.234375,-0.171875,0.484375
1696243025504,-0.7609863,-0.055480957,0.7333374,0.359375,-0.0625,0.375
1696243025538,-0.76171875,-0.047180176,0.7418823,0.359375,-0.28125,0.53125
1696243025600,-0.7668457,-0.0569458,0.7367554,0.359375,-0.53125,0.671875
1696243025616,-0.763916,-0.054992676,0.74017334,0.15625,-0.5625,0.515625
1696243025658,-0.7709961,-0.054504395,0.7362671,0.234375,-0.328125,0.421875
1696243025700,-0.77319336,-0.058410645,0.7406616,0.484375,-0.6875,0.40625
1696243025739,-0.7595215,-0.059631348,0.7391968,-0.125,0.15625,0.390625
1696243025777,-0.7624512,-0.055725098,0.7477417,0.90625,-0.90625,0.6875
1696243025817,-0.75,-0.04522705,0.7184448,-0.515625,0.359375,-0.109375
1696243025860,-0.7668457,-0.061584473,0.74798584,0.90625,-0.6875,0.6875
1696243025899,-0.76464844,-0.07476807,0.7428589,0.5,-0.28125,0.390625
1696243025957,-0.7685547,-0.059631348,0.7387085,0.03125,-0.390625,0.28125
1696243025978,-0.7644043,-0.05230713,0.74432373,0.265625,-0.265625,0.375
1696243026020,-0.7636719,-0.06085205,0.7404175,0.3125,-0.3125,0.53125
1696243026079,-0.7644043,-0.061584473,0.73431396,0.03125,-0.328125,0.46875
1696243026097,-0.75634766,-0.06964111,0.7279663,-0.296875,-0.171875,0.234375
1696243026159,-0.76586914,-0.05596924,0.73480225,-0.09375,-0.4375,0.1875
1696243026197,-0.7697754,-0.06304932,0.7435913,0.09375,-0.40625,0.375
1696243026215,-0.7644043,-0.06329346,0.7387085,-0.109375,-0.453125,0.3125
1696243026258,-0.7668457,-0.057678223,0.7416382,-0.09375,-0.140625,0.109375
1696243026298,-0.7561035,-0.05718994,0.73895264,-0.0625,-0.328125,0.15625
1696243026338,-0.76708984,-0.06329346,0.73773193,0.09375,-0.5,0.296875
1696243026379,-0.7636719,-0.062072754,0.7435913,-0.0625,-0.625,0.359375
1696243026416,-0.7727051,-0.06011963,0.7435913,-0.21875,-0.46875,0.15625
1696243026458,-0.7675781,-0.062072754,0.7406616,-0.234375,-0.515625,0.0
1696243026498,-0.7636719,-0.061584473,0.73480225,-0.1875,-0.546875,0.03125
1696243026537,-0.76342773,-0.05987549,0.7418823,-0.171875,-0.453125,0.140625
1696243026579,-0.7614746,-0.06524658,0.7406616,-0.125,-0.625,0.09375
1696243026640,-0.76464844,-0.06549072,0.7367554,-0.203125,-0.578125,-0.125
1696243026657,-0.767334,-0.05255127,0.7338257,-0.75,-0.4375,-0.1875
1696243026700,-0.763916,-0.05987549,0.7445679,-0.3125,-0.515625,0.265625
1696243026737,-0.7585449,-0.050842285,0.7374878,-0.828125,-0.140625,-0.34375
1696243026781,-0.763916,-0.054260254,0.71868896,-1.390625,-0.28125,-0.078125
1696243026796,-0.7663574,-0.055480957,0.7536011,-0.03125,-0.515625,-0.296875
1696243026838,-0.76782227,-0.06109619,0.7362671,-0.625,-0.40625,-0.078125
1696243026880,-0.7687988,-0.054748535,0.73065186,-1.21875,-0.671875,-0.28125
1696243026918,-0.7680664,-0.0413208,0.7404175,-0.609375,-0.484375,-0.15625
1696243026958,-0.77001953,-0.05670166,0.75115967,-0.46875,0.109375,-0.03125
1696243026999,-0.7565918,-0.055725098,0.74432373,-0.8125,-0.28125,-0.25
1696243027037,-0.7504883,-0.061340332,0.7362671,-0.59375,-1.046875,0.015625
1696243027077,-0.7595215,-0.043762207,0.7340698,-0.953125,-0.796875,-0.234375
1696243027117,-0.77246094,-0.045715332,0.7489624,-0.59375,-0.703125,0.09375
1696243027159,-0.7590332,-0.045959473,0.7387085,-0.984375,-0.578125,0.046875
1696243027198,-0.7648926,-0.031799316,0.7418823,-0.84375,-0.765625,-0.109375
1696243027239,-0.7675781,-0.045959473,0.74505615,-0.609375,-0.609375,-0.203125
1696243027277,-0.7626953,-0.0491333,0.73968506,-0.546875,-0.578125,-0.140625
1696243027320,-0.7624512,-0.047424316,0.7457886,-0.703125,-0.78125,-0.09375
1696243027358,-0.76708984,-0.04840088,0.7435913,-0.640625,-0.5625,-0.09375
1696243027399,-0.75927734,-0.0491333,0.74139404,-0.625,-0.390625,-0.28125
1696243027438,-0.7597656,-0.0335083,0.7435913,-0.40625,-0.40625,-0.0625
1696243027479,-0.7573242,-0.03375244,0.73773193,-0.65625,-0.578125,-0.25
1696243027517,-0.76538086,-0.04107666,0.7418823,-0.671875,-0.53125,-0.015625
1696243027557,-0.7636719,-0.042297363,0.74261475,-0.390625,-0.78125,-0.171875
1696243027597,-0.76708984,-0.043273926,0.72698975,-1.015625,-0.390625,-0.125
1696243027638,-0.76831055,-0.027648926,0.7501831,-0.46875,-1.0,-0.3125
1696243027678,-0.7609863,-0.031066895,0.7296753,-0.453125,-0.1875,-0.125
1696243027720,-0.779541,-0.039611816,0.7484741,-0.046875,-0.8125,0.359375
1696243027758,-0.76660156,-0.031799316,0.73651123,-0.625,-0.1875,-0.15625
1696243027799,-0.7624512,-0.025939941,0.7428589,-0.34375,-0.21875,-0.28125
1696243027838,-0.7636719,-0.03375244,0.7457886,-0.375,-0.40625,-0.125
1696243027898,-0.76464844,-0.031066895,0.74139404,-0.53125,-0.828125,0.0625
1696243027916,-0.76660156,-0.035217285,0.743103,-0.34375,-0.625,-0.140625
1696243027957,-0.767334,-0.03277588,0.7350464,-0.890625,-0.546875,0.03125
1696243027997,-0.76049805,-0.023498535,0.7379761,-0.75,0.140625,-0.453125
1696243028059,-0.7619629,-0.033996582,0.74261475,-0.34375,-0.53125,0.03125
1696243028097,-0.7648926,-0.022033691,0.7428589,-0.875,-0.59375,-0.25
1696243028117,-0.76953125,-0.02178955,0.7345581,-0.734375,-0.796875,-0.203125
1696243028158,-0.7631836,-0.016662598,0.73602295,-0.765625,-0.5,-0.203125
1696243028176,-0.7763672,-0.027648926,0.7352905,-0.421875,-0.71875,-0.015625
1696243028219,-0.7705078,-0.024719238,0.7416382,-0.375,-0.484375,-0.109375
1696243028258,-0.76049805,-0.019348145,0.73846436,-0.21875,-0.5625,-0.15625
1696243028297,-0.7631836,-0.025939941,0.74139404,-0.015625,-0.875,0.125
1696243028359,-0.7661133,-0.019104004,0.7472534,0.421875,-0.75,0.390625
1696243028378,-0.76171875,-0.019348145,0.73651123,0.390625,-0.703125,0.453125
1696243028420,-0.7661133,-0.028869629,0.727478,-0.0625,-0.65625,0.53125
1696243028479,-0.7741699,-0.016906738,0.75994873,0.5,-1.109375,0.203125
1696243028496,-0.7636719,-0.019592285,0.7313843,0.125,-0.296875,0.265625
1696243028558,-0.7866211,-0.03692627,0.7531128,0.859375,-0.5,0.578125
1696243028579,-0.75927734,-0.0256958,0.7247925,0.328125,-0.796875,0.484375
1696243028620,-0.7619629,-0.018127441,0.7391968,0.84375,-1.015625,0.421875
1696243028657,-0.7697754,-0.025939941,0.7391968,0.734375,-0.78125,0.859375
1696243028700,-0.77441406,-0.024963379,0.73358154,0.453125,-0.6875,0.671875
1696243028740,-0.765625,-0.027648926,0.7350464,0.84375,-0.859375,0.34375
1696243028776,-0.76293945,-0.04473877,0.7304077,0.734375,-0.75,0.671875
1696243028817,-0.7607422,-0.033996582,0.7284546,0.015625,-0.265625,0.296875
1696243028859,-0.7717285,-0.038391113,0.74017334,0.671875,-0.65625,0.734375
1696243028896,-0.76904297,-0.041809082,0.73358154,0.234375,-0.625,0.515625
1696243028939,-0.7697754,-0.031066895,0.74090576,0.6875,-0.59375,0.28125
1696243028998,-0.7746582,-0.03741455,0.73602295,0.515625,-0.40625,0.75
1696243029016,-0.76904297,-0.038391113,0.74212646,0.671875,-0.546875,0.625
1696243029058,-0.7697754,-0.039855957,0.7345581,0.5625,-0.421875,0.59375
1696243029119,-0.7663574,-0.039123535,0.7328491,0.640625,-0.515625,0.359375
1696243029136,-0.76904297,-0.0413208,0.7374878,0.703125,-0.53125,0.453125
1696243029177,-0.7729492,-0.043273926,0.74676514,0.828125,-0.296875,0.640625
1696243029219,-0.7714844,-0.038879395,0.73480225,0.46875,-0.546875,0.765625
1696243029258,-0.76904297,-0.046447754,0.72772217,0.3125,-0.390625,0.828125
1696243029298,-0.77734375,-0.034484863,0.7601929,1.25,-1.421875,0.859375
1696243029339,-0.7609863,-0.036193848,0.7250366,0.140625,0.328125,0.15625
1696243029379,-0.7780762,-0.057922363,0.7550659,1.5,-1.1875,0.859375
1696243029417,-0.76538086,-0.055480957,0.72991943,0.828125,-0.453125,0.765625
1696243029435,-0.76538086,-0.043273926,0.7369995,0.5625,-0.609375,0.484375
1696243029477,-0.76953125,-0.044006348,0.73724365,0.703125,-0.40625,0.703125
1696243029516,-0.7680664,-0.04840088,0.7406616,0.5,-0.484375,0.6875
1696243029557,-0.7687988,-0.05328369,0.7313843,0.234375,-0.46875,0.671875
1696243029598,-0.76782227,-0.054504395,0.73236084,0.125,-0.28125,0.609375
1696243029641,-0.76708984,-0.04840088,0.7345581,0.125,-0.171875,0.125
1696243029677,-0.7746582,-0.05596924,0.74432373,0.25,-0.1875,0.5
1696243029718,-0.763916,-0.053771973,0.73309326,0.078125,-0.265625,0.640625
1696243029759,-0.767334,-0.047912598,0.7352905,0.375,-0.453125,0.390625
1696243029797,-0.7651367,-0.058654785,0.730896,0.265625,-0.078125,0.40625
1696243029837,-0.765625,-0.05645752,0.7338257,0.359375,-0.328125,0.328125
1696243029877,-0.7729492,-0.059631348,0.7428589,0.40625,-0.34375,0.453125
1696243029918,-0.7648926,-0.05670166,0.7374878,0.25,-0.0625,0.34375
1696243029956,-0.76708984,-0.051086426,0.7406616,0.1875,-0.140625,0.421875
1696243029997,-0.767334,-0.050598145,0.74432373,0.421875,-0.375,0.515625
1696243030037,-0.76708984,-0.057434082,0.74334717,0.28125,-0.359375,0.671875
1696243030101,-0.7636719,-0.05621338,0.73114014,0.09375,-0.671875,0.546875
1696243030118,-0.7792969,-0.058654785,0.72650146,0.21875,-0.75,0.640625
1696243030159,-0.7817383,-0.04888916,0.7555542,0.484375,-0.671875,0.609375
1696243030197,-0.7602539,-0.05718994,0.7304077,-0.53125,0.625,0.296875
1696243030237,-0.76416016,-0.055725098,0.7514038,0.984375,-0.21875,0.296875
1696243030279,-0.7597656,-0.077941895,0.744812,0.703125,-0.59375,0.5
1696243030341,-0.7717285,-0.061828613,0.744812,0.046875,-0.71875,0.421875
1696243030378,-0.7680664,-0.06085205,0.74334717,-0.015625,-0.484375,0.34375
1696243030396,-0.7705078,-0.058654785,0.74261475,0.0,-0.0625,0.375
1696243030439,-0.76586914,-0.057678223,0.7362671,-0.265625,-0.234375,0.25
1696243030478,-0.76464844,-0.06890869,0.73309326,-0.625,-0.125,0.21875
1696243030517,-0.75756836,-0.055236816,0.73895264,-0.34375,-0.15625,-0.046875
1696243030556,-0.76342773,-0.070129395,0.7509155,-0.46875,-0.21875,-0.125
1696243030599,-0.7631836,-0.066711426,0.7367554,-1.109375,-0.40625,-0.15625
1696243030638,-0.76293945,-0.051330566,0.7418823,-0.59375,-0.78125,-0.234375
1696243030677,-0.7714844,-0.05328369,0.74505615,-0.546875,-0.734375,0.015625
1696243030717,-0.7619629,-0.054504395,0.7399292,-0.796875,-0.546875,-0.15625
1696243030737,-0.77197266,-0.06011963,0.73553467,-0.515625,-0.640625,-0.1875
1696243030777,-0.76586914,-0.055480957,0.73895264,-0.984375,-0.46875,-0.21875
1696243030817,-0.76342773,-0.051330566,0.7357788,-0.765625,-0.375,-0.203125
1696243030859,-0.76049805,-0.051086426,0.7423706,-0.4375,-0.578125,-0.1875
1696243030900,-0.7602539,-0.04937744,0.73895264,-0.53125,-0.640625,-0.03125
1696243030936,-0.7583008,-0.04888916,0.744812,-0.796875,-0.390625,-0.171875
1696243030977,-0.7590332,-0.049621582,0.7391968,-1.015625,-0.453125,-0.3125
1696243031018,-0.77490234,-0.054748535,0.7440796,-0.578125,-0.921875,0.109375
1696243031058,-0.75927734,-0.034729004,0.7289429,-1.59375,-0.0625,-0.40625
1696243031122,-0.76538086,-0.038635254,0.727478,-0.9375,-0.328125,-0.15625
1696243031138,-0.77246094,-0.05206299,0.7562866,-0.03125,-0.515625,-0.15625
1696243031179,-0.76538086,-0.050842285,0.73773193,-0.875,-0.34375,-0.125
1696243031238,-0.7536621,-0.03302002,0.73114014,-0.84375,-0.640625,-0.375
1696243031256,-0.76586914,-0.044006348,0.7472534,-0.53125,-0.5625,-0.0625
1696243031298,-0.76782227,-0.039367676,0.7440796,-0.640625,-0.34375,0.125
1696243031338,-0.76660156,-0.036193848,0.73480225,-0.890625,-0.71875,-0.171875
1696243031399,-0.76293945,-0.050109863,0.73773193,-0.859375,-1.125,-0.078125
1696243031418,-0.7631836,-0.02911377,0.730896,-1.125,-0.453125,-0.5625
1696243031458,-0.7729492,-0.037902832,0.7489624,-0.46875,-0.515625,-0.03125
1696243031497,-0.76171875,-0.03765869,0.73968506,-0.90625,-0.546875,-0.1875
1696243031539,-0.7692871,-0.022033691,0.74823,-0.40625,-0.671875,-0.1875
1696243031580,-0.76538086,-0.029846191,0.7387085,-0.640625,-0.625,-0.15625
1696243031620,-0.76708984,-0.025939941,0.74090576,-0.515625,-0.734375,0.078125
1696243031658,-0.77246094,-0.03375244,0.73773193,-0.953125,-0.65625,-0.1875
1696243031697,-0.7661133,-0.0335083,0.7350464,-0.8125,-0.453125,-0.1875
1696243031738,-0.76660156,-0.024719238,0.7369995,-0.640625,-0.3125,-0.203125
1696243031779,-0.7685547,-0.028869629,0.730896,-0.328125,-0.34375,0.0625
1696243031821,-0.76464844,-0.026184082,0.7416382,-0.296875,-0.40625,0.21875
1696243031858,-0.7680664,-0.024719238,0.746521,-0.25,-0.375,-0.09375
1696243031918,-0.76660156,-0.031066895,0.72821045,-0.6875,-0.609375,0.0625
1696243031958,-0.76831055,-0.02130127,0.7658081,0.1875,-1.1875,-0.078125
1696243031977,-0.7558594,-0.020324707,0.7272339,-0.015625,-0.46875,-0.03125
1696243032018,-0.7819824,-0.035949707,0.74823,0.484375,-1.171875,0.59375
1696243032059,-0.76342773,-0.034484863,0.72943115,-0.015625,-0.4375,0.328125
1696243032076,-0.7685547,-0.019592285,0.7321167,0.34375,-0.515625,0.421875
1696243032119,-0.7692871,-0.024230957,0.73065186,0.53125,-0.65625,0.328125
1696243032158,-0.76416016,-0.024475098,0.7367554,0.609375,-1.078125,0.453125
1696243032197,-0.7729492,-0.036193848,0.73358154,0.453125,-0.65625,0.65625
1696243032239,-0.7663574,-0.038146973,0.7333374,0.375,-0.8125,0.4375
1696243032277,-0.76831055,-0.028381348,0.7316284,0.34375,0.03125,0.140625
1696243032340,-0.77001953,-0.031555176,0.7345581,0.5625,-0.671875,0.65625
1696243032357,-0.7636719,-0.034729004,0.73553467,0.8125,-0.953125,0.40625
1696243032397,-0.76708984,-0.0256958,0.7399292,1.25,-0.890625,0.515625
1696243032437,-0.77075195,-0.0335083,0.7379761,1.203125,-0.53125,0.890625
1696243032481,-0.7697754,-0.04156494,0.7418823,0.796875,-0.5,0.8125
1696243032517,-0.77368164,-0.039367676,0.73602295,0.3125,-0.5,0.578125
1696243032579,-0.7729492,-0.035217285,0.7345581,0.625,-0.53125,0.46875
1696243032598,-0.7661133,-0.04425049,0.73553467,0.765625,-0.375,0.578125
1696243032639,-0.76831055,-0.034729004,0.74017334,0.828125,-0.46875,0.71875
1696243032678,-0.765625,-0.03302002,0.73187256,0.484375,-0.203125,0.8125
1696243032718,-0.7734375,-0.04498291,0.74505615,1.21875,-0.71875,0.75
1696243032760,-0.75219727,-0.039123535,0.73065186,0.0625,-0.140625,0.21875
1696243032798,-0.76000977,-0.046203613,0.72039795,-0.09375,-0.046875,0.5
1696243032840,-0.7734375,-0.042541504,0.7477417,1.296875,-0.4375,0.484375
1696243032881,-0.7722168,-0.059387207,0.7345581,0.953125,-0.421875,0.765625
1696243032918,-0.7661133,-0.0491333,0.73773193,0.5625,-0.390625,0.421875
1696243032958,-0.76586914,-0.038635254,0.7284546,0.5625,-0.375,0.53125
1696243032997,-0.76782227,-0.04449463,0.7369995,0.421875,-0.4375,0.78125
1696243033037,-0.7685547,-0.05230713,0.73773193,0.75,-0.265625,0.65625
1696243033079,-0.77368164,-0.054748535,0.75042725,0.703125,-0.328125,0.78125
1696243033119,-0.7585449,-0.050598145,0.7289429,0.15625,0.109375,0.234375
1696243033158,-0.7697754,-0.054992676,0.74383545,0.453125,-0.171875,0.578125
1696243033198,-0.76464844,-0.059387207,0.74017334,0.4375,-0.078125,0.578125
1696243033238,-0.76831055,-0.051818848,0.7374878,0.28125,-0.328125,0.34375
1696243033277,-0.765625,-0.0491333,0.7352905,0.53125,-0.3125,0.546875
1696243033317,-0.7573242,-0.05206299,0.7345581,0.25,-0.40625,0.53125
1696243033358,-0.7661133,-0.05206299,0.74090576,0.234375,-0.484375,0.59375
1696243033397,-0.7668457,-0.059387207,0.7362671,0.109375,-0.40625,0.328125
1696243033416,-0.75927734,-0.05596924,0.73187256,0.125,-0.0625,0.140625
1696243033458,-0.76831055,-0.05670166,0.74090576,0.296875,-0.4375,0.4375
1696243033519,-0.76464844,-0.059631348,0.7394409,0.4375,-0.4375,0.609375
1696243033535,-0.76342773,-0.057434082,0.73846436,0.328125,-0.546875,0.484375
1696243033597,-0.75878906,-0.05596924,0.73236084,0.1875,-0.265625,0.359375
1696243033615,-0.7697754,-0.06378174,0.73651123,0.359375,-0.390625,0.5
1696243033699,-0.7714844,-0.050842285,0.7548218,0.4375,-0.75,0.484375
1696243033703,-0.7546387,-0.059387207,0.7218628,-0.5,0.15625,0.34375
1696243033737,-0.7702637,-0.057922363,0.75213623,0.609375,-0.78125,0.109375
1696243033777,-0.77001953,-0.06451416,0.73773193,0.5,-0.453125,0.625
1696243033816,-0.765625,-0.06549072,0.7369995,-0.046875,-0.40625,0.40625
1696243033857,-0.7668457,-0.053771973,0.73602295,0.1875,-0.34375,0.265625
1696243033916,-0.76464844,-0.06060791,0.7404175,0.265625,-0.25,0.328125
1696243033938,-0.7651367,-0.0635376,0.7399292,-0.015625,-0.390625,0.4375
1696243033998,-0.7541504,-0.06451416,0.73773193,-0.0625,-0.203125,0.421875
1696243034017,-0.7578125,-0.055480957,0.729187,-0.015625,-0.328125,0.046875
1696243034058,-0.7607422,-0.06573486,0.74017334,0.015625,-0.296875,0.265625
1696243034100,-0.7609863,-0.065979004,0.7328491,-0.015625,-0.359375,0.34375
1696243034140,-0.76049805,-0.057922363,0.7374878,-0.125,-0.6875,0.3125
1696243034179,-0.7663574,-0.06085205,0.74139404,-0.078125,-0.46875,0.25
1696243034218,-0.7636719,-0.062561035,0.7404175,-0.25,-0.265625,0.109375
1696243034260,-0.76831055,-0.06036377,0.74554443,-0.34375,-0.4375,-0.0625
1696243034299,-0.76464844,-0.0569458,0.74920654,-0.71875,-0.3125,-0.15625
1696243034339,-0.7595215,-0.058410645,0.74212646,-0.625,-0.546875,-0.0625
1696243034378,-0.76464844,-0.05670166,0.73773193,-0.4375,-0.34375,0.125
1696243034419,-0.7668457,-0.06402588,0.7399292,-0.75,-0.421875,0.015625
1696243034457,-0.7595215,-0.05279541,0.74017334,-0.625,-0.453125,-0.109375
1696243034499,-0.76660156,-0.06060791,0.743103,-0.71875,-0.40625,-0.28125
1696243034538,-0.76831055,-0.057922363,0.7411499,-0.609375,-0.734375,-0.0625
1696243034576,-0.7687988,-0.055236816,0.7321167,-1.109375,-0.25,-0.09375
1696243034619,-0.763916,-0.04547119,0.75213623,-0.59375,-1.140625,-0.15625
1696243034657,-0.7565918,-0.039855957,0.72528076,-0.796875,0.15625,-0.203125
1696243034697,-0.7788086,-0.06036377,0.7548218,0.0,-0.9375,-0.125
1696243034717,-0.7648926,-0.04937744,0.73553467,-0.9375,-0.5625,-0.109375
1696243034759,-0.76538086,-0.030578613,0.73968506,-0.890625,-0.546875,-0.375
1696243034797,-0.7648926,-0.04107666,0.7406616,-0.703125,-0.328125,-0.03125
1696243034859,-0.7648926,-0.04083252,0.73651123,-0.890625,-0.546875,0.015625
1696243034876,-0.7668457,-0.047912598,0.7440796,-0.453125,-0.890625,-0.0625
1696243034917,-0.7597656,-0.047424316,0.7328491,-1.0,-0.78125,-0.25
1696243034958,-0.7680664,-0.043762207,0.74432373,-1.078125,-0.234375,-0.453125
1696243035018,-0.76538086,-0.04840088,0.7435913,-0.828125,-0.625,-0.03125
1696243035037,-0.75878906,-0.04156494,0.7362671,-1.09375,-0.625,-0.265625
1696243035101,-0.7687988,-0.030578613,0.7404175,-0.796875,-0.828125,-0.28125
1696243035117,-0.7595215,-0.029846191,0.730896,-0.921875,-0.65625,-0.296875
1696243035161,-0.76904297,-0.039123535,0.73846436,-0.9375,-0.71875,-0.125
1696243035197,-0.76708984,-0.03375244,0.7411499,-0.84375,-0.5625,-0.28125
1696243035237,-0.7597656,-0.036193848,0.7440796,-0.875,-0.375,-0.265625
1696243035279,-0.7644043,-0.031799316,0.74212646,-0.78125,-0.46875,-0.203125
1696243035317,-0.7661133,-0.029846191,0.7404175,-0.75,-0.609375,-0.109375
1696243035359,-0.76538086,-0.031799316,0.74261475,-0.640625,-0.46875,-0.09375
1696243035396,-0.7727051,-0.026672363,0.7440796,-0.21875,-0.59375,-0.109375
1696243035438,-0.76416016,-0.031311035,0.7238159,-1.015625,-0.453125,-0.03125
1696243035502,-0.7680664,-0.022033691,0.75897217,-0.34375,-1.0,-0.21875
1696243035516,-0.75927734,-0.019592285,0.7338257,-0.453125,-0.0625,-0.328125
1696243035558,-0.7788086,-0.037902832,0.75579834,-0.078125,-0.546875,0.421875
1696243035600,-0.7565918,-0.027893066,0.73773193,-0.75,-0.46875,-0.203125
1696243035639,-0.7680664,-0.014709473,0.7394409,-0.578125,-0.546875,-0.125
1696243035679,-0.7685547,-0.02130127,0.74627686,-0.328125,-0.484375,0.21875
1696243035738,-0.76293945,-0.030334473,0.7394409,-0.21875,-0.453125,0.078125
1696243035757,-0.7648926,-0.027160645,0.7394409,-0.078125,-0.75,0.203125
1696243035800,-0.76464844,-0.032043457,0.7404175,-0.25,-0.78125,0.125
1696243035840,-0.7668457,-0.0178833,0.7428589,-0.53125,-0.4375,-0.046875
1696243035877,-0.7687988,-0.027893066,0.74090576,-0.015625,-0.84375,0.328125
1696243035920,-0.7661133,-0.024230957,0.7333374,0.15625,-1.234375,0.046875
1696243035957,-0.7675781,-0.023742676,0.7382202,0.953125,-1.234375,0.484375
1696243035999,-0.7727051,-0.026672363,0.7406616,0.890625,-0.375,0.953125
1696243036017,-0.77197266,-0.022277832,0.7367554,1.078125,-0.84375,0.90625
1696243036057,-0.7714844,-0.0335083,0.73602295,1.171875,-1.015625,0.625
1696243036098,-0.77001953,-0.038391113,0.743103,1.21875,-0.59375,0.75
1696243036140,-0.76782227,-0.024963379,0.7340698,0.640625,-0.40625,0.9375
1696243036179,-0.77441406,-0.027648926,0.7367554,0.828125,-0.640625,0.65625
1696243036220,-0.76953125,-0.035949707,0.73773193,0.578125,-0.28125,0.609375
1696243036257,-0.77856445,-0.038879395,0.74920654,1.171875,-0.828125,0.875
1696243036298,-0.7602539,-0.02960205,0.7289429,0.015625,0.484375,0.46875
1696243036339,-0.76416016,-0.035217285,0.71673584,0.171875,0.125,0.65625
1696243036398,-0.7697754,-0.03717041,0.746521,1.09375,-0.375,0.453125
1696243036417,-0.7741699,-0.054748535,0.7379761,0.65625,-0.640625,0.578125
1696243036457,-0.7729492,-0.044006348,0.7352905,0.59375,-0.359375,0.578125
1696243036499,-0.7651367,-0.034484863,0.73480225,0.765625,-0.5,0.625
1696243036539,-0.767334,-0.04473877,0.74017334,0.828125,-0.40625,0.90625
1696243036579,-0.765625,-0.043762207,0.7338257,0.65625,-0.4375,0.78125
1696243036618,-0.7729492,-0.047424316,0.7523804,1.109375,-0.78125,0.734375
1696243036662,-0.75878906,-0.045715332,0.7250366,0.140625,0.03125,0.328125
1696243036699,-0.76904297,-0.0413208,0.7394409,0.5625,-0.203125,0.609375
1696243036738,-0.7705078,-0.054016113,0.74017334,0.65625,-0.625,0.59375
1696243036781,-0.76831055,-0.04449463,0.7387085,0.453125,-0.484375,0.484375
1696243036818,-0.77319336,-0.049865723,0.73431396,0.59375,-0.40625,0.46875
1696243036856,-0.7668457,-0.051574707,0.7340698,0.453125,-0.34375,0.578125
1696243036898,-0.76660156,-0.046447754,0.73236084,0.390625,-0.484375,0.59375
1696243036937,-0.76953125,-0.05255127,0.73431396,0.265625,-0.34375,0.453125
1696243036977,-0.76123047,-0.054260254,0.73773193,0.234375,-0.125,0.3125
1696243037019,-0.763916,-0.047424316,0.7350464,0.328125,-0.3125,0.640625
1696243037058,-0.76708984,-0.054016113,0.73895264,0.546875,-0.578125,0.625
1696243037098,-0.7675781,-0.055725098,0.74261475,0.390625,-0.28125,0.515625
1696243037140,-0.77246094,-0.05596924,0.7428589,0.28125,-0.59375,0.375
1696243037178,-0.765625,-0.055480957,0.7284546,0.0625,-0.296875,0.515625
1696243037218,-0.7788086,-0.054504395,0.7628784,1.125,-1.25,0.859375
1696243037257,-0.75390625,-0.05328369,0.7182007,-0.3125,0.34375,0.234375
1696243037298,-0.7692871,-0.061828613,0.7418823,1.03125,-0.890625,0.46875
1696243037318,-0.763916,-0.06866455,0.74334717,0.515625,-0.25,0.46875
1696243037358,-0.7685547,-0.058410645,0.73480225,0.203125,-0.3125,0.484375
1696243037400,-0.76660156,-0.051818848,0.7394409,0.390625,-0.453125,0.359375
1696243037477,-0.76464844,-0.057434082,0.7367554,0.375,-0.140625,0.65625
1696243037482,-0.76953125,-0.05987549,0.7411499,0.0625,-0.515625,0.609375
1696243037516,-0.7614746,-0.07208252,0.72943115,-0.203125,-0.234375,0.328125
1696243037558,-0.7602539,-0.05303955,0.73724365,-0.109375,-0.296875,0.203125
1696243037618,-0.7648926,-0.06304932,0.7399292,0.1875,-0.328125,0.453125
1696243037637,-0.7675781,-0.06402588,0.7416382,0.0625,-0.53125,0.3125
1696243037699,-0.767334,-0.05596924,0.7374878,0.0625,-0.53125,0.25
1696243037717,-0.7709961,-0.05255127,0.7362671,0.078125,-0.1875,0.234375
1696243037758,-0.76538086,-0.06744385,0.73773193,0.140625,-0.40625,0.234375
1696243037798,-0.76342773,-0.0647583,0.73553467,-0.03125,-0.53125,0.28125
1696243037838,-0.7651367,-0.062072754,0.7423706,-0.09375,-0.453125,0.21875
1696243037876,-0.76586914,-0.061828613,0.7394409,-0.109375,-0.359375,0.328125
1696243037918,-0.7619629,-0.062561035,0.7399292,-0.0625,-0.4375,0.296875
1696243037957,-0.76123047,-0.06329346,0.74261475,0.015625,-0.265625,0.34375
1696243038040,-0.7648926,-0.057678223,0.7435913,-0.0625,-0.453125,0.203125
1696243038046,-0.7644043,-0.05596924,0.73846436,-0.28125,-0.203125,-0.109375
1696243038077,-0.76904297,-0.06109619,0.7518921,0.140625,-0.6875,0.03125
1696243038119,-0.75097656,-0.057434082,0.73065186,-0.953125,0.671875,-0.25
1696243038158,-0.7590332,-0.054748535,0.73773193,-0.46875,-0.515625,-0.046875
1696243038220,-0.7590332,-0.049865723,0.7457886,-0.6875,-0.09375,-0.40625
1696243038236,-0.7729492,-0.06573486,0.7435913,-0.296875,-0.671875,0.03125
1696243038279,-0.75512695,-0.061584473,0.7416382,-1.0,-0.578125,0.03125
1696243038321,-0.76538086,-0.043029785,0.74090576,-0.890625,-0.59375,-0.203125
1696243038359,-0.7687988,-0.047912598,0.74139404,-0.59375,-0.4375,0.0625
1696243038398,-0.7548828,-0.053527832,0.7367554,-0.71875,-0.53125,-0.078125
1696243038439,-0.76953125,-0.054748535,0.75579834,-0.296875,-1.03125,-0.109375
1696243038479,-0.75756836,-0.04937744,0.73553467,-1.25,-0.421875,-0.234375
1696243038540,-0.7663574,-0.057434082,0.74823,-0.390625,-0.5625,-0.015625
1696243038557,-0.76123047,-0.053771973,0.74334717,-0.859375,-0.515625,-0.109375
1696243038621,-0.7636719,-0.042541504,0.74212646,-1.21875,-0.84375,-0.140625
1696243038657,-0.76464844,-0.047668457,0.73724365,-0.9375,-0.796875,-0.125
1696243038661,-0.763916,-0.047424316,0.73187256,-0.859375,-0.53125,-0.125
1696243038697,-0.7626953,-0.04449463,0.7453003,-0.625,-0.578125,-0.34375
1696243038738,-0.7631836,-0.047668457,0.74139404,-0.796875,-0.296875,-0.328125
1696243038779,-0.7597656,-0.043273926,0.74090576,-1.015625,-0.515625,-0.203125
1696243038818,-0.75756836,-0.038391113,0.73895264,-0.8125,-0.5625,-0.25
1696243038860,-0.7680664,-0.035949707,0.73651123,-0.890625,-0.75,-0.078125
1696243038898,-0.7636719,-0.04156494,0.744812,-0.796875,-0.546875,-0.296875
1696243038939,-0.7609863,-0.034973145,0.7352905,-0.96875,-0.4375,-0.28125
1696243038981,-0.76953125,-0.045959473,0.7394409,-0.828125,-1.0625,-0.15625
1696243039037,-0.76171875,-0.024475098,0.74920654,-1.328125,-0.59375,-0.484375
1696243039056,-0.76220703,-0.030578613,0.72576904,-0.828125,-0.171875,-0.328125
1696243039098,-0.7763672,-0.043029785,0.7597046,-0.1875,-0.46875,-0.109375
1696243039138,-0.75756836,-0.034484863,0.73651123,-1.421875,-0.53125,-0.28125
1696243039178,-0.7663574,-0.019836426,0.73724365,-1.140625,-0.625,-0.4375
1696243039219,-0.7714844,-0.024719238,0.74383545,-0.578125,-0.625,0.21875
1696243039258,-0.76293945,-0.021057129,0.7404175,-0.796875,-0.390625,-0.046875
1696243039321,-0.7597656,-0.031066895,0.744812,-0.734375,-0.703125,-0.09375
1696243039338,-0.7597656,-0.03741455,0.73309326,-1.09375,-0.96875,-0.03125
1696243039378,-0.7626953,-0.01739502,0.7340698,-1.265625,-0.28125,-0.59375
1696243039417,-0.77124023,-0.026916504,0.7418823,-0.625,-0.609375,-0.03125
1696243039461,-0.7614746,-0.02520752,0.7374878,-0.796875,-0.671875,-0.21875
1696243039497,-0.767334,-0.018615723,0.74212646,-0.515625,-0.671875,-0.265625
1696243039538,-0.7624512,-0.012023926,0.73846436,-0.59375,-0.59375,-0.015625
1696243039581,-0.7668457,-0.023742676,0.7387085,-0.375,-0.78125,0.015625
1696243039618,-0.7651367,-0.022033691,0.73846436,-0.1875,-0.609375,0.03125
1696243039658,-0.76538086,-0.020812988,0.73773193,0.0625,-0.625,0.015625
1696243039699,-0.7583008,-0.016418457,0.7321167,0.40625,-1.03125,0.21875
1696243039740,-0.7702637,-0.014221191,0.7453003,0.6875,-0.890625,0.578125
1696243039781,-0.7687988,-0.023742676,0.73236084,0.671875,-0.609375,0.671875
1696243039840,-0.7751465,-0.031066895,0.7394409,1.109375,-0.84375,0.984375
1696243039856,-0.76953125,-0.013977051,0.75579834,1.1875,-0.875,0.78125
1696243039899,-0.7480469,-0.016662598,0.71917725,0.78125,-0.3125,0.375
1696243039939,-0.7819824,-0.031799316,0.75897217,1.953125,-1.140625,0.9375
1696243039956,-0.76538086,-0.0335083,0.73114014,0.671875,-0.6875,0.6875
1696243040000,-0.76953125,-0.018615723,0.73309326,0.859375,-0.46875,0.71875
1696243040038,-0.7753906,-0.027893066,0.73480225,1.25,-0.78125,0.953125
1696243040077,-0.7727051,-0.034484863,0.74017334,0.859375,-0.515625,0.9375
1696243040117,-0.7717285,-0.038879395,0.73651123,0.96875,-0.5625,0.765625
1696243040181,-0.7697754,-0.038879395,0.7279663,0.828125,-0.515625,0.640625
1696243040218,-0.7597656,-0.024475098,0.7250366,0.421875,0.234375,0.4375
1696243040236,-0.7685547,-0.037902832,0.7382202,0.875,-0.453125,0.65625
1696243040280,-0.7739258,-0.04473877,0.74383545,0.5625,-0.265625,0.71875
1696243040317,-0.7702637,-0.035217285,0.73895264,0.96875,-0.390625,0.453125
1696243040360,-0.77001953,-0.04034424,0.73895264,0.96875,-0.4375,0.765625
1696243040397,-0.7709961,-0.038635254,0.73968506,0.734375,-0.5,0.71875
1696243040439,-0.7717285,-0.047424316,0.73358154,0.4375,-0.46875,0.78125
1696243040479,-0.77001953,-0.039855957,0.73553467,0.53125,-0.3125,0.3125
1696243040520,-0.7697754,-0.042297363,0.73358154,0.484375,-0.296875,0.53125
1696243040559,-0.7692871,-0.037902832,0.73187256,0.640625,-0.140625,0.796875
1696243040599,-0.7792969,-0.043762207,0.744812,1.109375,-0.53125,0.90625
1696243040639,-0.76049805,-0.055725098,0.72943115,0.140625,0.5,0.46875
1696243040679,-0.7607422,-0.047668457,0.73651123,0.546875,-0.578125,0.609375
1696243040739,-0.7553711,-0.04083252,0.730896,0.1875,0.078125,0.109375
1696243040780,-0.7832031,-0.059387207,0.75042725,1.09375,-0.703125,0.75
1696243040798,-0.76831055,-0.0569458,0.7362671,0.25,-0.203125,0.53125
1696243040862,-0.76782227,-0.040100098,0.730896,0.34375,-0.203125,0.40625
1696243040878,-0.7697754,-0.049621582,0.7367554,0.46875,-0.328125,0.5
1696243040938,-0.76342773,-0.051818848,0.73553467,0.578125,-0.25,0.71875
1696243040956,-0.77319336,-0.057434082,0.73968506,0.515625,-0.640625,0.578125
1696243040998,-0.7636719,-0.05621338,0.727478,-0.046875,-0.171875,0.484375
1696243041041,-0.7685547,-0.0569458,0.73968506,0.21875,-0.0625,0.328125
1696243041078,-0.7714844,-0.062072754,0.7418823,0.34375,-0.28125,0.71875
1696243041117,-0.7614746,-0.059143066,0.7362671,0.046875,-0.421875,0.515625
1696243041158,-0.7602539,-0.051818848,0.73724365,0.359375,-0.546875,0.3125
1696243041198,-0.7595215,-0.05206299,0.7345581,0.234375,-0.15625,0.515625
1696243041282,-0.76782227,-0.05645752,0.732605,0.4375,-0.484375,0.421875
1696243041286,-0.7714844,-0.059631348,0.7382202,0.3125,-0.265625,0.421875
1696243041296,-0.7709961,-0.0569458,0.74017334,0.078125,-0.21875,0.171875
1696243041338,-0.76220703,-0.05596924,0.7416382,0.03125,-0.359375,0.25
1696243041399,-0.7680664,-0.0569458,0.73895264,0.1875,-0.4375,0.296875
1696243041438,-0.7631836,-0.06085205,0.73895264,0.046875,-0.53125,0.5
1696243041478,-0.7636719,-0.057922363,0.73651123,0.015625,-0.234375,0.171875
1696243041497,-0.7675781,-0.062561035,0.7394409,0.234375,-0.46875,0.484375
1696243041538,-0.7663574,-0.051086426,0.744812,0.140625,-0.390625,0.28125
1696243041580,-0.7595215,-0.05328369,0.72039795,-0.59375,-0.15625,0.3125
1696243041637,-0.76904297,-0.057922363,0.74871826,0.546875,-0.78125,0.0625
1696243041658,-0.76660156,-0.07110596,0.7411499,0.46875,-0.484375,0.578125
1696243041699,-0.7648926,-0.062561035,0.7394409,-0.140625,-0.515625,0.34375
1696243041738,-0.7595215,-0.054016113,0.730896,0.09375,-0.421875,0.28125
1696243041778,-0.7619629,-0.06451416,0.7445679,0.09375,-0.109375,0.46875
1696243041818,-0.7595215,-0.06866455,0.7428589,-0.09375,-0.46875,0.375
1696243041858,-0.76586914,-0.06964111,0.7374878,0.15625,-0.328125,0.1875
1696243041899,-0.7573242,-0.062561035,0.7367554,-0.1875,-0.28125,0.21875
1696243041960,-0.76123047,-0.06451416,0.7445679,0.140625,-0.140625,0.296875
1696243042000,-0.7651367,-0.07208252,0.74505615,-0.0625,-0.296875,0.328125
1696243042038,-0.76000977,-0.066467285,0.7404175,0.015625,-0.671875,0.21875
1696243042057,-0.76586914,-0.057922363,0.73895264,-0.078125,-0.40625,0.21875
1696243042099,-0.7651367,-0.06451416,0.7404175,-0.234375,-0.421875,-0.0625
1696243042137,-0.76538086,-0.05987549,0.74383545,-0.296875,-0.484375,-0.03125
1696243042179,-0.7651367,-0.06378174,0.74554443,-0.484375,-0.390625,-0.078125
1696243042216,-0.7602539,-0.06378174,0.7404175,-0.75,-0.5,-0.28125
1696243042261,-0.76293945,-0.057434082,0.7453003,-0.625,-0.53125,-0.140625
1696243042300,-0.7644043,-0.054992676,0.73895264,-0.578125,-0.703125,-0.046875
1696243042339,-0.75341797,-0.05645752,0.74139404,-0.6875,-0.5,-0.09375
1696243042378,-0.76049805,-0.06109619,0.72869873,-0.859375,-0.328125,-0.21875
1696243042418,-0.76708984,-0.058898926,0.74993896,0.03125,-0.65625,-0.015625
1696243042458,-0.751709,-0.04864502,0.7313843,-1.53125,0.421875,-0.25
1696243042498,-0.7668457,-0.054504395,0.73236084,-0.703125,-0.765625,0.046875
1696243042538,-0.7631836,-0.04864502,0.74871826,-0.421875,-0.234375,-0.296875
1696243042600,-0.76660156,-0.06036377,0.746521,-0.5,-0.5,0.015625
1696243042606,-0.76123047,-0.05621338,0.7387085,-1.578125,-0.5,-0.0625
1696243042638,-0.77075195,-0.03765869,0.7399292,-1.15625,-0.34375,-0.3125
1696243042678,-0.7624512,-0.040100098,0.7399292,-1.078125,-0.265625,-0.09375
1696243042737,-0.7624512,-0.04815674,0.7333374,-0.828125,-0.3125,-0.125
1696243042779,-0.763916,-0.058654785,0.74676514,-0.59375,-0.671875,-0.15625
1696243042818,-0.75097656,-0.042297363,0.7328491,-1.4375,-0.25,-0.484375
1696243042839,-0.7675781,-0.043273926,0.74920654,-0.75,-0.78125,-0.375
1696243042921,-0.7663574,-0.044006348,0.7472534,-1.078125,-0.671875,0.046875
1696243042925,-0.7619629,-0.03277588,0.74676514,-0.6875,-0.78125,-0.1875
1696243042957,-0.76831055,-0.030578613,0.7328491,-1.078125,-0.8125,-0.1875
1696243042998,-0.7644043,-0.039611816,0.74383545,-0.890625,-0.390625,-0.328125
1696243043037,-0.76953125,-0.038391113,0.73553467,-1.265625,-0.375,-0.328125
1696243043080,-0.76171875,-0.031555176,0.74212646,-0.84375,-0.453125,-0.390625
1696243043137,-0.76464844,-0.031799316,0.74798584,-1.03125,-0.4375,-0.375
1696243043157,-0.7595215,-0.03375244,0.743103,-0.78125,-0.625,-0.203125
1696243043197,-0.76293945,-0.023986816,0.7416382,-0.65625,-0.515625,-0.203125
1696243043237,-0.76538086,-0.030334473,0.73895264,-0.6875,-0.40625,-0.25
1696243043278,-0.7709961,-0.034484863,0.7477417,-0.375,-0.703125,0.0
1696243043318,-0.7524414,-0.018127441,0.7313843,-1.078125,-0.234375,-0.625
1696243043358,-0.7644043,-0.022521973,0.72698975,-0.796875,-0.203125,-0.046875
1696243043398,-0.77441406,-0.035949707,0.75946045,-0.28125,-0.59375,0.015625
1696243043438,-0.75561523,-0.028137207,0.73968506,-0.984375,-0.390625,-0.125
1696243043476,-0.76538086,-0.014709473,0.74212646,-0.484375,-0.53125,-0.296875
1696243043517,-0.7722168,-0.023498535,0.7411499,-0.140625,-0.484375,0.15625
1696243043556,-0.75805664,-0.02130127,0.74261475,-0.265625,-0.53125,0.03125
1696243043596,-0.76464844,-0.019592285,0.7418823,-0.28125,-0.5625,-0.046875
1696243043657,-0.7648926,-0.024230957,0.7301636,-0.53125,-0.953125,-0.140625
1696243043678,-0.7546387,-0.0154418945,0.72772217,-0.671875,-0.265625,-0.21875
1696243043718,-0.765625,-0.017150879,0.73651123,0.15625,-1.0,0.25
1696243043780,-0.7585449,-0.024475098,0.7394409,0.328125,-0.984375,0.609375
1696243043840,-0.76538086,-0.0178833,0.74554443,0.625,-0.84375,0.59375
1696243043844,-0.7631836,-0.022033691,0.7316284,0.296875,-0.59375,0.46875
1696243043901,-0.76171875,-0.023010254,0.73309326,0.484375,-0.640625,0.421875
1696243043916,-0.7663574,-0.019348145,0.73358154,0.375,-0.84375,0.5
1696243043938,-0.77246094,-0.022033691,0.74383545,1.046875,-0.84375,0.5625
1696243043979,-0.7687988,-0.023254395,0.73187256,0.921875,-0.75,0.796875
1696243044020,-0.76660156,-0.0256958,0.73480225,1.03125,-0.6875,0.765625
1696243044057,-0.7644043,-0.028137207,0.73236084,0.9375,-0.609375,0.671875
1696243044100,-0.77319336,-0.027160645,0.7494507,1.484375,-0.875,0.90625
1696243044140,-0.7624512,-0.028869629,0.7267456,0.09375,-0.078125,0.546875
1696243044182,-0.7687988,-0.031311035,0.71624756,0.375,-0.125,0.71875
1696243044240,-0.7739258,-0.04034424,0.75164795,1.703125,-0.28125,0.421875
1696243044256,-0.7697754,-0.053771973,0.7338257,1.03125,-0.25,0.828125
1696243044302,-0.7602539,-0.03643799,0.73358154,0.734375,-0.40625,0.578125
1696243044338,-0.76708984,-0.026184082,0.7394409,1.03125,-0.625,0.78125
1696243044378,-0.7685547,-0.038879395,0.7404175,0.78125,-0.5,1.09375
1696243044420,-0.76904297,-0.043029785,0.7333374,0.78125,-0.65625,0.765625
1696243044479,-0.77319336,-0.047424316,0.74383545,1.1875,-0.671875,0.84375
1696243044498,-0.76000977,-0.040100098,0.7313843,0.453125,0.15625,0.296875
1696243044538,-0.7758789,-0.03692627,0.74212646,1.09375,-0.21875,0.421875
1696243044581,-0.76660156,-0.051574707,0.744812,0.734375,-0.296875,0.734375
1696243044620,-0.7631836,-0.042053223,0.7352905,0.5,-0.484375,0.484375
1696243044659,-0.76708984,-0.04815674,0.7357788,0.546875,-0.421875,0.6875
1696243044700,-0.76123047,-0.05328369,0.74334717,0.484375,-0.265625,0.640625
1696243044739,-0.77124023,-0.04449463,0.73968506,0.390625,-0.625,0.65625
1696243044779,-0.7753906,-0.05255127,0.74090576,0.203125,-0.484375,0.5
1696243044818,-0.77001953,-0.050354004,0.7379761,0.234375,-0.28125,0.328125
1696243044858,-0.7739258,-0.04864502,0.73309326,0.1875,-0.15625,0.40625
1696243044902,-0.7648926,-0.057434082,0.73358154,0.421875,-0.34375,0.453125
1696243044938,-0.76708984,-0.051818848,0.74090576,0.5,-0.125,0.609375
1696243044979,-0.76782227,-0.051086426,0.7352905,0.421875,-0.171875,0.4375
1696243045019,-0.7705078,-0.05718994,0.75213623,0.765625,-0.5625,0.734375
1696243045061,-0.75634766,-0.04107666,0.7223511,-0.125,0.34375,0.21875
1696243045098,-0.75805664,-0.062316895,0.7250366,-0.328125,-0.09375,0.46875
1696243045137,-0.77075195,-0.0569458,0.7470093,0.609375,-0.53125,0.328125
1696243045179,-0.7644043,-0.07208252,0.7345581,0.625,-0.28125,0.515625
1696243045219,-0.7697754,-0.057922363,0.73968506,0.328125,-0.25,0.4375
1696243045259,-0.76708984,-0.050354004,0.7350464,0.484375,-0.21875,0.21875
1696243045276,-0.7590332,-0.057434082,0.74261475,0.46875,-0.296875,0.71875
1696243045336,-0.76416016,-0.06011963,0.7404175,0.40625,-0.53125,0.40625
