,timestamp,accel_x,accel_y,accel_z,gyro_x,gyro_y,gyro_z,ind
0,1696247957978,-0.00048828125,-1.0227661,-0.058898926,0.734375,2.609375,-1.8125,0
1,1696247958018,0.048339844,-0.9295044,0.019958496,-2.09375,2.78125,2.328125,1
2,1696247958058,0.10961914,-0.91534424,0.09246826,-4.390625,4.984375,3.0,2
3,1696247958098,0.0769043,-1.0505981,0.14398193,-0.296875,1.296875,2.28125,3
4,1696247958138,-0.015625,-0.958313,0.09466553,-2.9375,-3.640625,0.9375,4
5,1696247958178,-0.055908203,-0.93414307,0.044128418,2.421875,4.046875,-3.671875,5
6,1696247958218,0.0075683594,-1.0457153,0.04852295,2.4375,9.359375,-1.25,6
7,1696247958258,0.031982422,-0.9619751,0.038757324,0.703125,4.0,0.6875,7
8,1696247958298,0.02319336,-0.97540283,-0.00982666,2.046875,5.46875,-0.96875,8
9,1696247958338,0.034423828,-0.9570923,0.031188965,5.921875,7.625,-1.046875,9
10,1696247958378,-0.021972656,-1.1004028,0.04168701,2.875,10.703125,2.109375,10
11,1696247958418,-0.009033203,-0.92022705,0.014343262,0.609375,2.5625,-3.28125,11
12,1696247958458,0.049072266,-0.95758057,0.050231934,3.5,2.234375,-1.953125,12
13,1696247958498,0.05419922,-1.0117798,-0.014709473,2.109375,3.390625,0.84375,13
14,1696247958538,-0.068603516,-1.0510864,0.04827881,3.84375,1.15625,0.375,14
15,1696247958578,-0.026611328,-0.927063,-0.053527832,2.171875,4.53125,-1.359375,15
16,1696247958618,0.0063476562,-0.96221924,0.015319824,4.953125,5.984375,2.0625,16
17,1696247958658,-0.020019531,-1.0847778,-0.045959473,2.515625,-1.5,-0.328125,17
18,1696247958698,0.015625,-0.923645,-0.013244629,0.84375,8.15625,1.15625,18
19,1696247958738,0.04638672,-0.972229,-0.045959473,0.21875,6.6875,0.09375,19
20,1696247958778,0.041503906,-1.0149536,-0.022766113,2.328125,6.3125,2.390625,20
21,1696247958818,-0.095947266,-1.0691528,0.039245605,3.296875,-1.078125,-0.1875,21
22,1696247958858,0.028076172,-0.9138794,-0.06011963,1.453125,2.8125,0.3125,22
23,1696247958898,-0.018798828,-0.99713135,-0.010070801,3.921875,4.671875,3.75,23
24,1696247958938,-0.013671875,-1.0447388,-0.02960205,0.421875,3.03125,2.3125,24
25,1696247958978,-0.008300781,-0.98272705,-0.00079345703,1.109375,2.71875,2.515625,25
26,1696247959018,-0.0012207031,-0.9607544,-0.066711426,0.203125,4.625,1.90625,26
27,1696247959058,0.028564453,-0.9963989,-0.031555176,-0.59375,4.609375,2.6875,27
28,1696247959098,-0.0048828125,-1.0237427,-0.04034424,-0.90625,2.1875,0.921875,28
29,1696247959138,0.045410156,-0.9805298,-0.06109619,-1.25,2.21875,0.015625,29
30,1696247959178,0.004638672,-0.9692993,-0.0491333,-0.390625,-0.265625,2.359375,30
31,1696247959218,0.001953125,-0.9771118,-0.06451416,-0.890625,3.21875,2.171875,31
32,1696247959258,0.022460938,-0.97076416,-0.05255127,-1.078125,6.0,4.09375,32
33,1696247959298,-0.029541016,-1.0440063,-0.046691895,0.484375,-2.5625,-1.984375,33
34,1696247959338,0.05908203,-0.9326782,-0.07550049,1.328125,4.140625,0.390625,34
35,1696247959378,0.0078125,-0.98687744,-0.040100098,-0.96875,3.40625,1.078125,35
36,1696247959418,0.026611328,-0.9993286,-0.028869629,0.578125,1.65625,-1.71875,36
37,1696247959458,0.024902344,-0.97003174,-0.04937744,-0.59375,-4.40625,-0.953125,37
38,1696247959498,-0.0041503906,-0.9783325,-0.054260254,1.515625,0.25,1.03125,38
39,1696247959538,0.033447266,-1.0015259,-0.04864502,-1.453125,4.484375,0.921875,39
40,1696247959578,0.017333984,-0.9990845,0.02923584,0.515625,-5.875,-0.890625,40
41,1696247959618,0.059570312,-0.95269775,-0.101623535,-0.015625,-2.140625,0.984375,41
42,1696247959658,0.009277344,-1.0205688,0.024353027,0.609375,-3.515625,0.515625,42
43,1696247959698,0.0034179688,-1.0137329,-0.02960205,0.015625,-3.109375,-0.140625,43
44,1696247959738,0.012939453,-0.9795532,-0.020812988,-0.375,-4.46875,0.703125,44
45,1696247959778,0.02368164,-0.9902954,-0.0134887695,-0.203125,-3.8125,-1.171875,45
46,1696247959818,-0.0026855469,-0.9819946,-0.011291504,-0.046875,-2.15625,-2.84375,46
47,1696247959858,0.028808594,-0.97442627,-0.012512207,-3.25,-0.96875,-2.09375,47
48,1696247959898,-0.0014648438,-1.0042114,0.0016479492,-1.59375,-3.5625,-3.28125,48
49,1696247959938,-0.020263672,-1.000061,-0.07867432,-2.046875,-3.875,-5.75,49
50,1696247959978,0.0034179688,-0.9561157,0.007507324,-2.265625,0.640625,-5.96875,50
51,1696247960018,-0.0126953125,-0.98809814,-0.015930176,-2.640625,-0.859375,-4.828125,51
52,1696247960058,0.026123047,-0.9771118,-0.055480957,-7.171875,0.265625,-3.0625,52
53,1696247960098,-0.011962891,-1.0256958,0.0016479492,-4.140625,-5.015625,-3.953125,53
54,1696247960138,-0.05078125,-0.96954346,-0.009338379,-1.65625,-3.125,-2.734375,54
55,1696247960178,-0.03955078,-0.9805298,-0.009338379,0.734375,-2.21875,-3.359375,55
56,1696247960218,-0.041503906,-0.9973755,-0.028381348,-1.671875,-1.03125,-1.0,56
57,1696247960258,0.015380859,-0.96832275,0.02557373,-3.5,-1.46875,0.625,57
58,1696247960298,-0.08227539,-1.0042114,0.038757324,-0.046875,-5.71875,0.515625,58
59,1696247960338,-0.06225586,-0.9780884,0.034118652,0.921875,-3.5625,1.703125,59
60,1696247960378,-0.06225586,-1.0459595,0.058532715,7.875,-3.34375,-2.21875,60
61,1696247960418,-0.05493164,-1.039856,-0.006164551,5.0,-3.390625,-4.28125,61
62,1696247960458,-0.030029297,-0.9126587,-0.05621338,6.0,1.109375,-2.78125,62
63,1696247960498,0.0017089844,-0.9187622,-0.038146973,0.453125,-1.4375,1.28125,63
64,1696247960538,-0.052490234,-0.97857666,-0.03302002,-8.140625,2.03125,1.09375,64
65,1696247960578,-0.009765625,-0.99102783,0.032409668,-6.625,2.671875,4.265625,65
66,1696247960618,-0.043701172,-1.0498657,0.058532715,-0.84375,-1.921875,0.984375,66
67,1696247960658,-0.06665039,-1.0095825,-0.035461426,-6.25,-1.8125,5.140625,67
68,1696247960698,-0.0078125,-0.93585205,0.010437012,-3.859375,-1.671875,-3.046875,68
69,1696247960738,-0.0048828125,-0.9771118,0.032165527,-7.46875,3.40625,6.40625,69
70,1696247960778,-0.076416016,-1.0430298,0.0099487305,-2.546875,-5.640625,-0.75,70
71,1696247960818,-0.07495117,-0.9944458,0.0211792,-5.515625,-11.625,-3.53125,71
72,1696247960858,-0.033203125,-0.94976807,0.07513428,1.15625,-2.34375,0.484375,72
73,1696247960898,-0.040283203,-1.0567017,0.014831543,-4.3125,2.03125,1.0625,73
74,1696247960938,0.0234375,-0.9734497,0.06976318,-4.046875,0.703125,0.65625,74
75,1696247960978,-0.045654297,-0.97662354,-0.0051879883,-1.0,-4.734375,-1.328125,75
76,1696247961018,-0.010498047,-0.99957275,0.0446167,-2.265625,-0.59375,-1.65625,76
77,1696247961058,-0.030517578,-1.0115356,0.028015137,-2.9375,1.671875,-1.625,77
78,1696247961098,0.01171875,-0.95977783,0.034118652,-1.859375,-0.828125,-0.28125,78
79,1696247961138,-0.07519531,-0.99542236,0.005554199,0.671875,-1.65625,0.234375,79
80,1696247961178,-0.0390625,-0.98516846,0.038513184,0.234375,0.859375,0.125,80
81,1696247961218,0.008056641,-0.98150635,0.04119873,-0.8125,1.9375,0.671875,81
82,1696247961258,-0.025634766,-0.98687744,0.070495605,0.375,-0.34375,0.765625,82
83,1696247961298,-0.013183594,-0.9973755,0.03387451,0.09375,0.953125,1.671875,83
84,1696247961338,-0.053955078,-0.96466064,0.047058105,-0.1875,-0.609375,2.390625,84
85,1696247961378,-0.015380859,-1.0293579,0.06585693,2.5,-2.921875,1.96875,85
86,1696247961418,0.01953125,-0.9776001,0.04559326,1.234375,-4.765625,0.765625,86
87,1696247961458,-0.055908203,-0.98565674,0.038024902,4.65625,-6.015625,2.765625,87
88,1696247961498,-0.036376953,-0.9961548,0.05682373,2.984375,-0.828125,1.28125,88
89,1696247961538,0.047851562,-0.99053955,0.034362793,3.71875,-2.28125,0.671875,89
90,1696247961578,-0.03881836,-1.0076294,-0.0256958,3.421875,-1.90625,3.484375,90
91,1696247961618,-0.010253906,-0.9949341,0.07318115,2.09375,-2.078125,-0.78125,91
92,1696247961658,-0.018066406,-0.95806885,0.017028809,0.5625,-2.546875,-0.71875,92
93,1696247961698,-0.0078125,-0.987854,0.022399902,0.625,-1.09375,2.078125,93
94,1696247961738,-0.009521484,-1.0059204,0.007019043,0.203125,-2.9375,0.09375,94
95,1696247961778,-0.0053710938,-0.9492798,0.028015137,-3.8125,-4.328125,1.125,95
96,1696247961818,-0.059326172,-1.0198364,0.043151855,-0.4375,-3.890625,-0.765625,96
97,1696247961858,-0.022216797,-1.0134888,0.030700684,0.265625,-3.109375,-1.453125,97
98,1696247961898,-0.052734375,-1.0095825,0.05657959,3.90625,1.734375,-2.15625,98
99,1696247961938,-0.02319336,-0.9458618,-0.010070801,5.328125,-0.828125,-4.515625,99
100,1696247961978,0.033447266,-0.9470825,-0.024719238,1.390625,-0.578125,-0.21875,100
101,1696247962018,-0.037841797,-0.9902954,-0.013977051,-3.25,4.25,0.109375,101
102,1696247962058,-0.05126953,-0.99053955,0.058044434,-3.984375,1.53125,2.984375,102
103,1696247962098,-0.014160156,-1.0205688,0.012390137,-2.875,-0.78125,-1.125,103
104,1696247962138,-0.021728516,-0.9729614,0.031921387,-0.875,-0.28125,1.953125,104
105,1696247962178,-0.045654297,-1.0183716,0.07293701,2.390625,-4.109375,0.859375,105
106,1696247962218,-0.05029297,-0.9812622,0.012145996,4.71875,-7.21875,0.265625,106
107,1696247962258,-0.0068359375,-0.98394775,-0.018127441,3.265625,-0.921875,-2.578125,107
108,1696247962298,-0.011230469,-0.9697876,-0.031066895,0.421875,-1.640625,-0.203125,108
109,1696247962338,0.0017089844,-0.96099854,-0.019592285,-5.140625,3.515625,1.140625,109
110,1696247962378,-0.041259766,-1.0183716,0.016784668,-2.609375,-0.21875,0.375,110
111,1696247962418,-0.032226562,-1.0178833,0.0368042,0.890625,-0.71875,1.03125,111
112,1696247962458,-0.05493164,-0.97369385,0.009216309,1.421875,-2.25,-1.265625,112
113,1696247962498,-0.015380859,-0.96759033,0.007751465,0.203125,0.421875,0.640625,113
114,1696247962538,0.0034179688,-1.0029907,-0.0064086914,-2.96875,1.0,1.765625,114
115,1696247962578,0.0036621094,-0.9607544,0.007019043,-0.78125,-0.09375,1.984375,115
116,1696247962618,-0.06689453,-1.0291138,-0.00592041,-0.8125,-0.0625,1.796875,116
117,1696247962658,0.04663086,-0.9631958,0.014099121,-2.75,1.265625,-0.546875,117
118,1696247962698,-0.00390625,-0.9663696,0.02508545,-2.015625,3.265625,4.453125,118
119,1696247962738,-0.0107421875,-1.0254517,0.047058105,-0.3125,-3.59375,3.0,119
120,1696247962778,-0.103271484,-1.0122681,0.010192871,1.078125,-6.375,-1.0,120
121,1696247962818,-0.023925781,-0.9663696,0.05340576,1.625,0.21875,-1.8125,121
122,1696247962858,-0.014892578,-1.048645,0.051452637,4.09375,-5.28125,-1.953125,122
123,1696247962898,0.021728516,-1.0032349,-0.10797119,7.703125,-5.21875,-1.625,123
124,1696247962938,-0.00390625,-0.93463135,-0.00030517578,0.125,-0.953125,-1.34375,124
125,1696247962978,-0.008544922,-0.9741821,-0.030334473,-1.46875,-1.6875,-0.03125,125
126,1696247963018,0.0014648438,-1.0217896,0.03314209,-1.59375,-3.859375,0.390625,126
127,1696247963058,-0.060302734,-1.0305786,-0.0010375977,-0.78125,-4.375,-0.921875,127
128,1696247963098,-0.040771484,-0.95684814,0.019226074,0.921875,-1.890625,0.59375,128
129,1696247963138,-0.026367188,-1.0083618,-0.023010254,4.71875,-3.640625,-2.125,129
130,1696247963178,-0.029541016,-0.9788208,0.0072631836,-0.953125,-0.25,-0.875,130
131,1696247963218,-0.006591797,-0.9763794,-0.007873535,-2.5,0.609375,-1.0,131
132,1696247963258,-0.04272461,-0.9534302,-0.008361816,-6.578125,1.4375,0.890625,132
133,1696247963298,-0.0031738281,-1.0093384,0.00970459,-2.875,0.203125,-0.171875,133
134,1696247963338,-0.076416016,-1.0049438,0.066589355,2.59375,-1.078125,0.71875,134
135,1696247963378,-0.040771484,-0.9944458,0.01361084,2.734375,-3.640625,-0.09375,135
136,1696247963418,-0.045166016,-1.0071411,0.051452637,7.21875,-2.265625,-0.125,136
137,1696247963458,-0.08251953,-1.0630493,-0.0020141602,3.9375,-0.5625,-3.0625,137
138,1696247963498,0.055419922,-0.84088135,-0.07550049,0.296875,4.625,-2.734375,138
139,1696247963538,-0.01977539,-0.96710205,-0.06304932,-2.21875,-1.078125,0.375,139
140,1696247963578,-0.0625,-1.0447388,-0.04083252,-5.265625,2.375,3.171875,140
141,1696247963618,0.05883789,-0.956604,0.01776123,-1.09375,6.8125,-1.015625,141
142,1696247963658,-0.14990234,-1.0628052,0.10760498,-0.328125,4.6875,5.953125,142
143,1696247963698,-0.024902344,-0.9199829,0.05657959,-2.109375,-4.90625,-1.921875,143
144,1696247963738,-0.055664062,-1.019104,0.036071777,-3.234375,-2.0,0.828125,144
145,1696247963778,0.056152344,-0.96466064,0.042663574,-1.96875,1.59375,2.3125,145
146,1696247963818,-0.07006836,-1.0083618,0.028747559,-1.25,-5.078125,0.296875,146
147,1696247963858,-0.056396484,-0.99542236,0.03363037,2.359375,-4.5625,-0.84375,147
148,1696247963898,-0.03540039,-1.003479,0.006286621,4.25,-5.65625,-1.546875,148
149,1696247963938,0.0146484375,-0.9866333,0.032165527,1.375,-2.296875,-0.90625,149
150,1696247963978,-0.059814453,-0.987854,-0.010314941,-3.953125,-1.03125,-0.15625,150
151,1696247964018,-0.010498047,-0.9680786,0.06341553,-1.390625,1.3125,0.875,151
152,1696247964058,-0.028564453,-1.0181274,0.04852295,1.03125,-0.859375,0.515625,152
153,1696247964098,-0.041503906,-0.99957275,0.023132324,0.6875,-1.15625,0.421875,153
154,1696247964138,-0.061523438,-0.95318604,0.03338623,1.125,-0.265625,-0.578125,154
155,1696247964178,0.007080078,-0.9817505,0.018737793,-3.046875,2.78125,1.75,155
156,1696247964218,-0.03515625,-0.9993286,0.040222168,0.0625,-0.1875,0.765625,156
157,1696247964258,-0.06640625,-0.99884033,0.04437256,2.96875,-2.65625,1.8125,157
158,1696247964298,-0.047607422,-0.98565674,0.0040893555,2.765625,-0.453125,0.53125,158
159,1696247964338,-0.0107421875,-0.99176025,0.029724121,1.078125,-0.03125,0.015625,159
160,1696247964378,0.0007324219,-0.97247314,0.0028686523,-3.109375,1.09375,2.46875,160
161,1696247964418,-0.041503906,-0.9841919,0.012390137,0.796875,-2.234375,1.375,161
162,1696247964458,-0.055419922,-1.0169067,0.047302246,3.015625,-1.4375,2.125,162
163,1696247964498,-0.014160156,-0.9829712,0.0038452148,1.40625,0.53125,-0.375,163
164,1696247964538,-0.027832031,-0.9932251,-0.0020141602,-1.0,0.5625,0.53125,164
165,1696247964578,0.025146484,-0.9846802,0.023620605,-3.125,1.234375,0.953125,165
166,1696247964618,-0.043945312,-1.0029907,0.049743652,0.78125,0.046875,1.140625,166
167,1696247964658,-0.041503906,-1.0090942,0.0028686523,0.578125,-2.28125,1.6875,167
168,1696247964698,-0.036621094,-0.9795532,0.04168701,3.09375,1.515625,-0.8125,168
169,1696247964738,-0.010986328,-1.0108032,-0.0020141602,1.828125,-0.90625,-1.75,169
170,1696247964778,-0.017822266,-0.9483032,-0.024475098,-4.828125,0.171875,-0.78125,170
171,1696247964818,-0.010009766,-0.9949341,0.0289917,-0.578125,-1.96875,-0.421875,171
172,1696247964858,-0.043701172,-1.0061646,0.06951904,0.21875,1.21875,0.171875,172
173,1696247964898,-0.052001953,-0.98638916,0.026794434,1.328125,-2.265625,0.453125,173
174,1696247964938,0.006591797,-0.9973755,0.011169434,3.34375,3.265625,2.03125,174
175,1696247964978,-0.06933594,-1.0442505,-0.006164551,2.1875,-3.484375,-3.078125,175
176,1696247965018,0.009033203,-0.91363525,-0.026184082,-2.328125,2.03125,-1.171875,176
177,1696247965058,-0.009277344,-0.92315674,-0.06451416,-5.875,2.375,2.0625,177
178,1696247965098,0.045166016,-1.0003052,0.01727295,1.03125,8.453125,2.046875,178
179,1696247965138,-0.12207031,-1.0637817,0.117614746,0.28125,4.453125,4.46875,179
180,1696247965178,-0.021240234,-0.93634033,-0.010803223,-1.28125,-4.765625,1.125,180
181,1696247965218,-0.015136719,-0.9697876,0.026062012,0.8125,-1.59375,-1.359375,181
182,1696247965258,-0.005859375,-0.99224854,0.012878418,-1.015625,2.453125,1.25,182
183,1696247965298,-0.03564453,-1.0076294,0.070251465,1.328125,-3.96875,-0.703125,183
184,1696247965338,-0.041503906,-0.97076416,-0.042053223,1.28125,-3.828125,-1.96875,184
185,1696247965378,-0.015380859,-0.99713135,0.036071777,0.84375,0.046875,-0.015625,185
186,1696247965418,0.0068359375,-0.9800415,0.0079956055,-2.09375,1.0,-1.375,186
187,1696247965458,-0.008544922,-0.97906494,0.06732178,-2.3125,-0.203125,1.453125,187
188,1696247965498,-0.084228516,-0.9949341,0.03387451,-0.671875,-1.375,-1.78125,188
189,1696247965538,-0.0026855469,-0.99542236,0.036071777,0.6875,-0.046875,-0.359375,189
190,1696247965578,-0.052001953,-0.9763794,0.027526855,1.59375,-0.1875,-0.890625,190
191,1696247965618,-0.01586914,-0.9812622,0.026550293,1.609375,-0.171875,0.34375,191
192,1696247965658,0.001953125,-0.9920044,0.018249512,-1.90625,-0.203125,0.0,192
193,1696247965698,-0.046875,-0.97125244,0.042907715,-2.265625,0.015625,0.9375,193
194,1696247965738,-0.029541016,-1.0003052,0.047790527,0.265625,-1.203125,0.859375,194
195,1696247965778,-0.041503906,-1.0071411,0.047058105,1.515625,-1.09375,0.015625,195
196,1696247965818,-0.018798828,-0.9631958,0.027282715,0.125,0.3125,0.78125,196
197,1696247965858,-0.040039062,-0.9812622,0.023620605,-1.328125,1.109375,1.359375,197
198,1696247965898,-0.015380859,-1.00177,0.028259277,-0.453125,1.625,1.953125,198
199,1696247965938,-0.056640625,-0.9985962,0.018005371,-0.625,2.6875,0.828125,199
200,1696247965978,0.00024414062,-0.9854126,0.03778076,-0.015625,0.953125,0.828125,200
201,1696247966018,-0.01977539,-0.99468994,0.027282715,2.109375,0.046875,0.96875,201
202,1696247966058,-0.0009765625,-0.9805298,0.03314209,-2.21875,2.890625,0.921875,202
203,1696247966098,-0.028320312,-0.97369385,0.008239746,-2.796875,6.046875,3.828125,203
204,1696247966138,-0.043945312,-1.0022583,0.03778076,1.84375,-0.078125,3.28125,204
205,1696247966178,-0.0017089844,-1.0222778,0.031188965,0.75,-4.328125,-1.3125,205
206,1696247966218,0.0126953125,-0.95562744,0.0211792,0.84375,-1.421875,0.65625,206
207,1696247966258,-0.03540039,-1.0090942,0.031921387,0.265625,-0.921875,2.25,207
208,1696247966298,0.03491211,-1.0005493,0.030700684,0.109375,-0.203125,1.1875,208
209,1696247966338,-0.05810547,-0.97369385,0.022399902,0.546875,-3.375,-1.34375,209
210,1696247966378,-0.017333984,-0.9976196,0.031188965,1.96875,-3.109375,0.125,210
211,1696247966418,0.01977539,-0.9985962,0.0065307617,3.96875,-0.375,-2.671875,211
212,1696247966458,-0.026855469,-0.9768677,0.018005371,1.0,-0.125,0.5625,212
213,1696247966498,-0.010009766,-0.96661377,0.015319824,0.75,0.390625,1.078125,213
214,1696247966538,-0.026123047,-1.0144653,0.0211792,1.078125,0.296875,0.4375,214
215,1696247966578,-0.025634766,-0.99468994,0.0067749023,-0.71875,0.90625,-0.21875,215
216,1696247966618,0.014160156,-0.9751587,0.01361084,-1.03125,-0.15625,-1.484375,216
217,1696247966658,-0.037109375,-0.97613525,0.006286621,-3.71875,1.4375,-0.59375,217
218,1696247966698,-0.01928711,-0.9871216,0.005065918,-1.734375,0.125,-1.265625,218
219,1696247966738,0.021484375,-0.99542236,0.023864746,-2.671875,0.890625,-1.34375,219
220,1696247966778,-0.048583984,-0.9763794,0.035827637,0.09375,-3.515625,-0.90625,220
221,1696247966818,-0.031982422,-0.97906494,0.01727295,1.3125,-2.96875,-0.375,221
222,1696247966858,-0.022949219,-1.0151978,0.016296387,2.671875,-3.296875,-2.0625,222
223,1696247966898,-0.009765625,-0.97784424,0.012634277,1.640625,-1.90625,-0.59375,223
224,1696247966938,0.0024414062,-0.9680786,0.011657715,2.0,-4.1875,-0.75,224
225,1696247966978,-0.057373047,-1.0059204,0.031921387,2.671875,-4.1875,0.765625,225
226,1696247967018,-0.016357422,-1.0213013,-0.006652832,0.140625,2.46875,1.015625,226
227,1696247967058,-0.039794922,-1.000061,0.05999756,0.46875,-0.84375,-2.921875,227
228,1696247967098,-0.061767578,-0.99591064,-0.022521973,2.15625,-0.046875,-6.625,228
229,1696247967138,0.022216797,-0.8735962,-0.057434082,-0.34375,-1.4375,1.25,229
230,1696247967178,-0.028808594,-0.9890747,0.01727295,-6.15625,0.359375,2.3125,230
231,1696247967218,-0.045410156,-1.0288696,0.061462402,-4.265625,-1.828125,3.234375,231
232,1696247967258,-0.053710938,-1.0256958,0.050231934,0.515625,-1.546875,0.421875,232
233,1696247967298,-0.009765625,-0.9360962,-0.016662598,-1.96875,0.328125,3.78125,233
234,1696247967338,-0.075927734,-0.99786377,0.05682373,-0.921875,-1.546875,3.28125,234
235,1696247967378,0.012207031,-0.9890747,0.016540527,-1.328125,4.703125,4.46875,235
236,1696247967418,-0.01953125,-0.9590454,-0.0134887695,-2.40625,2.28125,2.203125,236
237,1696247967458,-0.037109375,-0.99176025,0.09906006,-3.015625,1.359375,3.484375,237
238,1696247967498,0.005859375,-0.98101807,0.062194824,-2.421875,-5.890625,-4.5,238
239,1696247967538,-0.022705078,-0.9819946,0.018493652,3.0,-4.140625,-2.546875,239
240,1696247967578,0.032226562,-1.0154419,0.014831543,3.421875,-0.8125,-3.5625,240
241,1696247967618,-0.020996094,-0.94195557,0.044128418,0.421875,-0.375,0.921875,241
242,1696247967658,-0.01953125,-0.98150635,-0.021057129,-0.9375,0.203125,1.328125,242
243,1696247967698,0.016845703,-1.0061646,0.028503418,-2.15625,-2.03125,0.1875,243
244,1696247967738,-0.056396484,-1.0181274,0.02557373,-1.453125,-0.140625,0.171875,244
245,1696247967778,-0.0107421875,-0.97125244,0.02947998,-3.890625,1.390625,-0.4375,245
246,1696247967818,0.01586914,-0.9692993,0.003112793,-4.015625,1.28125,1.0,246
247,1696247967858,-0.0107421875,-0.98443604,0.05706787,-2.734375,-1.84375,1.75,247
248,1696247967898,-0.02734375,-1.0049438,0.06561279,-0.140625,-2.640625,1.015625,248
249,1696247967938,-0.0107421875,-0.97442627,0.0119018555,0.265625,-1.890625,-0.046875,249
250,1696247967978,0.012451172,-0.97540283,0.027282715,0.65625,-2.359375,0.359375,250
251,1696247968018,-0.026123047,-0.9795532,0.024108887,-1.578125,-3.578125,2.125,251
252,1696247968058,0.02758789,-0.9812622,0.046813965,0.96875,-2.15625,0.34375,252
253,1696247968098,-0.048828125,-1.0166626,0.039489746,2.96875,-6.40625,1.734375,253
254,1696247968138,-0.05102539,-1.0029907,0.10003662,6.484375,-2.5,2.21875,254
255,1696247968178,0.0073242188,-1.0335083,0.01727295,4.296875,1.46875,-0.5,255
256,1696247968218,-0.022705078,-0.95196533,-0.026916504,5.59375,-1.609375,-8.671875,256
257,1696247968258,0.015136719,-0.8753052,-0.077697754,-1.859375,-0.078125,0.4375,257
258,1696247968298,-0.04711914,-0.9944458,0.021911621,-2.328125,0.765625,1.625,258
259,1696247968338,-0.001953125,-1.072815,0.024353027,-1.625,1.140625,-2.34375,259
260,1696247968378,-0.0637207,-0.9734497,0.08001709,-2.390625,4.046875,1.328125,260
261,1696247968418,0.0031738281,-0.9951782,0.024353027,-1.328125,-2.921875,0.5625,261
262,1696247968458,-0.087402344,-0.99957275,0.028503418,-1.1875,0.421875,-1.6875,262
263,1696247968498,-0.010986328,-0.98272705,0.016784668,-4.140625,1.890625,-2.171875,263
264,1696247968538,0.061035156,-0.95391846,-6.1035156e-05,-3.578125,2.96875,-0.609375,264
265,1696247968578,-0.07299805,-0.99957275,0.047058105,0.359375,4.078125,2.328125,265
266,1696247968618,-0.024658203,-1.1038208,0.0524292,-0.109375,3.46875,0.75,266
267,1696247968658,-0.026123047,-0.89678955,0.044128418,-1.21875,2.921875,-2.71875,267
268,1696247968698,-0.0063476562,-1.0095825,-0.01739502,-3.140625,3.28125,2.109375,268
269,1696247968738,-0.0041503906,-1.0374146,0.054382324,-2.28125,0.53125,-1.1875,269
270,1696247968778,-0.052490234,-0.9326782,0.039489746,-0.21875,0.53125,0.453125,270
271,1696247968818,0.01586914,-0.9951782,0.005065918,1.5625,-0.84375,-1.34375,271
272,1696247968858,-0.04272461,-1.0349731,0.055847168,4.890625,-2.203125,0.4375,272
273,1696247968898,-0.032958984,-0.9661255,0.034606934,-0.34375,0.125,0.109375,273
274,1696247968938,0.0056152344,-0.9651489,0.019958496,1.1875,-2.796875,0.234375,274
275,1696247968978,-0.08666992,-1.0230103,0.029968262,1.6875,-4.46875,0.90625,275
276,1696247969018,0.0043945312,-0.9793091,0.018737793,1.078125,-1.15625,-0.21875,276
277,1696247969058,-0.044921875,-0.99176025,0.031188965,1.21875,-3.53125,0.046875,277
278,1696247969098,-0.041503906,-0.9841919,0.022399902,-0.546875,-1.734375,0.4375,278
279,1696247969138,-0.030517578,-1.0007935,0.030456543,0.796875,-2.0,-0.828125,279
280,1696247969178,-0.055908203,-0.991272,0.0028686523,0.28125,-1.140625,-0.921875,280
281,1696247969218,-0.057128906,-0.986145,-0.0022583008,-0.65625,0.828125,-0.546875,281
282,1696247969258,-0.033203125,-0.9807739,0.02142334,-1.890625,2.78125,-0.9375,282
283,1696247969298,-0.016845703,-0.989563,0.02947998,-2.890625,0.796875,0.90625,283
284,1696247969338,-0.028076172,-1.0098267,0.02142334,0.375,-1.546875,-0.90625,284
285,1696247969378,-0.07373047,-0.99542236,0.01727295,-0.5625,-0.609375,-1.25,285
286,1696247969418,0.0087890625,-0.97491455,0.015808105,0.828125,-0.09375,-0.453125,286
287,1696247969458,-0.046142578,-0.9944458,0.00970459,-1.78125,0.59375,0.71875,287
288,1696247969498,-0.026855469,-0.9961548,0.007019043,0.25,-0.546875,1.0625,288
289,1696247969538,-0.044433594,-0.972229,0.03753662,1.1875,0.46875,-0.125,289
290,1696247969578,-0.01586914,-0.9883423,0.023864746,1.0,-1.546875,1.5625,290
291,1696247969618,-0.049804688,-0.9985962,0.01361084,2.609375,0.40625,0.828125,291
292,1696247969658,-0.021484375,-0.98760986,0.029968262,-0.84375,1.25,3.421875,292
293,1696247969698,0.0056152344,-0.9763794,0.027282715,0.90625,-1.484375,1.703125,293
294,1696247969738,-0.057861328,-0.9915161,-0.04840088,-2.84375,2.484375,2.8125,294
295,1696247969778,0.03564453,-0.9458618,0.05609131,-0.53125,6.578125,5.09375,295
296,1696247969818,-0.14819336,-1.0459595,0.08074951,3.390625,-1.984375,6.625,296
297,1696247969858,0.0859375,-0.9234009,-0.019836426,-0.421875,-0.75,-3.09375,297
298,1696247969898,-0.03564453,-1.024231,0.039245605,3.78125,-5.203125,1.09375,298
299,1696247969938,-0.041015625,-1.0064087,0.0038452148,0.28125,-1.140625,1.609375,299
300,1696247969978,0.0036621094,-1.0159302,0.018493652,-1.546875,-0.953125,-1.296875,300
301,1696247970018,-0.047607422,-0.9859009,0.039245605,-1.9375,-2.40625,-3.28125,301
302,1696247970058,0.03881836,-0.95269775,0.015563965,0.203125,-2.6875,-2.5,302
303,1696247970098,-0.06616211,-0.99298096,0.031188965,1.265625,-3.078125,1.875,303
304,1696247970138,-0.024414062,-0.98394775,0.013122559,-0.890625,0.578125,-3.09375,304
305,1696247970178,-0.0009765625,-0.9734497,0.042419434,0.0,-3.890625,1.453125,305
306,1696247970218,-0.0625,-1.0261841,0.023620605,0.8125,-1.921875,0.28125,306
307,1696247970258,-0.037353516,-0.97662354,0.019226074,1.234375,-0.640625,-0.390625,307
308,1696247970298,0.0026855469,-0.9768677,0.021911621,1.5625,-0.171875,0.78125,308
309,1696247970338,-0.026855469,-0.98150635,-0.00079345703,-0.953125,-0.5625,1.75,309
310,1696247970378,-0.039794922,-1.000061,0.014343262,0.84375,-1.171875,0.328125,310
311,1696247970418,-0.015136719,-0.98394775,0.008728027,1.828125,-0.71875,0.3125,311
312,1696247970458,-0.024414062,-0.987854,0.0065307617,2.640625,-1.546875,-0.65625,312
313,1696247970498,-0.020507812,-0.9885864,-0.0032348633,1.0,-0.328125,0.3125,313
314,1696247970538,-0.035888672,-0.99102783,0.018981934,-4.625,0.0,-0.421875,314
315,1696247970578,-0.01586914,-0.9729614,0.039245605,-0.171875,0.03125,-0.546875,315
316,1696247970618,-0.03125,-0.987854,0.005065918,-0.234375,0.640625,0.828125,316
317,1696247970658,-0.025878906,-0.9976196,0.035095215,0.1875,-0.15625,-0.65625,317
318,1696247970698,-0.024169922,-0.9956665,0.038513184,1.171875,-0.828125,0.015625,318
319,1696247970738,-0.05810547,-0.99005127,0.030944824,1.828125,-1.484375,0.375,319
320,1696247970778,-0.03100586,-1.0132446,0.047302246,3.84375,0.453125,0.828125,320
321,1696247970818,-0.012939453,-1.0261841,0.032409668,3.203125,1.546875,2.890625,321
322,1696247970858,-0.041503906,-1.0733032,-0.049621582,1.3125,2.609375,-6.171875,322
323,1696247970898,0.008544922,-0.89141846,-0.07623291,1.53125,1.75,-9.015625,323
324,1696247970938,0.0041503906,-0.8726196,-0.07574463,0.65625,-0.984375,2.03125,324
325,1696247970978,-0.06933594,-1.0444946,-0.010803223,-1.671875,-1.4375,1.28125,325
326,1696247971018,-0.040039062,-0.9512329,0.05999756,-3.140625,2.453125,4.578125,326
327,1696247971058,0.0053710938,-1.0027466,0.022644043,0.390625,-0.5,1.84375,327
328,1696247971098,-0.119628906,-1.1299438,0.034362793,-0.875,-5.125,4.703125,328
329,1696247971138,-0.075683594,-0.93414307,0.011657715,1.171875,-2.640625,-5.5,329
330,1696247971178,0.039794922,-0.944397,-0.022521973,2.375,-3.03125,-2.046875,330
331,1696247971218,-0.036865234,-0.9578247,-0.046447754,-2.296875,-2.375,0.265625,331
332,1696247971258,-0.049072266,-0.98809814,0.008239746,0.96875,0.21875,-0.078125,332
333,1696247971298,-0.049804688,-1.0054321,0.09613037,4.9375,4.296875,0.375,333
334,1696247971338,-0.041015625,-1.029602,-0.07525635,-1.09375,-4.46875,-0.203125,334
335,1696247971378,-0.048095703,-0.9602661,-0.04058838,3.28125,-1.921875,-2.640625,335
336,1696247971418,-0.044921875,-0.97906494,-0.012268066,6.25,0.3125,0.0625,336
337,1696247971458,-0.03173828,-0.96417236,-0.032043457,3.4375,0.828125,0.5,337
338,1696247971498,0.0014648438,-0.9512329,-0.023986816,4.59375,0.46875,0.046875,338
339,1696247971538,-0.0715332,-1.045227,0.034362793,1.125,0.78125,0.78125,339
340,1696247971578,-0.07739258,-1.000061,-0.041809082,2.765625,0.015625,-1.78125,340
341,1696247971618,-0.00048828125,-1.0256958,-0.061584473,4.453125,-1.140625,-4.453125,341
342,1696247971658,-0.08251953,-0.96661377,-0.06964111,1.4375,-2.640625,-4.90625,342
343,1696247971698,0.020019531,-0.9116821,-0.04864502,-3.28125,1.296875,2.90625,343
344,1696247971738,-0.061279297,-0.9475708,-0.07086182,-11.296875,2.515625,2.578125,344
345,1696247971778,0.0087890625,-1.0029907,0.026550293,-2.265625,6.40625,5.234375,345
346,1696247971818,-0.13183594,-1.055481,-0.06719971,-7.5,-0.90625,6.34375,346
347,1696247971858,-0.041748047,-0.9312134,0.023132324,-2.15625,-1.859375,-2.78125,347
348,1696247971898,-0.0053710938,-1.0025024,-0.009094238,-5.578125,0.265625,2.03125,348
349,1696247971938,0.012207031,-0.9282837,0.039001465,-4.296875,0.875,2.359375,349
350,1696247971978,-0.08935547,-1.0549927,0.05657959,1.59375,-2.34375,4.921875,350
351,1696247972018,-0.087890625,-0.9795532,-0.027404785,-1.59375,-0.109375,-3.5,351
352,1696247972058,0.009521484,-0.9573364,0.09661865,2.125,-0.234375,1.8125,352
353,1696247972098,-0.010009766,-0.9998169,-0.026428223,-2.640625,4.78125,2.015625,353
354,1696247972138,-0.107421875,-1.0195923,0.113220215,-1.109375,-6.8125,0.390625,354
355,1696247972178,0.049804688,-0.98760986,-0.026916504,-0.21875,1.734375,-2.125,355
356,1696247972218,0.026367188,-0.98321533,0.04168701,-1.75,-0.96875,2.375,356
357,1696247972258,-0.11328125,-1.0105591,-0.008605957,-1.09375,-0.421875,0.125,357
358,1696247972298,0.008056641,-0.9871216,0.03387451,-0.859375,-2.578125,0.515625,358
359,1696247972338,-0.041259766,-0.9834595,0.015563965,-1.109375,0.984375,-0.375,359
360,1696247972378,0.10668945,-0.98760986,-0.01739502,1.15625,5.4375,2.765625,391
361,1696247972418,-0.05419922,-1.0195923,0.027526855,-1.78125,-4.40625,2.390625,392
362,1696247972458,-0.036132812,-0.95635986,-0.014953613,1.328125,4.71875,-3.546875,393
363,1696247972498,0.06762695,-0.9776001,0.0006713867,2.953125,3.09375,3.078125,394
364,1696247972538,-0.051757812,-0.96710205,0.02947998,-1.71875,-3.703125,-1.984375,395
365,1696247972578,-0.028320312,-1.0339966,-0.02935791,1.015625,5.609375,0.84375,396
366,1696247972618,0.028808594,-0.97906494,0.050964355,1.796875,-0.328125,-2.765625,397
367,1696247972658,-0.09765625,-1.010315,0.005554199,-0.5625,-1.265625,-0.125,398
368,1696247972698,0.025878906,-0.9475708,0.008483887,1.625,1.53125,-2.734375,399
369,1696247972738,0.03491211,-1.0252075,0.02508545,2.46875,0.234375,-2.265625,400
370,1696247972778,-0.06518555,-0.9968872,-0.008117676,-0.015625,1.546875,-1.5,401
371,1696247972818,-0.05419922,-0.98272705,-0.024230957,1.96875,1.046875,-4.203125,402
372,1696247972858,0.016601562,-0.9697876,-0.016174316,2.1875,3.640625,-1.640625,403
373,1696247972898,-0.030273438,-0.9734497,-0.026428223,0.015625,0.453125,-0.671875,404
374,1696247972938,-0.018066406,-0.98150635,0.007019043,0.359375,0.359375,-1.46875,405
375,1696247972978,-0.014404297,-1.013977,0.0028686523,1.25,0.4375,-0.921875,406
376,1696247973018,-0.047851562,-0.9771118,-0.027404785,-1.53125,-0.28125,-0.796875,407
377,1696247973058,-0.045410156,-0.9890747,0.0004272461,-0.484375,-1.0625,-0.0625,408
378,1696247973098,-0.010009766,-1.003479,0.003112793,0.25,1.046875,-0.375,409
379,1696247973138,-0.020263672,-0.96954346,-0.020568848,-1.578125,-1.3125,-0.78125,410
380,1696247973178,-0.06567383,-0.9771118,0.008483887,-1.0625,-1.296875,0.5,411
381,1696247973218,-0.053466797,-0.99542236,-0.011047363,-0.734375,1.328125,0.671875,412
382,1696247973258,-0.021728516,-0.99224854,-0.0056762695,-0.234375,0.078125,0.171875,413
383,1696247973298,-0.03125,-0.975647,-0.003479004,-3.125,-0.59375,1.78125,414
384,1696247973338,-0.020507812,-0.9656372,0.012145996,-0.296875,-2.078125,-0.25,415
385,1696247973378,-0.036865234,-1.0230103,-0.018859863,-0.546875,-1.15625,-0.671875,416
386,1696247973418,-0.0056152344,-0.97784424,0.029724121,0.125,-1.984375,-1.203125,417
387,1696247973458,-0.068603516,-0.98150635,-0.0044555664,-0.125,-2.09375,0.4375,418
388,1696247973498,-0.01928711,-0.99176025,0.012145996,0.390625,-2.359375,-0.859375,419
389,1696247973538,-0.03955078,-1.0120239,0.027038574,0.28125,-4.53125,-2.3125,420
390,1696247973578,-0.052978516,-1.0134888,0.019958496,0.53125,-7.296875,-3.09375,421
391,1696247973618,-0.02758789,-0.9805298,0.04119873,-0.890625,-2.640625,-1.859375,422
392,1696247973658,-0.087646484,-1.0032349,-0.034240723,4.53125,-5.5,-2.734375,423
393,1696247973698,0.00390625,-0.97125244,0.015808105,6.515625,-4.515625,-1.8125,424
394,1696247973738,-0.034423828,-0.9846802,-0.081604004,-0.15625,-6.171875,0.75,425
395,1696247973778,-0.053710938,-0.9241333,-0.015930176,-0.3125,-2.65625,2.84375,426
396,1696247973818,-0.015625,-0.9783325,-0.047912598,-6.328125,3.328125,3.84375,427
397,1696247973858,-0.012939453,-0.95806885,0.0099487305,-2.625,6.5,3.640625,428
398,1696247973898,-0.08984375,-1.0564575,0.034118652,-0.9375,3.4375,3.6875,429
399,1696247973938,-0.032958984,-0.93927,-0.026428223,-3.203125,4.296875,0.40625,430
400,1696247973978,0.011474609,-0.9902954,0.020690918,1.59375,3.75,2.421875,431
401,1696247974018,-0.05834961,-1.005188,-0.03643799,-2.4375,0.515625,2.71875,432
402,1696247974058,0.020019531,-0.9680786,0.0038452148,-3.9375,3.0625,2.140625,433
403,1696247974098,-0.04296875,-0.9920044,0.0602417,-0.53125,3.34375,2.96875,434
404,1696247974138,-0.028320312,-1.0459595,0.043884277,-2.65625,-2.359375,-0.046875,435
405,1696247974178,0.037109375,-0.92681885,-0.015686035,-0.921875,2.625,0.328125,436
406,1696247974218,-0.072021484,-1.0183716,0.06585693,1.71875,-5.375,2.109375,437
407,1696247974258,-0.008544922,-0.9937134,-0.00592041,-1.09375,0.140625,-1.4375,438
408,1696247974298,0.012207031,-0.96881104,0.0289917,1.875,-0.46875,3.625,439
409,1696247974338,-0.030273438,-1.006897,0.055358887,-0.515625,-3.421875,0.984375,440
410,1696247974378,-0.107910156,-1.0112915,-0.016662598,1.15625,0.296875,0.328125,441
411,1696247974418,0.13085938,-0.96881104,-0.0068969727,0.890625,3.765625,-0.4375,442
412,1696247974458,-0.036132812,-0.9885864,0.020935059,-2.015625,-8.5625,0.40625,443
413,1696247974498,-0.095703125,-0.97442627,-0.012756348,-1.09375,1.734375,-1.046875,444
414,1696247974538,0.072509766,-1.0078735,0.054138184,0.59375,-1.9375,-0.953125,445
415,1696247974578,-0.06689453,-0.9898071,0.0028686523,-1.984375,-3.109375,0.15625,446
416,1696247974618,-0.00390625,-0.99298096,0.012390137,1.53125,-0.65625,-2.734375,447
417,1696247974658,-0.016357422,-1.0105591,0.053894043,-0.953125,-1.78125,-2.484375,448
418,1696247974698,-0.020263672,-0.9468384,-0.019836426,-2.1875,0.984375,-0.75,449
419,1696247974738,-0.0063476562,-1.0022583,0.020202637,1.734375,-0.546875,-0.796875,450
420,1696247974778,-0.012207031,-0.9805298,-0.00079345703,-0.828125,-0.046875,0.125,451
421,1696247974818,-0.030761719,-0.9824829,0.009216309,0.34375,-0.109375,0.078125,452
422,1696247974858,-0.01586914,-1.0044556,0.018249512,2.078125,-0.296875,0.1875,453
423,1696247974898,-0.00024414062,-0.97857666,0.020690918,1.125,-1.34375,-0.203125,454
424,1696247974938,-0.03515625,-0.97125244,-0.024230957,0.8125,-2.8125,1.265625,455
425,1696247974978,-0.044921875,-1.0293579,0.008239746,1.59375,0.515625,2.015625,456
426,1696247975018,-0.04711914,-0.9734497,0.022155762,-1.140625,2.09375,1.5625,457
427,1696247975058,0.0048828125,-0.9890747,0.019470215,-1.015625,1.109375,1.265625,458
428,1696247975098,-0.07055664,-0.99835205,0.03265381,-3.15625,-0.0625,2.5625,459
429,1696247975138,-0.047607422,-0.9939575,0.00018310547,-0.234375,1.796875,-1.0,460
430,1696247975178,0.021484375,-0.98028564,-6.1035156e-05,-1.859375,0.796875,-0.046875,461
431,1696247975218,-0.0007324219,-0.99346924,0.038024902,-2.34375,0.265625,-0.25,462
432,1696247975258,-0.06933594,-1.0093384,0.04119873,-1.765625,-0.9375,-2.390625,463
433,1696247975298,0.013916016,-0.98638916,0.007507324,-2.78125,0.09375,-1.984375,464
434,1696247975338,-0.018310547,-0.9871216,0.042175293,-1.859375,-3.265625,-3.296875,465
435,1696247975378,-0.04345703,-0.9795532,0.026062012,-0.171875,-2.84375,-2.296875,466
436,1696247975418,-0.037597656,-0.99005127,0.01361084,-1.234375,0.5625,-1.703125,467
437,1696247975458,-0.034423828,-0.96173096,0.07122803,-0.28125,-2.96875,-0.515625,468
438,1696247975498,-0.051513672,-0.9854126,0.026550293,-1.171875,-1.03125,-0.015625,469
439,1696247975538,-0.015380859,-0.9981079,0.013366699,-2.3125,-1.328125,-1.203125,470
440,1696247975578,-0.07006836,-1.0044556,0.059020996,-2.0625,-3.1875,-0.296875,471
441,1696247975618,-0.036132812,-0.95440674,0.038024902,0.078125,-2.265625,-0.0625,472
442,1696247975658,-0.044189453,-1.013977,0.055847168,2.515625,-6.109375,0.84375,473
443,1696247975698,-0.087890625,-1.0408325,0.010192871,4.453125,-4.5625,-2.15625,474
444,1696247975738,0.0061035156,-0.91900635,0.026794434,1.671875,-1.0625,-0.796875,475
445,1696247975778,-0.049804688,-0.97540283,-0.0012817383,0.59375,-2.484375,0.859375,476
446,1696247975818,-0.049072266,-0.99102783,0.034606934,-1.4375,1.5625,1.078125,477
447,1696247975858,-0.032958984,-0.9924927,0.041931152,-0.40625,-0.546875,0.71875,478
448,1696247975898,-0.0715332,-0.9949341,0.042663574,1.0625,-0.171875,1.609375,479
449,1696247975938,-0.03491211,-0.97540283,0.042419434,-0.5625,1.140625,0.171875,480
450,1696247975978,-0.03491211,-0.9961548,0.020690918,-1.125,0.484375,1.671875,481
451,1696247976018,-0.063964844,-1.0044556,0.0524292,-0.578125,-0.78125,0.609375,482
452,1696247976058,-0.02368164,-0.9932251,0.022888184,-0.09375,0.4375,0.28125,483
453,1696247976098,-0.041015625,-0.97540283,0.01727295,0.734375,-0.234375,-0.078125,484
454,1696247976138,-0.05419922,-1.0066528,0.04095459,0.640625,0.078125,-2.5,485
455,1696247976178,-0.01977539,-0.956604,0.007751465,-3.734375,1.84375,-0.6875,486
456,1696247976218,-0.03930664,-0.98150635,0.049987793,-3.09375,0.46875,0.484375,487
457,1696247976258,-0.055664062,-1.0205688,0.054138184,-1.3125,-0.484375,-0.796875,488
458,1696247976298,-0.032714844,-0.98443604,0.018005371,-0.9375,-0.75,-1.15625,489
459,1696247976338,-0.048828125,-0.9834595,0.050231934,-0.578125,-1.53125,-1.234375,490
460,1696247976378,-0.06201172,-0.9883423,0.062194824,-1.25,-0.34375,-0.84375,491
461,1696247976418,-0.041503906,-0.9859009,0.078063965,0.203125,-1.75,-0.078125,492
462,1696247976458,-0.05883789,-1.0220337,0.03289795,0.484375,-2.15625,0.265625,493
463,1696247976498,-0.046142578,-1.0166626,0.059020996,-0.75,2.296875,1.640625,494
464,1696247976538,-0.057861328,-1.0120239,-0.024963379,0.8125,2.515625,-2.828125,495
465,1696247976578,-0.025146484,-0.92803955,0.029724121,-0.078125,-0.21875,-2.734375,496
466,1696247976618,-0.060546875,-0.9541626,0.015075684,-0.90625,-1.734375,1.203125,497
467,1696247976658,-0.04296875,-1.0144653,0.046081543,-3.609375,-1.046875,1.609375,498
468,1696247976698,-0.09887695,-0.9973755,0.06976318,-2.203125,-1.609375,0.828125,499
469,1696247976738,-0.05859375,-1.000061,0.06390381,-1.859375,-2.234375,1.421875,500
470,1696247976778,-0.0390625,-0.9907837,0.06781006,-0.296875,-2.9375,0.25,501
471,1696247976818,-0.06567383,-0.98809814,0.06097412,-0.203125,-4.171875,0.234375,502
472,1696247976858,-0.06762695,-0.9854126,0.06121826,0.625,-0.8125,0.640625,503
473,1696247976898,-0.07348633,-0.9907837,0.11639404,2.953125,-2.484375,0.265625,504
474,1696247976938,-0.0390625,-1.0418091,0.07147217,4.3125,2.6875,2.75,505
475,1696247976978,-0.072509766,-1.010315,0.051940918,2.796875,-2.171875,1.5625,506
476,1696247977018,-0.03540039,-1.0405884,-0.062072754,4.09375,-1.484375,-7.234375,507
477,1696247977058,0.0043945312,-0.8423462,-0.0010375977,0.078125,-0.171875,-0.359375,508
478,1696247977098,-0.011474609,-0.91729736,-0.031311035,-1.390625,-3.5,4.671875,509
479,1696247977138,-0.091308594,-0.9920044,0.039733887,-3.609375,0.703125,3.890625,510
480,1696247977178,-0.15258789,-1.0808716,0.21502686,4.859375,3.875,7.046875,511
481,1696247977218,-0.025390625,-0.8921509,0.05340576,-2.484375,-3.96875,1.4375,512
482,1696247977258,0.0048828125,-0.99591064,-0.00592041,-1.484375,1.421875,3.34375,513
483,1696247977298,-0.026855469,-1.0046997,0.03314209,-1.484375,3.09375,4.21875,514
484,1696247977338,-0.047851562,-1.0342407,0.07318115,-1.4375,-1.65625,1.234375,515
485,1696247977378,0.0,-0.96343994,0.020446777,-0.34375,1.15625,0.125,516
486,1696247977418,-0.036132812,-0.9985962,0.04486084,-1.65625,2.796875,1.5,517
487,1696247977458,-0.06982422,-1.0090942,0.1083374,0.671875,-3.546875,0.515625,518
488,1696247977498,0.015136719,-0.9619751,0.05657959,1.265625,-3.71875,0.703125,519
489,1696247977538,-0.004638672,-0.9951782,0.058288574,-0.578125,-4.859375,-0.96875,520
490,1696247977578,-0.06982422,-1.0010376,0.06317139,0.4375,-4.21875,0.671875,521
491,1696247977618,0.010498047,-0.99835205,0.039489746,-1.09375,-1.140625,-0.484375,522
492,1696247977658,0.0234375,-0.9963989,0.11175537,0.5,-4.765625,-0.09375,523
493,1696247977698,-0.060058594,-0.9981079,-0.03277588,1.34375,-6.671875,1.796875,524
494,1696247977738,-0.022949219,-0.9487915,0.06561279,0.140625,-2.75,-1.609375,525
495,1696247977778,-0.0029296875,-0.9649048,0.05218506,0.171875,-2.953125,1.515625,526
496,1696247977818,-0.030517578,-0.98565674,0.059020996,1.625,-3.0,-0.4375,527
497,1696247977858,-0.022705078,-1.0064087,0.049987793,2.171875,-1.9375,-0.0625,528
498,1696247977898,-0.06201172,-0.9807739,0.026062012,1.34375,-2.234375,1.0625,529
499,1696247977938,-0.03149414,-1.0054321,0.050476074,0.671875,-0.234375,-0.203125,530
500,1696247977978,0.0073242188,-0.98760986,0.02557373,-1.265625,-0.421875,0.28125,531
501,1696247978018,-0.045898438,-0.97369385,0.042419434,-4.859375,1.625,2.5,532
502,1696247978058,-0.061767578,-1.0134888,0.07489014,-2.171875,0.78125,1.21875,533
503,1696247978098,-0.009277344,-0.99053955,0.09442139,0.390625,1.796875,0.875,534
504,1696247978138,0.0021972656,-0.9734497,0.042907715,1.5,0.109375,-1.796875,535
505,1696247978178,-0.049560547,-0.9932251,0.04534912,-1.4375,1.0,1.5,536
506,1696247978218,-0.016113281,-0.97662354,0.06512451,-2.546875,5.46875,1.8125,537
507,1696247978258,0.001953125,-0.98443604,0.039245605,-0.296875,2.09375,0.484375,538
508,1696247978298,-0.018310547,-1.0015259,0.047790527,-0.171875,-0.34375,0.265625,539
509,1696247978338,-0.044677734,-0.9927368,0.005554199,-3.984375,3.390625,1.28125,540
510,1696247978378,0.0026855469,-0.9439087,0.03656006,-0.625,6.671875,2.09375,541
511,1696247978418,-0.07495117,-1.1426392,0.13909912,0.84375,-6.171875,0.46875,542
512,1696247978458,0.06323242,-0.95196533,0.050964355,1.484375,-4.875,-4.890625,543
513,1696247978498,-0.044433594,-1.0310669,0.04168701,-0.140625,-3.234375,-0.09375,544
514,1696247978538,-0.049560547,-0.99102783,0.055603027,-1.515625,0.328125,-2.015625,545
515,1696247978578,0.060058594,-0.958313,0.02166748,-2.765625,1.421875,0.0,546
516,1696247978618,-0.06738281,-1.0300903,0.097839355,0.859375,-4.15625,3.109375,547
517,1696247978658,-0.024658203,-1.0095825,0.06121826,-0.75,0.703125,-3.453125,548
518,1696247978698,-0.0073242188,-0.94659424,0.034118652,-2.640625,-2.8125,-2.890625,549
519,1696247978738,0.012207031,-1.003479,0.034118652,3.140625,-3.265625,-1.96875,550
520,1696247978778,-0.025878906,-0.97857666,0.03314209,-0.1875,-1.46875,-0.34375,551
521,1696247978818,-0.03881836,-0.9990845,0.044128418,-0.09375,-0.5625,-0.265625,552
522,1696247978858,0.024658203,-0.9866333,0.03656006,1.0625,-3.5,-0.21875,553
523,1696247978898,0.03466797,-1.0215454,0.054382324,-1.578125,-6.359375,-0.9375,554
524,1696247978938,-0.02734375,-0.97198486,0.044128418,-3.3125,-8.265625,-1.765625,555
525,1696247978978,-0.008056641,-0.93707275,0.057800293,-1.453125,-8.4375,-1.828125,556
526,1696247979018,-0.068115234,-1.0042114,0.09466553,0.84375,-8.609375,0.109375,557
527,1696247979058,-0.11279297,-1.0112915,0.08050537,1.046875,-4.34375,3.328125,558
528,1696247979098,-0.047851562,-0.98150635,0.04949951,-0.28125,-1.609375,2.53125,559
529,1696247979138,-0.052490234,-0.9807739,0.066345215,-2.71875,-0.140625,3.9375,560
530,1696247979178,-0.0017089844,-0.9871216,0.08465576,-0.453125,-1.125,1.859375,561
531,1696247979218,-0.03100586,-0.9702759,0.055114746,1.484375,-2.578125,0.140625,562
532,1696247979258,-0.049560547,-0.9902954,0.0524292,2.203125,-0.4375,1.234375,563
533,1696247979298,-0.03955078,-0.9968872,0.043151855,1.46875,2.421875,-0.28125,564
534,1696247979338,-0.029052734,-1.0020142,0.06829834,1.65625,3.59375,-0.203125,565
535,1696247979378,-0.028564453,-0.98516846,0.055114746,0.40625,2.234375,0.71875,566
536,1696247979418,-0.014160156,-0.98516846,0.05316162,1.46875,1.390625,0.03125,567
537,1696247979458,-0.04638672,-1.0095825,0.06097412,0.9375,1.09375,1.234375,568
538,1696247979498,-0.025878906,-0.98638916,0.066833496,0.921875,-0.3125,0.875,569
539,1696247979538,0.010009766,-0.9846802,0.042907715,2.765625,1.328125,-0.359375,570
540,1696247979578,-0.020996094,-0.9883423,0.057556152,2.859375,0.15625,0.453125,571
541,1696247979618,-0.029541016,-0.98394775,0.030700684,1.890625,1.078125,0.90625,572
542,1696247979658,-0.013183594,-0.9768677,0.050231934,-1.15625,1.21875,0.140625,573
543,1696247979698,-0.020507812,-0.97784424,0.043151855,-1.40625,2.171875,2.1875,574
544,1696247979738,-0.03125,-1.0083618,0.07098389,0.140625,-0.46875,0.203125,575
545,1696247979778,-0.026611328,-1.0110474,0.07952881,1.734375,0.25,-0.25,576
546,1696247979818,-0.03857422,-1.029602,0.09588623,1.84375,3.03125,1.546875,577
547,1696247979858,-0.037353516,-0.960022,0.12860107,-4.984375,3.390625,-0.34375,578
548,1696247979898,-0.016601562,-0.99664307,-0.029846191,3.390625,1.625,-5.5,579
549,1696247979938,0.052001953,-0.9221802,-0.02935791,0.40625,0.0,-2.6875,580
550,1696247979978,-0.076171875,-0.9805298,0.027770996,-0.171875,-1.171875,2.984375,581
551,1696247980018,-0.03173828,-1.0032349,0.046325684,-1.171875,1.328125,1.265625,582
552,1696247980058,-0.041992188,-1.0049438,0.07928467,1.3125,-3.765625,0.734375,583
553,1696247980098,-0.014892578,-1.0264282,0.057556152,2.734375,-3.578125,1.5,584
554,1696247980138,-0.022460938,-0.9985962,0.077819824,3.5625,-1.84375,1.640625,585
555,1696247980178,-0.032470703,-1.0264282,-0.0020141602,6.203125,-2.28125,2.765625,586
556,1696247980218,-0.0017089844,-0.93634033,-0.013000488,0.921875,2.1875,-5.265625,587
557,1696247980258,0.033447266,-0.89801025,-0.03375244,1.59375,-0.890625,1.109375,588
558,1696247980298,-0.075927734,-0.9697876,0.04486084,-6.53125,-4.796875,1.40625,589
559,1696247980338,-0.0048828125,-0.9714966,0.035583496,-3.375,6.9375,2.25,590
560,1696247980378,-0.036132812,-1.05719,0.15594482,-0.015625,7.046875,2.21875,591
561,1696247980418,-0.03466797,-0.9507446,0.053649902,-2.1875,-5.578125,-0.109375,592
562,1696247980458,-0.01171875,-1.015686,0.038024902,-1.1875,1.421875,1.703125,593
563,1696247980498,-0.0041503906,-0.9492798,0.05706787,-2.65625,4.484375,1.953125,594
564,1696247980538,-0.034423828,-1.0549927,0.10003662,1.9375,-1.546875,2.40625,595
565,1696247980578,0.0053710938,-0.9480591,0.005554199,-0.84375,-1.234375,-4.546875,596
566,1696247980618,-0.014160156,-0.9968872,0.08148193,3.1875,-0.328125,0.0,597
567,1696247980658,-0.03125,-1.017395,0.024353027,0.8125,-2.46875,0.203125,598
568,1696247980698,0.009765625,-0.9421997,0.04119873,1.984375,1.8125,0.53125,599
569,1696247980738,-0.011230469,-1.0144653,0.03265381,0.859375,-0.640625,1.328125,600
570,1696247980778,-0.024658203,-0.9898071,0.02142334,-1.90625,0.109375,1.171875,601
571,1696247980818,-0.037109375,-1.0176392,0.038757324,-0.5625,-1.953125,0.171875,602
572,1696247980858,-0.01977539,-0.97076416,0.038269043,-1.71875,-0.328125,0.53125,603
573,1696247980898,-0.015380859,-0.99664307,0.024841309,-0.515625,-0.53125,1.265625,604
574,1696247980938,-0.064697266,-0.987854,0.026794434,-1.453125,2.015625,2.734375,605
575,1696247980978,-0.03100586,-0.99176025,0.043884277,-1.59375,5.375,4.40625,606
576,1696247981018,-0.037597656,-0.9968872,0.031433105,-0.734375,4.421875,5.796875,607
577,1696247981058,0.068603516,-0.96099854,0.0446167,0.34375,1.34375,4.265625,608
578,1696247981098,0.08886719,-0.9846802,0.023376465,1.390625,-3.203125,-0.375,609
579,1696247981138,0.014892578,-0.9907837,0.01776123,-0.140625,-6.640625,-0.328125,610
580,1696247981178,-0.0031738281,-0.9854126,0.049987793,1.46875,-5.953125,-1.71875,611
581,1696247981218,-0.0026855469,-1.0205688,0.039489746,1.8125,-5.78125,-2.0,612
582,1696247981258,0.025390625,-0.99713135,0.01776123,0.140625,-5.515625,-1.703125,613
583,1696247981298,-0.007080078,-0.9805298,0.03363037,-1.0,-6.0625,-1.953125,614
584,1696247981338,0.0075683594,-0.9849243,0.04095459,-2.90625,-3.421875,-1.78125,615
585,1696247981378,-0.009277344,-0.98809814,0.054626465,-3.734375,-3.203125,-2.609375,616
586,1696247981418,-0.051757812,-0.9883423,0.074645996,-1.84375,-2.90625,-2.484375,617
587,1696247981458,-0.040039062,-0.9768677,0.04876709,-1.640625,1.84375,-1.34375,618
588,1696247981498,-0.03564453,-1.0078735,0.058532715,-2.078125,2.65625,-0.671875,619
589,1696247981538,-0.02319336,-0.9871216,0.06878662,-0.8125,2.46875,-0.046875,620
590,1696247981578,0.0073242188,-0.96759033,0.05340576,-2.21875,4.9375,-0.90625,621
591,1696247981618,0.0053710938,-0.9788208,0.038024902,-2.75,5.734375,1.640625,622
592,1696247981658,-0.04345703,-1.0195923,0.097351074,0.390625,3.015625,0.4375,623
593,1696247981698,0.02319336,-1.0039673,0.054382324,0.921875,0.40625,-4.109375,624
594,1696247981738,-0.041992188,-0.9612427,0.06072998,2.234375,-1.015625,0.015625,625
595,1696247981778,0.016601562,-0.98028564,0.03387451,3.125,-0.03125,-0.296875,626
596,1696247981818,-0.03540039,-0.9981079,0.046325684,1.640625,0.375,0.65625,627
597,1696247981858,-0.00390625,-0.9714966,0.04095459,-0.484375,2.46875,-0.03125,628
598,1696247981898,-0.020751953,-0.9920044,0.06341553,0.109375,0.609375,-0.046875,629
599,1696247981938,-0.032470703,-0.99542236,0.055847168,0.734375,0.203125,-0.25,630
600,1696247981978,-0.029785156,-0.9883423,0.045837402,0.71875,0.125,0.40625,631
601,1696247982018,-0.015625,-0.98809814,0.05267334,0.578125,1.0,-0.15625,632
602,1696247982058,-0.02319336,-1.0044556,0.039978027,0.21875,0.875,0.8125,633
603,1696247982098,-0.015625,-0.98272705,0.046569824,0.546875,0.5625,0.0625,634
604,1696247982138,-0.022460938,-0.9932251,0.03338623,-0.265625,0.421875,-0.21875,635
605,1696247982178,-0.01928711,-0.9854126,0.051696777,0.625,0.125,-0.9375,636
606,1696247982218,-0.028564453,-0.9920044,0.038269043,-0.21875,-1.953125,-0.734375,637
607,1696247982258,-0.043701172,-0.98760986,0.055114746,-1.3125,-3.4375,0.0625,638
608,1696247982298,-0.051513672,-1.0130005,0.10076904,-4.90625,-1.46875,2.796875,639
609,1696247982338,-0.016357422,-1.0029907,0.08294678,-3.015625,7.0625,1.0,640
610,1696247982378,0.010498047,-1.0620728,0.010192871,6.71875,-1.671875,-3.5,641
611,1696247982418,-0.045898438,-0.9175415,-0.00079345703,4.703125,-1.890625,-3.40625,642
612,1696247982458,-0.011230469,-0.89312744,-0.020080566,4.046875,2.78125,3.90625,643
613,1696247982498,-0.03100586,-1.0181274,-0.008117676,4.796875,0.71875,0.90625,644
614,1696247982538,0.0078125,-0.9602661,0.054626465,-1.203125,1.125,2.71875,645
615,1696247982578,-0.06347656,-0.97198486,0.03387451,-3.578125,0.203125,0.5625,646
616,1696247982618,-0.021728516,-0.9907837,-0.0017700195,-0.921875,1.34375,0.625,647
617,1696247982658,0.0024414062,-0.99542236,0.035583496,-1.875,0.125,0.203125,648
618,1696247982698,-0.055908203,-1.0042114,0.09075928,-0.53125,0.328125,2.859375,649
619,1696247982738,-0.04272461,-0.99591064,0.022155762,-1.125,0.0,-0.296875,650
620,1696247982778,0.061279297,-0.9570923,0.059020996,-2.0,3.421875,0.265625,651
621,1696247982818,-0.13793945,-1.0491333,0.101257324,3.25,-4.84375,1.5,652
622,1696247982858,0.032226562,-0.95025635,0.0040893555,-2.484375,7.59375,0.921875,653
623,1696247982898,-0.020263672,-0.99176025,0.1461792,0.40625,-2.53125,0.984375,654
624,1696247982938,-0.0637207,-0.9837036,0.009460449,-1.484375,1.140625,2.171875,655
625,1696247982978,0.050048828,-0.9673462,0.0848999,-0.609375,4.34375,-1.1875,656
626,1696247983018,-0.072265625,-0.9602661,0.042175293,1.390625,-2.515625,2.390625,657
627,1696247983058,-0.049804688,-1.0164185,0.066833496,4.421875,-2.125,1.59375,658
628,1696247983098,0.020263672,-0.986145,-0.023986816,1.515625,3.15625,-1.65625,659
629,1696247983138,0.05493164,-0.9373169,0.035095215,0.484375,1.03125,2.46875,660
630,1696247983178,-0.095458984,-1.0227661,0.034362793,1.40625,-3.109375,-0.734375,661
631,1696247983218,0.046875,-0.9458618,-0.0025024414,0.84375,1.734375,0.21875,662
632,1696247983258,-0.012939453,-1.0408325,0.06097412,2.765625,-4.59375,-0.25,663
633,1696247983298,-0.03125,-0.9817505,0.047546387,0.03125,-2.78125,-2.5,664
634,1696247983338,0.0075683594,-0.9944458,0.0038452148,6.078125,6.65625,-0.34375,665
635,1696247983378,-0.029052734,-0.9902954,-0.011779785,4.3125,1.65625,2.59375,666
636,1696247983418,-0.03930664,-0.9302368,0.034118652,6.28125,-1.96875,0.171875,667
637,1696247983458,-0.012451172,-0.9673462,0.016296387,5.140625,0.296875,-1.453125,668
638,1696247983498,-0.04736328,-1.0108032,0.016540527,3.625,-0.015625,-0.046875,669
639,1696247983538,-0.044677734,-1.0161743,-0.011047363,1.828125,0.5,-1.890625,670
640,1696247983578,-0.016113281,-0.98028564,-0.004699707,-0.78125,0.5625,-2.953125,671
641,1696247983618,-0.02319336,-0.9885864,0.022888184,-5.46875,-5.21875,-2.171875,672
642,1696247983658,-0.029052734,-1.0029907,0.022644043,-5.375,-7.203125,1.15625,673
643,1696247983698,0.00024414062,-1.0239868,0.018737793,-11.390625,3.140625,-2.25,674
644,1696247983738,-0.02709961,-0.9949341,0.04119873,-6.453125,0.125,-3.015625,675
645,1696247983778,-0.014892578,-0.9902954,-0.05670166,0.90625,-4.15625,-4.140625,676
646,1696247983818,0.052246094,-0.9048462,0.003112793,3.484375,2.59375,0.6875,677
647,1696247983858,-0.07763672,-0.96295166,-0.02545166,3.484375,-3.125,4.609375,678
648,1696247983898,-0.03564453,-1.0166626,0.0119018555,0.046875,-0.78125,3.375,679
649,1696247983938,-0.0036621094,-0.9221802,0.085876465,-2.140625,0.96875,-0.234375,680
650,1696247983978,-0.075927734,-1.0610962,0.027770996,0.890625,1.359375,3.90625,681
651,1696247984018,0.037353516,-1.0066528,-0.049621582,-1.828125,-1.484375,0.109375,682
652,1696247984058,0.011230469,-0.9312134,0.082458496,-0.375,2.890625,1.578125,683
653,1696247984098,-0.13964844,-1.0305786,0.043884277,-0.484375,-0.796875,4.984375,684
654,1696247984138,-0.008056641,-0.9727173,0.055114746,-1.203125,5.125,-3.671875,685
655,1696247984178,0.068603516,-0.93463135,0.023864746,-0.75,-2.65625,0.53125,686
656,1696247984218,-0.08203125,-1.0320435,-0.0025024414,2.25,-1.421875,4.5625,687
657,1696247984258,0.0,-0.973938,0.018981934,-3.109375,-0.890625,2.046875,688
658,1696247984298,0.04248047,-0.9915161,0.006286621,3.375,-0.671875,-0.734375,689
659,1696247984338,-0.09887695,-0.9837036,0.07342529,1.140625,-2.5,1.96875,690
660,1696247984378,0.051513672,-0.99005127,0.012878418,2.34375,3.921875,1.09375,691
661,1696247984418,-0.061279297,-1.006897,0.05316162,-1.984375,-1.46875,-0.46875,692
662,1696247984458,-0.045410156,-0.9871216,0.07952881,-0.296875,-1.546875,1.828125,693
663,1696247984498,0.061767578,-1.0027466,0.028747559,-0.140625,-0.03125,-1.421875,694
664,1696247984538,-0.064941406,-0.9746704,0.058776855,-1.328125,-0.921875,0.765625,695
665,1696247984578,0.026367188,-1.0093384,-0.025939941,0.25,3.140625,-0.34375,696
666,1696247984618,-0.046875,-0.96173096,0.050476074,-2.28125,-5.015625,-0.03125,697
667,1696247984658,0.05517578,-1.0286255,-0.00982666,1.84375,1.453125,-1.5,698
668,1696247984698,0.0031738281,-0.97857666,0.034851074,-1.296875,-5.453125,-1.46875,699
669,1696247984738,-0.032958984,-0.9734497,-0.032287598,0.390625,1.8125,-0.609375,700
670,1696247984778,0.06347656,-1.0449829,0.051452637,3.203125,5.84375,-1.25,701
671,1696247984818,-0.041748047,-0.9915161,0.04876709,-1.984375,-3.234375,-0.984375,702
672,1696247984858,-0.045654297,-0.9258423,0.025817871,-2.609375,0.859375,2.90625,703
673,1696247984898,0.033935547,-1.0066528,0.010437012,-0.515625,0.0,-0.390625,704
674,1696247984938,-0.050048828,-1.0110474,0.058532715,-4.21875,-3.28125,-0.09375,705
675,1696247984978,-0.028564453,-0.92022705,0.0065307617,-1.796875,-0.1875,-0.21875,706
676,1696247985018,-0.0043945312,-0.99542236,0.078552246,-0.75,-0.875,-1.578125,707
677,1696247985058,-0.05126953,-0.99346924,0.007507324,-3.5625,-0.6875,1.125,708
678,1696247985098,-0.0073242188,-0.972229,0.10662842,-0.515625,-1.53125,-0.796875,709
679,1696247985138,-0.07299805,-0.99053955,0.005065918,-2.890625,3.328125,-1.578125,710
680,1696247985178,0.05102539,-1.0020142,0.07293701,3.9375,-2.828125,-0.828125,711
681,1696247985218,-0.0769043,-1.003479,0.011413574,-1.046875,-2.78125,-1.234375,712
682,1696247985258,-0.0024414062,-0.95513916,0.050476074,0.3125,1.671875,-1.578125,713
683,1696247985298,-0.014892578,-1.0244751,0.08343506,1.71875,-2.5625,-2.703125,714
684,1696247985338,-0.01928711,-0.960022,0.024108887,-0.359375,-2.265625,-2.1875,715
685,1696247985378,-0.052246094,-0.9968872,0.031433105,2.640625,-3.203125,-1.5,716
686,1696247985418,-0.05053711,-0.9795532,0.051452637,2.9375,-3.59375,-0.8125,717
687,1696247985458,-0.07421875,-1.0071411,0.05706787,2.671875,-6.59375,0.71875,718
688,1696247985498,-0.022216797,-1.0073853,0.070739746,-4.046875,-5.53125,-2.34375,719
689,1696247985538,-0.057617188,-0.9932251,0.07562256,-2.109375,-1.609375,-2.8125,720
690,1696247985578,-0.09765625,-0.9780884,0.014099121,1.4375,0.671875,-4.375,721
691,1696247985618,0.019042969,-0.923645,0.035583496,2.65625,0.09375,0.96875,722
692,1696247985658,-0.059326172,-1.0222778,0.034851074,3.921875,0.1875,0.796875,723
693,1696247985698,-0.048095703,-0.97784424,0.010437012,-1.046875,-0.484375,-1.046875,724
694,1696247985738,-0.06665039,-0.96710205,0.04119873,3.078125,-0.546875,1.234375,725
695,1696247985778,-0.06201172,-1.0310669,0.046813965,1.984375,1.390625,0.90625,726
696,1696247985818,-0.021972656,-0.9746704,0.04510498,-0.96875,-0.6875,1.40625,727
697,1696247985858,-0.052001953,-1.0022583,0.049743652,0.265625,-3.515625,1.265625,728
698,1696247985898,-0.06225586,-1.0198364,0.038024902,0.078125,-2.953125,2.15625,729
699,1696247985938,-0.040039062,-0.99835205,0.051940918,2.140625,0.421875,-0.046875,730
700,1696247985978,-0.068115234,-1.003479,0.018493652,4.25,-6.578125,-2.796875,731
701,1696247986018,0.036865234,-0.93218994,-0.014221191,2.65625,-3.71875,0.796875,732
702,1696247986058,-0.09423828,-0.9546509,0.009216309,1.40625,-2.53125,2.796875,733
703,1696247986098,-0.07910156,-1.0432739,0.059753418,0.015625,0.15625,0.015625,734
704,1696247986138,0.0146484375,-0.9505005,0.024353027,-1.453125,-0.609375,0.390625,735
705,1696247986178,-0.07080078,-1.0039673,0.0446167,-1.0625,-3.5,2.015625,736
706,1696247986218,-0.076416016,-1.0413208,0.03656006,0.609375,-1.609375,0.03125,737
707,1696247986258,-0.020996094,-0.9849243,0.05340576,-1.625,-3.234375,-2.890625,738
708,1696247986298,-0.09106445,-0.9993286,-0.0032348633,1.46875,1.125,-2.53125,739
709,1696247986338,-0.0146484375,-0.9229126,0.010192871,0.8125,4.5,-0.875,740
710,1696247986378,-0.046875,-0.97979736,-0.0256958,3.671875,3.171875,2.203125,741
711,1696247986418,-0.03540039,-0.9483032,0.0099487305,1.203125,2.171875,4.546875,742
712,1696247986458,-0.033691406,-0.9717407,0.007019043,-1.5,0.09375,6.703125,743
713,1696247986498,-0.049316406,-0.99713135,0.023132324,-2.96875,5.234375,3.0625,744
714,1696247986538,-0.0041503906,-1.0405884,0.08294678,-2.890625,2.65625,1.921875,745
715,1696247986578,-0.053955078,-1.0059204,0.016784668,-3.609375,-3.8125,-1.140625,746
716,1696247986618,-0.00048828125,-0.9487915,0.018249512,-3.578125,3.484375,0.265625,747
717,1696247986658,-0.05419922,-1.0171509,0.09295654,-0.484375,-0.484375,2.0625,748
718,1696247986698,-0.04736328,-1.0195923,0.03778076,-1.484375,-2.859375,-0.46875,749
719,1696247986738,-0.0029296875,-0.9741821,0.06536865,-2.125,0.109375,-0.90625,750
720,1696247986778,-0.09008789,-0.9812622,0.062194824,-0.765625,-2.0,0.015625,751
721,1696247986818,-0.011474609,-0.9949341,0.028259277,-1.71875,1.171875,0.015625,752
722,1696247986858,-0.017578125,-1.0112915,0.05340576,0.5,-1.6875,-1.859375,753
723,1696247986898,-0.06665039,-0.9446411,0.053649902,-1.203125,-0.875,1.125,754
724,1696247986938,-0.034179688,-1.0066528,0.046569824,-1.6875,1.53125,-0.921875,755
725,1696247986978,-0.0014648438,-1.0027466,0.03387451,-1.828125,-0.984375,-2.671875,756
726,1696247987018,-0.026123047,-0.9470825,0.066101074,-0.5625,-1.890625,-1.3125,757
727,1696247987058,-0.05834961,-0.9898071,0.04437256,1.90625,-2.546875,-0.8125,758
728,1696247987098,-0.06542969,-0.98516846,0.04486084,2.9375,-1.734375,-0.3125,759
729,1696247987138,-0.028808594,-0.99542236,0.04168701,2.40625,-0.546875,-0.390625,760
730,1696247987178,-0.043701172,-0.98687744,0.016784668,0.515625,-1.34375,0.140625,761
731,1696247987218,-0.013671875,-0.9783325,0.042175293,0.5625,-0.28125,-0.625,762
732,1696247987258,-0.06225586,-0.9985962,0.035583496,0.78125,-2.21875,0.90625,763
733,1696247987298,-0.056396484,-0.98931885,0.042907715,1.1875,-1.859375,1.515625,764
734,1696247987338,-0.040283203,-0.9907837,0.043884277,1.6875,-2.0,1.09375,765
735,1696247987378,-0.057373047,-0.9866333,0.04534912,0.953125,-1.96875,0.75,766
736,1696247987418,-0.041748047,-0.9985962,0.018981934,1.046875,-0.875,0.875,767
737,1696247987458,-0.061035156,-1.0081177,0.035339355,1.140625,-1.625,1.0,768
738,1696247987498,-0.03955078,-0.9819946,0.04144287,-0.09375,-0.921875,-0.21875,769
739,1696247987538,-0.048339844,-0.9951782,0.053649902,1.4375,-2.609375,-1.265625,770
740,1696247987578,-0.024169922,-1.0178833,0.010925293,-0.703125,-3.734375,-1.578125,771
741,1696247987618,-0.045410156,-0.9636841,0.032165527,-0.09375,-2.03125,-2.546875,772
742,1696247987658,-0.06201172,-0.97540283,0.0028686523,0.609375,2.40625,-1.890625,773
743,1696247987698,-0.021484375,-0.9746704,0.016052246,0.46875,0.828125,0.734375,774
744,1696247987738,-0.036865234,-0.98638916,0.02142334,0.28125,0.484375,1.28125,775
745,1696247987778,-0.06542969,-0.99346924,0.043884277,-1.4375,0.765625,0.875,776
746,1696247987818,-0.0546875,-0.9841919,0.0446167,-0.796875,-0.1875,0.578125,777
747,1696247987858,-0.049560547,-0.9956665,0.018981934,0.078125,-0.703125,0.4375,778
748,1696247987898,-0.041259766,-0.9968872,0.053649902,0.65625,-1.921875,-0.203125,779
749,1696247987938,-0.04248047,-0.9890747,0.024597168,0.25,-3.5,0.203125,780
750,1696247987978,-0.037597656,-1.0120239,0.03729248,-6.265625,-2.359375,-1.609375,781
751,1696247988018,-0.09863281,-0.9741821,0.031677246,-4.34375,-1.203125,0.125,782
752,1696247988058,-0.020507812,-1.034729,0.06365967,-1.640625,1.1875,-2.765625,783
753,1696247988098,-0.07299805,-0.9483032,0.018737793,-0.75,-0.953125,-1.125,784
754,1696247988138,-0.048339844,-0.92681885,0.005554199,1.28125,3.796875,2.59375,785
755,1696247988178,0.016845703,-0.9663696,-0.024719238,1.78125,0.515625,3.546875,786
756,1696247988218,-0.053710938,-0.9854126,0.023132324,-4.875,-1.1875,4.515625,787
757,1696247988258,-0.036621094,-0.98223877,0.074401855,-2.9375,4.625,2.890625,788
758,1696247988298,-0.076171875,-1.0449829,0.10003662,-0.875,2.5,1.140625,789
759,1696247988338,0.005126953,-0.99346924,0.018737793,-2.28125,-1.4375,0.9375,790
