# Sensor type: Respeck
# Activity type: Lying down on stomach
# Activity subtype: Singing
# Subject id: s2104454
# Notes: unprocessed
timestamp,accel_x,accel_y,accel_z,gyro_x,gyro_y,gyro_z
1696245162101,0.49316406,-0.10284424,-0.8008423,-0.140625,-0.453125,0.3125
1696245162163,0.49365234,-0.09967041,-0.79888916,-0.484375,-0.28125,0.25
1696245162182,0.49243164,-0.11065674,-0.7996216,-0.703125,0.25,0.140625
1696245162223,0.4951172,-0.10699463,-0.8015747,-1.46875,0.984375,0.046875
1696245162263,0.48828125,-0.11090088,-0.78375244,-2.015625,1.234375,-0.0625
1696245162303,0.48657227,-0.113342285,-0.79473877,-1.828125,3.03125,-0.03125
1696245162342,0.4880371,-0.12335205,-0.829895,-1.734375,2.53125,-0.140625
1696245162383,0.4873047,-0.121154785,-0.817688,-1.96875,2.484375,-0.25
1696245162423,0.4892578,-0.12261963,-0.8267212,-2.53125,3.265625,-0.390625
1696245162483,0.4802246,-0.12432861,-0.82281494,-1.75,4.21875,-0.34375
1696245162503,0.46679688,-0.12872314,-0.8369751,-0.984375,3.46875,0.0625
1696245162522,0.44873047,-0.12774658,-0.8206177,0.0625,2.546875,0.234375
1696245162562,0.45166016,-0.124572754,-0.82525635,-0.265625,1.28125,0.296875
1696245162602,0.4519043,-0.13311768,-0.8352661,-0.28125,-0.53125,0.5625
1696245162643,0.45922852,-0.1260376,-0.83673096,-0.96875,-2.328125,0.390625
1696245162686,0.45507812,-0.12579346,-0.82232666,-1.453125,-2.484375,0.53125
1696245162724,0.46142578,-0.13189697,-0.8335571,-1.46875,-1.703125,0.328125
1696245162762,0.46679688,-0.14190674,-0.82647705,-1.234375,-1.9375,0.328125
1696245162801,0.4663086,-0.1362915,-0.8189087,-1.15625,-1.09375,0.25
1696245162843,0.46899414,-0.13555908,-0.8206177,-0.546875,-0.703125,0.34375
1696245162883,0.46020508,-0.13458252,-0.80792236,-0.375,-0.171875,0.375
1696245162923,0.4638672,-0.13018799,-0.8128052,-0.203125,-0.09375,0.390625
1696245162966,0.45874023,-0.12554932,-0.8140259,-0.34375,-0.421875,0.171875
1696245163002,0.46557617,-0.13482666,-0.8411255,-1.71875,-0.234375,-0.1875
1696245163045,0.45288086,-0.13092041,-0.78863525,-1.046875,-0.046875,-0.125
1696245163084,0.46264648,-0.14752197,-0.82891846,-1.40625,-0.125,-0.28125
1696245163122,0.46020508,-0.1350708,-0.81427,-0.671875,0.84375,-0.203125
1696245163162,0.45239258,-0.13970947,-0.8064575,-0.0625,0.1875,0.0
1696245163203,0.45483398,-0.14093018,-0.8401489,-0.171875,-0.53125,0.15625
1696245163245,0.4506836,-0.1404419,-0.8184204,-0.328125,-0.78125,0.109375
1696245163281,0.4609375,-0.144104,-0.8440552,-0.921875,-1.09375,-0.140625
1696245163323,0.47192383,-0.1519165,-0.8362427,-1.515625,-2.84375,0.203125
1696245163364,0.4633789,-0.14337158,-0.8242798,-1.65625,-4.46875,0.5
1696245163406,0.47338867,-0.14459229,-0.82647705,-1.21875,-3.828125,0.1875
1696245163441,0.46289062,-0.1531372,-0.8152466,-1.796875,-4.1875,0.375
1696245163484,0.47631836,-0.13922119,-0.7822876,-0.34375,-3.15625,0.484375
1696245163521,0.4765625,-0.14385986,-0.77911377,-0.1875,-2.25,0.65625
1696245163562,0.47558594,-0.14068604,-0.78790283,0.40625,-1.375,0.484375
1696245163602,0.48388672,-0.15411377,-0.8147583,-0.234375,-0.375,0.125
1696245163643,0.4794922,-0.15460205,-0.802063,0.03125,-0.140625,0.171875
1696245163683,0.48828125,-0.14752197,-0.8189087,-0.046875,-0.40625,0.0625
1696245163724,0.48168945,-0.14727783,-0.8081665,0.59375,-0.84375,0.453125
1696245163763,0.47875977,-0.14971924,-0.80133057,0.484375,-0.484375,0.34375
1696245163803,0.4753418,-0.14898682,-0.80352783,0.21875,-0.53125,0.21875
1696245163822,0.48461914,-0.14996338,-0.81744385,0.046875,-0.671875,0.25
1696245163863,0.47973633,-0.14508057,-0.80426025,-0.0625,-0.78125,0.3125
1696245163902,0.4892578,-0.13775635,-0.8147583,-0.140625,-1.046875,0.109375
1696245163944,0.4794922,-0.14385986,-0.81695557,-0.171875,-0.875,0.171875
1696245163984,0.4868164,-0.13922119,-0.80963135,-0.140625,-1.015625,0.21875
1696245164043,0.48266602,-0.14263916,-0.80596924,0.15625,-1.03125,0.265625
1696245164062,0.47998047,-0.14190674,-0.8062134,0.0625,-0.921875,0.390625
1696245164102,0.48999023,-0.13995361,-0.8115845,-0.09375,-1.0625,0.375
1696245164141,0.48779297,-0.14385986,-0.8052368,-0.015625,-1.15625,0.25
1696245164205,0.48413086,-0.144104,-0.81500244,-0.484375,-0.875,0.203125
1696245164241,0.4794922,-0.14385986,-0.81744385,0.0,-0.6875,0.203125
1696245164262,0.484375,-0.14312744,-0.80792236,-0.078125,-1.015625,0.3125
1696245164324,0.48510742,-0.14361572,-0.8069458,0.0625,-1.0625,0.375
1696245164342,0.4831543,-0.14654541,-0.81622314,-0.1875,-0.765625,0.265625
1696245164382,0.48950195,-0.14239502,-0.8074341,-0.140625,-1.125,0.203125
1696245164424,0.49121094,-0.13775635,-0.7991333,-0.109375,-0.65625,0.203125
1696245164463,0.48779297,-0.14483643,-0.80474854,0.15625,-0.640625,0.234375
1696245164523,0.48999023,-0.1416626,-0.80133057,-0.140625,-0.765625,0.234375
1696245164542,0.4909668,-0.1453247,-0.8093872,-0.125,-1.0,0.28125
1696245164603,0.48999023,-0.14727783,-0.8015747,-0.171875,-0.78125,0.09375
1696245164623,0.48291016,-0.14654541,-0.8023071,-0.265625,-0.734375,0.234375
1696245164687,0.49414062,-0.1494751,-0.80718994,-0.203125,-0.5,0.171875
1696245164701,0.4921875,-0.14654541,-0.80426025,-0.25,-0.796875,0.046875
1696245164785,0.4880371,-0.14459229,-0.80426025,-0.265625,-0.921875,0.234375
1696245164789,0.4880371,-0.14434814,-0.8015747,-0.21875,-0.84375,0.203125
1696245164842,0.48535156,-0.15216064,-0.79693604,-0.171875,-0.734375,0.109375
1696245164862,0.4909668,-0.14361572,-0.80718994,-0.3125,-0.515625,0.09375
1696245164906,0.48510742,-0.14703369,-0.80426025,-0.046875,-0.640625,0.21875
1696245164942,0.49316406,-0.14385986,-0.7920532,-0.265625,-0.578125,0.171875
1696245164987,0.48242188,-0.14678955,-0.80303955,-1.0,0.421875,-0.125
1696245165026,0.47973633,-0.14996338,-0.8023071,-0.703125,-0.34375,0.015625
1696245165066,0.4868164,-0.14508057,-0.8062134,-0.609375,-0.25,0.15625
1696245165104,0.49121094,-0.14898682,-0.8064575,-0.65625,-0.375,-0.03125
1696245165122,0.48266602,-0.15362549,-0.8088989,-0.84375,-0.484375,-0.0625
1696245165163,0.48876953,-0.15118408,-0.81207275,-0.8125,-0.25,0.0
1696245165204,0.48388672,-0.15216064,-0.79937744,-0.8125,-0.484375,-0.03125
1696245165244,0.4831543,-0.15484619,-0.8076782,-0.46875,-0.703125,0.15625
1696245165284,0.4831543,-0.15826416,-0.8049927,-0.28125,-0.875,0.203125
1696245165323,0.48242188,-0.15802002,-0.8057251,0.09375,-1.03125,0.40625
1696245165365,0.48999023,-0.15362549,-0.8093872,0.34375,-0.828125,0.484375
1696245165404,0.4880371,-0.15240479,-0.80303955,1.125,-1.359375,0.625
1696245165444,0.48486328,-0.15142822,-0.8081665,0.65625,-0.875,0.484375
1696245165483,0.48339844,-0.15045166,-0.80426025,0.4375,-0.859375,0.375
1696245165524,0.47973633,-0.1482544,-0.8027954,0.265625,-0.640625,0.328125
1696245165563,0.4880371,-0.14874268,-0.803772,0.4375,-0.84375,0.328125
1696245165604,0.4970703,-0.1453247,-0.8074341,0.1875,-0.640625,0.375
1696245165643,0.4873047,-0.15142822,-0.80133057,0.421875,-0.78125,0.390625
1696245165684,0.484375,-0.1453247,-0.8101196,0.203125,-0.46875,0.390625
1696245165724,0.48413086,-0.14508057,-0.80596924,0.1875,-0.578125,0.453125
1696245165762,0.4892578,-0.14898682,-0.81207275,0.140625,-0.53125,0.25
1696245165803,0.49145508,-0.14508057,-0.8128052,-0.25,-0.5,0.15625
1696245165843,0.48388672,-0.14508057,-0.80548096,0.078125,-0.546875,0.125
1696245165884,0.48828125,-0.15093994,-0.8049927,-0.015625,-0.75,0.203125
1696245165926,0.49389648,-0.14776611,-0.8010864,0.015625,-0.78125,0.34375
1696245165963,0.4897461,-0.14654541,-0.80303955,0.0625,-0.734375,0.203125
1696245166003,0.48291016,-0.14923096,-0.80181885,0.015625,-0.75,0.328125
1696245166049,0.49658203,-0.14141846,-0.8081665,0.109375,-0.484375,0.203125
1696245166085,0.48339844,-0.14630127,-0.79644775,-0.0625,-0.71875,0.28125
1696245166122,0.48461914,-0.14019775,-0.80181885,0.078125,-0.53125,0.203125
1696245166163,0.48364258,-0.14141846,-0.80670166,0.015625,-0.59375,0.1875
1696245166203,0.49023438,-0.14556885,-0.81256104,-0.0625,-0.75,0.359375
1696245166243,0.49658203,-0.15240479,-0.81085205,0.03125,-0.765625,0.34375
1696245166283,0.48413086,-0.15142822,-0.8057251,-0.125,-0.9375,0.25
1696245166322,0.48999023,-0.13970947,-0.79400635,-0.0625,-0.796875,0.359375
1696245166362,0.48950195,-0.14727783,-0.8130493,-0.234375,-0.390625,0.0625
1696245166403,0.4897461,-0.14923096,-0.8064575,0.203125,-0.765625,0.234375
1696245166444,0.48999023,-0.15167236,-0.7984009,0.1875,-0.828125,0.34375
1696245166462,0.49194336,-0.14727783,-0.81451416,-0.1875,-0.6875,0.328125
1696245166505,0.4892578,-0.14556885,-0.80474854,-0.109375,-0.5625,0.109375
1696245166556,0.49365234,-0.14483643,-0.8140259,0.015625,-0.640625,0.203125
1696245166582,0.49365234,-0.14801025,-0.8101196,0.09375,-0.578125,0.328125
1696245166625,0.49121094,-0.15093994,-0.8076782,-0.15625,-0.609375,0.328125
1696245166663,0.49047852,-0.15289307,-0.80548096,-0.25,-0.765625,0.078125
1696245166725,0.48461914,-0.14630127,-0.7984009,-0.125,-0.953125,0.296875
1696245166742,0.4921875,-0.14630127,-0.8023071,-0.328125,-0.796875,0.34375
1696245166805,0.49560547,-0.1416626,-0.80352783,-0.484375,-1.140625,0.09375
1696245166823,0.5004883,-0.14459229,-0.8027954,-0.34375,-0.828125,0.140625
1696245166884,0.4909668,-0.14459229,-0.80474854,-0.265625,-0.796875,0.203125
1696245166902,0.48828125,-0.14215088,-0.8032837,0.0625,-0.515625,0.390625
1696245166943,0.48779297,-0.14874268,-0.7998657,0.328125,-1.046875,0.5625
1696245166982,0.49291992,-0.14215088,-0.7974243,0.703125,-1.34375,0.625
1696245167047,0.51000977,-0.14801025,-0.8233032,0.234375,-0.84375,0.34375
1696245167062,0.4958496,-0.13946533,-0.79522705,0.6875,-1.03125,0.53125
1696245167125,0.49316406,-0.14508057,-0.80255127,0.203125,-0.265625,0.3125
1696245167143,0.49145508,-0.14239502,-0.8064575,-0.09375,-0.40625,0.328125
1696245167184,0.49536133,-0.13946533,-0.79888916,-0.09375,-0.578125,0.265625
1696245167223,0.4868164,-0.14556885,-0.79815674,-0.3125,-0.5,0.265625
1696245167265,0.49926758,-0.14312744,-0.8074341,-0.15625,-0.46875,0.3125
1696245167303,0.4987793,-0.14581299,-0.8088989,-0.21875,-0.625,0.484375
1696245167342,0.4951172,-0.1404419,-0.80426025,0.0,-0.5625,0.296875
1696245167383,0.4934082,-0.14508057,-0.80255127,0.109375,-0.4375,0.40625
1696245167424,0.49609375,-0.13897705,-0.80596924,0.078125,-0.671875,0.25
1696245167465,0.49365234,-0.13482666,-0.79815674,0.609375,-1.1875,0.4375
1696245167525,0.49658203,-0.1404419,-0.8069458,1.234375,-1.890625,0.671875
1696245167564,0.49829102,-0.14093018,-0.8049927,1.375,-2.125,0.796875
1696245167604,0.50024414,-0.13287354,-0.7937622,1.984375,-2.390625,0.9375
1696245167623,0.49414062,-0.13995361,-0.7866821,0.21875,-0.875,0.34375
1696245167686,0.5070801,-0.13360596,-0.8106079,-0.9375,0.390625,-0.265625
1696245167726,0.5070801,-0.13409424,-0.81573486,-0.9375,0.265625,-0.265625
1696245167766,0.4868164,-0.12677002,-0.7815552,-1.3125,0.609375,-0.171875
1696245167781,0.4892578,-0.14019775,-0.8049927,-1.3125,0.265625,-0.265625
1696245167802,0.50097656,-0.15289307,-0.81573486,-0.984375,-0.046875,-0.21875
1696245167886,0.4946289,-0.14215088,-0.80255127,-0.40625,-0.546875,0.078125
1696245167889,0.5012207,-0.14483643,-0.8045044,0.25,-1.0,0.46875
1696245167923,0.48999023,-0.13897705,-0.80718994,0.40625,-0.984375,0.53125
1696245167964,0.49658203,-0.13922119,-0.7979126,0.796875,-1.09375,0.484375
1696245168003,0.4970703,-0.144104,-0.79815674,0.40625,-1.015625,0.4375
1696245168046,0.49414062,-0.1375122,-0.7932739,0.78125,-1.015625,0.546875
1696245168083,0.5024414,-0.13970947,-0.80670166,-0.1875,-0.53125,0.109375
1696245168125,0.5012207,-0.13922119,-0.8118286,-0.359375,-0.015625,0.15625
1696245168165,0.4987793,-0.13604736,-0.8128052,-0.125,-0.328125,0.390625
1696245168204,0.50097656,-0.14117432,-0.8023071,0.078125,-0.578125,0.109375
1696245168243,0.49291992,-0.13775635,-0.8015747,0.140625,-0.59375,0.3125
1696245168283,0.48950195,-0.14093018,-0.7944946,0.03125,-0.609375,0.359375
1696245168325,0.5024414,-0.13800049,-0.80963135,-0.671875,-0.234375,0.0625
1696245168365,0.50146484,-0.14434814,-0.8098755,-0.21875,-0.421875,0.046875
1696245168403,0.49414062,-0.14434814,-0.802063,-0.03125,-0.5,0.265625
1696245168443,0.49536133,-0.14141846,-0.80303955,0.171875,-0.59375,0.296875
1696245168483,0.4951172,-0.1375122,-0.80718994,-0.234375,-0.421875,0.171875
1696245168524,0.5004883,-0.14385986,-0.8057251,-0.34375,-0.484375,0.203125
1696245168565,0.49072266,-0.1362915,-0.800354,-0.046875,-0.515625,0.203125
1696245168604,0.49902344,-0.14263916,-0.8010864,-0.1875,-0.28125,0.15625
1696245168643,0.4946289,-0.13848877,-0.80352783,-0.1875,-0.46875,0.09375
1696245168682,0.4963379,-0.14385986,-0.79766846,-0.109375,-0.6875,0.390625
1696245168724,0.49194336,-0.14093018,-0.7974243,0.078125,-0.484375,0.203125
1696245168765,0.49145508,-0.13702393,-0.8074341,0.0625,-0.609375,0.34375
1696245168803,0.4951172,-0.1428833,-0.7996216,0.03125,-0.828125,0.328125
1696245168844,0.5012207,-0.1350708,-0.8045044,-0.203125,-0.734375,0.171875
1696245168885,0.48583984,-0.14019775,-0.7974243,0.109375,-0.71875,0.296875
1696245168924,0.4958496,-0.14337158,-0.80352783,-0.140625,-0.8125,0.21875
1696245168964,0.49389648,-0.13653564,-0.8040161,-0.125,-0.703125,0.171875
1696245169004,0.48754883,-0.13531494,-0.7959595,0.0625,-0.609375,0.34375
1696245169086,0.48486328,-0.14239502,-0.78497314,0.078125,-0.8125,0.234375
1696245169092,0.5004883,-0.13970947,-0.8081665,-0.328125,-0.359375,0.078125
1696245169101,0.4892578,-0.13800049,-0.79473877,0.28125,-0.796875,0.296875
1696245169143,0.48657227,-0.14263916,-0.79034424,0.0,-0.5625,0.203125
1696245169204,0.48876953,-0.13824463,-0.8064575,-0.1875,-0.5625,0.234375
1696245169222,0.49169922,-0.14434814,-0.80181885,-0.078125,-0.5625,0.359375
1696245169285,0.48608398,-0.13848877,-0.80010986,0.125,-0.625,0.3125
1696245169301,0.49902344,-0.13604736,-0.7984009,0.015625,-0.6875,0.34375
1696245169345,0.5007324,-0.13458252,-0.81451416,-0.3125,-0.640625,0.25
1696245169383,0.49731445,-0.14068604,-0.8008423,0.015625,-0.59375,0.28125
1696245169423,0.49121094,-0.1428833,-0.79571533,-0.015625,-0.71875,0.359375
1696245169463,0.49609375,-0.13580322,-0.8045044,0.0,-0.859375,0.203125
1696245169524,0.49414062,-0.13800049,-0.8106079,0.078125,-0.890625,0.453125
1696245169543,0.4885254,-0.13555908,-0.803772,0.0,-0.65625,0.265625
1696245169584,0.49365234,-0.14215088,-0.8032837,-0.15625,-0.640625,0.25
1696245169646,0.49487305,-0.14215088,-0.8069458,0.140625,-1.03125,0.390625
1696245169662,0.49902344,-0.13531494,-0.80670166,0.203125,-1.171875,0.328125
1696245169702,0.50146484,-0.14068604,-0.7984009,0.359375,-1.40625,0.453125
1696245169745,0.5119629,-0.1375122,-0.81622314,-0.015625,-0.71875,0.3125
1696245169783,0.48779297,-0.13604736,-0.7979126,0.515625,-1.09375,0.515625
1696245169848,0.5,-0.12872314,-0.7974243,0.25,-0.9375,0.375
1696245169864,0.4987793,-0.13531494,-0.7962036,0.265625,-0.96875,0.3125
1696245169905,0.50097656,-0.13189697,-0.8032837,-0.0625,-0.75,0.234375
1696245169943,0.5046387,-0.12872314,-0.80596924,0.1875,-0.921875,0.34375
1696245170005,0.49804688,-0.13238525,-0.7979126,0.078125,-0.578125,0.3125
1696245170066,0.49316406,-0.1350708,-0.79644775,0.125,-0.65625,0.375
1696245170073,0.51000977,-0.13555908,-0.8027954,0.109375,-0.84375,0.34375
1696245170123,0.49267578,-0.13165283,-0.798645,0.171875,-1.03125,0.515625
1696245170143,0.49926758,-0.13848877,-0.8049927,0.25,-0.84375,0.46875
1696245170206,0.5036621,-0.13067627,-0.8049927,0.234375,-1.03125,0.46875
1696245170223,0.5004883,-0.12945557,-0.80548096,0.078125,-0.875,0.359375
1696245170264,0.50561523,-0.1296997,-0.8052368,-0.28125,-1.125,0.265625
1696245170324,0.50683594,-0.1326294,-0.79937744,-0.578125,-0.6875,0.125
1696245170342,0.50146484,-0.13092041,-0.788147,-0.8125,-0.40625,-0.078125
1696245170384,0.5036621,-0.13458252,-0.79156494,-1.015625,-0.09375,-0.15625
1696245170402,0.5007324,-0.1350708,-0.7937622,-1.390625,0.234375,-0.171875
1696245170443,0.501709,-0.13555908,-0.7984009,-0.90625,-0.21875,0.046875
1696245170485,0.5024414,-0.13922119,-0.8110962,-1.046875,0.015625,-0.0625
1696245170524,0.50146484,-0.13946533,-0.8130493,-1.1875,0.09375,-0.078125
1696245170565,0.4873047,-0.14752197,-0.7883911,-0.6875,-0.109375,0.046875
1696245170604,0.49829102,-0.14434814,-0.7949829,-1.140625,0.25,-0.203125
1696245170644,0.48950195,-0.1428833,-0.8062134,-1.203125,0.265625,-0.375
1696245170683,0.48901367,-0.13800049,-0.79815674,-0.765625,-0.15625,0.0
1696245170725,0.4946289,-0.1428833,-0.79644775,-0.9375,0.171875,-0.1875
1696245170765,0.50097656,-0.14508057,-0.8045044,-1.359375,0.578125,-0.265625
1696245170805,0.49023438,-0.15289307,-0.80255127,-1.46875,0.28125,-0.328125
1696245170844,0.49365234,-0.15020752,-0.8040161,-0.796875,0.171875,0.140625
1696245170886,0.48706055,-0.14898682,-0.7991333,-0.46875,-0.234375,-0.140625
1696245170924,0.49121094,-0.1519165,-0.8064575,-0.390625,-0.453125,0.171875
1696245170972,0.49145508,-0.1506958,-0.802063,0.046875,-0.625,0.1875
1696245171006,0.49023438,-0.1494751,-0.8123169,-0.203125,-0.671875,0.265625
1696245171043,0.48754883,-0.15533447,-0.8040161,0.53125,-1.046875,0.484375
1696245171083,0.48828125,-0.15167236,-0.8032837,0.5625,-1.28125,0.671875
1696245171122,0.49414062,-0.14996338,-0.80352783,0.40625,-0.921875,0.515625
1696245171163,0.4892578,-0.14654541,-0.80133057,0.46875,-1.046875,0.4375
1696245171203,0.48413086,-0.15435791,-0.8052368,-0.109375,-0.65625,0.28125
1696245171242,0.49487305,-0.13922119,-0.80426025,0.125,-0.6875,0.28125
1696245171284,0.49243164,-0.14776611,-0.798645,-0.046875,-0.71875,0.1875
1696245171322,0.49365234,-0.15460205,-0.80059814,-0.234375,-0.328125,0.0625
1696245171364,0.49316406,-0.14849854,-0.8052368,-0.203125,-0.1875,0.046875
1696245171402,0.48779297,-0.15435791,-0.800354,0.21875,-0.34375,0.203125
1696245171443,0.4897461,-0.15240479,-0.800354,0.203125,-0.421875,0.296875
1696245171484,0.4934082,-0.14752197,-0.80474854,0.125,-0.796875,0.359375
1696245171523,0.49975586,-0.14654541,-0.81500244,0.078125,-0.71875,0.25
1696245171564,0.48828125,-0.14703369,-0.7991333,-0.0625,-0.578125,0.25
1696245171604,0.48950195,-0.14434814,-0.800354,0.1875,-0.6875,0.296875
1696245171645,0.48901367,-0.1494751,-0.80426025,0.3125,-0.765625,0.203125
1696245171683,0.49072266,-0.14727783,-0.79815674,0.53125,-0.890625,0.484375
1696245171702,0.49682617,-0.14581299,-0.8045044,0.328125,-0.625,0.4375
1696245171743,0.48950195,-0.14385986,-0.80841064,0.046875,-0.6875,0.234375
1696245171783,0.48999023,-0.15093994,-0.7991333,-0.09375,-0.609375,0.28125
1696245171824,0.4970703,-0.1428833,-0.80792236,-0.140625,-0.578125,0.359375
1696245171886,0.48901367,-0.1416626,-0.79937744,0.359375,-0.6875,0.3125
1696245171903,0.4892578,-0.15582275,-0.81573486,0.109375,-0.421875,0.28125
1696245171943,0.49536133,-0.14801025,-0.80718994,0.15625,-0.4375,0.359375
1696245171985,0.49072266,-0.14117432,-0.79644775,0.28125,-0.765625,0.328125
1696245172023,0.49243164,-0.14874268,-0.803772,0.1875,-0.640625,0.328125
1696245172064,0.49438477,-0.14630127,-0.81427,-0.34375,-0.578125,0.140625
1696245172105,0.49609375,-0.14239502,-0.7949829,0.078125,-0.625,0.296875
1696245172143,0.48510742,-0.13946533,-0.8069458,-0.09375,-0.53125,0.28125
1696245172184,0.49780273,-0.13970947,-0.803772,0.046875,-0.53125,0.1875
1696245172224,0.49560547,-0.14263916,-0.7996216,-0.046875,-0.8125,0.203125
1696245172286,0.4958496,-0.14312744,-0.8008423,-0.09375,-0.78125,0.25
1696245172303,0.4951172,-0.1482544,-0.8027954,0.140625,-0.671875,0.265625
1696245172364,0.49487305,-0.1453247,-0.80792236,-0.046875,-0.671875,0.296875
1696245172404,0.4934082,-0.14068604,-0.8110962,0.03125,-0.5625,0.34375
1696245172423,0.49072266,-0.13922119,-0.8101196,0.03125,-0.5,0.1875
1696245172465,0.4921875,-0.14923096,-0.7998657,-0.03125,-0.703125,0.265625
1696245172527,0.4970703,-0.144104,-0.8045044,-0.0625,-0.65625,0.296875
1696245172545,0.49316406,-0.14068604,-0.8032837,-0.171875,-0.75,0.453125
1696245172605,0.4946289,-0.14239502,-0.80792236,-0.046875,-0.53125,0.3125
1696245172622,0.49023438,-0.13970947,-0.7984009,0.15625,-0.890625,0.34375
1696245172663,0.48510742,-0.13531494,-0.7727661,0.34375,-1.34375,0.484375
1696245172725,0.4946289,-0.13897705,-0.80718994,-0.140625,-0.46875,0.265625
1696245172762,0.49682617,-0.14312744,-0.7954712,0.09375,-0.6875,0.4375
1696245172783,0.48999023,-0.13287354,-0.7966919,0.140625,-0.703125,0.34375
1696245172845,0.49438477,-0.14215088,-0.8008423,-0.0625,-0.484375,0.1875
1696245172863,0.48876953,-0.13848877,-0.79937744,-0.046875,-0.5,0.28125
1696245172903,0.4970703,-0.13287354,-0.7979126,0.015625,-0.59375,0.21875
1696245172944,0.49365234,-0.1453247,-0.80352783,-0.046875,-0.515625,0.25
1696245172984,0.4958496,-0.13726807,-0.7998657,0.0,-0.75,0.265625
1696245173025,0.49414062,-0.1404419,-0.7998657,-0.171875,-0.671875,0.21875
1696245173043,0.49536133,-0.144104,-0.8069458,-0.0625,-0.578125,0.125
1696245173084,0.5019531,-0.14068604,-0.8093872,0.109375,-0.625,0.1875
1696245173123,0.49291992,-0.13677979,-0.80670166,-0.09375,-0.703125,0.515625
1696245173164,0.4909668,-0.1404419,-0.80474854,0.015625,-0.65625,0.359375
1696245173204,0.4921875,-0.14263916,-0.79888916,-0.0625,-0.765625,0.234375
1696245173243,0.49267578,-0.14068604,-0.8086548,-0.015625,-0.6875,0.21875
1696245173284,0.4921875,-0.14141846,-0.802063,-0.0625,-0.90625,0.40625
1696245173323,0.50561523,-0.14117432,-0.80792236,-0.078125,-0.96875,0.28125
1696245173363,0.4934082,-0.13433838,-0.79693604,0.296875,-0.828125,0.40625
1696245173403,0.49804688,-0.14215088,-0.8049927,0.015625,-0.703125,0.53125
1696245173442,0.49438477,-0.13433838,-0.8040161,0.25,-0.796875,0.46875
1696245173485,0.5,-0.13140869,-0.7918091,0.296875,-1.21875,0.328125
1696245173521,0.5053711,-0.13555908,-0.8140259,0.1875,-0.734375,0.265625
1696245173563,0.4987793,-0.13800049,-0.8023071,0.3125,-1.234375,0.359375
1696245173603,0.49291992,-0.14117432,-0.79522705,0.484375,-1.46875,0.625
1696245173643,0.50634766,-0.13043213,-0.8118286,0.328125,-1.171875,0.40625
1696245173684,0.49682617,-0.13116455,-0.79815674,0.125,-0.984375,0.25
1696245173723,0.49926758,-0.13848877,-0.80059814,-0.140625,-0.828125,0.375
1696245173763,0.49853516,-0.13970947,-0.7996216,0.140625,-0.734375,0.21875
1696245173802,0.5046387,-0.13336182,-0.8027954,0.09375,-0.953125,0.5
1696245173842,0.5041504,-0.13604736,-0.7979126,0.21875,-0.875,0.34375
1696245173882,0.5048828,-0.13824463,-0.802063,0.203125,-0.71875,0.390625
1696245173921,0.4987793,-0.13287354,-0.7984009,0.40625,-0.9375,0.34375
1696245173965,0.4987793,-0.13531494,-0.7979126,0.125,-0.9375,0.296875
1696245174004,0.50512695,-0.13189697,-0.8027954,0.1875,-1.0,0.390625
1696245174042,0.50146484,-0.1350708,-0.80010986,0.203125,-1.0,0.359375
1696245174083,0.5070801,-0.13531494,-0.79888916,0.046875,-0.796875,0.125
1696245174126,0.50146484,-0.13067627,-0.80059814,0.0,-0.765625,0.25
1696245174161,0.5090332,-0.13848877,-0.7962036,-0.140625,-0.546875,0.34375
1696245174201,0.50561523,-0.12945557,-0.79937744,-0.15625,-0.546875,0.3125
1696245174242,0.50146484,-0.13165283,-0.7998657,-0.046875,-0.5,0.28125
1696245174281,0.49951172,-0.13092041,-0.79693604,0.171875,-0.828125,0.34375
1696245174341,0.50634766,-0.1272583,-0.8064575,-0.234375,-0.46875,0.265625
1696245174361,0.49926758,-0.1375122,-0.80181885,0.109375,-0.953125,0.3125
1696245174381,0.5048828,-0.13116455,-0.8049927,-0.15625,-0.515625,0.25
1696245174422,0.5007324,-0.13214111,-0.7962036,0.171875,-0.71875,0.375
1696245174482,0.50512695,-0.12799072,-0.80303955,0.09375,-0.703125,0.28125
1696245174521,0.49975586,-0.13067627,-0.79644775,-0.09375,-0.890625,0.296875
1696245174541,0.501709,-0.12677002,-0.79644775,-0.15625,-0.875,0.078125
1696245174601,0.50634766,-0.12701416,-0.802063,-0.03125,-0.71875,0.4375
1696245174621,0.49926758,-0.12921143,-0.80059814,0.078125,-1.046875,0.328125
1696245174681,0.5036621,-0.1296997,-0.79034424,0.109375,-0.734375,0.28125
1696245174701,0.50756836,-0.12652588,-0.7954712,0.03125,-0.4375,0.265625
1696245174741,0.50683594,-0.12896729,-0.79229736,0.34375,-0.828125,0.4375
1696245174781,0.5048828,-0.1272583,-0.7998657,-0.109375,-0.828125,0.34375
1696245174821,0.5048828,-0.12677002,-0.80010986,0.15625,-0.9375,0.265625
1696245174862,0.5078125,-0.13458252,-0.8027954,-0.015625,-1.0,0.328125
1696245174902,0.5065918,-0.12823486,-0.79693604,-0.09375,-0.453125,0.390625
1696245174941,0.51000977,-0.13165283,-0.80181885,-0.109375,-0.59375,0.265625
1696245174981,0.5019531,-0.1272583,-0.79937744,0.0,-0.546875,0.40625
1696245175021,0.50390625,-0.13238525,-0.7901001,0.25,-0.5,0.421875
1696245175061,0.5031738,-0.11968994,-0.800354,0.328125,-0.390625,0.359375
1696245175102,0.50805664,-0.12628174,-0.800354,-0.109375,-0.1875,0.265625
1696245175163,0.5029297,-0.12188721,-0.7932739,-0.546875,0.546875,0.015625
1696245175181,0.5004883,-0.128479,-0.80474854,-2.203125,1.25,-0.671875
1696245175243,0.48950195,-0.12652588,-0.77130127,-2.390625,1.765625,-0.765625
1696245175262,0.49926758,-0.13287354,-0.8093872,-1.1875,1.21875,-0.28125
1696245175324,0.5065918,-0.13922119,-0.81988525,-1.34375,0.6875,-0.375
1696245175342,0.48950195,-0.13604736,-0.80010986,-1.34375,-0.03125,-0.359375
1696245175404,0.4970703,-0.14361572,-0.8015747,-1.078125,-0.125,-0.1875
1696245175445,0.50341797,-0.14385986,-0.80548096,-1.03125,-0.125,-0.296875
1696245175462,0.49023438,-0.14630127,-0.8015747,-0.703125,-0.421875,0.03125
1696245175505,0.4921875,-0.14849854,-0.8064575,-0.171875,-0.5,0.234375
1696245175545,0.50097656,-0.14361572,-0.80841064,-0.125,-0.59375,0.21875
1696245175584,0.49560547,-0.14556885,-0.8045044,0.109375,-0.578125,0.46875
1696245175647,0.49731445,-0.14923096,-0.8064575,0.171875,-0.6875,0.5
1696245175684,0.4970703,-0.14239502,-0.8052368,0.546875,-0.78125,0.5
1696245175690,0.5019531,-0.13824463,-0.8057251,0.53125,-0.828125,0.53125
1696245175724,0.48828125,-0.13897705,-0.8057251,0.453125,-0.9375,0.5
1696245175763,0.50024414,-0.13946533,-0.8069458,0.40625,-0.78125,0.484375
1696245175804,0.49975586,-0.13702393,-0.8032837,0.46875,-0.953125,0.34375
1696245175844,0.49609375,-0.13995361,-0.7913208,0.171875,-0.5625,0.328125
1696245175884,0.49902344,-0.13482666,-0.8086548,-0.140625,-0.40625,0.15625
1696245175926,0.48901367,-0.13555908,-0.7932739,0.328125,-0.6875,0.21875
1696245175965,0.4897461,-0.1375122,-0.7966919,0.203125,-0.515625,0.265625
1696245176003,0.49194336,-0.13433838,-0.81207275,-0.015625,-0.5625,0.296875
1696245176044,0.4946289,-0.13995361,-0.8081665,-0.078125,-0.71875,0.265625
1696245176083,0.49804688,-0.13116455,-0.80255127,-0.09375,-0.625,0.3125
1696245176145,0.50024414,-0.13531494,-0.8027954,-0.171875,-0.453125,0.203125
1696245176164,0.49243164,-0.14141846,-0.8081665,-0.328125,-0.609375,0.1875
1696245176204,0.49536133,-0.1338501,-0.8040161,-0.09375,-0.703125,0.328125
1696245176246,0.48999023,-0.13775635,-0.7996216,0.078125,-0.484375,0.3125
1696245176283,0.49487305,-0.1350708,-0.802063,0.046875,-0.59375,0.234375
1696245176327,0.49145508,-0.13824463,-0.8045044,-0.0625,-0.640625,0.3125
1696245176364,0.50219727,-0.13555908,-0.79766846,-0.15625,-0.65625,0.34375
1696245176405,0.49682617,-0.14190674,-0.80181885,-0.0625,-0.734375,0.359375
1696245176444,0.49438477,-0.13726807,-0.80963135,-0.078125,-0.5625,0.34375
1696245176486,0.49438477,-0.13970947,-0.7962036,0.28125,-0.84375,0.375
1696245176523,0.49804688,-0.13214111,-0.80963135,-0.265625,-0.5,0.109375
1696245176564,0.49975586,-0.1350708,-0.81744385,-0.109375,-0.4375,0.3125
1696245176605,0.49414062,-0.13482666,-0.7930298,0.015625,-0.671875,0.28125
1696245176644,0.49023438,-0.13824463,-0.7962036,0.0,-0.65625,0.359375
1696245176685,0.50268555,-0.1296997,-0.8101196,-0.015625,-0.53125,0.15625
1696245176729,0.4963379,-0.13214111,-0.80963135,-0.25,-0.734375,0.140625
1696245176764,0.49731445,-0.13555908,-0.803772,-0.078125,-0.640625,0.28125
1696245176804,0.49389648,-0.13458252,-0.8040161,-0.109375,-0.71875,0.28125
1696245176845,0.49389648,-0.13726807,-0.8027954,-0.078125,-0.671875,0.34375
1696245176884,0.49853516,-0.13702393,-0.8010864,0.125,-0.796875,0.296875
1696245176924,0.4963379,-0.13726807,-0.80181885,-0.125,-0.640625,0.328125
1696245176966,0.49536133,-0.13531494,-0.8064575,-0.203125,-0.59375,0.140625
1696245177005,0.49291992,-0.13775635,-0.803772,-0.5625,-0.296875,-0.015625
1696245177024,0.48779297,-0.13482666,-0.7925415,-0.640625,-0.21875,-0.046875
1696245177065,0.49975586,-0.1416626,-0.80914307,-1.078125,-0.0625,-0.171875
1696245177127,0.4975586,-0.13726807,-0.8023071,-1.015625,-0.34375,0.125
1696245177143,0.48950195,-0.13897705,-0.7991333,-1.0,-0.515625,0.0
1696245177186,0.49804688,-0.14801025,-0.8106079,-1.03125,-0.15625,-0.25
1696245177223,0.4963379,-0.14874268,-0.8184204,-1.53125,-0.125,-0.34375
1696245177263,0.48339844,-0.14093018,-0.79644775,-1.25,-0.765625,-0.265625
1696245177306,0.49194336,-0.15435791,-0.79888916,-0.78125,-0.625,-0.140625
1696245177346,0.5031738,-0.14898682,-0.80963135,-0.421875,-0.734375,0.015625
1696245177384,0.49072266,-0.14752197,-0.80010986,0.015625,-0.859375,0.28125
1696245177425,0.4868164,-0.14727783,-0.8032837,0.921875,-1.078125,0.515625
1696245177486,0.49145508,-0.14434814,-0.79815674,0.65625,-0.875,0.578125
1696245177524,0.49731445,-0.14434814,-0.8057251,-0.046875,-0.65625,0.078125
1696245177543,0.4963379,-0.14361572,-0.80792236,-0.109375,-0.6875,0.25
1696245177605,0.49682617,-0.13848877,-0.7942505,0.84375,-0.75,0.65625
1696245177623,0.4970703,-0.14239502,-0.80718994,0.375,-0.734375,0.359375
1696245177663,0.49536133,-0.14508057,-0.8093872,-0.28125,-0.4375,0.234375
1696245177703,0.49047852,-0.14703369,-0.800354,-0.046875,-0.4375,0.171875
1696245177748,0.4892578,-0.15045166,-0.79937744,-0.140625,-0.609375,0.234375
1696245177784,0.4909668,-0.15045166,-0.79522705,0.3125,-0.5625,0.390625
1696245177827,0.50512695,-0.13580322,-0.8179321,-0.109375,-0.359375,0.0625
1696245177865,0.4951172,-0.14385986,-0.81085205,0.0,-0.59375,0.359375
1696245177903,0.4987793,-0.13897705,-0.80792236,0.03125,-0.4375,0.234375
1696245177944,0.50219727,-0.14801025,-0.798645,-0.125,-0.328125,0.125
1696245177983,0.5,-0.14361572,-0.81207275,-0.140625,-0.484375,0.125
1696245178044,0.49414062,-0.14068604,-0.8010864,0.15625,-0.546875,0.265625
1696245178062,0.49194336,-0.14141846,-0.8010864,0.21875,-0.53125,0.359375
1696245178104,0.49536133,-0.14019775,-0.8064575,0.0,-0.546875,0.4375
1696245178144,0.49487305,-0.14117432,-0.7954712,-0.015625,-0.890625,0.328125
1696245178184,0.4951172,-0.144104,-0.81036377,-0.015625,-0.515625,0.265625
1696245178243,0.48950195,-0.14215088,-0.8027954,0.0625,-0.53125,0.375
1696245178284,0.49243164,-0.14727783,-0.80426025,0.234375,-0.53125,0.296875
1696245178286,0.49658203,-0.14508057,-0.80181885,0.234375,-0.609375,0.4375
1696245178322,0.49609375,-0.14019775,-0.8045044,0.203125,-0.59375,0.28125
1696245178363,0.4963379,-0.14483643,-0.80596924,0.09375,-0.40625,0.296875
1696245178404,0.49267578,-0.144104,-0.80792236,0.046875,-0.578125,0.234375
1696245178444,0.4951172,-0.14068604,-0.8040161,0.09375,-0.4375,0.25
1696245178483,0.50146484,-0.12750244,-0.7925415,0.1875,-0.75,0.453125
1696245178524,0.50268555,-0.14117432,-0.81817627,-0.109375,-0.171875,0.34375
1696245178564,0.4807129,-0.13775635,-0.79034424,0.625,-0.453125,0.546875
1696245178603,0.49438477,-0.13775635,-0.8074341,0.265625,-0.234375,0.359375
1696245178644,0.4951172,-0.13970947,-0.8074341,0.09375,-0.703125,0.515625
1696245178684,0.49609375,-0.13702393,-0.80841064,0.015625,-0.59375,0.25
1696245178724,0.49609375,-0.13726807,-0.798645,0.046875,-0.65625,0.3125
1696245178764,0.49536133,-0.13336182,-0.8052368,0.109375,-0.609375,0.265625
1696245178803,0.4975586,-0.1416626,-0.8032837,-0.015625,-0.53125,0.296875
1696245178847,0.4987793,-0.13677979,-0.803772,-0.03125,-0.640625,0.34375
1696245178884,0.49438477,-0.13848877,-0.8064575,0.171875,-0.53125,0.359375
1696245178925,0.4975586,-0.13970947,-0.81036377,0.1875,-0.71875,0.171875
1696245178964,0.49389648,-0.13140869,-0.798645,0.921875,-1.140625,0.53125
1696245179003,0.4946289,-0.13922119,-0.8069458,0.5625,-1.234375,0.4375
1696245179044,0.48950195,-0.13873291,-0.8088989,0.578125,-1.375,0.53125
1696245179083,0.49145508,-0.13189697,-0.7979126,0.359375,-1.171875,0.484375
1696245179124,0.5012207,-0.12896729,-0.798645,0.484375,-0.890625,0.609375
1696245179163,0.49414062,-0.13531494,-0.8123169,-0.546875,-0.28125,0.078125
1696245179205,0.49267578,-0.13043213,-0.80133057,0.03125,-0.125,0.0625
1696245179243,0.5031738,-0.13214111,-0.803772,-0.125,-0.25,0.234375
1696245179284,0.49487305,-0.13092041,-0.7925415,0.125,-0.5,0.421875
1696245179324,0.49829102,-0.13336182,-0.8130493,-0.328125,-0.140625,0.265625
1696245179364,0.5046387,-0.13409424,-0.8123169,-0.421875,-0.515625,0.328125
1696245179407,0.49414062,-0.12628174,-0.8008423,-0.296875,-0.5625,0.140625
1696245179450,0.49560547,-0.13116455,-0.80718994,-0.171875,-0.53125,0.265625
1696245179484,0.49853516,-0.12554932,-0.80352783,0.046875,-0.65625,0.328125
1696245179523,0.49731445,-0.12823486,-0.8008423,-0.21875,-0.75,0.3125
1696245179563,0.49536133,-0.13555908,-0.8023071,0.1875,-0.953125,0.296875
1696245179604,0.4970703,-0.13458252,-0.8010864,0.109375,-0.6875,0.3125
1696245179623,0.5004883,-0.128479,-0.8069458,0.140625,-0.71875,0.390625
1696245179685,0.50024414,-0.1296997,-0.81207275,0.15625,-0.6875,0.546875
1696245179704,0.49731445,-0.13555908,-0.79815674,0.0,-0.4375,0.375
1696245179743,0.49389648,-0.13677979,-0.8052368,0.078125,-0.75,0.21875
1696245179783,0.49780273,-0.13409424,-0.803772,-0.015625,-0.5625,0.25
1696245179842,0.501709,-0.12945557,-0.8069458,-0.0625,-0.5625,0.328125
1696245179882,0.4921875,-0.12994385,-0.803772,0.0625,-0.640625,0.265625
1696245179902,0.501709,-0.12872314,-0.81329346,-0.46875,-0.484375,0.03125
1696245179963,0.49414062,-0.1338501,-0.8115845,0.140625,-0.796875,0.15625
1696245179982,0.49438477,-0.13018799,-0.8123169,0.140625,-0.890625,0.40625
1696245180042,0.49829102,-0.13140869,-0.80474854,0.5625,-1.703125,0.53125
1696245180082,0.49536133,-0.13531494,-0.8069458,0.65625,-1.65625,0.5
1696245180123,0.50634766,-0.12359619,-0.8049927,1.609375,-2.6875,0.6875
1696245180161,0.5029297,-0.12286377,-0.79522705,1.5,-2.171875,0.8125
1696245180202,0.5048828,-0.121154785,-0.8064575,1.0625,-1.203125,0.734375
1696245180242,0.5061035,-0.11920166,-0.7962036,1.0,-1.703125,0.53125
1696245180262,0.5029297,-0.12237549,-0.7984009,0.875,-1.4375,0.40625
1696245180302,0.50024414,-0.12408447,-0.7893677,0.21875,-0.5,0.265625
1696245180342,0.50878906,-0.11895752,-0.7962036,-1.109375,0.3125,-0.15625
1696245180382,0.5007324,-0.121154785,-0.78326416,-1.4375,0.796875,-0.4375
1696245180442,0.5061035,-0.12335205,-0.8076782,-2.171875,1.1875,-0.734375
1696245180462,0.49682617,-0.12164307,-0.7932739,-2.171875,0.96875,-0.609375
1696245180502,0.50219727,-0.13116455,-0.8023071,-1.453125,0.296875,-0.171875
1696245180542,0.5041504,-0.12945557,-0.81695557,-1.203125,0.46875,-0.28125
1696245180582,0.5058594,-0.13702393,-0.81451416,-0.046875,-0.9375,0.28125
1696245180622,0.48950195,-0.13848877,-0.7925415,0.203125,-1.03125,0.34375
1696245180663,0.49023438,-0.13189697,-0.79693604,0.46875,-0.78125,0.40625
1696245180702,0.49389648,-0.1260376,-0.79522705,0.859375,-1.15625,0.609375
1696245180742,0.50219727,-0.13018799,-0.8074341,0.46875,-0.65625,0.421875
1696245180782,0.50756836,-0.1272583,-0.8074341,-0.125,-0.46875,0.15625
1696245180843,0.4987793,-0.12408447,-0.80255127,-0.0625,-0.328125,0.09375
1696245180905,0.5065918,-0.13214111,-0.817688,-0.3125,0.015625,0.0625
1696245180910,0.49853516,-0.12945557,-0.80303955,-0.375,-0.296875,0.203125
1696245180922,0.49316406,-0.12750244,-0.80596924,-0.28125,-0.15625,0.078125
1696245180964,0.49316406,-0.120666504,-0.7971802,-0.09375,-0.34375,0.203125
1696245181005,0.49438477,-0.12164307,-0.8045044,-0.296875,-0.25,0.09375
1696245181044,0.4909668,-0.13214111,-0.7962036,-0.140625,-0.453125,0.15625
1696245181085,0.49365234,-0.13555908,-0.81207275,-0.125,-0.390625,0.1875
1696245181123,0.5031738,-0.13018799,-0.8189087,-0.203125,-0.546875,0.203125
1696245181165,0.49829102,-0.13165283,-0.8130493,0.03125,-0.640625,0.296875
1696245181204,0.49291992,-0.12774658,-0.81427,-0.0625,-0.625,0.140625
1696245181243,0.49145508,-0.13604736,-0.80255127,-0.015625,-0.609375,0.328125
1696245181283,0.49316406,-0.128479,-0.79937744,0.03125,-0.5625,0.21875
1696245181324,0.48828125,-0.1296997,-0.7971802,-0.0625,-0.765625,0.328125
1696245181364,0.49902344,-0.1272583,-0.8086548,-0.171875,-0.5625,0.15625
1696245181405,0.49169922,-0.12384033,-0.80596924,-0.0625,-0.515625,0.3125
1696245181445,0.49414062,-0.124816895,-0.8098755,0.3125,-0.453125,0.15625
1696245181487,0.49804688,-0.13165283,-0.8171997,-0.484375,-0.234375,0.09375
1696245181525,0.4975586,-0.12823486,-0.8088989,0.0625,-0.59375,0.15625
1696245181565,0.49389648,-0.12506104,-0.8015747,0.1875,-0.828125,0.375
1696245181604,0.49414062,-0.13409424,-0.80133057,0.203125,-0.953125,0.453125
1696245181643,0.49267578,-0.13580322,-0.8130493,0.09375,-0.609375,0.234375
1696245181685,0.49536133,-0.12164307,-0.8023071,-0.109375,-0.625,0.203125
1696245181724,0.50390625,-0.13336182,-0.80255127,0.0625,-0.53125,0.375
1696245181764,0.5004883,-0.12408447,-0.80792236,-0.078125,-0.546875,0.3125
1696245181806,0.5019531,-0.13214111,-0.8179321,0.015625,-0.875,0.40625
1696245181845,0.49951172,-0.13311768,-0.8010864,0.046875,-0.84375,0.34375
1696245181883,0.49389648,-0.12384033,-0.803772,0.125,-0.59375,0.34375
1696245181925,0.49389648,-0.12823486,-0.79937744,0.21875,-1.0,0.34375
1696245181965,0.5004883,-0.12823486,-0.79644775,0.03125,-1.0625,0.40625
1696245182005,0.5,-0.13043213,-0.8062134,0.234375,-1.21875,0.28125
1696245182044,0.5070801,-0.12554932,-0.7959595,0.03125,-0.78125,0.359375
1696245182086,0.501709,-0.13311768,-0.8045044,-0.28125,-0.5,0.1875
1696245182125,0.4963379,-0.12432861,-0.80255127,-0.28125,-0.328125,0.03125
1696245182164,0.4958496,-0.12921143,-0.8010864,-0.921875,0.0625,-0.140625
1696245182205,0.49536133,-0.1272583,-0.7913208,-1.046875,0.203125,-0.1875
1696245182244,0.48754883,-0.12554932,-0.798645,-0.9375,0.453125,-0.03125
1696245182284,0.49291992,-0.13336182,-0.80596924,-0.78125,0.203125,-0.140625
1696245182303,0.49682617,-0.13214111,-0.81744385,-1.1875,0.609375,-0.1875
1696245182345,0.4909668,-0.13433838,-0.7918091,-1.0625,0.234375,-0.078125
1696245182407,0.4934082,-0.1404419,-0.8076782,-1.25,0.734375,-0.40625
1696245182425,0.48828125,-0.14337158,-0.8110962,-1.140625,0.671875,-0.1875
1696245182462,0.4819336,-0.13970947,-0.80963135,-0.5,0.203125,0.015625
1696245182523,0.49487305,-0.13922119,-0.8140259,-0.125,-0.421875,0.25
1696245182542,0.49194336,-0.14215088,-0.8118286,-0.015625,-0.71875,0.359375
1696245182604,0.4909668,-0.14312744,-0.81427,-0.046875,-0.640625,0.4375
1696245182623,0.48632812,-0.14337158,-0.80548096,0.96875,-1.125,0.65625
1696245182685,0.48461914,-0.1362915,-0.8027954,1.015625,-1.0625,0.625
1696245182702,0.49194336,-0.13531494,-0.8088989,0.3125,-0.984375,0.296875
1696245182745,0.48535156,-0.13653564,-0.80596924,0.328125,-0.890625,0.390625
1696245182784,0.48828125,-0.13214111,-0.8081665,0.125,-0.515625,0.34375
1696245182825,0.49243164,-0.1326294,-0.81256104,0.46875,-0.703125,0.5
1696245182884,0.49365234,-0.1375122,-0.8147583,-0.203125,-0.59375,0.109375
1696245182903,0.49072266,-0.13165283,-0.80792236,-0.171875,-0.46875,0.28125
1696245182964,0.4892578,-0.13238525,-0.7971802,0.171875,-0.546875,0.1875
1696245182983,0.48217773,-0.13336182,-0.80963135,-0.140625,-0.28125,0.078125
1696245183023,0.48779297,-0.13775635,-0.81085205,0.03125,-0.375,0.21875
1696245183064,0.48779297,-0.12799072,-0.8093872,-0.046875,-0.59375,0.09375
1696245183104,0.48754883,-0.13287354,-0.8069458,0.03125,-0.625,0.28125
1696245183163,0.49145508,-0.13116455,-0.803772,-0.125,-0.4375,0.046875
1696245183183,0.4873047,-0.13116455,-0.8052368,-0.0625,-0.578125,0.21875
1696245183246,0.484375,-0.12994385,-0.80670166,0.078125,-0.5,0.28125
1696245183264,0.48413086,-0.13140869,-0.81207275,0.203125,-0.640625,0.21875
1696245183305,0.4892578,-0.1350708,-0.8052368,0.15625,-0.90625,0.515625
1696245183347,0.48999023,-0.12774658,-0.80963135,-0.171875,-0.8125,0.21875
1696245183385,0.48950195,-0.13433838,-0.8052368,-0.171875,-0.859375,0.296875
1696245183425,0.4909668,-0.13897705,-0.8154907,-0.046875,-0.671875,0.25
1696245183464,0.48657227,-0.13848877,-0.79888916,0.203125,-0.515625,0.40625
1696245183505,0.48828125,-0.13848877,-0.81207275,-0.078125,-0.625,0.296875
1696245183544,0.48754883,-0.13092041,-0.81036377,-0.03125,-0.625,0.25
1696245183567,0.4909668,-0.13360596,-0.8088989,-0.09375,-0.671875,0.296875
1696245183604,0.49267578,-0.13116455,-0.80596924,-0.1875,-0.5625,0.125
1696245183643,0.49194336,-0.13653564,-0.80670166,-0.171875,-0.484375,0.40625
1696245183684,0.48339844,-0.13946533,-0.8123169,-0.21875,-0.671875,0.21875
1696245183725,0.4909668,-0.13995361,-0.8130493,-0.046875,-0.546875,0.015625
1696245183765,0.4946289,-0.13092041,-0.82037354,-0.4375,-0.359375,0.109375
1696245183805,0.48535156,-0.13580322,-0.8045044,-0.03125,-0.703125,0.234375
1696245183846,0.49536133,-0.13311768,-0.8049927,-0.09375,-0.640625,0.234375
1696245183885,0.48999023,-0.13336182,-0.8088989,-0.25,-0.953125,0.078125
1696245183923,0.4909668,-0.13311768,-0.8098755,0.078125,-0.921875,0.34375
1696245183965,0.49487305,-0.12799072,-0.8123169,0.0625,-1.1875,0.453125
1696245184006,0.48828125,-0.13336182,-0.8118286,0.171875,-1.140625,0.4375
1696245184044,0.4970703,-0.13653564,-0.81451416,-0.015625,-1.125,0.328125
1696245184084,0.49072266,-0.13140869,-0.8045044,0.265625,-1.140625,0.421875
1696245184124,0.49047852,-0.13336182,-0.8040161,0.15625,-1.015625,0.296875
1696245184165,0.4934082,-0.12896729,-0.8093872,0.390625,-1.34375,0.328125
1696245184210,0.49389648,-0.12921143,-0.8049927,0.25,-1.046875,0.484375
1696245184243,0.5007324,-0.12994385,-0.8076782,0.140625,-1.015625,0.265625
1696245184283,0.4897461,-0.13336182,-0.8064575,0.140625,-1.140625,0.40625
1696245184328,0.4970703,-0.13189697,-0.8057251,0.25,-0.984375,0.359375
1696245184365,0.4946289,-0.12921143,-0.8010864,-0.078125,-0.75,0.265625
1696245184406,0.48876953,-0.12774658,-0.79107666,0.28125,-1.046875,0.515625
1696245184443,0.49731445,-0.13677979,-0.81622314,-0.0625,-0.484375,0.359375
1696245184485,0.5053711,-0.12554932,-0.815979,0.125,-0.71875,0.296875
1696245184530,0.4958496,-0.12506104,-0.79888916,-0.21875,-0.78125,0.328125
1696245184567,0.50219727,-0.121398926,-0.79693604,0.09375,-0.734375,0.265625
1696245184604,0.5007324,-0.128479,-0.81207275,-0.171875,-0.5,0.21875
1696245184644,0.49951172,-0.12359619,-0.8062134,0.0625,-0.703125,0.09375
1696245184687,0.5004883,-0.12530518,-0.79400635,0.09375,-0.734375,0.359375
1696245184723,0.49438477,-0.13189697,-0.7991333,0.0,-0.53125,0.3125
1696245184764,0.4963379,-0.124816895,-0.80303955,0.03125,-0.28125,0.34375
1696245184803,0.49389648,-0.12188721,-0.798645,-0.171875,-0.03125,0.296875
1696245184866,0.49438477,-0.12799072,-0.79937744,-0.75,0.3125,-0.09375
1696245184882,0.49267578,-0.12628174,-0.79693604,-1.203125,0.765625,-0.171875
1696245184902,0.4958496,-0.13067627,-0.81329346,-1.265625,0.65625,-0.328125
1696245184943,0.49804688,-0.13043213,-0.8147583,-1.0625,0.421875,-0.234375
1696245184982,0.49243164,-0.13580322,-0.81085205,-0.734375,0.09375,-0.09375
1696245185023,0.49438477,-0.13409424,-0.81134033,-0.75,0.28125,0.015625
1696245185084,0.48706055,-0.14361572,-0.803772,-0.875,0.015625,-0.09375
1696245185102,0.48461914,-0.14312744,-0.8110962,-0.671875,-0.125,-0.234375
1696245185144,0.48413086,-0.13848877,-0.8106079,-0.546875,-0.5,0.15625
1696245185186,0.48657227,-0.13336182,-0.80596924,-0.4375,-0.234375,-0.078125
1696245185248,0.49121094,-0.14263916,-0.81622314,-0.4375,0.015625,0.203125
1696245185262,0.49389648,-0.13873291,-0.80914307,-0.46875,-0.125,0.078125
1696245185303,0.48706055,-0.14239502,-0.8128052,0.046875,-0.671875,0.203125
1696245185366,0.48291016,-0.1428833,-0.79815674,0.640625,-1.03125,0.421875
1696245185382,0.48168945,-0.13848877,-0.81256104,0.640625,-0.921875,0.5625
1696245185427,0.48999023,-0.1375122,-0.8189087,0.265625,-0.9375,0.453125
1696245185463,0.49047852,-0.1362915,-0.81817627,0.015625,-0.9375,0.234375
1696245185503,0.48535156,-0.1362915,-0.8045044,-0.171875,-0.640625,0.203125
1696245185547,0.49658203,-0.13726807,-0.81427,-0.140625,-0.59375,0.15625
1696245185605,0.49121094,-0.1404419,-0.803772,0.0,-0.703125,0.203125
1696245185622,0.49438477,-0.14263916,-0.8057251,0.15625,-0.609375,0.1875
1696245185666,0.48876953,-0.13482666,-0.8010864,0.015625,-0.390625,0.296875
1696245185703,0.4909668,-0.13238525,-0.81085205,0.03125,-0.53125,0.15625
1696245185745,0.48779297,-0.12896729,-0.80670166,0.078125,-0.9375,0.34375
1696245185784,0.4880371,-0.14019775,-0.80792236,-0.09375,-0.640625,0.3125
1696245185848,0.48510742,-0.13067627,-0.8057251,0.0,-0.703125,0.28125
1696245185865,0.4794922,-0.13214111,-0.78692627,0.25,-1.046875,0.40625
1696245185905,0.49658203,-0.1350708,-0.81134033,-0.0625,-0.34375,0.078125
1696245185966,0.48779297,-0.13775635,-0.7974243,0.3125,-0.59375,0.453125
1696245185982,0.48461914,-0.13360596,-0.7984009,0.359375,-0.484375,0.359375
1696245186027,0.4880371,-0.13677979,-0.8118286,-0.0625,-0.765625,0.25
1696245186087,0.48876953,-0.13287354,-0.80841064,-0.078125,-0.828125,0.3125
1696245186105,0.4909668,-0.1362915,-0.8064575,0.0,-0.59375,0.03125
1696245186146,0.49169922,-0.12628174,-0.81207275,-0.03125,-0.609375,0.203125
1696245186189,0.49975586,-0.1375122,-0.819397,-0.296875,-0.5,0.265625
1696245186203,0.48364258,-0.13897705,-0.81085205,0.046875,-0.4375,0.25
1696245186245,0.48876953,-0.12994385,-0.80181885,0.09375,-0.65625,0.3125
1696245186284,0.48535156,-0.12530518,-0.80133057,-0.03125,-0.515625,0.28125
1696245186324,0.49267578,-0.13775635,-0.80426025,0.171875,-0.59375,0.234375
1696245186364,0.49047852,-0.13946533,-0.81329346,-0.203125,-0.59375,0.1875
1696245186404,0.49243164,-0.13018799,-0.81329346,0.015625,-0.65625,0.265625
1696245186444,0.484375,-0.13482666,-0.81036377,-0.109375,-0.609375,0.25
1696245186483,0.49072266,-0.13360596,-0.8049927,0.15625,-0.796875,0.40625
1696245186526,0.49072266,-0.13897705,-0.81573486,-0.28125,-0.3125,-0.046875
1696245186563,0.4802246,-0.13165283,-0.80718994,0.03125,-0.453125,0.21875
1696245186605,0.48657227,-0.13018799,-0.8076782,0.140625,-0.6875,0.40625
1696245186643,0.48632812,-0.13189697,-0.80474854,0.25,-0.765625,0.4375
1696245186685,0.49536133,-0.13458252,-0.81207275,-0.078125,-0.46875,0.140625
1696245186722,0.4873047,-0.13043213,-0.8023071,-0.15625,-0.53125,0.296875
1696245186764,0.48828125,-0.13409424,-0.80474854,-0.03125,-0.546875,0.34375
1696245186804,0.48754883,-0.13458252,-0.8045044,0.078125,-0.46875,0.421875
1696245186843,0.49023438,-0.13531494,-0.8057251,0.09375,-0.8125,0.390625
1696245186885,0.48461914,-0.13336182,-0.8069458,-0.015625,-0.578125,0.421875
1696245186922,0.4873047,-0.12945557,-0.8027954,0.15625,-0.59375,0.21875
1696245186986,0.48657227,-0.12896729,-0.8023071,0.09375,-0.71875,0.28125
1696245187003,0.49267578,-0.12823486,-0.8015747,0.015625,-0.609375,0.21875
1696245187044,0.48706055,-0.13214111,-0.80474854,0.0,-0.5625,0.296875
1696245187086,0.4880371,-0.13067627,-0.8045044,-0.078125,-0.546875,0.359375
1696245187123,0.49389648,-0.12628174,-0.8023071,-0.15625,-0.65625,0.296875
1696245187167,0.49072266,-0.13189697,-0.8008423,-0.015625,-0.640625,0.296875
1696245187204,0.48608398,-0.13018799,-0.80133057,0.203125,-0.734375,0.21875
1696245187244,0.48632812,-0.12823486,-0.78863525,0.203125,-1.125,0.4375
1696245187288,0.49023438,-0.13287354,-0.8115845,-0.28125,-0.4375,0.21875
1696245187322,0.4868164,-0.13214111,-0.8015747,0.109375,-0.734375,0.375
1696245187363,0.4921875,-0.12945557,-0.8101196,-0.078125,-0.71875,0.328125
1696245187405,0.49194336,-0.13214111,-0.8164673,-0.078125,-0.59375,0.25
1696245187443,0.49536133,-0.13043213,-0.8110962,-0.1875,-0.53125,0.203125
1696245187483,0.48828125,-0.13165283,-0.80670166,0.046875,-0.40625,0.328125
1696245187503,0.4873047,-0.1326294,-0.8064575,-0.125,-0.515625,0.25
1696245187544,0.49780273,-0.1326294,-0.8093872,-0.09375,-0.53125,0.234375
1696245187586,0.4819336,-0.1260376,-0.8086548,-0.1875,-0.484375,0.1875
1696245187623,0.4807129,-0.13043213,-0.81036377,-0.046875,-0.640625,0.203125
1696245187665,0.48876953,-0.1326294,-0.81378174,-0.03125,-0.765625,0.234375
1696245187704,0.49169922,-0.12994385,-0.8076782,0.703125,-1.234375,0.546875
1696245187745,0.49536133,-0.128479,-0.8074341,0.703125,-1.5,0.546875
1696245187786,0.49487305,-0.12921143,-0.8115845,0.953125,-1.875,0.65625
1696245187826,0.49780273,-0.12530518,-0.80792236,0.453125,-0.984375,0.46875
1696245187866,0.48876953,-0.12554932,-0.7996216,0.46875,-0.9375,0.453125
1696245187904,0.50024414,-0.13140869,-0.80792236,-0.328125,-0.5,0.15625
1696245187948,0.49609375,-0.124572754,-0.81256104,0.171875,-0.625,0.359375
1696245188004,0.4909668,-0.12408447,-0.7996216,0.15625,-0.78125,0.25
1696245188024,0.48876953,-0.12310791,-0.79693604,0.328125,-0.78125,0.359375
1696245188066,0.49121094,-0.12359619,-0.80792236,0.078125,-0.546875,0.234375
1696245188105,0.49682617,-0.12823486,-0.8057251,0.015625,-0.671875,0.328125
1696245188166,0.4934082,-0.12213135,-0.80474854,0.078125,-0.640625,0.375
1696245188205,0.4946289,-0.12579346,-0.8064575,-0.15625,-0.59375,0.25
1696245188221,0.49731445,-0.12335205,-0.8110962,-0.296875,-0.65625,0.234375
1696245188264,0.48876953,-0.120910645,-0.800354,0.171875,-0.671875,0.28125
1696245188304,0.49316406,-0.12921143,-0.8008423,-0.015625,-0.90625,0.3125
1696245188366,0.49682617,-0.12213135,-0.81036377,0.203125,-0.6875,0.25
1696245188385,0.49926758,-0.12017822,-0.80914307,0.078125,-0.796875,0.109375
1696245188425,0.50024414,-0.1260376,-0.8118286,0.28125,-0.84375,0.328125
1696245188485,0.49609375,-0.12677002,-0.80255127,0.265625,-0.890625,0.40625
1696245188502,0.49365234,-0.124816895,-0.815979,0.234375,-0.84375,0.3125
1696245188546,0.50219727,-0.12237549,-0.8045044,0.171875,-1.203125,0.453125
1696245188606,0.50219727,-0.120666504,-0.8027954,0.015625,-1.203125,0.296875
1696245188626,0.4963379,-0.12042236,-0.8015747,-0.09375,-0.703125,0.265625
1696245188685,0.5036621,-0.11968994,-0.81036377,-0.203125,-0.515625,0.34375
1696245188702,0.4951172,-0.12774658,-0.80303955,0.109375,-0.71875,0.421875
1696245188763,0.49975586,-0.12408447,-0.8118286,-0.25,-0.453125,0.0625
1696245188782,0.5058594,-0.11480713,-0.8088989,-0.421875,-0.6875,0.125
1696245188825,0.49682617,-0.11431885,-0.8008423,-0.0625,-0.421875,0.046875
1696245188843,0.49780273,-0.120910645,-0.8081665,-0.09375,-0.515625,0.34375
1696245188887,0.50219727,-0.11480713,-0.7996216,0.03125,-0.796875,0.390625
1696245188923,0.49487305,-0.11993408,-0.8057251,0.0625,-0.984375,0.3125
1696245188987,0.4963379,-0.12432861,-0.8010864,0.234375,-0.78125,0.21875
1696245189002,0.5004883,-0.117492676,-0.8010864,0.125,-0.921875,0.109375
1696245189044,0.49951172,-0.120666504,-0.8049927,0.140625,-0.90625,0.203125
1696245189086,0.5041504,-0.12213135,-0.8008423,0.125,-0.625,0.40625
1696245189125,0.50268555,-0.12164307,-0.8049927,0.015625,-0.796875,0.359375
1696245189164,0.50097656,-0.124816895,-0.8049927,-0.25,-1.03125,0.296875
1696245189206,0.5083008,-0.11993408,-0.8032837,-0.15625,-0.875,0.234375
1696245189247,0.50390625,-0.12432861,-0.7896118,0.015625,-1.015625,0.234375
1696245189283,0.50390625,-0.11773682,-0.80059814,-0.34375,-0.640625,0.078125
1696245189325,0.5004883,-0.11798096,-0.8130493,-0.109375,-0.84375,0.3125
1696245189364,0.5083008,-0.12188721,-0.7974243,-0.21875,-0.484375,0.3125
1696245189403,0.5041504,-0.121398926,-0.7944946,-0.09375,-0.359375,0.234375
1696245189444,0.50805664,-0.12774658,-0.79815674,-0.15625,-0.28125,0.03125
1696245189485,0.5083008,-0.1260376,-0.8040161,-0.1875,-0.546875,0.203125
1696245189524,0.50146484,-0.121154785,-0.8074341,-0.21875,-0.546875,0.171875
1696245189585,0.49829102,-0.12359619,-0.80255127,0.125,-0.8125,0.265625
1696245189603,0.51171875,-0.124572754,-0.8106079,-0.15625,-1.578125,0.375
1696245189645,0.5090332,-0.12164307,-0.80474854,-0.484375,-1.421875,0.234375
1696245189684,0.50341797,-0.12432861,-0.78619385,-0.046875,-0.640625,0.1875
1696245189724,0.5012207,-0.12408447,-0.81207275,-0.21875,-0.53125,0.265625
1696245189763,0.5012207,-0.11627197,-0.78985596,-0.25,-0.625,0.15625
1696245189805,0.50097656,-0.11846924,-0.80718994,-0.109375,-0.484375,0.171875
1696245189845,0.4963379,-0.12042236,-0.7962036,-0.328125,-0.890625,0.375
1696245189885,0.5061035,-0.12408447,-0.8086548,-0.421875,-0.859375,0.109375
1696245189925,0.50561523,-0.12042236,-0.8027954,-0.421875,-1.046875,0.171875
1696245189965,0.5083008,-0.12750244,-0.798645,-0.40625,-1.21875,0.078125
1696245190004,0.5175781,-0.12310791,-0.80426025,-0.546875,-0.921875,0.015625
1696245190045,0.51171875,-0.124572754,-0.7930298,0.078125,-0.640625,0.28125
1696245190085,0.5061035,-0.12261963,-0.7896118,-0.34375,-0.46875,0.25
1696245190123,0.5053711,-0.128479,-0.7949829,-0.015625,-0.484375,0.171875
1696245190143,0.5065918,-0.12872314,-0.8123169,-0.375,-0.421875,0.171875
1696245190185,0.5078125,-0.12359619,-0.78985596,-0.171875,-0.890625,0.1875
1696245190287,0.5085449,-0.12750244,-0.80474854,-0.25,-0.75,0.203125
1696245190289,0.5058594,-0.121398926,-0.79351807,0.21875,-1.09375,0.375
1696245190305,0.5161133,-0.13092041,-0.8064575,-0.140625,-0.78125,0.046875
1696245190346,0.51049805,-0.12896729,-0.7852173,-0.09375,-1.1875,0.296875
1696245190386,0.5114746,-0.11578369,-0.79522705,0.125,-0.765625,0.21875
1696245190425,0.50146484,-0.12701416,-0.79693604,0.03125,-0.828125,0.234375
1696245190463,0.51000977,-0.12261963,-0.7991333,0.0,-0.546875,0.3125
1696245190505,0.51342773,-0.12506104,-0.79766846,0.0625,-0.90625,0.375
1696245190545,0.5114746,-0.12335205,-0.80596924,-0.171875,-1.09375,0.21875
1696245190586,0.5078125,-0.12872314,-0.7908325,-0.265625,-1.234375,0.1875
1696245190624,0.5065918,-0.12677002,-0.79473877,-0.046875,-1.125,0.328125
1696245190686,0.51123047,-0.128479,-0.79400635,-0.078125,-1.34375,0.21875
1696245190704,0.513916,-0.1338501,-0.80548096,-0.421875,-1.28125,0.21875
1696245190766,0.51538086,-0.12188721,-0.79034424,-0.015625,-1.34375,0.203125
1696245190782,0.5102539,-0.12261963,-0.7883911,-0.15625,-1.03125,0.359375
1696245190826,0.5090332,-0.1272583,-0.788147,-0.109375,-0.6875,0.34375
1696245190865,0.5136719,-0.1260376,-0.7937622,-0.140625,-0.46875,0.125
1696245190905,0.51538086,-0.120910645,-0.7893677,-0.171875,-0.71875,0.0625
1696245190966,0.51171875,-0.12652588,-0.79034424,0.109375,-0.90625,0.4375
1696245190982,0.5187988,-0.1272583,-0.79278564,0.203125,-1.234375,0.4375
1696245191024,0.52124023,-0.128479,-0.80596924,-0.1875,-0.921875,0.203125
1696245191063,0.5197754,-0.12310791,-0.7883911,0.15625,-1.03125,0.421875
1696245191104,0.5168457,-0.12286377,-0.79229736,-0.015625,-0.234375,0.265625
1696245191145,0.51586914,-0.120666504,-0.7842407,-0.359375,0.6875,0.03125
1696245191185,0.5114746,-0.12164307,-0.7774048,-2.375,3.53125,-0.90625
1696245191225,0.5,-0.12359619,-0.79278564,-1.484375,3.171875,-0.21875
1696245191285,0.50097656,-0.13824463,-0.80010986,-2.140625,2.765625,-0.28125
1696245191303,0.49902344,-0.13604736,-0.7996216,-1.984375,3.921875,-0.390625
1696245191345,0.48901367,-0.13726807,-0.8147583,-1.796875,3.53125,-0.421875
1696245191424,0.48608398,-0.1428833,-0.80914307,-0.953125,2.21875,-0.3125
1696245191426,0.4897461,-0.13702393,-0.80792236,-0.296875,1.375,-0.0625
1696245191444,0.4855957,-0.14068604,-0.8255005,-0.359375,-0.40625,0.140625
1696245191485,0.48754883,-0.13726807,-0.81500244,-0.359375,-0.28125,0.140625
1696245191523,0.48535156,-0.1404419,-0.80426025,0.078125,-0.609375,0.515625
1696245191565,0.48583984,-0.14019775,-0.8154907,0.546875,-0.59375,0.421875
1696245191605,0.48046875,-0.13458252,-0.8023071,0.609375,-0.765625,0.34375
1696245191644,0.48901367,-0.1296997,-0.8140259,0.171875,-0.390625,0.21875
1696245191684,0.48754883,-0.1338501,-0.8115845,0.296875,-0.609375,0.3125
1696245191727,0.4885254,-0.13580322,-0.81744385,0.453125,-0.8125,0.46875
1696245191766,0.48339844,-0.13214111,-0.80426025,0.09375,-0.84375,0.5
1696245191805,0.4885254,-0.13848877,-0.80596924,-0.15625,-0.84375,0.125
1696245191846,0.48339844,-0.14117432,-0.8045044,-0.140625,-0.859375,0.234375
1696245191885,0.48657227,-0.13580322,-0.79815674,0.25,-0.40625,0.09375
1696245191925,0.48388672,-0.13311768,-0.8130493,0.28125,-0.453125,0.234375
1696245191964,0.4897461,-0.14068604,-0.8154907,0.203125,-0.53125,0.4375
1696245192007,0.48901367,-0.1296997,-0.8118286,0.09375,-0.65625,0.234375
1696245192045,0.4873047,-0.13824463,-0.8171997,-0.40625,-0.578125,0.125
1696245192086,0.48901367,-0.13922119,-0.803772,0.15625,-0.765625,0.25
1696245192123,0.4868164,-0.13214111,-0.7905884,0.171875,-1.015625,0.3125
1696245192167,0.48828125,-0.13067627,-0.81378174,0.015625,-0.546875,0.28125
1696245192208,0.49169922,-0.13360596,-0.7984009,0.0625,-0.890625,0.328125
1696245192254,0.4855957,-0.13922119,-0.8049927,0.3125,-0.53125,0.375
1696245192284,0.49243164,-0.13409424,-0.81866455,-0.375,-0.4375,0.0
1696245192326,0.48461914,-0.13482666,-0.8076782,-0.21875,-0.4375,0.171875
1696245192365,0.4885254,-0.13165283,-0.8106079,-0.140625,-0.78125,0.453125
1696245192404,0.49072266,-0.13531494,-0.8086548,0.0625,-0.46875,0.4375
1696245192444,0.49072266,-0.1362915,-0.817688,-0.3125,-0.53125,0.203125
1696245192485,0.48168945,-0.13165283,-0.803772,0.140625,-0.8125,0.34375
1696245192524,0.49316406,-0.13555908,-0.81427,-0.0625,-0.515625,0.3125
1696245192564,0.48413086,-0.12579346,-0.81036377,-0.234375,-0.609375,0.28125
1696245192604,0.4934082,-0.13238525,-0.81207275,-0.1875,-0.71875,0.265625
1696245192645,0.48657227,-0.124572754,-0.8130493,-0.203125,-0.59375,0.25
1696245192684,0.48461914,-0.12823486,-0.8128052,0.0,-0.546875,0.3125
1696245192724,0.4794922,-0.12921143,-0.8076782,-0.109375,-0.59375,0.21875
1696245192767,0.4814453,-0.13189697,-0.79571533,0.046875,-0.734375,0.328125
1696245192782,0.49414062,-0.13311768,-0.8218384,-0.484375,-0.3125,0.09375
1696245192845,0.4885254,-0.13043213,-0.81378174,-0.265625,-0.625,0.09375
1696245192863,0.48461914,-0.13702393,-0.8015747,-0.046875,-0.734375,0.34375
1696245192907,0.4814453,-0.13726807,-0.7984009,0.1875,-0.734375,0.359375
1696245192964,0.48876953,-0.13214111,-0.81207275,-0.171875,-0.546875,0.21875
1696245192984,0.48266602,-0.13140869,-0.81256104,-0.359375,-0.671875,0.078125
1696245193067,0.47851562,-0.13336182,-0.80474854,-0.078125,-0.546875,0.203125
1696245193071,0.4802246,-0.14093018,-0.803772,0.03125,-0.90625,0.296875
1696245193106,0.4921875,-0.13848877,-0.8123169,-0.078125,-0.875,0.296875
1696245193144,0.48413086,-0.13800049,-0.80596924,0.09375,-0.796875,0.1875
1696245193184,0.48388672,-0.1375122,-0.8106079,0.015625,-0.65625,0.234375
1696245193224,0.49316406,-0.1338501,-0.81134033,0.03125,-0.890625,0.171875
1696245193264,0.4909668,-0.13043213,-0.80963135,-0.1875,-0.921875,0.28125
1696245193323,0.49658203,-0.1362915,-0.8062134,0.09375,-0.921875,0.3125
1696245193343,0.48535156,-0.13092041,-0.80718994,-0.046875,-0.875,0.40625
1696245193385,0.49389648,-0.13287354,-0.81500244,-0.140625,-0.734375,0.359375
1696245193425,0.48657227,-0.12994385,-0.80255127,0.0,-0.765625,0.296875
1696245193464,0.49267578,-0.12945557,-0.80181885,0.078125,-1.0,0.46875
1696245193503,0.4958496,-0.13970947,-0.80963135,-0.234375,-0.78125,0.234375
1696245193566,0.5012207,-0.13287354,-0.8189087,-0.015625,-0.890625,0.421875
1696245193585,0.49121094,-0.13043213,-0.800354,0.0,-0.65625,0.328125
1696245193645,0.49145508,-0.13360596,-0.798645,0.109375,-0.203125,0.25
1696245193663,0.49536133,-0.13336182,-0.8154907,-0.296875,0.078125,0.140625
1696245193725,0.49047852,-0.1326294,-0.79522705,-0.28125,0.1875,0.171875
1696245193744,0.48999023,-0.1296997,-0.79888916,-0.65625,0.46875,0.0
1696245193785,0.48779297,-0.12213135,-0.803772,-1.0,1.03125,-0.3125
1696245193846,0.49169922,-0.13360596,-0.81622314,-1.171875,0.46875,-0.09375
1696245193865,0.48608398,-0.13726807,-0.80841064,-0.875,0.703125,-0.109375
1696245193905,0.48486328,-0.13922119,-0.815979,-0.640625,0.8125,-0.03125
1696245193985,0.4736328,-0.13995361,-0.8128052,-0.8125,0.765625,-0.09375
1696245193990,0.47436523,-0.14019775,-0.8110962,-0.53125,0.25,-0.109375
1696245194031,0.47583008,-0.13824463,-0.80914307,-0.5,0.015625,-0.125
1696245194064,0.47460938,-0.13409424,-0.8196411,-0.5,0.015625,-0.03125
1696245194083,0.48217773,-0.14483643,-0.8130493,-0.5625,-0.34375,-0.03125
1696245194124,0.48120117,-0.13726807,-0.81866455,-0.484375,-0.515625,0.0625
1696245194164,0.47802734,-0.14337158,-0.81573486,-0.3125,-0.4375,0.34375
1696245194205,0.4873047,-0.1404419,-0.817688,0.234375,-0.953125,0.421875
1696245194245,0.47583008,-0.13677979,-0.800354,0.96875,-0.890625,0.65625
1696245194285,0.4711914,-0.14263916,-0.81622314,0.390625,-0.953125,0.28125
1696245194324,0.4777832,-0.14190674,-0.81622314,0.015625,-0.96875,0.234375
1696245194364,0.48120117,-0.1404419,-0.81036377,-0.078125,-0.625,0.328125
1696245194405,0.47631836,-0.13580322,-0.81085205,-0.4375,-0.59375,0.25
1696245194445,0.48266602,-0.13946533,-0.8118286,-0.296875,-0.484375,0.171875
1696245194485,0.4814453,-0.1416626,-0.8201294,-0.171875,-0.671875,0.171875
1696245194524,0.4765625,-0.14703369,-0.8076782,-0.0625,-0.546875,0.390625
1696245194566,0.47680664,-0.13482666,-0.798645,0.078125,-0.515625,0.203125
1696245194603,0.4729004,-0.1416626,-0.8062134,0.3125,-0.71875,0.328125
1696245194644,0.47802734,-0.13824463,-0.81622314,0.0625,-0.796875,0.34375
1696245194683,0.48168945,-0.13677979,-0.8086548,-0.09375,-0.8125,0.3125
1696245194745,0.48608398,-0.14117432,-0.8189087,-0.03125,-0.796875,0.25
1696245194764,0.48461914,-0.14703369,-0.81744385,-0.078125,-0.71875,0.421875
1696245194806,0.47753906,-0.13287354,-0.80718994,0.0,-0.6875,0.484375
1696245194846,0.47460938,-0.14215088,-0.80670166,0.125,-0.625,0.328125
1696245194883,0.47583008,-0.13311768,-0.80010986,0.4375,-0.6875,0.546875
1696245194926,0.47387695,-0.13677979,-0.78741455,0.34375,-0.9375,0.421875
1696245194965,0.48583984,-0.13433838,-0.8184204,-0.21875,-0.625,0.296875
1696245195004,0.4741211,-0.13580322,-0.8081665,-0.03125,-1.0,0.3125
1696245195044,0.47680664,-0.13482666,-0.81378174,-0.046875,-0.609375,0.28125
1696245195084,0.47851562,-0.14337158,-0.8201294,-0.390625,-0.40625,0.09375
1696245195136,0.4753418,-0.13653564,-0.80914307,-0.046875,-0.53125,0.34375
1696245195164,0.47998047,-0.13458252,-0.8074341,-0.078125,-0.5625,0.234375
1696245195206,0.47021484,-0.13604736,-0.8045044,0.03125,-0.484375,0.28125
1696245195246,0.48168945,-0.14434814,-0.81451416,-0.125,-0.640625,0.140625
1696245195284,0.47851562,-0.13848877,-0.81256104,-0.21875,-0.546875,0.359375
1696245195322,0.4831543,-0.14068604,-0.81817627,0.140625,-0.875,0.359375
1696245195366,0.47705078,-0.1375122,-0.8147583,-0.234375,-0.578125,0.203125
1696245195404,0.47753906,-0.1350708,-0.8064575,0.09375,-0.640625,0.171875
1696245195423,0.4807129,-0.13287354,-0.8118286,-0.125,-0.59375,0.1875
1696245195488,0.4807129,-0.14141846,-0.8130493,0.046875,-0.71875,0.375
1696245195503,0.48461914,-0.13873291,-0.81329346,-0.140625,-0.828125,0.140625
1696245195545,0.48095703,-0.1404419,-0.8135376,-0.140625,-0.75,0.21875
1696245195584,0.48266602,-0.13531494,-0.8098755,0.234375,-0.625,0.375
1696245195624,0.47875977,-0.12579346,-0.79107666,0.359375,-1.078125,0.59375
1696245195666,0.4897461,-0.13653564,-0.8179321,-0.140625,-0.53125,0.140625
1696245195724,0.4777832,-0.13189697,-0.8076782,0.046875,-0.828125,0.15625
1696245195743,0.48242188,-0.13800049,-0.8069458,-0.21875,-0.46875,0.15625
1696245195809,0.4794922,-0.13702393,-0.80059814,-0.140625,-0.65625,0.3125
1696245195822,0.48388672,-0.13287354,-0.8086548,-0.234375,-0.5,0.171875
1696245195888,0.47705078,-0.13458252,-0.82037354,-0.109375,-0.515625,0.25
1696245195903,0.47998047,-0.12945557,-0.8189087,0.15625,-0.734375,0.296875
1696245195946,0.4831543,-0.13482666,-0.8189087,-0.15625,-0.703125,0.28125
1696245195984,0.47973633,-0.1404419,-0.81378174,-0.109375,-0.640625,0.25
1696245196025,0.47973633,-0.13848877,-0.81134033,0.0,-0.671875,0.234375
1696245196066,0.4868164,-0.13140869,-0.8135376,0.0625,-0.671875,0.21875
1696245196104,0.48413086,-0.13531494,-0.8098755,-0.0625,-0.890625,0.375
1696245196164,0.47802734,-0.13067627,-0.8147583,-0.078125,-0.71875,0.40625
1696245196183,0.48217773,-0.13311768,-0.817688,-0.109375,-0.75,0.21875
1696245196225,0.4868164,-0.13409424,-0.8171997,0.046875,-0.671875,-0.015625
1696245196288,0.4819336,-0.13995361,-0.81500244,-0.0625,-0.65625,0.203125
1696245196324,0.4802246,-0.13726807,-0.8128052,-0.015625,-0.625,0.1875
1696245196343,0.48413086,-0.1296997,-0.8086548,0.0,-0.671875,0.234375
1696245196407,0.48535156,-0.12872314,-0.8081665,-0.0625,-0.4375,0.109375
1696245196443,0.48779297,-0.13165283,-0.81378174,-0.328125,-0.546875,0.140625
1696245196464,0.47875977,-0.13726807,-0.80303955,0.09375,-0.5625,0.046875
1696245196505,0.4807129,-0.13848877,-0.81500244,-0.234375,-0.578125,0.234375
1696245196544,0.49194336,-0.13677979,-0.81744385,-0.125,-0.96875,0.125
1696245196606,0.48291016,-0.13043213,-0.8081665,-0.09375,-0.671875,0.109375
1696245196622,0.49072266,-0.12701416,-0.81817627,-0.453125,-0.4375,0.109375
1696245196665,0.4790039,-0.13726807,-0.8167114,-0.015625,-0.6875,0.375
1696245196727,0.48706055,-0.13897705,-0.81256104,-0.328125,-0.625,0.078125
1696245196731,0.4819336,-0.14141846,-0.81451416,-0.015625,-0.6875,0.140625
1696245196764,0.48632812,-0.1338501,-0.800354,-0.109375,-0.5625,0.125
1696245196845,0.48583984,-0.1375122,-0.81134033,0.0625,-0.734375,0.1875
1696245196849,0.4802246,-0.13433838,-0.8147583,0.0,-0.6875,0.3125
1696245196886,0.4909668,-0.13336182,-0.81085205,-0.0625,-0.703125,0.390625
1696245196926,0.48657227,-0.13970947,-0.8171997,0.375,-1.015625,0.375
1696245196967,0.4807129,-0.13433838,-0.8062134,0.46875,-1.203125,0.390625
1696245197006,0.48583984,-0.12506104,-0.8015747,0.3125,-1.078125,0.296875
1696245197045,0.4814453,-0.13189697,-0.81256104,0.125,-0.90625,0.28125
1696245197083,0.48510742,-0.12921143,-0.817688,0.515625,-1.015625,0.328125
1696245197125,0.48510742,-0.13433838,-0.8123169,0.46875,-1.078125,0.484375
1696245197164,0.49853516,-0.12530518,-0.82159424,-0.078125,-0.78125,0.1875
1696245197205,0.4885254,-0.13653564,-0.8123169,0.1875,-0.96875,0.4375
1696245197245,0.48706055,-0.13018799,-0.80474854,0.15625,-0.9375,0.296875
1696245197284,0.48706055,-0.13214111,-0.8052368,0.109375,-0.796875,0.171875
1696245197325,0.48901367,-0.12628174,-0.80596924,-0.046875,-0.625,0.25
1696245197365,0.4909668,-0.13287354,-0.8088989,0.03125,-0.78125,0.28125
1696245197404,0.48876953,-0.13311768,-0.8140259,0.25,-0.921875,0.21875
1696245197448,0.49291992,-0.12652588,-0.8069458,-0.09375,-1.015625,0.296875
1696245197486,0.48486328,-0.13677979,-0.81207275,-0.203125,-0.71875,0.328125
1696245197522,0.48754883,-0.128479,-0.81085205,0.03125,-0.75,0.125
1696245197564,0.48828125,-0.12872314,-0.8081665,0.109375,-0.953125,0.265625
1696245197604,0.49951172,-0.12823486,-0.8093872,0.125,-0.75,0.21875
1696245197646,0.4880371,-0.13214111,-0.8049927,-0.03125,-0.796875,0.3125
1696245197688,0.49536133,-0.12945557,-0.8088989,-0.4375,-0.71875,0.171875
1696245197722,0.48754883,-0.12628174,-0.8027954,-0.328125,-0.765625,0.0625
1696245197789,0.4958496,-0.1260376,-0.8062134,-0.234375,-0.90625,0.25
1696245197803,0.4921875,-0.13189697,-0.8069458,-0.09375,-1.109375,0.3125
1696245197846,0.49072266,-0.12554932,-0.81036377,-0.171875,-0.9375,0.328125
1696245197885,0.49560547,-0.13116455,-0.80718994,-0.265625,-0.359375,0.234375
1696245197926,0.49536133,-0.12945557,-0.8140259,-0.359375,-0.421875,0.125
1696245197966,0.49194336,-0.1350708,-0.802063,-0.140625,-0.703125,0.171875
1696245198048,0.4946289,-0.13092041,-0.80548096,0.03125,-0.484375,0.3125
1696245198052,0.49194336,-0.13214111,-0.8081665,-0.265625,-0.625,0.046875
1696245198063,0.48657227,-0.12774658,-0.8064575,-0.046875,-0.453125,0.125
1696245198104,0.4885254,-0.1362915,-0.8076782,0.046875,-0.75,0.265625
1696245198167,0.49291992,-0.12579346,-0.8106079,0.015625,-1.046875,0.40625
1696245198182,0.4892578,-0.13238525,-0.80474854,-0.046875,-0.75,0.234375
1696245198248,0.5,-0.13287354,-0.80474854,0.203125,-0.890625,0.4375
1696245198263,0.5007324,-0.12677002,-0.81329346,0.0625,-0.65625,0.1875
1696245198304,0.49267578,-0.12506104,-0.8088989,0.0625,-0.734375,0.359375
1696245198366,0.4958496,-0.13043213,-0.8081665,-0.046875,-0.65625,0.375
1696245198383,0.4970703,-0.13214111,-0.80914307,-0.09375,-0.703125,0.21875
1696245198425,0.49414062,-0.12896729,-0.8069458,-0.078125,-0.703125,0.171875
1696245198486,0.49682617,-0.12701416,-0.81134033,-0.171875,-0.71875,0.359375
1696245198502,0.48950195,-0.128479,-0.8015747,-0.109375,-0.921875,0.375
1696245198545,0.49072266,-0.1272583,-0.8069458,0.109375,-0.71875,0.1875
1696245198584,0.49804688,-0.12432861,-0.8101196,-0.265625,-0.625,0.234375
1696245198627,0.4921875,-0.128479,-0.81085205,-0.078125,-0.65625,0.21875
1696245198685,0.49121094,-0.12213135,-0.80010986,-0.078125,-0.6875,0.265625
1696245198703,0.4970703,-0.12896729,-0.80792236,-0.078125,-0.59375,0.34375
1696245198746,0.49291992,-0.12921143,-0.81036377,-0.203125,-0.65625,-0.015625
1696245198806,0.4946289,-0.1272583,-0.80718994,-0.1875,-0.65625,0.078125
1696245198825,0.49414062,-0.120910645,-0.8027954,0.09375,-0.703125,0.328125
1696245198884,0.49414062,-0.128479,-0.8045044,-0.109375,-0.828125,0.359375
1696245198924,0.49829102,-0.12750244,-0.81500244,-0.296875,-0.796875,0.109375
1696245198982,0.49389648,-0.1296997,-0.80181885,-0.21875,-0.859375,0.109375
1696245198985,0.49560547,-0.1272583,-0.80352783,-0.0625,-0.765625,0.28125
1696245199025,0.4970703,-0.13043213,-0.80059814,0.0625,-0.890625,0.25
1696245199082,0.49951172,-0.12506104,-0.802063,-0.078125,-1.015625,0.25
1696245199102,0.49365234,-0.13140869,-0.80963135,0.171875,-0.734375,0.46875
1696245199144,0.4975586,-0.13433838,-0.8098755,-0.21875,-0.703125,0.265625
1696245199182,0.50146484,-0.12921143,-0.80474854,-0.125,-0.671875,0.28125
1696245199222,0.50219727,-0.1350708,-0.8027954,-0.09375,-0.8125,0.28125
1696245199282,0.5024414,-0.1326294,-0.798645,-0.15625,-0.671875,0.234375
1696245199302,0.4975586,-0.1260376,-0.8049927,-0.234375,-0.5625,0.09375
1696245199342,0.4987793,-0.124572754,-0.8106079,-0.015625,-0.828125,0.203125
1696245199362,0.49365234,-0.120666504,-0.8064575,-0.265625,-0.65625,0.25
1696245199402,0.49829102,-0.12896729,-0.8040161,0.0,-0.75,0.28125
1696245199442,0.50390625,-0.12579346,-0.8015747,-0.265625,-0.5,0.3125
1696245199482,0.4897461,-0.13336182,-0.7971802,-0.25,-0.84375,0.265625
1696245199522,0.4958496,-0.12554932,-0.8093872,-0.28125,-0.8125,0.171875
1696245199564,0.49853516,-0.12994385,-0.8062134,-0.140625,-0.890625,0.296875
1696245199604,0.49438477,-0.1260376,-0.7937622,0.125,-0.921875,0.4375
1696245199645,0.5024414,-0.12994385,-0.7991333,-0.21875,-0.796875,0.25
1696245199684,0.4987793,-0.13482666,-0.79766846,-0.046875,-0.609375,0.296875
1696245199724,0.49804688,-0.12408447,-0.8069458,0.078125,-0.640625,0.265625
1696245199766,0.4951172,-0.12506104,-0.80352783,0.046875,-0.65625,0.296875
1696245199806,0.5041504,-0.128479,-0.80352783,-0.0625,-0.453125,0.265625
1696245199846,0.5,-0.12994385,-0.80426025,-0.0625,-0.421875,0.203125
1696245199886,0.501709,-0.128479,-0.8062134,-0.28125,-0.390625,0.015625
1696245199924,0.49682617,-0.13140869,-0.7984009,-0.484375,-0.28125,0.3125
1696245199965,0.49975586,-0.1272583,-0.79400635,-0.140625,-0.359375,0.1875
1696245200004,0.4975586,-0.13165283,-0.81427,-0.4375,-0.203125,0.21875
1696245200045,0.4970703,-0.12945557,-0.8062134,0.046875,-0.578125,0.3125
1696245200085,0.48999023,-0.12554932,-0.7962036,-0.140625,-0.6875,0.265625
1696245200124,0.49853516,-0.13702393,-0.80181885,-0.46875,-0.4375,0.234375
1696245200168,0.4975586,-0.1338501,-0.8057251,-0.390625,-0.546875,0.21875
1696245200204,0.49023438,-0.12774658,-0.80010986,-0.046875,-0.703125,0.1875
1696245200245,0.4958496,-0.13580322,-0.8008423,0.15625,-0.65625,0.375
1696245200286,0.49389648,-0.12896729,-0.8069458,-0.1875,-0.71875,0.421875
1696245200327,0.49951172,-0.13580322,-0.8081665,-0.390625,-0.578125,0.140625
1696245200365,0.49926758,-0.13531494,-0.80059814,-0.359375,-0.4375,0.15625
1696245200404,0.49902344,-0.13702393,-0.8032837,-0.375,-0.5625,0.109375
1696245200444,0.49804688,-0.12872314,-0.80303955,-0.390625,-0.390625,0.140625
1696245200488,0.49291992,-0.12872314,-0.798645,-0.296875,-0.140625,0.265625
1696245200527,0.49609375,-0.13555908,-0.8088989,-0.5625,-0.046875,0.171875
1696245200564,0.49780273,-0.13311768,-0.8062134,-0.546875,-0.078125,0.203125
1696245200604,0.49536133,-0.13604736,-0.80474854,-0.703125,0.296875,-0.046875
1696245200666,0.49389648,-0.13482666,-0.80474854,-1.078125,0.40625,-0.046875
1696245200706,0.4897461,-0.13604736,-0.80303955,-0.609375,-0.28125,0.03125
1696245200708,0.49121094,-0.13409424,-0.80303955,-0.40625,0.125,0.078125
1696245200766,0.48754883,-0.144104,-0.81256104,-0.5,0.171875,0.0625
1696245200782,0.48754883,-0.13922119,-0.80963135,-0.484375,0.3125,0.015625
1696245200824,0.48876953,-0.13824463,-0.81427,-0.3125,0.046875,0.125
1696245200865,0.4880371,-0.13702393,-0.81573486,-0.1875,-0.3125,0.15625
1696245200904,0.48388672,-0.13653564,-0.8010864,0.421875,-0.546875,0.546875
1696245200944,0.48486328,-0.13824463,-0.8110962,0.125,-0.4375,0.28125
1696245200984,0.49047852,-0.13775635,-0.81622314,-0.4375,-0.640625,0.140625
1696245201046,0.48608398,-0.13580322,-0.7998657,-0.734375,-0.140625,0.15625
1696245201085,0.48461914,-0.13922119,-0.80718994,-0.203125,-0.421875,0.171875
1696245201103,0.4909668,-0.1362915,-0.8123169,0.03125,-0.484375,0.25
1696245201144,0.48364258,-0.13482666,-0.8098755,-0.03125,-0.59375,0.34375
1696245201185,0.48779297,-0.13726807,-0.81500244,0.0625,-0.453125,0.25
1696245201226,0.48413086,-0.14215088,-0.8057251,0.0,-0.453125,0.28125
1696245201263,0.4819336,-0.13165283,-0.8088989,-0.25,-0.390625,0.15625
1696245201305,0.48950195,-0.1416626,-0.8101196,-0.25,-0.578125,0.15625
1696245201346,0.48291016,-0.14141846,-0.7974243,0.25,-0.875,0.328125
1696245201386,0.48046875,-0.13970947,-0.80596924,-0.078125,-0.734375,0.234375
1696245201445,0.49536133,-0.13677979,-0.8213501,-0.203125,-0.296875,0.21875
1696245201462,0.48266602,-0.13531494,-0.79278564,0.328125,-0.671875,0.421875
1696245201504,0.4885254,-0.14263916,-0.8135376,0.09375,-0.421875,0.328125
1696245201547,0.48608398,-0.13360596,-0.8076782,-0.078125,-0.5625,0.140625
1696245201585,0.4868164,-0.1375122,-0.8081665,-0.1875,-0.59375,0.25
1696245201646,0.48608398,-0.13726807,-0.80792236,-0.046875,-0.65625,0.203125
1696245201664,0.48583984,-0.13873291,-0.80841064,0.109375,-0.90625,0.375
1696245201725,0.48266602,-0.14117432,-0.8088989,-0.109375,-0.671875,0.1875
1696245201743,0.48706055,-0.13189697,-0.8110962,0.0,-0.453125,0.1875
1696245201784,0.4921875,-0.1338501,-0.7984009,0.1875,-0.578125,0.390625
1696245201824,0.48608398,-0.13702393,-0.8106079,-0.03125,-0.65625,0.296875
1696245201866,0.4951172,-0.13580322,-0.8140259,-0.234375,-0.625,0.1875
1696245201926,0.48486328,-0.13873291,-0.8093872,-0.125,-0.703125,0.1875
1696245201963,0.4868164,-0.13946533,-0.80303955,-0.046875,-0.921875,0.328125
1696245201984,0.49047852,-0.14068604,-0.8128052,-0.28125,-0.84375,0.171875
1696245202004,0.4892578,-0.13165283,-0.8081665,-0.03125,-0.5,0.3125
1696245202046,0.49243164,-0.13726807,-0.80670166,-0.03125,-0.640625,0.21875
1696245202084,0.48657227,-0.13604736,-0.8062134,-0.046875,-0.5,0.21875
1696245202145,0.48901367,-0.13946533,-0.8152466,-0.265625,-0.421875,0.171875
1696245202162,0.4831543,-0.13482666,-0.80255127,-0.0625,-0.734375,0.203125
1696245202205,0.4819336,-0.13580322,-0.79571533,0.0625,-0.53125,0.234375
1696245202246,0.4909668,-0.1375122,-0.81427,-0.109375,-0.359375,0.25
1696245202287,0.4868164,-0.13287354,-0.81378174,-0.1875,-0.640625,0.15625
1696245202325,0.48339844,-0.13946533,-0.8052368,0.03125,-0.578125,0.234375
1696245202365,0.49487305,-0.13677979,-0.8064575,0.046875,-0.6875,0.203125
1696245202405,0.48950195,-0.1350708,-0.8086548,-0.03125,-0.546875,0.234375
1696245202464,0.49121094,-0.13970947,-0.8040161,-0.171875,-0.671875,0.015625
1696245202484,0.48413086,-0.14093018,-0.79888916,0.125,-0.5625,0.28125
1696245202525,0.49389648,-0.13897705,-0.8093872,0.015625,-0.625,0.203125
1696245202587,0.48828125,-0.13824463,-0.815979,0.015625,-0.5,0.28125
1696245202605,0.48754883,-0.13531494,-0.82281494,-0.09375,-0.203125,0.140625
1696245202645,0.48657227,-0.13873291,-0.81085205,-0.46875,-0.5,0.09375
1696245202685,0.48339844,-0.13946533,-0.80059814,-0.875,-0.421875,0.046875
1696245202725,0.48461914,-0.1428833,-0.8135376,-0.859375,-0.25,0.046875
1696245202767,0.49316406,-0.13653564,-0.81085205,-0.546875,-0.4375,0.03125
1696245202805,0.47875977,-0.13604736,-0.8074341,-0.375,-0.125,0.140625
1696245202846,0.49047852,-0.13897705,-0.81036377,-0.59375,-0.03125,0.109375
1696245202887,0.48120117,-0.1404419,-0.8128052,-0.515625,0.34375,0.0
1696245202930,0.4868164,-0.14630127,-0.8220825,-0.421875,0.1875,0.078125
1696245202964,0.47827148,-0.14337158,-0.8081665,-0.125,-0.296875,0.03125
1696245203004,0.49438477,-0.14727783,-0.8220825,0.203125,-0.390625,0.296875
1696245203044,0.48510742,-0.13531494,-0.8098755,0.3125,-0.828125,0.359375
1696245203084,0.48583984,-0.1428833,-0.81256104,0.5,-0.875,0.421875
1696245203124,0.48339844,-0.14263916,-0.81085205,0.21875,-0.890625,0.390625
1696245203165,0.484375,-0.14898682,-0.8208618,0.09375,-0.984375,0.328125
1696245203205,0.4802246,-0.14556885,-0.8093872,0.015625,-0.9375,0.296875
1696245203244,0.47460938,-0.14117432,-0.80303955,0.296875,-0.734375,0.296875
1696245203327,0.48950195,-0.13946533,-0.80914307,0.34375,-0.765625,0.40625
1696245203333,0.48388672,-0.14093018,-0.80963135,0.171875,-0.78125,0.46875
1696245203345,0.48388672,-0.13336182,-0.8069458,-0.015625,-0.703125,0.21875
1696245203428,0.49267578,-0.13702393,-0.81036377,-0.109375,-0.53125,0.03125
1696245203431,0.48583984,-0.13775635,-0.80670166,-0.0625,-0.40625,0.234375
1696245203484,0.47851562,-0.13873291,-0.8118286,-0.140625,-0.5625,0.078125
1696245203527,0.48046875,-0.14190674,-0.8081665,-0.015625,-0.5625,0.171875
1696245203563,0.47998047,-0.13775635,-0.80670166,-0.234375,-0.453125,0.125
1696245203607,0.48217773,-0.1338501,-0.80426025,0.03125,-0.859375,0.40625
1696245203626,0.48486328,-0.13897705,-0.8064575,-0.0625,-0.484375,0.28125
1696245203664,0.48217773,-0.14190674,-0.8128052,-0.296875,-0.421875,0.15625
1696245203726,0.48291016,-0.14459229,-0.80792236,0.078125,-0.921875,0.28125
1696245203746,0.48266602,-0.14312744,-0.81744385,0.03125,-0.53125,0.265625
1696245203785,0.48632812,-0.14093018,-0.80548096,0.0,-0.53125,0.234375
1696245203825,0.48510742,-0.13800049,-0.8074341,0.0,-0.75,0.125
1696245203887,0.48486328,-0.13018799,-0.80548096,-0.046875,-0.4375,0.125
1696245203903,0.49169922,-0.13897705,-0.8220825,-0.25,-0.40625,0.25
1696245203943,0.48461914,-0.13824463,-0.8115845,-0.296875,-0.71875,0.25
1696245204007,0.48828125,-0.14093018,-0.80841064,-0.171875,-0.65625,0.28125
1696245204043,0.48535156,-0.14117432,-0.81207275,0.015625,-0.59375,0.265625
1696245204064,0.4831543,-0.14141846,-0.80841064,-0.03125,-0.53125,0.109375
1696245204129,0.48413086,-0.13140869,-0.81207275,-0.078125,-0.65625,0.296875
1696245204143,0.4873047,-0.13677979,-0.8123169,-0.21875,-0.578125,0.21875
1696245204187,0.49365234,-0.13043213,-0.8154907,-0.046875,-0.6875,0.21875
1696245204226,0.4885254,-0.13482666,-0.8152466,-0.171875,-0.625,0.140625
1696245204266,0.48950195,-0.13726807,-0.80474854,-0.125,-0.765625,0.265625
1696245204305,0.48632812,-0.13604736,-0.81085205,0.125,-0.890625,0.421875
1696245204346,0.48291016,-0.13555908,-0.8101196,0.1875,-0.765625,0.171875
1696245204385,0.4868164,-0.1404419,-0.8115845,0.0625,-0.84375,0.484375
1696245204425,0.48632812,-0.13677979,-0.7925415,0.296875,-0.984375,0.375
1696245204467,0.4987793,-0.13580322,-0.8179321,-0.328125,-0.96875,0.296875
1696245204524,0.48413086,-0.13482666,-0.8027954,0.09375,-0.796875,0.453125
1696245204542,0.49243164,-0.12774658,-0.8049927,0.078125,-0.71875,0.5
1696245204609,0.49438477,-0.1350708,-0.815979,-0.03125,-0.578125,0.234375
1696245204645,0.48901367,-0.13165283,-0.80596924,-0.03125,-0.734375,0.34375
1696245204651,0.48828125,-0.14019775,-0.80426025,0.03125,-0.671875,0.46875
1696245204684,0.49169922,-0.1362915,-0.80841064,0.09375,-0.59375,0.390625
1696245204726,0.4897461,-0.13165283,-0.80670166,-0.15625,-0.796875,0.421875
1696245204768,0.49291992,-0.13214111,-0.8045044,0.03125,-0.90625,0.46875
1696245204805,0.48901367,-0.13482666,-0.80963135,0.25,-1.015625,0.53125
1696245204846,0.48706055,-0.13043213,-0.8049927,0.296875,-1.328125,0.53125
1696245204891,0.4855957,-0.13214111,-0.8081665,0.453125,-1.328125,0.625
1696245204924,0.48901367,-0.12872314,-0.80841064,0.671875,-1.125,0.515625
1696245204964,0.4951172,-0.13311768,-0.81500244,0.28125,-1.140625,0.375
1696245205005,0.49536133,-0.1350708,-0.81085205,0.09375,-1.46875,0.375
1696245205045,0.49291992,-0.12945557,-0.8008423,0.453125,-1.265625,0.46875
1696245205087,0.4963379,-0.13189697,-0.8115845,0.296875,-0.984375,0.5
1696245205151,0.4975586,-0.1272583,-0.79888916,0.3125,-0.9375,0.40625
1696245205163,0.49560547,-0.13018799,-0.79571533,0.28125,-0.984375,0.4375
1696245205205,0.5073242,-0.12310791,-0.8098755,-0.40625,-0.015625,0.03125
1696245205246,0.4946289,-0.12921143,-0.81256104,-0.84375,0.03125,-0.0625
1696245205286,0.48901367,-0.13092041,-0.8040161,-0.671875,-0.875,0.203125
1696245205324,0.4951172,-0.12750244,-0.79644775,-0.703125,-0.125,0.171875
1696245205365,0.49658203,-0.13653564,-0.81988525,-1.578125,-0.453125,-0.03125
1696245205404,0.49365234,-0.13336182,-0.80792236,-1.421875,-0.625,-0.125
1696245205446,0.49609375,-0.12872314,-0.81817627,-1.703125,-0.484375,-0.171875
1696245205485,0.48583984,-0.13677979,-0.7913208,-1.703125,-0.953125,-0.1875
1696245205526,0.4868164,-0.14263916,-0.7959595,-1.921875,-0.390625,-0.09375
1696245205564,0.50219727,-0.14093018,-0.79888916,-1.546875,-0.015625,-0.203125
1696245205626,0.49731445,-0.1416626,-0.800354,-1.328125,-0.34375,-0.046875
1696245205644,0.4975586,-0.1506958,-0.8123169,-1.21875,-0.8125,-0.03125
1696245205685,0.4909668,-0.14459229,-0.8049927,-0.6875,-0.484375,-0.015625
1696245205726,0.49072266,-0.15093994,-0.80181885,-0.484375,-0.859375,0.140625
1696245205765,0.48999023,-0.14654541,-0.803772,-0.453125,-0.59375,0.1875
1696245205804,0.48876953,-0.1506958,-0.7998657,-0.3125,-0.71875,0.1875
1696245205845,0.4934082,-0.14654541,-0.80670166,0.328125,-0.65625,0.53125
1696245205885,0.49389648,-0.1506958,-0.79888916,0.453125,-0.40625,0.46875
1696245205924,0.48657227,-0.1453247,-0.8027954,0.65625,-0.484375,0.515625
1696245205942,0.49853516,-0.14459229,-0.81085205,0.171875,-0.453125,0.15625
