# Sensor type: Respeck
# Activity type: Sitting
# Activity subtype: Laughing
# Subject id: s2104454
# Notes: unprocessed
timestamp,accel_x,accel_y,accel_z,gyro_x,gyro_y,gyro_z
1696247863874,0.09692383,-1.0007935,0.03729248,4.0625,4.75,-0.5
1696247863914,0.060302734,-1.0071411,0.06463623,-0.546875,5.203125,-1.15625
1696247863954,0.013427734,-0.9536743,0.010192871,-2.484375,0.046875,0.125
1696247863994,0.07324219,-0.9595337,-0.039367676,1.875,1.265625,-3.890625
1696247864035,0.1003418,-0.9817505,-0.078430176,-1.453125,7.390625,-1.609375
1696247864075,0.06665039,-0.9282837,0.04119873,5.265625,-0.8125,-1.59375
1696247864115,0.092285156,-1.0855103,-0.02545166,-0.28125,-5.8125,-3.03125
1696247864155,0.0769043,-0.95025635,-0.057678223,2.28125,-0.765625,0.21875
1696247864196,0.036865234,-0.9727173,-0.024230957,1.515625,-0.28125,-2.8125
1696247864236,0.0390625,-0.9871216,0.015319824,-0.921875,4.59375,-0.796875
1696247864275,-0.0053710938,-0.9834595,0.016784668,0.234375,0.53125,-1.578125
1696247864316,0.010009766,-0.98321533,-0.009094238,-0.234375,-1.765625,-3.640625
1696247864356,0.06713867,-0.99664307,-0.012023926,1.0625,-3.671875,-2.71875
1696247864397,-0.001953125,-0.99298096,-0.06573486,-0.15625,5.578125,-0.84375
1696247864437,0.051513672,-0.9768677,0.049987793,0.578125,0.875,-1.9375
1696247864480,-0.0068359375,-0.9771118,-0.038391113,-0.96875,-2.0625,-2.5
1696247864517,0.06518555,-0.9932251,0.0018920898,-0.109375,0.296875,-2.203125
1696247864556,0.030517578,-0.9475708,-0.023498535,0.875,-0.296875,-1.5
1696247864595,-0.019042969,-0.9644165,0.06341553,1.890625,-1.296875,-0.203125
1696247864636,-0.039794922,-1.0083618,0.024108887,-2.96875,-7.84375,0.453125
1696247864675,0.020996094,-0.97003174,-0.0725708,-1.96875,-0.203125,-4.140625
1696247864714,0.080322266,-0.9932251,-0.031311035,0.609375,-0.5625,-4.578125
1696247864754,-0.00390625,-0.9573364,-0.04473877,1.4375,-3.484375,0.78125
1696247864794,0.041259766,-1.0637817,-0.0015258789,-2.703125,3.578125,-2.21875
1696247864834,0.010009766,-0.9812622,0.030944824,-2.125,0.6875,0.40625
1696247864874,-0.05517578,-1.0254517,0.04095459,-0.671875,-4.515625,2.125
1696247864915,0.041748047,-0.97784424,-0.06744385,-1.96875,-1.03125,-4.34375
1696247864954,-0.029541016,-0.9143677,-0.0049438477,-1.71875,-0.578125,-4.109375
1696247864995,0.028076172,-0.9885864,-0.01739502,-5.21875,-3.125,-1.578125
1696247865034,0.010498047,-0.98321533,0.0099487305,-6.421875,-1.953125,-4.265625
1696247865074,-0.078125,-0.9741821,0.055847168,-11.34375,0.3125,-0.34375
1696247865115,0.0107421875,-1.1218872,-0.024475098,1.53125,6.578125,-1.03125
1696247865135,-0.03100586,-0.94781494,0.01361084,-3.078125,1.875,-6.03125
1696247865195,0.056396484,-0.881897,-0.019836426,0.921875,-0.265625,-2.765625
1696247865214,-0.009765625,-0.9824829,-0.04840088,1.578125,2.234375,1.875
1696247865277,0.044433594,-0.8870239,0.009216309,1.4375,18.9375,1.6875
1696247865300,-0.12182617,-1.0518188,0.09442139,2.265625,0.0,4.953125
1696247865357,0.0061035156,-1.1243286,0.014343262,-8.75,-1.5,-0.578125
1696247865376,-0.029541016,-0.8933716,-0.0256958,-3.796875,-4.09375,-1.125
1696247865416,-0.0017089844,-0.95806885,0.028015137,-1.84375,5.875,-4.59375
1696247865456,0.027832031,-0.8875122,0.043151855,-2.09375,3.296875,-0.25
1696247865517,-0.060791016,-1.0227661,0.16912842,7.390625,-1.203125,-1.859375
1696247865535,-0.04663086,-1.1170044,-0.07989502,-3.296875,-5.078125,0.078125
1696247865597,-0.018066406,-0.9480591,0.03289795,2.046875,2.234375,1.34375
1696247865636,-0.017089844,-0.91900635,-0.035949707,-1.375,6.125,-0.3125
1696247865655,-0.021972656,-0.9812622,0.09954834,4.375,1.015625,0.5
1696247865720,-0.08886719,-1.0637817,0.07879639,-3.265625,-9.953125,-1.125
1696247865760,-0.03540039,-0.97491455,0.014099121,-2.015625,2.09375,-2.359375
1696247865775,0.015625,-0.9331665,0.015319824,0.75,0.6875,2.28125
1696247865815,-0.008056641,-1.0122681,0.07659912,1.359375,-0.9375,0.609375
1696247865857,-0.06347656,-0.98638916,-0.04937744,-1.328125,-2.484375,-0.84375
1696247865915,-0.018066406,-0.96881104,0.021911621,1.140625,0.609375,0.875
1696247865935,-0.006591797,-1.0100708,0.048034668,0.703125,-2.71875,2.171875
1696247866001,-0.10961914,-1.0020142,0.07098389,-0.1875,-5.625,1.609375
1696247866015,-0.059570312,-0.9819946,-0.018127441,-3.59375,-2.90625,0.3125
1696247866058,-9.765625E-4,-0.98272705,0.026306152,2.625,-0.140625,-0.9375
1696247866095,-9.765625E-4,-0.98760986,0.013122559,0.671875,-3.078125,0.34375
1696247866136,4.8828125E-4,-1.0061646,0.039978027,-1.5625,-1.125,0.109375
1696247866176,-0.014404297,-0.98443604,0.0446167,-0.03125,-3.75,0.703125
1696247866217,-0.060791016,-1.0147095,0.0446167,0.296875,-2.90625,2.796875
1696247866256,-0.029052734,-0.95513916,0.024841309,3.03125,0.046875,-0.25
1696247866296,-0.051757812,-0.96466064,0.028747559,2.375,-1.265625,-0.53125
1696247866336,0.027832031,-0.9939575,-0.008117676,-1.375,-1.765625,-2.328125
1696247866375,-0.018066406,-0.9690552,0.035583496,0.40625,-3.09375,-0.09375
1696247866440,-0.011962891,-1.0230103,0.06414795,0.140625,-2.46875,0.359375
1696247866475,-0.033203125,-1.0037231,0.04949951,-1.75,-2.453125,1.640625
1696247866477,-0.061035156,-1.0239868,0.061462402,5.484375,3.96875,6.25
1696247866517,-0.08642578,-0.9920044,-0.033996582,1.59375,-1.484375,-0.984375
1696247866555,0.059326172,-0.94488525,-0.03326416,1.546875,0.890625,-5.828125
1696247866595,0.013427734,-0.9771118,-0.012512207,2.34375,-2.90625,0.59375
1696247866637,-0.07739258,-0.98931885,-0.054992676,1.234375,-1.484375,1.3125
1696247866675,0.115234375,-0.96051025,-0.004211426,-2.390625,13.375,1.359375
1696247866715,-0.096191406,-1.00177,0.11517334,3.9375,4.234375,7.9375
1696247866756,-0.07519531,-1.0481567,0.026062012,-4.265625,0.828125,2.734375
1696247866794,-0.008544922,-0.9109497,-0.023254395,-1.171875,0.875,-1.15625
1696247866833,0.03125,-0.9458618,0.022155762,-3.234375,3.46875,-2.09375
1696247866874,-0.030029297,-0.9951782,0.04827881,1.734375,1.046875,1.796875
1696247866914,-0.020263672,-1.0518188,0.023376465,-1.890625,-5.25,-2.59375
1696247866954,0.0041503906,-0.9585571,-0.031066895,-0.53125,5.828125,0.578125
1696247866995,-0.014892578,-0.9458618,0.034362793,1.15625,-0.578125,3.71875
1696247867036,-0.088134766,-1.0164185,0.023620605,0.5625,-2.4375,-1.28125
1696247867077,0.05126953,-0.98150635,0.015563965,-1.984375,2.234375,-1.078125
1696247867118,-0.030273438,-0.95391846,0.051696777,1.65625,-3.46875,1.90625
1696247867160,-0.048095703,-1.0217896,0.014099121,-0.03125,-6.015625,0.5625
1696247867197,-0.0034179688,-0.97442627,-6.1035156E-5,-0.078125,-4.203125,-2.78125
1696247867236,0.040039062,-0.98565674,0.019226074,2.515625,-3.09375,0.78125
1696247867276,-0.01953125,-0.9902954,-0.004211426,0.34375,-3.28125,1.515625
1696247867317,-0.0390625,-0.9927368,0.024108887,1.578125,0.234375,0.8125
1696247867356,-0.072265625,-1.0161743,0.04827881,0.015625,0.109375,2.078125
1696247867396,0.009765625,-0.9812622,0.0038452148,-0.90625,0.3125,-1.28125
1696247867437,0.017333984,-0.96539307,0.010192871,1.84375,-1.390625,-0.125
1696247867476,-0.043945312,-1.0112915,0.011169434,-1.1875,-1.390625,0.6875
1696247867516,0.012939453,-0.975647,0.027770996,-3.328125,1.265625,0.734375
1696247867557,-0.053222656,-0.97003174,0.105651855,-1.453125,-1.3125,2.453125
1696247867596,7.324219E-4,-1.0125122,-0.024230957,1.390625,-4.25,2.03125
1696247867635,-0.06713867,-0.9680786,0.024841309,3.453125,-0.6875,-5.9375
1696247867676,0.044921875,-0.95391846,-0.019104004,-1.671875,2.75,-4.484375
1696247867715,0.028320312,-0.956604,0.0045776367,0.625,-1.453125,1.515625
1696247867755,-0.057373047,-1.0291138,-0.019348145,1.765625,-1.234375,-1.453125
1696247867796,0.053710938,-1.0078735,0.015075684,-4.453125,3.234375,1.53125
1696247867839,-0.09008789,-0.9771118,0.04901123,3.9375,-2.109375,4.203125
1696247867854,-0.043945312,-1.0444946,-0.002746582,-1.8125,-1.296875,-1.40625
1696247867895,0.026123047,-0.94317627,-0.012756348,-2.640625,0.015625,-1.765625
1696247867936,-2.4414062E-4,-0.94659424,0.008728027,-2.65625,-1.546875,-1.875
1696247867977,0.032714844,-0.9939575,0.013122559,-1.5625,-2.796875,0.125
1696247868037,-0.057617188,-1.0149536,0.08660889,1.28125,-2.125,1.59375
1696247868055,-0.06542969,-1.076477,0.019958496,0.0625,-4.5,0.5625
1696247868096,0.014404297,-0.991272,-0.004699707,1.828125,-3.765625,1.546875
1696247868136,-0.06225586,-0.9209595,-0.014221191,0.390625,-1.484375,-2.078125
1696247868178,0.026367188,-0.97540283,-0.046203613,-2.859375,5.234375,-1.6875
1696247868219,0.08154297,-0.92266846,-0.039611816,-3.703125,14.78125,1.71875
1696247868258,-0.07006836,-1.0484009,0.0770874,4.0,4.125,3.75
1696247868298,-0.03149414,-1.1062622,0.11126709,-4.46875,1.421875,1.375
1696247868357,-0.057128906,-0.9077759,-0.022277832,-1.21875,0.265625,1.953125
1696247868398,0.0014648438,-0.9529419,0.022888184,-1.671875,7.21875,-2.84375
1696247868414,-0.0107421875,-0.96710205,0.08538818,-0.328125,-0.921875,-1.171875
1696247868455,-0.072753906,-1.0437622,0.09881592,-1.046875,-5.515625,-2.078125
1696247868496,0.026611328,-1.0586548,-0.051330566,-1.09375,-0.984375,-1.625
1696247868557,0.014892578,-0.9194946,0.023132324,0.453125,3.265625,2.921875
1696247868595,-0.056396484,-0.9849243,0.06512451,4.359375,-2.609375,0.796875
1696247868616,-0.0063476562,-1.0361938,0.010925293,-0.671875,-1.65625,-1.640625
1696247868658,0.011230469,-0.9265747,0.016052246,-2.15625,0.390625,0.28125
1696247868695,-0.068359375,-0.99053955,0.078308105,3.6875,-5.5,1.125
1696247868736,-0.050048828,-1.0703735,-0.0032348633,1.015625,-6.171875,-0.296875
1696247868778,0.011962891,-0.9697876,0.0065307617,1.421875,0.984375,-0.0625
1696247868817,-0.009277344,-0.989563,-0.0025024414,2.5,-2.671875,1.296875
1696247868856,-0.036865234,-1.019104,0.03363037,-1.21875,0.0,2.859375
1696247868896,-0.015625,-0.98565674,0.030700684,-1.25,-0.734375,1.078125
1696247868937,-0.025146484,-1.0093384,0.00970459,0.546875,-3.5625,1.0625
1696247868977,0.0146484375,-0.9590454,-0.014709473,1.15625,-0.359375,-0.734375
1696247869015,-0.022216797,-0.93707275,0.0036010742,2.703125,-0.96875,0.71875
1696247869057,-0.011474609,-1.0213013,0.023864746,-1.875,-0.28125,0.890625
1696247869094,0.03149414,-0.9546509,0.04559326,-0.078125,-0.171875,1.0625
1696247869117,-0.08862305,-1.0315552,0.06585693,2.6875,-3.921875,1.671875
1696247869156,0.009277344,-1.0632935,-0.020080566,-0.71875,-3.59375,2.125
1696247869196,-0.016845703,-0.91778564,-0.017150879,-1.015625,0.84375,-1.75
1696247869237,0.04296875,-0.99468994,-0.0025024414,2.6875,-0.171875,-2.0
1696247869277,-0.0029296875,-0.9805298,-0.0020141602,1.203125,-1.875,2.046875
1696247869314,-0.02319336,-0.9336548,0.023864746,1.75,0.453125,1.65625
1696247869358,0.001953125,-1.0044556,-0.019836426,1.71875,-1.375,0.640625
1696247869396,-0.0078125,-0.9998169,-0.0115356445,1.0,1.875,1.65625
1696247869436,0.020263672,-0.93756104,0.016052246,-1.59375,2.28125,1.421875
1696247869479,-0.03466797,-1.0286255,0.035827637,1.3125,-3.9375,1.015625
1696247869514,-0.0061035156,-1.0298462,-0.020080566,0.125,0.234375,-0.71875
1696247869556,-7.324219E-4,-0.9319458,-0.025939941,-1.65625,1.46875,1.125
1696247869597,0.020996094,-0.99664307,0.016540527,-1.25,-0.28125,1.34375
1696247869637,-0.009765625,-1.0049438,0.046081543,1.0625,-1.015625,1.234375
1696247869676,0.0053710938,-1.0325317,0.0211792,0.015625,-4.71875,-0.859375
1696247869717,-0.0075683594,-0.97076416,0.011413574,4.734375,-4.140625,1.109375
1696247869760,-0.053222656,-0.96417236,-6.1035156E-5,2.78125,-4.0,-1.046875
1696247869797,0.06933594,-0.95880127,-0.035705566,0.65625,0.578125,-3.59375
1696247869837,0.0107421875,-0.95806885,-0.046447754,-0.5,0.578125,2.515625
1696247869877,0.021484375,-0.98809814,0.06781006,3.140625,7.390625,1.078125
1696247869915,-0.03881836,-1.0540161,0.013122559,-1.828125,-1.734375,2.046875
1696247869958,-0.08251953,-0.9866333,0.031188965,-1.6875,-3.34375,-0.03125
1696247869997,0.017333984,-0.97076416,-0.04888916,-1.359375,-0.4375,-1.859375
1696247870036,0.017822266,-0.9212036,-0.030822754,-1.984375,-2.015625,-0.71875
1696247870077,0.033203125,-0.97735596,-0.014465332,2.0625,-1.546875,-0.703125
1696247870116,-0.018066406,-1.0335083,0.07904053,-0.703125,-1.1875,3.3125
1696247870156,-0.051757812,-1.0564575,-0.011291504,-2.203125,-2.15625,-1.984375
1696247870196,0.03125,-0.93170166,-0.008361816,0.640625,0.125,1.875
1696247870237,-0.025634766,-0.925354,-0.058898926,3.046875,-3.703125,-1.8125
1696247870277,0.05102539,-0.95880127,-0.035949707,7.125,-3.6875,-2.03125
1696247870315,0.011474609,-0.9937134,-0.015930176,-0.984375,3.625,1.5
1696247870359,-0.005126953,-0.97052,-0.042053223,-4.578125,9.75,2.71875
1696247870415,0.011474609,-1.0361938,0.043640137,-1.734375,2.671875,3.3125
1696247870417,-0.067871094,-1.0886841,0.032409668,-5.53125,0.90625,0.28125
1696247870455,0.005126953,-0.9590454,-0.042053223,-4.703125,3.625,-3.0
1696247870537,0.055908203,-0.9194946,9.1552734E-4,-4.609375,6.265625,-1.765625
1696247870540,-0.036865234,-0.95806885,-0.014709473,0.546875,1.453125,-0.375
1696247870598,0.010253906,-1.0791626,0.08807373,-2.046875,-4.140625,-1.375
1696247870616,-0.022460938,-0.96221924,-0.06500244,0.625,-2.1875,-0.09375
1696247870656,-0.028076172,-0.9258423,0.01361084,1.796875,1.484375,1.359375
1696247870715,0.0017089844,-0.9968872,6.713867E-4,0.484375,0.34375,0.03125
1696247870737,-0.024169922,-1.0315552,0.038513184,1.5,-3.796875,-0.90625
1696247870777,-0.008544922,-1.0044556,0.015563965,-1.421875,-1.609375,-2.390625
1696247870817,0.0043945312,-0.9951782,0.008972168,1.46875,-2.828125,2.140625
1696247870856,-0.03930664,-0.989563,-0.023498535,1.953125,-0.53125,0.46875
1696247870896,0.010009766,-0.95977783,-0.010314941,0.65625,-1.640625,0.3125
1696247870940,-0.009033203,-0.9727173,0.03363037,-1.03125,0.75,0.609375
1696247870996,-0.020507812,-0.99713135,0.046569824,0.65625,-0.53125,1.1875
1696247871036,-0.024658203,-1.0405884,-0.006164551,-0.15625,-3.1875,0.609375
1696247871057,0.021240234,-0.96661377,-0.014221191,2.28125,-0.5625,-1.4375
1696247871096,-0.010986328,-0.97784424,-0.010559082,3.1875,-1.53125,1.84375
1696247871137,0.014892578,-1.0090942,-0.005432129,-0.96875,0.15625,0.5
1696247871178,-0.0063476562,-0.9727173,0.019226074,0.59375,-1.578125,0.78125
1696247871217,-0.03930664,-1.0144653,0.020446777,1.875,-2.65625,1.859375
1696247871257,0.025878906,-0.9690552,-0.0017700195,2.125,-0.15625,0.4375
1696247871297,-0.0031738281,-0.93536377,-0.04425049,0.890625,0.078125,1.515625
1696247871338,0.040283203,-1.0081177,0.0079956055,-3.421875,1.453125,0.84375
1696247871375,-0.033691406,-0.9729614,-0.007873535,-0.765625,-0.5,0.71875
1696247871417,-0.032714844,-1.0286255,0.03265381,1.453125,-1.21875,0.921875
1696247871457,0.033203125,-1.0056763,-0.016174316,-0.1875,-2.609375,-0.296875
1696247871497,-0.044189453,-0.94195557,-0.021057129,2.640625,-2.78125,1.875
1696247871537,-0.0126953125,-1.005188,0.014343262,-2.203125,2.765625,0.5
1696247871598,0.09082031,-0.9973755,-7.9345703E-4,-0.328125,1.890625,0.625
1696247871617,-0.01977539,-0.9963989,0.0138549805,1.09375,-3.59375,2.59375
1696247871656,0.014404297,-1.0061646,-0.05328369,1.53125,-1.34375,-0.59375
1696247871715,0.0053710938,-0.90753174,-0.03277588,-1.3125,3.484375,1.671875
1696247871735,0.025390625,-0.9714966,0.036315918,-0.65625,0.71875,-0.421875
1696247871756,-0.020507812,-1.0071411,0.04168701,1.53125,-0.109375,0.515625
1696247871795,-2.4414062E-4,-1.0425415,-0.016662598,-2.15625,-3.234375,-0.6875
1696247871836,0.033935547,-0.9429321,-0.033996582,2.359375,0.328125,0.90625
1696247871876,0.0012207031,-0.96954346,-0.089416504,-2.765625,0.234375,-2.75
1696247871917,0.029785156,-0.97906494,0.032165527,-3.96875,0.90625,-0.984375
1696247871957,0.021728516,-0.99713135,0.08709717,-0.265625,0.890625,0.109375
1696247871996,-0.03857422,-1.05719,0.022399902,0.15625,-8.984375,1.03125
1696247872036,-0.020507812,-0.9319458,0.078308105,1.953125,-9.09375,4.03125
1696247872078,-0.053466797,-1.0220337,-0.033996582,5.796875,-1.953125,-0.53125
1696247872117,0.046875,-0.9338989,-0.13873291,-4.796875,-0.84375,-5.625
1696247872157,0.0063476562,-0.92193604,-0.04498291,1.234375,7.71875,0.953125
1696247872196,0.08178711,-0.89508057,-0.074523926,-0.3125,12.140625,0.390625
1696247872236,-0.06518555,-1.0872192,0.07537842,3.640625,5.96875,3.3125
1696247872275,0.03173828,-1.1445923,0.22454834,-6.25,-2.75,-3.609375
1696247872316,-0.09472656,-0.9109497,-0.032287598,-0.703125,-4.328125,2.796875
1696247872356,-0.013427734,-0.93756104,-0.0015258789,1.609375,-0.25,-3.046875
1696247872404,0.03930664,-0.9631958,-0.06060791,-6.265625,9.53125,-2.578125
1696247872434,0.0107421875,-0.9492798,0.042419434,0.65625,5.71875,2.765625
1696247872476,-0.011230469,-1.1226196,0.1828003,-1.703125,-6.1875,-1.640625
1696247872515,0.030273438,-1.0120239,-0.070373535,-3.46875,-2.75,-0.640625
1696247872556,-0.0146484375,-0.8909302,0.0368042,3.65625,-3.453125,0.9375
1696247872601,-0.07885742,-0.9529419,-0.02911377,-2.84375,5.484375,-0.625
1696247872636,0.020507812,-1.0127563,0.117614746,-1.421875,-3.296875,-0.46875
1696247872677,-0.076660156,-1.0623169,0.0079956055,-0.671875,-3.078125,-1.0625
1696247872718,0.014892578,-0.97857666,0.021911621,-5.296875,-5.34375,-0.609375
1696247872755,-0.0043945312,-0.8777466,-0.0178833,4.25,-4.640625,-2.125
1696247872797,-0.01586914,-0.9927368,0.008728027,2.5625,-1.890625,1.578125
1696247872835,0.030517578,-1.0137329,0.046081543,-3.953125,2.671875,0.078125
1696247872880,-0.0073242188,-0.9866333,0.08905029,2.75,-5.125,-0.796875
1696247872917,-0.061523438,-1.05719,0.025817871,1.015625,-2.71875,1.203125
1696247872955,0.015136719,-0.9685669,0.001159668,0.15625,0.0,-1.03125
1696247872997,-0.039794922,-0.9170532,0.011657715,1.53125,1.140625,2.6875
1696247873037,2.4414062E-4,-1.0095825,0.04071045,-1.9375,0.90625,0.375
1696247873056,-0.072265625,-0.9949341,0.062683105,0.9375,-0.65625,-0.546875
1696247873095,0.011230469,-0.97857666,0.0018920898,-0.703125,-1.625,-0.21875
1696247873134,0.0029296875,-0.9680786,-0.015930176,2.453125,-0.9375,0.703125
1696247873175,-0.036376953,-0.99957275,-5.493164E-4,-1.640625,5.53125,-0.25
1696247873217,0.028076172,-1.0071411,0.054626465,-2.984375,2.875,-0.3125
1696247873279,-0.043701172,-0.98028564,0.08294678,0.625,-1.1875,-0.78125
1696247873318,0.0146484375,-1.0835571,0.015563965,-1.484375,-6.953125,-0.8125
1696247873356,-0.021728516,-0.94903564,0.0927124,-1.1875,-5.84375,0.078125
1696247873375,-0.07861328,-1.0010376,-0.070373535,5.0625,-3.453125,1.203125
1696247873416,0.029541016,-0.94659424,-0.032043457,-3.1875,-0.015625,-3.796875
1696247873457,2.4414062E-4,-0.9380493,-0.022033691,-0.921875,2.21875,-1.0
1696247873498,0.03857422,-1.0286255,0.05633545,2.734375,1.03125,3.21875
1696247873558,-0.1015625,-1.0791626,0.137146,1.59375,-3.578125,-0.03125
1696247873576,-0.0073242188,-0.940979,-0.02545166,-1.90625,-1.53125,0.40625
1696247873617,-0.068115234,-0.9380493,-3.0517578E-4,-0.015625,0.890625,0.109375
1696247873656,-0.0012207031,-1.0596313,0.020690918,-10.390625,8.609375,-0.359375
1696247873718,-0.0075683594,-0.91412354,0.026062012,-2.75,6.78125,0.375
1696247873736,-0.025878906,-1.0442505,0.13763428,-0.15625,-3.328125,-0.078125
1696247873777,-0.031982422,-1.0498657,0.05706787,0.40625,-9.453125,-1.109375
1696247873817,-0.0234375,-0.94000244,-0.03717041,4.140625,-2.328125,1.5625
1696247873856,0.0,-0.91973877,-0.04058838,-1.9375,-1.078125,-2.84375
1696247873919,-0.018310547,-1.0750122,0.046081543,-3.25,11.171875,-0.3125
1696247873936,0.06689453,-0.9612427,0.1149292,2.890625,4.796875,1.1875
1696247873976,-0.10986328,-1.1008911,0.08709717,-5.734375,-5.5625,3.34375
1696247874018,-0.049072266,-1.0339966,0.0927124,-6.5625,-10.5625,-3.15625
1696247874076,-0.026611328,-0.91412354,0.054138184,0.828125,-9.453125,0.828125
1696247874117,-0.104003906,-0.9067993,-0.0022583008,-0.5,-5.4375,0.875
1696247874136,0.05444336,-0.98150635,-0.08062744,4.65625,-1.828125,-4.265625
1696247874197,-0.0703125,-1.0877075,0.00970459,-0.71875,9.78125,2.875
1696247874237,0.13061523,-0.9470825,0.14886475,3.484375,6.4375,2.453125
1696247874256,-0.10424805,-1.1328735,0.078552246,-5.734375,-8.1875,3.09375
1696247874298,-0.1081543,-1.0422974,0.1305542,-1.09375,-9.15625,-2.71875
1696247874336,-0.022216797,-0.9331665,0.08465576,0.15625,-8.796875,2.59375
1696247874354,-0.12084961,-0.94317627,0.026062012,-2.640625,-7.640625,-1.453125
1696247874397,0.051513672,-0.95880127,-0.05670166,2.625,0.203125,-3.109375
1696247874437,0.048583984,-1.0327759,-0.11529541,-1.140625,15.078125,2.03125
1696247874477,0.031982422,-0.9048462,0.1071167,14.546875,12.53125,4.53125
1696247874519,-0.052978516,-1.1487427,0.15350342,0.375,9.0,1.609375
1696247874558,0.028076172,-1.0283813,0.054870605,-10.34375,-9.046875,-1.125
1696247874596,-0.14672852,-0.8389282,0.0067749023,-1.9375,-3.25,2.8125
1696247874635,-0.017578125,-0.9854126,-0.014709473,-0.625,3.59375,-3.515625
1696247874676,-0.01928711,-0.9031372,0.04486084,-0.890625,10.03125,0.140625
1696247874717,-0.013183594,-1.015686,0.199646,7.71875,4.46875,1.71875
1696247874757,-0.020996094,-1.0733032,-0.07672119,-2.8125,-7.09375,1.375
1696247874796,-0.0063476562,-0.9656372,-0.02154541,-1.0,4.953125,1.03125
1696247874837,0.018066406,-0.8899536,0.08050537,0.609375,3.734375,2.1875
1696247874876,-0.038330078,-1.0623169,0.09613037,0.625,-2.21875,1.125
1696247874920,-0.006591797,-1.08844,-0.0010375977,-0.625,-5.125,-2.21875
1696247874956,-0.012939453,-0.9378052,0.012390137,-3.0,2.015625,0.265625
1696247874997,0.015625,-0.9146118,0.085876465,0.78125,-1.125,1.703125
1696247875037,-0.045654297,-1.0413208,0.03265381,1.96875,-5.40625,-0.515625
1696247875077,0.013916016,-0.9324341,0.029724121,2.84375,-1.796875,0.125
1696247875116,-0.02368164,-0.9380493,0.03363037,4.65625,-4.546875,2.046875
1696247875157,-0.009033203,-1.0620728,0.018493652,-1.28125,3.8125,1.171875
1696247875197,-0.006591797,-0.98394775,0.06732178,-4.359375,6.4375,3.15625
1696247875238,-0.06713867,-0.987854,0.055847168,0.984375,-2.0,2.046875
1696247875275,-0.0029296875,-1.0510864,0.0048217773,1.78125,0.859375,0.046875
1696247875315,-0.008544922,-0.9326782,0.008239746,-1.703125,-1.25,0.921875
1696247875357,0.01928711,-0.96954346,0.055114746,-0.984375,-0.796875,0.453125
1696247875396,0.0390625,-0.9998169,-0.02545166,-2.328125,-0.890625,-2.234375
1696247875437,0.037353516,-0.9573364,0.007019043,-0.453125,-1.75,-1.015625
1696247875476,-0.01953125,-0.97003174,0.054138184,-2.015625,0.34375,-0.3125
1696247875515,-0.026367188,-1.0029907,0.04119873,0.015625,-2.484375,-0.28125
1696247875557,0.012207031,-1.0181274,0.03265381,0.234375,-2.296875,-1.828125
1696247875597,-0.041992188,-0.9680786,0.073913574,-0.46875,-2.109375,-0.265625
1696247875636,-0.06298828,-1.03302,0.030944824,0.84375,-2.15625,-0.875
1696247875678,0.028320312,-1.006897,0.032165527,-2.140625,2.390625,-2.703125
1696247875716,0.008056641,-0.9368286,0.048034668,-0.171875,-1.203125,0.046875
1696247875735,-0.02709961,-0.97979736,0.042663574,0.28125,-2.078125,-0.171875
1696247875775,-0.02709961,-1.017395,0.043884277,-1.03125,-0.75,-1.28125
1696247875818,-0.024414062,-0.9529419,0.03778076,-2.765625,1.875,-0.40625
1696247875856,-0.012451172,-0.9873657,0.08734131,-1.390625,2.21875,0.546875
1696247875896,-0.053710938,-1.0083618,0.0045776367,-0.59375,-0.84375,-1.65625
1696247875937,-0.0087890625,-1.0012817,0.019958496,-2.71875,6.640625,0.03125
1696247875978,-0.0126953125,-0.9668579,0.09857178,-1.9375,4.078125,2.109375
1696247876016,-0.04248047,-1.0396118,0.13372803,-4.921875,-3.171875,-0.625
1696247876058,0.008300781,-1.0176392,-0.043029785,-4.296875,-3.21875,-3.90625
1696247876101,0.0024414062,-0.9619751,0.085876465,3.453125,-2.25,-0.0625
1696247876138,-0.10058594,-0.9907837,0.047058105,1.84375,-1.59375,-1.53125
1696247876177,0.027832031,-0.954895,0.13665771,-3.609375,2.84375,-0.734375
1696247876216,-0.0637207,-0.97613525,0.020935059,3.171875,-5.421875,0.3125
1696247876255,-0.04711914,-1.0098267,0.09979248,0.078125,-1.390625,-4.25
1696247876294,0.0078125,-0.95318604,0.023620605,1.953125,-1.796875,-2.25
1696247876335,-0.040283203,-0.97125244,0.06781006,2.828125,-4.75,1.984375
1696247876376,-0.08203125,-1.055481,0.03656006,0.109375,2.140625,0.875
1696247876417,-0.0056152344,-0.9727173,0.0680542,-0.390625,0.578125,-0.3125
1696247876459,-0.072265625,-1.0054321,0.06707764,1.9375,-0.46875,2.140625
1696247876497,-0.030761719,-1.0276489,0.053649902,1.125,-1.296875,-0.609375
1696247876540,-0.06274414,-0.9439087,0.047058105,0.953125,-1.28125,1.5625
1696247876578,-0.026123047,-0.9561157,0.01361084,0.21875,2.015625,1.65625
1696247876616,0.0041503906,-1.0159302,0.07684326,-1.875,4.015625,2.78125
1696247876656,-0.079589844,-0.9595337,0.1005249,1.03125,-2.859375,-0.203125
1696247876697,-0.059326172,-1.005188,0.0692749,1.9375,-3.6875,1.171875
1696247876738,-0.0075683594,-0.986145,0.030944824,2.125,-2.953125,-0.421875
1696247876778,-0.0078125,-0.9976196,0.0368042,0.71875,-0.640625,1.0
1696247876819,-0.016845703,-1.0210571,0.043884277,-1.71875,3.265625,3.1875
1696247876857,-0.045654297,-0.99224854,0.101989746,-0.21875,-1.1875,1.359375
1696247876894,-0.045410156,-0.98687744,0.03289795,0.359375,-3.28125,1.421875
1696247876937,-0.012451172,-0.9985962,0.124694824,0.671875,-3.703125,1.96875
1696247877018,0.0029296875,-0.94781494,0.09173584,-0.921875,-7.796875,2.5
1696247877021,-0.088378906,-1.0003052,-0.054504395,-0.796875,-3.0,-1.21875
1696247877035,-7.324219E-4,-0.9429321,-0.025939941,-0.265625,1.5,-3.21875
1696247877078,0.029296875,-0.96661377,-0.057678223,3.078125,0.15625,2.03125
1696247877118,-0.018798828,-1.0806274,0.101989746,2.40625,2.9375,4.9375
1696247877158,-0.04663086,-1.0828247,0.085632324,-0.421875,-1.046875,0.40625
1696247877196,-0.028076172,-0.98223877,0.09539795,-3.03125,3.875,-1.765625
1696247877237,-0.0043945312,-0.9336548,0.024353027,-1.546875,-3.84375,2.6875
1696247877276,-0.05419922,-0.9451294,-0.02178955,2.046875,3.453125,-0.296875
1696247877316,0.013671875,-0.9812622,0.07904053,-5.453125,9.484375,1.578125
1696247877357,0.001953125,-0.928772,0.07171631,-1.765625,0.390625,1.03125
1696247877397,0.04296875,-1.0144653,0.031433105,-2.359375,-7.03125,-0.5
1696247877436,-0.017333984,-1.0061646,0.04437256,2.640625,-9.515625,-0.75
1696247877497,-0.087646484,-0.9429321,0.007751465,0.28125,-6.453125,-0.0625
1696247877516,-0.014892578,-1.0332642,0.023864746,1.875,3.1875,-0.390625
1696247877557,0.03930664,-1.038147,0.117370605,-1.953125,-2.078125,-0.25
1696247877598,-0.05053711,-0.9692993,0.09295654,2.59375,-4.5,2.75
1696247877635,-0.041748047,-1.0825806,0.14666748,-6.8125,-2.484375,3.796875
1696247877677,-0.018066406,-0.94610596,0.121032715,3.875,-4.734375,4.0
1696247877716,-0.016601562,-1.0532837,-0.03302002,-5.59375,0.34375,-2.984375
1696247877757,0.0024414062,-0.8467407,0.010681152,-4.296875,-1.75,-8.78125
1696247877797,0.099609375,-0.89434814,-0.117004395,7.0,-4.296875,1.109375
1696247877837,-0.1081543,-1.052063,0.089538574,9.765625,-4.03125,7.828125
1696247877874,0.025390625,-1.0640259,0.07684326,8.703125,9.78125,-1.828125
1696247877916,0.0026855469,-1.1272583,0.06488037,-5.453125,5.71875,3.078125
1696247877957,-0.07055664,-0.96221924,0.109802246,-1.90625,-4.328125,-3.25
1696247877996,-0.053222656,-0.9663696,0.0028686523,-5.765625,4.921875,-3.0
1696247878037,0.04272461,-0.8916626,0.030944824,-6.890625,5.984375,-3.265625
1696247878077,-0.044433594,-0.90411377,0.051208496,4.75,7.1875,2.421875
1696247878116,0.038330078,-1.1221313,0.1918335,3.09375,0.375,2.5625
1696247878156,-0.0847168,-1.0293579,0.04144287,3.015625,-2.25,0.671875
1696247878197,-0.0769043,-0.9390259,0.0026245117,-0.59375,1.03125,-0.40625
1696247878258,0.0021972656,-0.9614868,0.061950684,-1.96875,1.671875,-0.625
1696247878318,0.017089844,-1.0247192,0.0848999,1.90625,-0.546875,-1.375
1696247878321,-0.037109375,-1.062561,0.08758545,-1.453125,-4.125,0.3125
1696247878335,-0.024414062,-0.9507446,0.01751709,1.21875,-6.390625,2.703125
1696247878377,-0.028564453,-0.92510986,0.027282715,2.671875,-4.8125,0.265625
1696247878416,-0.028564453,-0.9841919,0.024841309,0.75,-1.09375,0.046875
1696247878458,0.007080078,-0.95758057,0.09295654,0.84375,-1.171875,1.5
1696247878495,-0.040283203,-1.0437622,0.073913574,1.5,-2.71875,1.78125
1696247878536,-4.8828125E-4,-1.0269165,0.022399902,1.4375,-1.390625,0.390625
1696247878577,-0.014404297,-0.954895,0.03656006,2.203125,-1.609375,0.859375
1696247878617,-0.032958984,-0.9961548,0.04119873,0.8125,0.328125,1.296875
1696247878657,0.01977539,-0.9788208,0.05682373,-0.625,-1.625,0.515625
1696247878698,-0.04248047,-0.9924927,0.04925537,1.65625,-2.484375,1.625
1696247878736,-0.017089844,-0.9854126,0.036071777,-0.21875,-2.390625,0.109375
1696247878779,0.010253906,-0.97247314,0.019714355,1.71875,-0.578125,0.078125
1696247878819,0.008300781,-0.9873657,0.03387451,0.453125,0.921875,0.15625
1696247878860,0.01171875,-0.98223877,0.051696777,0.859375,-0.984375,0.265625
1696247878899,-0.051513672,-0.9939575,0.04510498,0.671875,-1.703125,1.921875
1696247878936,0.0029296875,-1.0142212,0.023376465,0.03125,-1.046875,-0.390625
1696247878976,0.0048828125,-0.9871216,0.03704834,1.09375,-1.828125,-0.4375
1696247879018,-0.016601562,-0.98760986,0.03265381,0.828125,-2.65625,-0.328125
1696247879058,-0.02368164,-1.0112915,0.046813965,-0.40625,-2.015625,0.15625
1696247879096,-0.047851562,-1.0271606,0.10491943,-2.84375,2.0,2.78125
1696247879136,-0.015625,-0.9937134,0.04046631,-0.875,1.8125,4.953125
1696247879177,0.017089844,-1.0283813,-0.0076293945,4.859375,-6.234375,-3.5
1696247879216,-0.03564453,-0.9348755,-0.043518066,2.484375,-4.078125,-6.296875
1696247879257,0.08642578,-0.89971924,-0.08087158,2.140625,2.140625,2.9375
1696247879296,0.044189453,-0.95269775,0.011169434,3.46875,7.921875,2.921875
1696247879335,-0.040039062,-1.0838013,0.0014038086,-1.3125,4.4375,-0.703125
1696247879379,-0.016601562,-0.98150635,0.08465576,-3.6875,5.078125,1.125
1696247879418,-0.017333984,-1.000061,0.0524292,-4.28125,3.4375,-0.21875
1696247879458,-0.001953125,-0.9651489,-0.023010254,-3.5,2.96875,-2.1875
1696247879497,0.005126953,-0.9121704,0.04095459,-4.734375,6.0,-0.203125
1696247879536,-0.018066406,-0.9470825,0.02508545,6.015625,5.65625,1.65625
1696247879578,0.056884766,-1.102356,0.13348389,0.234375,-2.765625,0.46875
1696247879658,-0.07055664,-1.0005493,-0.03692627,-1.375,-0.484375,0.84375
1696247879662,-0.022460938,-0.91192627,0.07342529,0.28125,3.296875,0.703125
1696247879676,-0.06347656,-1.0440063,0.07489014,-0.640625,-9.0625,0.546875
1696247879717,0.022949219,-1.0249634,0.030700684,-0.875,-2.109375,-3.8125
1696247879757,-0.021972656,-0.9234009,0.051208496,-0.75,0.078125,0.890625
1696247879817,-0.053222656,-0.9812622,0.073913574,1.96875,-3.171875,1.9375
1696247879835,0.015625,-1.0195923,0.05609131,2.59375,-5.421875,-1.109375
1696247879878,-0.017822266,-0.9456177,0.009460449,2.71875,-2.984375,0.34375
1696247879938,0.0034179688,-0.98931885,0.013366699,1.8125,-3.4375,2.046875
1696247879955,-0.013671875,-1.0442505,0.06439209,-0.65625,-0.109375,0.46875
1696247880016,-0.06298828,-0.99542236,0.03753662,-1.234375,-0.96875,0.921875
1696247880035,0.021972656,-0.9776001,-0.0015258789,-0.625,-0.78125,-0.25
1696247880076,-0.0012207031,-0.97442627,0.04144287,2.59375,-1.359375,1.5
1696247880117,-0.044921875,-0.98565674,0.019470215,-1.34375,3.359375,1.296875
1696247880156,0.053710938,-0.96295166,0.048034668,-5.734375,5.21875,1.1875
1696247880198,-0.041259766,-0.9812622,0.09100342,3.390625,-0.015625,1.984375
1696247880237,-0.026855469,-1.003479,-0.0022583008,0.421875,1.21875,1.4375
1696247880298,0.030517578,-0.9697876,0.0045776367,-3.3125,6.046875,2.21875
1696247880315,-7.324219E-4,-1.0232544,0.062194824,0.78125,2.34375,2.53125
1696247880359,4.8828125E-4,-1.0010376,0.094177246,-4.125,-4.96875,-0.984375
1696247880396,0.045654297,-0.9631958,0.0067749023,4.109375,-4.609375,-1.171875
1696247880437,-0.032714844,-0.9788208,0.03704834,1.015625,-4.0625,0.859375
1696247880479,-0.064941406,-0.95196533,0.010925293,-1.0,2.46875,-2.234375
1696247880518,0.083496094,-0.9685669,0.070251465,-4.796875,0.375,0.5
1696247880556,-0.040527344,-0.97125244,-0.05279541,-3.28125,-3.0625,-1.421875
1696247880619,0.04272461,-0.9819946,0.062194824,-0.8125,-0.015625,-3.171875
1696247880658,-0.05126953,-1.0408325,0.06097412,1.1875,-4.859375,-0.96875
1696247880676,-0.013183594,-0.9788208,0.023132324,-5.765625,2.5,-1.25
1696247880718,0.04345703,-0.96710205,0.10028076,1.421875,-3.078125,-0.75
1696247880755,-0.01586914,-1.0108032,0.0014038086,-0.96875,-0.109375,-1.140625
1696247880798,0.013916016,-0.9470825,0.0770874,-2.34375,-0.640625,-0.71875
1696247880836,-0.06713867,-0.98394775,0.04827881,-0.328125,-0.03125,0.296875
1696247880881,0.01977539,-0.99713135,0.08270264,-0.359375,-1.421875,-1.671875
1696247880916,-0.011230469,-0.9973755,0.07293701,2.53125,-4.25,-0.25
1696247880955,-0.071777344,-0.9956665,0.031433105,3.125,-3.1875,2.5625
1696247880975,-0.028076172,-1.0144653,0.023376465,-0.796875,2.234375,-0.671875
1696247881016,0.020751953,-0.9751587,0.04437256,-0.859375,0.46875,0.375
1696247881055,-0.011230469,-0.97784424,0.051208496,1.84375,-2.234375,1.375
1696247881095,-0.041748047,-0.9763794,0.034362793,0.921875,-0.984375,0.828125
1696247881136,-0.03100586,-0.94781494,0.04925537,1.875,0.65625,0.828125
1696247881177,-0.0087890625,-1.0249634,0.035827637,1.03125,1.625,1.3125
1696247881217,0.014404297,-0.98443604,0.04534912,-1.84375,1.140625,-0.78125
1696247881258,2.4414062E-4,-0.98809814,0.03387451,-0.734375,1.078125,0.890625
1696247881297,-0.0048828125,-1.0078735,0.06756592,-0.546875,-1.546875,0.59375
1696247881337,-0.030273438,-0.98272705,0.042175293,-0.28125,-1.5,-1.140625
1696247881376,-9.765625E-4,-0.9727173,0.058044434,0.171875,-1.828125,0.234375
1696247881416,-0.048339844,-1.0149536,0.04486084,1.015625,-1.859375,0.984375
1696247881456,-0.02709961,-0.9985962,0.05291748,-1.3125,1.484375,0.140625
1696247881498,0.0014648438,-0.98687744,0.050476074,-1.953125,0.46875,0.46875
1696247881537,-0.0546875,-1.000061,0.06536865,1.21875,-3.109375,0.328125
1696247881576,-0.024658203,-1.0029907,0.10882568,2.59375,1.34375,1.046875
1696247881619,-7.324219E-4,-1.0352173,0.121032715,-0.640625,2.203125,3.15625
1696247881656,0.008056641,-0.9805298,-0.010559082,-3.171875,1.046875,-1.3125
1696247881696,-0.010253906,-0.9072876,-0.035705566,-0.734375,1.28125,-5.4375
1696247881738,0.021240234,-0.95196533,0.020935059,5.953125,0.4375,0.84375
1696247881776,-0.022216797,-1.0046997,-0.023010254,2.65625,-2.09375,2.359375
1696247881816,0.0061035156,-1.017395,0.09661865,0.40625,0.0625,1.0625
1696247881856,-0.032958984,-1.0029907,0.05609131,2.1875,-5.921875,0.09375
1696247881896,-0.033203125,-0.97320557,-3.0517578E-4,-0.734375,-1.296875,0.328125
1696247881937,0.042236328,-0.9558716,0.03778076,2.171875,0.703125,-0.15625
1696247881979,-0.038330078,-1.0098267,0.042663574,-0.96875,-1.609375,1.328125
1696247882015,0.0,-0.99786377,0.062927246,-2.3125,-1.90625,0.515625
1696247882057,-0.036132812,-1.015686,0.058288574,1.40625,-5.328125,0.828125
1696247882096,-0.0029296875,-1.003479,-0.006164551,-0.640625,0.015625,0.71875
1696247882139,2.4414062E-4,-0.954895,0.005554199,1.984375,-1.34375,-2.375
1696247882177,-0.024658203,-0.98223877,-0.0076293945,-2.796875,1.59375,-0.734375
1696247882216,0.021484375,-1.0032349,0.046325684,-1.984375,2.5,1.421875
1696247882259,-0.07080078,-1.0076294,0.101989746,0.0,-3.15625,0.921875
1696247882275,-0.0034179688,-0.96881104,-0.0051879883,-1.3125,-1.625,1.53125
1696247882318,0.008544922,-0.94659424,0.008239746,1.8125,-1.765625,0.234375
1696247882357,-0.026367188,-1.0115356,0.051452637,-1.3125,0.234375,-0.421875
1696247882398,0.033935547,-0.98321533,0.046569824,-2.34375,-0.890625,1.15625
1696247882456,-0.029541016,-1.0059204,0.054626465,0.59375,-3.0,0.265625
1696247882474,-0.0107421875,-1.0344849,0.061706543,-1.484375,-2.53125,2.09375
1696247882537,-0.0087890625,-1.0029907,0.057556152,-0.28125,-0.390625,2.25
1696247882555,-0.018310547,-1.0115356,0.02923584,3.703125,3.171875,2.234375
1696247882597,0.021240234,-0.90948486,-0.034484863,0.6875,3.484375,-3.765625
1696247882639,0.0234375,-0.9194946,-0.038879395,0.359375,0.53125,1.296875
1696247882696,-0.011962891,-1.0527954,0.08123779,3.265625,3.234375,4.046875
1696247882718,0.017333984,-1.0845337,0.13397217,-0.421875,-0.09375,-0.21875
1696247882760,-0.025390625,-0.93218994,-0.012023926,-0.5,-1.609375,-0.21875
1696247882796,-0.0146484375,-0.93878174,0.01361084,0.5625,2.15625,1.015625
1696247882838,-0.0146484375,-1.0266724,0.018493652,-3.984375,1.71875,-1.75
1696247882876,0.02319336,-0.97662354,0.036315918,1.53125,4.1875,0.46875
1696247882918,0.053955078,-1.0161743,0.0045776367,1.28125,-0.328125,0.953125
1696247882960,-0.05419922,-0.99884033,-0.01373291,-0.296875,3.421875,1.5625
1696247882995,-0.011474609,-0.94976807,0.010925293,-4.96875,7.703125,0.578125
1696247883057,0.044921875,-0.9546509,0.09295654,0.5625,0.015625,-0.90625
1696247883076,-0.031982422,-1.0593872,0.054138184,-4.265625,-8.328125,-0.875
1696247883137,-0.009277344,-0.9685669,0.010681152,0.484375,-7.90625,-2.546875
1696247883156,-0.009521484,-0.8904419,0.023864746,5.890625,-4.09375,-1.875
1696247883218,-0.037841797,-0.9710083,0.003112793,0.78125,-2.515625,1.203125
1696247883235,0.06616211,-1.0281372,0.058532715,0.265625,-2.078125,-0.015625
1696247883296,-0.010253906,-1.0176392,0.02947998,1.171875,-5.5625,0.203125
1696247883338,-0.02734375,-1.0010376,0.011413574,2.359375,-1.140625,1.265625
1696247883356,-0.025634766,-0.98565674,0.010437012,3.03125,-0.34375,-0.078125
1696247883395,0.0036621094,-0.975647,0.027038574,-0.265625,-0.03125,1.0
1696247883437,0.030273438,-0.9937134,0.023864746,-0.90625,-0.953125,0.71875
1696247883476,-0.026123047,-0.987854,0.026794434,1.09375,-1.484375,1.53125
1696247883517,0.0073242188,-0.9924927,0.013122559,0.5625,-1.34375,0.375
1696247883579,0.0061035156,-0.9890747,0.016540527,0.703125,0.25,1.28125
1696247883594,-0.01586914,-0.9819946,0.03778076,-1.765625,-0.9375,1.734375
1696247883615,0.0075683594,-1.0039673,0.059020996,-0.765625,-0.71875,0.78125
1696247883657,-0.033691406,-0.99835205,0.08319092,-0.46875,-2.46875,0.84375
1696247883696,-0.0068359375,-1.0337524,0.08148193,-5.765625,5.828125,5.546875
1696247883736,0.018554688,-1.0498657,0.02557373,0.59375,2.671875,3.296875
1696247883777,0.021972656,-0.9204712,-0.07623291,-4.25,2.765625,-4.75
1696247883817,0.05517578,-0.87213135,-0.04864502,4.78125,-1.265625,2.359375
1696247883858,-0.057861328,-1.050354,0.05706787,5.84375,-2.375,3.328125
1696247883896,0.056152344,-1.0286255,0.036315918,-3.484375,4.640625,-1.046875
1696247883938,-9.765625E-4,-1.0029907,0.028259277,-2.875,-5.4375,2.359375
1696247883976,-0.03540039,-1.0076294,0.03338623,1.328125,-2.546875,-0.375
1696247884017,0.038085938,-0.9260864,0.018005371,-2.71875,1.078125,-1.234375
1696247884059,0.03930664,-0.9590454,-0.026428223,-4.1875,3.046875,-0.9375
1696247884097,0.017822266,-0.96051025,0.066833496,2.171875,1.640625,0.515625
1696247884136,0.049072266,-1.1209106,0.04827881,-2.546875,-1.765625,-0.1875
1696247884178,-0.046142578,-0.98028564,0.042907715,0.765625,-0.90625,0.3125
1696247884217,0.0078125,-0.9512329,0.022399902,-2.578125,1.234375,0.390625
1696247884260,0.030029297,-0.9793091,-0.015686035,-4.078125,4.546875,0.0
1696247884296,0.032714844,-0.98883057,0.12786865,4.125,2.234375,1.828125
1696247884337,-0.007080078,-1.0645142,0.007751465,-0.96875,-4.640625,0.421875
1696247884376,0.0026855469,-0.9492798,0.03729248,-0.71875,3.84375,1.0625
1696247884417,0.047851562,-0.9404907,-0.0056762695,-1.546875,4.15625,3.328125
1696247884457,0.014160156,-1.0149536,0.094177246,2.25,-3.1875,1.0
1696247884497,0.010498047,-1.0405884,0.02947998,-2.203125,-5.546875,-2.265625
1696247884536,-0.008056641,-0.9614868,0.0524292,0.53125,-5.5,-3.0
1696247884578,0.03173828,-0.928772,0.025817871,4.734375,-4.390625,1.109375
1696247884616,0.020019531,-0.99298096,0.0067749023,1.484375,-1.09375,0.4375
1696247884657,0.033935547,-1.0320435,0.024353027,-0.40625,-1.28125,-0.71875
1696247884696,0.0063476562,-0.98687744,0.04510498,-2.125,-2.375,1.421875
1696247884740,-0.013916016,-0.99542236,0.038513184,0.265625,-1.78125,-0.125
1696247884778,0.036376953,-0.9885864,0.00970459,-0.6875,0.046875,-0.453125
1696247884817,0.022949219,-0.98687744,0.029968262,-0.6875,-0.359375,0.78125
1696247884859,0.018310547,-1.006897,0.054870605,-2.515625,1.9375,-0.15625
1696247884898,-0.007080078,-0.9710083,0.047058105,-1.953125,-0.859375,-0.1875
1696247884915,0.020996094,-0.98565674,0.050231934,0.984375,-1.578125,-0.09375
1696247884957,0.013183594,-0.97662354,0.04095459,1.28125,-1.375,-0.125
1696247884996,0.0075683594,-0.9973755,0.011169434,-0.09375,-0.765625,-0.078125
1696247885037,0.032714844,-1.0042114,0.02557373,-3.515625,0.84375,-0.828125
1696247885080,-0.0041503906,-0.9680786,0.07342529,-1.5,-1.609375,0.15625
1696247885137,-0.008544922,-1.0151978,0.055603027,0.5,-3.953125,0.484375
1696247885155,-0.032958984,-1.0059204,0.13104248,-2.15625,-1.140625,2.765625
1696247885218,0.032714844,-1.0498657,0.010192871,2.96875,3.578125,2.5
1696247885236,-0.0014648438,-0.9612427,0.0138549805,0.5,-1.5625,-6.1875
1696247885299,0.08544922,-0.87213135,-0.01739502,2.875,-1.640625,-2.296875
1696247885314,0.07861328,-0.9446411,-0.022766113,9.15625,-2.515625,4.5625
1696247885358,-0.08203125,-1.0151978,0.0014038086,1.640625,-1.921875,2.515625
1696247885399,0.092285156,-0.9678345,0.028747559,-3.84375,9.75,1.109375
1696247885439,0.0,-1.0527954,0.070251465,-2.375,-1.203125,3.46875
1696247885476,-0.047607422,-1.005188,0.061706543,-4.21875,-3.40625,-3.015625
1696247885518,0.012451172,-0.93463135,0.029724121,-1.59375,-2.25,-1.609375
1696247885555,0.0031738281,-0.93463135,0.03704834,-2.953125,-1.125,-0.90625
1696247885616,0.040771484,-0.9956665,0.022644043,-2.046875,0.328125,-0.859375
1696247885635,0.040527344,-0.9714966,0.034851074,-2.03125,0.140625,-0.421875
1696247885677,0.02709961,-1.0176392,0.09564209,0.28125,-0.203125,0.234375
1696247885716,-0.006591797,-1.0300903,0.0524292,-2.140625,-2.046875,0.203125
1696247885757,-0.025634766,-0.9429321,0.05609131,-5.890625,3.875,-0.375
1696247885797,0.009033203,-0.9463501,0.082458496,-2.9375,3.078125,1.515625
1696247885857,0.028076172,-1.0322876,0.09881592,0.796875,-2.9375,0.40625
1696247885897,0.037109375,-0.9981079,0.02142334,-0.890625,0.65625,-0.078125
1696247885915,0.012451172,-0.9429321,0.11663818,-0.359375,5.0,2.125
1696247885978,-0.08984375,-1.0593872,0.13031006,-1.5,-5.328125,2.921875
1696247885996,0.14648438,-0.9326782,-0.0022583008,-1.71875,1.546875,-4.71875
1696247886058,-0.037353516,-1.0095825,0.16448975,2.53125,-3.125,5.75
1696247886076,-0.05859375,-1.0149536,0.031677246,-4.625,1.28125,-1.625
1696247886118,0.09106445,-0.960022,0.09442139,-0.140625,0.9375,-1.484375
1696247886158,-0.014160156,-0.93927,0.07513428,-0.75,-1.390625,-0.015625
1696247886218,-0.001953125,-1.0271606,0.10345459,2.78125,-4.9375,0.296875
1696247886222,-0.012207031,-0.98809814,0.05682373,-2.546875,0.34375,-1.5625
1696247886259,0.059570312,-0.9483032,0.062194824,2.703125,0.265625,0.828125
1696247886299,-0.021728516,-1.0149536,0.07098389,3.546875,-2.59375,0.046875
1696247886335,0.024169922,-0.9993286,0.059753418,-1.515625,1.125,0.1875
1696247886377,-0.03149414,-0.9915161,0.0758667,-1.90625,-0.984375,1.109375
1696247886417,0.028808594,-0.9800415,0.04876709,-0.578125,0.328125,-1.171875
1696247886460,0.045166016,-0.9890747,0.07342529,0.296875,-1.546875,1.0
1696247886498,-0.0126953125,-0.9793091,0.06536865,0.953125,-1.234375,1.09375
1696247886536,0.008056641,-1.0142212,0.046813965,-3.140625,1.375,0.78125
1696247886576,-0.010253906,-0.9649048,0.07611084,-0.78125,-1.421875,0.65625
1696247886616,-0.016601562,-0.97735596,0.07318115,-0.453125,0.09375,1.375
1696247886659,0.05419922,-0.9883423,0.08392334,-0.28125,-1.65625,0.953125
1696247886699,-0.0014648438,-1.0193481,0.06732178,0.796875,-1.828125,1.4375
1696247886737,0.027832031,-1.0083618,0.07196045,-1.921875,-0.109375,0.5625
1696247886777,0.028564453,-0.987854,0.066345215,-0.75,-0.578125,-0.375
1696247886819,0.037841797,-0.9741821,0.07489014,-0.5,-0.0625,0.234375
1696247886860,0.025146484,-0.96710205,0.07904053,0.640625,-0.59375,-0.296875
1696247886898,0.008300781,-0.9741821,0.078063965,-0.5625,0.234375,-1.203125
1696247886936,0.03881836,-0.9690552,0.07635498,-1.296875,-0.703125,-1.125
1696247886977,0.009277344,-0.99713135,0.09197998,-1.59375,-0.125,-1.25
1696247887016,-0.016113281,-0.9741821,0.101501465,-1.34375,-1.109375,-1.65625
1696247887057,0.022216797,-0.98931885,0.059020996,-0.25,-3.5,-1.1875
1696247887099,0.007080078,-0.99298096,0.08514404,3.296875,-3.15625,-1.375
1696247887135,-0.032958984,-1.0161743,0.070251465,1.984375,0.609375,-0.296875
1696247887180,-0.0026855469,-1.0015259,0.07757568,-1.515625,1.03125,-1.984375
1696247887219,0.00390625,-0.9898071,0.08831787,0.203125,-1.484375,-0.921875
1696247887257,-0.02368164,-0.97247314,0.07489014,1.453125,-0.8125,0.078125
1696247887297,-0.018066406,-0.9763794,0.074645996,1.703125,1.328125,0.25
1696247887335,0.021972656,-0.9729614,0.08099365,5.0,-0.75,-1.578125
1696247887378,-0.009277344,-0.9927368,0.05316162,3.53125,-2.140625,-1.890625
1696247887418,0.0126953125,-0.99542236,0.0848999,4.234375,-1.59375,-0.359375
1696247887457,-0.03930664,-1.0025024,0.039001465,1.28125,-2.21875,0.671875
1696247887496,0.0024414062,-0.9907837,0.050720215,1.53125,-0.59375,2.0
1696247887538,-0.009521484,-1.013977,0.07537842,3.59375,-4.59375,1.046875
1696247887557,-0.032470703,-1.0115356,0.039978027,3.140625,-1.21875,0.578125
1696247887620,0.012451172,-1.0042114,0.051696777,5.265625,3.734375,0.34375
1696247887638,-0.07324219,-1.003479,0.049743652,4.84375,4.65625,2.109375
1696247887678,-0.037353516,-0.95196533,0.027038574,-0.25,2.640625,0.15625
1696247887737,0.118896484,-0.94244385,-0.058410645,1.375,3.5625,-1.859375
1696247887755,0.055664062,-0.9590454,-0.035461426,6.234375,-6.578125,2.453125
1696247887798,-0.049560547,-1.0076294,-0.0635376,4.265625,-2.15625,2.40625
1696247887859,0.05883789,-0.9751587,0.0368042,0.4375,7.0625,0.84375
1696247887874,-0.07739258,-1.0357056,0.081970215,-0.015625,1.078125,2.140625
1696247887917,0.02758789,-1.013977,-0.006652832,-4.21875,-0.421875,1.703125
1696247887978,0.007080078,-0.9463501,0.019958496,-1.9375,3.125,-0.1875
1696247887995,-0.0078125,-0.95806885,-0.061584473,-9.578125,8.796875,2.125
1696247888057,0.026367188,-0.9734497,0.046569824,-0.03125,3.0,3.734375
1696247888077,0.03149414,-1.0618286,0.11834717,2.59375,-6.28125,-0.28125
1696247888119,0.028076172,-1.0342407,-0.03668213,-0.15625,-1.359375,1.734375
1696247888157,-0.03149414,-0.9463501,0.026306152,-1.1875,-1.140625,1.9375
1696247888217,-0.060546875,-1.0391235,0.04852295,-2.390625,-1.984375,2.734375
1696247888237,0.06518555,-0.95196533,-0.1260376,-3.359375,-1.609375,-2.84375
1696247888277,0.036621094,-0.96954346,0.08758545,0.890625,-0.640625,0.921875
1696247888337,-0.06591797,-1.0044556,0.02557373,-2.03125,-0.1875,1.265625
1696247888378,0.088378906,-0.99176025,0.020690918,-1.828125,-1.90625,-3.4375
1696247888396,0.05883789,-0.99420166,0.028503418,2.015625,-1.28125,0.078125
1696247888438,-0.021972656,-0.9902954,0.0602417,-1.453125,-1.453125,0.765625
1696247888476,-0.0021972656,-0.99591064,0.03289795,-2.25,-0.03125,-0.96875
1696247888517,0.06518555,-0.96343994,0.042663574,0.046875,-0.71875,-0.921875
1696247888555,-0.01586914,-1.0147095,0.04901123,2.125,-1.515625,0.96875
1696247888596,-0.041748047,-0.9973755,0.02557373,-1.828125,2.5,0.578125
1696247888634,0.021240234,-0.9607544,0.05682373,-0.890625,1.21875,0.140625
1696247888677,-0.014404297,-0.9949341,0.023620605,2.546875,-1.265625,0.21875
1696247888737,0.007080078,-0.9885864,-0.002746582,0.9375,-2.59375,-0.03125
1696247888755,0.0234375,-0.99005127,0.03778076,2.984375,-2.3125,-0.1875
1696247888819,0.03466797,-1.0271606,0.035827637,2.96875,-0.921875,1.3125
1696247888838,-0.0031738281,-0.9819946,0.031921387,0.625,-0.171875,1.03125
1696247888857,0.0026855469,-0.97052,0.032165527,1.6875,0.078125,1.171875
1696247888900,0.03881836,-0.9846802,0.02142334,1.0,-0.0625,0.3125
1696247888938,0.035888672,-0.9898071,0.012145996,1.859375,-1.84375,-0.3125
1696247888976,0.012939453,-0.99542236,0.0072631836,1.296875,-0.09375,-0.1875
1696247889018,0.036865234,-0.98565674,0.014831543,-0.28125,0.875,-0.125
1696247889059,0.026611328,-0.991272,0.017028809,-0.296875,-0.28125,-1.03125
1696247889097,-0.010253906,-0.9883423,0.016052246,-0.125,-2.234375,-1.296875
1696247889136,0.025878906,-0.96466064,-0.007385254,-1.59375,-0.671875,-3.6875
1696247889178,0.010498047,-0.9631958,0.047546387,2.296875,-2.5,-1.0625
1696247889216,-0.057128906,-0.99835205,0.0065307617,0.328125,-0.3125,-0.9375
1696247889256,0.05053711,-0.9871216,0.014343262,-0.421875,-0.28125,-1.796875
1696247889296,-0.03564453,-0.9898071,0.023864746,2.125,-3.078125,0.734375
1696247889339,-0.0390625,-1.0083618,0.009460449,-0.484375,-0.046875,0.078125
1696247889377,0.04296875,-0.9849243,0.031921387,0.28125,-1.59375,0.359375
1696247889417,-0.04321289,-1.0161743,0.022644043,2.390625,-5.046875,1.984375
1696247889458,-0.0146484375,-1.022522,0.038024902,-0.40625,-0.109375,2.640625
1696247889500,0.034179688,-1.00177,0.02947998,4.09375,-0.53125,2.53125
1696247889540,-0.03466797,-1.0022583,0.00579834,2.15625,-4.90625,-0.546875
1696247889577,-7.324219E-4,-0.9480591,-0.07159424,3.953125,-2.0,-0.734375
1696247889617,-0.0014648438,-0.9456177,-0.03277588,2.390625,-0.671875,1.828125
1696247889657,0.07128906,-0.98931885,-0.06939697,-0.296875,1.1875,1.640625
1696247889697,0.03173828,-0.9717407,-0.012756348,-1.734375,3.609375,1.421875
1696247889736,-0.056396484,-0.9961548,0.0016479492,-1.03125,2.03125,3.234375
1696247889777,0.048339844,-1.0449829,0.012634277,-3.140625,3.296875,0.078125
1696247889816,0.051513672,-0.95147705,-0.011779785,-3.171875,-0.0625,-0.59375
1696247889858,-0.029296875,-0.95269775,-0.018371582,-0.671875,0.921875,0.359375
1696247889896,0.04711914,-0.960022,-0.02130127,-3.921875,2.40625,0.390625
1696247889939,0.06225586,-0.9692993,0.020690918,-1.09375,3.59375,2.03125
1696247889977,0.013183594,-1.0652466,0.011657715,-0.515625,-2.25,1.265625
1696247890019,-0.0390625,-0.9890747,0.022399902,2.046875,-0.109375,-1.140625
1696247890057,0.016845703,-0.95562744,0.029724121,0.078125,0.625,0.9375
1696247890097,-0.017578125,-0.99176025,0.009216309,-3.171875,-5.1875,-0.21875
1696247890139,0.010986328,-1.0076294,0.036315918,-1.125,0.671875,-2.5
1696247890177,0.044189453,-0.9656372,-0.0044555664,0.140625,-2.828125,1.890625
1696247890197,0.0041503906,-0.9522095,0.016052246,5.171875,-2.390625,1.859375
1696247890236,-0.014160156,-0.99102783,0.004333496,3.5,-1.578125,1.375
1696247890277,0.04345703,-0.9834595,-3.0517578E-4,0.34375,-1.0625,0.59375
1696247890316,0.034423828,-0.99786377,0.01727295,2.0625,-4.359375,0.15625
1696247890379,-0.0056152344,-1.006897,-0.022033691,2.34375,-2.109375,0.421875
1696247890396,0.0146484375,-0.99468994,-0.0032348633,1.046875,-0.1875,0.25
1696247890438,0.0107421875,-0.973938,-0.0056762695,1.015625,-0.734375,1.28125
1696247890478,-0.0036621094,-0.99005127,0.004333496,0.765625,-2.046875,2.015625
1696247890540,0.018066406,-1.0054321,0.021911621,-2.484375,-1.203125,2.546875
1696247890555,0.0871582,-1.0042114,-0.030334473,-1.40625,3.796875,1.328125
1696247890597,-0.0048828125,-0.9758911,-0.028869629,0.625,-2.359375,-2.78125
1696247890661,0.027832031,-0.9522095,-0.050354004,1.921875,0.421875,-2.6875
1696247890697,0.056396484,-0.9727173,-0.021057129,3.203125,-0.09375,2.09375
1696247890716,0.029052734,-1.0081177,-0.06378174,0.4375,-1.5625,-0.65625
1696247890760,0.0026855469,-1.0437622,0.01751709,-3.328125,2.375,1.578125
1696247890796,0.032958984,-1.0134888,0.06854248,-0.296875,-0.4375,1.734375
1696247890858,-0.048339844,-0.9951782,-0.025939941,-3.421875,5.5,0.890625
1696247890897,0.08251953,-0.95196533,0.024597168,-2.015625,0.796875,-1.234375
1696247890917,-0.020263672,-0.9456177,-0.014953613,-0.359375,-0.796875,-0.703125
1696247890956,0.056884766,-0.97857666,0.016540527,0.59375,-0.234375,-1.140625
1696247891017,0.0107421875,-0.9546509,-0.011779785,0.296875,-4.03125,0.9375
1696247891056,0.010009766,-1.0064087,0.002380371,0.75,-2.4375,-0.609375
1696247891076,0.040527344,-1.0027466,0.02142334,-0.046875,-3.046875,-0.140625
1696247891117,0.0078125,-1.0110474,0.01727295,0.703125,-5.796875,1.40625
1696247891180,0.0017089844,-0.9976196,0.042663574,-0.59375,-3.796875,2.734375
1696247891195,0.017578125,-1.0010376,0.019714355,3.453125,-2.46875,4.546875
1696247891237,-0.021240234,-0.9961548,0.017028809,0.75,-4.09375,2.1875
1696247891278,0.059814453,-0.9714966,0.0014038086,-0.5,-3.0,-0.84375
1696247891317,0.041992188,-0.95440674,-0.010559082,2.109375,-4.15625,-0.875
1696247891357,0.031982422,-0.97979736,0.009460449,2.765625,-3.0625,-1.453125
1696247891396,0.060302734,-0.98028564,-0.06719971,-0.484375,-1.90625,-0.546875
1696247891460,0.02758789,-0.9541626,0.019714355,3.8125,-1.859375,1.046875
1696247891477,0.032226562,-1.0127563,0.0040893555,0.328125,-3.1875,2.171875
1696247891496,0.053955078,-0.95635986,-0.07574463,-5.484375,0.484375,-0.484375
1696247891537,0.028320312,-0.9631958,0.01361084,-3.78125,3.28125,1.28125
1696247891579,0.047851562,-1.048645,0.028259277,-0.6875,0.171875,-1.296875
1696247891619,0.004638672,-1.0193481,0.004333496,-2.609375,0.75,-0.890625
1696247891659,0.037841797,-0.95684814,-0.02960205,-1.1875,2.125,-0.8125
1696247891696,0.029541016,-0.94659424,0.022155762,1.609375,2.078125,0.625
1696247891735,0.045410156,-0.99346924,-0.021057129,0.09375,-0.34375,-0.28125
1696247891777,0.03491211,-0.99053955,0.022644043,1.34375,-0.90625,-1.515625
1696247891817,0.03149414,-1.0105591,-0.011291504,-2.5,-2.453125,1.03125
1696247891858,-0.010009766,-0.9944458,0.035095215,1.21875,-3.6875,0.578125
1696247891898,0.036865234,-0.98883057,0.004333496,0.078125,-3.9375,0.015625
1696247891940,0.014404297,-0.9771118,0.014587402,-0.640625,-4.15625,1.296875
1696247891977,0.0078125,-1.0007935,0.0053100586,-1.28125,-3.109375,-0.421875
1696247892017,0.028076172,-0.9920044,-6.1035156E-5,-4.59375,-1.953125,-0.625
1696247892057,0.044677734,-0.9717407,0.025817871,-2.53125,-1.875,-0.59375
1696247892099,-0.0012207031,-0.98760986,0.018005371,-2.96875,-1.578125,-0.203125
1696247892139,0.056396484,-0.9985962,-6.1035156E-5,-2.59375,-1.859375,-0.453125
1696247892179,0.03100586,-0.96539307,0.020446777,-1.84375,-2.03125,-0.203125
1696247892217,0.0024414062,-0.9812622,0.029724121,-1.1875,-2.25,0.59375
1696247892259,0.037841797,-0.99102783,0.0033569336,-2.578125,0.09375,-0.671875
1696247892296,0.040283203,-0.99884033,0.010681152,-1.875,-1.234375,0.171875
1696247892336,0.01953125,-0.97540283,0.051208496,-0.421875,-0.484375,-0.21875
1696247892378,0.0146484375,-0.99591064,0.034606934,-1.453125,-1.859375,0.109375
1696247892417,0.024658203,-0.98516846,0.039978027,-1.859375,-0.953125,0.09375
1696247892456,0.018554688,-0.99102783,0.03387451,-1.78125,-0.984375,-0.015625
1696247892499,0.01977539,-0.98028564,0.04559326,-1.0625,-0.421875,0.40625
1696247892537,0.025878906,-0.98687744,0.04095459,-0.25,-1.375,0.984375
1696247892578,0.0087890625,-0.9937134,0.047302246,-0.5,-0.921875,0.34375
1696247892618,0.03149414,-0.9866333,0.038269043,-1.09375,-0.125,0.484375
1696247892656,0.024414062,-0.98516846,0.04437256,-0.125,-0.640625,0.15625
1696247892697,0.040771484,-0.9841919,0.03363037,-0.625,-0.703125,0.484375
1696247892738,0.0146484375,-0.9890747,0.03387451,-0.96875,-0.453125,0.5
1696247892777,0.045898438,-0.99102783,-0.0022583008,-2.859375,0.03125,-0.03125
1696247892816,0.03564453,-0.9710083,0.06781006,2.328125,-0.671875,0.21875
1696247892857,7.324219E-4,-1.0056763,0.04925537,-0.265625,-1.375,0.609375
1696247892876,0.02758789,-0.9829712,0.049987793,-0.4375,-0.328125,-0.078125
1696247892939,0.032714844,-0.9866333,0.05218506,-0.3125,-0.78125,0.078125
1696247892956,0.021240234,-0.98150635,0.054626465,-0.84375,-0.859375,0.40625
1696247892998,0.028564453,-0.9819946,0.04827881,-0.84375,-0.453125,0.3125
1696247893037,0.028076172,-0.9998169,0.05633545,0.375,-0.4375,0.671875
1696247893097,0.030517578,-0.9927368,0.04046631,-0.75,-0.421875,0.625
1696247893115,0.021972656,-0.97906494,0.04559326,0.203125,-0.21875,0.671875
1696247893157,0.033447266,-0.99664307,0.03363037,-1.625,-0.484375,0.25
1696247893218,0.018066406,-0.99542236,0.0289917,-2.34375,-0.375,-0.671875
1696247893257,0.048095703,-0.9873657,0.008239746,-2.734375,-0.59375,-0.109375
1696247893275,0.032958984,-0.972229,0.0680542,0.875,-0.875,-0.046875
1696247893316,0.009033203,-0.9993286,0.047058105,-1.1875,-1.203125,0.078125
1696247893356,0.039794922,-0.9800415,0.05731201,-0.703125,-1.125,0.328125
1696247893397,0.026367188,-0.9902954,0.054382324,-1.046875,-1.125,-0.015625
1696247893458,0.018798828,-0.99005127,0.05340576,-1.125,-1.296875,0.09375
1696247893477,0.045898438,-0.97784424,0.051940918,-0.09375,-1.109375,0.265625
1696247893516,0.020263672,-0.98394775,0.061462402,0.6875,-1.0625,0.6875
1696247893560,0.020996094,-1.0032349,0.04852295,-0.3125,-1.109375,0.609375
1696247893616,0.029785156,-0.97784424,0.0602417,0.5625,-0.71875,0.3125
1696247893638,0.02734375,-0.987854,0.04852295,0.328125,-0.515625,0.109375
1696247893677,0.02319336,-0.98809814,0.05316162,-1.1875,0.21875,-0.015625
1696247893737,0.04272461,-0.9927368,-0.0015258789,-2.46875,0.03125,-0.046875
1696247893757,0.025390625,-0.9727173,0.08660889,2.734375,-1.171875,0.515625
1696247893798,0.020263672,-1.0093384,0.05731201,-1.0,-0.71875,0.578125
1696247893858,0.033203125,-0.9734497,0.04901123,-0.984375,-0.140625,0.421875
1696247893897,0.017089844,-0.99053955,0.054138184,0.34375,-0.546875,0.609375
1696247893915,0.03466797,-0.98101807,0.04168701,-0.6875,-0.828125,0.734375
1696247893958,0.041748047,-0.9678345,0.043884277,1.78125,-0.421875,0.9375
1696247894016,0.03149414,-1.008606,0.05316162,1.625,-0.0625,1.625
1696247894036,0.03857422,-0.9800415,0.03387451,1.84375,-0.671875,1.421875
1696247894077,0.037109375,-0.98150635,0.035095215,3.78125,-0.125,1.890625
1696247894117,0.05859375,-1.003479,0.032409668,1.171875,0.96875,1.125
1696247894136,0.024658203,-0.98638916,0.018493652,-0.125,1.296875,1.671875
1696247894177,0.0715332,-0.99224854,0.010925293,-1.203125,1.625,1.203125
1696247894218,0.01977539,-0.9692993,0.057800293,1.34375,-0.25,0.28125
1696247894258,0.022705078,-0.9939575,0.031677246,0.21875,-0.171875,0.984375
1696247894300,0.07519531,-1.0012817,0.047546387,-0.640625,7.109375,1.8125
1696247894337,0.05810547,-0.96099854,0.070739746,-2.28125,7.03125,1.203125
1696247894379,0.05834961,-1.0076294,-0.019348145,1.296875,-0.328125,1.09375
1696247894419,0.010986328,-1.1057739,-0.09454346,-5.3125,27.0625,-2.1875
1696247894456,0.1081543,-0.9006958,0.19915771,2.1875,-7.375,-2.5625
1696247894497,-0.024902344,-1.05719,0.11224365,4.59375,-1.296875,0.8125
1696247894536,0.084472656,-1.0610962,-0.02960205,-1.3125,2.125,-2.890625
1696247894577,0.014160156,-0.8909302,0.004333496,-0.09375,7.265625,-0.484375
1696247894620,4.8828125E-4,-0.93463135,0.054138184,3.09375,-1.625,0.5625
1696247894658,0.06616211,-1.0239868,-0.029846191,-1.109375,-3.125,-1.875
1696247894697,0.08129883,-0.9163208,-0.0017700195,1.796875,3.421875,-2.5625
1696247894736,2.4414062E-4,-0.97979736,0.05609131,3.703125,-3.3125,3.09375
1696247894777,0.01977539,-1.0195923,-0.010803223,-1.078125,-2.625,-0.703125
1696247894819,0.1015625,-1.005188,0.00970459,-1.578125,1.71875,-3.515625
1696247894855,-0.025634766,-0.9824829,0.0848999,-1.53125,-4.640625,3.0625
1696247894897,0.0146484375,-1.0010376,-6.1035156E-5,-0.859375,-0.953125,-0.6875
1696247894938,0.12402344,-0.98931885,0.07977295,-1.5,1.53125,-2.09375
1696247894977,-0.06567383,-0.97198486,0.020690918,-0.5,-1.53125,4.484375
1696247895018,0.008544922,-0.98883057,-0.008117676,-0.375,-0.40625,-1.90625
1696247895056,0.15893555,-0.9834595,0.050964355,-0.90625,1.1875,-2.03125
1696247895097,-0.0390625,-0.9871216,0.039001465,2.53125,-3.3125,3.5625
1696247895137,0.011474609,-1.0083618,0.007507324,-0.984375,4.640625,-3.828125
1696247895177,0.12402344,-0.9636841,0.007751465,-1.140625,-0.3125,-1.390625
1696247895217,0.008300781,-0.9661255,0.030456543,4.984375,-3.765625,1.8125
1696247895257,-0.014160156,-1.0081177,-7.9345703E-4,2.140625,-4.734375,-1.140625
1696247895300,0.0637207,-0.97735596,-0.022277832,0.34375,-1.0,-1.8125
1696247895336,-0.0087890625,-0.99542236,-3.0517578E-4,0.921875,-0.234375,-0.09375
1696247895379,0.041259766,-0.97320557,-0.0056762695,-4.078125,1.171875,-0.3125
1696247895437,0.037353516,-0.97442627,0.046325684,-1.5,-0.828125,-0.625
1696247895456,-0.033203125,-0.9963989,0.01751709,-0.53125,-1.109375,-0.59375
1696247895477,0.03955078,-0.9746704,0.020446777,-1.234375,0.53125,-0.90625
1696247895519,0.015380859,-0.9944458,0.047790527,1.09375,-1.375,0.8125
1696247895557,0.015136719,-1.0164185,0.05340576,-0.921875,0.609375,0.234375
1696247895597,-0.001953125,-0.97125244,0.02508545,-0.890625,0.8125,0.015625
1696247895660,0.016357422,-0.99664307,0.027526855,0.453125,0.46875,0.8125
1696247895699,0.05053711,-0.9898071,0.039001465,-0.96875,-1.21875,1.4375
1696247895737,0.017089844,-0.986145,-0.022033691,0.59375,-0.96875,0.890625
1696247895756,0.013427734,-0.9673462,0.07904053,0.296875,1.546875,0.84375
1696247895798,-0.0026855469,-0.9907837,0.039245605,-1.265625,-1.390625,1.265625
1696247895858,0.01586914,-1.0061646,0.062438965,-1.203125,-3.4375,-1.4375
1696247895877,-0.010986328,-0.97906494,0.09197998,1.90625,-6.546875,0.734375
1696247895937,0.024169922,-1.0234985,0.0033569336,6.265625,0.53125,0.953125
1696247895979,0.04321289,-0.9741821,-0.043762207,3.03125,3.453125,-3.765625
1696247895995,0.06713867,-0.9414673,-0.036193848,1.984375,0.328125,-0.453125
1696247896038,0.03149414,-1.0076294,0.005065918,5.3125,-2.90625,0.21875
1696247896076,-9.765625E-4,-0.9915161,-0.028381348,-2.0625,0.484375,0.296875
1696247896119,0.038085938,-0.972229,0.06829834,-3.703125,1.78125,2.171875
1696247896157,-0.021484375,-0.99884033,0.039245605,0.140625,-5.3125,1.953125
1696247896218,0.0053710938,-0.9829712,0.042907715,-0.375,0.15625,-0.921875
1696247896236,0.04711914,-0.98565674,-0.023010254,-0.890625,-5.375,-1.03125
1696247896300,0.011474609,-0.9656372,-0.0076293945,2.515625,1.46875,-1.40625
1696247896336,0.0637207,-1.0005493,-0.031555176,-0.375,0.28125,-1.40625
1696247896358,0.011474609,-1.0073853,0.047302246,-0.984375,-0.296875,0.109375
1696247896399,-0.048339844,-1.0215454,0.030212402,-0.609375,-3.203125,1.953125
1696247896457,-0.008544922,-0.99346924,0.035583496,-2.203125,0.09375,-0.640625
1696247896475,0.03955078,-1.0044556,0.035827637,2.046875,-3.0625,0.90625
1696247896540,-0.0075683594,-0.9727173,0.018737793,3.65625,-1.484375,0.953125
1696247896556,0.05908203,-0.9360962,-0.04937744,0.078125,0.234375,-2.171875
1696247896599,0.07299805,-0.9570923,-0.038391113,0.6875,-0.78125,0.65625
1696247896639,-0.0063476562,-1.0151978,0.010437012,-0.625,4.71875,3.859375
1696247896678,0.0026855469,-1.0161743,-0.016662598,-2.75,6.34375,2.328125
1696247896717,0.110839844,-0.97906494,0.08123779,-4.796875,14.484375,2.203125
1696247896757,-0.041259766,-0.9685669,0.08807373,-0.046875,-0.09375,3.5625
1696247896776,0.0075683594,-1.0054321,-0.016174316,-3.015625,-0.8125,-2.90625
1696247896817,0.072509766,-0.9470825,0.0446167,-0.84375,0.421875,-1.296875
1696247896858,-0.029785156,-0.89312744,0.01727295,-3.703125,-1.203125,1.578125
1696247896897,0.022460938,-1.013977,0.048034668,0.796875,-1.09375,-1.84375
1696247896938,0.06762695,-1.02594,0.0099487305,-3.015625,-2.828125,-3.109375
1696247896978,0.029785156,-0.9151001,0.0138549805,4.890625,-4.765625,1.6875
1696247897019,-0.0107421875,-1.0332642,-0.0032348633,4.21875,-3.0625,1.140625
1696247897058,0.03540039,-1.0327759,0.045837402,-3.71875,3.203125,0.328125
1696247897099,0.014892578,-0.96539307,0.04168701,-0.734375,-0.828125,1.359375
1696247897138,0.030273438,-1.0137329,0.016296387,0.75,1.234375,0.953125
1696247897178,0.027832031,-0.97857666,0.031433105,-0.34375,-0.84375,1.203125
1696247897218,-0.05493164,-0.94732666,-0.02520752,-6.515625,2.46875,1.546875
1696247897257,0.07055664,-1.0061646,0.1720581,-1.4375,-6.796875,-0.09375
1696247897299,0.0036621094,-0.9949341,-0.028869629,0.875,0.71875,-1.125
1696247897337,0.07006836,-0.92071533,0.0758667,0.734375,0.4375,3.140625
1696247897379,-0.07128906,-0.99957275,-0.016418457,1.453125,0.734375,0.484375
1696247897418,0.06762695,-1.0012817,0.070251465,-4.96875,5.640625,0.875
1696247897459,-0.008056641,-0.9692993,0.05999756,-2.546875,-0.6875,0.75
1696247897499,0.14990234,-1.0283813,0.028503418,4.09375,1.125,0.265625
1696247897538,-0.035888672,-0.9951782,0.07879639,0.203125,-3.09375,1.796875
1696247897578,0.032226562,-0.9536743,0.04827881,-0.578125,1.203125,-1.71875
1696247897618,0.06347656,-0.9817505,0.018493652,-0.640625,-0.09375,0.453125
1696247897657,0.03881836,-0.9837036,0.03387451,0.765625,-3.203125,-2.3125
1696247897698,0.025634766,-0.95806885,0.0026245117,4.734375,-6.1875,-0.71875
1696247897737,0.0026855469,-0.9768677,0.02947998,0.5,-4.34375,1.71875
1696247897777,-0.016601562,-1.0530396,-0.0068969727,2.046875,0.828125,1.4375
1696247897817,0.057617188,-1.0088501,0.042663574,-2.75,3.125,-0.59375
1696247897857,0.025146484,-0.9697876,0.031677246,0.828125,-1.234375,0.765625
1696247897897,0.0061035156,-0.9907837,0.029968262,0.59375,0.4375,0.34375
1696247897937,0.04638672,-0.97003174,0.035095215,-0.5,0.609375,0.15625
1696247897977,0.0390625,-0.9649048,0.019470215,0.375,-0.265625,-0.109375
1696247898015,0.0107421875,-0.9990845,0.049987793,-0.921875,-0.796875,0.84375
1696247898055,0.005859375,-0.99298096,0.04559326,-0.1875,-2.046875,-0.453125
1696247898074,0.05517578,-0.98638916,0.020202637,-0.375,-2.15625,-0.140625
1696247898138,0.0053710938,-1.0164185,0.059509277,1.4375,-2.984375,0.09375
1696247898156,0.008300781,-1.0308228,0.06536865,3.375,0.265625,-0.234375
1696247898197,0.053466797,-0.9570923,-0.034240723,1.265625,0.75,-0.53125
1696247898238,0.03100586,-0.9636841,-0.004211426,1.890625,-2.1875,0.171875
1696247898275,0.038085938,-1.0227661,0.029724121,-0.546875,-0.109375,-0.5
1696247898317,-4.8828125E-4,-0.96343994,0.018005371,-0.609375,-1.203125,-0.03125
1696247898360,0.02758789,-0.9776001,0.014831543,1.375,-1.21875,0.78125
1696247898400,0.020263672,-0.9873657,0.018493652,-1.484375,0.78125,0.453125
1696247898438,0.016845703,-1.0032349,0.042419434,-1.078125,-1.9375,0.03125
1696247898479,0.018798828,-0.98321533,0.022888184,-0.328125,-2.046875,-0.34375
1696247898517,0.03149414,-0.97442627,0.016296387,1.265625,-1.65625,-0.375
1696247898557,0.010986328,-1.0010376,0.0033569336,1.75,0.0625,1.03125
1696247898597,0.026123047,-1.0186157,0.024353027,-2.015625,7.8125,2.25
1696247898660,0.010253906,-0.97613525,0.08099365,-0.484375,5.8125,2.390625
1696247898678,0.0056152344,-0.9924927,0.022155762,-0.65625,0.671875,0.5625
1696247898738,0.07739258,-0.9873657,0.003112793,-1.328125,1.15625,-0.40625
1696247898756,0.009277344,-0.9758911,0.019714355,-2.984375,-0.4375,2.40625
1696247898797,-0.009521484,-0.99713135,0.01751709,-0.84375,0.875,-0.453125
1696247898861,0.08251953,-0.9434204,0.054626465,-3.015625,-1.703125,-1.859375
1696247898877,0.028320312,-0.9663696,-0.031799316,3.78125,-2.90625,0.546875
1696247898919,0.030273438,-1.0003052,0.070495605,0.109375,-4.5,-1.125
1696247898977,0.029541016,-0.9714966,0.009460449,-1.515625,2.390625,-0.171875
1696247898995,0.032714844,-1.0071411,0.06488037,1.234375,-1.84375,0.265625
1696247899037,0.011474609,-0.9800415,0.051940918,-3.3125,-8.625,-3.9375
1696247899078,0.042236328,-0.93096924,0.02508545,0.375,-6.046875,-4.53125
1696247899117,-0.0126953125,-1.0322876,0.016296387,2.984375,-3.625,2.328125
1696247899157,0.0012207031,-0.94903564,0.017028809,0.546875,-1.421875,-0.34375
1696247899198,-0.026123047,-1.0093384,0.015808105,1.15625,2.78125,-0.046875
1696247899260,0.09741211,-1.0130005,0.03338623,-2.03125,1.9375,0.484375
1696247899276,-0.009277344,-0.9727173,0.014099121,-0.3125,-2.90625,-0.984375
1696247899322,0.0041503906,-0.9649048,0.035583496,-0.765625,-1.203125,-1.390625
1696247899378,0.020263672,-0.9780884,0.046813965,0.828125,-1.8125,-0.28125
1696247899397,0.0073242188,-0.9885864,0.04119873,0.234375,-1.0625,0.171875
1696247899418,9.765625E-4,-0.9871216,0.051452637,0.90625,-2.09375,1.125
1696247899459,-0.02758789,-1.0066528,0.014587402,-0.125,0.4375,1.96875
1696247899497,0.045898438,-1.0095825,0.03753662,-0.796875,-0.53125,-0.515625
1696247899538,-0.0026855469,-0.9998169,0.038024902,0.421875,-2.59375,0.03125
1696247899578,0.018554688,-0.98272705,0.04071045,2.34375,-0.546875,0.40625
1696247899618,0.009033203,-0.98516846,0.005554199,2.125,-0.140625,1.71875
1696247899660,0.006591797,-0.9993286,0.008728027,1.65625,-0.671875,1.15625
1696247899697,0.01171875,-0.98150635,0.0028686523,-0.125,0.84375,0.875
1696247899737,0.052001953,-0.97784424,0.022399902,-1.796875,-0.21875,0.90625
1696247899777,-2.4414062E-4,-0.99176025,0.04144287,-0.921875,-3.4375,0.8125
1696247899816,0.018554688,-0.9805298,0.03778076,-1.359375,-3.390625,0.390625
1696247899857,0.0063476562,-0.9976196,0.07147217,1.359375,-3.53125,1.859375
1696247899897,0.0034179688,-1.0127563,-0.013244629,2.734375,-4.21875,-0.96875
1696247899937,0.048583984,-0.94537354,0.010437012,-0.90625,-0.4375,-0.796875
1696247899978,0.03491211,-0.97662354,0.0079956055,0.484375,0.640625,2.15625
1696247900017,0.018798828,-1.0269165,0.028015137,1.03125,0.8125,1.15625
1696247900057,0.040283203,-0.9729614,0.03289795,-0.765625,2.921875,-0.1875
1696247900096,0.037353516,-0.97369385,0.026306152,-0.125,0.015625,1.40625
1696247900139,0.005859375,-0.99591064,0.038513184,0.875,-1.1875,0.125
1696247900180,0.016357422,-0.99542236,0.012634277,-1.28125,1.0,-0.109375
1696247900217,0.030761719,-0.96466064,0.026062012,-0.703125,2.4375,1.046875
1696247900256,-0.011230469,-1.0012817,0.03265381,1.0,0.359375,1.421875
1696247900296,0.06201172,-1.0115356,-0.031311035,-1.125,6.265625,2.125
1696247900338,0.06713867,-0.99224854,0.058044434,-3.34375,6.3125,1.5
1696247900379,-0.09277344,-1.0044556,0.066345215,0.40625,0.734375,2.0625
1696247900418,0.06738281,-1.0083618,0.014587402,-0.78125,2.109375,-2.203125
1696247900457,0.020996094,-0.93536377,0.03704834,-0.015625,-0.53125,0.921875
1696247900497,-0.03881836,-0.9841919,0.078308105,-0.109375,-4.15625,1.3125
1696247900537,0.07836914,-0.9990845,-0.042053223,-3.625,1.84375,-1.921875
1696247900577,0.057617188,-0.9404907,0.078063965,-0.078125,-1.03125,0.96875
1696247900618,-0.029541016,-1.0176392,0.028015137,2.5,-5.140625,0.140625
1696247900657,0.06323242,-0.99176025,0.019714355,0.453125,-1.640625,-2.5
1696247900698,0.022705078,-0.9663696,0.023620605,1.390625,-1.15625,1.90625
1696247900718,0.032958984,-1.0112915,0.041931152,1.015625,-1.375,0.203125
1696247900779,0.061035156,-0.99542236,0.036071777,-0.65625,-0.1875,0.40625
1696247900818,-0.00390625,-0.96710205,0.028747559,0.59375,-1.875,1.1875
1696247900835,0.056396484,-0.9885864,0.022644043,0.359375,-1.421875,-0.59375
1696247900877,0.037353516,-0.96661377,0.02947998,1.453125,-3.15625,0.125
1696247900940,0.0146484375,-0.99420166,0.0119018555,-0.796875,-2.296875,-0.421875
1696247900957,0.036132812,-0.9783325,0.022155762,-0.5,-2.125,-0.484375
1696247900995,0.0043945312,-0.9783325,0.055358887,0.28125,-3.9375,0.421875
1696247901036,0.013671875,-1.0276489,0.08343506,-1.484375,-0.4375,1.9375
1696247901077,0.048095703,-1.0186157,0.036315918,-4.515625,-1.984375,0.921875
1696247901117,7.324219E-4,-0.97320557,-0.0032348633,4.21875,-7.359375,-1.421875
1696247901159,0.057617188,-0.9299927,0.007507324,1.28125,1.234375,0.125
1696247901197,0.057861328,-0.9751587,-0.00982666,-1.578125,6.28125,2.96875
1696247901237,0.033935547,-0.98101807,6.713867E-4,1.84375,9.9375,0.53125
1696247901278,0.04321289,-0.9846802,0.109558105,0.734375,5.71875,2.015625
1696247901317,0.033691406,-1.0095825,0.02557373,-1.828125,-2.03125,-0.109375
1696247901359,0.05029297,-0.9776001,-0.027404785,-2.09375,4.84375,-2.640625
1696247901396,0.021240234,-0.93096924,0.054138184,-3.46875,6.28125,2.125
1696247901442,0.0041503906,-0.96588135,0.070251465,1.671875,7.734375,-0.890625
1696247901478,0.07006836,-1.0481567,0.10028076,-1.78125,-3.84375,-0.5
1696247901538,-0.0014648438,-0.9421997,-0.02154541,0.046875,-5.171875,-1.59375
1696247901578,-0.038085938,-0.96832275,-0.0095825195,-0.09375,4.6875,2.765625
1696247901596,0.045898438,-0.9871216,0.070007324,2.015625,3.96875,-0.984375
1696247901659,0.061279297,-1.0149536,0.055603027,-7.578125,-5.71875,-2.265625
1696247901698,0.0024414062,-0.9771118,0.043395996,1.0,-6.015625,0.703125
1696247901716,0.07299805,-1.010315,0.058044434,0.125,1.203125,0.578125
1696247901778,0.013427734,-1.0112915,0.010437012,-1.25,1.578125,0.921875
1696247901799,0.040527344,-0.95806885,0.08319092,-1.796875,-0.59375,-1.21875
1696247901838,0.05029297,-1.0039673,0.04901123,0.296875,-1.8125,0.0625
1696247901877,-0.013671875,-0.97613525,0.055603027,-1.71875,0.515625,0.59375
1696247901916,0.03955078,-1.0015259,-0.013244629,-0.59375,-0.59375,-1.5625
1696247901956,0.048339844,-0.9968872,0.05682373,-2.28125,0.546875,-0.203125
1696247901999,-2.4414062E-4,-0.9612427,0.018493652,0.625,1.140625,-0.609375
1696247902037,0.075927734,-1.0193481,0.059753418,0.109375,-0.953125,-0.328125
1696247902056,-0.04272461,-0.97052,0.055847168,1.296875,-3.015625,-1.28125
1696247902097,0.010986328,-0.9824829,0.034362793,-2.0,1.515625,-0.21875
1696247902137,0.018066406,-0.991272,0.046325684,-1.375,1.640625,1.46875
1696247902178,0.008056641,-0.97979736,0.07244873,-1.328125,-0.359375,-0.515625
1696247902217,0.01953125,-0.9841919,0.027770996,-0.6875,-1.59375,-0.09375
1696247902257,0.02368164,-0.9985962,0.055114746,0.1875,-2.15625,0.34375
1696247902297,0.026123047,-0.9783325,0.038513184,-1.0,-2.5,0.078125
1696247902337,0.022705078,-1.005188,0.05731201,1.125,0.359375,0.53125
1696247902378,-0.0107421875,-1.0237427,0.06854248,3.046875,0.203125,2.515625
1696247902417,0.05078125,-0.95635986,0.058044434,-0.46875,-0.78125,-0.46875
1696247902457,0.053955078,-1.0015259,0.015808105,2.1875,-4.328125,1.375
1696247902499,-0.03100586,-0.99468994,0.012634277,0.625,-2.53125,1.5625
1696247902538,0.029785156,-0.97979736,0.058776855,-1.6875,1.6875,-1.03125
1696247902578,0.040283203,-0.9780884,0.051940918,-0.609375,-0.296875,1.59375
1696247902618,0.036865234,-0.97784424,0.039245605,0.59375,-1.5625,0.3125
1696247902657,7.324219E-4,-0.9927368,0.03387451,1.140625,-2.453125,0.375
1696247902699,0.034423828,-0.9907837,0.038757324,-0.015625,-1.5625,0.375
1696247902738,0.008056641,-1.0049438,0.023864746,1.03125,0.59375,1.578125
1696247902777,0.03149414,-1.0005493,0.046325684,0.640625,1.453125,1.1875
1696247902819,0.044189453,-0.9751587,0.06341553,-0.390625,-1.34375,0.53125
1696247902856,0.03930664,-1.0159302,0.016296387,0.25,-2.203125,0.390625
1696247902897,0.030517578,-0.98101807,0.061950684,1.03125,-2.40625,1.09375
1696247902939,0.011962891,-1.0100708,0.024353027,-1.15625,3.234375,0.296875
1696247902976,0.037597656,-0.97442627,0.0446167,-1.125,0.96875,1.484375
1696247903017,0.024414062,-0.9661255,0.043395996,-0.796875,0.78125,-0.796875
1696247903057,0.09423828,-1.0022583,0.04071045,-0.1875,-3.0625,0.53125
1696247903098,-0.018798828,-0.95977783,0.018981934,0.234375,-2.171875,0.328125
1696247903138,0.059570312,-1.0039673,0.007019043,-2.671875,3.78125,1.34375
1696247903179,0.06518555,-0.97906494,0.06732178,-3.09375,-1.796875,-0.84375
1696247903217,0.0034179688,-1.0059204,0.04949951,0.125,-4.234375,-0.21875
1696247903258,0.053222656,-0.97003174,0.05657959,-0.75,-4.984375,-1.84375
1696247903298,7.324219E-4,-0.9829712,0.06536865,1.578125,-7.0,-1.421875
1696247903359,0.0024414062,-1.0120239,0.034606934,-0.625,-2.0,0.5625
1696247903376,0.056396484,-0.9932251,0.03729248,-0.21875,-0.609375,-0.671875
1696247903396,0.022949219,-1.0027466,0.038757324,0.046875,1.640625,1.765625
1696247903437,0.028564453,-0.9859009,0.07293701,1.6875,-0.078125,0.46875
1696247903477,0.015380859,-1.0022583,0.039001465,-0.25,-0.953125,0.109375
1696247903518,0.03857422,-0.97320557,0.0368042,-0.5625,-1.734375,-0.03125
1696247903559,0.013916016,-0.9793091,0.0368042,-0.03125,-1.5,0.671875
1696247903619,0.024902344,-0.98443604,0.051452637,-0.640625,-1.09375,0.25
1696247903638,-0.0056152344,-0.9902954,0.04949951,0.765625,-0.671875,0.859375
1696247903701,0.048339844,-0.99786377,0.051940918,-0.5,-1.625,0.203125
1696247903717,0.022705078,-0.99224854,0.050964355,0.375,-1.546875,0.65625
1696247903759,-0.0056152344,-0.9976196,0.05218506,-1.265625,-0.34375,1.5
1696247903798,0.060546875,-1.0032349,0.066589355,0.078125,-1.71875,0.78125
1696247903836,0.010009766,-1.0056763,0.058776855,1.84375,-3.421875,0.5
1696247903876,0.036865234,-1.0027466,0.032165527,-1.125,-1.109375,-0.046875
1696247903920,0.02734375,-0.99786377,0.03656006,4.265625,-3.65625,-2.390625
1696247903957,-0.044433594,-0.97906494,0.026306152,4.125,-4.84375,-3.5625
1696247903997,0.10473633,-0.89678955,0.0018920898,-0.03125,5.765625,0.515625
1696247904038,0.10107422,-1.0039673,0.02532959,6.09375,-2.28125,1.59375
1696247904078,-0.024169922,-1.0266724,-0.0012817383,0.53125,1.21875,1.59375
1696247904119,0.057617188,-1.0042114,0.031433105,-1.578125,3.0,2.609375
1696247904157,0.0063476562,-0.9692993,0.04876709,0.109375,0.125,0.328125
1696247904196,0.0024414062,-1.003479,0.00970459,-0.34375,0.0625,2.140625
1696247904236,0.030273438,-0.9614868,0.0119018555,-1.828125,-0.453125,0.03125
1696247904277,0.057617188,-0.9951782,0.06048584,-1.515625,1.265625,1.1875
1696247904320,0.013183594,-0.9807739,-0.0051879883,0.71875,-1.84375,0.234375
1696247904357,0.06323242,-0.9949341,0.02947998,-1.515625,2.765625,0.15625
1696247904397,0.0053710938,-0.9522095,0.027526855,-1.96875,4.28125,2.53125
1696247904435,0.071777344,-0.989563,0.04119873,-1.640625,3.796875,1.359375
1696247904479,0.041992188,-1.0269165,0.0914917,1.71875,-2.59375,0.8125
1696247904519,-0.028808594,-0.9780884,0.019226074,-0.859375,-4.265625,0.859375
1696247904558,0.057617188,-0.93829346,0.023376465,-0.5625,-4.171875,-0.703125
1696247904619,0.018798828,-0.96539307,0.02166748,0.421875,-8.03125,-0.65625
1696247904635,0.045654297,-1.0083618,0.031433105,-0.28125,-3.515625,-0.15625
1696247904699,0.032958984,-1.008606,0.034606934,0.28125,-0.84375,1.40625
1696247904702,0.041992188,-0.9898071,0.054870605,-0.25,0.046875,0.625
1696247904738,0.042236328,-0.9859009,0.038024902,-0.46875,-2.484375,-0.671875
1696247904777,0.02319336,-0.98565674,0.04119873,0.484375,-0.15625,0.65625
1696247904818,0.024414062,-0.98272705,0.039489746,0.453125,0.6875,1.1875
1696247904857,0.047607422,-0.9854126,0.042419434,-0.46875,2.53125,1.25
1696247904897,0.0390625,-0.9783325,0.06561279,1.6875,-0.59375,1.046875
1696247904937,0.036376953,-0.99053955,0.021911621,-0.828125,-0.78125,-0.28125
1696247904978,0.028320312,-1.0117798,0.058044434,-0.75,-0.09375,0.859375
1696247905018,0.008056641,-1.0234985,0.06121826,-1.375,2.875,2.265625
1696247905059,0.035888672,-0.956604,0.009216309,-1.8125,6.796875,-0.546875
1696247905100,0.076171875,-0.92681885,-0.04473877,2.109375,6.09375,-1.453125
1696247905137,0.06567383,-0.987854,0.06439209,5.875,2.640625,0.703125
1696247905179,0.02758789,-1.0269165,0.030700684,2.90625,1.21875,-1.453125
1696247905217,0.08984375,-0.9793091,0.03387451,1.328125,0.453125,-0.984375
1696247905257,0.012207031,-0.99420166,0.030212402,2.0,-2.0,-0.34375
1696247905297,0.061767578,-1.0007935,0.046325684,-1.0,-0.953125,-0.765625
1696247905338,0.048095703,-0.9680786,0.047790527,2.578125,0.6875,1.46875
1696247905378,0.0031738281,-1.0247192,-0.046447754,4.734375,5.203125,3.703125
1696247905417,0.040283203,-0.9649048,0.011657715,2.703125,1.9375,0.546875
1696247905457,0.0031738281,-0.96588135,0.013366699,2.0,-2.046875,-0.359375
1696247905497,0.025878906,-1.024231,0.007507324,0.890625,-2.796875,-1.703125
1696247905539,0.029052734,-0.9939575,0.018737793,-3.046875,-2.15625,-3.046875
1696247905577,0.03540039,-0.95513916,0.012390137,-4.84375,-4.9375,-2.34375
1696247905619,0.011474609,-0.9854126,0.024108887,-3.96875,-5.59375,0.078125
1696247905658,0.045898438,-0.9963989,0.018249512,-3.8125,-4.6875,1.3125
1696247905696,0.02368164,-0.9859009,0.03729248,-4.234375,-5.265625,0.546875
