,timestamp,accel_x,accel_y,accel_z,gyro_x,gyro_y,gyro_z,ind
0,1696244951054,-0.7102051,-0.2420044,-0.65582275,0.109375,-1.046875,0.0625,0
1,1696244951094,-0.7133789,-0.23223877,-0.6482544,-0.015625,-1.25,0.140625,1
2,1696244951134,-0.70825195,-0.24249268,-0.6524048,-0.328125,-1.953125,0.15625,2
3,1696244951174,-0.70043945,-0.24127197,-0.6416626,-0.40625,-0.859375,0.140625,3
4,1696244951214,-0.7158203,-0.24517822,-0.65875244,-0.515625,-1.671875,-0.28125,4
5,1696244951254,-0.7026367,-0.23468018,-0.64849854,-0.71875,-1.734375,0.234375,5
6,1696244951294,-0.7006836,-0.24468994,-0.6477661,-0.90625,-0.46875,0.1875,6
7,1696244951334,-0.7211914,-0.24298096,-0.6602173,-1.203125,-0.4375,-0.15625,7
8,1696244951374,-0.6982422,-0.24224854,-0.6375122,0.0625,-1.84375,0.46875,8
9,1696244951414,-0.70996094,-0.23980713,-0.65802,-0.71875,-0.78125,0.125,9
10,1696244951454,-0.7102051,-0.2341919,-0.647522,-0.421875,-0.734375,0.5625,10
11,1696244951494,-0.7128906,-0.24786377,-0.6548462,0.375,-0.609375,-0.046875,11
12,1696244951534,-0.70410156,-0.24761963,-0.6585083,-0.125,-0.84375,0.265625,12
13,1696244951574,-0.70166016,-0.24005127,-0.647522,-0.296875,-1.171875,0.109375,13
14,1696244951614,-0.7072754,-0.2444458,-0.6604614,-0.296875,-0.703125,0.28125,14
15,1696244951654,-0.7050781,-0.24395752,-0.65289307,0.546875,-1.515625,0.375,15
16,1696244951694,-0.6948242,-0.24078369,-0.6399536,0.59375,-0.96875,0.4375,16
17,1696244951734,-0.7026367,-0.24029541,-0.6670532,0.265625,-1.1875,0.484375,17
18,1696244951774,-0.6960449,-0.24029541,-0.6482544,0.484375,-0.1875,0.3125,18
19,1696244951814,-0.6960449,-0.24029541,-0.6589966,0.640625,-0.421875,0.1875,19
20,1696244951854,-0.70825195,-0.24224854,-0.6663208,0.0625,-0.09375,0.296875,20
21,1696244951894,-0.7026367,-0.24005127,-0.6560669,0.015625,-0.046875,0.28125,21
22,1696244951934,-0.7026367,-0.23931885,-0.6638794,-0.109375,0.421875,0.21875,22
23,1696244951974,-0.6977539,-0.24395752,-0.6511841,0.5625,-0.0625,0.140625,23
24,1696244952014,-0.69506836,-0.25030518,-0.6585083,0.046875,-0.140625,0.109375,24
25,1696244952054,-0.7055664,-0.23883057,-0.65802,0.0,0.125,0.15625,25
26,1696244952094,-0.70166016,-0.24078369,-0.64923096,0.34375,-0.171875,0.265625,26
27,1696244952134,-0.70410156,-0.2468872,-0.6687622,-0.203125,-0.21875,0.40625,27
28,1696244952174,-0.70166016,-0.23614502,-0.6448364,0.703125,-0.65625,0.203125,28
29,1696244952214,-0.7077637,-0.24493408,-0.6589966,-0.296875,-0.265625,0.1875,29
30,1696244952254,-0.70703125,-0.23980713,-0.64556885,0.359375,-0.65625,0.140625,30
31,1696244952294,-0.7019043,-0.23394775,-0.66656494,0.453125,-1.4375,0.328125,31
32,1696244952334,-0.70214844,-0.24102783,-0.6589966,-0.09375,-0.671875,0.3125,32
33,1696244952374,-0.7026367,-0.23883057,-0.6531372,0.15625,-0.859375,0.234375,33
34,1696244952414,-0.70581055,-0.24127197,-0.6589966,-0.203125,-0.6875,0.359375,34
35,1696244952454,-0.70043945,-0.24029541,-0.65289307,0.171875,-0.796875,0.328125,35
36,1696244952494,-0.6972656,-0.24053955,-0.6646118,-0.328125,-0.546875,0.3125,36
37,1696244952534,-0.7036133,-0.2444458,-0.65338135,-0.109375,0.1875,0.203125,37
38,1696244952574,-0.70654297,-0.2432251,-0.6592407,0.28125,-0.625,0.265625,38
39,1696244952614,-0.6977539,-0.23931885,-0.65093994,-0.125,-0.390625,0.359375,39
40,1696244952654,-0.69873047,-0.24249268,-0.66192627,-0.015625,-0.359375,0.265625,40
41,1696244952694,-0.7023926,-0.237854,-0.6585083,-0.0625,-0.28125,0.34375,41
42,1696244952734,-0.70751953,-0.24591064,-0.65631104,-0.15625,-0.1875,0.171875,42
43,1696244952774,-0.7062988,-0.24151611,-0.6506958,-0.046875,-0.484375,0.28125,43
44,1696244952814,-0.70336914,-0.24151611,-0.65948486,-0.046875,-0.703125,0.125,44
45,1696244952854,-0.7043457,-0.2432251,-0.65948486,0.203125,-0.671875,0.21875,45
46,1696244952894,-0.70214844,-0.23980713,-0.65948486,-0.078125,-0.59375,0.21875,46
47,1696244952934,-0.70166016,-0.2390747,-0.6560669,-0.09375,-0.375,0.421875,47
48,1696244952974,-0.7050781,-0.2366333,-0.65802,-0.625,0.09375,0.171875,48
49,1696244953014,-0.6958008,-0.2444458,-0.6487427,-0.21875,-0.328125,0.234375,49
50,1696244953054,-0.7077637,-0.23614502,-0.66534424,-0.28125,-0.546875,0.296875,50
51,1696244953094,-0.7019043,-0.23516846,-0.65167236,-0.0625,-0.40625,0.1875,51
52,1696244953134,-0.70947266,-0.24346924,-0.6602173,-0.03125,-0.484375,0.15625,52
53,1696244953174,-0.7084961,-0.24224854,-0.6626587,-0.140625,-0.453125,0.203125,53
54,1696244953214,-0.6977539,-0.23736572,-0.645813,0.34375,-0.46875,0.171875,54
55,1696244953254,-0.69799805,-0.23809814,-0.65289307,-0.3125,-0.453125,0.390625,55
56,1696244953294,-0.69970703,-0.24737549,-0.644104,0.125,-0.125,0.328125,56
57,1696244953334,-0.7011719,-0.24810791,-0.65997314,0.28125,-0.578125,0.265625,57
58,1696244953374,-0.701416,-0.24151611,-0.6526489,0.0625,-0.4375,0.203125,58
59,1696244953414,-0.70825195,-0.23931885,-0.65875244,-0.03125,-0.21875,0.078125,59
60,1696244953454,-0.70654297,-0.24102783,-0.6643677,-0.28125,-0.0625,0.25,60
61,1696244953494,-0.70825195,-0.24176025,-0.65631104,-0.03125,-0.53125,0.21875,61
62,1696244953534,-0.704834,-0.23956299,-0.6609497,-0.125,-0.296875,0.15625,62
63,1696244953574,-0.7050781,-0.24249268,-0.6548462,-0.046875,-0.203125,0.109375,63
64,1696244953614,-0.69921875,-0.2420044,-0.6477661,0.125,-0.09375,0.28125,64
65,1696244953654,-0.7043457,-0.2432251,-0.66973877,-0.234375,-0.5,0.0625,65
66,1696244953694,-0.6972656,-0.23931885,-0.6499634,0.015625,-0.21875,0.046875,66
67,1696244953734,-0.7060547,-0.23956299,-0.6668091,-0.578125,0.171875,0.125,67
68,1696244953774,-0.7023926,-0.24371338,-0.644104,0.09375,0.171875,0.15625,68
69,1696244953814,-0.7011719,-0.24053955,-0.6565552,0.078125,-0.1875,0.078125,69
70,1696244953854,-0.7104492,-0.23858643,-0.6555786,-0.203125,-0.234375,0.234375,70
71,1696244953894,-0.7150879,-0.23834229,-0.6589966,-0.0625,-0.328125,0.3125,71
72,1696244953934,-0.7055664,-0.237854,-0.6567993,-0.265625,-0.15625,0.25,72
73,1696244953974,-0.7072754,-0.23712158,-0.6465454,0.1875,-0.390625,0.234375,73
74,1696244954014,-0.69921875,-0.24420166,-0.65045166,-0.1875,-0.15625,0.171875,74
75,1696244954054,-0.7023926,-0.24176025,-0.6433716,0.125,-0.453125,0.21875,75
76,1696244954094,-0.70214844,-0.24005127,-0.65093994,0.203125,-0.546875,0.078125,76
77,1696244954134,-0.70947266,-0.23590088,-0.6482544,0.0,-0.40625,0.25,77
78,1696244954174,-0.70947266,-0.2390747,-0.65826416,-0.125,-0.3125,0.09375,78
79,1696244954214,-0.7084961,-0.24371338,-0.6555786,-0.046875,-0.265625,0.0625,79
80,1696244954254,-0.703125,-0.2366333,-0.64727783,-0.0625,-0.21875,0.1875,80
81,1696244954294,-0.70581055,-0.24371338,-0.6531372,-0.0625,-0.15625,0.21875,81
82,1696244954334,-0.71240234,-0.23956299,-0.6555786,-0.21875,0.0,0.3125,82
83,1696244954374,-0.6994629,-0.23736572,-0.6489868,-0.171875,0.09375,0.265625,83
84,1696244954414,-0.7116699,-0.24786377,-0.6524048,-0.1875,-0.375,0.25,84
85,1696244954454,-0.704834,-0.2468872,-0.647522,-0.34375,0.078125,0.328125,85
86,1696244954494,-0.7126465,-0.24615479,-0.65289307,-0.390625,-0.15625,0.25,86
87,1696244954534,-0.7067871,-0.24859619,-0.64971924,-0.734375,0.578125,0.109375,87
88,1696244954574,-0.70532227,-0.24127197,-0.6421509,0.15625,-0.21875,0.1875,88
89,1696244954614,-0.71118164,-0.24053955,-0.64801025,-0.046875,-0.796875,0.078125,89
90,1696244954654,-0.70825195,-0.24371338,-0.6526489,-0.296875,-0.59375,0.046875,90
91,1696244954694,-0.7141113,-0.24176025,-0.6499634,-0.171875,-0.46875,0.3125,91
92,1696244954734,-0.70947266,-0.23834229,-0.6499634,-0.03125,-0.46875,0.171875,92
93,1696244954774,-0.7128906,-0.25201416,-0.65997314,-0.453125,-0.734375,0.296875,93
94,1696244954814,-0.7026367,-0.2432251,-0.64508057,-0.375,0.1875,0.171875,94
95,1696244954854,-0.71484375,-0.23809814,-0.645813,0.125,-0.578125,-0.03125,95
96,1696244954894,-0.71118164,-0.24468994,-0.6553345,-0.046875,-1.4375,0.1875,96
97,1696244954934,-0.70654297,-0.2354126,-0.6514282,-0.0625,-1.09375,-0.078125,97
98,1696244954974,-0.71191406,-0.24249268,-0.6536255,-0.09375,-1.625,-0.03125,98
99,1696244955014,-0.7050781,-0.2390747,-0.6548462,-0.296875,-2.125,0.171875,99
100,1696244955054,-0.704834,-0.24371338,-0.6555786,-0.453125,-1.984375,0.09375,100
101,1696244955094,-0.70166016,-0.24713135,-0.6567993,-0.375,-1.390625,0.203125,101
102,1696244955134,-0.6970215,-0.24957275,-0.6643677,-0.734375,-0.796875,0.203125,102
103,1696244955174,-0.7026367,-0.24639893,-0.6506958,-0.21875,-0.625,0.265625,103
104,1696244955214,-0.70336914,-0.24542236,-0.66241455,0.515625,-1.203125,0.203125,104
105,1696244955254,-0.70166016,-0.24786377,-0.6592407,0.0625,-0.078125,0.15625,105
106,1696244955294,-0.70288086,-0.24468994,-0.659729,-0.125,-0.125,0.140625,106
107,1696244955334,-0.71606445,-0.24737549,-0.65411377,0.125,-0.046875,0.328125,107
108,1696244955374,-0.69873047,-0.24468994,-0.6565552,0.375,-0.546875,0.3125,108
109,1696244955414,-0.69921875,-0.24151611,-0.6543579,0.171875,-0.34375,0.109375,109
110,1696244955454,-0.69970703,-0.24151611,-0.6567993,0.21875,-0.5,0.234375,110
111,1696244955494,-0.70703125,-0.24053955,-0.6555786,-0.203125,-0.015625,0.21875,111
112,1696244955534,-0.7036133,-0.23931885,-0.6460571,0.4375,-0.3125,0.34375,112
113,1696244955574,-0.70288086,-0.2432251,-0.65289307,-0.25,-0.015625,0.171875,113
114,1696244955614,-0.70288086,-0.24371338,-0.6524048,0.0625,-0.1875,0.09375,114
115,1696244955654,-0.70532227,-0.24029541,-0.65997314,0.34375,-0.609375,0.15625,115
116,1696244955694,-0.70336914,-0.23956299,-0.65704346,-0.03125,-0.359375,0.296875,116
117,1696244955734,-0.7089844,-0.23980713,-0.6511841,-0.03125,-0.296875,0.203125,117
118,1696244955774,-0.70336914,-0.24395752,-0.65509033,-0.015625,-0.25,0.171875,118
119,1696244955814,-0.70458984,-0.24737549,-0.6572876,0.0,-0.3125,0.078125,119
120,1696244955854,-0.6994629,-0.2420044,-0.6538696,0.0625,-0.40625,0.28125,120
121,1696244955894,-0.70703125,-0.23883057,-0.6538696,0.109375,-0.203125,0.40625,121
122,1696244955934,-0.70996094,-0.24273682,-0.6511841,0.21875,-0.5625,0.125,122
123,1696244955974,-0.7019043,-0.24664307,-0.6555786,-0.203125,0.015625,0.03125,123
124,1696244956014,-0.70581055,-0.24151611,-0.6663208,-0.328125,-0.546875,0.171875,124
125,1696244956054,-0.6953125,-0.24420166,-0.63848877,-0.03125,0.625,0.203125,125
126,1696244956094,-0.70214844,-0.24493408,-0.6506958,0.203125,-0.328125,0.25,126
127,1696244956134,-0.70654297,-0.24224854,-0.6524048,0.0625,-0.234375,0.15625,127
128,1696244956174,-0.70825195,-0.23834229,-0.6519165,-0.140625,-0.03125,0.21875,128
129,1696244956214,-0.7067871,-0.24835205,-0.6567993,-0.296875,0.171875,0.390625,129
130,1696244956254,-0.70947266,-0.24249268,-0.64971924,0.046875,-0.234375,0.328125,130
131,1696244956294,-0.7104492,-0.24395752,-0.661438,-0.171875,-0.578125,0.21875,131
132,1696244956334,-0.7055664,-0.24102783,-0.647522,-0.09375,-0.125,0.25,132
133,1696244956374,-0.70703125,-0.24371338,-0.6448364,0.171875,-0.59375,0.359375,133
134,1696244956414,-0.70996094,-0.24102783,-0.65411377,0.171875,-0.421875,0.109375,134
135,1696244956454,-0.7092285,-0.24468994,-0.6567993,-0.015625,-0.5,0.421875,135
136,1696244956494,-0.7067871,-0.23297119,-0.6543579,0.015625,-0.171875,0.34375,136
137,1696244956534,-0.7038574,-0.24078369,-0.6428833,0.125,-0.546875,0.234375,137
138,1696244956574,-0.7060547,-0.24395752,-0.6487427,-0.125,-0.453125,-0.015625,138
139,1696244956614,-0.7084961,-0.24761963,-0.6553345,-0.15625,-0.21875,0.21875,139
140,1696244956654,-0.7097168,-0.24273682,-0.6460571,0.15625,-0.28125,0.140625,140
141,1696244956694,-0.704834,-0.23883057,-0.65216064,0.09375,-0.546875,0.1875,141
142,1696244956734,-0.69799805,-0.2354126,-0.63531494,0.546875,-0.046875,0.125,142
143,1696244956774,-0.71069336,-0.24737549,-0.67071533,-0.5,-0.4375,0.265625,143
144,1696244956814,-0.704834,-0.2354126,-0.63897705,0.0625,0.65625,0.1875,144
145,1696244956854,-0.71069336,-0.23760986,-0.6553345,0.234375,-0.65625,0.21875,145
146,1696244956894,-0.7026367,-0.23883057,-0.647522,0.03125,-0.296875,0.109375,146
147,1696244956934,-0.70751953,-0.24395752,-0.65093994,0.109375,-0.296875,0.125,147
148,1696244956974,-0.7241211,-0.24053955,-0.64849854,-0.28125,-0.390625,0.171875,148
149,1696244957014,-0.7055664,-0.23614502,-0.64263916,-0.140625,-0.453125,0.234375,149
150,1696244957054,-0.7145996,-0.24078369,-0.6524048,-0.125,-0.28125,0.359375,150
151,1696244957094,-0.7128906,-0.2366333,-0.6448364,0.0,-0.484375,0.140625,151
152,1696244957134,-0.7126465,-0.24298096,-0.64971924,0.265625,-0.53125,0.03125,152
153,1696244957174,-0.71313477,-0.23590088,-0.6531372,-0.109375,-0.546875,0.1875,153
154,1696244957214,-0.71533203,-0.24249268,-0.6524048,-0.171875,-0.328125,0.171875,154
155,1696244957254,-0.7084961,-0.24371338,-0.65460205,-0.0625,-0.375,0.203125,155
156,1696244957294,-0.70654297,-0.2456665,-0.6470337,-0.078125,-0.28125,0.203125,156
157,1696244957334,-0.7050781,-0.24224854,-0.6470337,0.03125,-0.25,0.171875,157
158,1696244957374,-0.70825195,-0.24468994,-0.65289307,-0.078125,-0.171875,0.328125,158
159,1696244957414,-0.71313477,-0.24737549,-0.6433716,0.171875,-0.234375,0.375,159
160,1696244957454,-0.7084961,-0.24053955,-0.6543579,-0.140625,-0.5625,0.21875,160
161,1696244957494,-0.70654297,-0.23956299,-0.647522,-0.3125,-0.078125,0.046875,161
162,1696244957534,-0.7150879,-0.24249268,-0.6506958,-0.78125,-0.09375,0.109375,162
163,1696244957574,-0.71069336,-0.24346924,-0.644104,-0.109375,-1.0625,0.078125,163
164,1696244957614,-0.71435547,-0.24102783,-0.65411377,-0.296875,-1.59375,-0.125,164
165,1696244957654,-0.7080078,-0.24127197,-0.6506958,-0.203125,-1.546875,0.203125,165
166,1696244957694,-0.70703125,-0.24371338,-0.6531372,-0.328125,-1.1875,0.28125,166
167,1696244957734,-0.7104492,-0.24468994,-0.65289307,-0.4375,-0.875,0.203125,167
168,1696244957774,-0.70214844,-0.24810791,-0.65045166,0.359375,-1.28125,0.40625,168
169,1696244957814,-0.70092773,-0.24127197,-0.644104,0.328125,-0.640625,0.21875,169
170,1696244957854,-0.7043457,-0.23858643,-0.6477661,0.125,-0.515625,0.234375,170
171,1696244957894,-0.70581055,-0.24639893,-0.6499634,0.28125,-0.625,0.1875,171
172,1696244957934,-0.7097168,-0.24005127,-0.6543579,0.140625,-0.078125,0.234375,172
173,1696244957974,-0.71191406,-0.24005127,-0.6560669,0.203125,-0.453125,0.265625,173
174,1696244958014,-0.70825195,-0.24127197,-0.661438,0.171875,-0.15625,0.234375,174
175,1696244958054,-0.7084961,-0.23883057,-0.6565552,0.25,-0.375,0.34375,175
176,1696244958094,-0.7077637,-0.24664307,-0.6567993,-0.03125,-0.125,0.296875,176
177,1696244958134,-0.70581055,-0.237854,-0.6453247,0.171875,-0.453125,0.25,177
178,1696244958174,-0.70288086,-0.24005127,-0.64801025,0.21875,-0.359375,0.28125,178
179,1696244958214,-0.7019043,-0.23956299,-0.65045166,-0.140625,-0.015625,0.203125,179
180,1696244958254,-0.7145996,-0.23834229,-0.659729,-0.46875,-0.53125,0.328125,180
181,1696244958294,-0.71313477,-0.24249268,-0.64385986,-0.40625,0.3125,-0.03125,181
182,1696244958334,-0.7102051,-0.24737549,-0.64678955,0.28125,-0.546875,0.203125,182
183,1696244958374,-0.70947266,-0.24298096,-0.65216064,0.03125,-0.078125,0.125,183
184,1696244958414,-0.70410156,-0.23590088,-0.64727783,0.265625,-0.5625,0.15625,184
185,1696244958454,-0.7089844,-0.24078369,-0.65338135,-0.1875,-0.5,0.21875,185
186,1696244958494,-0.70703125,-0.24176025,-0.6453247,0.421875,0.09375,0.3125,186
187,1696244958534,-0.70581055,-0.24298096,-0.6502075,0.65625,0.15625,0.46875,187
188,1696244958574,-0.7060547,-0.2432251,-0.64971924,0.359375,0.578125,0.453125,188
189,1696244958614,-0.7038574,-0.24615479,-0.64849854,0.421875,0.0625,0.34375,189
190,1696244958654,-0.71069336,-0.23443604,-0.64678955,0.453125,-0.25,0.125,190
191,1696244958694,-0.71728516,-0.23809814,-0.6489868,0.421875,-0.1875,0.296875,191
192,1696244958734,-0.7097168,-0.23687744,-0.6536255,0.359375,0.0625,0.171875,192
193,1696244958774,-0.70825195,-0.23760986,-0.65045166,0.109375,0.03125,0.21875,193
194,1696244958814,-0.7084961,-0.23614502,-0.65289307,-0.125,-0.25,0.109375,194
195,1696244958854,-0.70336914,-0.23687744,-0.64556885,0.15625,-0.28125,0.359375,195
196,1696244958894,-0.71191406,-0.24029541,-0.65216064,0.03125,-0.046875,0.21875,196
197,1696244958934,-0.7067871,-0.23931885,-0.644104,0.328125,0.359375,0.171875,197
198,1696244958974,-0.71728516,-0.2366333,-0.6397095,0.625,-0.078125,0.3125,198
199,1696244959014,-0.7114258,-0.2354126,-0.6292114,0.328125,0.28125,0.140625,199
200,1696244959054,-0.72509766,-0.24273682,-0.6646118,-0.390625,-0.5,0.453125,200
201,1696244959094,-0.7097168,-0.23468018,-0.64068604,-0.203125,0.28125,0.3125,201
202,1696244959134,-0.71313477,-0.24371338,-0.6555786,0.59375,-0.3125,0.3125,202
203,1696244959174,-0.7126465,-0.22979736,-0.645813,1.765625,1.125,0.5,203
204,1696244959214,-0.7163086,-0.23370361,-0.644104,0.984375,0.078125,0.359375,204
205,1696244959254,-0.7150879,-0.23370361,-0.64263916,0.828125,0.359375,0.53125,205
206,1696244959294,-0.72021484,-0.22979736,-0.6380005,1.46875,0.484375,0.421875,206
207,1696244959334,-0.7175293,-0.23638916,-0.65216064,0.609375,0.296875,0.46875,207
208,1696244959374,-0.7216797,-0.237854,-0.6380005,0.875,0.59375,0.484375,208
209,1696244959414,-0.7236328,-0.23565674,-0.64385986,0.765625,0.21875,0.328125,209
210,1696244959454,-0.7207031,-0.22662354,-0.6411743,0.765625,-0.125,0.515625,210
211,1696244959494,-0.71777344,-0.23590088,-0.64312744,0.3125,0.0,0.375,211
212,1696244959534,-0.7241211,-0.23345947,-0.65216064,0.578125,0.078125,0.453125,212
213,1696244959574,-0.72509766,-0.2366333,-0.6416626,0.765625,0.671875,0.625,213
214,1696244959614,-0.71850586,-0.22979736,-0.6416626,1.234375,0.265625,0.53125,214
215,1696244959654,-0.7241211,-0.23101807,-0.65045166,0.9375,-0.078125,0.546875,215
216,1696244959694,-0.7192383,-0.22711182,-0.6411743,0.625,0.046875,0.484375,216
217,1696244959734,-0.7270508,-0.22589111,-0.64263916,0.546875,-0.15625,0.21875,217
218,1696244959774,-0.7253418,-0.22418213,-0.63946533,0.953125,0.015625,0.515625,218
219,1696244959814,-0.72631836,-0.22979736,-0.6399536,0.734375,-0.28125,0.421875,219
220,1696244959854,-0.71972656,-0.22442627,-0.6489868,0.21875,-0.453125,0.40625,220
221,1696244959894,-0.72021484,-0.22955322,-0.64630127,0.25,-0.484375,0.203125,221
222,1696244959934,-0.7229004,-0.22686768,-0.65093994,-0.40625,0.3125,0.53125,222
223,1696244959974,-0.7175293,-0.22393799,-0.63165283,0.515625,-0.03125,0.515625,223
224,1696244960014,-0.7199707,-0.23101807,-0.645813,0.5625,-0.609375,0.28125,224
225,1696244960054,-0.6923828,-0.2456665,-0.65997314,-0.140625,-0.734375,0.28125,251
226,1696244960094,-0.69262695,-0.24371338,-0.6655884,0.03125,-0.546875,0.4375,252
227,1696244960134,-0.6870117,-0.2498169,-0.66485596,0.234375,-0.84375,0.421875,253
228,1696244960174,-0.689209,-0.25030518,-0.6682739,0.109375,-0.515625,0.125,254
229,1696244960214,-0.6899414,-0.24810791,-0.66778564,-0.171875,-0.625,0.140625,255
230,1696244960254,-0.69311523,-0.24615479,-0.673645,-0.21875,-0.453125,0.171875,256
231,1696244960294,-0.6945801,-0.24957275,-0.66900635,0.0,-0.765625,0.1875,257
232,1696244960334,-0.6838379,-0.24127197,-0.663147,-0.15625,-0.21875,0.125,258
233,1696244960374,-0.69677734,-0.24615479,-0.67266846,-0.234375,-0.375,0.328125,259
234,1696244960414,-0.6948242,-0.253479,-0.66778564,0.078125,-0.171875,0.15625,260
235,1696244960454,-0.6801758,-0.24615479,-0.6638794,0.0625,-0.46875,0.3125,261
236,1696244960494,-0.6984863,-0.24395752,-0.6760864,-0.125,-0.015625,0.234375,262
237,1696244960534,-0.6965332,-0.24810791,-0.67144775,-0.265625,0.625,0.015625,263
238,1696244960574,-0.6879883,-0.23883057,-0.65875244,0.0625,-0.28125,0.1875,264
239,1696244960614,-0.69311523,-0.24542236,-0.6692505,0.203125,-0.3125,0.3125,265
240,1696244960654,-0.6850586,-0.24761963,-0.6543579,0.15625,0.109375,0.25,266
241,1696244960694,-0.6894531,-0.24493408,-0.659729,-0.015625,-0.296875,0.203125,267
242,1696244960734,-0.6921387,-0.23980713,-0.6592407,-0.046875,-0.109375,0.375,268
243,1696244960774,-0.68896484,-0.24420166,-0.6506958,0.390625,-0.296875,0.234375,269
244,1696244960814,-0.68896484,-0.24346924,-0.66241455,0.046875,-0.375,0.203125,270
245,1696244960854,-0.6855469,-0.24176025,-0.65338135,0.234375,-0.1875,0.3125,271
246,1696244960894,-0.6904297,-0.24005127,-0.6675415,0.265625,-0.765625,0.125,272
247,1696244960934,-0.69311523,-0.2432251,-0.66412354,0.21875,-0.453125,0.25,273
248,1696244960974,-0.6994629,-0.24810791,-0.6694946,0.0625,-0.5,0.203125,274
249,1696244961014,-0.6916504,-0.24029541,-0.6724243,-0.09375,-0.359375,0.21875,275
250,1696244961054,-0.70043945,-0.24224854,-0.66412354,-0.015625,-0.359375,0.1875,276
251,1696244961094,-0.69262695,-0.24884033,-0.66729736,0.109375,-0.390625,0.28125,277
252,1696244961134,-0.6977539,-0.24664307,-0.66119385,-0.03125,0.015625,0.15625,278
253,1696244961174,-0.7001953,-0.24517822,-0.6567993,0.359375,-0.09375,0.359375,279
254,1696244961214,-0.6923828,-0.24127197,-0.6524048,0.28125,0.03125,0.15625,280
255,1696244961254,-0.69506836,-0.24420166,-0.6712036,-0.25,-0.15625,0.25,281
256,1696244961294,-0.69433594,-0.24371338,-0.6531372,0.015625,0.34375,0.078125,282
257,1696244961334,-0.6936035,-0.24737549,-0.66851807,0.046875,-0.421875,0.375,283
258,1696244961374,-0.6882324,-0.24273682,-0.6592407,0.015625,-0.1875,0.03125,284
259,1696244961414,-0.69970703,-0.24029541,-0.6638794,0.015625,-0.03125,0.328125,285
260,1696244961454,-0.7001953,-0.24298096,-0.6633911,-0.09375,-0.046875,0.203125,286
261,1696244961494,-0.6989746,-0.24859619,-0.6592407,-0.046875,-0.171875,0.265625,287
262,1696244961534,-0.7023926,-0.25201416,-0.66729736,-0.28125,-0.53125,0.328125,288
263,1696244961574,-0.6933594,-0.23883057,-0.6604614,0.03125,-0.03125,0.078125,289
264,1696244961614,-0.6977539,-0.24859619,-0.6538696,0.15625,-0.34375,0.0625,290
265,1696244961654,-0.6940918,-0.2420044,-0.663147,0.21875,-0.4375,0.03125,291
266,1696244961694,-0.69433594,-0.24224854,-0.6638794,-0.03125,-0.234375,0.171875,292
267,1696244961734,-0.69921875,-0.24639893,-0.6609497,-0.15625,-0.046875,0.25,293
268,1696244961774,-0.70654297,-0.24151611,-0.66241455,-0.078125,0.015625,0.0625,294
269,1696244961814,-0.6945801,-0.24298096,-0.661438,0.265625,-0.140625,0.015625,295
270,1696244961854,-0.6960449,-0.24713135,-0.6655884,0.0625,-0.390625,0.265625,296
271,1696244961894,-0.6982422,-0.24102783,-0.66070557,0.140625,0.1875,0.1875,297
272,1696244961934,-0.6989746,-0.24395752,-0.65704346,0.28125,-0.28125,0.171875,298
273,1696244961974,-0.69506836,-0.24493408,-0.6626587,-0.125,-0.203125,0.171875,299
274,1696244962014,-0.7019043,-0.24420166,-0.6585083,0.0625,0.046875,0.15625,300
275,1696244962054,-0.6977539,-0.24786377,-0.6633911,-0.578125,0.46875,0.34375,301
276,1696244962094,-0.7023926,-0.24542236,-0.6494751,0.328125,0.1875,0.265625,302
277,1696244962134,-0.70288086,-0.24420166,-0.65582275,0.21875,-0.21875,0.234375,303
278,1696244962174,-0.6984863,-0.24273682,-0.6536255,-0.09375,-0.0625,0.234375,304
279,1696244962214,-0.69873047,-0.24053955,-0.65826416,0.109375,-0.21875,0.15625,305
280,1696244962254,-0.71069336,-0.23883057,-0.6621704,0.609375,0.3125,0.1875,306
281,1696244962294,-0.6989746,-0.24102783,-0.65216064,2.34375,0.84375,0.40625,307
282,1696244962334,-0.7043457,-0.24102783,-0.6560669,0.90625,0.390625,0.3125,308
283,1696244962374,-0.7116699,-0.24029541,-0.6511841,1.21875,0.5625,0.3125,309
284,1696244962414,-0.7141113,-0.23175049,-0.6538696,0.984375,-0.1875,0.4375,310
285,1696244962454,-0.7121582,-0.23809814,-0.65289307,0.3125,-0.328125,0.125,311
286,1696244962494,-0.7072754,-0.23565674,-0.65045166,0.828125,-0.046875,0.015625,312
287,1696244962534,-0.703125,-0.237854,-0.6609497,0.625,0.296875,0.375,313
288,1696244962574,-0.7133789,-0.23175049,-0.6538696,0.40625,0.359375,0.46875,314
289,1696244962614,-0.71069336,-0.23150635,-0.6494751,0.53125,0.203125,0.15625,315
290,1696244962654,-0.7133789,-0.2390747,-0.6487427,0.40625,-0.078125,0.328125,316
291,1696244962694,-0.70703125,-0.237854,-0.65338135,0.671875,0.25,0.375,317
292,1696244962734,-0.71118164,-0.23150635,-0.65460205,0.234375,-0.234375,0.28125,318
293,1696244962774,-0.70874023,-0.23394775,-0.6514282,-0.046875,-0.015625,0.265625,319
294,1696244962814,-0.7019043,-0.23492432,-0.647522,0.46875,-0.078125,0.359375,320
295,1696244962854,-0.7060547,-0.2312622,-0.6609497,-0.140625,-0.140625,0.21875,321
296,1696244962894,-0.71240234,-0.23321533,-0.66363525,-0.4375,-0.34375,0.46875,322
297,1696244962934,-0.7072754,-0.22955322,-0.64849854,-0.203125,0.984375,0.1875,323
298,1696244962974,-0.7138672,-0.23492432,-0.64630127,0.625,-0.328125,0.359375,324
299,1696244963014,-0.7155762,-0.23443604,-0.6502075,-0.015625,-0.203125,0.015625,325
300,1696244963054,-0.70654297,-0.23468018,-0.6465454,-0.1875,-0.21875,0.3125,326
301,1696244963094,-0.7182617,-0.22857666,-0.6577759,-0.328125,-0.328125,0.171875,327
302,1696244963134,-0.70874023,-0.22711182,-0.64312744,-0.03125,-0.3125,0.265625,328
303,1696244963174,-0.71240234,-0.23760986,-0.65875244,0.015625,-0.671875,0.296875,329
304,1696244963214,-0.7097168,-0.23370361,-0.6499634,0.28125,0.03125,0.359375,330
305,1696244963254,-0.71362305,-0.23638916,-0.64508057,0.421875,0.03125,0.3125,331
306,1696244963294,-0.72021484,-0.22930908,-0.64727783,0.4375,-0.328125,0.140625,332
307,1696244963334,-0.70825195,-0.22833252,-0.64434814,0.25,0.0,0.296875,333
308,1696244963374,-0.7097168,-0.22686768,-0.6489868,-0.03125,-0.484375,0.21875,334
309,1696244963414,-0.72021484,-0.23077393,-0.6428833,-0.125,-0.078125,0.21875,335
310,1696244963454,-0.7163086,-0.23028564,-0.64923096,0.078125,-0.3125,0.4375,336
311,1696244963494,-0.7216797,-0.22784424,-0.6448364,-0.234375,-0.4375,0.203125,337
312,1696244963534,-0.71240234,-0.22857666,-0.64556885,-0.1875,-0.125,0.421875,338
313,1696244963574,-0.71484375,-0.22833252,-0.64141846,0.375,0.109375,0.328125,339
314,1696244963614,-0.7150879,-0.23150635,-0.6499634,0.28125,-0.328125,0.296875,340
315,1696244963654,-0.71362305,-0.2341919,-0.6436157,-0.125,-0.1875,0.234375,341
316,1696244963694,-0.7163086,-0.22808838,-0.64385986,0.078125,-0.28125,0.0625,342
317,1696244963734,-0.7158203,-0.23297119,-0.6577759,-0.109375,0.0625,0.109375,343
318,1696244963774,-0.7219238,-0.22930908,-0.65045166,0.015625,-0.421875,0.3125,344
319,1696244963814,-0.717041,-0.23052979,-0.63775635,0.21875,-0.25,0.3125,361
320,1696244963854,-0.7253418,-0.22149658,-0.63531494,0.5,0.125,0.203125,362
321,1696244963894,-0.7236328,-0.222229,-0.6470337,1.28125,0.859375,0.90625,363
322,1696244963934,-0.72143555,-0.22027588,-0.63848877,1.65625,1.03125,1.359375,364
323,1696244963974,-0.72094727,-0.22174072,-0.6296997,0.828125,0.625,0.8125,365
324,1696244964014,-0.7277832,-0.22393799,-0.6436157,0.046875,-0.265625,0.765625,366
325,1696244964054,-0.72558594,-0.22271729,-0.6226196,0.140625,0.109375,0.328125,367
326,1696244964094,-0.73095703,-0.22711182,-0.6399536,0.390625,-0.71875,0.25,368
327,1696244964134,-0.72387695,-0.22735596,-0.6343384,0.203125,-0.609375,0.1875,369
328,1696244964174,-0.7351074,-0.22808838,-0.63946533,0.09375,-0.6875,0.28125,370
329,1696244964214,-0.72802734,-0.22613525,-0.64556885,-0.171875,-0.796875,0.03125,371
330,1696244964254,-0.7192383,-0.22271729,-0.6380005,-0.015625,-0.109375,0.25,372
331,1696244964294,-0.7294922,-0.22198486,-0.6370239,0.015625,-0.421875,0.296875,373
332,1696244964334,-0.72436523,-0.22906494,-0.63604736,0.078125,-0.09375,0.234375,374
333,1696244964374,-0.7229004,-0.22540283,-0.6411743,0.1875,-0.515625,0.4375,375
334,1696244964414,-0.7253418,-0.22076416,-0.644104,0.0,-0.234375,0.171875,376
335,1696244964454,-0.7233887,-0.22149658,-0.6333618,0.03125,-0.3125,0.125,377
336,1696244964494,-0.7233887,-0.21929932,-0.6416626,0.046875,-0.375,0.078125,378
337,1696244964534,-0.732666,-0.22442627,-0.644104,0.125,-0.28125,0.25,379
338,1696244964574,-0.7219238,-0.22003174,-0.63482666,0.3125,-0.328125,0.4375,380
339,1696244964614,-0.7253418,-0.22296143,-0.64141846,0.0,-0.5,0.3125,381
340,1696244964654,-0.720459,-0.22247314,-0.62872314,-0.234375,-0.421875,0.265625,382
341,1696244964694,-0.7302246,-0.22149658,-0.6321411,0.03125,-0.703125,0.3125,383
342,1696244964734,-0.72875977,-0.21685791,-0.64263916,0.078125,-0.71875,0.203125,384
343,1696244964774,-0.73095703,-0.22174072,-0.6514282,-0.25,-1.09375,0.296875,385
344,1696244964814,-0.7248535,-0.22198486,-0.64801025,-0.09375,-0.734375,0.125,386
345,1696244964854,-0.7277832,-0.22393799,-0.64678955,-0.6875,-0.140625,0.359375,387
346,1696244964894,-0.72021484,-0.22686768,-0.62994385,-0.140625,-0.0625,0.46875,388
347,1696244964934,-0.72753906,-0.22589111,-0.6489868,-0.140625,-0.40625,0.328125,389
348,1696244964974,-0.72436523,-0.22491455,-0.63653564,-0.53125,-0.203125,0.359375,390
349,1696244965014,-0.73095703,-0.21759033,-0.6362915,-0.1875,-0.171875,0.375,391
350,1696244965054,-0.7285156,-0.22467041,-0.6399536,-0.25,-0.46875,0.25,392
351,1696244965094,-0.7270508,-0.22589111,-0.63604736,0.359375,-0.421875,0.296875,393
352,1696244965134,-0.7297363,-0.22418213,-0.6358032,0.453125,-0.3125,0.546875,394
353,1696244965174,-0.70214844,-0.23199463,-0.6621704,-0.0625,-1.171875,0.0625,411
354,1696244965214,-0.7055664,-0.23345947,-0.6729126,-0.8125,-0.375,0.125,412
355,1696244965254,-0.7026367,-0.23468018,-0.6668091,-0.53125,-0.796875,0.265625,413
356,1696244965294,-0.69506836,-0.23223877,-0.663147,-0.859375,-0.53125,0.265625,414
357,1696244965334,-0.6989746,-0.23565674,-0.659729,-0.765625,-0.5,0.421875,415
358,1696244965374,-0.7062988,-0.24615479,-0.6626587,-0.796875,-0.1875,0.28125,416
359,1696244965414,-0.7036133,-0.23394775,-0.6519165,-0.40625,-0.21875,0.1875,417
360,1696244965454,-0.69677734,-0.23712158,-0.6643677,-0.4375,-0.25,0.21875,418
361,1696244965494,-0.7102051,-0.23883057,-0.6621704,-0.78125,0.1875,-0.015625,419
362,1696244965534,-0.7080078,-0.23736572,-0.6589966,-0.265625,-0.015625,0.109375,420
363,1696244965574,-0.70996094,-0.23712158,-0.6609497,-0.328125,-0.4375,0.296875,421
364,1696244965614,-0.6989746,-0.23858643,-0.6531372,-0.15625,-0.375,0.296875,422
365,1696244965654,-0.7077637,-0.24786377,-0.659729,-0.21875,-0.734375,0.15625,423
366,1696244965694,-0.69921875,-0.24127197,-0.65411377,0.171875,-0.203125,0.140625,424
367,1696244965734,-0.70288086,-0.24493408,-0.66973877,-0.59375,-0.25,0.1875,425
368,1696244965774,-0.70532227,-0.23638916,-0.64556885,0.09375,-0.125,0.03125,426
369,1696244965814,-0.7026367,-0.23809814,-0.663147,0.125,-0.59375,0.1875,427
370,1696244965854,-0.7055664,-0.237854,-0.6514282,0.03125,0.40625,0.140625,428
371,1696244965894,-0.7060547,-0.23809814,-0.6567993,0.0625,-0.21875,0.296875,429
372,1696244965934,-0.70532227,-0.23980713,-0.6567993,-0.15625,0.171875,0.078125,430
373,1696244965974,-0.6982422,-0.23858643,-0.6428833,0.3125,-0.1875,0.265625,431
374,1696244966014,-0.7062988,-0.23931885,-0.659729,-0.125,-0.3125,0.3125,432
375,1696244966054,-0.6940918,-0.24176025,-0.64678955,0.125,-0.265625,0.203125,433
376,1696244966094,-0.6945801,-0.23883057,-0.6589966,0.25,-0.6875,0.109375,434
377,1696244966134,-0.70458984,-0.23687744,-0.65460205,-0.140625,-0.25,0.28125,435
378,1696244966174,-0.7011719,-0.24224854,-0.6519165,-0.109375,-0.40625,0.203125,436
379,1696244966214,-0.70874023,-0.2312622,-0.6592407,-0.21875,-0.140625,0.265625,437
380,1696244966254,-0.70947266,-0.23858643,-0.6565552,-0.3125,-0.40625,0.234375,438
381,1696244966294,-0.7121582,-0.24468994,-0.65411377,-0.390625,-0.28125,0.28125,439
382,1696244966334,-0.70751953,-0.24127197,-0.65167236,-0.03125,-0.34375,0.25,440
383,1696244966374,-0.7072754,-0.23858643,-0.65338135,-0.0625,0.078125,0.25,441
384,1696244966414,-0.7102051,-0.23712158,-0.6548462,0.328125,-0.515625,0.25,442
385,1696244966454,-0.7077637,-0.24029541,-0.6567993,-0.140625,0.59375,0.109375,443
386,1696244966494,-0.7077637,-0.24102783,-0.6428833,1.53125,0.140625,0.234375,444
387,1696244966534,-0.7062988,-0.23492432,-0.6621704,0.671875,0.109375,0.078125,445
388,1696244966574,-0.7072754,-0.23150635,-0.6526489,0.390625,-0.390625,0.203125,446
389,1696244966614,-0.7077637,-0.24078369,-0.6538696,0.28125,-0.140625,0.328125,447
390,1696244966654,-0.7092285,-0.23736572,-0.6538696,0.375,-0.125,0.375,448
391,1696244966694,-0.7116699,-0.23492432,-0.6572876,0.59375,-0.578125,0.125,449
392,1696244966734,-0.70654297,-0.24298096,-0.6585083,0.09375,-0.234375,0.234375,450
393,1696244966774,-0.70581055,-0.23590088,-0.64385986,0.171875,-0.21875,0.203125,451
394,1696244966814,-0.7126465,-0.24127197,-0.647522,0.296875,-0.390625,0.375,452
395,1696244966854,-0.7067871,-0.23370361,-0.6585083,0.203125,-0.265625,0.171875,453
396,1696244966894,-0.7109375,-0.23468018,-0.65753174,0.359375,-0.3125,0.34375,454
397,1696244966934,-0.7116699,-0.23394775,-0.6585083,0.234375,-0.1875,0.109375,455
398,1696244966974,-0.717041,-0.23052979,-0.6548462,0.125,-0.296875,0.28125,456
399,1696244967014,-0.7150879,-0.23370361,-0.6560669,0.359375,-0.1875,0.3125,457
400,1696244967054,-0.71069336,-0.23223877,-0.6524048,0.359375,0.125,0.1875,458
401,1696244967094,-0.70654297,-0.23443604,-0.65093994,1.1875,0.65625,0.359375,459
402,1696244967134,-0.71606445,-0.23223877,-0.6565552,0.75,0.515625,0.359375,460
403,1696244967174,-0.7145996,-0.22735596,-0.6506958,0.90625,0.671875,0.1875,461
404,1696244967214,-0.717041,-0.22979736,-0.6548462,0.421875,0.75,0.578125,462
405,1696244967254,-0.7167969,-0.23199463,-0.6436157,0.8125,0.53125,0.3125,463
406,1696244967294,-0.71240234,-0.23028564,-0.6436157,0.546875,-0.078125,0.28125,464
407,1696244967334,-0.7163086,-0.22833252,-0.6465454,0.46875,0.15625,0.375,465
408,1696244967374,-0.7133789,-0.23052979,-0.65631104,0.28125,-0.375,0.375,466
409,1696244967414,-0.7194824,-0.22784424,-0.64727783,0.296875,0.03125,0.28125,467
410,1696244967454,-0.7141113,-0.23272705,-0.642395,1.140625,-0.109375,0.5,468
411,1696244967494,-0.70947266,-0.2312622,-0.64630127,0.296875,-0.09375,0.296875,469
412,1696244967534,-0.7133789,-0.22955322,-0.63409424,0.109375,-0.109375,0.40625,470
413,1696244967574,-0.7182617,-0.23101807,-0.6511841,0.03125,-0.296875,0.359375,471
414,1696244967614,-0.7199707,-0.22320557,-0.6436157,-0.015625,-0.28125,0.140625,472
415,1696244967654,-0.7219238,-0.2276001,-0.6524048,0.09375,0.0625,0.15625,473
416,1696244967694,-0.71484375,-0.23028564,-0.6453247,0.28125,-0.078125,0.390625,474
417,1696244967734,-0.71899414,-0.23297119,-0.6482544,0.28125,-0.09375,0.4375,475
418,1696244967774,-0.7219238,-0.22686768,-0.644104,0.15625,0.109375,0.421875,476
419,1696244967814,-0.7199707,-0.23443604,-0.6421509,0.390625,0.109375,0.359375,477
420,1696244967854,-0.71850586,-0.22418213,-0.6433716,0.203125,0.03125,0.328125,478
421,1696244967894,-0.717041,-0.23150635,-0.64190674,0.046875,0.078125,0.359375,479
422,1696244967934,-0.7158203,-0.21954346,-0.63531494,0.078125,-0.1875,0.265625,480
423,1696244967974,-0.71875,-0.23077393,-0.6343384,-0.234375,-0.484375,0.15625,481
424,1696244968014,-0.71777344,-0.22247314,-0.63531494,-0.03125,-1.25,0.078125,482
425,1696244968054,-0.7246094,-0.22857666,-0.6489868,0.015625,-2.234375,0.0625,483
426,1696244968094,-0.71606445,-0.2234497,-0.64508057,-1.71875,-1.859375,-0.234375,484
427,1696244968134,-0.72436523,-0.2300415,-0.65045166,0.0,-3.1875,0.0,485
428,1696244968174,-0.71655273,-0.22979736,-0.6604614,-0.734375,-3.140625,0.0625,486
429,1696244968214,-0.7121582,-0.22686768,-0.64923096,-1.453125,-3.109375,-0.140625,487
430,1696244968254,-0.7089844,-0.23248291,-0.6602173,-1.359375,-3.390625,0.015625,488
431,1696244968294,-0.704834,-0.23883057,-0.6643677,-1.640625,-1.890625,0.078125,489
432,1696244968334,-0.70947266,-0.2354126,-0.65948486,-1.0625,-1.5,0.265625,490
433,1696244968374,-0.7006836,-0.23321533,-0.65045166,-0.625,-1.078125,0.15625,491
434,1696244968414,-0.703125,-0.22955322,-0.6553345,-0.28125,-0.609375,0.015625,492
435,1696244968454,-0.70458984,-0.24053955,-0.663147,-0.46875,-1.03125,-0.015625,493
436,1696244968494,-0.704834,-0.23321533,-0.65948486,-0.5625,-0.625,0.109375,494
437,1696244968534,-0.7084961,-0.24078369,-0.6602173,-0.640625,-0.609375,0.015625,495
438,1696244968574,-0.7026367,-0.23712158,-0.65997314,-0.609375,-0.171875,0.0625,496
439,1696244968614,-0.69433594,-0.23565674,-0.65704346,-0.75,-0.109375,0.109375,497
440,1696244968654,-0.70166016,-0.237854,-0.65093994,-0.5,0.1875,0.328125,498
441,1696244968694,-0.7023926,-0.24395752,-0.6565552,-0.078125,-0.015625,0.28125,499
442,1696244968734,-0.7092285,-0.23345947,-0.65826416,-0.171875,-0.328125,0.109375,500
443,1696244968774,-0.70336914,-0.23565674,-0.6499634,0.046875,-0.328125,0.09375,501
444,1696244968814,-0.70214844,-0.23101807,-0.65289307,-0.453125,0.0625,0.0625,502
445,1696244968854,-0.70458984,-0.23443604,-0.6638794,-0.328125,-0.65625,0.203125,503
446,1696244968894,-0.70214844,-0.24273682,-0.6560669,-0.328125,0.765625,0.125,504
447,1696244968934,-0.7128906,-0.24127197,-0.6543579,0.234375,-0.09375,0.21875,505
448,1696244968974,-0.7036133,-0.23321533,-0.6536255,-0.171875,0.21875,0.265625,506
449,1696244969014,-0.70336914,-0.2366333,-0.6519165,-0.203125,-0.359375,-0.046875,507
450,1696244969054,-0.70214844,-0.23370361,-0.65045166,-0.03125,-0.15625,0.09375,508
451,1696244969094,-0.7116699,-0.23956299,-0.6499634,-0.15625,-0.40625,0.1875,509
452,1696244969134,-0.70825195,-0.23687744,-0.659729,-0.328125,-0.59375,0.265625,510
453,1696244969174,-0.70703125,-0.23712158,-0.6511841,-0.3125,-0.4375,0.265625,511
454,1696244969214,-0.7092285,-0.23858643,-0.6626587,-0.109375,-0.40625,0.125,512
455,1696244969254,-0.7062988,-0.23956299,-0.6494751,0.09375,-0.359375,0.125,513
456,1696244969294,-0.7062988,-0.24639893,-0.65411377,0.046875,-0.6875,0.15625,514
457,1696244969334,-0.7043457,-0.23956299,-0.6536255,0.015625,-0.390625,0.0625,515
458,1696244969374,-0.704834,-0.237854,-0.6555786,-0.359375,-0.203125,0.15625,516
459,1696244969414,-0.7077637,-0.24371338,-0.6494751,-0.140625,-0.296875,0.171875,517
460,1696244969454,-0.7097168,-0.2444458,-0.6626587,-0.203125,-0.625,0.234375,518
461,1696244969494,-0.7067871,-0.23931885,-0.65093994,-0.21875,-0.328125,0.1875,519
462,1696244969534,-0.70214844,-0.24249268,-0.6524048,-0.328125,-0.484375,0.203125,520
463,1696244969574,-0.7011719,-0.23809814,-0.6511841,0.234375,-0.25,0.28125,521
464,1696244969614,-0.70410156,-0.24224854,-0.65216064,0.328125,-0.453125,0.296875,522
465,1696244969654,-0.71435547,-0.24420166,-0.64630127,-0.1875,-0.171875,0.140625,523
466,1696244969694,-0.7133789,-0.23712158,-0.65631104,-0.4375,-0.71875,0.453125,524
467,1696244969734,-0.70996094,-0.23883057,-0.64508057,-0.234375,0.40625,0.15625,525
468,1696244969774,-0.7133789,-0.24346924,-0.6604614,0.125,-0.5625,0.234375,526
469,1696244969814,-0.7104492,-0.23834229,-0.6616821,0.0,-0.203125,0.15625,527
470,1696244969854,-0.71240234,-0.24102783,-0.6553345,-0.015625,-0.125,0.15625,528
471,1696244969894,-0.71533203,-0.23858643,-0.6489868,-0.265625,-0.25,0.09375,529
472,1696244969934,-0.7026367,-0.2354126,-0.64727783,-0.28125,-0.25,0.109375,530
473,1696244969974,-0.7109375,-0.24102783,-0.6572876,-0.671875,-1.3125,0.375,531
474,1696244970014,-0.70410156,-0.23760986,-0.63409424,0.03125,-1.84375,0.328125,532
475,1696244970054,-0.70336914,-0.24639893,-0.65826416,0.328125,-2.84375,0.5,533
476,1696244970094,-0.71240234,-0.2444458,-0.66363525,0.5,-2.484375,0.3125,534
477,1696244970134,-0.69799805,-0.24493408,-0.6609497,0.078125,-2.84375,0.234375,535
478,1696244970174,-0.69555664,-0.24249268,-0.66485596,-0.0625,-2.140625,0.0,536
479,1696244970214,-0.69311523,-0.24542236,-0.6651001,-0.609375,-2.125,-0.140625,537
480,1696244970254,-0.69018555,-0.23931885,-0.6651001,-0.625,-1.59375,0.09375,538
481,1696244970294,-0.6894531,-0.23980713,-0.66778564,-0.59375,-0.96875,0.25,539
482,1696244970334,-0.69506836,-0.24395752,-0.6680298,-0.625,-0.1875,0.046875,540
483,1696244970374,-0.69262695,-0.24273682,-0.65216064,0.09375,-0.34375,-0.03125,541
484,1696244970414,-0.6933594,-0.2354126,-0.6585083,0.328125,-0.109375,0.140625,542
485,1696244970454,-0.6928711,-0.23980713,-0.6638794,0.53125,-0.03125,0.140625,543
486,1696244970494,-0.69873047,-0.23590088,-0.6609497,0.15625,0.515625,0.015625,544
487,1696244970534,-0.69970703,-0.24273682,-0.66412354,-0.421875,0.28125,0.28125,545
488,1696244970574,-0.69970703,-0.24371338,-0.6524048,0.265625,0.375,0.265625,546
489,1696244970614,-0.7006836,-0.24005127,-0.66851807,0.125,-0.21875,0.3125,547
490,1696244970654,-0.69873047,-0.23809814,-0.6626587,-0.328125,-0.171875,0.203125,548
491,1696244970694,-0.69970703,-0.2432251,-0.659729,-0.21875,-0.03125,0.234375,549
492,1696244970734,-0.6977539,-0.24298096,-0.66778564,-0.03125,-0.171875,0.03125,550
493,1696244970774,-0.70043945,-0.24078369,-0.6567993,-0.109375,0.09375,0.1875,551
494,1696244970814,-0.70043945,-0.24005127,-0.6577759,-0.359375,-0.21875,0.265625,552
495,1696244970854,-0.69873047,-0.24053955,-0.6572876,-0.140625,0.4375,0.265625,553
496,1696244970894,-0.701416,-0.2432251,-0.661438,0.203125,-0.25,0.203125,554
497,1696244970934,-0.7001953,-0.24053955,-0.66485596,-0.046875,-0.28125,0.15625,555
498,1696244970974,-0.6945801,-0.23956299,-0.6616821,0.078125,-0.171875,0.125,556
499,1696244971014,-0.7023926,-0.24127197,-0.66729736,-0.1875,-0.25,0.15625,557
500,1696244971054,-0.70410156,-0.24127197,-0.65509033,-0.078125,-0.265625,0.21875,558
501,1696244971094,-0.703125,-0.24517822,-0.6555786,-0.1875,-0.390625,0.234375,559
502,1696244971134,-0.7001953,-0.24273682,-0.6646118,-0.046875,-0.328125,0.21875,560
503,1696244971174,-0.70214844,-0.24029541,-0.6572876,-0.21875,-0.265625,0.1875,561
504,1696244971214,-0.69677734,-0.24053955,-0.6572876,-0.015625,0.078125,0.265625,562
505,1696244971254,-0.70947266,-0.23834229,-0.6548462,0.109375,-0.1875,0.078125,563
506,1696244971294,-0.70336914,-0.24420166,-0.65509033,0.0,-0.140625,0.109375,564
507,1696244971334,-0.7080078,-0.24542236,-0.66534424,-0.265625,-0.421875,0.234375,565
508,1696244971374,-0.7092285,-0.24029541,-0.6567993,-0.4375,0.15625,0.203125,566
509,1696244971414,-0.7026367,-0.23931885,-0.6536255,0.078125,-0.34375,0.203125,567
510,1696244971454,-0.70336914,-0.24493408,-0.6555786,-0.140625,-0.265625,0.265625,568
511,1696244971494,-0.6989746,-0.24542236,-0.6514282,-0.03125,-0.125,0.109375,569
512,1696244971534,-0.7055664,-0.24029541,-0.6555786,-0.25,-0.21875,0.21875,570
513,1696244971574,-0.7043457,-0.24102783,-0.65997314,-0.34375,-0.171875,0.296875,571
514,1696244971614,-0.6999512,-0.24127197,-0.64801025,0.03125,-0.140625,0.234375,572
515,1696244971654,-0.7062988,-0.24273682,-0.6526489,-0.25,-0.09375,0.296875,573
516,1696244971694,-0.7062988,-0.23980713,-0.6477661,0.046875,0.34375,0.4375,574
517,1696244971734,-0.70996094,-0.24029541,-0.6538696,0.0625,-0.25,0.171875,575
518,1696244971774,-0.70410156,-0.23809814,-0.6511841,-0.0625,-0.265625,0.078125,576
519,1696244971814,-0.7072754,-0.23590088,-0.6565552,-0.15625,-0.046875,0.140625,577
520,1696244971854,-0.7092285,-0.23956299,-0.65582275,0.078125,0.25,0.328125,578
521,1696244971894,-0.71240234,-0.23956299,-0.65631104,0.140625,-0.140625,0.171875,579
522,1696244971934,-0.7026367,-0.25054932,-0.6560669,-0.03125,-0.234375,0.15625,580
523,1696244971974,-0.701416,-0.24468994,-0.6499634,0.15625,-0.171875,0.265625,581
524,1696244972014,-0.70581055,-0.2390747,-0.6543579,-0.09375,-0.234375,0.0625,582
525,1696244972054,-0.7084961,-0.237854,-0.65509033,-0.1875,-0.25,0.25,583
526,1696244972094,-0.7060547,-0.2420044,-0.64971924,0.0,-0.390625,0.109375,584
527,1696244972134,-0.70410156,-0.23858643,-0.64385986,0.125,-0.171875,0.0625,585
528,1696244972174,-0.71362305,-0.24151611,-0.659729,-0.453125,-0.796875,0.421875,586
529,1696244972214,-0.7023926,-0.23809814,-0.6404419,-0.21875,0.234375,0.265625,587
530,1696244972254,-0.7062988,-0.24249268,-0.65582275,-0.046875,-0.578125,0.1875,588
531,1696244972294,-0.7050781,-0.23565674,-0.65289307,-0.4375,-0.453125,0.0625,589
532,1696244972334,-0.71069336,-0.24346924,-0.6421509,-0.140625,-0.4375,0.34375,590
533,1696244972374,-0.7116699,-0.24493408,-0.6524048,-0.28125,-0.5,0.296875,591
534,1696244972414,-0.71069336,-0.24371338,-0.6489868,-0.0625,-0.546875,0.421875,592
535,1696244972454,-0.7084961,-0.24029541,-0.6560669,-0.46875,-0.515625,0.171875,593
536,1696244972494,-0.7102051,-0.24395752,-0.6433716,-0.125,-0.40625,0.265625,594
537,1696244972534,-0.70825195,-0.24468994,-0.6506958,-0.109375,-0.921875,0.15625,595
538,1696244972574,-0.70654297,-0.23980713,-0.65045166,-0.171875,-1.640625,0.0,596
539,1696244972614,-0.70581055,-0.23736572,-0.6460571,-0.21875,-2.859375,-0.15625,597
540,1696244972654,-0.70336914,-0.23858643,-0.6572876,-1.21875,-3.46875,-0.28125,598
541,1696244972694,-0.70410156,-0.25201416,-0.66192627,-1.09375,-3.046875,-0.09375,599
542,1696244972734,-0.69555664,-0.24713135,-0.6589966,-1.453125,-2.65625,0.0625,600
543,1696244972774,-0.69873047,-0.24493408,-0.661438,-1.03125,-2.484375,0.0,601
544,1696244972814,-0.69555664,-0.25421143,-0.66412354,-1.0,-2.3125,-0.125,602
545,1696244972854,-0.69311523,-0.24249268,-0.6621704,-0.9375,-2.453125,-0.0625,603
546,1696244972894,-0.69018555,-0.2539673,-0.66534424,-0.890625,-2.3125,-0.078125,604
547,1696244972934,-0.68310547,-0.24884033,-0.66851807,-1.0625,-2.03125,-0.03125,605
548,1696244972974,-0.6945801,-0.24127197,-0.6758423,-1.328125,-1.796875,0.0,606
549,1696244973014,-0.68408203,-0.25494385,-0.6721802,-0.78125,-0.9375,0.140625,607
550,1696244973054,-0.6904297,-0.25323486,-0.6709595,-0.375,-1.3125,0.21875,608
551,1696244973094,-0.685791,-0.2539673,-0.6765747,0.015625,-0.9375,0.125,609
552,1696244973134,-0.68408203,-0.24859619,-0.66070557,0.140625,-0.203125,0.15625,610
553,1696244973174,-0.6828613,-0.2539673,-0.67144775,0.5625,-0.5625,0.15625,611
554,1696244973214,-0.6772461,-0.2444458,-0.6795044,0.234375,-0.28125,0.421875,612
555,1696244973254,-0.69018555,-0.2522583,-0.6795044,0.234375,-0.296875,0.359375,613
556,1696244973294,-0.6845703,-0.24713135,-0.67437744,0.015625,-0.1875,0.28125,614
557,1696244973334,-0.68310547,-0.25250244,-0.6626587,0.375,0.125,0.1875,615
558,1696244973374,-0.689209,-0.24859619,-0.6765747,0.359375,-0.25,0.328125,616
559,1696244973414,-0.68603516,-0.2444458,-0.66607666,0.140625,-0.046875,0.1875,617
560,1696244973454,-0.68530273,-0.2510376,-0.6651001,0.28125,-0.296875,0.203125,618
561,1696244973494,-0.6838379,-0.25372314,-0.6663208,0.1875,-0.015625,0.15625,619
562,1696244973534,-0.68896484,-0.24737549,-0.66290283,0.125,0.0,0.15625,620
563,1696244973574,-0.6940918,-0.24639893,-0.6704712,0.203125,-0.125,0.171875,621
564,1696244973614,-0.6904297,-0.24615479,-0.6651001,0.078125,0.015625,0.03125,622
565,1696244973654,-0.69311523,-0.25250244,-0.66119385,-0.09375,-0.234375,0.265625,623
566,1696244973694,-0.69091797,-0.24078369,-0.66656494,-0.0625,-0.53125,0.359375,624
567,1696244973734,-0.6899414,-0.25445557,-0.66729736,-0.125,-0.34375,0.171875,625
568,1696244973774,-0.6933594,-0.2456665,-0.6724243,-0.484375,0.3125,0.015625,626
569,1696244973814,-0.68847656,-0.24932861,-0.6592407,0.1875,-0.125,0.21875,627
570,1696244973854,-0.6936035,-0.24346924,-0.6694946,0.140625,-0.421875,-0.015625,628
571,1696244973894,-0.69262695,-0.25006104,-0.6658325,-0.171875,-0.234375,0.03125,629
572,1696244973934,-0.69262695,-0.24786377,-0.6712036,-0.296875,-0.390625,0.171875,630
573,1696244973974,-0.6928711,-0.24761963,-0.6670532,0.0,-0.3125,0.046875,631
574,1696244974014,-0.68603516,-0.24542236,-0.66070557,0.03125,-0.171875,0.15625,632
575,1696244974054,-0.6809082,-0.2498169,-0.6626587,-0.1875,-0.15625,0.25,633
576,1696244974094,-0.6826172,-0.24127197,-0.6585083,0.3125,-0.046875,0.140625,634
577,1696244974134,-0.69750977,-0.25054932,-0.66119385,-0.046875,-0.40625,0.09375,635
578,1696244974174,-0.69018555,-0.24542236,-0.661438,-0.28125,-0.140625,0.078125,636
579,1696244974214,-0.69628906,-0.2546997,-0.66900635,-0.1875,-0.1875,0.0625,637
580,1696244974254,-0.6923828,-0.24786377,-0.6616821,0.03125,-0.296875,0.1875,638
581,1696244974294,-0.6936035,-0.24737549,-0.6651001,0.125,-0.140625,0.109375,639
582,1696244974334,-0.6958008,-0.24884033,-0.6680298,0.203125,-0.0625,0.078125,640
583,1696244974374,-0.69555664,-0.24761963,-0.6633911,0.15625,-0.140625,0.21875,641
584,1696244974414,-0.6911621,-0.24298096,-0.66290283,0.203125,-0.359375,0.15625,642
585,1696244974454,-0.6855469,-0.24908447,-0.6487427,0.359375,-0.109375,0.015625,643
586,1696244974494,-0.69555664,-0.24908447,-0.67681885,-0.375,0.046875,0.234375,644
587,1696244974534,-0.69628906,-0.24908447,-0.65411377,0.140625,0.5,0.015625,645
588,1696244974574,-0.6928711,-0.24298096,-0.66119385,0.25,-0.109375,0.234375,646
589,1696244974614,-0.70092773,-0.24761963,-0.66119385,-0.09375,-0.078125,0.359375,647
590,1696244974654,-0.6984863,-0.24249268,-0.65753174,0.21875,-0.296875,0.125,648
591,1696244974694,-0.7043457,-0.24884033,-0.6680298,-0.171875,-0.09375,0.265625,649
592,1696244974734,-0.701416,-0.24932861,-0.65875244,0.203125,-0.296875,0.28125,650
593,1696244974774,-0.69873047,-0.24591064,-0.66729736,-0.296875,-0.25,0.46875,651
594,1696244974814,-0.6936035,-0.24151611,-0.6519165,0.015625,0.03125,0.15625,652
595,1696244974854,-0.69628906,-0.24786377,-0.6592407,0.25,-0.53125,0.171875,653
596,1696244974894,-0.7036133,-0.24786377,-0.6633911,0.0625,-0.28125,0.25,654
597,1696244974934,-0.69750977,-0.24273682,-0.66119385,-0.09375,-0.265625,0.234375,655
598,1696244974974,-0.7055664,-0.24664307,-0.6626587,-0.0625,-0.1875,0.109375,656
599,1696244975014,-0.70166016,-0.24932861,-0.659729,-0.015625,-0.421875,0.40625,657
600,1696244975054,-0.69677734,-0.24908447,-0.6704712,-0.09375,-0.34375,0.328125,658
601,1696244975094,-0.6965332,-0.24468994,-0.66119385,-0.15625,-0.25,0.375,659
602,1696244975134,-0.69921875,-0.24517822,-0.65997314,0.25,-0.375,0.28125,660
603,1696244975174,-0.7001953,-0.24029541,-0.65509033,0.828125,-0.265625,0.234375,661
604,1696244975214,-0.6977539,-0.24249268,-0.6524048,0.078125,-0.015625,-0.03125,662
605,1696244975254,-0.69970703,-0.2498169,-0.66192627,-0.296875,-0.5625,0.15625,663
606,1696244975294,-0.6945801,-0.24664307,-0.6404419,0.1875,0.359375,0.140625,664
607,1696244975334,-0.703125,-0.25054932,-0.66363525,0.6875,-0.53125,0.34375,665
608,1696244975374,-0.69384766,-0.2444458,-0.6638794,0.21875,-0.21875,0.09375,666
609,1696244975414,-0.70214844,-0.24273682,-0.65509033,0.3125,0.5625,0.015625,667
610,1696244975454,-0.6970215,-0.24639893,-0.65411377,0.4375,-0.203125,0.359375,668
611,1696244975494,-0.7084961,-0.24639893,-0.6675415,0.5625,-0.234375,0.296875,669
612,1696244975534,-0.7001953,-0.24102783,-0.6646118,-0.015625,-0.421875,0.3125,670
613,1696244975574,-0.7026367,-0.24298096,-0.6602173,0.125,0.203125,0.265625,671
614,1696244975614,-0.703125,-0.24371338,-0.6536255,0.21875,-0.28125,0.3125,672
615,1696244975654,-0.6948242,-0.24053955,-0.6577759,0.296875,-0.375,0.140625,673
616,1696244975694,-0.70874023,-0.24786377,-0.6565552,0.078125,-0.265625,0.03125,674
617,1696244975734,-0.7011719,-0.24078369,-0.65093994,0.234375,-0.21875,0.25,675
618,1696244975774,-0.7011719,-0.24224854,-0.65948486,0.28125,-0.203125,0.296875,676
619,1696244975814,-0.70703125,-0.24029541,-0.6604614,0.0625,-0.109375,0.265625,677
620,1696244975854,-0.70214844,-0.24053955,-0.65875244,0.171875,-0.25,0.375,678
621,1696244975894,-0.7043457,-0.2432251,-0.6560669,0.265625,-0.25,0.40625,679
622,1696244975934,-0.7036133,-0.2444458,-0.65826416,0.125,-0.640625,0.140625,680
623,1696244975974,-0.7084961,-0.2354126,-0.65631104,0.265625,-0.453125,-0.015625,681
624,1696244976014,-0.70581055,-0.24078369,-0.66070557,0.078125,-0.375,0.140625,682
625,1696244976054,-0.6989746,-0.23687744,-0.65509033,0.25,-0.296875,0.28125,683
626,1696244976094,-0.7077637,-0.24127197,-0.6560669,0.015625,-0.015625,0.1875,684
627,1696244976134,-0.70703125,-0.24053955,-0.66607666,-0.296875,-0.625,0.203125,685
628,1696244976174,-0.7077637,-0.23956299,-0.6482544,0.34375,0.8125,0.109375,686
629,1696244976214,-0.7036133,-0.23736572,-0.6555786,0.765625,-0.234375,0.203125,687
630,1696244976254,-0.70166016,-0.23931885,-0.6585083,0.25,0.25,0.078125,688
631,1696244976294,-0.7060547,-0.23638916,-0.6567993,0.21875,0.015625,0.21875,689
632,1696244976334,-0.70654297,-0.23687744,-0.6553345,0.171875,-0.03125,0.40625,690
633,1696244976374,-0.7092285,-0.2390747,-0.65338135,-0.0625,-0.1875,0.28125,691
634,1696244976414,-0.70214844,-0.2420044,-0.66070557,0.234375,-0.328125,0.40625,692
635,1696244976454,-0.7026367,-0.24273682,-0.65045166,0.21875,0.015625,0.3125,693
636,1696244976494,-0.7036133,-0.23809814,-0.6460571,0.28125,-0.28125,0.25,694
637,1696244976534,-0.7092285,-0.23712158,-0.65753174,0.078125,-0.65625,0.171875,695
638,1696244976574,-0.70874023,-0.23223877,-0.65948486,0.234375,-0.515625,0.15625,696
639,1696244976614,-0.71069336,-0.23516846,-0.6555786,0.1875,-0.25,0.171875,697
640,1696244976654,-0.71313477,-0.23248291,-0.65411377,0.0,-0.34375,0.25,698
641,1696244976694,-0.7080078,-0.23956299,-0.6567993,0.015625,-0.359375,0.3125,699
642,1696244976734,-0.7102051,-0.2390747,-0.65289307,0.046875,-0.15625,0.28125,700
643,1696244976774,-0.7104492,-0.237854,-0.6519165,0.515625,-0.125,0.328125,701
644,1696244976814,-0.7133789,-0.2300415,-0.65631104,0.171875,-0.046875,0.296875,702
645,1696244976854,-0.7038574,-0.23394775,-0.6548462,0.203125,-0.140625,0.40625,703
646,1696244976894,-0.70825195,-0.23834229,-0.647522,0.28125,-0.0625,0.1875,704
647,1696244976934,-0.7089844,-0.23565674,-0.65875244,-0.03125,-0.046875,-0.015625,705
648,1696244976974,-0.7150879,-0.23638916,-0.65826416,-0.015625,-0.21875,0.390625,706
649,1696244977014,-0.7092285,-0.23760986,-0.65460205,-0.296875,0.71875,0.296875,707
650,1696244977054,-0.7175293,-0.23956299,-0.6519165,0.40625,0.0625,0.15625,708
651,1696244977094,-0.7072754,-0.23028564,-0.6524048,0.234375,-0.234375,-0.03125,709
652,1696244977134,-0.7060547,-0.23248291,-0.6494751,-0.171875,-0.1875,0.125,710
653,1696244977174,-0.70874023,-0.23321533,-0.6477661,0.046875,-0.234375,0.28125,711
654,1696244977214,-0.7158203,-0.24029541,-0.6489868,-0.15625,-0.171875,0.25,712
655,1696244977254,-0.70703125,-0.2432251,-0.6567993,0.03125,-0.4375,0.421875,713
656,1696244977294,-0.7126465,-0.2288208,-0.6436157,-0.046875,-0.046875,0.265625,714
657,1696244977334,-0.70947266,-0.23468018,-0.64678955,0.03125,-0.328125,0.1875,715
658,1696244977374,-0.71240234,-0.2390747,-0.64385986,0.234375,-0.328125,0.203125,716
659,1696244977414,-0.7126465,-0.2341919,-0.6536255,0.3125,-0.34375,0.234375,717
660,1696244977454,-0.71435547,-0.23565674,-0.64923096,0.8125,0.40625,0.4375,718
661,1696244977494,-0.7207031,-0.23809814,-0.6487427,0.515625,0.34375,0.4375,719
662,1696244977534,-0.70996094,-0.2341919,-0.65093994,0.171875,0.34375,0.453125,720
663,1696244977574,-0.71606445,-0.23834229,-0.6460571,0.40625,0.140625,0.296875,721
664,1696244977614,-0.7067871,-0.23223877,-0.64971924,0.484375,0.109375,0.15625,722
665,1696244977654,-0.71606445,-0.23638916,-0.6526489,0.375,0.21875,0.296875,723
666,1696244977694,-0.7116699,-0.23150635,-0.644104,0.90625,0.234375,0.3125,724
667,1696244977734,-0.7199707,-0.23492432,-0.64727783,0.703125,0.15625,0.546875,725
668,1696244977774,-0.7116699,-0.23492432,-0.6560669,0.359375,-0.28125,0.390625,726
669,1696244977814,-0.71728516,-0.23175049,-0.65802,-0.234375,-0.46875,0.203125,727
670,1696244977854,-0.7121582,-0.23712158,-0.6531372,-0.4375,0.25,0.59375,728
671,1696244977894,-0.7138672,-0.23614502,-0.63775635,0.203125,-0.125,0.109375,729
672,1696244977934,-0.72436523,-0.2366333,-0.6411743,0.21875,-0.34375,0.28125,730
673,1696244977974,-0.7150879,-0.2276001,-0.64263916,0.109375,-0.25,0.21875,731
674,1696244978014,-0.7175293,-0.2300415,-0.6421509,0.125,-0.203125,0.15625,732
675,1696244978054,-0.71875,-0.23370361,-0.64141846,0.09375,-0.390625,0.28125,733
676,1696244978094,-0.71533203,-0.22467041,-0.63897705,0.375,-0.328125,0.203125,734
677,1696244978134,-0.72216797,-0.23223877,-0.6448364,-0.09375,-0.296875,0.34375,735
678,1696244978174,-0.7133789,-0.23052979,-0.6428833,0.109375,-0.328125,0.375,736
679,1696244978214,-0.71362305,-0.2341919,-0.6470337,0.515625,0.03125,0.296875,737
680,1696244978254,-0.71728516,-0.23492432,-0.645813,0.765625,0.234375,0.453125,738
681,1696244978294,-0.72314453,-0.2341919,-0.6465454,0.53125,0.34375,0.296875,739
682,1696244978334,-0.72143555,-0.23248291,-0.6416626,0.15625,0.21875,0.390625,740
683,1696244978374,-0.71875,-0.2234497,-0.6448364,-0.125,-0.1875,0.328125,741
684,1696244978414,-0.72631836,-0.22930908,-0.6445923,-0.265625,-0.28125,0.328125,742
685,1696244978454,-0.7270508,-0.23370361,-0.63531494,-0.125,-0.421875,0.1875,743
686,1696244978494,-0.7236328,-0.23052979,-0.6411743,-0.3125,-0.734375,0.296875,744
687,1696244978534,-0.7155762,-0.23052979,-0.6397095,-0.03125,-0.53125,0.3125,745
688,1696244978574,-0.7260742,-0.22930908,-0.6487427,0.6875,-0.4375,0.359375,746
689,1696244978614,-0.720459,-0.23028564,-0.647522,0.90625,-0.140625,0.328125,747
690,1696244978654,-0.7290039,-0.2341919,-0.6604614,0.203125,-0.09375,0.421875,748
691,1696244978694,-0.7199707,-0.22930908,-0.64727783,0.484375,0.28125,0.4375,749
692,1696244978734,-0.6948242,-0.23883057,-0.6616821,0.15625,0.046875,0.078125,771
693,1696244978774,-0.70092773,-0.2341919,-0.6670532,-0.3125,0.109375,0.140625,772
694,1696244978814,-0.69628906,-0.23516846,-0.6687622,-0.25,-0.15625,0.328125,773
695,1696244978854,-0.6982422,-0.24395752,-0.66485596,-0.15625,-0.234375,0.265625,774
696,1696244978894,-0.7006836,-0.23760986,-0.65216064,0.0625,-0.03125,0.25,775
697,1696244978934,-0.6887207,-0.24078369,-0.6638794,-0.03125,-0.078125,0.203125,776
698,1696244978974,-0.6984863,-0.24176025,-0.6572876,0.296875,0.203125,0.03125,777
699,1696244979014,-0.69750977,-0.24615479,-0.6567993,0.125,-0.421875,0.171875,778
700,1696244979054,-0.6958008,-0.23175049,-0.6626587,-0.15625,-0.265625,0.25,779
701,1696244979094,-0.7001953,-0.24517822,-0.65997314,-0.046875,-0.140625,0.203125,780
702,1696244979134,-0.6970215,-0.24591064,-0.6638794,0.015625,-0.21875,0.109375,781
703,1696244979174,-0.6989746,-0.24517822,-0.6604614,0.015625,-0.1875,0.359375,782
704,1696244979214,-0.69970703,-0.24810791,-0.66192627,0.0,-0.421875,0.203125,783
705,1696244979254,-0.69873047,-0.23443604,-0.6687622,-0.15625,-0.359375,0.21875,784
706,1696244979294,-0.6921387,-0.24273682,-0.6560669,0.3125,-0.453125,0.359375,785
707,1696244979334,-0.7006836,-0.24420166,-0.6655884,-0.25,0.0,0.3125,786
708,1696244979374,-0.6984863,-0.23834229,-0.65826416,-0.03125,-0.359375,0.28125,787
709,1696244979414,-0.6965332,-0.23687744,-0.65753174,0.375,0.53125,0.296875,788
710,1696244979454,-0.6970215,-0.2420044,-0.6553345,0.59375,0.078125,0.265625,789
711,1696244979494,-0.7019043,-0.23590088,-0.66485596,-0.046875,-0.0625,0.234375,790
712,1696244979534,-0.7089844,-0.23736572,-0.6531372,0.1875,0.0,0.3125,791
713,1696244979574,-0.70043945,-0.24005127,-0.65997314,0.078125,-0.125,0.359375,792
714,1696244979614,-0.7023926,-0.24273682,-0.6592407,0.09375,-0.0625,0.203125,793
715,1696244979654,-0.70947266,-0.23858643,-0.6675415,-0.171875,-0.640625,0.46875,794
716,1696244979694,-0.6994629,-0.24005127,-0.65509033,0.03125,-0.125,0.28125,795
717,1696244979734,-0.70532227,-0.24053955,-0.6536255,0.1875,-0.4375,0.25,796
718,1696244979774,-0.703125,-0.24395752,-0.6646118,-0.09375,-0.28125,0.28125,797
719,1696244979814,-0.7050781,-0.2444458,-0.6577759,-0.015625,-0.4375,0.1875,798
720,1696244979854,-0.7050781,-0.23712158,-0.65704346,0.109375,-0.4375,0.234375,799
721,1696244979894,-0.7026367,-0.23809814,-0.6609497,-0.078125,-0.15625,0.171875,800
722,1696244979934,-0.70825195,-0.23712158,-0.6577759,-0.046875,-0.109375,0.21875,801
723,1696244979974,-0.703125,-0.23468018,-0.6548462,0.078125,-0.390625,0.375,802
724,1696244980014,-0.7038574,-0.2390747,-0.6604614,0.015625,-0.59375,0.328125,803
725,1696244980054,-0.6994629,-0.23321533,-0.6565552,0.21875,-0.1875,0.296875,804
726,1696244980094,-0.7084961,-0.24615479,-0.6682739,-0.359375,0.09375,0.203125,805
727,1696244980134,-0.70288086,-0.2354126,-0.6465454,0.234375,0.3125,0.28125,806
728,1696244980174,-0.7023926,-0.24615479,-0.66363525,0.15625,-0.328125,0.328125,807
729,1696244980214,-0.7055664,-0.2354126,-0.6526489,-0.296875,-0.046875,0.234375,808
730,1696244980254,-0.70825195,-0.2390747,-0.6604614,0.046875,-0.328125,0.25,809
731,1696244980294,-0.70581055,-0.23443604,-0.6526489,-0.015625,-0.1875,0.125,810
732,1696244980334,-0.70288086,-0.23370361,-0.6514282,0.109375,-0.359375,0.3125,811
733,1696244980374,-0.70336914,-0.23687744,-0.6560669,-0.046875,-0.234375,0.484375,812
734,1696244980414,-0.7019043,-0.23809814,-0.6511841,0.0625,-0.109375,0.234375,813
735,1696244980454,-0.7080078,-0.24493408,-0.659729,0.109375,-0.53125,0.21875,814
736,1696244980494,-0.70581055,-0.2444458,-0.66070557,-0.125,-0.578125,0.296875,815
737,1696244980534,-0.70996094,-0.2341919,-0.6585083,-0.171875,-0.328125,0.125,816
738,1696244980574,-0.7116699,-0.24224854,-0.6526489,0.0625,-0.390625,0.234375,817
739,1696244980614,-0.71899414,-0.24127197,-0.6655884,-0.265625,-0.3125,0.09375,818
740,1696244980654,-0.7084961,-0.23687744,-0.65631104,-0.125,-0.25,0.265625,819
741,1696244980694,-0.70458984,-0.24127197,-0.65460205,-0.140625,-0.015625,0.078125,820
742,1696244980734,-0.70532227,-0.23931885,-0.6489868,-0.15625,-0.015625,0.03125,821
743,1696244980774,-0.6984863,-0.24102783,-0.6555786,-0.421875,-0.375,0.296875,822
744,1696244980814,-0.69921875,-0.23980713,-0.64849854,-0.65625,0.375,0.03125,823
745,1696244980854,-0.7114258,-0.24639893,-0.6502075,-0.28125,-0.484375,0.171875,824
746,1696244980894,-0.7102051,-0.23516846,-0.6543579,-0.359375,-0.90625,0.171875,825
747,1696244980934,-0.70947266,-0.23590088,-0.65460205,0.171875,-1.109375,0.03125,826
748,1696244980974,-0.70996094,-0.23883057,-0.65338135,0.0,-1.421875,0.296875,827
749,1696244981014,-0.71240234,-0.23638916,-0.661438,-0.265625,-1.65625,0.171875,828
750,1696244981054,-0.7001953,-0.24884033,-0.6651001,-0.515625,-2.46875,0.171875,829
751,1696244981094,-0.69628906,-0.23931885,-0.6489868,-0.375,-2.0625,0.28125,830
752,1696244981134,-0.6958008,-0.23809814,-0.65802,-0.171875,-2.359375,-0.09375,831
753,1696244981174,-0.69506836,-0.23565674,-0.65460205,-0.484375,-2.046875,-0.09375,832
754,1696244981214,-0.6960449,-0.24395752,-0.6638794,0.25,-1.96875,-0.21875,833
755,1696244981254,-0.7072754,-0.24786377,-0.6704712,-0.3125,-1.859375,-0.25,834
756,1696244981294,-0.7089844,-0.24493408,-0.67071533,-0.4375,-1.796875,-0.140625,835
757,1696244981334,-0.69921875,-0.24371338,-0.6687622,-0.375,-1.84375,-0.046875,836
758,1696244981374,-0.69018555,-0.23883057,-0.6724243,-0.421875,-1.328125,0.28125,837
759,1696244981414,-0.6921387,-0.24176025,-0.66851807,-0.125,-0.703125,0.25,838
