# Sensor type: Respeck
# Activity type: Sitting
# Activity subtype: Coughing
# Subject id: s2104454
# Notes: unprocessed
timestamp,accel_x,accel_y,accel_z,gyro_x,gyro_y,gyro_z
1696246325162,0.34326172,-0.90704346,-0.097717285,0.109375,13.46875,0.96875
1696246325201,-0.06225586,-0.8633423,-0.07501221,2.859375,6.34375,5.96875
1696246325221,0.06518555,-0.98394775,0.019714355,-3.75,3.28125,0.90625
1696246325261,0.14672852,-0.8726196,-0.08502197,-1.390625,-12.734375,-6.078125
1696246325302,0.07373047,-0.986145,-0.12823486,5.78125,-16.515625,2.359375
1696246325361,0.114990234,-1.0874634,-0.11138916,7.515625,-9.28125,1.4375
1696246325381,0.13476562,-1.060852,-0.10064697,1.328125,1.6875,-3.953125
1696246325442,0.14208984,-0.9194946,-0.12554932,-3.375,1.796875,1.9375
1696246325483,0.118896484,-1.0725708,-0.23638916,-9.109375,32.03125,4.671875
1696246325502,0.23828125,-0.85479736,0.04168701,4.328125,10.5625,-2.765625
1696246325543,-0.03857422,-0.8479614,-0.054016113,0.015625,9.484375,4.984375
1696246325601,0.09887695,-0.97784424,0.036071777,-4.640625,-6.078125,-1.640625
1696246325622,0.083984375,-0.98028564,-0.093322754,5.140625,-23.390625,-4.234375
1696246325684,0.045166016,-1.0864868,-0.14508057,13.171875,-19.296875,4.734375
1696246325701,0.14331055,-1.0581665,-0.06890869,0.921875,-2.265625,0.171875
1696246325763,0.12646484,-0.97003174,-0.16925049,-0.90625,1.421875,-7.328125
1696246325782,0.21118164,-0.89263916,-0.14556885,-0.4375,2.296875,3.328125
1696246325842,0.13452148,-0.9182739,-0.10406494,-2.8125,-0.28125,4.65625
1696246325865,0.10888672,-1.0515747,-0.23956299,-8.375,20.84375,-0.53125
1696246325904,0.1743164,-0.9336548,0.036071777,0.28125,7.875,-2.671875
1696246325923,-0.05517578,-0.9602661,0.007751465,-5.8125,0.9375,2.46875
1696246325964,0.037353516,-0.8945923,0.015075684,-4.84375,-11.328125,-6.171875
1696246326004,0.14672852,-0.9155884,-0.09210205,3.984375,-21.171875,-2.4375
1696246326043,0.052246094,-1.1470337,-0.10284424,7.625,-17.921875,4.484375
1696246326084,0.14208984,-1.0606079,-0.03277588,2.59375,-5.34375,0.359375
1696246326122,0.14550781,-0.8858032,-0.101867676,-0.796875,-3.953125,-2.21875
1696246326163,0.1315918,-0.90045166,-0.11114502,-4.71875,-2.15625,2.5
1696246326203,0.06689453,-1.0042114,-0.06060791,0.8125,-3.953125,-0.296875
1696246326243,0.09814453,-0.9998169,-0.07940674,-6.78125,2.21875,-8.453125
1696246326286,0.06713867,-0.91851807,-0.097473145,-1.640625,1.78125,-4.015625
1696246326322,0.12597656,-1.0488892,-0.11578369,0.8125,-0.609375,0.640625
1696246326362,0.07299805,-0.9661255,-0.09674072,-1.515625,-1.828125,-1.84375
1696246326404,0.12573242,-0.89508057,-0.11138916,-3.6875,0.4375,-0.421875
1696246326471,0.0017089844,-0.9624634,-0.035217285,3.953125,-3.1875,4.328125
1696246326481,0.1652832,-0.989563,-0.039611816,-0.078125,4.59375,0.453125
1696246326527,0.1459961,-1.0244751,-0.027404785,-1.78125,10.421875,-1.0
1696246326563,0.08886719,-1.048645,-0.15899658,-14.875,33.421875,0.296875
1696246326603,0.05419922,-0.85113525,0.12884521,7.4375,8.78125,0.21875
1696246326644,-0.2121582,-1.0613403,0.016052246,-2.25,-2.90625,4.546875
1696246326682,0.18847656,-0.93341064,0.06585693,-7.03125,-4.4375,-9.078125
1696246326723,0.11010742,-0.85113525,-0.12261963,7.3125,-20.0,-4.265625
1696246326765,0.05493164,-1.0725708,-0.09674072,11.6875,-13.390625,2.625
1696246326803,0.10058594,-1.0845337,-0.06500244,0.203125,-7.015625,0.578125
1696246326843,0.15551758,-0.9746704,-0.12896729,-4.578125,3.140625,-4.5625
1696246326884,0.0859375,-0.8557739,-0.06719971,-0.09375,-1.296875,4.421875
1696246326924,0.08105469,-0.92071533,-0.06890869,-1.953125,9.96875,4.75
1696246326963,0.060546875,-1.09552,-0.02130127,-5.984375,35.609375,-1.109375
1696246327003,-0.04711914,-0.8657837,0.074157715,3.640625,9.90625,-0.5
1696246327045,0.07910156,-0.975647,0.062683105,-3.796875,-0.015625,2.5
1696246327082,0.036132812,-0.96954346,0.010925293,0.4375,-17.296875,-2.5
1696246327123,0.1003418,-1.0071411,-0.13995361,10.640625,-24.234375,-2.890625
1696246327165,0.083496094,-1.2131958,-0.09259033,3.9375,-7.1875,1.578125
1696246327202,0.08642578,-0.913147,-0.074523926,-3.9375,-6.046875,-1.890625
1696246327224,0.037597656,-0.7854614,-0.12530518,2.625,-4.1875,-2.90625
1696246327283,0.18359375,-0.9356079,-0.117248535,2.9375,1.828125,4.515625
1696246327345,0.111328125,-1.0247192,-0.08380127,2.65625,-0.015625,5.40625
1696246327352,-0.013671875,-0.9729614,-0.05987549,-1.640625,1.640625,-0.6875
1696246327403,0.114746094,-1.0471802,-0.06329346,-3.28125,7.21875,1.609375
1696246327423,0.017089844,-1.1550903,-0.21002197,-10.171875,28.859375,4.484375
1696246327463,0.13964844,-0.82525635,0.050720215,0.28125,9.921875,-3.296875
1696246327505,0.09423828,-0.84869385,-0.11212158,-5.84375,4.96875,1.515625
1696246327541,0.076416016,-0.87750244,0.0036010742,1.8125,-14.375,0.90625
1696246327583,0.099365234,-1.0440063,-0.11187744,5.703125,-29.578125,-1.6875
1696246327622,0.111083984,-1.2937622,-0.09307861,6.40625,-8.90625,-3.828125
1696246327662,0.07543945,-0.9356079,-0.07110596,-3.296875,-4.484375,-0.015625
1696246327725,0.005859375,-0.7612915,-0.105041504,1.109375,-1.59375,-4.03125
1696246327741,0.19897461,-0.94415283,-0.12359619,3.8125,1.5625,1.15625
1696246327783,0.15136719,-1.0061646,-0.090148926,1.046875,-0.140625,5.484375
1696246327825,0.01586914,-0.9356079,-0.09161377,-0.34375,-2.46875,-1.46875
1696246327866,0.103515625,-1.0576782,-0.08502197,-0.75,5.546875,2.765625
1696246327906,0.046142578,-1.0828247,-0.08746338,-5.421875,12.5625,1.5
1696246327943,0.11743164,-0.95880127,-0.16973877,-10.171875,34.171875,-2.8125
1696246327985,0.025146484,-0.82476807,-0.0791626,-1.734375,7.046875,0.78125
1696246328044,0.05859375,-0.8814087,-0.005432129,-1.75,-7.71875,-0.609375
1696246328083,0.06225586,-1.0684204,-0.0154418945,3.328125,-22.03125,1.421875
1696246328124,0.13085938,-1.2212524,-0.10772705,3.71875,-18.65625,-2.953125
1696246328141,0.11450195,-1.0327759,-0.011779785,-1.421875,-13.09375,-2.65625
1696246328183,-0.015136719,-0.8323364,-0.043273926,-0.296875,-9.25,-4.171875
1696246328222,0.07495117,-0.85650635,-0.13580322,1.453125,-2.671875,-1.453125
1696246328292,0.17089844,-0.9951782,-0.09185791,7.609375,-0.578125,6.359375
1696246328302,0.10888672,-1.062561,-0.053771973,1.484375,-1.21875,2.734375
1696246328345,0.022949219,-0.9939575,-0.16168213,-2.21875,-4.3125,0.5625
1696246328384,0.095458984,-0.9319458,-0.113586426,-0.328125,0.3125,-0.796875
1696246328445,0.13647461,-1.0083618,-0.07574463,-3.484375,5.609375,-0.8125
1696246328466,0.08618164,-0.9480591,-0.08111572,-2.4375,1.265625,-1.015625
1696246328524,0.025634766,-0.9636841,-0.06109619,0.390625,2.765625,2.375
1696246328543,0.16772461,-1.0122681,-0.04815674,-0.015625,5.578125,1.234375
1696246328562,0.076660156,-0.99053955,-0.030822754,-0.46875,6.65625,1.859375
1696246328603,0.072509766,-0.9932251,-0.04888916,-5.890625,12.859375,2.484375
1696246328642,0.009521484,-0.9690552,-0.15802002,-2.5625,11.453125,2.09375
1696246328685,0.18188477,-0.88531494,-0.081604004,7.09375,11.53125,-0.28125
1696246328723,0.012451172,-0.94195557,-0.07550049,0.453125,1.78125,1.890625
1696246328762,0.079589844,-1.0042114,0.06976318,0.0625,-5.09375,1.859375
1696246328804,0.052001953,-1.0374146,-0.03765869,0.796875,-21.359375,-4.28125
1696246328844,0.16674805,-1.0911255,-0.14703369,7.609375,-14.765625,-5.40625
1696246328887,0.1159668,-1.0110474,-0.04547119,0.515625,-10.234375,-0.390625
1696246328923,0.008544922,-0.8596802,-0.11773682,-1.078125,-2.625,-2.15625
1696246328964,0.17700195,-0.862854,-0.14483643,1.71875,4.015625,0.828125
1696246329003,0.1340332,-0.98443604,-0.05718994,2.921875,-2.234375,7.375
1696246329044,0.017089844,-1.0132446,-0.08917236,-2.0625,5.46875,1.65625
1696246329083,0.055419922,-1.0706177,-0.20196533,-2.046875,16.296875,0.359375
1696246329125,0.12207031,-0.94195557,-0.04473877,0.234375,11.4375,3.46875
1696246329162,0.06298828,-0.8989868,-0.1194458,-9.015625,3.21875,-1.15625
1696246329204,0.068847656,-0.89849854,-0.02935791,-0.234375,-9.03125,0.875
1696246329242,0.08935547,-1.085022,0.0014038086,3.328125,-29.578125,-0.5
1696246329282,0.11645508,-1.2542114,-0.1687622,3.671875,-14.6875,-3.3125
1696246329323,0.11279297,-0.9138794,-0.034729004,-1.796875,-6.21875,-2.578125
1696246329364,-0.001953125,-0.69903564,-0.105285645,2.96875,-5.109375,-4.140625
1696246329405,0.15966797,-0.9175415,-0.12872314,7.453125,-0.734375,3.140625
1696246329444,0.15161133,-1.125061,-0.09625244,2.640625,2.125,6.625
1696246329484,0.06591797,-0.975647,-0.059631348,-0.34375,1.609375,-1.796875
1696246329525,0.012939453,-1.015686,-0.07208252,1.484375,5.171875,2.453125
1696246329572,0.03491211,-1.0510864,-0.011047363,-6.71875,8.109375,1.703125
1696246329602,0.08105469,-0.98101807,-0.06915283,-9.65625,15.78125,-3.578125
1696246329646,0.09033203,-0.93585205,-0.14019775,-5.78125,30.46875,-0.8125
1696246329684,0.022949219,-0.8447876,-0.061340332,-3.1875,7.9375,3.375
1696246329723,0.09814453,-0.8755493,0.016296387,2.0,-2.234375,0.734375
1696246329763,0.09887695,-1.0696411,6.713867E-4,8.265625,-19.125,2.640625
1696246329804,0.033203125,-1.2988892,-0.1651001,10.296875,-28.96875,-0.140625
1696246329845,0.053466797,-1.0449829,0.039978027,-3.5625,-5.9375,-5.75
1696246329862,0.044189453,-0.7420044,-0.14215088,-1.15625,-5.765625,-3.4375
1696246329904,0.13647461,-0.81573486,-0.13848877,5.546875,-2.453125,-0.703125
1696246329943,0.16772461,-1.0457153,-0.116760254,5.90625,-2.03125,7.453125
1696246330006,0.1015625,-0.99884033,-0.1482544,-0.890625,3.015625,0.546875
1696246330045,0.087402344,-0.9636841,-0.086242676,3.96875,0.921875,2.5625
1696246330061,0.008300781,-1.0484009,-0.065979004,-1.421875,6.453125,4.40625
1696246330103,0.08178711,-0.99176025,-0.04083252,-5.21875,6.0,-3.078125
1696246330142,0.07348633,-0.9819946,-0.08721924,-6.5625,8.21875,-1.5
1696246330184,0.1184082,-0.93878174,-0.07354736,-8.984375,8.03125,-0.515625
1696246330230,0.09033203,-1.0293579,-0.04473877,-7.015625,26.40625,-0.671875
1696246330263,0.024658203,-0.8291626,-0.07232666,-4.4375,4.390625,3.109375
1696246330306,0.047851562,-0.8286743,-0.006164551,-1.203125,-3.140625,1.921875
1696246330343,0.119628906,-1.1382446,0.031677246,9.5625,-17.78125,2.640625
1696246330384,-0.08544922,-1.3362427,-0.0012817383,2.796875,-21.125,0.75
1696246330425,0.011474609,-1.0559692,-0.03765869,-11.203125,-2.671875,-2.65625
1696246330464,0.09765625,-0.7703247,-0.046691895,-6.25,-5.15625,-3.4375
1696246330504,0.12451172,-0.82110596,-0.10650635,1.8125,-3.859375,-6.4375
1696246330546,0.19848633,-0.9505005,-0.101867676,2.234375,-1.78125,3.484375
1696246330584,0.11279297,-0.9927368,-0.038879395,1.296875,-4.625,0.484375
1696246330622,0.07910156,-1.0769653,-0.035705566,-3.25,-1.96875,1.21875
1696246330663,0.057617188,-1.0293579,-0.058410645,-9.578125,1.40625,1.0
1696246330704,0.025146484,-0.95440674,-0.09893799,3.515625,-4.046875,-0.171875
1696246330744,0.06713867,-0.91851807,-0.04034424,4.109375,2.9375,-1.828125
1696246330800,0.18896484,-0.90997314,-0.12872314,-0.90625,4.5,1.359375
1696246330822,0.033935547,-0.96588135,-0.016174316,8.328125,-1.578125,4.09375
1696246330863,0.10888672,-1.0095825,-0.0413208,1.46875,5.703125,2.140625
1696246330905,0.14477539,-0.97491455,-0.027648926,0.75,4.3125,0.625
1696246330944,0.04272461,-1.0134888,-0.055236816,-0.703125,8.015625,2.640625
1696246330986,0.06616211,-1.0007935,-0.04058838,1.703125,9.359375,1.40625
1696246331023,0.06713867,-0.9898071,-0.26324463,0.4375,17.796875,-0.4375
1696246331066,0.10083008,-0.8989868,0.11102295,-1.46875,-2.15625,0.03125
1696246331107,-0.0043945312,-0.9561157,-0.1038208,-5.578125,-3.625,3.46875
1696246331146,0.05517578,-0.92852783,0.078308105,4.15625,-4.59375,0.3125
1696246331162,0.068847656,-1.131897,0.0289917,9.203125,-18.875,-0.4375
1696246331203,0.08203125,-1.28302,-0.1795044,8.34375,-7.46875,-1.296875
1696246331242,0.08959961,-0.9312134,-0.10723877,-2.4375,-7.359375,-8.953125
1696246331304,0.17138672,-0.63067627,-0.16412354,-3.34375,8.0625,-4.5
1696246331323,0.19506836,-0.88726807,-0.10406494,8.234375,3.234375,8.203125
1696246331364,0.06274414,-1.1482544,-0.11578369,-0.03125,4.25,8.578125
1696246331405,0.12646484,-1.0635376,-0.16998291,-3.296875,23.515625,-4.421875
1696246331442,-0.14135742,-0.913147,0.028259277,-4.265625,-5.5625,6.109375
1696246331483,0.103759766,-0.9011841,-0.007873535,-9.078125,0.671875,0.765625
1696246331523,0.18701172,-0.97540283,-0.038635254,0.890625,-10.09375,-2.6875
1696246331585,-0.037353516,-1.2234497,-0.012756348,9.671875,-17.890625,2.890625
1696246331602,-0.0026855469,-1.1773071,-0.18145752,12.765625,-8.1875,-0.78125
1696246331643,0.09326172,-0.8911743,0.010437012,-0.84375,-3.921875,-5.109375
1696246331685,0.12695312,-0.6506958,-0.1795044,4.296875,-5.296875,-6.71875
1696246331724,0.2890625,-0.911438,-0.2053833,7.078125,0.703125,5.046875
1696246331765,0.12792969,-1.1008911,-0.11138916,0.53125,-1.109375,8.46875
1696246331803,-0.0087890625,-0.96661377,-0.13848877,-1.15625,0.359375,-2.671875
1696246331846,0.08862305,-1.0081177,-0.10723877,-3.96875,5.859375,2.171875
1696246331885,0.087646484,-1.0713501,-0.07574463,-8.203125,5.484375,1.953125
1696246331944,0.013916016,-0.9729614,-0.12628174,-11.90625,15.125,-4.1875
1696246331985,0.22875977,-0.76641846,0.010681152,-11.828125,10.609375,-4.3125
1696246332003,0.07470703,-0.8870239,-0.1921997,-9.375,-1.703125,6.9375
1696246332044,0.10888672,-0.9336548,-0.1038208,1.390625,-1.09375,2.578125
1696246332084,0.13598633,-1.1997681,0.010192871,11.015625,-14.59375,3.0625
1696246332126,-0.10107422,-1.2178345,-0.05596924,5.09375,-13.28125,2.140625
1696246332162,0.025390625,-0.96710205,0.0040893555,2.234375,-5.78125,-7.046875
1696246332204,0.1550293,-0.76348877,-0.1506958,0.96875,-5.71875,-6.015625
1696246332264,0.17749023,-0.80255127,-0.14434814,5.625,-2.8125,-2.78125
1696246332282,0.25463867,-1.0222778,-0.15631104,7.25,-2.640625,4.796875
1696246332323,0.111328125,-0.9871216,-0.13409424,0.9375,-1.953125,3.53125
1696246332365,0.017089844,-1.0007935,-0.11651611,0.125,1.625,2.109375
1696246332403,0.07104492,-1.0474243,-0.054748535,-4.71875,5.375,3.140625
1696246332442,0.02709961,-1.0027466,-0.044006348,-7.84375,7.015625,-1.171875
1696246332506,0.052001953,-0.95269775,-0.07476807,-11.265625,10.875,-2.78125
1696246332509,0.12475586,-0.98638916,-0.14337158,-5.734375,19.34375,0.71875
1696246332544,-0.046142578,-0.87506104,-0.018127441,-7.0,-2.609375,3.703125
1696246332584,0.11303711,-0.8543091,-0.046936035,-3.734375,-0.75,0.03125
1696246332623,0.21289062,-1.0791626,-0.042541504,7.734375,-9.921875,2.0
1696246332665,-0.07080078,-1.2493286,0.019226074,8.03125,-14.046875,2.28125
1696246332703,-0.036132812,-1.0498657,-0.06402588,-2.171875,-6.953125,-3.84375
1696246332742,0.12231445,-0.862854,0.07220459,-4.546875,-7.421875,-3.09375
1696246332784,0.14013672,-0.86505127,-0.12750244,-1.21875,-3.609375,0.90625
1696246332823,0.17211914,-0.9067993,-0.089660645,-3.046875,-1.1875,1.4375
1696246332865,0.14257812,-0.97125244,-0.11846924,-4.671875,-6.1875,-0.234375
1696246332903,0.091308594,-1.0325317,-0.04864502,-3.453125,2.109375,-2.671875
1696246332944,0.14160156,-1.0671997,-0.10723877,-2.53125,-4.21875,-6.140625
1696246332984,0.021728516,-0.95684814,-0.031311035,2.21875,-5.078125,-2.5625
1696246333024,0.092285156,-0.88897705,-0.14727783,1.0,-0.890625,2.015625
1696246333063,0.06274414,-0.9295044,-0.026916504,8.578125,1.578125,-0.03125
1696246333103,0.087646484,-1.0261841,-0.027404785,3.75,4.375,4.015625
1696246333141,0.09838867,-0.97906494,-0.06304932,-0.078125,7.59375,0.484375
1696246333183,0.11352539,-0.9741821,-0.07208252,0.59375,10.03125,-0.15625
1696246333223,0.06616211,-1.0271606,-0.027648926,0.78125,12.015625,2.390625
1696246333263,0.02368164,-0.97491455,-0.19415283,1.625,13.359375,-1.15625
1696246333304,0.16552734,-0.83258057,0.089782715,-6.0625,1.78125,-2.65625
1696246333348,0.032470703,-0.9524536,-0.06378174,-6.515625,-6.1875,4.390625
1696246333383,0.10913086,-0.91070557,-3.0517578E-4,2.578125,-2.90625,-2.25
1696246333424,0.10839844,-1.1929321,0.0138549805,12.40625,-16.40625,3.1875
1696246333462,-0.10058594,-1.2566528,-0.10479736,9.796875,-7.96875,1.765625
1696246333504,0.0026855469,-0.90802,0.03265381,-0.046875,-1.75,-8.8125
1696246333544,0.18920898,-0.6799927,-0.19366455,-1.8125,6.109375,-7.6875
1696246333583,0.26171875,-0.80352783,-0.15899658,5.078125,0.3125,1.015625
1696246333625,0.14648438,-1.0708618,-0.10601807,2.109375,0.765625,12.0
1696246333663,0.033935547,-1.0789185,-0.1272583,-4.671875,10.328125,0.28125
1696246333702,0.072509766,-1.0061646,0.16400146,-10.484375,6.796875,-2.6875
1696246333743,-0.24243164,-0.97784424,-0.10699463,-13.171875,2.328125,10.09375
1696246333829,0.11816406,-0.897522,0.031921387,-3.65625,3.265625,-2.53125
1696246333833,0.11767578,-1.0703735,-0.039123535,8.84375,-6.765625,4.28125
1696246333842,-0.06298828,-1.1924438,-0.024963379,9.59375,-6.421875,4.90625
1696246333926,0.05859375,-1.0254517,-0.13336182,11.59375,-3.875,-5.359375
1696246333930,0.07421875,-0.87945557,-0.024963379,7.25,-6.953125,-0.078125
1696246333963,0.18139648,-0.7654419,-0.13067627,7.59375,-6.671875,1.125
1696246334005,0.27685547,-0.88775635,-0.20098877,5.4375,-2.859375,1.921875
1696246334043,0.16894531,-1.0073853,-0.18511963,2.96875,-5.65625,5.515625
1696246334084,0.046142578,-0.973938,-0.12335205,1.0625,-1.546875,3.28125
1696246334143,0.05883789,-1.0213013,-0.13800049,-2.40625,3.90625,-0.390625
1696246334184,0.12402344,-1.0388794,-0.061828613,-8.53125,5.875,0.546875
1696246334202,0.05493164,-0.9824829,-0.07965088,-13.046875,8.671875,-1.625
1696246334243,0.10668945,-0.92193604,-0.27227783,-12.625,20.1875,-2.765625
1696246334282,0.088134766,-0.7896118,0.036071777,-11.796875,-2.265625,0.78125
1696246334345,0.10644531,-0.8858032,-0.09429932,-8.59375,-0.734375,4.0
1696246334362,0.2434082,-1.02594,-0.051330566,1.65625,-3.3125,4.125
1696246334403,0.037353516,-1.2039185,-0.007385254,10.609375,-10.078125,6.8125
1696246334444,-0.047851562,-1.0374146,-0.024719238,4.984375,-5.5625,-2.859375
1696246334484,0.091308594,-0.95880127,-0.08746338,11.921875,-6.1875,-5.734375
1696246334532,0.17480469,-0.9192505,-0.08868408,2.359375,-3.359375,-1.59375
1696246334563,0.25610352,-0.8255005,-0.1428833,1.25,-5.34375,-1.953125
1696246334605,0.19555664,-0.9011841,-0.14117432,4.46875,-7.03125,2.0
1696246334643,0.07104492,-1.0386353,-0.11578369,4.5,-5.03125,5.46875
1696246334684,0.047607422,-1.0408325,-0.07501221,-2.15625,0.46875,0.15625
1696246334723,0.057861328,-0.96173096,-0.09454346,-5.015625,4.5,-0.234375
1696246334762,0.11279297,-0.9314575,-0.06427002,-4.46875,4.21875,-2.09375
1696246334803,0.072753906,-0.9817505,-0.07989502,-3.75,2.171875,-0.25
1696246334863,0.15673828,-0.9678345,-0.07086182,-8.515625,5.578125,-1.84375
1696246334907,0.10961914,-1.0166626,-0.0881958,-6.84375,8.734375,0.53125
1696246334943,0.115722656,-0.9492798,0.029724121,-8.578125,13.546875,0.84375
1696246334962,0.03881836,-0.86187744,-0.13677979,-12.15625,1.578125,1.25
1696246335004,0.14257812,-0.9102173,-0.05279541,-2.0,2.21875,1.78125
1696246335045,0.15307617,-1.1741333,0.018493652,9.15625,-10.09375,-0.359375
1696246335145,0.01928711,-1.1604614,0.010681152,0.265625,-7.6875,-1.140625
1696246335147,0.10888672,-0.95513916,-0.047424316,-3.0625,-9.203125,-5.703125
1696246335150,0.049560547,-0.9168091,-0.022033691,1.671875,-5.015625,0.46875
1696246335182,0.09863281,-0.91778564,-0.070129395,-0.546875,-4.71875,2.4375
1696246335224,0.14550781,-0.8755493,-0.03375244,-4.765625,-4.6875,-1.734375
1696246335283,0.13330078,-0.9902954,-0.09454346,-1.125,-4.53125,-1.765625
1696246335324,0.0871582,-1.0838013,-0.0076293945,-1.453125,0.125,-1.703125
1696246335341,-0.0043945312,-1.0527954,-0.05670166,-6.703125,-1.078125,-4.859375
1696246335405,0.03881836,-0.9199829,-0.022521973,-4.359375,0.859375,-8.703125
1696246335423,0.23999023,-0.944397,-0.10748291,2.640625,1.5625,4.4375
1696246335485,0.13891602,-0.9480591,-0.09259033,3.828125,-2.1875,1.53125
1696246335525,0.0625,-0.92852783,-0.023254395,6.640625,-0.5625,-0.53125
1696246335541,0.1315918,-0.9866333,-0.031066895,5.328125,-0.828125,3.234375
1696246335583,0.07348633,-1.0291138,0.012145996,2.859375,3.140625,0.453125
1696246335644,0.001953125,-1.0178833,-0.049621582,1.0625,6.90625,1.5625
1696246335682,0.08911133,-0.973938,-0.028137207,0.859375,13.78125,0.671875
1696246335731,0.048828125,-0.9607544,-0.300354,1.140625,9.9375,1.1875
1696246335742,0.0859375,-0.85113525,0.05657959,-3.859375,-4.390625,1.984375
1696246335784,0.104003906,-0.97662354,-0.05206299,-7.5625,-6.578125,2.375
1696246335824,0.13867188,-0.9456177,-0.011779785,1.859375,-2.546875,0.9375
1696246335865,0.12475586,-1.1809692,0.051208496,11.3125,-12.203125,1.328125
1696246335904,-0.0068359375,-1.1602173,-0.07940674,6.09375,-5.8125,0.53125
1696246335945,0.06762695,-0.8921509,-0.023498535,0.78125,-3.25,-9.875
1696246335983,0.16333008,-0.71417236,-0.11456299,-2.4375,6.421875,-3.546875
1696246336026,0.1394043,-0.81695557,-0.10675049,4.703125,-1.59375,5.875
1696246336083,0.11010742,-1.0789185,-0.10284424,1.03125,-0.25,8.296875
1696246336102,0.12133789,-1.1265259,-0.13726807,-4.453125,13.171875,-0.546875
1696246336164,-0.119384766,-0.88653564,0.034118652,-5.140625,-6.59375,4.59375
1696246336193,0.13012695,-0.9360962,0.007507324,-6.265625,2.09375,3.546875
1696246336224,0.21386719,-1.0789185,-0.009094238,1.859375,-4.796875,2.75
1696246336264,-0.0036621094,-1.0723267,-0.014709473,8.9375,-5.953125,5.390625
1696246336305,0.05029297,-1.0256958,-0.05206299,2.765625,-8.484375,-3.125
1696246336344,0.114990234,-1.0171509,-0.027160645,11.25,-7.9375,-3.9375
1696246336384,0.09106445,-0.9246216,-0.082336426,5.484375,-7.15625,0.703125
1696246336446,0.18041992,-0.848938,-0.109436035,3.046875,-3.515625,1.625
1696246336450,0.19067383,-0.85113525,-0.15264893,4.875,-1.65625,1.1875
1696246336483,0.14208984,-0.96759033,-0.13018799,4.265625,0.4375,2.796875
1696246336525,0.11206055,-1.024231,-0.10015869,1.9375,-1.796875,0.78125
1696246336565,0.08178711,-1.0369263,-0.074523926,-2.84375,1.796875,0.0625
1696246336606,0.09765625,-0.9973755,-0.033996582,-5.359375,5.03125,-1.25
1696246336645,0.052490234,-0.96099854,-0.07550049,-8.796875,6.78125,-1.921875
1696246336687,0.1784668,-0.93829346,-0.09552002,-9.765625,7.546875,-3.296875
1696246336725,0.13916016,-1.0059204,-0.18878174,-4.515625,19.0625,-0.0625
1696246336762,-0.05810547,-0.8501587,0.027770996,-5.84375,-4.65625,0.828125
1696246336805,0.17626953,-0.8760376,0.005065918,-4.359375,0.046875,-0.515625
1696246336846,0.20043945,-1.1192017,-0.0095825195,5.625,-6.734375,2.859375
1696246336884,-0.041503906,-1.2000122,0.039245605,6.21875,-8.21875,1.8125
1696246336926,0.01977539,-0.972229,-0.030090332,-1.21875,-6.890625,-7.625
1696246336965,0.078125,-0.9158325,-0.06866455,4.984375,-3.40625,-2.984375
1696246337008,0.09716797,-0.9397583,-0.078186035,5.921875,-5.109375,1.890625
1696246337044,0.14868164,-0.89971924,-0.1116333,1.65625,-4.75,-1.34375
1696246337091,0.17529297,-0.9092407,-0.07720947,1.890625,-3.09375,-2.453125
1696246337125,0.09472656,-1.0664673,-0.074035645,1.140625,-4.21875,-0.53125
1696246337167,0.07128906,-1.0689087,-0.041809082,-8.359375,-0.765625,-3.84375
1696246337207,0.011962891,-1.0015259,-0.08282471,-10.4375,-1.265625,-5.78125
1696246337244,0.030761719,-0.90802,-0.0413208,-4.453125,-1.5,-6.84375
1696246337283,0.13134766,-0.8814087,-0.13336182,0.3125,0.234375,0.46875
1696246337326,0.13305664,-0.9558716,-0.1350708,2.765625,-0.75,2.796875
1696246337363,0.072265625,-0.9859009,-0.020080566,5.484375,1.0625,0.828125
1696246337403,0.06933594,-0.99957275,-0.03253174,3.1875,1.609375,1.421875
1696246337459,0.07836914,-0.98150635,-0.0032348633,-2.28125,3.84375,0.359375
1696246337485,0.022460938,-1.0137329,-0.03741455,-1.15625,3.40625,1.296875
1696246337524,0.0715332,-0.9939575,-0.026672363,-3.140625,3.15625,-0.515625
1696246337565,0.033447266,-0.97003174,-0.035461426,-3.3125,6.78125,0.984375
1696246337602,0.06201172,-0.97979736,-0.13140869,-1.71875,9.0625,-0.0625
1696246337645,0.11645508,-0.77423096,0.07366943,-7.90625,3.78125,-0.09375
1696246337685,0.044677734,-0.9800415,-0.093322754,-7.375,-4.453125,6.265625
1696246337724,0.11010742,-0.97735596,-0.020812988,-2.015625,0.640625,0.484375
1696246337742,0.14526367,-1.144104,0.042419434,8.328125,-8.171875,3.03125
1696246337786,-0.029052734,-1.0999146,0.0060424805,5.21875,-4.765625,2.203125
1696246337844,0.038085938,-0.96832275,-0.07086182,5.453125,-3.859375,-7.8125
1696246337865,0.2084961,-0.8596802,-0.09259033,-3.5625,4.8125,-4.390625
1696246337923,0.11669922,-0.815979,-0.11578369,-0.3125,0.8125,3.671875
1696246337942,0.10229492,-0.97198486,-0.09967041,0.15625,4.40625,7.15625
1696246337986,0.09375,-1.0635376,-0.038635254,2.359375,3.1875,2.921875
1696246338027,-0.064941406,-0.9951782,-0.014709473,-2.609375,-1.734375,2.40625
1696246338062,-0.059814453,-0.9627075,-0.105041504,-9.6875,2.9375,6.703125
1696246338102,0.19067383,-0.9578247,0.039978027,-3.953125,-0.40625,2.625
1696246338144,0.099609375,-1.0327759,-0.054016113,2.65625,-1.59375,8.6875
1696246338186,0.11352539,-1.0723267,-0.018859863,3.765625,2.171875,6.0
1696246338247,0.13989258,-0.9006958,-0.101135254,7.671875,2.09375,2.0625
1696246338287,0.10888672,-1.0007935,-0.004699707,12.46875,-8.578125,8.4375
1696246338325,0.0703125,-1.0667114,-0.12701416,3.78125,-3.34375,-2.203125
1696246338342,0.18041992,-0.9151001,-0.05718994,-2.34375,3.703125,-0.734375
1696246338384,0.1472168,-0.8735962,-0.105529785,1.21875,3.03125,4.140625
1696246338424,0.20458984,-0.9356079,-0.08502197,0.015625,4.28125,0.3125
1696246338464,0.19433594,-0.9348755,-0.08648682,-2.84375,2.625,2.171875
1696246338505,0.1508789,-0.94415283,-0.06524658,-0.09375,0.375,1.640625
1696246338544,0.05517578,-1.0247192,-0.019348145,-8.28125,-5.78125,1.765625
1696246338583,0.1496582,-0.92681885,-0.03253174,-5.25,-0.9375,0.71875
1696246338624,0.20410156,-1.0293579,-0.022033691,0.203125,-4.875,2.109375
1696246338664,0.107666016,-1.0713501,-0.034729004,2.1875,-1.15625,3.109375
1696246338704,0.07836914,-1.0127563,-0.0095825195,4.90625,-4.015625,-2.53125
1696246338746,0.115234375,-0.98321533,-0.004211426,1.609375,-6.953125,-7.546875
1696246338804,0.12817383,-0.99102783,-0.054992676,7.046875,-9.46875,-3.828125
1696246338845,0.053955078,-0.9495239,-0.09136963,5.3125,-7.203125,2.53125
1696246338863,0.1850586,-0.8599243,-0.05670166,4.15625,-0.484375,-1.421875
1696246338904,0.15307617,-0.90875244,-0.14239502,0.03125,-3.265625,-2.734375
1696246338946,0.16064453,-1.0105591,-0.10015869,-0.65625,-5.859375,-5.140625
1696246338985,0.14111328,-1.0505981,-0.05670166,-4.609375,-0.828125,-6.984375
1696246339023,0.05810547,-0.9397583,-0.07354736,-5.59375,-0.84375,-5.0625
1696246339063,0.13745117,-0.9368286,-0.038635254,-6.0,-0.203125,-4.59375
1696246339082,0.12695312,-1.005188,-0.05328369,-1.3125,-2.46875,-1.9375
1696246339122,0.02734375,-0.9649048,-0.05645752,-2.953125,-1.640625,-1.484375
1696246339165,0.099853516,-0.9829712,-0.03692627,-3.625,0.921875,-1.96875
1696246339203,0.12402344,-1.006897,-0.023254395,-4.0625,-0.6875,-1.9375
1696246339244,0.079833984,-0.94854736,-0.018615723,-2.265625,-1.265625,-1.296875
1696246339283,0.061767578,-0.99176025,-0.01763916,1.328125,-3.171875,0.484375
1696246339323,0.057128906,-0.9924927,-0.036193848,-2.640625,-1.28125,-0.671875
1696246339366,0.092285156,-0.96759033,-0.055725098,-1.984375,-0.859375,-0.453125
1696246339405,0.09887695,-0.96954346,-0.039855957,-1.1875,-0.0625,-0.75
1696246339443,0.07299805,-0.9849243,-0.01373291,3.109375,-1.15625,1.03125
1696246339485,0.07763672,-0.98638916,-0.02960205,1.4375,-1.265625,0.75
1696246339523,0.083984375,-0.9771118,-0.019348145,1.109375,-0.703125,0.578125
1696246339563,0.07104492,-0.9883423,0.0036010742,1.03125,-0.90625,0.53125
1696246339606,0.092285156,-0.98443604,-0.049865723,-0.953125,-2.65625,-0.125
1696246339645,0.096191406,-0.96588135,-0.038391113,0.484375,-2.953125,0.390625
1696246339685,0.0769043,-0.9927368,-0.039367676,1.53125,-1.671875,1.265625
1696246339721,0.067871094,-0.9873657,-0.024719238,3.140625,-0.46875,0.8125
1696246339764,0.10449219,-0.96539307,-0.059143066,4.5,1.46875,0.59375
1696246339807,0.10961914,-1.019104,-0.036193848,3.21875,1.078125,0.375
1696246339846,0.034179688,-0.97125244,-0.04547119,2.625,-2.203125,0.390625
1696246339888,0.08227539,-0.97784424,-0.08013916,-0.40625,4.953125,-0.5625
1696246339925,0.16064453,-0.97735596,-0.018371582,2.53125,2.109375,1.703125
1696246339964,0.0041503906,-1.0007935,-0.058410645,2.6875,0.546875,0.984375
1696246340004,0.10839844,-0.9619751,-0.07110596,-1.296875,5.46875,1.34375
1696246340044,0.10864258,-0.9763794,-0.038146973,1.78125,0.453125,1.15625
1696246340085,0.05493164,-0.96832275,-0.078430176,-0.234375,2.421875,1.1875
1696246340124,0.10205078,-0.9636841,-0.051818848,-0.5625,-0.09375,0.140625
1696246340166,0.06274414,-0.989563,-0.08258057,0.515625,1.265625,1.359375
1696246340206,0.11450195,-0.97735596,-0.04888916,-0.484375,0.0625,-0.078125
1696246340245,0.059326172,-0.9746704,-0.045959473,1.078125,0.203125,1.625
1696246340287,0.11230469,-0.9639282,-0.06915283,-0.390625,2.21875,0.59375
1696246340322,0.100097656,-0.986145,-0.070373535,-0.09375,1.234375,0.5
1696246340363,0.08496094,-0.96832275,-0.058166504,-0.171875,1.859375,0.90625
1696246340383,0.076416016,-0.9817505,-0.05255127,-0.59375,1.625,0.578125
1696246340444,0.13842773,-0.9927368,-0.04425049,-0.546875,1.609375,-1.125
1696246340463,0.07910156,-0.95635986,-0.06060791,-1.65625,-0.046875,0.0625
1696246340504,0.09375,-0.9890747,-0.065979004,-1.4375,1.5625,-1.421875
1696246340543,0.044433594,-0.98931885,-0.13653564,-2.125,10.140625,0.859375
1696246340606,0.08325195,-0.923645,0.027770996,4.828125,2.0,0.96875
1696246340624,0.10644531,-0.9546509,-0.049621582,-2.765625,1.03125,0.171875
1696246340687,0.07373047,-0.9529419,-0.012756348,0.203125,-1.15625,6.140625
1696246340703,0.07128906,-1.0835571,-0.035217285,6.75,-8.609375,1.625
1696246340743,0.09350586,-1.0569458,-0.105285645,5.40625,-11.0,-4.625
1696246340783,0.16503906,-0.9260864,-0.07867432,7.5625,-4.796875,-5.796875
1696246340843,0.12084961,-0.9241333,-0.093811035,3.46875,-4.53125,0.890625
1696246340862,0.15185547,-0.9558716,-0.14508057,-2.390625,3.9375,1.640625
1696246340925,0.122802734,-0.9241333,-0.13214111,-0.453125,0.9375,1.375
1696246340942,0.05859375,-0.9636841,-0.07989502,-1.625,3.140625,1.9375
1696246340985,0.111328125,-1.0178833,-0.03668213,-4.421875,3.671875,0.859375
1696246341025,0.040283203,-1.0252075,-0.036193848,-6.875,4.59375,-0.71875
1696246341064,0.076660156,-0.9644165,-0.15045166,-7.78125,16.0625,-0.921875
1696246341105,0.06298828,-0.81329346,0.03704834,-5.21875,1.671875,0.40625
1696246341167,0.056640625,-0.87164307,-0.06304932,-7.140625,-3.046875,1.828125
1696246341182,0.2529297,-1.0645142,0.003112793,2.203125,-5.890625,5.828125
1696246341225,0.041992188,-1.2310181,0.04071045,7.234375,-12.578125,0.546875
1696246341265,-0.04663086,-0.9834595,-0.038391113,2.0,-7.03125,-4.65625
1696246341325,0.06542969,-0.87457275,-0.031066895,10.40625,-7.6875,-2.90625
1696246341363,0.15332031,-0.9495239,-0.09869385,4.875,-3.625,1.015625
1696246341384,0.17553711,-0.89971924,-0.093811035,1.703125,-3.546875,-0.71875
1696246341424,0.1484375,-0.9024048,-0.14190674,2.046875,-1.296875,1.34375
1696246341464,0.09667969,-0.9639282,-0.13580322,2.0625,-1.3125,3.375
1696246341505,0.091552734,-1.0410767,-0.06866455,0.90625,-0.453125,1.1875
1696246341546,0.03125,-1.0064087,-0.07647705,-1.859375,3.171875,0.875
1696246341584,0.10668945,-0.97369385,-0.030578613,-3.109375,2.640625,-1.09375
1696246341626,0.06591797,-0.99053955,-0.058166504,-3.953125,3.9375,0.265625
1696246341683,0.15698242,-0.9487915,-0.055725098,-6.765625,4.859375,-2.40625
1696246341723,0.10058594,-0.9990845,-0.06939697,-5.53125,0.59375,-0.640625
1696246341726,0.06542969,-0.92755127,-0.12921143,-7.46875,15.140625,-0.125
1696246341765,0.028076172,-0.85406494,0.0072631836,-7.90625,0.46875,0.375
1696246341805,0.12011719,-0.87457275,-0.09527588,-5.546875,-4.453125,0.71875
1696246341846,0.16064453,-1.1106567,0.0138549805,3.796875,-5.3125,3.40625
1696246341883,-0.022705078,-1.2351685,0.046813965,3.046875,-7.609375,-3.421875
1696246341924,-0.007080078,-1.0137329,0.013122559,-5.453125,-2.875,-5.390625
1696246341963,0.099609375,-0.8713989,-0.016662598,-0.171875,-6.34375,-3.875
1696246342003,0.103759766,-0.87677,-0.035461426,3.0,-4.359375,0.546875
1696246342046,0.06201172,-0.91119385,-0.090148926,3.015625,-6.640625,2.78125
1696246342083,0.14160156,-0.9673462,-0.061584473,-0.734375,-3.265625,-0.75
1696246342124,0.12036133,-1.0401001,-0.033996582,-2.25,-1.9375,-2.28125
1696246342163,0.091552734,-1.0930786,0.017028809,-4.84375,-2.125,-2.15625
1696246342203,0.020751953,-1.0178833,-0.04937744,-7.453125,-4.578125,-5.375
1696246342243,0.025634766,-0.8440552,-0.074035645,3.046875,-3.828125,-5.390625
1696246342287,0.12548828,-0.93756104,-0.018127441,4.96875,-2.484375,3.40625
1696246342325,0.109375,-0.99176025,-0.11236572,2.71875,0.34375,1.09375
1696246342364,0.05102539,-0.9729614,0.030944824,4.6875,-0.578125,1.34375
1696246342404,0.016113281,-0.99957275,-0.031555176,-0.375,0.140625,2.1875
1696246342445,0.10961914,-0.9937134,-0.013977051,-1.9375,1.484375,-0.453125
1696246342484,0.061035156,-1.0244751,-0.050109863,-1.921875,1.6875,-0.859375
1696246342523,0.06616211,-0.9595337,0.010437012,-2.265625,3.375,-0.671875
1696246342565,0.040039062,-1.0054321,-0.04107666,-1.734375,5.28125,1.375
1696246342604,0.078125,-0.9673462,-0.038635254,-0.984375,4.671875,0.3125
1696246342644,0.037841797,-0.9751587,-0.003479004,-1.484375,3.515625,1.203125
1696246342685,0.032714844,-0.97003174,-0.20025635,-1.484375,18.65625,-0.390625
1696246342724,0.041503906,-0.9507446,0.061462402,0.5625,-1.296875,3.21875
1696246342764,0.03857422,-1.022522,0.013122559,-1.6875,0.015625,2.578125
1696246342804,0.072021484,-1.0369263,0.050476074,-0.640625,-3.625,-0.390625
1696246342860,0.030517578,-1.097229,0.06756592,0.171875,-7.3125,-0.75
1696246342883,0.02319336,-1.0376587,-0.027893066,1.78125,-7.34375,-4.03125
1696246342925,0.11645508,-0.8945923,-0.026428223,0.6875,-6.25,-3.921875
1696246342964,0.11206055,-0.8682251,-0.10430908,3.546875,-6.9375,-1.6875
1696246343006,0.13671875,-0.8982544,-0.0960083,3.265625,-0.71875,2.34375
1696246343023,0.0871582,-0.99420166,-0.050354004,2.484375,-3.640625,5.15625
1696246343065,-0.004638672,-1.072815,-0.046203613,2.375,0.453125,2.421875
1696246343125,0.078125,-1.0349731,-0.012023926,-0.40625,3.796875,-0.46875
1696246343143,0.052978516,-0.9829712,0.016784668,-2.921875,4.390625,-0.078125
1696246343205,0.02368164,-0.9763794,-0.00592041,-5.09375,6.5625,0.890625
1696246343223,0.11645508,-0.9495239,-0.016662598,-5.90625,9.359375,-2.3125
1696246343263,0.048828125,-1.0147095,-0.08355713,-1.734375,15.265625,3.0625
1696246343302,-0.013916016,-0.87823486,0.019714355,-1.5,-3.703125,5.25
1696246343344,0.06640625,-0.96661377,0.04071045,-0.015625,-2.375,1.921875
1696246343384,0.107421875,-1.1155396,0.057800293,6.21875,-6.609375,3.21875
1696246343426,-0.033447266,-1.1819458,0.058288574,2.71875,-9.046875,-1.703125
1696246343487,0.04736328,-0.9668579,-0.035461426,3.234375,-4.28125,-5.578125
1696246343524,0.10839844,-0.8609009,-0.020080566,4.96875,-7.0625,-3.140625
1696246343544,0.11206055,-0.8609009,-0.046936035,6.984375,-6.96875,0.859375
1696246343585,0.13745117,-0.911438,-0.08917236,8.75,-5.953125,1.328125
1696246343644,0.109375,-0.99053955,-0.10675049,7.96875,-5.1875,2.71875
1696246343685,0.11206055,-1.0576782,-0.07183838,3.0,-3.78125,1.921875
1696246343702,0.056884766,-1.0105591,-0.027160645,-0.0625,-1.171875,-0.921875
1696246343765,0.027832031,-0.95928955,-0.054992676,-3.8125,3.25,0.703125
1696246343803,0.078125,-0.9397583,-0.0713501,-3.84375,3.1875,-2.046875
1696246343823,0.08691406,-1.0220337,-0.033996582,-2.84375,3.484375,0.546875
1696246343885,0.053466797,-0.9644165,-0.059143066,-3.671875,2.21875,-1.796875
1696246343905,0.034179688,-1.0064087,-0.034973145,-3.40625,2.5625,0.21875
1696246343966,0.088378906,-0.9927368,-0.0064086914,-6.546875,4.875,-2.609375
1696246343984,0.021728516,-0.9968872,-0.003967285,-7.453125,8.453125,-0.109375
1696246344024,0.061767578,-0.8677368,-0.085510254,-7.015625,11.375,2.21875
1696246344064,0.053955078,-0.90093994,-0.053771973,-4.40625,-0.375,2.1875
1696246344106,0.09667969,-1.010315,-0.022277832,2.125,-3.078125,0.78125
1696246344165,0.064941406,-1.2774048,0.06463623,3.953125,-8.25,0.484375
1696246344182,-0.009277344,-1.0151978,0.0446167,-5.390625,-6.046875,-3.71875
1696246344224,0.0847168,-0.8262329,-0.0791626,-2.234375,-8.265625,-1.6875
1696246344264,0.10229492,-0.90826416,-0.009094238,0.8125,-7.0625,1.703125
1696246344324,0.13769531,-0.92926025,-0.042785645,1.671875,-4.765625,1.265625
1696246344343,0.08300781,-0.96417236,-0.01763916,1.578125,-7.0,0.875
1696246344363,0.056396484,-1.0530396,-0.020080566,-4.671875,-3.671875,-0.171875
1696246344404,0.05053711,-1.0667114,0.0033569336,-8.53125,-1.546875,-4.25
1696246344445,0.043701172,-0.9963989,0.019226074,-9.890625,-0.40625,-5.109375
1696246344485,0.035888672,-0.9487915,0.020202637,-1.484375,-1.265625,-4.28125
1696246344524,0.09448242,-0.9319458,-0.06011963,3.359375,-4.0,-1.421875
1696246344564,0.13549805,-0.9299927,-0.022033691,6.859375,-5.453125,2.0
1696246344602,0.057128906,-0.97052,-0.014465332,9.40625,-3.15625,3.71875
1696246344643,0.06762695,-0.98443604,-0.0032348633,5.34375,-0.234375,2.453125
1696246344685,0.0024414062,-1.0271606,0.016540527,0.859375,-2.484375,1.4375
1696246344724,-0.010253906,-0.991272,0.011657715,-2.0625,4.4375,0.140625
1696246344764,0.115722656,-0.9788208,0.024108887,-0.609375,4.421875,1.375
1696246344803,0.035888672,-1.0278931,-0.02178955,1.328125,5.953125,2.515625
1696246344843,0.07836914,-0.9595337,-0.010314941,-1.84375,8.25,0.765625
1696246344884,0.07714844,-0.9734497,-0.04937744,-0.09375,3.75,3.125
1696246344924,0.052734375,-0.95513916,-0.13067627,1.328125,9.71875,0.21875
1696246344965,0.1743164,-0.8430786,0.0770874,2.296875,6.3125,0.0
1696246345004,-0.03857422,-1.0383911,-0.04449463,1.671875,-3.375,5.53125
1696246345045,0.10107422,-1.0601196,0.012634277,-1.921875,2.0,-3.359375
1696246345085,0.11694336,-0.987854,0.022155762,-4.796875,-9.15625,-2.828125
1696246345125,-0.010253906,-0.92315674,-0.066711426,3.0625,-11.15625,-4.046875
1696246345166,0.13793945,-0.9627075,-0.066223145,5.359375,-5.875,-1.140625
1696246345204,0.14575195,-0.9685669,-0.057678223,3.15625,-2.578125,2.140625
1696246345245,0.053710938,-0.95440674,-0.046447754,3.625,-1.0,2.21875
1696246345283,0.044189453,-0.99346924,-0.061340332,2.578125,1.734375,2.953125
1696246345324,0.09887695,-0.9859009,-0.0037231445,1.5625,1.875,1.0
1696246345365,0.018066406,-1.0073853,-0.06573486,-3.25,3.484375,0.453125
1696246345405,0.0925293,-0.95513916,0.04168701,-4.921875,7.78125,-1.8125
1696246345444,-0.020507812,-1.0217896,-0.10089111,-2.375,20.953125,2.078125
1696246345482,0.09863281,-0.8484497,0.11468506,1.234375,2.03125,3.28125
1696246345530,-0.026367188,-0.9522095,0.016296387,0.78125,-0.484375,3.578125
1696246345565,0.10449219,-1.0967407,0.042175293,3.359375,-4.28125,1.015625
1696246345603,0.03955078,-1.2210083,0.046325684,-1.203125,-9.6875,-1.4375
1696246345643,0.020751953,-0.93341064,-0.04840088,-0.28125,-9.078125,-4.421875
1696246345665,0.13012695,-0.84991455,-0.0569458,5.03125,-3.15625,-2.53125
1696246345704,0.08935547,-0.9299927,-0.0713501,8.25,-6.890625,0.90625
1696246345743,0.11987305,-0.91534424,-0.09967041,3.0625,-2.09375,1.15625
1696246345803,0.13842773,-0.9639282,-0.07623291,4.125,-2.59375,2.96875
1696246345843,0.080078125,-1.0344849,-0.054992676,2.0625,-0.9375,3.96875
1696246345862,0.033203125,-1.019104,-0.06817627,0.546875,1.46875,1.84375
1696246345925,0.06567383,-0.9714966,-0.055725098,-3.625,1.0625,-0.34375
1696246345943,0.057617188,-1.0022583,-0.022521973,-4.703125,3.21875,0.59375
1696246345982,0.08642578,-0.9734497,-0.020812988,-8.609375,3.578125,-1.546875
1696246346045,0.13842773,-0.96221924,-0.105041504,-7.234375,11.015625,2.640625
1696246346061,0.010986328,-0.88653564,0.016540527,-2.765625,-4.0,0.578125
1696246346104,0.061767578,-1.0532837,-0.05206299,2.609375,-5.046875,1.046875
1696246346165,0.107421875,-1.206604,0.030944824,-3.375,-12.984375,-5.296875
1696246346182,0.02319336,-0.9578247,-0.047180176,-6.28125,-4.6875,-5.578125
1696246346224,0.057128906,-0.8274536,-0.0335083,-1.4375,-5.46875,-1.921875
1696246346285,0.1105957,-0.93707275,-0.05303955,2.171875,-6.25,-1.453125
1696246346303,0.119140625,-0.97076416,-0.051330566,-0.59375,-2.625,-1.03125
1696246346343,0.08642578,-1.0130005,0.044128418,-2.625,-1.203125,-1.140625
1696246346383,0.038330078,-1.055481,0.034118652,-8.78125,-0.921875,0.0625
1696246346424,0.044921875,-1.0339966,0.04949951,-15.640625,-0.125,-2.640625
1696246346463,-7.324219E-4,-0.97369385,0.024353027,-14.734375,1.609375,-5.109375
1696246346503,0.045410156,-0.90093994,0.0040893555,-1.453125,-1.703125,-4.65625
1696246346544,0.09863281,-0.93951416,0.0036010742,6.5,-1.28125,2.3125
1696246346584,0.0871582,-0.95684814,-0.04449463,9.46875,-2.203125,3.515625
1696246346647,-0.0017089844,-0.9446411,0.04486084,13.484375,-1.34375,3.671875
1696246346662,0.072753906,-0.99053955,0.054870605,5.734375,5.109375,3.84375
1696246346706,0.046142578,-1.0056763,-0.00982666,2.5625,3.03125,1.421875
1696246346745,0.08227539,-0.987854,0.020690918,2.046875,2.375,0.765625
1696246346804,0.0073242188,-1.036438,0.020935059,0.9375,3.375,2.5625
1696246346845,0.044433594,-0.9812622,-0.032043457,-1.34375,6.515625,0.53125
1696246346884,0.07470703,-0.9546509,-0.04107666,0.453125,8.109375,0.046875
1696246346902,0.08081055,-0.88238525,-0.037902832,3.390625,13.546875,1.0625
1696246346965,0.04248047,-0.9470825,-0.028137207,1.625,1.203125,5.5
1696246346984,0.0017089844,-1.0181274,0.030700684,1.234375,-0.953125,2.484375
1696246347003,0.095214844,-1.1345825,0.0289917,1.578125,-4.109375,2.015625
1696246347047,0.0107421875,-1.046936,-0.012512207,-4.609375,-7.484375,-3.078125
1696246347086,0.08618164,-0.9151001,-0.066711426,3.890625,-6.265625,-4.34375
1696246347125,0.17700195,-0.89971924,-0.05718994,0.375,0.421875,-2.6875
1696246347164,0.1274414,-0.89727783,-0.06719971,2.078125,-0.34375,1.828125
1696246347206,0.071777344,-0.9397583,-0.039855957,5.328125,0.0625,4.09375
1696246347242,0.07910156,-1.0457153,-0.07672119,2.796875,1.375,3.5
1696246347287,0.09277344,-1.0383911,-0.023498535,-3.515625,7.921875,1.6875
1696246347323,0.052001953,-0.9651489,0.086364746,-3.40625,12.484375,2.15625
1696246347368,-0.017578125,-0.850647,-0.05279541,-7.109375,-0.0625,3.25
1696246347403,0.10058594,-0.9793091,-0.0017700195,1.0,-0.34375,3.734375
1696246347446,0.12207031,-1.2498169,0.024841309,8.78125,-7.0625,2.765625
1696246347486,-0.061523438,-1.1218872,0.04437256,-0.796875,-3.765625,-2.046875
1696246347525,0.029296875,-0.91412354,-0.013977051,0.421875,-2.5,-4.703125
1696246347565,0.06591797,-0.89434814,-0.0335083,7.1875,-3.734375,-0.90625
1696246347603,0.15161133,-0.88409424,-0.10064697,6.75,-3.890625,-0.046875
1696246347644,0.20922852,-0.8726196,-0.11920166,4.1875,-1.734375,0.0
1696246347691,0.14379883,-0.99542236,-0.11016846,5.640625,-4.859375,4.625
1696246347723,0.07714844,-1.045227,-0.08282471,1.6875,-0.671875,1.796875
1696246347764,0.1015625,-1.003479,-0.04888916,-2.484375,0.734375,-0.640625
1696246347802,0.047607422,-0.9973755,-0.016174316,-3.34375,-0.609375,1.265625
1696246347845,0.061279297,-0.97125244,-0.07305908,-5.75,-3.203125,-2.09375
1696246347883,0.076416016,-1.0046997,4.272461E-4,-6.484375,-0.171875,-0.71875
1696246347924,0.0715332,-1.0244751,-0.036193848,-10.671875,3.625,0.296875
1696246347963,0.14990234,-0.9031372,-0.05328369,-8.203125,16.328125,-0.234375
1696246348004,-0.030273438,-0.881897,-0.032043457,-4.9375,-0.953125,1.375
1696246348046,0.06665039,-1.0671997,-0.024475098,2.375,-3.21875,1.765625
1696246348084,0.09863281,-1.190979,0.04168701,-5.421875,-7.3125,-3.53125
1696246348124,0.05078125,-0.925354,-0.015197754,-8.53125,-3.03125,-6.3125
1696246348166,0.061523438,-0.84820557,-0.02154541,-2.234375,-6.625,-2.171875
1696246348204,0.104003906,-0.92510986,-0.03253174,0.359375,-7.15625,-1.25
1696246348245,0.07128906,-1.0012817,0.0036010742,1.140625,-2.859375,-1.46875
1696246348284,0.11767578,-1.0437622,0.03753662,-5.0,-0.890625,-2.28125
1696246348303,0.06762695,-1.0186157,0.04119873,-8.671875,-2.234375,-0.921875
1696246348343,0.001953125,-1.0046997,0.054626465,-9.140625,-1.890625,-2.734375
1696246348383,0.055908203,-1.0007935,0.025817871,-12.609375,2.171875,-4.53125
1696246348426,0.06298828,-0.9871216,0.042175293,-14.59375,2.625,-4.203125
1696246348463,0.034423828,-0.9456177,0.04486084,-12.296875,-0.015625,-3.71875
1696246348504,0.057373047,-0.98028564,0.057800293,-3.921875,-3.328125,-3.5
1696246348544,0.041503906,-0.96588135,0.0368042,5.59375,-6.953125,0.671875
1696246348583,0.08691406,-0.9234009,0.04071045,14.609375,-2.78125,4.578125
1696246348625,0.091308594,-0.9138794,0.057800293,12.03125,-0.28125,3.0
1696246348664,-0.05859375,-1.0405884,0.04437256,11.109375,-4.1875,4.96875
1696246348704,0.056396484,-0.97320557,0.04901123,2.828125,3.921875,2.84375
1696246348742,0.03857422,-1.0545044,0.031921387,3.4375,2.859375,1.96875
1696246348784,0.046142578,-1.0127563,0.055603027,0.0625,7.96875,0.953125
1696246348822,0.029296875,-0.94854736,0.03363037,1.0625,7.796875,2.1875
1696246348885,0.013183594,-1.0027466,0.007751465,0.6875,8.5,1.734375
1696246348903,0.1171875,-0.9692993,-0.13311768,1.4375,13.5625,-0.265625
1696246348943,0.11376953,-0.8130493,0.10443115,5.328125,7.03125,2.203125
1696246348989,0.025146484,-0.9336548,-0.04473877,2.140625,-0.21875,5.046875
1696246349022,0.10571289,-1.0269165,0.07733154,2.890625,-2.125,1.6875
1696246349064,0.095703125,-1.1692505,0.06854248,3.671875,-9.421875,1.46875
1696246349104,-0.0063476562,-1.1189575,0.032409668,-3.921875,-7.71875,-3.296875
1696246349165,0.027832031,-0.92803955,0.026794434,-4.921875,-4.234375,-6.734375
1696246349185,0.12573242,-0.802063,-0.059631348,-0.328125,0.75,-2.171875
1696246349223,0.095214844,-0.8789673,-0.016662598,4.09375,0.765625,3.671875
1696246349266,0.09667969,-1.0154419,-0.06524658,4.59375,2.03125,5.3125
1696246349304,0.08569336,-1.0462036,-0.07086182,1.3125,7.453125,0.5
1696246349344,0.03540039,-0.927063,0.07269287,-5.0625,3.46875,1.640625
1696246349407,-0.037597656,-0.87164307,0.019958496,-4.703125,0.109375,3.59375
1696246349459,0.1628418,-1.0335083,0.040222168,3.34375,-1.8125,2.46875
1696246349463,0.125,-1.234436,0.09320068,10.078125,-7.421875,1.625
1696246349525,-0.07055664,-1.0747681,0.031677246,-0.953125,-5.3125,-3.125
1696246349543,0.046875,-0.9168091,-0.027160645,2.3125,-3.0,-5.703125
1696246349607,0.12109375,-0.878479,-0.0064086914,4.765625,-5.171875,-2.28125
1696246349611,0.111572266,-0.8711548,-0.101135254,7.015625,-6.0,-0.828125
1696246349642,0.14648438,-0.92022705,-0.08673096,5.5,-5.375,0.234375
1696246349725,0.060302734,-1.0088501,-0.089660645,3.984375,-5.03125,4.578125
1696246349729,0.06738281,-1.0247192,-0.04547119,1.59375,-2.46875,1.0
1696246349764,0.07421875,-1.0276489,-0.053527832,-0.1875,-1.875,-0.25
1696246349804,0.013427734,-0.9873657,-0.045715332,-2.859375,-2.09375,-0.796875
1696246349844,0.057128906,-0.9902954,-0.031066895,-1.65625,-0.796875,-2.265625
1696246349884,0.0625,-0.99053955,-0.05279541,-5.546875,1.453125,-0.671875
1696246349924,0.0859375,-0.9536743,0.010437012,-2.671875,1.140625,-2.125
1696246349967,0.055908203,-1.0125122,0.015075684,-5.0,5.796875,1.3125
1696246350005,0.08618164,-1.0588989,-0.06915283,-5.15625,19.203125,2.078125
1696246350046,0.110839844,-0.8713989,0.06390381,-0.703125,0.625,0.3125
1696246350085,-0.044677734,-0.9404907,-0.05670166,-2.921875,-5.0,1.46875
1696246350124,0.13134766,-1.2044067,0.050964355,4.53125,-5.484375,-0.71875
1696246350166,0.022705078,-1.083313,0.030456543,-6.703125,-5.953125,-4.90625
1696246350206,-0.012451172,-0.8196411,-0.043273926,-5.671875,-3.515625,-3.859375
1696246350243,0.061523438,-0.89141846,-0.0134887695,0.984375,-3.703125,-0.578125
1696246350286,0.0925293,-0.9849243,-0.0025024414,1.46875,-1.71875,1.484375
1696246350324,0.0847168,-1.0195923,-0.0022583008,0.515625,-4.15625,-0.359375
1696246350364,0.037597656,-1.0598755,-0.013244629,-4.609375,-3.375,-2.578125
1696246350405,-0.0063476562,-1.0256958,0.10101318,-3.0625,-1.140625,-3.40625
1696246350448,0.0043945312,-1.0012817,0.038757324,-7.5625,0.59375,-5.9375
1696246350484,0.017822266,-0.9944458,-0.021057129,-12.890625,3.59375,-5.203125
1696246350534,-0.009521484,-0.9710083,-0.028869629,-8.984375,1.25,-4.671875
1696246350563,0.013183594,-0.9885864,-0.029846191,-1.921875,1.703125,-0.78125
1696246350606,0.08862305,-0.9714966,-0.012756348,6.46875,-4.578125,2.21875
1696246350643,0.048339844,-0.90802,-0.0076293945,10.359375,-4.671875,3.359375
1696246350684,0.052001953,-0.9495239,0.040222168,13.359375,-2.21875,5.09375
1696246350724,0.03149414,-1.0508423,0.081970215,6.578125,-0.03125,3.921875
1696246350763,0.056640625,-0.98516846,0.048034668,1.515625,-1.40625,3.015625
1696246350804,0.02319336,-1.0291138,-0.018859863,-0.140625,-1.34375,2.203125
1696246350843,0.025390625,-1.0195923,0.038513184,-2.15625,1.21875,2.71875
1696246350905,0.024414062,-0.96051025,0.0099487305,-2.25,1.125,-0.65625
1696246350921,0.07763672,-0.95318604,-0.01763916,1.328125,0.71875,1.5
1696246350945,-0.019042969,-1.0059204,0.016784668,-0.34375,1.59375,4.03125
1696246350985,0.022949219,-0.95758057,-0.02154541,-0.859375,9.546875,-2.078125
1696246351023,0.18188477,-0.9204712,0.012145996,3.28125,13.015625,1.90625
1696246351085,-0.0053710938,-0.95025635,0.026306152,2.25,2.125,5.609375
1696246351104,-0.045410156,-1.0169067,0.049987793,3.5,2.078125,2.765625
1696246351163,0.026367188,-1.1646118,0.06707764,0.453125,-2.296875,2.5
1696246351183,0.026123047,-1.0808716,0.051940918,-5.21875,-4.1875,-3.265625
1696246351224,0.021728516,-0.9475708,-0.0095825195,-0.96875,-2.921875,-5.953125
1696246351264,0.09887695,-0.8591919,-0.057678223,-0.734375,3.625,-3.125
1696246351303,0.12084961,-0.85528564,-0.04034424,1.171875,2.75,3.015625
1696246351347,0.10180664,-0.99176025,-0.046203613,3.8125,1.578125,5.34375
1696246351385,0.14233398,-1.0125122,-0.14752197,3.328125,11.921875,5.09375
1696246351423,-0.036376953,-0.88409424,-0.042297363,-1.890625,-4.5,6.515625
1696246351485,-0.020751953,-0.8911743,-0.017150879,-0.84375,-3.171875,3.28125
1696246351502,0.13183594,-1.2156372,0.06536865,4.140625,-4.890625,6.203125
1696246351567,-0.029785156,-1.0962524,0.06732178,3.328125,-0.375,0.578125
1696246351585,-0.033447266,-0.9216919,1.8310547E-4,3.859375,-2.296875,-0.15625
1696246351649,0.10107422,-1.0379028,-0.03375244,10.453125,-0.09375,0.546875
1696246351662,0.19018555,-0.9558716,-0.04888916,2.8125,-1.75,-2.40625
1696246351704,0.1003418,-0.81695557,-0.11920166,2.765625,-2.890625,1.609375
1696246351745,0.15332031,-0.9302368,-0.113098145,5.15625,-1.96875,4.109375
1696246351785,0.13574219,-0.9976196,-0.06573486,2.5625,-2.1875,2.78125
1696246351825,0.07324219,-1.0117798,-0.07965088,1.125,-2.90625,0.84375
1696246351863,0.107666016,-1.0317993,-0.018371582,-2.25,-1.984375,-0.375
1696246351905,0.08178711,-0.9348755,-0.047668457,-4.921875,7.875,0.8125
1696246351965,0.0690918,-0.9036255,-0.012023926,-6.34375,4.203125,1.71875
1696246352005,-0.013183594,-0.97613525,6.713867E-4,-2.75,-1.796875,-2.3125
1696246352023,0.12670898,-1.0686646,-0.00982666,-3.671875,-1.484375,-2.6875
1696246352085,0.10180664,-1.0762329,0.043640137,-7.671875,-7.3125,-5.578125
1696246352130,0.020263672,-0.9036255,-0.0256958,-8.09375,-2.640625,-7.0
1696246352143,0.024169922,-0.909729,-0.0025024414,-4.421875,-1.640625,-3.4375
1696246352184,0.115234375,-0.98638916,0.001159668,-2.8125,-1.328125,-1.078125
1696246352227,0.1081543,-1.0100708,0.055603027,-1.234375,0.8125,-2.75
1696246352242,0.0637207,-1.0217896,0.021911621,-7.90625,-2.359375,-3.90625
1696246352285,0.009277344,-1.0090942,0.027038574,-9.890625,-1.9375,-2.890625
1696246352324,-7.324219E-4,-0.9841919,0.073913574,-9.8125,1.734375,-3.859375
1696246352364,0.07348633,-0.9595337,-0.022521973,-7.546875,-3.15625,-3.875
1696246352404,0.052001953,-0.9651489,0.028015137,4.875,-11.234375,0.078125
1696246352445,0.024658203,-0.9690552,0.02166748,4.90625,-6.96875,1.90625
1696246352485,0.05883789,-0.925354,-0.014709473,9.875,-2.6875,3.125
1696246352523,0.10888672,-1.0159302,0.057800293,11.171875,-3.296875,3.515625
1696246352564,0.019042969,-0.9990845,0.061950684,3.515625,-0.96875,4.5625
1696246352606,0.037841797,-0.9741821,-0.003967285,0.375,1.453125,1.75
1696246352649,0.060546875,-1.0198364,0.026794434,2.8125,-0.921875,2.34375
1696246352685,-0.009033203,-1.0281372,-0.0115356445,-0.578125,4.234375,2.46875
1696246352732,0.055908203,-0.9636841,0.04095459,2.0625,3.140625,0.546875
1696246352765,0.056640625,-1.0171509,-0.026672363,-0.203125,3.8125,1.8125
1696246352808,0.08984375,-0.9561157,0.022644043,-1.0,4.078125,-0.828125
1696246352852,0.025146484,-0.97369385,-0.06378174,-3.265625,3.671875,0.75
1696246352883,0.19799805,-0.8442993,-0.04522705,0.890625,9.625,-1.796875
1696246352925,0.0031738281,-1.0186157,0.03314209,2.78125,-1.3125,5.78125
1696246352964,-0.015380859,-1.0505981,0.070495605,1.234375,0.953125,0.8125
1696246353004,0.14990234,-1.1494751,0.026794434,-1.390625,0.8125,-0.640625
1696246353043,-0.0043945312,-0.9155884,-0.008850098,-4.59375,-5.21875,-3.03125
1696246353084,0.037353516,-0.90167236,-0.05279541,4.25,-7.359375,-4.6875
1696246353133,0.12060547,-0.9949341,-0.01739502,2.390625,-1.390625,-0.484375
1696246353164,0.12719727,-0.96832275,-0.05303955,2.0625,0.015625,1.328125
1696246353203,0.076416016,-0.92852783,-0.020568848,4.03125,-0.609375,1.671875
1696246353244,0.0793457,-1.00177,-0.027648926,1.453125,1.65625,3.640625
1696246353284,0.068115234,-1.0213013,-0.00592041,-1.78125,2.625,0.78125
1696246353327,0.043945312,-0.97320557,-0.062316895,-2.359375,14.546875,0.125
1696246353364,0.118652344,-0.8201294,0.0048217773,-3.765625,6.484375,2.375
1696246353406,-0.03149414,-0.87384033,-0.055236816,-0.046875,-1.421875,5.296875
1696246353444,0.114990234,-1.1350708,0.025817871,2.875,-3.546875,2.3125
1696246353485,0.037841797,-1.2156372,0.053894043,1.234375,-3.90625,-1.328125
1696246353524,-0.02709961,-0.95880127,0.012145996,-2.765625,-2.8125,-3.25
1696246353564,0.06542969,-0.93536377,-0.03741455,5.1875,0.15625,-3.546875
1696246353584,0.12768555,-0.93634033,-0.022521973,3.65625,0.015625,-0.546875
1696246353645,0.107177734,-0.87628174,-0.09942627,2.8125,-0.046875,0.625
1696246353665,0.14672852,-0.9282837,-0.062805176,4.765625,-1.359375,3.296875
1696246353705,0.07324219,-1.031311,-0.0635376,3.96875,-1.359375,3.171875
1696246353745,0.07373047,-0.9973755,-0.024963379,0.859375,-0.78125,1.21875
1696246353784,0.06591797,-1.0073853,-0.016906738,-1.09375,-2.640625,1.59375
1696246353846,0.030273438,-0.9998169,-0.022521973,-2.40625,-3.5625,-0.046875
1696246353885,0.060302734,-0.9951782,0.01776123,-5.171875,-0.9375,-2.203125
1696246353928,0.049072266,-1.0078735,-0.012268066,-3.0,1.125,0.265625
1696246353964,0.049804688,-0.95196533,-0.0713501,-3.765625,8.46875,0.984375
1696246353982,0.12597656,-0.9338989,0.018981934,-0.234375,4.71875,1.515625
1696246354028,0.05078125,-0.97442627,-0.066711426,-0.59375,9.140625,3.5
1696246354064,0.10131836,-1.0003052,-0.046691895,-1.828125,5.90625,1.453125
1696246354105,0.09375,-0.9866333,-0.0335083,0.859375,3.125,2.421875
1696246354144,0.075683594,-0.98101807,0.026550293,2.453125,-0.484375,0.828125
1696246354184,0.030273438,-1.0171509,-0.0056762695,-0.640625,-0.859375,1.984375
1696246354246,0.09301758,-1.0071411,-0.018859863,-1.9375,-1.984375,1.859375
1696246354264,0.08276367,-0.98223877,-0.02960205,-1.40625,-2.078125,1.515625
1696246354325,0.029052734,-0.96099854,-0.042297363,0.734375,0.015625,2.09375
1696246354342,0.10546875,-0.9734497,-0.038146973,0.90625,1.515625,2.53125
1696246354404,0.14746094,-0.9932251,0.0014038086,1.984375,-1.015625,3.765625
1696246354424,0.017089844,-0.9680786,-0.0056762695,-1.125,-5.84375,3.390625
1696246354487,0.20874023,-0.9529419,-0.055236816,0.859375,-5.96875,2.5
1696246354503,0.07788086,-1.1240845,-0.0413208,3.84375,-5.328125,8.453125
1696246354545,0.056884766,-0.987854,-0.0071411133,-0.125,3.515625,3.5
1696246354604,0.25268555,-0.8858032,-0.014709473,6.234375,1.203125,3.875
1696246354623,0.1303711,-0.9312134,-0.109191895,9.421875,-0.65625,7.34375
1696246354666,0.064697266,-0.93878174,-0.070617676,10.375,2.734375,3.5625
1696246354704,0.20336914,-0.98443604,-0.07965088,7.5625,-5.390625,-2.28125
1696246354750,0.23583984,-1.0188599,-0.11871338,5.609375,-4.9375,-3.671875
1696246354784,0.14135742,-0.89923096,-0.07598877,2.203125,-5.21875,0.421875
1696246354827,0.010498047,-0.81085205,-0.19122314,3.78125,-1.046875,-2.09375
1696246354865,0.21728516,-1.0403442,-0.11138916,3.015625,-3.34375,-2.34375
1696246354881,0.24389648,-1.0874634,-0.04034424,-2.453125,-3.859375,-1.984375
1696246354927,0.0014648438,-0.9324341,-0.11114502,-4.0625,-3.234375,-5.453125
1696246354964,0.12939453,-0.96539307,-0.034973145,-2.53125,-3.53125,-3.96875
1696246355003,0.103759766,-0.9854126,-0.09088135,-7.71875,-5.671875,-5.1875
1696246355047,0.10864258,-0.9729614,-0.04840088,-9.0,-3.453125,-7.828125
1696246355083,0.122558594,-0.9976196,-0.027648926,-8.6875,-2.75,-6.328125
1696246355124,0.091308594,-0.97125244,-0.05718994,-9.5625,1.03125,-5.84375
1696246355165,0.06298828,-0.95806885,0.022888184,-5.21875,0.90625,-4.53125
1696246355203,0.080566406,-0.9907837,-0.018371582,-6.125,-0.484375,-4.515625
1696246355246,0.045654297,-1.0081177,0.012878418,-4.28125,-3.484375,-2.484375
1696246355284,0.0859375,-0.9776001,0.008972168,-6.75,1.0,-2.96875
1696246355325,0.049804688,-0.9678345,0.026794434,-2.4375,0.890625,-1.90625
1696246355375,0.0063476562,-1.0005493,0.0099487305,-2.3125,-0.015625,-0.234375
1696246355403,0.05517578,-0.9702759,-0.0012817383,1.0,0.21875,0.953125
1696246355445,0.09375,-0.97076416,-0.014221191,2.15625,-1.890625,1.21875
1696246355485,0.07470703,-0.95318604,0.005554199,3.21875,0.234375,1.109375
1696246355526,0.032470703,-0.9920044,0.0045776367,3.390625,-3.859375,1.75
1696246355564,0.076660156,-0.9817505,-7.9345703E-4,0.234375,-0.890625,0.59375
1696246355606,0.095703125,-0.9614868,-0.03741455,0.84375,-1.484375,0.796875
1696246355645,0.06640625,-0.96881104,0.001159668,2.828125,-2.578125,0.78125
1696246355683,0.036621094,-1.0037231,-0.013977051,1.9375,-1.171875,0.6875
1696246355724,0.08862305,-0.9661255,-0.010314941,0.140625,-0.390625,1.09375
1696246355765,0.08129883,-0.9768677,0.010437012,2.28125,-1.5,1.140625
1696246355804,0.038330078,-0.9963989,-0.008605957,0.9375,-0.625,1.625
1696246355846,0.08203125,-0.97369385,-0.023254395,-0.4375,-0.546875,0.21875
1696246355897,0.0769043,-0.9963989,-0.010559082,0.1875,-1.515625,1.046875
1696246355923,0.060791016,-0.9873657,-0.0076293945,-0.75,0.46875,1.171875
1696246355963,0.07348633,-0.96759033,-0.015197754,-0.875,-0.703125,0.25
1696246356004,0.07104492,-0.96539307,0.004333496,1.0,-1.390625,0.40625
1696246356046,0.068359375,-0.97052,0.02923584,0.921875,-0.3125,0.34375
1696246356082,0.087890625,-0.9873657,-0.053527832,-2.734375,-0.015625,-0.4375
1696246356124,0.08544922,-0.9649048,-0.006164551,-0.125,0.703125,-0.375
1696246356186,0.06738281,-1.0164185,0.024108887,-0.609375,0.015625,-0.1875
1696246356202,0.075683594,-0.99713135,-0.0071411133,-4.859375,1.6875,-1.09375
1696246356225,0.075683594,-0.9644165,0.0045776367,-3.140625,0.96875,-2.8125
1696246356287,0.047851562,-0.9627075,-0.010559082,-3.0,-1.296875,-2.828125
1696246356303,0.04663086,-0.95684814,-0.0049438477,-2.03125,-1.53125,-2.0
1696246356345,0.045654297,-0.9834595,0.0048217773,-0.953125,-1.71875,-0.484375
1696246356385,0.055908203,-0.98516846,0.010437012,-1.4375,-1.03125,-0.328125
1696246356445,0.067871094,-0.9846802,0.018249512,-1.453125,-1.4375,-0.640625
1696246356465,0.05029297,-0.9859009,0.030456543,0.0625,-0.8125,-0.90625
1696246356505,0.06713867,-0.97906494,0.029968262,-1.734375,0.28125,-0.84375
1696246356545,0.06323242,-0.9824829,-0.026916504,-2.40625,-2.203125,0.171875
1696246356584,0.05053711,-0.9714966,0.04071045,0.234375,-1.953125,-0.03125
1696246356646,0.03857422,-0.9963989,0.022399902,-1.09375,-1.84375,0.859375
1696246356664,0.061279297,-0.9783325,0.008483887,-0.21875,-0.75,1.171875
1696246356704,0.071777344,-0.9649048,0.008972168,-0.234375,-3.0625,0.625
1696246356765,0.045166016,-0.99713135,0.004333496,0.859375,-3.0625,1.015625
1696246356815,0.09301758,-0.9697876,6.713867E-4,-0.0625,-2.3125,0.625
1696246356822,0.05834961,-0.98516846,0.018737793,0.484375,-1.96875,0.765625
1696246356867,0.05102539,-0.99664307,0.018005371,0.296875,-1.8125,0.78125
1696246356906,0.068847656,-0.98223877,0.023376465,-0.53125,-1.609375,0.0
1696246356944,0.05419922,-0.9793091,0.018249512,-0.0625,-1.765625,0.1875
1696246356985,0.060302734,-0.9985962,0.022155762,-1.96875,-0.015625,-0.4375
1696246357025,0.06713867,-0.98394775,-0.02911377,-2.703125,-1.796875,0.234375
1696246357064,0.07543945,-0.9685669,0.034606934,0.421875,-0.59375,-0.3125
1696246357105,0.037597656,-1.0078735,0.026550293,0.625,-1.890625,0.203125
1696246357145,0.06640625,-0.96221924,0.01751709,0.203125,-0.765625,-0.453125
1696246357205,0.047851562,-1.0005493,0.01751709,0.609375,-1.6875,0.59375
1696246357223,0.06616211,-0.9883423,0.016052246,0.5625,-0.859375,-0.390625
1696246357264,0.060058594,-0.96881104,0.02166748,-0.078125,-1.046875,0.296875
1696246357324,0.0637207,-0.9873657,0.0289917,1.0,-1.015625,1.109375
1696246357342,0.052246094,-0.9985962,0.01776123,0.15625,-0.21875,0.5625
1696246357384,0.060546875,-0.98321533,0.021911621,-0.4375,0.015625,0.15625
1696246357425,0.052246094,-0.9883423,0.03289795,-0.59375,1.3125,0.78125
1696246357484,0.06225586,-1.0039673,0.018005371,-4.65625,8.1875,-0.140625
1696246357504,0.08081055,-0.9920044,0.039978027,-2.390625,7.171875,1.34375
1696246357523,0.0390625,-1.0325317,0.019958496,-3.203125,6.1875,2.0
1696246357564,0.009521484,-0.97784424,0.043151855,-1.890625,3.796875,0.484375
1696246357606,0.06347656,-0.9776001,0.007507324,-1.125,2.46875,-0.921875
1696246357646,0.084472656,-0.97125244,0.03387451,0.9375,0.3125,-0.40625
1696246357688,0.060546875,-0.9915161,-0.031311035,7.390625,-3.515625,-0.03125
1696246357726,0.13256836,-0.9534302,-0.012512207,7.671875,-2.15625,-1.25
1696246357765,0.056884766,-0.9248657,-0.04547119,12.75,-9.28125,1.953125
1696246357810,0.083984375,-0.95391846,0.0016479492,6.96875,-4.40625,1.734375
1696246357845,0.047851562,-0.9824829,-0.006652832,5.84375,-3.734375,1.9375
1696246357885,0.05517578,-1.0132446,-0.009094238,3.296875,-1.046875,0.078125
1696246357925,0.08251953,-1.0083618,-0.03668213,-0.359375,-0.375,1.421875
1696246357964,0.02319336,-0.9939575,-0.020080566,0.34375,-2.109375,0.15625
1696246358005,0.10131836,-0.97247314,-0.017150879,0.625,-1.65625,-1.375
1696246358045,0.05908203,-0.9890747,-0.026916504,0.28125,-2.90625,0.5
1696246358085,0.048339844,-0.9661255,-0.01739502,0.25,-1.4375,-0.0625
1696246358126,0.08178711,-0.9973755,-0.02911377,0.34375,0.046875,-0.25
1696246358165,0.08325195,-0.9807739,-0.038635254,-0.25,-1.734375,1.4375
1696246358205,0.045410156,-0.9846802,-0.019348145,-0.171875,-0.421875,0.046875
1696246358244,0.100097656,-0.9981079,-0.035949707,-0.625,1.328125,-1.03125
1696246358286,0.0690918,-0.9573364,-0.02545166,-0.859375,-2.296875,0.40625
1696246358325,0.05908203,-0.97857666,-0.029846191,-0.921875,-0.15625,-0.140625
1696246358366,0.072509766,-0.9927368,-0.020568848,-0.875,-1.875,-0.640625
1696246358403,0.060791016,-0.92926025,-0.08526611,-2.140625,4.078125,0.671875
1696246358444,0.05883789,-0.93756104,-0.011779785,1.53125,1.96875,0.296875
1696246358484,0.064941406,-0.9824829,-0.023010254,0.5625,1.890625,0.1875
1696246358523,0.052490234,-1.0413208,1.8310547E-4,-1.71875,-0.578125,0.421875
1696246358569,0.052734375,-1.0183716,-0.006164551,-1.484375,-0.609375,-3.03125
1696246358610,0.036132812,-0.98101807,0.001159668,1.296875,-0.75,-1.3125
1696246358645,0.064208984,-0.960022,-0.00982666,1.609375,-0.703125,-0.046875
1696246358684,0.07788086,-0.98443604,-0.038391113,2.4375,1.28125,0.578125
1696246358724,0.072509766,-0.98516846,-0.0095825195,1.078125,1.171875,1.046875
1696246358765,0.044677734,-0.9734497,-0.049621582,0.703125,1.40625,0.9375
1696246358805,0.10668945,-0.9578247,-0.018371582,-2.265625,2.296875,0.625
1696246358822,0.011230469,-0.98565674,-0.026428223,-2.234375,6.015625,2.953125
1696246358886,0.056396484,-0.9819946,-0.10797119,-5.3125,17.75,3.171875
1696246358903,0.015380859,-0.9585571,0.07122803,-0.84375,-0.171875,1.984375
1696246358942,-0.008544922,-1.0813599,0.022888184,-1.75,2.015625,0.765625
1696246359005,0.12768555,-1.1121216,0.02142334,-2.171875,1.671875,-3.171875
1696246359043,0.022705078,-0.8936157,-0.034729004,-2.0625,-4.140625,-4.125
1696246359084,0.03857422,-0.8862915,-0.04888916,5.515625,-3.75,-1.21875
1696246359103,0.14404297,-1.0269165,-0.031066895,1.71875,0.140625,-0.3125
1696246359143,0.0925293,-0.9685669,-0.042297363,0.78125,-1.65625,2.0
1696246359185,0.07446289,-0.96173096,-0.015686035,0.765625,-2.125,2.328125
1696246359227,0.037353516,-1.0303345,-0.024230957,-5.5,0.296875,3.109375
1696246359265,0.061523438,-1.0303345,0.002380371,-2.96875,11.765625,5.515625
1696246359304,-0.04272461,-0.8442993,0.009460449,-3.640625,-0.53125,1.890625
1696246359345,0.05517578,-1.0130005,0.0016479492,-1.671875,1.984375,4.046875
1696246359385,0.084472656,-1.2537231,0.020935059,1.203125,-3.765625,-0.234375
1696246359424,0.016845703,-1.0210571,0.051696777,-9.90625,-6.125,-4.859375
1696246359465,0.044189453,-0.85772705,0.02947998,-5.0625,-3.96875,-3.015625
1696246359528,0.060546875,-0.9414673,0.04559326,1.5,-7.671875,1.6875
1696246359543,0.10498047,-0.98321533,-0.046203613,-2.25,-4.015625,-1.046875
1696246359584,0.08300781,-0.96466064,0.015075684,1.359375,-0.109375,-0.171875
1696246359624,0.0637207,-1.0437622,0.039733887,-1.390625,4.015625,0.09375
1696246359665,0.048583984,-1.0425415,0.03778076,-7.875,6.34375,-3.984375
1696246359705,0.07910156,-1.0166626,-0.0076293945,-14.875,7.140625,-4.9375
1696246359743,0.08691406,-0.89556885,0.010192871,-9.0625,0.40625,-5.265625
1696246359792,0.06616211,-0.9727173,-0.010559082,-2.609375,-6.5,-3.671875
1696246359844,0.057128906,-0.97247314,-0.014465332,3.234375,-9.46875,0.109375
1696246359862,0.13061523,-0.892395,-0.008605957,7.359375,-8.046875,0.515625
1696246359905,0.09765625,-0.8999634,0.016540527,13.28125,-6.484375,4.0625
1696246359944,-0.0043945312,-1.041565,0.0680542,9.4375,-7.765625,4.703125
1696246360007,0.011474609,-0.9981079,0.06365967,-0.09375,1.390625,1.9375
1696246360026,0.06323242,-1.0117798,0.029968262,0.46875,-1.0625,0.234375
1696246360065,0.037109375,-1.0391235,0.051696777,-0.796875,-0.453125,2.875
1696246360109,-9.765625E-4,-1.0132446,-0.013977051,-3.328125,2.484375,-0.125
1696246360124,0.07080078,-0.94903564,-7.9345703E-4,-1.4375,2.9375,-2.5
1696246360163,0.030517578,-0.9751587,0.047546387,0.9375,1.828125,1.453125
1696246360204,0.010986328,-0.9734497,-0.101135254,-3.25,9.171875,-1.703125
1696246360244,0.18237305,-0.8557739,-0.0049438477,-0.3125,11.5625,0.21875
1696246360289,-0.02319336,-0.93707275,0.026550293,3.5,0.671875,6.328125
1696246360325,0.008300781,-1.0205688,0.038024902,3.6875,2.78125,0.484375
1696246360365,0.115722656,-1.1946411,0.13006592,3.078125,-2.90625,0.546875
1696246360404,0.0031738281,-1.0906372,0.058776855,-3.328125,-5.953125,-3.078125
1696246360443,0.0036621094,-0.9109497,-0.03302002,-2.59375,-0.671875,-5.40625
1696246360484,0.0847168,-0.8936157,-0.023742676,0.078125,-0.03125,-2.703125
1696246360523,0.09082031,-0.9194946,-0.022521973,2.25,-0.5625,1.890625
1696246360565,0.08569336,-0.99468994,-0.06817627,0.984375,3.03125,1.625
1696246360603,0.079589844,-1.0462036,0.15301514,-0.21875,2.828125,4.015625
1696246360661,-0.06762695,-0.9116821,4.272461E-4,-4.34375,-3.625,5.171875
1696246360683,0.03881836,-0.98931885,0.038024902,2.140625,0.625,4.625
1696246360724,0.11645508,-1.2456665,0.07952881,6.203125,-2.828125,2.640625
1696246360767,-0.041259766,-1.0300903,0.06951904,-1.078125,-2.078125,-2.953125
1696246360806,0.010009766,-0.90460205,0.00970459,1.890625,-2.65625,-4.734375
1696246360844,0.037109375,-0.989563,-0.037902832,8.375,-5.625,0.640625
1696246360886,0.10522461,-0.9495239,-0.06011963,6.140625,-3.359375,0.265625
1696246360925,0.05908203,-0.8740845,-0.0491333,5.078125,-2.703125,0.859375
1696246360964,0.11035156,-0.9927368,-0.06524658,5.90625,-1.0625,3.515625
1696246361004,0.123046875,-1.0481567,-0.050109863,2.9375,-3.015625,1.4375
1696246361048,0.056152344,-1.0112915,-0.06915283,-3.078125,-4.421875,0.421875
1696246361083,0.06591797,-0.97052,0.04901123,-5.671875,-0.828125,-0.296875
1696246361126,-0.016357422,-1.0437622,-0.023986816,-8.109375,1.203125,0.96875
1696246361165,0.16235352,-1.034729,-0.0635376,-7.8125,18.609375,-1.1875
1696246361206,0.05883789,-0.74664307,0.046081543,-5.0,1.71875,1.625
1696246361245,0.014160156,-0.84381104,-0.11798096,-2.390625,1.25,3.875
1696246361283,0.29248047,-1.3748169,0.053649902,9.25,-2.75,5.03125
1696246361325,-0.015136719,-1.0881958,0.018737793,-9.515625,-3.3125,-6.71875
1696246361364,-0.033447266,-0.7439575,0.01727295,-3.53125,-5.34375,-7.9375
1696246361403,-0.0107421875,-0.9607544,0.010925293,1.15625,-8.96875,2.546875
1696246361444,0.045654297,-1.0210571,-0.010070801,-2.09375,-5.140625,0.59375
1696246361462,0.11645508,-0.94781494,0.022644043,-0.28125,-3.4375,-4.3125
1696246361526,0.095214844,-0.99713135,0.039978027,-2.375,-3.46875,0.3125
1696246361542,0.037841797,-1.0122681,0.039489746,-5.515625,-2.34375,-0.609375
1696246361582,0.03857422,-1.0464478,0.0033569336,-11.171875,1.96875,-3.390625
1696246361627,0.046875,-0.97735596,0.016296387,-7.65625,-0.03125,-3.984375
1696246361683,0.061767578,-0.89678955,-0.034240723,3.703125,-3.6875,-2.78125
1696246361703,0.06762695,-0.9661255,-0.013000488,10.03125,-4.140625,2.3125
1696246361745,0.06567383,-0.96588135,0.012390137,7.71875,0.3125,3.875
1696246361785,0.057128906,-1.0108032,0.0079956055,4.53125,-1.671875,1.859375
1696246361828,0.03491211,-0.9507446,0.028259277,-0.5,-1.359375,-1.3125
1696246361884,0.030517578,-1.0127563,0.028503418,-0.140625,-0.578125,1.359375
1696246361903,-0.0053710938,-1.036438,0.028259277,-3.609375,2.375,0.28125
1696246361947,0.03466797,-0.9768677,0.02532959,-3.171875,4.390625,0.375
1696246361984,0.028320312,-1.0315552,0.006286621,-3.109375,4.453125,-1.21875
1696246362024,0.044189453,-0.9273071,-0.070617676,-3.71875,9.46875,-2.0625
1696246362085,0.11987305,-0.89190674,-0.0134887695,0.0,6.53125,1.671875
1696246362103,-0.04272461,-0.9133911,0.03265381,2.328125,-2.375,5.28125
1696246362145,0.021240234,-1.0564575,0.047546387,3.53125,3.46875,3.390625
1696246362204,0.16845703,-1.2061157,0.13250732,3.671875,-2.203125,0.9375
1696246362244,-0.051513672,-1.0552368,0.07098389,-3.34375,-5.359375,-1.96875
1696246362263,-0.046875,-0.9468384,-0.051086426,-0.125,-3.828125,-2.6875
1696246362305,0.15283203,-0.9209595,0.0014038086,0.9375,-1.078125,-4.9375
1696246362345,0.07861328,-0.91241455,-0.04840088,4.328125,-3.6875,-2.40625
1696246362404,0.07495117,-0.8921509,-0.035217285,4.65625,-1.375,0.859375
1696246362423,0.07373047,-1.0117798,-0.024475098,6.015625,-2.828125,3.890625
1696246362464,0.041992188,-1.0498657,-6.1035156E-5,1.765625,-2.1875,1.125
1696246362504,0.016601562,-1.00177,0.012145996,-2.1875,-1.25,1.109375
1696246362544,0.024902344,-0.98443604,-0.005432129,-3.5625,-0.265625,-0.25
1696246362585,0.0048828125,-1.0007935,0.005554199,-4.953125,0.15625,0.5625
1696246362645,0.044677734,-1.0234985,-0.081604004,-1.296875,15.09375,2.390625
1696246362663,0.076416016,-0.7817993,0.0680542,-4.0625,4.34375,-0.265625
1696246362704,0.037597656,-0.88946533,-0.06451416,0.234375,-2.25,6.9375
1696246362745,0.10595703,-1.2332153,0.07757568,6.40625,-2.40625,7.90625
1696246362764,0.05810547,-1.1372681,0.0692749,-0.75,-0.046875,-2.890625
1696246362806,-0.013916016,-0.8999634,0.024597168,-1.71875,-4.859375,-4.921875
1696246362844,4.8828125E-4,-0.99884033,-0.022033691,5.234375,-2.515625,0.21875
1696246362883,0.08544922,-0.923645,-0.037902832,3.21875,-0.046875,-1.90625
1696246362925,0.13354492,-0.88946533,-0.03643799,3.53125,-1.640625,-2.546875
1696246362964,0.14404297,-0.97052,-0.06866455,4.5,-4.140625,3.125
1696246363010,0.09326172,-1.0427856,-0.061584473,0.71875,-1.40625,2.25
1696246363043,0.06616211,-0.9536743,-0.019592285,-1.53125,-1.53125,-1.359375
1696246363084,0.0029296875,-0.9771118,-0.008117676,-0.21875,-1.265625,1.5
1696246363126,0.026123047,-0.9859009,0.02557373,-0.546875,-3.984375,-0.53125
1696246363164,-0.07421875,-1.0115356,0.01361084,-1.484375,2.453125,0.390625
1696246363203,0.13842773,-1.0274048,0.062438965,-4.1875,4.90625,-1.390625
1696246363245,0.07128906,-1.0234985,-0.058654785,-6.015625,10.296875,1.09375
1696246363293,0.02734375,-0.8694458,0.090026855,-0.421875,-4.296875,-1.859375
1696246363324,0.13427734,-1.0274048,-0.035461426,1.546875,-2.125,0.375
1696246363363,0.036621094,-1.0957642,0.04168701,-1.984375,-7.1875,-2.234375
1696246363405,0.0061035156,-0.98760986,0.04095459,-8.265625,-4.53125,-6.8125
1696246363443,0.0847168,-0.8960571,-0.014953613,-4.796875,-4.609375,-4.703125
1696246363485,0.043701172,-0.9624634,-0.015930176,-2.390625,-8.453125,-0.078125
1696246363525,0.013183594,-1.0122681,-0.022521973,-2.296875,-8.765625,-2.53125
1696246363571,0.09448242,-1.017395,0.059509277,-3.0,-5.765625,-3.609375
1696246363603,0.05810547,-0.97784424,0.014587402,-3.390625,-12.140625,-1.625
1696246363645,-0.05908203,-0.958313,0.08319092,-0.28125,-10.25,-0.0625
1696246363685,-0.087646484,-0.9734497,0.07489014,-0.6875,-6.328125,0.03125
1696246363725,-0.099365234,-1.0527954,0.020690918,-1.9375,2.734375,2.890625
1696246363766,-0.11206055,-1.0591431,0.06072998,0.9375,16.078125,6.640625
1696246363806,0.12792969,-0.9714966,0.048034668,0.515625,17.125,3.03125
1696246363849,0.21069336,-1.0025024,0.04510498,-1.0625,6.625,-0.96875
1696246363885,0.0012207031,-0.9570923,0.04168701,-0.859375,1.5,1.5
1696246363925,0.024169922,-0.9644165,0.049743652,0.125,0.390625,2.765625
1696246363965,0.10888672,-1.0447388,-0.01373291,-0.875,-1.578125,0.6875
1696246364006,0.09033203,-0.9397583,0.011169434,4.796875,-4.78125,2.15625
1696246364044,0.024658203,-0.91900635,0.020202637,3.234375,-2.140625,2.328125
1696246364088,0.0625,-0.9717407,-0.006164551,5.703125,-3.359375,2.90625
1696246364103,0.061279297,-1.008606,0.059020996,6.515625,-3.78125,3.71875
1696246364167,0.03881836,-1.0061646,0.06439209,3.375,1.125,2.515625
1696246364207,0.037109375,-0.99176025,0.042663574,1.90625,-0.40625,1.609375
1696246364225,0.0625,-1.0100708,0.0065307617,-1.25,3.453125,0.5625
1696246364264,0.06347656,-0.9944458,0.014099121,-0.546875,2.734375,0.375
1696246364305,0.06225586,-0.960022,-0.0044555664,-1.453125,3.40625,-0.171875
1696246364345,0.059814453,-0.96661377,0.0036010742,-1.203125,0.84375,0.3125
1696246364386,0.03955078,-0.99298096,0.0028686523,-1.671875,2.203125,-1.4375
1696246364423,0.09375,-0.9824829,0.023132324,-0.796875,2.5625,-1.609375
1696246364485,0.026611328,-0.98638916,-0.04425049,-1.375,5.53125,0.046875
1696246364524,0.08081055,-0.8779907,0.007751465,0.515625,5.109375,-0.109375
1696246364546,-0.009765625,-0.93292236,0.030700684,1.09375,-0.125,4.59375
1696246364585,0.07104492,-1.0232544,0.04095459,3.109375,2.40625,4.28125
1696246364624,0.09082031,-1.1819458,0.08416748,2.59375,-2.40625,0.90625
1696246364666,-0.01586914,-1.0317993,0.06463623,-2.375,-4.53125,-3.4375
1696246364705,-0.006591797,-1.0003052,0.003112793,-1.59375,-3.859375,-3.40625
1696246364745,0.08959961,-0.9627075,0.0053100586,-0.40625,-4.0,-4.046875
1696246364783,0.13696289,-0.8899536,-0.057922363,0.09375,-2.78125,-3.484375
1696246364825,0.12011719,-0.86553955,-0.069885254,2.140625,-1.078125,-0.171875
1696246364866,0.08203125,-0.9741821,-0.027893066,3.453125,-4.421875,3.4375
1696246364904,0.02319336,-1.0283813,0.0016479492,2.484375,-3.390625,1.015625
1696246364967,0.013183594,-1.0579224,0.01751709,-1.265625,-1.484375,1.546875
1696246364983,0.016113281,-0.9944458,0.046569824,-4.46875,3.328125,-0.875
1696246365047,0.038330078,-0.96051025,-0.061584473,-5.953125,16.21875,1.71875
1696246365084,0.05078125,-0.80303955,0.08831787,-2.28125,6.359375,0.6875
1696246365104,0.009765625,-0.9265747,0.0053100586,-0.125,0.53125,5.171875
1696246365145,0.13598633,-1.2012329,0.070739746,8.703125,-3.84375,3.046875
1696246365186,-0.015380859,-1.1751099,0.049987793,-3.3125,-3.9375,-2.859375
1696246365225,0.006591797,-0.8272095,0.06439209,-5.859375,-2.5625,-4.703125
1696246365264,0.05053711,-0.86920166,0.00970459,1.625,-3.453125,2.6875
