,timestamp,accel_x,accel_y,accel_z,gyro_x,gyro_y,gyro_z,ind
0,1696242787929,-0.09814453,-0.97320557,0.16204834,-1.046875,-0.3125,0.15625,40
1,1696242787969,-0.099609375,-0.9937134,0.16693115,-0.828125,-0.359375,0.28125,41
2,1696242788009,-0.09643555,-0.97857666,0.15496826,-0.90625,-0.5,0.140625,42
3,1696242788049,-0.091552734,-0.9783325,0.17059326,-0.40625,-0.53125,0.296875,43
4,1696242788089,-0.0949707,-0.97906494,0.16766357,-0.46875,-0.6875,0.234375,44
5,1696242788129,-0.09350586,-0.98223877,0.16619873,-0.421875,-0.4375,0.015625,45
6,1696242788169,-0.09716797,-0.9800415,0.1642456,-0.421875,-0.453125,0.421875,46
7,1696242788209,-0.088378906,-0.97613525,0.16107178,-0.21875,-0.609375,0.28125,47
8,1696242788249,-0.09643555,-0.97979736,0.16937256,0.46875,-0.8125,0.375,48
9,1696242788289,-0.095703125,-0.97784424,0.16864014,0.859375,-0.890625,0.453125,49
10,1696242788329,-0.095214844,-0.98516846,0.15472412,-0.390625,-0.28125,0.453125,50
11,1696242788369,-0.08911133,-0.97247314,0.16497803,1.75,-0.84375,0.34375,51
12,1696242788409,-0.091552734,-0.98223877,0.14886475,-0.046875,-0.359375,0.203125,52
13,1696242788449,-0.10473633,-0.987854,0.16912842,0.671875,-0.375,0.65625,53
14,1696242788489,-0.09301758,-0.98272705,0.15496826,0.9375,-0.703125,0.375,54
15,1696242788529,-0.09765625,-0.97247314,0.15203857,0.453125,-0.953125,-0.015625,55
16,1696242788569,-0.10644531,-0.98321533,0.16351318,1.03125,-0.984375,0.21875,56
17,1696242788609,-0.10058594,-0.9902954,0.14935303,-0.09375,-1.0,-0.015625,57
18,1696242788649,-0.10229492,-0.9776001,0.16033936,0.78125,-1.234375,0.1875,58
19,1696242788689,-0.08935547,-0.97491455,0.15765381,-0.0625,-0.578125,0.0625,59
20,1696242788729,-0.10473633,-0.9776001,0.16644287,0.453125,-0.4375,0.265625,60
21,1696242788769,-0.095458984,-0.98931885,0.15667725,0.3125,-0.890625,0.15625,61
22,1696242788809,-0.0949707,-0.9771118,0.15863037,0.21875,-0.46875,0.03125,62
23,1696242788849,-0.099365234,-0.98883057,0.15887451,1.0625,-1.109375,0.21875,63
24,1696242788889,-0.09838867,-0.9837036,0.14447021,0.640625,-0.828125,-0.21875,64
25,1696242788929,-0.092041016,-0.9768677,0.1539917,1.03125,-0.765625,-0.140625,65
26,1696242788969,-0.10644531,-0.989563,0.16156006,1.0625,-0.6875,0.1875,66
27,1696242789009,-0.10424805,-0.9663696,0.15081787,0.921875,-1.0625,-0.375,67
28,1696242789049,-0.08959961,-0.9937134,0.14691162,0.046875,0.421875,-0.078125,68
29,1696242789089,-0.0925293,-0.9812622,0.15863037,1.234375,-0.84375,0.0,69
30,1696242789129,-0.08935547,-0.98565674,0.12957764,-0.46875,0.40625,-0.03125,70
31,1696242789169,-0.10107422,-0.9680786,0.15496826,1.3125,-0.21875,-0.328125,71
32,1696242789209,-0.10229492,-0.9939575,0.14593506,1.03125,-0.234375,0.453125,72
33,1696242789249,-0.099853516,-0.9771118,0.14031982,0.671875,-0.234375,-0.125,73
34,1696242789289,-0.106933594,-0.9846802,0.14202881,0.53125,-0.125,0.265625,74
35,1696242789329,-0.1027832,-0.9771118,0.14154053,0.078125,-0.34375,-0.171875,75
36,1696242789369,-0.10473633,-0.9859009,0.15008545,0.671875,-0.34375,0.09375,76
37,1696242789409,-0.08886719,-0.9871216,0.1239624,-1.140625,-1.03125,0.375,77
38,1696242789449,-0.111572266,-0.972229,0.15887451,0.6875,1.484375,-0.671875,78
39,1696242789489,-0.10620117,-1.0027466,0.13665771,-0.8125,-1.015625,0.90625,79
40,1696242789529,-0.10449219,-0.9702759,0.13739014,0.515625,-0.109375,-0.65625,80
41,1696242789569,-0.099853516,-1.000061,0.15301514,1.25,0.34375,0.84375,81
42,1696242789609,-0.11035156,-0.9702759,0.13909912,-0.671875,-0.875,-0.890625,82
43,1696242789649,-0.100097656,-0.99102783,0.14202881,0.875,-0.203125,1.296875,83
44,1696242789689,-0.10668945,-0.973938,0.14349365,0.125,-0.40625,-0.5625,84
45,1696242789729,-0.100097656,-0.99591064,0.14788818,0.703125,0.09375,0.9375,85
46,1696242789769,-0.103759766,-0.9763794,0.13397217,-0.0625,-0.6875,-0.0625,86
47,1696242789809,-0.103027344,-0.99053955,0.13787842,-0.3125,0.03125,0.5625,87
48,1696242789849,-0.09741211,-0.98272705,0.15765381,0.609375,-0.65625,0.40625,88
49,1696242789889,-0.10107422,-0.9873657,0.11859131,-0.828125,0.015625,0.25,89
50,1696242789929,-0.10205078,-0.97784424,0.14178467,0.59375,-0.234375,-0.0625,90
51,1696242789969,-0.1027832,-0.9885864,0.14129639,0.109375,-0.359375,0.4375,91
52,1696242790009,-0.10131836,-0.9783325,0.14178467,0.0625,-0.1875,0.09375,92
53,1696242790049,-0.107177734,-0.9939575,0.13519287,-0.1875,-0.4375,0.21875,93
54,1696242790089,-0.10180664,-0.9849243,0.13397217,0.0,-0.484375,0.171875,94
55,1696242790129,-0.09765625,-0.9890747,0.14447021,0.71875,-0.109375,0.125,95
56,1696242790169,-0.103271484,-0.9800415,0.13812256,-0.515625,-0.625,0.28125,96
57,1696242790209,-0.107666016,-0.9812622,0.14202881,0.1875,-0.421875,0.328125,97
58,1696242790249,-0.09863281,-0.98638916,0.14959717,0.390625,-0.46875,0.453125,98
59,1696242790289,-0.103515625,-0.9788208,0.12786865,-0.109375,-1.3125,0.359375,99
60,1696242790329,-0.09472656,-0.98150635,0.14910889,0.28125,-0.65625,0.609375,100
61,1696242790369,-0.10644531,-0.98272705,0.1408081,-0.421875,-1.46875,0.09375,101
62,1696242790409,-0.10107422,-0.98101807,0.13543701,-0.671875,-1.015625,0.265625,102
63,1696242790449,-0.100097656,-0.9768677,0.14129639,-0.34375,-1.28125,0.28125,103
64,1696242790489,-0.09838867,-0.98272705,0.13763428,-0.703125,-0.96875,0.421875,104
65,1696242790529,-0.10083008,-0.98443604,0.1395874,-0.859375,-0.671875,0.234375,105
66,1696242790569,-0.09838867,-0.98394775,0.1359253,-0.984375,-0.671875,0.15625,106
67,1696242790609,-0.1027832,-0.9807739,0.14520264,-0.671875,-0.625,0.1875,107
68,1696242790649,-0.10229492,-0.98638916,0.14129639,-0.875,-0.890625,0.65625,108
69,1696242790689,-0.09887695,-0.96173096,0.15594482,0.703125,-1.046875,-0.015625,109
70,1696242790729,-0.08276367,-0.989563,0.14276123,-0.53125,0.359375,0.53125,110
71,1696242790769,-0.09008789,-0.9729614,0.12786865,-0.828125,-1.203125,0.390625,111
72,1696242790809,-0.10058594,-0.9854126,0.14959717,-0.828125,0.3125,0.28125,112
73,1696242790849,-0.11010742,-0.9812622,0.16668701,-0.40625,-0.140625,0.234375,113
74,1696242790889,-0.09887695,-0.9837036,0.14422607,-1.234375,0.03125,0.078125,114
75,1696242790929,-0.10107422,-0.96881104,0.14569092,-0.890625,-0.75,0.03125,115
76,1696242790969,-0.10498047,-0.9968872,0.15301514,-1.140625,-0.109375,0.03125,116
77,1696242791009,-0.0925293,-0.9741821,0.15447998,-0.765625,-0.4375,-0.015625,117
78,1696242791049,-0.10620117,-0.986145,0.14984131,-1.484375,-0.53125,0.25,118
79,1696242791089,-0.104003906,-0.96881104,0.15814209,-0.828125,-0.234375,0.046875,119
80,1696242791129,-0.10522461,-0.9837036,0.1671753,-0.546875,0.0,0.3125,120
81,1696242791169,-0.08935547,-0.9871216,0.15692139,-1.078125,-0.171875,0.40625,121
82,1696242791209,-0.09887695,-0.973938,0.16497803,-0.6875,-0.296875,0.171875,122
83,1696242791249,-0.1015625,-0.9734497,0.16351318,-0.765625,-0.484375,0.421875,123
84,1696242791289,-0.09716797,-0.98223877,0.1618042,-0.78125,-0.375,0.25,124
85,1696242791329,-0.1027832,-0.9805298,0.1642456,-0.6875,-0.453125,0.265625,125
86,1696242791369,-0.09765625,-0.97662354,0.1618042,-1.0625,-0.796875,0.046875,126
87,1696242791409,-0.1015625,-0.9758911,0.15814209,-1.484375,-0.765625,0.15625,127
88,1696242791449,-0.10253906,-0.97369385,0.16351318,-1.203125,-0.890625,0.109375,128
89,1696242791489,-0.099853516,-0.9780884,0.17547607,-0.375,-0.625,0.390625,129
90,1696242791529,-0.09082031,-0.9783325,0.17108154,-0.59375,-0.875,0.234375,130
91,1696242791569,-0.09765625,-0.9768677,0.15960693,-0.296875,-1.40625,0.578125,131
92,1696242791609,-0.095214844,-0.9702759,0.18426514,1.609375,-0.921875,0.296875,132
93,1696242791649,-0.099365234,-0.9812622,0.1486206,-0.5,-0.21875,0.28125,133
94,1696242791689,-0.10986328,-0.9846802,0.18084717,0.296875,-0.40625,0.5625,134
95,1696242791729,-0.099853516,-0.97979736,0.17108154,0.359375,-0.34375,0.296875,135
96,1696242791769,-0.09375,-0.9661255,0.15911865,-0.1875,-0.4375,0.21875,136
97,1696242791809,-0.10595703,-0.9795532,0.17449951,0.3125,-0.203125,0.390625,137
98,1696242791849,-0.10180664,-0.98394775,0.16375732,0.234375,-0.53125,0.15625,138
99,1696242791889,-0.09448242,-0.9776001,0.18548584,1.671875,-0.15625,0.375,139
100,1696242791929,-0.09350586,-0.9714966,0.15692139,0.328125,-0.109375,0.34375,140
101,1696242791969,-0.103759766,-0.97247314,0.16619873,0.640625,-0.484375,-0.15625,141
102,1696242792009,-0.10131836,-0.98883057,0.17669678,1.21875,-0.546875,0.40625,142
103,1696242792049,-0.095458984,-0.9807739,0.152771,0.78125,-0.796875,-0.015625,143
104,1696242792089,-0.095703125,-0.97369385,0.15911865,1.3125,-0.625,0.28125,144
105,1696242792129,-0.099853516,-0.98443604,0.16351318,1.015625,-0.59375,0.265625,145
106,1696242792169,-0.087402344,-0.97613525,0.16033936,0.640625,-0.25,0.140625,146
107,1696242792209,-0.10131836,-0.97979736,0.16278076,0.578125,-0.40625,0.171875,147
108,1696242792249,-0.1015625,-0.9873657,0.15740967,0.703125,-0.203125,0.265625,148
109,1696242792289,-0.095458984,-0.97491455,0.15545654,0.765625,-0.28125,0.15625,149
110,1696242792329,-0.10180664,-0.9783325,0.15618896,0.703125,-0.515625,0.296875,150
111,1696242792369,-0.10253906,-0.97369385,0.16107178,0.703125,-0.328125,0.359375,151
112,1696242792409,-0.10522461,-0.9841919,0.16400146,1.015625,-0.390625,0.296875,152
113,1696242792449,-0.10205078,-0.97735596,0.14447021,0.40625,-0.96875,0.09375,153
114,1696242792489,-0.10083008,-0.98321533,0.14031982,0.53125,-0.515625,0.453125,154
115,1696242792529,-0.091552734,-0.9758911,0.16546631,2.1875,-0.640625,0.28125,155
116,1696242792569,-0.09033203,-0.987854,0.1305542,-0.921875,0.09375,0.1875,156
117,1696242792609,-0.10131836,-0.97540283,0.14666748,0.796875,-0.34375,-0.34375,157
118,1696242792649,-0.10131836,-0.987854,0.15081787,0.75,-0.046875,0.5,158
119,1696242792689,-0.0949707,-0.97052,0.14471436,0.53125,-0.34375,-0.078125,159
120,1696242792729,-0.1081543,-0.9837036,0.14764404,0.40625,-0.28125,0.15625,160
121,1696242792769,-0.1003418,-0.9812622,0.14276123,0.25,-0.375,-0.1875,161
122,1696242792809,-0.099609375,-0.9819946,0.16009521,0.625,-0.28125,0.15625,162
123,1696242792849,-0.096191406,-0.97979736,0.13739014,-0.609375,-0.5625,-0.046875,163
124,1696242792889,-0.1027832,-0.9697876,0.14007568,0.015625,0.015625,-0.140625,164
125,1696242792929,-0.100097656,-0.9924927,0.15350342,0.359375,-0.75,0.3125,165
126,1696242792969,-0.106933594,-0.96661377,0.13861084,0.3125,-0.515625,-0.234375,166
127,1696242793009,-0.100097656,-0.9819946,0.1461792,0.40625,-0.390625,0.53125,167
128,1696242793049,-0.099609375,-0.9817505,0.14129639,0.140625,-0.703125,0.203125,168
129,1696242793089,-0.09692383,-0.9890747,0.13983154,0.21875,0.078125,0.453125,169
130,1696242793129,-0.10424805,-0.97613525,0.1461792,0.046875,-0.671875,-0.015625,170
131,1696242793169,-0.103759766,-0.98931885,0.14031982,0.28125,-0.296875,0.515625,171
132,1696242793209,-0.10449219,-0.9771118,0.13616943,0.125,-0.53125,0.125,172
133,1696242793249,-0.103515625,-0.98443604,0.14105225,0.3125,-0.28125,0.375,173
134,1696242793289,-0.09716797,-0.9819946,0.14178467,-0.0625,-0.28125,0.25,174
135,1696242793329,-0.104003906,-0.9824829,0.1437378,-0.015625,-0.125,0.234375,175
136,1696242793369,-0.09814453,-0.98150635,0.14154053,0.125,-0.421875,0.328125,176
137,1696242793409,-0.09448242,-0.98394775,0.1359253,-0.28125,-0.21875,0.34375,177
138,1696242793449,-0.10180664,-0.9885864,0.14422607,0.890625,-0.546875,0.65625,178
139,1696242793489,-0.09106445,-0.97735596,0.15374756,1.078125,-0.234375,0.15625,179
140,1696242793529,-0.10131836,-0.98638916,0.13519287,-0.421875,-0.703125,0.40625,180
141,1696242793569,-0.091308594,-0.97491455,0.13128662,-0.34375,0.046875,-0.0625,181
142,1696242793609,-0.104003906,-0.98809814,0.14935303,0.984375,-0.046875,0.671875,182
143,1696242793649,-0.09301758,-0.98321533,0.13250732,-0.140625,-0.1875,0.203125,183
144,1696242793689,-0.09814453,-0.9780884,0.14105225,0.234375,-0.171875,0.140625,184
145,1696242793729,-0.10229492,-0.9812622,0.13983154,-0.359375,-0.4375,0.375,185
146,1696242793769,-0.09423828,-0.9805298,0.13372803,-0.171875,-0.28125,0.03125,186
147,1696242793809,-0.09863281,-0.98931885,0.13690186,-0.46875,-0.546875,0.078125,187
148,1696242793849,-0.09887695,-0.97735596,0.13470459,-0.265625,-0.390625,-0.0625,188
149,1696242793889,-0.10131836,-0.9793091,0.14788818,0.328125,-0.4375,0.25,189
150,1696242793929,-0.09399414,-0.99053955,0.14666748,0.203125,-0.703125,0.234375,190
151,1696242793969,-0.09277344,-0.9819946,0.137146,0.21875,-0.734375,0.078125,191
152,1696242794009,-0.10205078,-0.98272705,0.1437378,0.15625,-1.09375,0.328125,192
153,1696242794049,-0.09741211,-0.98809814,0.14398193,0.15625,-1.15625,0.234375,193
154,1696242794089,-0.10131836,-0.9837036,0.1408081,-0.15625,-1.265625,0.09375,194
155,1696242794129,-0.09838867,-0.98760986,0.13665771,-0.703125,-1.46875,-0.015625,195
156,1696242794169,-0.09399414,-0.975647,0.13763428,-0.546875,-1.09375,0.28125,196
157,1696242794209,-0.09716797,-0.98760986,0.14422607,-0.734375,-0.671875,0.125,197
158,1696242794249,-0.099853516,-0.9829712,0.13641357,-0.46875,-0.6875,0.3125,198
159,1696242794289,-0.09863281,-0.97784424,0.14764404,-0.203125,-0.390625,0.15625,199
160,1696242794329,-0.103027344,-0.9793091,0.14324951,-0.453125,-0.84375,0.234375,200
161,1696242794369,-0.10107422,-0.9795532,0.14324951,-0.6875,-0.875,-0.015625,201
162,1696242794409,-0.103515625,-0.98028564,0.14276123,-0.90625,-0.59375,-0.015625,202
163,1696242794449,-0.09472656,-0.98687744,0.14007568,-1.484375,-0.140625,0.125,203
164,1696242794489,-0.09643555,-0.9924927,0.16033936,-0.21875,-0.453125,0.375,204
165,1696242794529,-0.091308594,-0.972229,0.12640381,-2.421875,0.359375,-0.140625,205
166,1696242794569,-0.11401367,-0.9846802,0.16229248,-0.046875,-0.03125,0.359375,206
167,1696242794609,-0.09350586,-0.9885864,0.1437378,-1.234375,-0.0625,0.203125,207
168,1696242794649,-0.09326172,-0.97369385,0.14520264,-1.328125,-0.0625,0.15625,208
169,1696242794689,-0.10131836,-0.9859009,0.1552124,-0.828125,-0.25,0.265625,209
170,1696242794729,-0.10131836,-0.991272,0.15106201,-1.171875,-0.125,0.171875,210
171,1696242794769,-0.09472656,-0.98272705,0.1642456,-0.328125,-0.171875,0.3125,211
172,1696242794809,-0.09765625,-0.97369385,0.15130615,-1.765625,-0.140625,0.546875,212
173,1696242794849,-0.107910156,-0.9751587,0.16595459,-0.765625,-0.03125,0.4375,213
174,1696242794889,-0.09765625,-0.9873657,0.15985107,-0.875,-0.3125,0.484375,214
175,1696242794929,-0.100097656,-0.97662354,0.15545654,-0.921875,-0.234375,0.375,215
176,1696242794969,-0.09716797,-0.9795532,0.16107178,-0.703125,-0.40625,0.40625,216
177,1696242795009,-0.10180664,-0.986145,0.16693115,-0.6875,-0.296875,0.40625,217
178,1696242795049,-0.099853516,-0.97784424,0.15740967,-0.875,-0.390625,0.296875,218
179,1696242795089,-0.09838867,-0.9795532,0.16253662,-0.5,-0.25,0.46875,219
180,1696242795129,-0.095458984,-0.97540283,0.16448975,-0.203125,-0.59375,0.328125,220
181,1696242795169,-0.095703125,-0.9771118,0.15838623,0.109375,-0.875,0.640625,221
182,1696242795209,-0.092041016,-0.9788208,0.15985107,0.453125,-0.859375,0.359375,222
183,1696242795249,-0.0925293,-0.9817505,0.16473389,0.890625,-0.546875,0.359375,223
184,1696242795289,-0.09643555,-0.9800415,0.16253662,0.3125,-0.53125,0.515625,224
185,1696242795329,-0.10253906,-0.98223877,0.16204834,-0.046875,-1.03125,0.375,225
186,1696242795369,-0.08666992,-0.9780884,0.18157959,1.6875,-1.125,0.21875,226
187,1696242795409,-0.08935547,-0.97979736,0.13934326,-0.8125,-0.484375,-0.015625,227
188,1696242795449,-0.10498047,-0.98760986,0.17474365,0.78125,-0.25,0.53125,228
189,1696242795489,-0.09741211,-0.9824829,0.16253662,0.171875,-0.65625,0.25,229
190,1696242795529,-0.08935547,-0.9714966,0.15496826,0.296875,-0.65625,0.078125,230
191,1696242795569,-0.10253906,-0.98150635,0.16693115,0.859375,-0.734375,0.234375,231
192,1696242795609,-0.0949707,-0.98321533,0.15570068,-0.171875,-0.765625,0.0625,232
193,1696242795649,-0.09692383,-0.9817505,0.16595459,0.96875,-0.8125,0.125,233
194,1696242795689,-0.09301758,-0.98223877,0.15960693,-0.28125,-0.65625,0.0625,234
195,1696242795729,-0.10522461,-0.97613525,0.15740967,0.28125,-0.296875,0.0,235
196,1696242795769,-0.1027832,-0.99053955,0.16351318,0.78125,-0.765625,0.296875,236
197,1696242795809,-0.09765625,-0.97735596,0.14959717,0.453125,-0.59375,0.15625,237
198,1696242795849,-0.0949707,-0.9812622,0.15692139,1.09375,-0.546875,0.40625,238
199,1696242795889,-0.1003418,-0.98394775,0.1515503,0.796875,-0.546875,0.25,239
200,1696242795929,-0.10058594,-0.97906494,0.15350342,0.625,-0.421875,-0.03125,240
201,1696242795969,-0.099365234,-0.9819946,0.1564331,0.65625,-0.703125,0.265625,241
202,1696242796009,-0.095703125,-0.98028564,0.14715576,0.5,-0.78125,0.15625,242
203,1696242796049,-0.09716797,-0.97857666,0.14910889,0.53125,-0.546875,0.4375,243
204,1696242796089,-0.09765625,-0.9795532,0.15545654,0.765625,-0.65625,0.21875,244
205,1696242796129,-0.10180664,-0.9849243,0.14105225,0.09375,-0.421875,0.234375,245
206,1696242796169,-0.103759766,-0.987854,0.14056396,0.609375,-0.65625,0.125,246
207,1696242796209,-0.10107422,-0.98272705,0.16815186,2.0,-0.609375,0.546875,247
208,1696242796249,-0.08935547,-0.98394775,0.124694824,-0.84375,0.15625,-0.03125,248
209,1696242796289,-0.09326172,-0.9800415,0.14593506,0.71875,-0.171875,0.0625,249
210,1696242796329,-0.109375,-0.99224854,0.14447021,0.78125,-0.375,0.53125,250
211,1696242796369,-0.095458984,-0.97320557,0.1437378,0.546875,-0.09375,0.234375,251
212,1696242796409,-0.10424805,-0.9771118,0.15032959,0.53125,-0.1875,0.21875,252
213,1696242796449,-0.099853516,-0.98809814,0.14593506,-0.140625,-0.328125,0.171875,253
214,1696242796489,-0.099121094,-0.97979736,0.15618896,0.8125,-0.640625,-0.015625,254
215,1696242796529,-0.10424805,-0.98565674,0.14251709,-0.5625,-0.046875,0.34375,255
216,1696242796569,-0.099853516,-0.97906494,0.137146,-0.03125,0.09375,-0.109375,256
217,1696242796609,-0.106933594,-0.986145,0.15374756,0.578125,-0.34375,0.515625,257
218,1696242796649,-0.10205078,-0.9883423,0.14007568,-0.203125,-0.5,0.28125,258
219,1696242796689,-0.087646484,-0.97857666,0.14959717,0.640625,-1.109375,0.140625,259
220,1696242796729,-0.103027344,-0.9807739,0.1395874,0.1875,-0.8125,0.09375,260
221,1696242796769,-0.1027832,-0.9866333,0.13543701,-0.078125,-0.28125,0.34375,261
222,1696242796809,-0.10595703,-0.9800415,0.14227295,0.03125,-0.46875,0.1875,262
223,1696242796849,-0.09716797,-0.97784424,0.14398193,0.203125,-0.46875,0.46875,263
224,1696242796889,-0.10107422,-0.9824829,0.14202881,-0.015625,-0.1875,0.515625,264
225,1696242796929,-0.09716797,-0.9817505,0.13568115,-0.28125,-0.1875,0.375,265
226,1696242796969,-0.10913086,-0.9805298,0.14984131,1.015625,-0.703125,0.640625,266
227,1696242797009,-0.092041016,-0.9717407,0.15228271,0.625,-0.109375,0.34375,267
228,1696242797049,-0.095703125,-0.98443604,0.1317749,-0.390625,-0.546875,0.453125,268
229,1696242797089,-0.08935547,-0.9746704,0.13494873,-0.3125,0.265625,-0.046875,269
230,1696242797129,-0.10131836,-0.98565674,0.14642334,0.734375,-0.234375,0.390625,270
231,1696242797169,-0.09106445,-0.9846802,0.14227295,-0.015625,-0.5,0.046875,271
232,1696242797209,-0.10058594,-0.97369385,0.13885498,0.046875,-0.21875,0.21875,272
233,1696242797249,-0.10839844,-0.9866333,0.14447021,-0.0625,-0.5,0.234375,273
234,1696242797289,-0.103515625,-0.9846802,0.1461792,-0.3125,-0.546875,0.15625,274
235,1696242797329,-0.1015625,-0.9837036,0.14154053,-0.6875,-1.0,0.3125,275
236,1696242797369,-0.10083008,-0.98028564,0.14227295,-1.0625,-0.9375,-0.203125,276
237,1696242797409,-0.09790039,-0.98272705,0.15594482,-0.734375,-1.203125,-0.03125,277
238,1696242797449,-0.096191406,-0.9866333,0.14813232,-0.859375,-1.203125,0.171875,278
239,1696242797489,-0.09082031,-0.9805298,0.14520264,-1.03125,-0.703125,0.1875,279
240,1696242797529,-0.1015625,-0.9834595,0.1473999,-0.96875,-0.65625,0.171875,280
241,1696242797569,-0.103271484,-0.98809814,0.14544678,-1.09375,-0.6875,0.09375,281
242,1696242797609,-0.109375,-0.98272705,0.14910889,-0.984375,-0.578125,0.125,282
243,1696242797649,-0.0949707,-0.98443604,0.15179443,-1.046875,-0.421875,0.03125,283
244,1696242797689,-0.095214844,-0.97735596,0.15350342,-0.96875,-0.546875,0.109375,284
245,1696242797729,-0.09643555,-0.9780884,0.15179443,-0.984375,-0.359375,0.40625,285
246,1696242797769,-0.09667969,-0.97857666,0.16741943,0.265625,-0.609375,0.34375,286
247,1696242797809,-0.08862305,-0.98443604,0.14764404,-1.296875,0.0625,0.234375,287
248,1696242797849,-0.09448242,-0.97198486,0.1461792,-0.453125,-0.484375,0.390625,288
249,1696242797889,-0.087646484,-0.97491455,0.1515503,-0.875,0.046875,-0.15625,289
250,1696242797929,-0.10229492,-0.9927368,0.17913818,0.03125,0.078125,0.8125,290
251,1696242797969,-0.08886719,-0.97735596,0.1473999,-1.0625,-0.25,0.140625,291
252,1696242798009,-0.099853516,-0.97247314,0.15594482,-0.75,-0.34375,0.125,292
253,1696242798049,-0.107666016,-0.99346924,0.16253662,-0.859375,-0.046875,0.328125,293
254,1696242798089,-0.09887695,-0.97979736,0.16497803,-0.875,-0.265625,0.078125,294
255,1696242798129,-0.09423828,-0.9771118,0.15350342,-1.28125,-0.421875,0.375,295
256,1696242798169,-0.09106445,-0.975647,0.16351318,-0.921875,-0.0625,-0.015625,296
257,1696242798209,-0.103759766,-0.98150635,0.17425537,-0.109375,-0.265625,0.546875,297
258,1696242798249,-0.096191406,-0.98150635,0.15911865,-0.421875,-0.4375,0.265625,298
259,1696242798289,-0.09350586,-0.9746704,0.17474365,-0.1875,-0.078125,0.359375,299
260,1696242798329,-0.09008789,-0.9783325,0.16986084,-0.453125,-0.265625,0.5,300
261,1696242798369,-0.09667969,-0.9807739,0.16668701,-0.203125,-0.59375,0.5,301
262,1696242798409,-0.0925293,-0.9812622,0.16156006,0.015625,-0.84375,0.375,302
263,1696242798449,-0.091796875,-0.98028564,0.15692139,0.4375,-0.59375,0.515625,303
264,1696242798489,-0.09472656,-0.97198486,0.17327881,1.25,-0.625,0.515625,304
265,1696242798529,-0.09350586,-0.9939575,0.15960693,-0.375,-0.28125,0.609375,305
266,1696242798569,-0.09277344,-0.97491455,0.16644287,1.234375,-0.71875,0.265625,306
267,1696242798609,-0.08862305,-0.9800415,0.15106201,-0.359375,-0.28125,-0.109375,307
268,1696242798649,-0.107910156,-0.98760986,0.17132568,0.28125,-0.484375,0.453125,308
269,1696242798689,-0.08618164,-0.9824829,0.16033936,0.1875,-0.625,0.140625,309
270,1696242798729,-0.099365234,-0.9714966,0.16326904,0.59375,-0.765625,0.140625,310
271,1696242798769,-0.09716797,-0.9871216,0.1618042,0.515625,-0.78125,0.15625,311
272,1696242798809,-0.0949707,-0.9846802,0.15618896,-0.265625,-0.859375,-0.078125,312
273,1696242798849,-0.10253906,-0.9776001,0.1564331,0.140625,-1.609375,0.078125,313
274,1696242798889,-0.09057617,-0.9727173,0.15301514,-0.234375,-0.671875,-0.078125,314
275,1696242798929,-0.106933594,-0.9817505,0.16937256,0.671875,-0.9375,0.1875,315
276,1696242798969,-0.09838867,-0.9812622,0.1539917,0.875,-1.140625,0.21875,316
277,1696242799009,-0.09423828,-0.9783325,0.1605835,0.671875,-0.6875,0.125,317
278,1696242799049,-0.09326172,-0.98394775,0.16497803,1.328125,-0.5625,0.296875,318
279,1696242799089,-0.103027344,-0.9871216,0.15594482,0.328125,-0.8125,0.125,319
280,1696242799129,-0.1027832,-0.98687744,0.1473999,0.046875,-0.640625,0.09375,320
281,1696242799169,-0.09643555,-0.9807739,0.16033936,0.328125,-0.5,0.125,321
282,1696242799209,-0.10620117,-0.9741821,0.15252686,0.40625,-1.0,0.0625,322
283,1696242799249,-0.099121094,-0.99176025,0.14031982,0.046875,-0.03125,0.25,323
284,1696242799289,-0.10131836,-0.9793091,0.16522217,2.03125,-0.40625,0.390625,324
285,1696242799329,-0.095947266,-0.97247314,0.13201904,-0.796875,0.25,-0.203125,325
286,1696242799369,-0.09448242,-0.9837036,0.15814209,1.046875,-0.125,0.296875,326
287,1696242799409,-0.100097656,-0.9834595,0.16082764,0.859375,-0.0625,0.484375,327
288,1696242799449,-0.088134766,-0.9807739,0.14447021,0.90625,0.0,0.078125,328
289,1696242799489,-0.099609375,-0.98223877,0.15032959,0.78125,-0.25,0.265625,329
290,1696242799529,-0.10424805,-0.9824829,0.1461792,0.65625,-0.265625,0.265625,330
291,1696242799569,-0.09057617,-0.98760986,0.14837646,0.734375,-0.40625,0.421875,331
292,1696242799609,-0.099609375,-0.97906494,0.13983154,-0.15625,-0.3125,-0.0625,332
293,1696242799649,-0.10058594,-0.97491455,0.14788818,0.515625,-0.1875,0.171875,333
294,1696242799689,-0.10644531,-0.986145,0.14691162,0.484375,-0.578125,0.4375,334
295,1696242799729,-0.08691406,-0.98150635,0.13616943,1.515625,-0.734375,-0.109375,335
296,1696242799769,-0.099121094,-0.98150635,0.14569092,0.96875,-0.71875,0.46875,336
297,1696242799809,-0.109375,-0.989563,0.13763428,0.265625,-0.28125,0.15625,337
298,1696242799849,-0.0925293,-0.97979736,0.14324951,-0.1875,-0.359375,-0.03125,338
299,1696242799889,-0.09423828,-0.9834595,0.13397217,-0.125,-0.21875,0.28125,339
300,1696242799929,-0.103759766,-0.98638916,0.13763428,0.078125,-0.3125,0.296875,340
301,1696242799969,-0.100097656,-0.98150635,0.14031982,-0.03125,-0.5,0.328125,341
302,1696242800009,-0.10107422,-0.9871216,0.1473999,0.125,-0.25,0.34375,342
303,1696242800049,-0.09838867,-0.9793091,0.14056396,0.21875,-0.15625,0.3125,343
304,1696242800089,-0.09667969,-0.97784424,0.14227295,0.15625,-0.296875,0.328125,344
305,1696242800129,-0.09741211,-0.98931885,0.12884521,-1.015625,0.3125,0.15625,345
306,1696242800169,-0.10131836,-0.98516846,0.15057373,-0.109375,-0.609375,0.484375,346
307,1696242800209,-0.092041016,-0.98028564,0.12445068,-0.984375,0.265625,-0.046875,347
308,1696242800249,-0.099121094,-0.9758911,0.14691162,0.546875,-0.015625,0.3125,348
309,1696242800289,-0.09667969,-0.9817505,0.1408081,-0.328125,-0.46875,0.234375,349
310,1696242800329,-0.099853516,-0.9771118,0.14251709,0.296875,-0.265625,0.140625,350
311,1696242800369,-0.10131836,-0.98394775,0.13665771,-0.09375,-0.46875,0.171875,351
312,1696242800409,-0.09814453,-0.98565674,0.14422607,0.125,-0.6875,0.125,352
313,1696242800449,-0.095458984,-0.9846802,0.14422607,0.40625,-0.421875,0.34375,353
314,1696242800489,-0.10180664,-0.9837036,0.1359253,-1.09375,-0.53125,0.203125,354
315,1696242800529,-0.09863281,-0.9746704,0.15130615,-0.796875,-0.421875,0.125,355
316,1696242800569,-0.09667969,-0.99102783,0.1539917,-0.828125,-0.640625,0.65625,356
317,1696242800609,-0.092285156,-0.9817505,0.14056396,-0.84375,-1.0,0.21875,357
318,1696242800649,-0.09667969,-0.9751587,0.14202881,-0.65625,-0.421875,0.234375,358
319,1696242800689,-0.099853516,-0.9807739,0.14471436,-0.71875,-0.65625,0.46875,359
320,1696242800729,-0.099121094,-0.98028564,0.14764404,-1.046875,-0.484375,0.265625,360
321,1696242800769,-0.09277344,-0.98394775,0.15228271,-1.0,-0.578125,0.28125,361
322,1696242800809,-0.09667969,-0.9800415,0.15057373,-0.859375,-0.453125,0.3125,362
323,1696242800849,-0.09423828,-0.97857666,0.1486206,-0.90625,-0.203125,0.3125,363
324,1696242800889,-0.09472656,-0.97320557,0.15057373,-0.859375,-0.40625,0.0625,364
325,1696242800929,-0.103515625,-0.9768677,0.15594482,-0.84375,-0.484375,0.25,365
326,1696242800969,-0.08618164,-0.9771118,0.1461792,-1.078125,-0.1875,0.125,366
327,1696242801009,-0.10058594,-0.9834595,0.15838623,-0.390625,-0.765625,0.21875,367
328,1696242801049,-0.09716797,-0.9771118,0.1642456,0.046875,-0.703125,0.171875,368
329,1696242801089,-0.09765625,-0.9751587,0.1305542,-2.28125,-0.125,0.09375,369
330,1696242801129,-0.10229492,-0.98565674,0.17474365,-0.15625,-0.15625,0.15625,370
331,1696242801169,-0.095703125,-0.9866333,0.16229248,-1.09375,-0.3125,0.328125,371
332,1696242801209,-0.0949707,-0.9673462,0.16156006,-1.34375,-0.046875,-0.1875,372
333,1696242801249,-0.10839844,-0.9812622,0.16253662,-0.875,-0.28125,0.15625,373
334,1696242801289,-0.095214844,-0.98638916,0.15887451,-1.03125,-0.265625,0.203125,374
335,1696242801329,-0.09765625,-0.9800415,0.18475342,0.0625,-0.390625,0.25,375
336,1696242801369,-0.09082031,-0.97735596,0.1593628,-1.328125,-0.265625,0.421875,376
337,1696242801409,-0.09399414,-0.97613525,0.16668701,-0.53125,-0.421875,0.234375,377
338,1696242801449,-0.09375,-0.98760986,0.17474365,-0.609375,-0.515625,0.4375,378
339,1696242801489,-0.09057617,-0.97857666,0.16229248,-0.40625,-0.484375,0.34375,379
340,1696242801529,-0.092285156,-0.9746704,0.17132568,-0.265625,-0.59375,0.296875,380
341,1696242801569,-0.10424805,-0.9846802,0.17059326,-0.3125,-0.6875,0.421875,381
342,1696242801609,-0.09448242,-0.975647,0.16546631,-0.40625,-0.46875,0.125,382
343,1696242801649,-0.09106445,-0.97540283,0.17010498,-0.21875,-0.34375,0.484375,383
344,1696242801689,-0.09277344,-0.98101807,0.16571045,-0.21875,-0.25,0.3125,384
345,1696242801729,-0.091552734,-0.9768677,0.17327881,0.265625,-0.5625,0.328125,385
346,1696242801769,-0.095458984,-0.98272705,0.17449951,0.171875,-0.421875,0.3125,386
347,1696242801809,-0.09741211,-0.97540283,0.16571045,-0.046875,-0.390625,0.34375,387
348,1696242801849,-0.09692383,-0.97906494,0.16156006,0.453125,-0.875,0.359375,388
349,1696242801889,-0.091796875,-0.9692993,0.1864624,0.953125,-0.609375,0.171875,389
350,1696242801929,-0.095703125,-0.9812622,0.14447021,0.109375,-0.359375,0.4375,390
351,1696242801969,-0.09399414,-0.97662354,0.17572021,1.03125,-0.546875,0.484375,391
352,1696242802009,-0.09790039,-0.9805298,0.17034912,0.515625,-0.65625,0.5,392
353,1696242802049,-0.09106445,-0.9714966,0.16448975,0.234375,-0.703125,0.0625,393
354,1696242802089,-0.09790039,-0.9849243,0.17376709,0.546875,-0.609375,-0.015625,394
355,1696242802129,-0.095947266,-0.9898071,0.16448975,-0.140625,-0.6875,0.078125,395
356,1696242802169,-0.099609375,-0.97125244,0.18426514,1.1875,-0.609375,0.1875,396
357,1696242802209,-0.09423828,-0.97491455,0.1593628,0.375,-0.46875,0.546875,397
358,1696242802249,-0.09423828,-0.9763794,0.16082764,0.296875,-0.765625,0.15625,398
359,1696242802289,-0.10205078,-0.9902954,0.17230225,0.90625,-0.921875,0.078125,399
360,1696242802329,-0.091552734,-0.9795532,0.15716553,0.75,-1.109375,0.03125,400
361,1696242802369,-0.08911133,-0.975647,0.16204834,1.15625,-1.140625,0.171875,401
362,1696242802409,-0.09838867,-0.98394775,0.1539917,0.84375,-0.9375,0.328125,402
363,1696242802449,-0.09838867,-0.9795532,0.1515503,0.578125,-0.484375,-0.03125,403
364,1696242802489,-0.099121094,-0.9829712,0.16497803,1.03125,-0.90625,0.359375,404
365,1696242802529,-0.10083008,-0.9837036,0.1552124,0.984375,-0.703125,0.015625,405
366,1696242802569,-0.103271484,-0.9849243,0.152771,0.90625,-0.46875,0.25,406
367,1696242802609,-0.099609375,-0.9837036,0.15838623,1.0625,-0.265625,0.328125,407
368,1696242802649,-0.09838867,-0.9793091,0.15594482,1.125,-0.1875,0.53125,408
369,1696242802689,-0.095947266,-0.975647,0.14471436,0.75,-0.46875,0.359375,409
370,1696242802729,-0.099609375,-0.9859009,0.14276123,1.0625,-0.609375,0.25,410
371,1696242802769,-0.10107422,-0.9837036,0.16326904,2.0,-0.625,0.265625,411
372,1696242802809,-0.08959961,-0.98516846,0.12786865,-0.734375,-0.03125,-0.015625,412
373,1696242802849,-0.09008789,-0.97735596,0.1395874,0.28125,-0.1875,-0.265625,413
374,1696242802889,-0.099121094,-0.9902954,0.14642334,0.21875,-0.140625,0.53125,414
375,1696242802929,-0.09350586,-0.98565674,0.1473999,-0.015625,0.28125,0.125,415
376,1696242802969,-0.09838867,-0.9800415,0.15203857,-0.25,-0.140625,-0.078125,416
377,1696242803009,-0.10058594,-0.986145,0.14202881,-0.484375,-0.5625,-0.140625,417
378,1696242803049,-0.09375,-0.9800415,0.15863037,0.390625,-0.75,0.046875,418
379,1696242803089,-0.09790039,-0.97662354,0.14422607,-0.5,-0.234375,0.078125,419
380,1696242803129,-0.09667969,-0.97442627,0.14178467,-0.046875,-0.40625,-0.140625,420
381,1696242803169,-0.10424805,-0.9859009,0.15325928,0.25,-0.5625,0.078125,421
382,1696242803209,-0.09472656,-0.9859009,0.14593506,0.09375,-0.515625,0.28125,422
383,1696242803249,-0.09033203,-0.98565674,0.14154053,0.046875,-0.5625,0.171875,423
384,1696242803289,-0.1003418,-0.97979736,0.14886475,0.203125,-0.734375,0.234375,424
385,1696242803329,-0.1003418,-0.9837036,0.14202881,0.0,-0.5,0.234375,425
386,1696242803369,-0.10522461,-0.98394775,0.1473999,0.140625,-0.46875,0.125,426
387,1696242803409,-0.09741211,-0.9783325,0.14642334,-0.0625,-0.640625,0.25,427
388,1696242803449,-0.09692383,-0.9819946,0.14251709,0.046875,-0.609375,0.265625,428
389,1696242803489,-0.09423828,-0.9819946,0.1473999,-0.171875,-0.25,0.359375,429
390,1696242803529,-0.09887695,-0.97857666,0.1437378,-0.046875,-0.65625,0.15625,430
391,1696242803569,-0.100097656,-0.9812622,0.15032959,0.203125,-0.4375,0.25,431
392,1696242803609,-0.09448242,-0.9854126,0.13372803,-0.5,-0.625,0.34375,432
393,1696242803649,-0.10107422,-0.98638916,0.14398193,-0.03125,-0.828125,0.078125,433
394,1696242803689,-0.095214844,-0.97369385,0.15325928,1.40625,-0.71875,0.28125,434
395,1696242803729,-0.09887695,-0.98883057,0.13641357,-0.5625,-0.4375,0.125,435
396,1696242803769,-0.09863281,-0.9829712,0.1395874,0.125,0.0,0.21875,436
397,1696242803809,-0.10229492,-0.9898071,0.14715576,0.359375,-0.25,0.4375,437
398,1696242803849,-0.09301758,-0.98223877,0.14202881,0.15625,-0.234375,0.203125,438
399,1696242803889,-0.09448242,-0.986145,0.15496826,-0.078125,-0.203125,0.375,439
400,1696242803929,-0.10229492,-0.9866333,0.14788818,-0.53125,-0.875,0.4375,440
401,1696242803969,-0.10205078,-0.97979736,0.15545654,0.0,-0.640625,0.203125,441
402,1696242804009,-0.099853516,-0.98272705,0.14031982,-0.8125,-0.90625,0.3125,442
403,1696242804049,-0.099853516,-0.9729614,0.1437378,-0.984375,-0.578125,0.0,443
404,1696242804089,-0.1027832,-0.98321533,0.14935303,-0.5,-0.875,0.328125,444
405,1696242804129,-0.099853516,-0.99298096,0.14691162,-0.4375,-0.890625,0.34375,445
406,1696242804169,-0.083496094,-0.9746704,0.14642334,-0.78125,-0.796875,0.1875,446
407,1696242804209,-0.09741211,-0.98272705,0.14398193,-0.90625,-0.703125,0.3125,447
408,1696242804249,-0.09716797,-0.9837036,0.1461792,-0.8125,-0.59375,0.25,448
409,1696242804289,-0.09838867,-0.98516846,0.14910889,-1.03125,-0.171875,0.5,449
410,1696242804329,-0.09057617,-0.9800415,0.14886475,-0.65625,-0.515625,0.125,450
411,1696242804369,-0.10180664,-0.98223877,0.15252686,-0.984375,-0.265625,0.359375,451
412,1696242804409,-0.09692383,-0.9812622,0.15447998,-0.984375,-0.4375,0.359375,452
413,1696242804449,-0.09692383,-0.9812622,0.15423584,-1.09375,-0.328125,0.15625,453
414,1696242804489,-0.0925293,-0.9780884,0.16278076,-0.734375,-0.28125,0.34375,454
415,1696242804529,-0.09106445,-0.9793091,0.1539917,-1.125,-0.140625,0.1875,455
416,1696242804569,-0.09887695,-0.9859009,0.16009521,-0.140625,-0.8125,0.421875,456
417,1696242804609,-0.08666992,-0.97662354,0.17352295,-1.21875,-0.34375,0.15625,457
418,1696242804649,-0.091796875,-0.98150635,0.13494873,-1.921875,-0.25,0.1875,458
419,1696242804689,-0.09667969,-0.9741821,0.1762085,-0.203125,-0.078125,0.0625,459
420,1696242804729,-0.099121094,-0.98565674,0.16986084,-0.640625,-0.421875,0.46875,460
421,1696242804769,-0.09277344,-0.9788208,0.15667725,-1.078125,-0.140625,-0.015625,461
422,1696242804809,-0.095947266,-0.9768677,0.1671753,-0.625,-0.359375,0.21875,462
423,1696242804849,-0.103027344,-0.9915161,0.16986084,-1.484375,-0.34375,0.21875,463
424,1696242804889,-0.1003418,-0.9763794,0.18328857,-1.0625,-0.171875,-0.21875,464
425,1696242804929,-0.09399414,-0.973938,0.16229248,-1.3125,-0.359375,0.34375,465
426,1696242804969,-0.092041016,-0.9729614,0.17010498,-0.984375,-0.265625,0.0625,466
427,1696242805009,-0.103515625,-0.9924927,0.17913818,-0.265625,-0.796875,0.296875,467
428,1696242805049,-0.08935547,-0.9741821,0.16864014,0.1875,-0.84375,0.421875,468
429,1696242805089,-0.08642578,-0.97003174,0.17230225,0.65625,-0.671875,0.234375,469
430,1696242805129,-0.095214844,-0.9795532,0.16668701,0.953125,-0.921875,0.328125,470
431,1696242805169,-0.09814453,-0.97735596,0.1593628,0.8125,-0.671875,0.59375,471
432,1696242805209,-0.10107422,-0.98272705,0.16815186,0.796875,-0.671875,0.53125,472
433,1696242805249,-0.095458984,-0.9817505,0.16766357,0.265625,-0.734375,0.46875,473
434,1696242805289,-0.09448242,-0.97442627,0.17010498,0.046875,-0.859375,0.234375,474
435,1696242805329,-0.09399414,-0.9763794,0.16937256,0.1875,-0.453125,0.21875,475
436,1696242805369,-0.09643555,-0.9758911,0.17059326,0.59375,-0.796875,0.3125,476
437,1696242805409,-0.09326172,-0.9829712,0.16156006,-0.109375,-0.40625,0.3125,477
438,1696242805449,-0.08642578,-0.972229,0.17645264,2.109375,-0.734375,0.140625,478
439,1696242805489,-0.09301758,-0.9788208,0.15374756,-0.125,-0.03125,0.0,479
440,1696242805529,-0.103515625,-0.9883423,0.17449951,0.421875,-0.59375,0.359375,480
441,1696242805569,-0.09399414,-0.98150635,0.16448975,0.21875,-0.46875,0.21875,481
442,1696242805609,-0.0949707,-0.97662354,0.16009521,0.09375,-0.375,0.109375,482
443,1696242805649,-0.099365234,-0.9866333,0.16351318,0.296875,-0.53125,0.03125,483
444,1696242805689,-0.095214844,-0.98028564,0.1605835,0.21875,-0.5625,-0.125,484
445,1696242805729,-0.09472656,-0.9793091,0.17327881,1.21875,-0.84375,0.296875,485
446,1696242805769,-0.09008789,-0.97906494,0.15325928,0.28125,-0.359375,0.125,486
447,1696242805809,-0.09814453,-0.97784424,0.16522217,0.375,-0.21875,0.125,487
448,1696242805849,-0.099853516,-0.9859009,0.16571045,0.578125,-0.890625,0.328125,488
449,1696242805889,-0.095703125,-0.9805298,0.15570068,0.34375,-0.71875,0.109375,489
450,1696242805929,-0.09326172,-0.9812622,0.16278076,0.703125,-1.109375,0.265625,490
451,1696242805969,-0.091552734,-0.9819946,0.14959717,0.359375,-1.046875,0.203125,491
452,1696242806009,-0.096191406,-0.9819946,0.14959717,-0.21875,-0.765625,0.046875,492
453,1696242806049,-0.099121094,-0.98321533,0.15618896,-0.21875,-0.6875,0.0,493
454,1696242806089,-0.095458984,-0.9883423,0.1552124,-0.15625,-0.796875,0.0625,494
455,1696242806129,-0.099121094,-0.9834595,0.15911865,0.296875,-0.4375,0.21875,495
456,1696242806169,-0.099121094,-0.97857666,0.15374756,0.5625,-0.34375,0.203125,496
457,1696242806209,-0.100097656,-0.98931885,0.14593506,-0.421875,0.125,0.4375,497
458,1696242806249,-0.10229492,-0.986145,0.16448975,1.40625,-0.28125,0.390625,498
459,1696242806289,-0.08520508,-0.97662354,0.1383667,-1.09375,0.484375,0.03125,499
460,1696242806329,-0.1003418,-0.9807739,0.16448975,0.890625,-0.046875,0.203125,500
461,1696242806369,-0.09472656,-0.9915161,0.15618896,0.46875,-0.09375,0.421875,501
462,1696242806409,-0.09887695,-0.97491455,0.15057373,0.53125,0.0,0.15625,502
463,1696242806449,-0.10546875,-0.9829712,0.15716553,0.625,-0.3125,0.296875,503
464,1696242806489,-0.10205078,-0.98809814,0.14837646,0.109375,-0.09375,0.34375,504
465,1696242806529,-0.09790039,-0.98516846,0.15594482,0.734375,0.1875,0.015625,505
466,1696242806569,-0.092285156,-0.9793091,0.1461792,-0.9375,0.421875,0.03125,506
467,1696242806609,-0.095458984,-0.98443604,0.15545654,-0.25,0.25,-0.046875,507
468,1696242806649,-0.099609375,-0.98687744,0.16156006,-0.09375,-0.09375,0.046875,508
469,1696242806689,-0.09790039,-0.97784424,0.1486206,-0.03125,-0.0625,0.015625,509
470,1696242806729,-0.100097656,-0.975647,0.16107178,0.359375,-0.203125,0.25,510
471,1696242806769,-0.1027832,-0.98883057,0.1552124,0.53125,-0.28125,0.21875,511
472,1696242806809,-0.09863281,-0.9817505,0.15130615,0.015625,-0.25,0.03125,512
473,1696242806849,-0.09814453,-0.9807739,0.1515503,0.28125,-0.421875,0.109375,513
474,1696242806889,-0.091796875,-0.98443604,0.15301514,0.171875,-0.515625,0.140625,514
475,1696242806929,-0.095947266,-0.98394775,0.14959717,-0.25,-0.421875,0.140625,515
476,1696242806969,-0.10546875,-0.99224854,0.1515503,0.703125,-0.953125,0.328125,516
477,1696242807009,-0.09301758,-0.9812622,0.16107178,1.171875,-0.71875,0.03125,517
478,1696242807049,-0.09716797,-0.9849243,0.14251709,0.125,-0.84375,0.328125,518
479,1696242807089,-0.092285156,-0.9788208,0.13983154,-0.21875,0.046875,0.15625,519
480,1696242807129,-0.10913086,-0.98638916,0.15911865,0.9375,-0.4375,0.234375,520
481,1696242807169,-0.09814453,-0.9800415,0.14764404,0.15625,-0.328125,0.0,521
482,1696242807209,-0.10229492,-0.9819946,0.15032959,0.375,-0.625,0.171875,522
483,1696242807249,-0.103027344,-0.98223877,0.14642334,0.09375,-0.640625,0.234375,523
484,1696242807289,-0.099609375,-0.97784424,0.14788818,0.15625,-0.75,0.078125,524
485,1696242807329,-0.099365234,-0.9866333,0.14837646,-0.53125,-0.796875,0.21875,525
486,1696242807369,-0.09814453,-0.97662354,0.14813232,-0.625,-0.75,0.0625,526
487,1696242807409,-0.100097656,-0.9871216,0.15740967,0.09375,-0.953125,0.453125,527
488,1696242807449,-0.103027344,-0.9890747,0.15350342,-0.6875,-1.296875,0.359375,528
489,1696242807489,-0.09448242,-0.98150635,0.14447021,-0.671875,-1.046875,0.046875,529
490,1696242807529,-0.10229492,-0.9800415,0.15008545,-0.6875,-1.046875,0.578125,530
491,1696242807569,-0.103271484,-0.98809814,0.14300537,-0.640625,-0.78125,0.421875,531
492,1696242807609,-0.09643555,-0.9807739,0.15325928,-0.796875,-0.921875,0.296875,532
493,1696242807649,-0.10131836,-0.9841919,0.15081787,-1.015625,-0.75,0.296875,533
494,1696242807689,-0.09814453,-0.98150635,0.15472412,-0.90625,-0.671875,0.21875,534
495,1696242807729,-0.09106445,-0.98516846,0.15179443,-1.296875,-0.484375,0.3125,535
496,1696242807769,-0.10522461,-0.9841919,0.15911865,0.078125,-0.78125,0.46875,536
497,1696242807809,-0.09790039,-0.9812622,0.16571045,-0.171875,-0.765625,0.328125,537
498,1696242807849,-0.10107422,-0.9727173,0.14105225,-1.5,-0.6875,0.296875,538
499,1696242807889,-0.09765625,-0.9824829,0.16595459,-0.71875,-0.078125,-0.234375,539
500,1696242807929,-0.103759766,-0.9985962,0.17156982,-0.625,-0.21875,0.609375,540
501,1696242807969,-0.092285156,-0.97052,0.15252686,-1.375,-0.203125,0.0,541
502,1696242808009,-0.099853516,-0.97857666,0.16693115,-0.71875,-0.390625,0.40625,542
503,1696242808049,-0.107666016,-0.989563,0.1708374,-0.984375,-0.09375,0.125,543
504,1696242808089,-0.10473633,-0.9751587,0.17913818,-0.8125,-0.34375,0.171875,544
505,1696242808129,-0.10229492,-0.97979736,0.16448975,-1.328125,-0.453125,0.234375,545
506,1696242808169,-0.103271484,-0.97320557,0.16546631,-0.59375,-0.265625,0.03125,546
507,1696242808209,-0.09838867,-0.9846802,0.17279053,-0.234375,-0.515625,0.421875,547
508,1696242808249,-0.10473633,-0.9793091,0.16815186,-0.140625,-0.515625,0.421875,548
509,1696242808289,-0.092041016,-0.9793091,0.1720581,0.078125,-0.296875,0.46875,549
510,1696242808329,-0.09399414,-0.9824829,0.17034912,0.078125,-0.453125,0.328125,550
511,1696242808369,-0.095703125,-0.9788208,0.16082764,-0.09375,-0.578125,0.421875,551
512,1696242808409,-0.1015625,-0.98516846,0.16375732,0.125,-0.65625,0.359375,552
513,1696242808449,-0.09472656,-0.973938,0.16229248,0.15625,-0.59375,0.34375,553
514,1696242808489,-0.095458984,-0.97491455,0.16375732,0.265625,-0.578125,0.21875,554
515,1696242808529,-0.10522461,-0.9819946,0.17913818,1.234375,-0.703125,0.609375,555
516,1696242808569,-0.09350586,-0.9824829,0.16253662,-1.046875,-0.140625,0.0625,556
517,1696242808609,-0.09667969,-0.9788208,0.15374756,-0.25,-0.546875,0.328125,557
518,1696242808649,-0.09643555,-0.97735596,0.168396,0.078125,-0.03125,0.109375,558
519,1696242808689,-0.09887695,-0.9859009,0.1720581,-0.15625,-0.59375,0.359375,559
520,1696242808729,-0.087890625,-0.9702759,0.16131592,-0.234375,-0.421875,0.0625,560
521,1696242808769,-0.09887695,-0.9776001,0.17034912,0.390625,-0.390625,0.109375,561
522,1696242808809,-0.099609375,-0.9824829,0.1671753,0.421875,-0.65625,0.375,562
523,1696242808849,-0.1015625,-0.9768677,0.1720581,0.46875,-0.71875,0.0625,563
524,1696242808889,-0.10131836,-0.9768677,0.15985107,-0.203125,-0.953125,0.453125,564
525,1696242808929,-0.09643555,-0.973938,0.15618896,-0.25,-0.390625,0.015625,565
526,1696242808969,-0.107666016,-0.9859009,0.17596436,0.734375,-0.765625,0.3125,566
527,1696242809009,-0.09326172,-0.975647,0.16326904,0.671875,-0.859375,0.171875,567
528,1696242809049,-0.091308594,-0.96954346,0.16497803,0.828125,-0.703125,0.359375,568
529,1696242809089,-0.09667969,-0.9805298,0.16766357,0.796875,-0.890625,0.34375,569
530,1696242809129,-0.095458984,-0.9800415,0.15765381,0.640625,-0.578125,0.125,570
531,1696242809169,-0.09448242,-0.9776001,0.16009521,0.6875,-0.703125,0.21875,571
532,1696242809209,-0.10083008,-0.9805298,0.16326904,0.46875,-0.59375,0.28125,572
533,1696242809249,-0.09838867,-0.98101807,0.15667725,0.3125,-0.828125,0.328125,573
534,1696242809289,-0.10229492,-0.97662354,0.16522217,0.40625,-0.78125,0.28125,574
535,1696242809329,-0.096191406,-0.9795532,0.14910889,0.3125,-0.8125,0.265625,575
536,1696242809369,-0.10083008,-0.9807739,0.15496826,1.125,-1.125,0.390625,576
537,1696242809409,-0.09863281,-0.9768677,0.17547607,2.0,-1.046875,0.265625,577
538,1696242809449,-0.08666992,-0.9854126,0.13568115,-0.515625,-0.15625,0.28125,578
539,1696242809489,-0.0925293,-0.97125244,0.15692139,0.75,-0.203125,0.140625,579
540,1696242809529,-0.10449219,-0.99176025,0.16107178,0.78125,-0.453125,0.3125,580
541,1696242809569,-0.092285156,-0.9824829,0.14935303,0.40625,0.265625,0.171875,581
542,1696242809609,-0.10131836,-0.9837036,0.1515503,0.421875,-0.28125,0.09375,582
543,1696242809649,-0.09863281,-0.9873657,0.14959717,0.09375,-0.296875,0.078125,583
544,1696242809689,-0.100097656,-0.98028564,0.1552124,0.578125,-0.421875,0.125,584
545,1696242809729,-0.10498047,-0.9846802,0.14324951,-0.40625,-0.390625,0.328125,585
546,1696242809769,-0.09301758,-0.96832275,0.14959717,-0.0625,-0.25,0.03125,586
547,1696242809809,-0.10668945,-0.98565674,0.16009521,0.453125,-0.4375,0.15625,587
548,1696242809849,-0.1003418,-0.9859009,0.15350342,0.359375,-0.640625,0.171875,588
549,1696242809889,-0.09667969,-0.9788208,0.14593506,0.046875,-0.203125,0.234375,589
550,1696242809929,-0.09399414,-0.97784424,0.15032959,0.375,-0.609375,0.3125,590
551,1696242809969,-0.09741211,-0.9915161,0.14569092,0.125,-0.3125,0.296875,591
552,1696242810009,-0.103027344,-0.9776001,0.14788818,0.09375,-0.328125,0.125,592
553,1696242810049,-0.1015625,-0.973938,0.14520264,0.453125,-0.21875,0.171875,593
554,1696242810089,-0.09667969,-0.98101807,0.14837646,0.203125,-0.4375,0.296875,594
555,1696242810129,-0.10107422,-0.98516846,0.14642334,0.296875,-0.34375,0.0625,595
556,1696242810169,-0.099853516,-0.98321533,0.14715576,0.15625,-0.34375,0.34375,596
557,1696242810209,-0.09448242,-0.9849243,0.14642334,-0.171875,-0.03125,0.5,597
558,1696242810249,-0.09716797,-0.9812622,0.1473999,1.953125,-1.0625,0.359375,598
559,1696242810289,-0.096191406,-0.97662354,0.15203857,1.234375,-0.140625,0.25,599
560,1696242810329,-0.09863281,-0.98565674,0.13739014,0.03125,-0.734375,0.421875,600
561,1696242810369,-0.09326172,-0.97857666,0.13397217,-0.53125,0.140625,-0.046875,601
562,1696242810409,-0.10620117,-0.9819946,0.1539917,0.875,-0.390625,0.609375,602
563,1696242810449,-0.09399414,-0.9883423,0.1395874,0.03125,-0.234375,0.09375,603
564,1696242810489,-0.10058594,-0.9824829,0.14959717,-0.046875,0.09375,0.234375,604
565,1696242810529,-0.10498047,-0.98565674,0.1359253,-0.015625,-0.34375,0.21875,605
566,1696242810569,-0.09643555,-0.9883423,0.1408081,-0.125,-0.390625,0.09375,606
567,1696242810609,-0.091796875,-0.9885864,0.14276123,-0.546875,-0.484375,0.125,607
568,1696242810649,-0.095703125,-0.97735596,0.137146,-0.640625,-0.203125,0.0625,608
569,1696242810689,-0.095214844,-0.98516846,0.15179443,0.21875,-0.5,0.3125,609
570,1696242810729,-0.09887695,-0.99005127,0.14691162,-0.109375,-0.59375,0.28125,610
571,1696242810769,-0.0925293,-0.98223877,0.14105225,0.078125,-0.640625,0.1875,611
572,1696242810809,-0.09765625,-0.9780884,0.14544678,-0.046875,-0.6875,0.203125,612
573,1696242810849,-0.09667969,-0.98809814,0.14202881,0.015625,-0.328125,0.1875,613
574,1696242810889,-0.096191406,-0.9873657,0.1437378,-0.09375,-0.46875,0.34375,614
575,1696242810929,-0.10253906,-0.9859009,0.14642334,-0.1875,-0.640625,0.296875,615
576,1696242810969,-0.09838867,-0.98150635,0.1449585,-0.140625,-0.53125,0.171875,616
577,1696242811009,-0.09863281,-0.98516846,0.14984131,0.1875,-0.703125,0.171875,617
578,1696242811049,-0.09667969,-0.9849243,0.14251709,0.0,-0.78125,0.1875,618
579,1696242811089,-0.099365234,-0.9817505,0.1473999,0.0,-1.015625,0.171875,619
580,1696242811129,-0.099121094,-0.9788208,0.14666748,-0.5,-1.21875,0.015625,620
581,1696242811169,-0.09423828,-0.9841919,0.14227295,-0.8125,-0.953125,0.234375,621
582,1696242811209,-0.10253906,-0.98394775,0.16107178,0.25,-1.203125,0.1875,622
583,1696242811249,-0.08911133,-0.9793091,0.14105225,-1.515625,-0.125,0.078125,623
584,1696242811289,-0.103515625,-0.98028564,0.14398193,-1.109375,-0.609375,0.296875,624
585,1696242811329,-0.091308594,-0.97735596,0.1305542,-1.671875,-0.09375,-0.25,625
586,1696242811369,-0.10888672,-0.9902954,0.16766357,-0.09375,-0.265625,0.453125,626
587,1696242811409,-0.0925293,-0.9898071,0.14471436,-1.484375,-0.1875,0.140625,627
588,1696242811449,-0.09863281,-0.9729614,0.14544678,-1.234375,-0.265625,0.171875,628
589,1696242811489,-0.10107422,-0.9834595,0.15570068,-1.28125,-0.6875,-0.1875,629
590,1696242811529,-0.10205078,-0.9805298,0.15887451,-1.609375,-0.59375,-0.109375,630
591,1696242811569,-0.099609375,-0.9846802,0.15740967,-1.46875,-0.859375,0.015625,631
592,1696242811609,-0.1015625,-0.96832275,0.1552124,-1.546875,-0.515625,-0.109375,632
593,1696242811649,-0.099365234,-0.9793091,0.17327881,-0.75,-0.734375,0.125,633
594,1696242811689,-0.09741211,-0.9915161,0.16278076,-0.625,-0.46875,0.28125,634
595,1696242811729,-0.1027832,-0.9741821,0.15911865,-0.40625,-0.421875,0.375,635
596,1696242811769,-0.095214844,-0.98443604,0.1671753,-0.421875,-0.5625,0.359375,636
597,1696242811809,-0.10058594,-0.9776001,0.1605835,-0.421875,-0.5625,0.40625,637
598,1696242811849,-0.09814453,-0.98150635,0.16326904,-0.328125,-0.234375,0.28125,638
599,1696242811889,-0.1003418,-0.9768677,0.16278076,-0.421875,-0.203125,0.546875,639
600,1696242811929,-0.09790039,-0.9834595,0.15960693,-0.75,-0.296875,0.296875,640
601,1696242811969,-0.103759766,-0.9817505,0.17034912,-0.59375,-0.15625,0.15625,641
602,1696242812009,-0.10131836,-0.9783325,0.1708374,-0.6875,-0.21875,0.328125,642
603,1696242812049,-0.095703125,-0.9780884,0.16986084,-0.4375,-0.046875,0.234375,643
604,1696242812089,-0.09399414,-0.9807739,0.16473389,-0.234375,-0.390625,0.34375,644
605,1696242812129,-0.09863281,-0.98516846,0.17303467,0.0,-1.078125,0.5625,645
606,1696242812169,-0.08666992,-0.9680786,0.1749878,1.65625,-0.875,0.359375,646
607,1696242812209,-0.09082031,-0.9819946,0.1515503,-0.53125,-0.1875,0.5,647
608,1696242812249,-0.10546875,-0.9944458,0.17962646,0.234375,-0.203125,0.5625,648
609,1696242812289,-0.0949707,-0.98272705,0.16473389,-0.53125,-0.34375,0.203125,649
610,1696242812329,-0.088134766,-0.9644165,0.15911865,-0.34375,-0.46875,0.1875,650
611,1696242812369,-0.103271484,-0.9746704,0.16571045,0.5625,-0.421875,0.328125,651
612,1696242812409,-0.095458984,-0.9883423,0.16400146,-0.03125,-0.625,0.359375,652
613,1696242812449,-0.09716797,-0.98272705,0.18304443,0.890625,-0.4375,0.265625,653
614,1696242812489,-0.09399414,-0.97540283,0.16741943,-0.265625,-0.625,0.1875,654
615,1696242812529,-0.10229492,-0.9758911,0.16546631,0.109375,-0.78125,0.1875,655
616,1696242812569,-0.09765625,-0.98809814,0.16375732,0.703125,-0.640625,0.296875,656
617,1696242812609,-0.095947266,-0.9805298,0.1671753,0.8125,-0.578125,0.140625,657
618,1696242812649,-0.09667969,-0.97906494,0.16741943,1.125,-0.796875,0.359375,658
619,1696242812689,-0.09667969,-0.9819946,0.15911865,0.59375,-0.796875,0.09375,659
620,1696242812729,-0.095458984,-0.9871216,0.16522217,0.65625,-0.484375,0.21875,660
621,1696242812769,-0.095947266,-0.9807739,0.16473389,0.609375,-0.5625,0.125,661
622,1696242812809,-0.096191406,-0.98028564,0.16082764,0.828125,-0.875,0.25,662
623,1696242812849,-0.09301758,-0.98101807,0.16033936,0.609375,-0.71875,0.203125,663
624,1696242812889,-0.099853516,-0.98150635,0.15838623,0.640625,-0.578125,0.203125,664
625,1696242812929,-0.095947266,-0.98272705,0.16229248,0.75,-0.46875,0.265625,665
626,1696242812969,-0.09667969,-0.97857666,0.16204834,0.96875,-0.515625,0.25,666
627,1696242813009,-0.095458984,-0.98443604,0.14593506,0.390625,-0.234375,0.515625,667
628,1696242813049,-0.099609375,-0.98150635,0.16693115,2.09375,-0.5625,0.515625,668
629,1696242813089,-0.09790039,-0.9746704,0.13934326,-0.671875,0.265625,0.03125,669
630,1696242813129,-0.10180664,-0.9800415,0.16229248,1.21875,-0.28125,0.3125,670
631,1696242813169,-0.09716797,-0.98931885,0.15081787,0.765625,-0.453125,0.609375,671
632,1696242813209,-0.09448242,-0.9788208,0.14520264,0.8125,-0.015625,0.1875,672
633,1696242813249,-0.10058594,-0.9776001,0.1449585,0.96875,-0.234375,0.125,673
634,1696242813289,-0.095458984,-0.9846802,0.14544678,0.453125,-0.421875,0.203125,674
635,1696242813329,-0.10229492,-0.98516846,0.1618042,1.5,-0.171875,0.171875,675
636,1696242813369,-0.095703125,-0.9819946,0.14251709,-0.25,-0.34375,0.234375,676
637,1696242813409,-0.099853516,-0.973938,0.14593506,0.484375,-0.296875,0.125,677
638,1696242813449,-0.103271484,-0.98809814,0.15106201,0.375,-0.578125,0.234375,678
639,1696242813489,-0.10205078,-0.9854126,0.13763428,0.328125,-0.546875,0.296875,679
640,1696242813529,-0.10131836,-0.9846802,0.1486206,0.796875,-0.359375,0.421875,680
641,1696242813569,-0.10595703,-0.98931885,0.14154053,0.421875,-0.578125,0.53125,681
642,1696242813609,-0.096191406,-0.98565674,0.1437378,0.265625,-0.3125,0.390625,682
643,1696242813649,-0.09790039,-0.98687744,0.14324951,0.234375,-0.34375,0.171875,683
644,1696242813689,-0.09790039,-0.9776001,0.14349365,0.140625,-0.421875,0.21875,684
645,1696242813729,-0.09716797,-0.9812622,0.1395874,0.0625,-0.328125,0.265625,685
646,1696242813769,-0.095458984,-0.9807739,0.14520264,-0.234375,-0.296875,0.203125,686
647,1696242813809,-0.095947266,-0.97906494,0.14251709,0.046875,-0.265625,0.484375,687
648,1696242813849,-0.09765625,-0.9837036,0.1359253,-0.421875,-0.40625,0.296875,688
649,1696242813889,-0.10180664,-0.98150635,0.13934326,-0.234375,-0.671875,0.109375,689
650,1696242813929,-0.09643555,-0.9841919,0.16448975,1.359375,-0.796875,0.296875,690
651,1696242813969,-0.09082031,-0.98150635,0.1317749,-0.640625,-0.265625,0.203125,691
652,1696242814009,-0.09838867,-0.98101807,0.14178467,0.28125,0.078125,0.15625,692
653,1696242814049,-0.099121094,-0.991272,0.152771,0.125,-0.515625,0.25,693
654,1696242814089,-0.100097656,-0.97613525,0.13885498,-0.03125,-0.109375,0.046875,694
655,1696242814129,-0.09033203,-0.9841919,0.14544678,-0.078125,-0.21875,0.015625,695
656,1696242814169,-0.09643555,-0.98321533,0.14007568,-0.1875,-0.46875,0.171875,696
657,1696242814209,-0.095703125,-0.9812622,0.14788818,0.21875,-0.265625,0.0625,697
658,1696242814249,-0.095947266,-0.9837036,0.13909912,-0.765625,-0.5625,0.125,698
659,1696242814289,-0.09887695,-0.9768677,0.14129639,-0.140625,-0.359375,0.046875,699
660,1696242814329,-0.10205078,-0.9871216,0.1552124,0.125,-0.453125,0.328125,700
661,1696242814369,-0.09814453,-0.9834595,0.14105225,0.078125,-0.53125,0.21875,701
662,1696242814409,-0.09472656,-0.98223877,0.14031982,0.03125,-0.5625,0.421875,702
663,1696242814449,-0.0949707,-0.9824829,0.14422607,-0.046875,-0.421875,0.203125,703
664,1696242814489,-0.09448242,-0.99053955,0.14276123,0.09375,-0.34375,0.34375,704
665,1696242814529,-0.09863281,-0.98565674,0.14398193,0.015625,-0.609375,0.234375,705
666,1696242814569,-0.10253906,-0.9854126,0.14544678,0.09375,-0.640625,0.125,706
667,1696242814609,-0.09887695,-0.9854126,0.152771,0.140625,-0.796875,0.296875,707
668,1696242814649,-0.091552734,-0.9800415,0.14691162,-0.15625,-0.734375,0.203125,708
669,1696242814689,-0.099121094,-0.97979736,0.1437378,-0.40625,-0.875,0.15625,709
670,1696242814729,-0.09790039,-0.98516846,0.14447021,-0.828125,-1.046875,0.21875,710
671,1696242814769,-0.10571289,-0.9788208,0.15594482,0.09375,-1.234375,0.078125,711
672,1696242814809,-0.0925293,-0.97784424,0.1395874,-1.453125,-0.5,-0.078125,712
673,1696242814849,-0.09741211,-0.9817505,0.13739014,-1.234375,-0.609375,0.3125,713
674,1696242814889,-0.0871582,-0.9795532,0.13543701,-1.515625,-0.03125,-0.375,714
675,1696242814929,-0.106933594,-0.99591064,0.16571045,-0.015625,-0.28125,0.4375,715
676,1696242814969,-0.09350586,-0.9788208,0.14691162,-1.3125,-0.078125,0.0,716
677,1696242815009,-0.09790039,-0.97442627,0.1473999,-1.171875,-0.21875,0.015625,717
678,1696242815049,-0.10546875,-0.9907837,0.15447998,-1.28125,-0.578125,0.0625,718
679,1696242815089,-0.10253906,-0.987854,0.15814209,-1.21875,-0.265625,0.03125,719
680,1696242815129,-0.099121094,-0.9805298,0.14202881,-1.171875,-0.765625,0.265625,720
681,1696242815169,-0.09790039,-0.972229,0.1630249,-1.21875,-0.25,0.28125,721
682,1696242815209,-0.10913086,-0.9883423,0.16937256,-1.078125,-0.46875,0.34375,722
683,1696242815249,-0.099853516,-0.9890747,0.16278076,-1.359375,-0.171875,0.234375,723
684,1696242815289,-0.09741211,-0.9780884,0.16619873,-0.734375,-0.28125,0.203125,724
685,1696242815329,-0.10083008,-0.97857666,0.16571045,-0.78125,-0.484375,0.3125,725
686,1696242815369,-0.09838867,-0.9837036,0.16473389,-0.703125,-0.265625,0.234375,726
687,1696242815409,-0.103027344,-0.9805298,0.16229248,-0.875,-0.25,0.203125,727
688,1696242815449,-0.09716797,-0.98101807,0.16790771,-0.90625,-0.0625,0.453125,728
689,1696242815489,-0.10083008,-0.97906494,0.16497803,-1.171875,-0.015625,0.21875,729
690,1696242815529,-0.1003418,-0.9824829,0.17034912,-1.0625,-0.328125,0.109375,730
691,1696242815569,-0.1003418,-0.9788208,0.17279053,-0.53125,-0.296875,0.453125,731
692,1696242815609,-0.103271484,-0.9776001,0.17352295,-0.21875,-0.671875,0.390625,732
693,1696242815649,-0.1003418,-0.9834595,0.1749878,-0.0625,-0.765625,0.328125,733
694,1696242815689,-0.08984375,-0.9751587,0.17840576,1.359375,-0.90625,0.15625,734
695,1696242815729,-0.09448242,-0.9763794,0.14544678,-0.75,-0.3125,0.15625,735
696,1696242815769,-0.10083008,-0.9849243,0.184021,0.21875,-0.171875,0.46875,736
697,1696242815809,-0.09106445,-0.9763794,0.17303467,-0.078125,-0.421875,0.296875,737
698,1696242815849,-0.09716797,-0.96661377,0.16400146,0.109375,-0.3125,0.015625,738
699,1696242815889,-0.10058594,-0.98638916,0.17913818,0.53125,-0.375,0.34375,739
700,1696242815929,-0.099121094,-0.986145,0.16375732,-0.03125,-0.671875,0.28125,740
701,1696242815969,-0.1003418,-0.97369385,0.17156982,0.6875,-1.09375,0.34375,741
702,1696242816009,-0.092041016,-0.97540283,0.16644287,0.78125,-0.6875,0.234375,742
703,1696242816049,-0.09887695,-0.9783325,0.17108154,0.625,-0.59375,0.28125,743
704,1696242816089,-0.09643555,-0.9866333,0.16400146,0.578125,-0.921875,0.375,744
705,1696242816129,-0.095214844,-0.98150635,0.16400146,0.71875,-0.75,0.28125,745
706,1696242816169,-0.092285156,-0.9800415,0.1696167,0.875,-0.921875,0.328125,746
707,1696242816209,-0.09472656,-0.9776001,0.16278076,0.703125,-0.46875,0.328125,747
708,1696242816249,-0.09667969,-0.9817505,0.1552124,0.109375,-0.109375,0.171875,748
709,1696242816289,-0.09716797,-0.9805298,0.1630249,0.5625,-0.21875,0.1875,749
710,1696242816329,-0.09692383,-0.98223877,0.16644287,0.828125,-0.625,0.046875,750
711,1696242816369,-0.10229492,-0.9817505,0.15814209,0.671875,-0.6875,0.15625,751
712,1696242816409,-0.09692383,-0.9812622,0.16815186,0.75,-1.046875,0.0625,752
713,1696242816449,-0.09423828,-0.987854,0.14886475,0.046875,-0.265625,0.234375,753
714,1696242816489,-0.09863281,-0.9866333,0.16522217,1.21875,-1.0,0.265625,754
715,1696242816529,-0.09399414,-0.97320557,0.13519287,-1.3125,-0.21875,-0.390625,755
716,1696242816569,-0.107910156,-0.9800415,0.1671753,0.328125,-0.6875,0.25,756
717,1696242816609,-0.09106445,-0.98883057,0.15496826,0.5,-0.671875,0.078125,757
718,1696242816649,-0.09741211,-0.9768677,0.15814209,0.625,-0.34375,0.046875,758
719,1696242816689,-0.099609375,-0.98516846,0.16033936,1.359375,-0.765625,0.421875,759
720,1696242816729,-0.09887695,-0.9824829,0.15130615,0.578125,-0.5,0.140625,760
721,1696242816769,-0.09741211,-0.9817505,0.15667725,1.359375,-0.40625,0.328125,761
722,1696242816809,-0.09423828,-0.98150635,0.15325928,-0.03125,-0.46875,0.21875,762
723,1696242816849,-0.10205078,-0.9734497,0.15447998,0.484375,-0.359375,0.046875,763
724,1696242816889,-0.104003906,-0.9949341,0.1539917,0.84375,-0.59375,0.375,764
725,1696242816929,-0.09301758,-0.97906494,0.14959717,0.359375,-0.25,0.28125,765
726,1696242816969,-0.10058594,-0.9807739,0.15252686,0.984375,-0.46875,0.3125,766
727,1696242817009,-0.09863281,-0.98443604,0.1473999,1.171875,-0.125,0.328125,767
728,1696242817049,-0.095703125,-0.98272705,0.14569092,0.421875,-0.28125,0.328125,768
729,1696242817089,-0.10083008,-0.97491455,0.14349365,0.453125,-0.1875,0.140625,769
730,1696242817129,-0.095458984,-0.9819946,0.14447021,0.171875,-0.59375,0.28125,770
731,1696242817169,-0.0925293,-0.98760986,0.14227295,-0.015625,-0.28125,0.34375,771
732,1696242817209,-0.107177734,-0.9866333,0.1564331,1.234375,-0.6875,0.421875,772
733,1696242817249,-0.08862305,-0.97979736,0.14276123,-0.1875,0.15625,0.15625,773
734,1696242817289,-0.09448242,-0.9846802,0.14251709,0.125,-0.671875,0.625,774
735,1696242817329,-0.091308594,-0.97540283,0.12982178,-0.828125,0.171875,-0.015625,775
736,1696242817369,-0.10058594,-0.98272705,0.15325928,0.921875,-0.078125,0.390625,776
737,1696242817409,-0.09838867,-0.98883057,0.1486206,0.09375,-0.34375,0.078125,777
738,1696242817449,-0.095458984,-0.9783325,0.14837646,0.15625,-0.15625,0.125,778
739,1696242817489,-0.10229492,-0.9846802,0.14202881,-0.1875,-0.640625,0.15625,779
740,1696242817529,-0.100097656,-0.9854126,0.14593506,0.09375,-0.640625,0.125,780
741,1696242817569,-0.095947266,-0.987854,0.14666748,-0.125,-0.625,0.203125,781
742,1696242817609,-0.09008789,-0.972229,0.14031982,-0.140625,-0.5625,-0.09375,782
743,1696242817649,-0.1027832,-0.9812622,0.1486206,0.21875,-0.59375,0.203125,783
744,1696242817689,-0.10083008,-0.98443604,0.14935303,0.265625,-0.734375,0.34375,784
745,1696242817729,-0.09057617,-0.98028564,0.13983154,0.09375,-0.421875,0.28125,785
746,1696242817769,-0.09814453,-0.9763794,0.14276123,0.109375,-0.6875,0.265625,786
747,1696242817809,-0.095458984,-0.98638916,0.14129639,0.265625,-0.359375,0.328125,787
748,1696242817849,-0.09326172,-0.9807739,0.14129639,0.109375,-0.453125,0.171875,788
749,1696242817889,-0.09790039,-0.98638916,0.14471436,0.15625,-0.53125,0.34375,789
750,1696242817929,-0.10180664,-0.9829712,0.14202881,-0.03125,-0.625,0.109375,790
751,1696242817969,-0.09082031,-0.98150635,0.14031982,-0.171875,-0.53125,0.15625,791
752,1696242818009,-0.10546875,-0.987854,0.14691162,0.65625,-1.109375,0.328125,792
753,1696242818049,-0.095214844,-0.9758911,0.15960693,1.296875,-0.796875,0.359375,793
754,1696242818089,-0.10205078,-0.9751587,0.13470459,-0.234375,-0.859375,0.421875,794
755,1696242818129,-0.091796875,-0.9780884,0.14520264,-0.625,-0.28125,-0.140625,795
756,1696242818169,-0.1105957,-0.99298096,0.14910889,-0.28125,-0.796875,0.578125,796
757,1696242818209,-0.09472656,-0.98394775,0.14178467,-1.125,-0.34375,-0.109375,797
758,1696242818249,-0.10205078,-0.9746704,0.14251709,-1.09375,-0.453125,0.0,798
759,1696242818289,-0.10107422,-0.9854126,0.1408081,-0.9375,-0.65625,0.140625,799
