# Sensor type: Respeck
# Activity type: Lying down on stomach
# Activity subtype: Coughing
# Subject id: s2104454
# Notes: unprocessed
timestamp,accel_x,accel_y,accel_z,gyro_x,gyro_y,gyro_z
1696246828119,0.54052734,0.055603027,-0.81866455,4.9375,-4.21875,1.609375
1696246828160,0.52734375,0.07342529,-0.77056885,10.296875,-5.0,3.734375
1696246828199,0.5422363,0.10296631,-0.788147,7.828125,-4.78125,2.71875
1696246828240,0.5510254,0.10638428,-0.79156494,6.34375,-4.8125,1.5
1696246828279,0.5498047,0.12322998,-0.7661743,5.59375,-3.0,1.4375
1696246828320,0.56591797,0.11883545,-0.7827759,3.015625,-2.140625,0.890625
1696246828359,0.5437012,0.12176514,-0.75982666,2.515625,0.0,0.859375
1696246828399,0.5678711,0.13934326,-0.80181885,-0.171875,3.078125,0.171875
1696246828440,0.642334,0.15106201,-0.80841064,-3.25,8.1875,-1.078125
1696246828499,0.4338379,0.08319092,-0.69659424,-0.1875,9.5625,1.640625
1696246828519,0.49023438,0.113220215,-0.78253174,-1.734375,8.265625,0.34375
1696246828559,0.48461914,0.09490967,-0.75567627,-1.828125,6.03125,0.40625
1696246828602,0.48095703,0.11151123,-0.78863525,-1.71875,5.03125,0.53125
1696246828640,0.48535156,0.109802246,-0.8015747,-1.484375,-0.8125,-0.515625
1696246828679,0.49682617,0.11029053,-0.81915283,-0.734375,-2.375,-0.46875
1696246828719,0.52783203,0.11273193,-0.85601807,-0.03125,-2.484375,-0.625
1696246828760,0.50878906,0.11468506,-0.8040161,2.6875,-1.21875,0.28125
1696246828801,0.51342773,0.12860107,-0.8460083,4.296875,2.234375,0.734375
1696246828840,0.54174805,0.11981201,-0.7908325,3.421875,8.078125,1.40625
1696246828882,0.4428711,0.10736084,-0.70758057,2.828125,5.28125,1.640625
1696246828920,0.44433594,0.1227417,-0.75445557,-0.71875,3.59375,0.359375
1696246828960,0.45751953,0.116882324,-0.8076782,-1.328125,1.140625,-0.125
1696246829000,0.44311523,0.13079834,-0.7962036,-0.859375,-1.046875,-0.171875
1696246829040,0.48486328,0.1293335,-0.8550415,-1.703125,-1.640625,-1.0
1696246829079,0.49902344,0.13275146,-0.8538208,-0.28125,-3.984375,-0.59375
1696246829099,0.49243164,0.13275146,-0.8447876,1.625,-1.359375,0.4375
1696246829140,0.5036621,0.13787842,-0.8596802,1.8125,-0.109375,0.6875
1696246829178,0.49389648,0.13470459,-0.8435669,1.15625,0.65625,0.515625
1696246829220,0.5168457,0.13446045,-0.88604736,-2.203125,2.828125,-0.015625
1696246829261,0.40722656,0.11907959,-0.7637329,0.9375,5.6875,1.421875
1696246829300,0.40112305,0.11932373,-0.6880493,-1.609375,1.0625,0.015625
1696246829340,0.44482422,0.1227417,-0.7647095,-2.890625,-0.15625,-1.203125
1696246829379,0.44628906,0.113464355,-0.77178955,-3.90625,-2.984375,-1.5
1696246829443,0.4609375,0.11077881,-0.78326416,-7.1875,-0.078125,-1.3125
1696246829460,0.4831543,0.10296631,-0.86846924,-8.296875,-0.875,-1.34375
1696246829522,0.50634766,0.105651855,-0.9085083,-4.953125,-3.8125,-0.828125
1696246829540,0.49853516,0.09881592,-0.87091064,-2.34375,-4.765625,-0.546875
1696246829579,0.4946289,0.08831787,-0.83843994,-0.578125,-3.890625,0.015625
1696246829621,0.48339844,0.086364746,-0.8098755,-1.109375,-2.5625,0.046875
1696246829662,0.48364258,0.08856201,-0.7959595,-2.71875,-2.0,-0.59375
1696246829700,0.47753906,0.08538818,-0.7798462,-3.171875,-1.5625,-0.71875
1696246829765,0.5046387,0.085632324,-0.82525635,2.453125,-3.140625,0.796875
1696246829802,0.5175781,0.09173584,-0.85528564,5.046875,-2.5625,1.71875
1696246829842,0.4711914,0.09173584,-0.7835083,6.953125,-1.890625,2.28125
1696246829867,0.49731445,0.105407715,-0.80474854,5.515625,-1.765625,1.328125
1696246829900,0.47827148,0.1071167,-0.7817993,3.0625,-0.71875,0.6875
1696246829964,0.49804688,0.11932373,-0.8032837,2.46875,-0.9375,0.609375
1696246829980,0.49291992,0.1359253,-0.8130493,2.640625,-0.5,0.609375
1696246830041,0.5124512,0.10687256,-0.7498169,2.703125,5.875,1.65625
1696246830059,0.45263672,0.12640381,-0.73760986,0.953125,1.34375,0.296875
1696246830121,0.45996094,0.11004639,-0.7600708,-2.84375,0.0,-1.28125
1696246830139,0.48266602,0.11004639,-0.7971802,-2.640625,0.171875,-0.59375
1696246830201,0.48364258,0.11248779,-0.80914307,-0.796875,-0.03125,-0.359375
1696246830221,0.49853516,0.11639404,-0.8401489,-0.328125,-0.859375,-0.296875
1696246830280,0.49243164,0.116882324,-0.8389282,0.15625,-0.859375,-0.03125
1696246830300,0.5029297,0.117370605,-0.8230591,0.734375,-1.21875,0.390625
1696246830340,0.4831543,0.12030029,-0.8086548,0.765625,-0.390625,0.28125
1696246830359,0.48828125,0.1161499,-0.80352783,0.8125,0.203125,0.5
1696246830401,0.48583984,0.117614746,-0.815979,0.453125,0.109375,0.265625
1696246830444,0.4873047,0.11907959,-0.80426025,0.515625,-0.203125,-0.03125
1696246830480,0.4855957,0.11859131,-0.8154907,0.125,-0.5,0.03125
1696246830521,0.4909668,0.1161499,-0.8130493,0.421875,0.0,0.25
1696246830560,0.49902344,0.1227417,-0.82940674,-0.359375,0.625,0.140625
1696246830599,0.4802246,0.12249756,-0.8110962,-0.328125,1.203125,0.171875
1696246830640,0.48901367,0.12005615,-0.8189087,0.34375,0.59375,0.390625
1696246830682,0.48168945,0.121032715,-0.8167114,-0.71875,1.296875,0.03125
1696246830720,0.5217285,0.12030029,-0.8777466,-2.5625,2.578125,-0.328125
1696246830762,0.4296875,0.10369873,-0.7678833,0.328125,5.25,1.03125
1696246830801,0.4489746,0.11468506,-0.7710571,-0.4375,1.734375,0.609375
1696246830841,0.44848633,0.12005615,-0.77667236,-1.53125,0.09375,-0.46875
1696246830883,0.43969727,0.11224365,-0.76275635,-3.3125,-2.15625,-1.0
1696246830920,0.453125,0.09661865,-0.7949829,-3.875,-0.21875,-0.453125
1696246830961,0.46557617,0.101989746,-0.8428345,-4.34375,-3.1875,-0.53125
1696246831000,0.5095215,0.10369873,-0.89263916,-3.390625,-4.796875,-0.765625
1696246831041,0.50756836,0.101257324,-0.878479,-1.234375,-4.09375,-0.3125
1696246831080,0.5078125,0.10760498,-0.84210205,-0.203125,-3.359375,0.015625
1696246831120,0.49072266,0.09295654,-0.82232666,-0.625,-1.65625,0.1875
1696246831161,0.46826172,0.09539795,-0.78497314,-1.984375,-0.9375,-0.3125
1696246831199,0.47631836,0.081726074,-0.8154907,-2.234375,-0.75,-0.40625
1696246831240,0.50146484,0.1005249,-0.8237915,1.953125,-1.734375,0.546875
1696246831281,0.5119629,0.08441162,-0.8760376,2.9375,-0.0625,1.125
1696246831321,0.47045898,0.10028076,-0.77349854,5.859375,-1.1875,2.15625
1696246831364,0.5148926,0.10443115,-0.8657837,2.265625,-0.515625,0.03125
1696246831399,0.48706055,0.10467529,-0.8008423,2.484375,0.0,0.265625
1696246831440,0.49194336,0.11883545,-0.82232666,3.921875,-1.375,1.21875
1696246831480,0.48242188,0.1227417,-0.81744385,3.3125,-0.75,1.28125
1696246831520,0.47753906,0.13201904,-0.80010986,2.796875,0.421875,1.03125
1696246831561,0.4794922,0.12030029,-0.78863525,0.75,0.328125,-0.0625
1696246831601,0.4892578,0.11883545,-0.8088989,0.296875,1.046875,-0.015625
1696246831641,0.48217773,0.12615967,-0.80474854,-0.125,1.484375,0.5
1696246831660,0.5336914,0.1383667,-0.91485596,-1.75,2.78125,-0.03125
1696246831699,0.46118164,0.11590576,-0.81329346,1.046875,5.34375,1.234375
1696246831762,0.43066406,0.1161499,-0.73760986,-0.140625,2.0625,0.15625
1696246831779,0.4338379,0.11590576,-0.7498169,-2.5625,0.9375,-0.609375
1696246831842,0.4489746,0.12054443,-0.78009033,-2.5625,1.65625,-0.609375
1696246831859,0.45874023,0.12200928,-0.81378174,-1.046875,0.46875,-0.1875
1696246831903,0.47924805,0.1149292,-0.8604126,-0.84375,-1.109375,-0.21875
1696246831982,0.49804688,0.1239624,-0.86383057,0.8125,-2.359375,0.359375
1696246831985,0.49072266,0.12982178,-0.8464966,1.015625,-1.1875,0.375
1696246832021,0.47485352,0.124694824,-0.83843994,1.265625,-0.328125,0.53125
1696246832083,0.4663086,0.12689209,-0.8218384,0.90625,-0.21875,0.359375
1696246832099,0.45117188,0.12371826,-0.7979126,1.171875,0.6875,0.796875
1696246832162,0.50146484,0.1437378,-0.90802,4.484375,2.84375,1.4375
1696246832178,0.48461914,0.14007568,-0.819397,3.1875,1.125,1.546875
1696246832244,0.46728516,0.14300537,-0.82476807,-1.140625,0.453125,0.359375
1696246832259,0.5024414,0.152771,-0.894104,-2.0,2.625,0.28125
1696246832320,0.40405273,0.11785889,-0.7373657,-0.875,3.21875,0.625
1696246832341,0.42773438,0.13787842,-0.8208618,-0.28125,4.078125,0.484375
1696246832382,0.42626953,0.12762451,-0.815979,0.375,3.703125,0.875
1696246832421,0.4189453,0.13323975,-0.81036377,-1.046875,0.734375,0.09375
1696246832467,0.43408203,0.13616943,-0.8340454,-2.109375,-0.71875,-0.859375
1696246832499,0.44873047,0.12908936,-0.84991455,-1.84375,-2.53125,-0.859375
1696246832540,0.45629883,0.13104248,-0.8687134,-0.984375,-2.53125,-0.53125
1696246832602,0.46362305,0.124694824,-0.8648071,-0.234375,-3.5,-0.5
1696246832619,0.45874023,0.13104248,-0.84088135,0.921875,-2.9375,0.125
1696246832661,0.45043945,0.13153076,-0.81988525,1.671875,-2.03125,0.359375
1696246832703,0.45996094,0.13104248,-0.8218384,2.15625,-2.9375,0.578125
1696246832741,0.45654297,0.1408081,-0.83184814,1.375,-1.890625,0.5
1696246832801,0.47021484,0.13690186,-0.8423462,-1.078125,-0.765625,-0.078125
1696246832819,0.46801758,0.13494873,-0.84088135,-1.390625,-0.484375,-0.25
1696246832881,0.49145508,0.13543701,-0.87213135,-1.9375,1.78125,-0.09375
1696246832898,0.40429688,0.11077881,-0.7637329,-0.53125,2.796875,0.484375
1696246832961,0.41870117,0.109069824,-0.8086548,1.0625,3.328125,1.171875
1696246832981,0.4230957,0.12542725,-0.7805786,-0.46875,1.765625,-0.0625
1696246832999,0.39111328,0.117126465,-0.7258911,-2.078125,-0.78125,-1.09375
1696246833041,0.4008789,0.11859131,-0.7503052,-6.84375,-3.21875,-1.328125
1696246833081,0.49926758,0.12640381,-0.9151001,-2.46875,-5.609375,-0.625
1696246833121,0.4946289,0.12762451,-0.9067993,-0.953125,-6.671875,-0.4375
1696246833160,0.5024414,0.12298584,-0.892395,-1.25,-3.75,-0.546875
1696246833200,0.4831543,0.11785889,-0.8533325,-0.703125,-3.484375,-0.203125
1696246833241,0.4897461,0.11663818,-0.8423462,0.734375,-3.15625,0.015625
1696246833280,0.46704102,0.11444092,-0.8023071,-0.078125,-2.609375,0.109375
1696246833320,0.46777344,0.11102295,-0.79815674,-0.546875,-1.546875,0.09375
1696246833361,0.49145508,0.11639404,-0.80548096,0.53125,-0.46875,-0.203125
1696246833401,0.4716797,0.109558105,-0.81744385,1.984375,0.03125,0.609375
1696246833441,0.47314453,0.12347412,-0.7991333,1.578125,-0.03125,0.734375
1696246833481,0.47802734,0.12664795,-0.83306885,1.140625,-0.96875,0.265625
1696246833521,0.48706055,0.1281128,-0.8477173,1.765625,-0.40625,0.859375
1696246833561,0.4790039,0.12445068,-0.8237915,2.015625,-1.109375,0.625
1696246833600,0.47143555,0.124694824,-0.7962036,2.765625,-1.46875,0.875
1696246833640,0.49267578,0.1395874,-0.83673096,1.359375,-0.578125,0.265625
1696246833680,0.48291016,0.12860107,-0.8164673,-0.546875,0.546875,-0.109375
1696246833721,0.51293945,0.1359253,-0.90338135,-2.46875,2.6875,-0.421875
1696246833760,0.44555664,0.12689209,-0.83966064,0.53125,5.1875,1.078125
1696246833801,0.42456055,0.1149292,-0.7427368,-0.703125,3.359375,0.359375
1696246833841,0.43164062,0.12640381,-0.77838135,-0.125,2.546875,0.328125
1696246833882,0.41845703,0.1161499,-0.7620239,-1.15625,0.28125,-0.03125
1696246833920,0.4501953,0.13128662,-0.83428955,-2.40625,-0.03125,-0.625
1696246833959,0.4711914,0.12615967,-0.8652954,-1.546875,-0.78125,-0.296875
1696246834001,0.46875,0.12884521,-0.86968994,-0.25,-1.71875,0.15625
1696246834042,0.48828125,0.13446045,-0.87872314,0.125,-1.59375,-0.0625
1696246834080,0.4711914,0.12884521,-0.83306885,0.71875,-1.71875,0.328125
1696246834123,0.45581055,0.12615967,-0.8086548,-0.078125,-1.65625,0.234375
1696246834162,0.4560547,0.12030029,-0.8093872,0.109375,-1.078125,0.328125
1696246834200,0.45703125,0.12371826,-0.80010986,-1.03125,-0.265625,0.15625
1696246834239,0.46826172,0.12249756,-0.8284302,-2.0,-0.125,-0.6875
1696246834303,0.48779297,0.1239624,-0.85821533,-1.171875,1.546875,0.1875
1696246834307,0.55371094,0.13885498,-0.95758057,-2.421875,3.28125,-0.390625
1696246834345,0.43652344,0.11151123,-0.79351807,0.359375,1.9375,0.15625
1696246834403,0.4152832,0.11517334,-0.77960205,1.265625,1.703125,0.609375
1696246834420,0.41870117,0.11053467,-0.7776489,-0.515625,1.84375,-0.0625
1696246834461,0.41137695,0.10491943,-0.7744751,0.234375,-0.09375,0.59375
1696246834504,0.42895508,0.12322998,-0.7937622,-0.890625,-1.703125,0.015625
1696246834542,0.46606445,0.11834717,-0.87579346,-0.8125,-1.546875,-0.375
1696246834583,0.47485352,0.120788574,-0.86431885,-0.90625,-2.6875,-0.46875
1696246834641,0.48388672,0.1227417,-0.8804321,-0.890625,-2.328125,-0.46875
1696246834660,0.48120117,0.12298584,-0.85723877,-0.203125,-1.671875,0.0
1696246834703,0.44335938,0.113220215,-0.8218384,0.828125,-1.28125,0.609375
1696246834764,0.44873047,0.12176514,-0.80963135,1.890625,-0.34375,0.75
1696246834778,0.43115234,0.11224365,-0.76641846,0.859375,-0.09375,0.6875
1696246834824,0.46118164,0.13397217,-0.8423462,-1.328125,0.3125,-0.015625
1696246834861,0.4897461,0.12689209,-0.894104,-2.046875,0.140625,-0.53125
1696246834902,0.42700195,0.11981201,-0.784729,0.453125,1.21875,0.265625
1696246834962,0.43823242,0.1071167,-0.8357544,-0.265625,-0.03125,0.171875
1696246834980,0.4416504,0.10687256,-0.77838135,-0.875,-0.96875,-0.375
1696246835021,0.4165039,0.109558105,-0.7456665,-2.765625,-1.734375,-0.328125
1696246835061,0.41430664,0.089538574,-0.7786255,-3.53125,-3.484375,0.484375
1696246835102,0.46679688,0.10369873,-0.8713989,-2.015625,-7.3125,0.296875
1696246835141,0.501709,0.11151123,-0.87091064,-0.109375,-7.328125,-0.0625
1696246835183,0.51049805,0.113708496,-0.87994385,-0.046875,-3.40625,-0.328125
1696246835222,0.49243164,0.11224365,-0.8567505,-0.671875,-2.671875,-0.25
1696246835261,0.48095703,0.109802246,-0.8140259,-0.515625,-1.703125,0.171875
1696246835302,0.4873047,0.10491943,-0.8189087,-1.46875,-0.984375,-0.1875
1696246835360,0.47192383,0.09857178,-0.7896118,-1.734375,-0.75,-0.484375
1696246835379,0.4765625,0.097351074,-0.80548096,-2.328125,-0.484375,-0.640625
1696246835421,0.5041504,0.10247803,-0.8584595,-1.109375,-0.046875,-0.125
1696246835484,0.49536133,0.09832764,-0.84747314,2.5,0.5,0.90625
1696246835499,0.46533203,0.10394287,-0.7905884,3.4375,-1.703125,1.25
1696246835559,0.47998047,0.09979248,-0.82818604,1.375,-0.9375,0.453125
1696246835625,0.48461914,0.10296631,-0.82525635,1.453125,-1.546875,-0.015625
1696246835629,0.4831543,0.10858154,-0.8201294,2.015625,-2.15625,0.265625
1696246835639,0.47924805,0.11517334,-0.8057251,2.578125,-1.453125,0.609375
1696246835681,0.48632812,0.12030029,-0.8233032,1.515625,-1.6875,0.125
1696246835720,0.4958496,0.124694824,-0.8340454,-0.375,-0.203125,-0.75
1696246835761,0.548584,0.13006592,-0.9026489,-2.765625,-0.25,-1.734375
1696246835807,0.42333984,0.093688965,-0.75738525,0.234375,2.453125,0.21875
1696246835841,0.4645996,0.10418701,-0.78131104,-1.609375,2.203125,0.015625
1696246835885,0.47509766,0.10858154,-0.8167114,-2.84375,3.0,-0.453125
1696246835920,0.45776367,0.09222412,-0.7949829,-2.5,1.859375,-0.421875
1696246835962,0.4736328,0.10687256,-0.8345337,-1.5,1.984375,-0.34375
1696246836003,0.45654297,0.10101318,-0.819397,-0.109375,1.046875,0.078125
1696246836041,0.4729004,0.10272217,-0.8557739,0.03125,-0.875,0.109375
1696246836081,0.46923828,0.105163574,-0.83184814,0.640625,-1.5,0.15625
1696246836123,0.47558594,0.10223389,-0.8328247,0.640625,-1.359375,0.28125
1696246836160,0.46728516,0.10247803,-0.82598877,0.546875,-1.53125,0.140625
1696246836200,0.46264648,0.09320068,-0.81085205,0.28125,-1.296875,0.0625
1696246836243,0.47827148,0.11077881,-0.8308716,-1.3125,-0.671875,-0.6875
1696246836281,0.4650879,0.1005249,-0.8296509,-0.734375,0.65625,-0.546875
1696246836320,0.47338867,0.112976074,-0.81378174,-0.59375,1.078125,0.0625
1696246836361,0.5473633,0.116882324,-0.9031372,-0.828125,2.25,-0.078125
1696246836401,0.42407227,0.08538818,-0.7654419,2.640625,-1.21875,1.578125
1696246836442,0.42944336,0.09613037,-0.7720337,0.625,1.296875,0.8125
1696246836481,0.43115234,0.09515381,-0.77716064,-0.40625,1.734375,0.484375
1696246836521,0.42944336,0.09442139,-0.78448486,-3.96875,-0.328125,-0.296875
1696246836562,0.45629883,0.09100342,-0.82159424,-3.4375,-0.875,-0.703125
1696246836600,0.48486328,0.097351074,-0.8965454,-1.078125,-1.203125,-0.46875
1696246836640,0.48242188,0.09295654,-0.8831177,0.359375,-3.40625,-0.109375
1696246836681,0.4790039,0.09857178,-0.8665161,1.765625,-2.03125,0.609375
1696246836721,0.47485352,0.09881592,-0.8296509,1.90625,-1.109375,0.6875
1696246836760,0.4638672,0.09442139,-0.82110596,2.46875,0.3125,1.0625
1696246836801,0.4482422,0.10736084,-0.8230591,1.5,0.03125,1.078125
1696246836839,0.4675293,0.10858154,-0.7715454,1.109375,2.265625,0.8125
1696246836883,0.41796875,0.09564209,-0.7805786,-0.09375,0.359375,0.875
1696246836944,0.4597168,0.11004639,-0.8562622,-0.734375,1.15625,0.34375
1696246836959,0.45458984,0.105651855,-0.81427,-2.46875,0.515625,-0.328125
1696246836981,0.43945312,0.09197998,-0.802063,-3.59375,0.265625,-0.46875
1696246837021,0.42285156,0.08929443,-0.8140259,-4.96875,-3.328125,-0.171875
1696246837081,0.45092773,0.0914917,-0.8308716,-2.140625,-6.015625,-0.203125
1696246837099,0.49023438,0.08758545,-0.86431885,-0.671875,-6.15625,-0.390625
1696246837141,0.4794922,0.08782959,-0.833313,1.296875,-4.296875,0.375
1696246837205,0.4868164,0.093688965,-0.84332275,1.359375,-3.03125,0.375
1696246837219,0.4794922,0.08929443,-0.81866455,0.734375,-1.203125,0.390625
1696246837282,0.47314453,0.09661865,-0.8147583,-1.390625,-0.359375,-0.125
1696246837299,0.48046875,0.08465576,-0.81329346,-2.390625,0.546875,-0.203125
1696246837341,0.4658203,0.08807373,-0.83184814,-2.953125,0.03125,-0.390625
1696246837382,0.48999023,0.08416748,-0.8335571,-0.859375,-0.65625,0.234375
1696246837444,0.50268555,0.09539795,-0.8674927,3.265625,0.546875,1.0625
1696246837460,0.4794922,0.10076904,-0.815979,7.703125,-1.015625,2.171875
1696246837525,0.4572754,0.09124756,-0.78985596,4.90625,-2.328125,1.078125
1696246837540,0.46435547,0.11029053,-0.81500244,2.78125,-1.5625,-0.078125
1696246837603,0.47314453,0.11126709,-0.81573486,1.796875,-1.375,0.328125
1696246837619,0.47558594,0.11444092,-0.8286743,2.390625,-1.21875,0.75
1696246837660,0.49902344,0.11932373,-0.82037354,1.0,-0.015625,0.59375
1696246837700,0.47680664,0.12030029,-0.7908325,-0.875,0.640625,-0.109375
1696246837740,0.47998047,0.1071167,-0.8296509,-0.984375,1.046875,-0.109375
1696246837779,0.45825195,0.10687256,-0.78375244,0.265625,-0.34375,0.40625
1696246837819,0.48657227,0.11199951,-0.8584595,-0.578125,1.34375,0.0
1696246837881,0.4387207,0.11248779,-0.8184204,0.9375,3.125,0.875
1696246837900,0.4399414,0.1149292,-0.78741455,-0.4375,1.015625,0.078125
1696246837940,0.47216797,0.12591553,-0.8242798,-2.125,-0.03125,-0.6875
1696246837981,0.45922852,0.11541748,-0.80059814,-3.609375,0.34375,-0.640625
1696246838020,0.4807129,0.109313965,-0.861145,-0.75,-0.265625,-0.046875
1696246838062,0.47070312,0.10662842,-0.8518677,-0.25,-1.390625,-0.109375
1696246838103,0.47827148,0.109069824,-0.8291626,0.46875,-1.71875,-0.15625
1696246838144,0.4921875,0.11053467,-0.8430786,0.6875,-1.59375,0.15625
1696246838179,0.4633789,0.10467529,-0.80963135,1.28125,-1.109375,0.34375
1696246838221,0.4650879,0.109313965,-0.8101196,0.65625,-0.140625,0.296875
1696246838260,0.4663086,0.10638428,-0.82159424,0.765625,-0.453125,0.359375
1696246838280,0.47924805,0.11859131,-0.8430786,0.671875,0.953125,0.71875
1696246838322,0.49731445,0.10687256,-0.86798096,1.109375,0.96875,0.890625
1696246838361,0.43603516,0.09857178,-0.78082275,1.28125,-0.125,0.84375
1696246838422,0.45410156,0.11639404,-0.81256104,-1.484375,0.578125,-0.296875
1696246838439,0.45629883,0.10784912,-0.80059814,-2.234375,-0.21875,-0.953125
1696246838481,0.45751953,0.113708496,-0.8218384,-1.328125,-0.953125,-0.171875
1696246838521,0.46484375,0.109313965,-0.8513794,-0.421875,-0.484375,0.0
1696246838560,0.47192383,0.11907959,-0.8477173,0.171875,-0.859375,0.203125
1696246838601,0.47680664,0.121276855,-0.8401489,-0.03125,-0.84375,0.0
1696246838642,0.47875977,0.1083374,-0.8447876,0.59375,-0.75,0.25
1696246838682,0.4597168,0.11590576,-0.8093872,0.703125,-0.734375,0.53125
1696246838721,0.45288086,0.11395264,-0.82232666,0.78125,-0.5,0.3125
1696246838759,0.46972656,0.11273193,-0.829895,-0.109375,0.015625,0.203125
1696246838801,0.47094727,0.113464355,-0.83380127,-0.734375,2.078125,0.4375
1696246838841,0.46655273,0.11859131,-0.8237915,0.265625,1.28125,0.640625
1696246838882,0.4572754,0.1083374,-0.8196411,-0.875,1.203125,-0.15625
1696246838921,0.44921875,0.117370605,-0.8311157,0.0625,0.765625,0.484375
1696246838961,0.45043945,0.113708496,-0.819397,-0.796875,0.015625,-0.046875
1696246839000,0.44458008,0.10687256,-0.80670166,-1.15625,-0.4375,0.078125
1696246839041,0.43408203,0.10247803,-0.79522705,-1.84375,-1.171875,0.515625
1696246839082,0.43798828,0.11053467,-0.82159424,-2.6875,-3.21875,0.453125
1696246839121,0.46704102,0.10858154,-0.8467407,-0.6875,-6.0,-0.25
1696246839161,0.484375,0.11248779,-0.8555298,0.53125,-4.53125,-0.234375
1696246839200,0.47875977,0.109313965,-0.8435669,1.015625,-3.15625,0.0625
1696246839241,0.48266602,0.11517334,-0.8171997,1.375,-1.765625,0.34375
1696246839281,0.48217773,0.10784912,-0.81817627,-0.53125,-0.578125,-0.015625
1696246839322,0.45825195,0.10638428,-0.80596924,-2.109375,0.5625,-0.25
1696246839361,0.4807129,0.10101318,-0.866272,-4.453125,-0.046875,-0.84375
1696246839401,0.46679688,0.09906006,-0.79351807,-2.4375,-1.296875,-0.453125
1696246839441,0.4885254,0.10003662,-0.83843994,0.90625,-1.859375,0.78125
1696246839479,0.5053711,0.11004639,-0.8777466,3.78125,-1.234375,1.140625
1696246839521,0.45239258,0.10491943,-0.7788696,9.328125,-2.25,2.796875
1696246839581,0.4645996,0.12054443,-0.7815552,4.109375,-2.8125,0.921875
1696246839584,0.47143555,0.1281128,-0.80474854,1.53125,-2.28125,-0.34375
1696246839620,0.48950195,0.1251831,-0.81915283,1.15625,-2.71875,0.0
1696246839724,0.4951172,0.14300537,-0.83428955,1.671875,-1.359375,0.5
1696246839727,0.5004883,0.13812256,-0.8374634,0.109375,-0.15625,-0.265625
1696246839740,0.48950195,0.12249756,-0.81329346,0.421875,0.640625,-0.03125
1696246839802,0.47094727,0.12713623,-0.7984009,-0.296875,0.703125,0.015625
1696246839821,0.48120117,0.12884521,-0.81207275,-0.265625,1.25,-0.140625
1696246839865,0.49682617,0.12786865,-0.8291626,-0.921875,0.65625,-0.375
1696246839921,0.4477539,0.11151123,-0.80426025,-0.5,3.1875,0.640625
1696246839940,0.46484375,0.11151123,-0.78009033,-1.78125,0.28125,-0.4375
1696246839981,0.47021484,0.11590576,-0.7996216,-1.640625,1.03125,-0.671875
1696246840021,0.45947266,0.120788574,-0.8064575,-1.640625,1.8125,0.046875
1696246840061,0.46044922,0.11834717,-0.81573486,-2.34375,-0.125,-0.421875
1696246840101,0.4873047,0.121520996,-0.87213135,-1.0,1.296875,-0.328125
1696246840163,0.47583008,0.117126465,-0.8386841,0.234375,-1.0625,0.109375
1696246840179,0.48632812,0.11810303,-0.8377075,0.359375,-0.984375,0.25
1696246840221,0.46923828,0.12298584,-0.8286743,0.375,-1.0,0.28125
1696246840280,0.46728516,0.11956787,-0.81207275,0.859375,-0.84375,0.375
1696246840301,0.4633789,0.120788574,-0.8049927,0.34375,-0.578125,0.203125
1696246840363,0.4729004,0.12567139,-0.8308716,0.546875,0.1875,0.328125
1696246840382,0.46728516,0.12542725,-0.8208618,-0.921875,-0.375,0.046875
1696246840421,0.4814453,0.12176514,-0.8831177,-0.71875,0.375,-0.296875
1696246840461,0.4645996,0.121276855,-0.82769775,-0.25,1.625,0.71875
1696246840500,0.49658203,0.12054443,-0.84381104,-2.03125,2.671875,-0.65625
1696246840564,0.42285156,0.11151123,-0.76519775,-0.015625,0.875,0.65625
1696246840581,0.43603516,0.11639404,-0.80181885,-0.578125,-0.125,-0.125
1696246840621,0.4345703,0.11053467,-0.7822876,-2.796875,0.109375,-0.984375
1696246840684,0.46240234,0.113464355,-0.84869385,-2.484375,-0.1875,-0.25
1696246840721,0.47338867,0.11273193,-0.85821533,-0.171875,0.09375,0.09375
1696246840740,0.46362305,0.11541748,-0.8609009,0.1875,-1.53125,0.0625
1696246840784,0.47021484,0.11956787,-0.84698486,0.5625,-1.484375,0.0625
1696246840822,0.46606445,0.1161499,-0.8237915,0.6875,-1.390625,0.390625
1696246840883,0.4597168,0.109802246,-0.8189087,0.8125,-1.28125,0.328125
1696246840901,0.4404297,0.11566162,-0.8123169,0.859375,-0.46875,0.640625
1696246840921,0.46166992,0.120788574,-0.83062744,-0.109375,-0.5625,0.390625
1696246840961,0.46923828,0.11663818,-0.8718872,-0.421875,0.28125,0.375
1696246841003,0.49169922,0.12982178,-0.84625244,-0.34375,1.109375,0.03125
1696246841043,0.42504883,0.10614014,-0.75494385,0.96875,0.796875,0.78125
1696246841083,0.44970703,0.12371826,-0.8389282,-0.734375,0.3125,-0.078125
1696246841121,0.42919922,0.09832764,-0.7810669,-2.640625,0.453125,-0.96875
1696246841160,0.43286133,0.10223389,-0.78082275,-3.328125,-0.34375,-0.703125
1696246841201,0.42382812,0.098083496,-0.79522705,-3.421875,-2.015625,0.296875
1696246841241,0.46972656,0.105651855,-0.87164307,-3.0625,-4.015625,-0.109375
1696246841280,0.49780273,0.105163574,-0.8960571,-1.6875,-4.6875,-0.578125
1696246841319,0.48266602,0.10028076,-0.8526001,0.046875,-2.890625,-0.171875
1696246841362,0.4753418,0.10321045,-0.8291626,0.4375,-1.578125,0.453125
1696246841400,0.4753418,0.094177246,-0.8201294,-0.859375,-0.71875,-0.109375
1696246841440,0.45214844,0.09588623,-0.7842407,-0.953125,-0.65625,-0.140625
1696246841481,0.4650879,0.09515381,-0.8098755,-2.703125,-0.171875,-0.578125
1696246841520,0.4711914,0.09197998,-0.85406494,-2.9375,-0.125,-0.578125
1696246841561,0.48901367,0.0914917,-0.8428345,0.46875,-0.90625,0.3125
1696246841601,0.48583984,0.09246826,-0.86065674,1.65625,0.25,0.796875
1696246841641,0.46875,0.09637451,-0.80792236,3.84375,-1.171875,1.53125
1696246841681,0.4506836,0.086364746,-0.8140259,1.71875,-2.0,0.40625
1696246841722,0.46875,0.10272217,-0.81695557,0.6875,-1.828125,0.0625
1696246841760,0.4609375,0.10662842,-0.81134033,1.34375,-2.515625,0.28125
1696246841801,0.4802246,0.10296631,-0.833313,2.265625,-1.453125,0.78125
1696246841864,0.4970703,0.113708496,-0.83599854,1.796875,-0.875,0.671875
1696246841880,0.46801758,0.11541748,-0.81256104,1.171875,0.203125,0.4375
1696246841921,0.47216797,0.10321045,-0.8135376,0.421875,0.046875,0.453125
1696246841962,0.46264648,0.11907959,-0.80670166,-0.171875,-0.296875,0.34375
1696246842000,0.4645996,0.1083374,-0.8098755,-0.84375,-0.515625,-0.03125
1696246842041,0.48339844,0.11053467,-0.8274536,-0.390625,-0.9375,0.078125
1696246842082,0.47973633,0.11102295,-0.83306885,-0.25,-1.34375,0.0625
1696246842122,0.4885254,0.11639404,-0.84552,0.125,-0.59375,0.078125
1696246842163,0.47753906,0.1161499,-0.8233032,0.734375,-1.0625,0.28125
1696246842203,0.4753418,0.1149292,-0.8245239,1.78125,-0.1875,0.5
1696246842220,0.50634766,0.10858154,-0.8394165,-0.1875,3.375,-0.296875
1696246842262,0.45825195,0.11248779,-0.7710571,0.015625,1.0,0.203125
1696246842303,0.453125,0.10662842,-0.8110962,-1.390625,2.625,-0.140625
1696246842364,0.45361328,0.105163574,-0.8064575,-2.1875,2.09375,-0.328125
1696246842381,0.45263672,0.10296631,-0.8237915,-1.953125,1.453125,-0.34375
1696246842443,0.45703125,0.101257324,-0.8345337,-0.890625,0.609375,0.046875
1696246842482,0.46264648,0.10223389,-0.83184814,-0.640625,-0.40625,0.0625
1696246842499,0.4699707,0.10760498,-0.8477173,0.4375,-1.453125,0.21875
1696246842565,0.46044922,0.10784912,-0.8357544,0.46875,-1.65625,0.21875
1696246842579,0.4645996,0.109558105,-0.8381958,1.40625,-0.921875,0.625
1696246842621,0.4638672,0.1149292,-0.83843994,1.203125,-0.4375,0.453125
1696246842663,0.4777832,0.11151123,-0.8635864,1.328125,0.328125,0.4375
1696246842721,0.49267578,0.11541748,-0.9067993,-1.0625,2.421875,-0.671875
1696246842740,0.42871094,0.09979248,-0.77911377,-0.1875,6.03125,0.546875
1696246842781,0.44677734,0.109313965,-0.8062134,-2.09375,3.625,0.375
1696246842822,0.42578125,0.105895996,-0.7817993,-3.734375,2.296875,-0.796875
1696246842862,0.40551758,0.08660889,-0.7859497,-3.28125,1.359375,-0.609375
1696246842902,0.42773438,0.09710693,-0.82891846,-2.609375,0.203125,-0.515625
1696246842940,0.43530273,0.0927124,-0.8621216,-1.125,-1.484375,0.03125
1696246843003,0.46044922,0.09637451,-0.8821411,0.171875,-2.734375,0.140625
1696246843041,0.4663086,0.097839355,-0.88165283,1.15625,-2.5625,0.375
1696246843059,0.46166992,0.10369873,-0.8701782,1.921875,-1.6875,0.46875
1696246843102,0.45507812,0.10076904,-0.8467407,1.609375,-1.09375,0.578125
1696246843140,0.45825195,0.113220215,-0.86676025,0.765625,0.03125,0.4375
1696246843204,0.43823242,0.08758545,-0.8225708,-1.296875,1.109375,-0.234375
1696246843220,0.42382812,0.090026855,-0.7756958,-0.59375,0.671875,0.46875
1696246843261,0.42651367,0.10101318,-0.80181885,-1.796875,1.015625,-0.03125
1696246843303,0.4140625,0.09051514,-0.7991333,-3.953125,1.0625,-0.546875
1696246843341,0.4140625,0.07928467,-0.8208618,-5.234375,-1.21875,-0.421875
1696246843381,0.44750977,0.081726074,-0.86016846,-4.015625,-2.734375,-0.59375
1696246843422,0.44677734,0.090026855,-0.8648071,-0.703125,-3.5,0.28125
1696246843461,0.4729004,0.07733154,-0.861145,0.078125,-2.921875,0.1875
1696246843503,0.4658203,0.08416748,-0.8789673,-0.3125,-3.3125,0.234375
1696246843520,0.46313477,0.0836792,-0.83258057,-0.890625,-2.34375,-0.15625
1696246843561,0.45629883,0.081970215,-0.8233032,-0.796875,-0.578125,0.171875
1696246843601,0.45996094,0.07562256,-0.829895,-1.65625,-0.484375,-0.234375
1696246843642,0.4597168,0.07171631,-0.83721924,-0.015625,-0.421875,0.078125
1696246843681,0.4519043,0.08001709,-0.8208618,1.234375,0.203125,0.65625
1696246843721,0.45092773,0.074645996,-0.8311157,1.03125,-0.3125,0.53125
1696246843761,0.4560547,0.081970215,-0.8377075,1.21875,-0.46875,0.640625
1696246843802,0.45751953,0.08514404,-0.8464966,0.625,-1.21875,0.328125
1696246843840,0.45581055,0.0836792,-0.8352661,0.9375,-1.796875,0.28125
1696246843881,0.45239258,0.0914917,-0.8399048,1.578125,-1.90625,0.5625
1696246843922,0.4633789,0.08465576,-0.83477783,0.703125,-1.859375,0.3125
1696246843961,0.46069336,0.08758545,-0.8255005,0.640625,-1.40625,0.375
1696246844001,0.45654297,0.089538574,-0.8257446,0.703125,-0.703125,0.234375
1696246844042,0.45922852,0.0927124,-0.8220825,0.375,-0.15625,0.328125
1696246844082,0.45751953,0.09466553,-0.82232666,0.140625,-0.640625,0.171875
1696246844121,0.4572754,0.08856201,-0.83135986,1.0625,-0.84375,0.796875
1696246844161,0.46655273,0.09124756,-0.84454346,0.359375,-0.6875,0.375
1696246844204,0.46362305,0.09906006,-0.83380127,0.546875,-0.296875,0.609375
1696246844243,0.48388672,0.09832764,-0.86309814,0.3125,0.8125,0.46875
1696246844283,0.4794922,0.10614014,-0.8731079,-0.78125,1.171875,-0.578125
1696246844323,0.44750977,0.086364746,-0.8596802,0.875,3.875,0.53125
1696246844361,0.44995117,0.09979248,-0.81695557,-1.375,3.71875,-0.46875
1696246844400,0.40649414,0.0836792,-0.7398071,-3.75,1.703125,-0.828125
1696246844443,0.4326172,0.08392334,-0.82598877,-1.703125,0.140625,0.015625
1696246844485,0.43139648,0.094177246,-0.8230591,-1.6875,-0.8125,0.015625
1696246844523,0.44628906,0.081726074,-0.8460083,-1.046875,-1.390625,0.25
1696246844561,0.4663086,0.09124756,-0.87164307,0.546875,-2.640625,0.375
1696246844600,0.46704102,0.08831787,-0.8743286,0.9375,-1.84375,0.328125
1696246844643,0.47021484,0.09124756,-0.84088135,1.828125,-1.625,0.78125
1696246844681,0.453125,0.090270996,-0.8460083,1.625,-1.140625,0.625
1696246844721,0.45898438,0.09246826,-0.83721924,1.96875,-1.421875,0.515625
1696246844761,0.50927734,0.11395264,-0.9326782,8.3125,0.984375,1.265625
1696246844801,0.40112305,0.10418701,-0.784729,7.90625,2.203125,2.0
1696246844842,0.38500977,0.11444092,-0.7305298,-0.953125,2.5625,0.625
1696246844861,0.43554688,0.112976074,-0.8460083,-1.328125,2.640625,0.171875
1696246844902,0.4260254,0.10467529,-0.8296509,-2.515625,-0.375,-0.546875
1696246844944,0.42138672,0.1083374,-0.83062744,-0.984375,-0.890625,-0.171875
1696246844982,0.43896484,0.11004639,-0.8430786,-0.90625,-1.6875,0.078125
1696246845023,0.44750977,0.1083374,-0.8394165,-1.8125,-2.75,0.0
1696246845060,0.45581055,0.1083374,-0.88848877,-1.3125,-2.90625,-0.1875
1696246845102,0.45166016,0.097839355,-0.8418579,-0.0625,-1.25,-0.09375
1696246845143,0.45385742,0.11151123,-0.8411255,0.984375,-0.875,0.453125
1696246845183,0.4597168,0.10394287,-0.87457275,0.921875,-0.171875,0.25
1696246845222,0.46289062,0.11981201,-0.8579712,-0.53125,-0.875,-0.1875
1696246845260,0.42382812,0.08905029,-0.7839966,-1.609375,0.9375,-0.421875
1696246845301,0.43579102,0.10687256,-0.8255005,-0.546875,1.953125,0.53125
1696246845340,0.43286133,0.09295654,-0.8171997,-1.65625,0.421875,-0.328125
1696246845380,0.42211914,0.090270996,-0.80670166,-1.84375,-0.8125,-0.328125
1696246845443,0.42797852,0.09466553,-0.8196411,-3.5,-2.4375,0.125
1696246845481,0.45581055,0.09539795,-0.84576416,-3.96875,-4.171875,-0.53125
1696246845500,0.4609375,0.08880615,-0.87823486,-3.515625,-3.296875,-0.828125
1696246845542,0.46801758,0.08270264,-0.8484497,-1.46875,-2.21875,-0.09375
1696246845581,0.4633789,0.08294678,-0.84210205,-0.5,-0.84375,0.328125
1696246845622,0.45092773,0.08441162,-0.8130493,-0.625,-0.640625,0.40625
1696246845662,0.4465332,0.074645996,-0.82525635,-1.375,-0.703125,0.21875
1696246845701,0.4501953,0.07757568,-0.833313,-2.0,-0.9375,0.078125
1696246845762,0.4560547,0.08099365,-0.8377075,-1.0625,-1.765625,0.125
1696246845781,0.46240234,0.07879639,-0.8428345,-0.015625,-2.03125,0.390625
1696246845824,0.46435547,0.08099365,-0.85357666,0.21875,-1.625,0.25
1696246845881,0.4675293,0.078308105,-0.848938,1.28125,-1.609375,0.546875
1696246845899,0.4650879,0.07537842,-0.8345337,2.609375,-2.09375,1.125
1696246845940,0.4584961,0.08026123,-0.8213501,3.203125,-3.0,0.703125
1696246845982,0.46069336,0.08709717,-0.8135376,2.328125,-2.3125,0.671875
1696246846019,0.48583984,0.090270996,-0.819397,2.71875,-0.96875,0.546875
1696246846082,0.47094727,0.093933105,-0.84088135,4.921875,1.53125,1.390625
1696246846121,0.54541016,0.13616943,-0.96832275,5.25,5.90625,1.96875
1696246846161,0.39868164,0.11273193,-0.77471924,2.296875,1.53125,0.21875
1696246846181,0.4477539,0.10003662,-0.7876587,-3.296875,1.125,-1.015625
1696246846202,0.42407227,0.10101318,-0.75982666,-2.234375,1.375,-0.875
1696246846240,0.40454102,0.09173584,-0.77911377,-1.515625,0.046875,-0.515625
1696246846279,0.42993164,0.10003662,-0.81866455,-1.046875,-0.046875,0.03125
1696246846320,0.45092773,0.09832764,-0.850647,-1.265625,-0.1875,0.1875
1696246846364,0.4675293,0.105895996,-0.8855591,-0.390625,-1.1875,0.1875
1696246846404,0.47338867,0.10394287,-0.8760376,-0.4375,-1.796875,-0.15625
1696246846441,0.45874023,0.10443115,-0.85162354,0.5,-1.96875,0.40625
1696246846480,0.4477539,0.093933105,-0.81988525,1.09375,-0.515625,0.734375
1696246846524,0.4399414,0.10345459,-0.7959595,1.515625,-0.90625,0.6875
1696246846560,0.44360352,0.09954834,-0.8284302,1.125,-1.234375,0.390625
1696246846601,0.46240234,0.10614014,-0.8464966,1.84375,-1.359375,0.421875
1696246846640,0.47998047,0.109313965,-0.88360596,0.734375,-1.1875,0.53125
1696246846679,0.42163086,0.11273193,-0.85479736,0.71875,1.03125,-0.015625
1696246846720,0.47802734,0.11517334,-0.8609009,-0.859375,1.734375,0.15625
1696246846761,0.4296875,0.10321045,-0.7971802,-2.609375,0.71875,-0.71875
1696246846800,0.42114258,0.0993042,-0.79351807,-3.765625,-1.1875,-1.046875
1696246846842,0.44702148,0.09295654,-0.83013916,-3.828125,-1.0625,-0.921875
1696246846880,0.44995117,0.08782959,-0.85601807,-2.5625,-1.0625,-0.515625
1696246846924,0.47216797,0.08709717,-0.8880005,-1.703125,-1.375,-0.4375
1696246846962,0.46533203,0.08416748,-0.8533325,0.09375,-1.09375,0.046875
1696246847001,0.46264648,0.085876465,-0.8518677,0.8125,-0.671875,0.484375
1696246847040,0.45825195,0.08660889,-0.8179321,1.0625,-0.125,0.703125
1696246847081,0.46240234,0.097595215,-0.85943604,0.8125,-1.03125,0.53125
1696246847123,0.47070312,0.10003662,-0.87457275,0.015625,-0.171875,0.40625
1696246847164,0.47680664,0.08294678,-0.8069458,-0.953125,0.6875,-0.78125
1696246847201,0.43432617,0.08685303,-0.78009033,-0.09375,1.28125,0.53125
1696246847243,0.4506836,0.09564209,-0.8250122,-1.953125,1.109375,-0.359375
1696246847282,0.42260742,0.078063965,-0.77960205,-2.640625,1.71875,-0.53125
1696246847320,0.4140625,0.07269287,-0.78497314,-3.921875,1.015625,0.453125
1696246847362,0.44262695,0.07537842,-0.8682251,-2.28125,-3.875,0.046875
1696246847401,0.46850586,0.0914917,-0.8557739,0.234375,-5.171875,-0.140625
1696246847442,0.46606445,0.08074951,-0.84576416,0.125,-4.6875,0.21875
1696246847486,0.4819336,0.0848999,-0.8635864,0.1875,-1.484375,0.078125
1696246847500,0.4716797,0.07611084,-0.83795166,-0.125,-1.09375,0.28125
1696246847564,0.4423828,0.07904053,-0.8076782,-1.328125,-0.453125,0.375
1696246847579,0.4477539,0.07122803,-0.7998657,-1.421875,-0.9375,0.171875
1696246847623,0.4555664,0.077819824,-0.83258057,-1.203125,-1.703125,0.140625
1696246847681,0.4580078,0.07489014,-0.8286743,-0.546875,-2.1875,0.28125
1696246847700,0.47973633,0.08758545,-0.8648071,1.125,-2.515625,0.453125
1696246847743,0.4958496,0.09100342,-0.88409424,0.671875,-0.71875,0.34375
1696246847781,0.46679688,0.074401855,-0.83135986,5.46875,-3.6875,1.515625
1696246847824,0.4741211,0.093933105,-0.8237915,2.8125,-2.578125,0.59375
1696246847861,0.4638672,0.09075928,-0.8027954,1.65625,-2.359375,0.109375
1696246847901,0.47070312,0.08758545,-0.8064575,4.015625,-3.015625,1.203125
1696246847942,0.46557617,0.10467529,-0.80426025,1.4375,-1.25,0.890625
1696246848003,0.4724121,0.089538574,-0.80059814,-0.1875,-0.859375,0.125
1696246848020,0.47875977,0.10369873,-0.8123169,0.34375,-0.8125,0.203125
1696246848082,0.47314453,0.101745605,-0.8208618,-0.546875,-0.421875,-0.0625
1696246848101,0.47387695,0.10028076,-0.8320923,-0.03125,-1.15625,0.25
1696246848164,0.4831543,0.10028076,-0.8213501,-0.140625,-1.109375,0.171875
1696246848202,0.48217773,0.09906006,-0.815979,0.484375,-0.890625,0.234375
1696246848242,0.4814453,0.10272217,-0.8225708,-0.078125,-1.015625,-0.015625
1696246848260,0.5019531,0.11468506,-0.8423462,0.296875,-1.484375,0.078125
1696246848301,0.47436523,0.10223389,-0.80548096,0.890625,2.71875,0.5625
1696246848363,0.48413086,0.10369873,-0.8335571,-1.25,2.328125,0.203125
1696246848401,0.46533203,0.10028076,-0.8064575,-2.5625,2.21875,-0.53125
1696246848442,0.46679688,0.089782715,-0.829895,-1.75,1.375,-0.359375
1696246848460,0.46020508,0.10003662,-0.8352661,-0.59375,0.484375,-0.0625
1696246848502,0.46044922,0.085876465,-0.8086548,-0.109375,-0.828125,0.234375
1696246848541,0.47705078,0.10369873,-0.84942627,-0.078125,-0.515625,0.125
1696246848583,0.47338867,0.097351074,-0.8513794,-0.28125,-0.875,-0.015625
1696246848640,0.47680664,0.09515381,-0.83966064,-0.078125,-0.890625,0.0
1696246848659,0.4777832,0.10223389,-0.84552,0.09375,0.265625,-0.015625
1696246848700,0.47875977,0.09124756,-0.84747314,0.59375,-0.15625,0.015625
1696246848742,0.47143555,0.09613037,-0.8233032,-2.234375,-0.125,-0.6875
1696246848801,0.48754883,0.09906006,-0.8399048,-3.203125,1.0,-1.171875
1696246848826,0.42456055,0.08734131,-0.7542114,-0.390625,2.28125,0.15625
1696246848839,0.4284668,0.078552246,-0.79034424,-0.078125,0.625,0.5
1696246848882,0.45288086,0.090026855,-0.8179321,-0.65625,0.09375,0.03125
1696246848921,0.4584961,0.082458496,-0.83013916,-1.671875,0.125,0.078125
1696246848960,0.4621582,0.08148193,-0.862854,-0.84375,-1.296875,0.015625
1696246849001,0.46948242,0.08148193,-0.86505127,-0.265625,-1.71875,0.09375
1696246849044,0.4675293,0.089538574,-0.83477783,0.890625,-1.5,0.484375
1696246849082,0.47460938,0.08294678,-0.83428955,1.65625,-0.28125,0.90625
1696246849122,0.4741211,0.101745605,-0.8530884,0.9375,0.390625,0.421875
1696246849161,0.47192383,0.081726074,-0.85284424,0.015625,0.109375,-0.171875
1696246849200,0.4477539,0.08734131,-0.7971802,-1.921875,1.375,-0.78125
1696246849240,0.45458984,0.0758667,-0.8115845,-2.53125,1.25,-0.40625
1696246849281,0.43945312,0.081726074,-0.80670166,-1.390625,0.421875,-0.078125
1696246849321,0.4321289,0.0692749,-0.77789307,-0.953125,0.15625,0.578125
1696246849361,0.43774414,0.07562256,-0.7954712,-1.84375,-0.65625,1.578125
1696246849401,0.45410156,0.08099365,-0.8609009,0.28125,-5.203125,1.3125
1696246849441,0.47192383,0.07952881,-0.86065674,1.234375,-6.390625,0.765625
1696246849481,0.48657227,0.08905029,-0.8665161,1.109375,-5.359375,0.296875
1696246849521,0.49365234,0.08929443,-0.8579712,0.390625,-3.328125,0.28125
1696246849565,0.48339844,0.08880615,-0.8328247,0.234375,-2.859375,0.28125
1696246849601,0.4729004,0.08709717,-0.8040161,0.859375,-2.34375,0.453125
1696246849641,0.47631836,0.09490967,-0.81378174,-0.046875,-1.515625,0.234375
1696246849681,0.4790039,0.078552246,-0.81036377,0.609375,-1.875,0.203125
1696246849721,0.48046875,0.08782959,-0.8074341,0.40625,-1.03125,0.203125
1696246849761,0.49267578,0.08831787,-0.8262329,0.203125,-0.84375,0.171875
1696246849803,0.47070312,0.08538818,-0.8023071,0.203125,-0.75,0.1875
1696246849842,0.48291016,0.08929443,-0.8399048,-0.46875,-0.125,0.109375
1696246849882,0.49243164,0.09320068,-0.8284302,-0.015625,-1.140625,0.15625
1696246849922,0.48486328,0.089782715,-0.81207275,0.453125,-1.15625,0.421875
1696246849964,0.4897461,0.08782959,-0.81915283,0.03125,-1.046875,0.0
1696246850000,0.47583008,0.089782715,-0.8015747,1.21875,-2.0625,0.59375
1696246850040,0.48266602,0.09222412,-0.80841064,1.234375,-1.796875,0.34375
1696246850081,0.48388672,0.0927124,-0.8123169,0.96875,-1.75,0.359375
1696246850122,0.49072266,0.094177246,-0.829895,0.3125,-1.84375,0.171875
1696246850141,0.4934082,0.09515381,-0.81695557,0.296875,-1.828125,0.21875
1696246850201,0.49194336,0.09124756,-0.8106079,0.671875,-1.59375,0.390625
1696246850242,0.48754883,0.0836792,-0.80010986,0.390625,-1.40625,0.25
1696246850259,0.48266602,0.09124756,-0.8027954,0.390625,-1.1875,0.265625
1696246850322,0.49121094,0.10003662,-0.81329346,0.453125,-1.484375,0.328125
1696246850339,0.49780273,0.09490967,-0.81573486,-0.03125,-0.625,0.125
1696246850384,0.5061035,0.09710693,-0.8171997,0.21875,-0.8125,0.25
1696246850423,0.49121094,0.093933105,-0.8093872,0.53125,-1.125,0.34375
1696246850462,0.4951172,0.09710693,-0.8049927,0.203125,-0.546875,0.34375
1696246850503,0.49243164,0.10003662,-0.80474854,0.109375,-0.625,0.125
1696246850542,0.4963379,0.093444824,-0.8064575,0.078125,-0.78125,0.0
1696246850585,0.49487305,0.10369873,-0.81915283,0.5,-0.953125,0.453125
1696246850624,0.49560547,0.09906006,-0.8076782,1.109375,-1.40625,0.640625
1696246850664,0.50268555,0.10003662,-0.8171997,2.03125,-1.796875,0.8125
1696246850701,0.49291992,0.10662842,-0.8086548,3.203125,-2.484375,1.0
1696246850742,0.51586914,0.11224365,-0.8027954,3.140625,-2.34375,0.6875
1696246850804,0.4987793,0.11639404,-0.7918091,2.21875,-1.765625,0.5
1696246850819,0.5065918,0.113220215,-0.79571533,1.328125,-0.78125,0.15625
1696246850863,0.5102539,0.1227417,-0.7854614,0.28125,0.84375,0.171875
1696246850903,0.4951172,0.11810303,-0.8218384,-0.796875,0.765625,0.15625
1696246850961,0.5109863,0.12664795,-0.8435669,-1.328125,0.609375,-0.109375
1696246850981,0.5004883,0.10614014,-0.7962036,-1.6875,0.828125,-0.109375
1696246851042,0.49267578,0.11273193,-0.80792236,-1.9375,0.921875,-0.125
1696246851060,0.501709,0.105407715,-0.80426025,-1.078125,-0.328125,-0.125
1696246851100,0.4963379,0.105895996,-0.81207275,-0.765625,-0.546875,0.125
1696246851160,0.49658203,0.10858154,-0.80718994,-0.375,-0.609375,-0.046875
1696246851179,0.49316406,0.11077881,-0.8052368,0.0625,-0.375,0.3125
1696246851239,0.4975586,0.109558105,-0.8076782,-0.078125,-0.296875,0.203125
1696246851260,0.49731445,0.10882568,-0.8101196,-0.109375,-0.421875,0.15625
1696246851321,0.49780273,0.10784912,-0.8098755,-0.1875,-0.328125,-0.015625
1696246851341,0.4946289,0.10418701,-0.8062134,-0.09375,-0.640625,0.109375
1696246851382,0.4987793,0.109802246,-0.8088989,-0.125,-0.453125,0.28125
1696246851441,0.49291992,0.105407715,-0.8062134,0.03125,-0.703125,0.234375
1696246851445,0.4934082,0.109069824,-0.8128052,0.0,-0.640625,0.203125
1696246851482,0.49780273,0.10223389,-0.81085205,-0.09375,-0.609375,0.203125
1696246851585,0.49926758,0.10858154,-0.8106079,-0.078125,-0.6875,0.171875
1696246851588,0.49365234,0.109558105,-0.8023071,0.109375,-0.8125,0.21875
1696246851602,0.49731445,0.10662842,-0.81622314,-0.15625,-0.453125,0.203125
1696246851640,0.49853516,0.10784912,-0.8027954,0.109375,-0.828125,0.265625
1696246851683,0.49804688,0.10443115,-0.80841064,-0.421875,-0.515625,0.0625
1696246851722,0.49682617,0.10467529,-0.8076782,-0.59375,-0.453125,-0.046875
1696246851761,0.4958496,0.112976074,-0.80474854,-0.703125,-0.25,0.03125
1696246851803,0.4975586,0.10321045,-0.8101196,-0.828125,-0.5625,-0.125
1696246851840,0.4909668,0.105163574,-0.7996216,-1.078125,0.09375,-0.0625
1696246851881,0.49291992,0.10467529,-0.8128052,-1.578125,-0.09375,-0.1875
1696246851922,0.49316406,0.0993042,-0.81500244,-2.1875,0.265625,-0.34375
1696246851961,0.5007324,0.097351074,-0.8115845,-1.390625,-0.421875,-0.25
1696246852001,0.49414062,0.09173584,-0.81573486,-0.78125,-1.015625,0.125
1696246852043,0.501709,0.09637451,-0.81256104,-0.21875,-0.671875,0.171875
1696246852080,0.49951172,0.090270996,-0.81500244,0.1875,-0.546875,0.15625
1696246852121,0.49658203,0.09222412,-0.8010864,1.0625,-1.5,0.53125
1696246852161,0.5,0.09490967,-0.80718994,1.109375,-1.546875,0.53125
1696246852201,0.49194336,0.09295654,-0.80914307,0.828125,-1.3125,0.296875
1696246852241,0.49047852,0.10443115,-0.8098755,0.59375,-1.609375,0.109375
1696246852281,0.50219727,0.105895996,-0.8069458,0.46875,-1.265625,0.328125
1696246852320,0.49780273,0.10076904,-0.80841064,0.375,-1.078125,0.265625
1696246852361,0.5,0.10296631,-0.80010986,0.09375,-0.734375,0.25
1696246852400,0.49829102,0.09564209,-0.7930298,-0.28125,-0.375,0.109375
1696246852441,0.50024414,0.09857178,-0.8110962,-0.34375,-0.4375,-0.0625
1696246852483,0.49560547,0.10101318,-0.8049927,-0.109375,-0.6875,0.140625
1696246852524,0.49829102,0.10003662,-0.81207275,0.03125,-0.828125,0.390625
1696246852560,0.50390625,0.10101318,-0.8074341,0.171875,-0.90625,0.1875
1696246852602,0.5031738,0.10394287,-0.81134033,0.078125,-0.8125,0.125
1696246852642,0.5004883,0.1005249,-0.8040161,0.171875,-0.8125,0.265625
1696246852681,0.49169922,0.10736084,-0.7996216,0.125,-1.171875,0.328125
1696246852764,0.5,0.10272217,-0.7966919,0.15625,-1.1875,0.265625
1696246852769,0.50439453,0.10784912,-0.80841064,-0.125,-0.375,0.140625
1696246852780,0.50097656,0.097839355,-0.803772,0.34375,-0.65625,0.375
1696246852822,0.50097656,0.10272217,-0.8052368,0.125,-0.40625,0.203125
1696246852863,0.4987793,0.10394287,-0.8010864,0.359375,-1.1875,0.171875
1696246852902,0.50683594,0.10760498,-0.8062134,-0.046875,-0.71875,0.0625
1696246852962,0.501709,0.10809326,-0.8106079,0.046875,-0.375,0.171875
1696246852982,0.49609375,0.11175537,-0.81622314,0.234375,-0.0625,0.359375
1696246853019,0.5197754,0.090270996,-0.7962036,0.28125,-0.34375,0.234375
1696246853082,0.5070801,0.09710693,-0.8015747,-0.046875,0.015625,0.3125
1696246853100,0.50268555,0.10809326,-0.8074341,-0.28125,-0.265625,0.203125
1696246853142,0.49902344,0.10443115,-0.8086548,0.109375,-0.328125,0.265625
1696246853206,0.50097656,0.10638428,-0.80596924,0.015625,-0.34375,0.171875
1696246853220,0.49609375,0.10296631,-0.8057251,0.015625,-0.15625,0.328125
1696246853283,0.50268555,0.113464355,-0.8110962,-0.140625,-0.140625,0.3125
1696246853302,0.49316406,0.10076904,-0.80352783,0.15625,-0.4375,0.25
1696246853342,0.5041504,0.10638428,-0.8179321,-0.28125,-0.0625,0.28125
1696246853381,0.49682617,0.10321045,-0.8093872,0.234375,-0.5625,0.328125
1696246853422,0.49682617,0.10614014,-0.81378174,-0.03125,-0.34375,0.28125
1696246853462,0.49780273,0.10491943,-0.80718994,-0.125,-0.4375,0.234375
1696246853502,0.49414062,0.10418701,-0.8076782,-0.09375,-0.421875,0.140625
1696246853541,0.4946289,0.105895996,-0.803772,-0.203125,-0.546875,0.140625
1696246853602,0.50268555,0.109313965,-0.8076782,-0.1875,-0.703125,0.125
1696246853619,0.501709,0.09613037,-0.802063,-0.046875,-0.4375,0.140625
1696246853660,0.49560547,0.10345459,-0.80914307,-0.03125,-0.625,0.3125
1696246853725,0.49682617,0.105895996,-0.80963135,-0.21875,-0.78125,0.21875
1696246853743,0.49975586,0.10736084,-0.8086548,-0.171875,-0.6875,0.140625
1696246853805,0.5070801,0.10345459,-0.8147583,-0.203125,-0.515625,0.15625
1696246853819,0.4946289,0.10272217,-0.79815674,0.015625,-0.75,0.28125
1696246853861,0.4934082,0.10003662,-0.7974243,-0.1875,-0.53125,0.125
1696246853902,0.5,0.10345459,-0.81573486,-0.71875,-0.234375,-0.03125
1696246853961,0.49316406,0.10321045,-0.8062134,-0.109375,-0.609375,0.09375
1696246853982,0.49487305,0.11029053,-0.81329346,-0.484375,-0.453125,-0.078125
1696246854021,0.49780273,0.10296631,-0.8115845,-0.34375,-0.703125,-0.015625
1696246854083,0.49389648,0.09954834,-0.81378174,-0.421875,-0.5625,0.21875
1696246854088,0.4970703,0.10247803,-0.80914307,-0.078125,-0.671875,0.21875
1696246854124,0.5,0.10418701,-0.8179321,-0.1875,-0.84375,0.125
1696246854162,0.5004883,0.101257324,-0.80548096,-0.03125,-0.796875,0.125
1696246854201,0.49365234,0.09881592,-0.8045044,0.234375,-0.78125,0.234375
1696246854242,0.49926758,0.097839355,-0.8045044,0.265625,-0.828125,0.171875
1696246854282,0.49438477,0.10296631,-0.8088989,0.0625,-0.78125,0.15625
1696246854323,0.5012207,0.101989746,-0.8106079,-0.046875,-0.546875,0.234375
1696246854362,0.4975586,0.10467529,-0.80792236,0.078125,-0.625,0.171875
1696246854401,0.49926758,0.11077881,-0.81500244,-0.171875,-0.59375,0.203125
1696246854440,0.49975586,0.11004639,-0.8101196,0.09375,-0.796875,0.234375
1696246854482,0.50097656,0.10028076,-0.80474854,0.09375,-0.84375,0.296875
1696246854521,0.50268555,0.10345459,-0.8088989,0.1875,-0.984375,0.25
1696246854562,0.5029297,0.101745605,-0.80596924,-0.140625,-0.984375,0.203125
1696246854603,0.5046387,0.10467529,-0.8086548,-0.078125,-0.90625,0.09375
1696246854641,0.50097656,0.10784912,-0.81085205,-0.046875,-1.03125,0.234375
1696246854681,0.50341797,0.10443115,-0.800354,0.1875,-1.09375,0.1875
1696246854721,0.5004883,0.10247803,-0.80303955,0.0625,-0.59375,0.265625
1696246854765,0.4951172,0.105895996,-0.8010864,0.0625,-0.796875,0.109375
1696246854800,0.49926758,0.105895996,-0.80426025,-0.046875,-0.796875,0.296875
1696246854842,0.50341797,0.10614014,-0.80792236,-0.125,-0.53125,0.25
1696246854881,0.50634766,0.10296631,-0.8069458,-0.28125,-0.671875,0.09375
1696246854922,0.50268555,0.10418701,-0.8049927,-0.09375,-0.421875,0.203125
1696246854960,0.5046387,0.10687256,-0.8023071,0.015625,-0.640625,0.21875
1696246855002,0.50146484,0.105163574,-0.8023071,0.015625,-0.765625,0.125
1696246855040,0.49438477,0.10394287,-0.78863525,0.140625,-1.109375,0.265625
1696246855081,0.5085449,0.10687256,-0.8128052,-0.140625,-0.53125,0.109375
1696246855122,0.49975586,0.09906006,-0.79400635,0.25,-0.890625,0.296875
1696246855161,0.5029297,0.10101318,-0.8023071,0.15625,-0.75,0.140625
1696246855202,0.5036621,0.105407715,-0.81256104,-0.1875,-0.90625,0.09375
1696246855241,0.50805664,0.10247803,-0.80426025,-0.046875,-1.140625,0.265625
1696246855280,0.5024414,0.10076904,-0.8101196,0.171875,-1.203125,0.203125
1696246855320,0.5070801,0.105407715,-0.8154907,-0.25,-0.78125,0.21875
1696246855361,0.5036621,0.10223389,-0.803772,-0.03125,-1.0,0.203125
1696246855380,0.501709,0.105651855,-0.800354,-0.078125,-0.78125,0.171875
1696246855422,0.5073242,0.10272217,-0.80352783,-0.0625,-0.84375,0.203125
1696246855463,0.50683594,0.1083374,-0.80059814,-0.09375,-0.96875,0.265625
1696246855523,0.49536133,0.113220215,-0.8023071,0.0625,-0.875,0.171875
1696246855542,0.5046387,0.10321045,-0.80133057,0.203125,-0.84375,0.21875
1696246855582,0.5073242,0.09710693,-0.8032837,0.171875,-0.890625,0.359375
1696246855622,0.50097656,0.10858154,-0.79351807,0.171875,-0.96875,0.28125
1696246855662,0.50439453,0.10760498,-0.80963135,-0.40625,-0.546875,0.0
1696246855701,0.5061035,0.10443115,-0.8086548,-0.140625,-0.84375,0.125
1696246855742,0.5053711,0.10784912,-0.798645,0.40625,-1.0,0.171875
1696246855781,0.5095215,0.10076904,-0.7996216,-0.03125,-0.703125,0.171875
1696246855842,0.51000977,0.10809326,-0.80426025,-0.25,-0.703125,0.1875
1696246855862,0.5048828,0.11273193,-0.8008423,-0.109375,-0.859375,0.046875
1696246855922,0.5078125,0.09906006,-0.80303955,0.1875,-1.125,0.25
1696246855962,0.5114746,0.1083374,-0.79351807,0.21875,-0.875,0.359375
1696246855981,0.5161133,0.105163574,-0.80426025,-0.515625,-0.484375,0.046875
1696246856022,0.5083008,0.098083496,-0.7959595,0.0,-0.8125,0.203125
1696246856062,0.5041504,0.10882568,-0.7984009,-0.09375,-0.84375,0.25
1696246856102,0.51782227,0.105651855,-0.8015747,-0.21875,-0.8125,0.046875
1696246856140,0.5041504,0.10760498,-0.8008423,-0.03125,-0.765625,0.125
1696246856182,0.5180664,0.11248779,-0.8008423,-0.0625,-0.484375,0.15625
1696246856222,0.50512695,0.10369873,-0.8023071,-0.015625,-0.625,0.125
1696246856262,0.50634766,0.10614014,-0.8008423,-0.125,-0.703125,0.203125
1696246856303,0.5078125,0.105407715,-0.80059814,0.046875,-0.8125,0.265625
1696246856343,0.5041504,0.10223389,-0.8147583,-0.0625,-0.578125,0.25
1696246856380,0.5119629,0.10687256,-0.8110962,0.390625,-0.484375,0.28125
1696246856446,0.51049805,0.10784912,-0.7954712,0.4375,-0.21875,0.3125
1696246856460,0.5073242,0.097595215,-0.7810669,1.171875,-0.5,0.5625
1696246856502,0.5065918,0.11444092,-0.78497314,0.734375,-0.109375,0.8125
1696246856564,0.5073242,0.1161499,-0.79693604,0.078125,0.921875,0.625
1696246856581,0.5029297,0.116882324,-0.8098755,0.28125,0.53125,0.484375
1696246856642,0.50634766,0.11053467,-0.8164673,0.40625,0.125,0.328125
1696246856682,0.50512695,0.116882324,-0.80255127,1.265625,-1.734375,0.65625
1696246856722,0.532959,0.12420654,-0.8274536,-1.015625,-1.65625,-0.0625
1696246856726,0.48950195,0.10418701,-0.772522,0.4375,-1.71875,0.3125
1696246856761,0.5073242,0.11126709,-0.8062134,0.421875,-0.140625,0.71875
1696246856801,0.49975586,0.11981201,-0.7893677,1.03125,-0.671875,0.734375
1696246856842,0.5109863,0.11663818,-0.7971802,1.046875,-0.125,0.609375
1696246856882,0.5124512,0.11566162,-0.815979,-0.5,-0.234375,0.109375
1696246856923,0.5065918,0.12567139,-0.8154907,-0.78125,-0.8125,0.234375
1696246856962,0.4946289,0.11468506,-0.77056885,-0.34375,-0.421875,0.21875
1696246857002,0.501709,0.11859131,-0.81134033,-1.625,-0.25,-0.203125
1696246857041,0.5131836,0.11785889,-0.7974243,-2.078125,-0.53125,-0.578125
1696246857081,0.5095215,0.105895996,-0.80255127,-2.46875,-0.171875,-0.640625
1696246857124,0.48950195,0.10272217,-0.7920532,-0.703125,-0.921875,0.078125
1696246857164,0.5019531,0.10687256,-0.7805786,-0.6875,-1.671875,0.234375
1696246857203,0.51000977,0.10467529,-0.80474854,-0.421875,-0.421875,0.296875
1696246857243,0.5078125,0.10418701,-0.7908325,-0.953125,-0.71875,0.09375
1696246857281,0.5197754,0.109069824,-0.80548096,-0.875,0.328125,0.28125
1696246857322,0.50561523,0.10369873,-0.79351807,-0.703125,0.53125,0.28125
1696246857361,0.5058594,0.10003662,-0.7937622,-0.4375,0.859375,0.09375
1696246857401,0.4970703,0.09588623,-0.79888916,-0.890625,0.75,-0.125
1696246857442,0.5012207,0.09564209,-0.80426025,-0.765625,0.09375,-0.125
1696246857483,0.5036621,0.10076904,-0.8196411,-1.828125,1.015625,-0.359375
1696246857521,0.49414062,0.10369873,-0.8069458,-1.03125,0.390625,-0.296875
1696246857563,0.50878906,0.1005249,-0.8291626,-1.953125,0.171875,-0.640625
1696246857600,0.50097656,0.09246826,-0.8027954,-0.734375,-0.40625,-0.484375
1696246857642,0.51220703,0.093933105,-0.80596924,1.25,-1.0625,0.171875
1696246857681,0.49829102,0.08465576,-0.8045044,7.828125,-3.328125,2.578125
1696246857722,0.49536133,0.113708496,-0.8242798,7.15625,-2.96875,3.125
1696246857762,0.5109863,0.11956787,-0.80548096,4.0625,-3.171875,0.375
1696246857801,0.51293945,0.12835693,-0.80670166,5.65625,-3.25,0.75
1696246857845,0.5053711,0.13568115,-0.7854614,4.9375,-3.0,0.59375
1696246857881,0.51464844,0.14105225,-0.8088989,5.734375,-1.71875,1.078125
1696246857924,0.5148926,0.14959717,-0.784729,5.734375,-0.203125,1.359375
1696246857964,0.50805664,0.15472412,-0.7637329,4.484375,-0.640625,0.640625
1696246858002,0.51464844,0.15228271,-0.79229736,1.765625,0.796875,-0.078125
1696246858042,0.57250977,0.17181396,-0.87457275,0.796875,1.703125,-0.625
1696246858061,0.453125,0.14715576,-0.74102783,1.3125,10.3125,1.65625
1696246858101,0.4609375,0.14813232,-0.7437134,-2.109375,3.546875,-0.03125
1696246858141,0.47583008,0.152771,-0.7756958,-3.640625,3.328125,-1.0625
1696246858184,0.48754883,0.14007568,-0.8286743,-1.875,3.25,-0.125
1696246858222,0.4465332,0.14691162,-0.79278564,-0.9375,-0.40625,-0.28125
1696246858263,0.49316406,0.14935303,-0.8311157,-1.390625,-1.78125,-0.734375
1696246858302,0.5036621,0.15472412,-0.84869385,-0.0625,-2.046875,-0.015625
1696246858343,0.5024414,0.15618896,-0.8401489,1.46875,-1.640625,0.046875
1696246858404,0.49853516,0.15594482,-0.83477783,2.140625,-0.0625,0.59375
1696246858420,0.54174805,0.15496826,-0.8948364,2.25,3.171875,1.015625
1696246858464,0.48583984,0.14910889,-0.82403564,-2.015625,6.4375,0.375
1696246858501,0.45263672,0.11517334,-0.7949829,-1.078125,9.765625,1.75
1696246858563,0.4194336,0.1251831,-0.65582275,-2.96875,2.40625,-0.234375
1696246858603,0.43139648,0.13909912,-0.7481079,-1.90625,5.296875,-0.46875
1696246858620,0.4074707,0.1293335,-0.7283325,-1.453125,3.25,-0.140625
1696246858684,0.42773438,0.13153076,-0.78448486,-2.859375,1.0625,-0.828125
1696246858700,0.45385742,0.13421631,-0.8682251,-3.34375,-1.890625,-1.125
1696246858742,0.49121094,0.15374756,-0.9155884,-0.953125,-3.0625,-0.875
1696246858781,0.48901367,0.15252686,-0.90289307,0.5,-3.140625,-0.375
1696246858844,0.49853516,0.152771,-0.8833618,1.171875,-2.328125,-0.09375
1696246858860,0.4855957,0.15228271,-0.8447876,0.265625,0.171875,-0.140625
1696246858903,0.50024414,0.13519287,-0.83428955,0.546875,4.09375,1.5
1696246858943,0.36523438,0.10028076,-0.803772,1.125,3.734375,2.125
1696246858982,0.3935547,0.13812256,-0.7659302,-0.71875,3.21875,0.3125
1696246859021,0.39990234,0.1281128,-0.7268677,-2.5,2.046875,-0.796875
1696246859062,0.37719727,0.117614746,-0.68707275,-5.21875,2.15625,-1.578125
1696246859103,0.39526367,0.11981201,-0.7605591,-5.859375,-1.65625,-0.40625
1696246859140,0.43701172,0.121276855,-0.90411377,-3.390625,-6.21875,-0.171875
1696246859182,0.5058594,0.13323975,-0.9614868,0.9375,-11.5625,-0.921875
1696246859223,0.5292969,0.1293335,-0.94610596,0.28125,-7.921875,-0.5625
1696246859264,0.50024414,0.13153076,-0.85943604,0.984375,-4.703125,0.28125
1696246859302,0.4873047,0.12957764,-0.8381958,-0.96875,-2.546875,0.21875
1696246859343,0.46240234,0.11517334,-0.80255127,-2.8125,-1.59375,-0.34375
1696246859360,0.45507812,0.117614746,-0.7893677,-3.890625,-0.828125,-1.0
1696246859402,0.45947266,0.10784912,-0.8052368,-3.34375,-0.078125,-0.796875
1696246859442,0.5048828,0.10760498,-0.8621216,2.75,0.625,0.328125
1696246859481,0.48608398,0.11883545,-0.8740845,7.1875,-0.25,1.875
1696246859521,0.484375,0.1329956,-0.82647705,6.1875,0.859375,1.28125
1696246859562,0.47143555,0.1329956,-0.8140259,3.046875,0.5625,0.40625
1696246859603,0.46313477,0.14398193,-0.8250122,1.40625,-0.015625,-0.015625
1696246859642,0.4711914,0.15350342,-0.8467407,0.984375,0.640625,-0.203125
1696246859682,0.46777344,0.14349365,-0.83795166,1.171875,1.234375,0.40625
1696246859721,0.5114746,0.16278076,-0.8831177,-1.734375,5.140625,-0.28125
1696246859762,0.47070312,0.11468506,-0.84747314,2.40625,11.28125,2.359375
1696246859802,0.3774414,0.13006592,-0.7073364,-0.734375,4.921875,1.59375
1696246859842,0.40771484,0.14520264,-0.7349243,-1.125,4.953125,0.421875
1696246859881,0.38598633,0.1305542,-0.74298096,-1.15625,3.296875,0.671875
1696246859921,0.39257812,0.12982178,-0.8045044,-2.65625,-2.09375,-0.0625
1696246859962,0.44067383,0.13763428,-0.8591919,-3.421875,-4.265625,-1.109375
1696246860004,0.4663086,0.1449585,-0.8921509,-1.4375,-3.953125,-1.0
1696246860041,0.48120117,0.15252686,-0.90167236,0.671875,-4.46875,-0.375
1696246860084,0.49780273,0.15081787,-0.94000244,2.28125,-2.640625,0.34375
1696246860122,0.47558594,0.14227295,-0.86846924,3.015625,-1.40625,1.0
1696246860162,0.49926758,0.15081787,-0.94415283,2.03125,3.84375,1.265625
1696246860200,0.36743164,0.11029053,-0.7324829,0.65625,1.765625,0.625
1696246860240,0.40527344,0.12713623,-0.77130127,-0.671875,1.09375,-0.15625
1696246860281,0.38964844,0.12225342,-0.74542236,-2.671875,1.34375,-0.8125
1696246860321,0.41259766,0.12738037,-0.7769165,-2.171875,0.359375,0.015625
1696246860362,0.4482422,0.14471436,-0.86846924,-1.796875,-0.484375,0.0
1696246860401,0.47558594,0.14178467,-0.9265747,-0.015625,-2.75,0.0625
1696246860442,0.4658203,0.14886475,-0.913147,0.984375,-1.90625,0.203125
1696246860481,0.4584961,0.1461792,-0.8677368,1.5625,-0.96875,0.328125
1696246860521,0.46240234,0.14593506,-0.8755493,1.828125,0.078125,0.53125
1696246860561,0.42407227,0.13519287,-0.798645,-0.078125,-0.25,0.234375
1696246860602,0.4519043,0.13690186,-0.8921509,-1.0,2.21875,0.109375
1696246860679,0.35668945,0.10247803,-0.76568604,0.328125,3.296875,0.609375
1696246860681,0.4333496,0.14007568,-0.8418579,-2.90625,3.046875,-0.625
1696246860699,0.37646484,0.109313965,-0.74591064,-3.96875,1.65625,-0.953125
1696246860740,0.39697266,0.11785889,-0.77423096,-0.625,0.140625,0.765625
1696246860780,0.41748047,0.1305542,-0.8233032,0.265625,-4.453125,0.953125
1696246860843,0.43139648,0.1251831,-0.8279419,-2.65625,-5.65625,0.03125
1696246860861,0.46777344,0.13323975,-0.8936157,-3.796875,-7.765625,-0.78125
1696246860923,0.4777832,0.124694824,-0.88726807,-1.765625,-7.75,-0.6875
1696246860941,0.47607422,0.121032715,-0.8579712,-1.53125,-7.296875,-0.671875
1696246860983,0.47729492,0.117370605,-0.8399048,-1.0,-4.265625,-0.09375
1696246861042,0.45166016,0.11981201,-0.8106079,-2.0,-1.4375,-0.203125
1696246861060,0.45922852,0.10760498,-0.8184204,-3.515625,0.328125,-0.546875
1696246861102,0.45507812,0.10321045,-0.81134033,-4.515625,0.359375,-0.765625
1696246861141,0.46411133,0.101257324,-0.82525635,-3.015625,-0.078125,-0.546875
1696246861185,0.5065918,0.11395264,-0.89849854,3.421875,-0.640625,0.671875
1696246861223,0.47436523,0.101501465,-0.8723755,7.296875,0.890625,1.84375
1696246861285,0.4645996,0.12030029,-0.82281494,7.90625,-0.671875,1.625
1696246861303,0.4724121,0.120788574,-0.81988525,4.359375,0.5,0.078125
1696246861342,0.43823242,0.11956787,-0.78302,2.03125,-0.546875,0.234375
1696246861382,0.46435547,0.14227295,-0.82159424,0.90625,-0.578125,0.390625
1696246861422,0.48046875,0.12420654,-0.829895,1.3125,-0.96875,1.28125
1696246861461,0.46777344,0.13226318,-0.8562622,1.59375,1.734375,1.875
1696246861524,0.48876953,0.15765381,-0.833313,0.71875,5.625,0.84375
1696246861542,0.42358398,0.1239624,-0.77789307,1.25,2.515625,0.625
1696246861606,0.43798828,0.13470459,-0.8308716,-0.5625,2.34375,-0.015625
1696246861620,0.40161133,0.12200928,-0.7744751,-1.734375,2.125,0.0
1696246861662,0.40795898,0.12957764,-0.7761841,-4.5,0.359375,-0.828125
1696246861723,0.40942383,0.12200928,-0.7827759,-4.328125,-1.515625,-0.671875
1696246861741,0.46557617,0.1408081,-0.88165283,-1.40625,-2.15625,-0.15625
1696246861780,0.46435547,0.13153076,-0.89141846,-0.921875,-3.25,-0.40625
1696246861821,0.47338867,0.13226318,-0.8875122,1.0625,-2.140625,0.046875
1696246861862,0.46044922,0.13690186,-0.89801025,2.125,-1.796875,0.25
1696246861902,0.45703125,0.12542725,-0.82696533,3.953125,-1.734375,0.796875
1696246861942,0.48364258,0.14959717,-0.8772583,6.46875,3.1875,2.59375
1696246861985,0.47143555,0.15960693,-0.85894775,0.8125,3.828125,0.953125
1696246862000,0.37548828,0.11468506,-0.7698364,0.8125,4.21875,0.90625
1696246862043,0.37353516,0.12860107,-0.74005127,-1.09375,1.6875,-0.359375
1696246862084,0.39697266,0.1293335,-0.79766846,-0.640625,0.765625,0.21875
1696246862121,0.38793945,0.12738037,-0.7710571,-2.5625,-1.546875,-0.53125
1696246862163,0.41235352,0.14031982,-0.80841064,-4.15625,-4.65625,-1.0625
1696246862203,0.45507812,0.14227295,-0.89630127,-2.015625,-1.65625,-0.265625
1696246862242,0.47192383,0.14154053,-0.9155884,-0.4375,-4.15625,-0.453125
1696246862283,0.4741211,0.13861084,-0.89801025,0.484375,-3.640625,-0.28125
1696246862320,0.47265625,0.13494873,-0.88116455,1.46875,-1.53125,0.421875
1696246862360,0.4736328,0.14837646,-0.8723755,2.4375,0.921875,1.0625
1696246862403,0.4338379,0.14154053,-0.81500244,-0.234375,2.015625,0.359375
1696246862442,0.4597168,0.13519287,-0.8179321,-1.390625,5.640625,0.140625
1696246862483,0.41259766,0.1239624,-0.77789307,-1.40625,3.453125,0.03125
1696246862521,0.39697266,0.11834717,-0.7749634,0.4375,3.390625,0.21875
1696246862561,0.3713379,0.11468506,-0.75616455,-1.40625,-0.84375,-0.015625
1696246862603,0.39233398,0.12786865,-0.77008057,-3.5625,-3.484375,-0.875
1696246862642,0.40673828,0.12030029,-0.79766846,-6.59375,-5.0,-1.15625
1696246862684,0.44067383,0.105651855,-0.8772583,-5.875,-5.5,-0.203125
1696246862722,0.4645996,0.11419678,-0.9060669,-2.453125,-8.3125,0.046875
1696246862760,0.4909668,0.1239624,-0.91241455,-0.609375,-7.6875,-0.234375
1696246862801,0.4892578,0.11785889,-0.88238525,0.25,-6.21875,-0.140625
1696246862844,0.47973633,0.11029053,-0.8208618,-0.125,-3.703125,-0.09375
1696246862881,0.4645996,0.10809326,-0.8032837,-1.046875,-1.78125,-0.125
1696246862921,0.45507812,0.101745605,-0.79937744,-2.28125,0.65625,-0.640625
1696246862961,0.4638672,0.10076904,-0.83380127,-3.53125,0.625,-0.8125
1696246863004,0.4663086,0.10638428,-0.84942627,-0.96875,-0.3125,-0.0625
1696246863041,0.49023438,0.11224365,-0.8792114,2.5,0.875,0.6875
1696246863082,0.47143555,0.10638428,-0.83795166,7.578125,0.265625,2.0625
1696246863123,0.46362305,0.12030029,-0.802063,4.59375,-0.4375,0.625
1696246863161,0.46704102,0.120788574,-0.85772705,3.953125,1.53125,0.296875
1696246863202,0.4477539,0.12347412,-0.86260986,5.0625,2.34375,0.75
1696246863244,0.45043945,0.13323975,-0.84454346,0.390625,2.015625,0.203125
1696246863304,0.4230957,0.1305542,-0.78326416,-0.78125,1.578125,0.25
1696246863324,0.46264648,0.13201904,-0.8189087,-1.25,2.625,-0.015625
1696246863345,0.40234375,0.10784912,-0.7490845,-0.421875,1.3125,0.5625
1696246863385,0.3864746,0.116882324,-0.76397705,-0.546875,0.421875,-0.015625
1696246863441,0.4104004,0.113464355,-0.8062134,-0.71875,0.890625,-0.375
1696246863482,0.41210938,0.12371826,-0.7883911,-2.328125,-0.5,-0.09375
1696246863501,0.4428711,0.12713623,-0.86553955,-1.421875,-2.46875,-0.1875
1696246863563,0.4675293,0.11981201,-0.880188,-0.625,-4.640625,-0.171875
1696246863582,0.4753418,0.13861084,-0.92974854,0.59375,-3.609375,0.046875
1696246863622,0.47631836,0.12567139,-0.892395,0.65625,-1.09375,0.09375
1696246863663,0.47338867,0.12713623,-0.8621216,1.859375,-0.890625,0.515625
1696246863703,0.47436523,0.13446045,-0.86846924,2.71875,1.15625,0.921875
1696246863764,0.4580078,0.13372803,-0.85284424,1.625,2.796875,1.265625
1696246863782,0.46362305,0.13153076,-0.83135986,-0.390625,5.046875,0.296875
1696246863822,0.4350586,0.12347412,-0.8377075,-1.75,1.375,-0.484375
1696246863883,0.4020996,0.11248779,-0.7876587,-1.125,1.34375,-0.390625
1696246863923,0.3972168,0.11785889,-0.79473877,-1.390625,0.21875,0.1875
1696246863964,0.4194336,0.12176514,-0.8237915,-0.953125,-0.578125,-0.15625
1696246864003,0.43432617,0.12762451,-0.85772705,-1.328125,-0.859375,-0.15625
1696246864040,0.45458984,0.13006592,-0.897522,-0.25,-2.4375,0.109375
1696246864062,0.45751953,0.12860107,-0.8779907,0.859375,-2.046875,0.109375
1696246864125,0.4724121,0.12689209,-0.90997314,5.828125,-1.421875,0.953125
1696246864140,0.43725586,0.13201904,-0.8335571,3.859375,0.53125,1.703125
1696246864184,0.45629883,0.15423584,-0.8579712,1.9375,2.96875,1.25
1696246864244,0.4350586,0.1473999,-0.8633423,-2.078125,4.734375,0.328125
1696246864260,0.421875,0.12713623,-0.82403564,-3.3125,5.109375,-0.625
1696246864322,0.4086914,0.12591553,-0.8196411,-0.671875,3.703125,0.53125
1696246864362,0.37231445,0.11175537,-0.75006104,-1.1875,1.578125,-0.046875
1696246864381,0.38305664,0.12176514,-0.7871704,-2.984375,0.84375,-0.65625
1696246864421,0.39160156,0.116882324,-0.8045044,-4.828125,-2.40625,-1.328125
1696246864468,0.39770508,0.11151123,-0.79156494,-7.5625,-4.125,-1.1875
1696246864503,0.42626953,0.105895996,-0.8674927,-5.875,-7.515625,-0.375
1696246864542,0.46020508,0.10687256,-0.9014282,-2.03125,-9.796875,-0.046875
1696246864582,0.48364258,0.11590576,-0.91241455,-0.71875,-10.640625,-0.203125
1696246864622,0.47851562,0.109069824,-0.8711548,0.375,-7.109375,-0.140625
1696246864640,0.46704102,0.10028076,-0.8262329,0.046875,-3.828125,-0.046875
1696246864682,0.44970703,0.09442139,-0.7866821,-0.921875,-0.921875,-0.078125
1696246864721,0.45214844,0.09857178,-0.8237915,-2.03125,0.140625,-0.4375
1696246864762,0.45483398,0.09979248,-0.833313,-3.46875,0.5,-0.640625
1696246864802,0.46875,0.10467529,-0.8496704,-2.96875,0.375,-0.546875
1696246864841,0.48461914,0.093933105,-0.88067627,1.875,0.0,0.484375
1696246864882,0.47485352,0.101989746,-0.88116455,6.171875,-0.609375,1.484375
1696246864921,0.46118164,0.109802246,-0.82110596,6.421875,0.234375,1.28125
1696246864960,0.44262695,0.10272217,-0.81744385,4.296875,-0.09375,0.515625
1696246865001,0.44335938,0.11199951,-0.7959595,1.25,-0.71875,0.578125
1696246865041,0.43969727,0.11663818,-0.8130493,0.515625,0.015625,0.859375
1696246865103,0.44677734,0.12054443,-0.82940674,0.921875,-0.765625,0.484375
1696246865123,0.45947266,0.121032715,-0.81378174,-0.171875,-1.328125,-0.296875
1696246865164,0.47998047,0.1395874,-0.85357666,0.765625,-2.390625,-0.21875
1696246865204,0.43286133,0.11517334,-0.798645,1.765625,1.375,0.5625
1696246865243,0.45385742,0.113464355,-0.8201294,-0.171875,0.9375,0.171875
1696246865282,0.45947266,0.11468506,-0.8401489,-1.359375,1.71875,-0.5
1696246865324,0.4477539,0.12713623,-0.82818604,-0.921875,1.015625,-0.03125
1696246865363,0.45410156,0.11785889,-0.84991455,-0.84375,-0.546875,0.1875
1696246865422,0.45483398,0.11444092,-0.8369751,-0.5625,-1.28125,0.078125
1696246865439,0.4506836,0.11541748,-0.83135986,0.0,-1.109375,0.078125
1696246865501,0.45458984,0.120788574,-0.8250122,0.328125,-1.25,0.03125
1696246865544,0.45874023,0.12298584,-0.84381104,0.875,-0.546875,0.25
1696246865583,0.5029297,0.1317749,-0.9175415,2.3125,4.03125,1.453125
1696246865622,0.4892578,0.13079834,-0.9158325,0.8125,4.984375,-0.15625
1696246865640,0.4362793,0.13348389,-0.8328247,0.65625,1.71875,0.234375
1696246865683,0.4128418,0.10858154,-0.8274536,0.734375,4.265625,0.578125
1696246865722,0.4194336,0.13275146,-0.84259033,-0.4375,2.546875,0.75
1696246865761,0.35766602,0.10076904,-0.74102783,0.5,1.078125,0.765625
1696246865802,0.3713379,0.11981201,-0.75738525,-1.734375,-0.546875,-0.375
1696246865842,0.41479492,0.11907959,-0.8069458,-2.3125,-0.65625,-0.875
1696246865882,0.44189453,0.124694824,-0.8821411,-1.34375,-0.875,-0.234375
1696246865922,0.4506836,0.12860107,-0.9121704,-1.140625,-2.765625,-0.015625
1696246865941,0.47314453,0.12835693,-0.91607666,0.671875,-2.1875,0.125
1696246865983,0.45874023,0.12615967,-0.89312744,1.4375,-1.84375,0.625
1696246866063,0.43139648,0.12957764,-0.8179321,2.0,-1.09375,1.046875
1696246866066,0.41992188,0.12567139,-0.8062134,1.109375,-0.03125,0.6875
1696246866101,0.43286133,0.13568115,-0.79278564,0.0,0.921875,0.4375
1696246866143,0.45751953,0.1359253,-0.8740845,-3.03125,1.8125,-1.265625
1696246866184,0.40625,0.10858154,-0.83306885,0.234375,2.46875,0.5
1696246866222,0.41015625,0.1161499,-0.8526001,-1.578125,2.90625,-0.21875
1696246866262,0.4182129,0.117614746,-0.848938,-2.53125,1.390625,-0.109375
1696246866302,0.40527344,0.11199951,-0.8069458,-2.609375,0.015625,-0.5625
1696246866362,0.37939453,0.10418701,-0.786438,-3.71875,-0.96875,-0.34375
1696246866381,0.3947754,0.098083496,-0.8154907,-3.859375,-5.875,0.046875
1696246866422,0.44360352,0.0993042,-0.8591919,-2.078125,-8.96875,0.0625
1696246866462,0.4663086,0.10491943,-0.8882446,-0.828125,-8.609375,0.03125
1696246866504,0.48828125,0.11029053,-0.8826294,-0.03125,-6.453125,0.09375
1696246866541,0.47558594,0.11126709,-0.8713989,0.03125,-3.015625,0.125
1696246866582,0.46411133,0.109558105,-0.8286743,-0.109375,-0.859375,0.375
1696246866623,0.44873047,0.105895996,-0.8237915,-1.40625,0.25,-0.125
1696246866661,0.44458008,0.097351074,-0.7918091,-2.515625,1.171875,-0.328125
1696246866701,0.45385742,0.09857178,-0.85284424,-4.171875,1.21875,-0.65625
1696246866741,0.44458008,0.09100342,-0.83135986,-1.5,-0.78125,-0.171875
1696246866782,0.4873047,0.10443115,-0.89385986,1.609375,-1.40625,0.546875
1696246866821,0.47924805,0.09490967,-0.9067993,6.421875,-1.078125,1.40625
1696246866864,0.45483398,0.11029053,-0.79400635,6.640625,-2.78125,1.3125
1696246866903,0.46020508,0.11102295,-0.8255005,2.75,-0.828125,-0.078125
1696246866942,0.44482422,0.11029053,-0.8057251,2.515625,-0.78125,0.265625
1696246866981,0.46972656,0.13885498,-0.8311157,1.703125,1.703125,0.640625
1696246867022,0.46875,0.116882324,-0.81329346,1.0625,0.84375,0.96875
1696246867066,0.49438477,0.17132568,-0.8909302,2.671875,6.25,1.625
1696246867102,0.40454102,0.09857178,-0.7949829,1.46875,5.1875,0.59375
1696246867142,0.37939453,0.117370605,-0.7703247,0.6875,3.59375,0.3125
1696246867183,0.39111328,0.1149292,-0.7756958,0.4375,2.46875,0.890625
1696246867242,0.3930664,0.12200928,-0.7737427,-2.46875,1.078125,-0.125
1696246867262,0.4008789,0.13153076,-0.8230591,-1.90625,-1.0625,-0.515625
1696246867281,0.4411621,0.13470459,-0.8609009,-1.609375,-3.296875,-0.671875
1696246867321,0.46899414,0.13494873,-0.9199829,-0.640625,-4.265625,-0.75
1696246867362,0.46533203,0.12640381,-0.87750244,1.515625,-3.234375,-0.046875
1696246867402,0.45654297,0.1359253,-0.88409424,2.65625,-1.25,0.515625
1696246867442,0.44921875,0.12542725,-0.8677368,2.890625,-0.6875,0.734375
1696246867481,0.44848633,0.12786865,-0.848938,1.234375,0.8125,0.859375
1696246867523,0.44311523,0.13250732,-0.81573486,0.421875,0.53125,-0.53125
1696246867562,0.4050293,0.1317749,-0.77471924,-2.375,0.296875,-0.75
1696246867603,0.3791504,0.13104248,-0.74835205,-0.96875,3.015625,0.328125
1696246867642,0.41357422,0.11273193,-0.8147583,-2.625,0.890625,-0.625
1696246867705,0.43530273,0.12835693,-0.85821533,-0.671875,0.65625,-0.234375
1696246867724,0.4177246,0.11932373,-0.8435669,-1.125,-0.078125,0.140625
1696246867785,0.41479492,0.12322998,-0.81329346,-1.546875,-1.4375,0.109375
1696246867801,0.44580078,0.12176514,-0.87994385,-0.4375,-1.796875,-0.03125
1696246867842,0.44628906,0.12176514,-0.8665161,-0.140625,-2.390625,-0.265625
1696246867882,0.4411621,0.11810303,-0.8452759,1.21875,-0.859375,0.578125
1696246867942,0.46435547,0.124938965,-0.89923096,2.328125,1.375,1.046875
1696246867963,0.47509766,0.14837646,-0.9104614,-0.171875,3.65625,0.03125
1696246868022,0.47509766,0.11956787,-1.0181274,-2.15625,4.546875,-0.78125
1696246868040,0.37231445,0.10491943,-0.7710571,-2.140625,2.875,0.28125
1696246868102,0.35620117,0.10662842,-0.7112427,-2.265625,3.8125,0.1875
1696246868141,0.37939453,0.113464355,-0.7498169,-2.34375,-0.109375,-0.765625
1696246868184,0.35742188,0.09613037,-0.7449341,-3.96875,-2.09375,-0.734375
1696246868200,0.390625,0.105163574,-0.8323364,-5.21875,-1.5625,-0.046875
1696246868263,0.43237305,0.10614014,-0.9155884,-3.71875,-2.375,0.234375
1696246868281,0.45922852,0.10467529,-0.94366455,-1.328125,-4.03125,0.078125
1696246868321,0.4494629,0.09588623,-0.90826416,0.046875,-5.65625,0.203125
1696246868362,0.45776367,0.10638428,-0.8982544,1.046875,-4.171875,0.859375
1696246868422,0.43652344,0.09979248,-0.850647,1.234375,-3.28125,0.84375
1696246868463,0.42626953,0.09564209,-0.81744385,0.15625,-3.078125,0.390625
1696246868502,0.4189453,0.09613037,-0.78985596,-0.28125,-4.03125,-0.015625
1696246868520,0.4362793,0.09710693,-0.81085205,-0.359375,-4.484375,0.0
1696246868585,0.4501953,0.0993042,-0.8362427,-0.328125,-3.671875,0.125
1696246868589,0.47265625,0.10028076,-0.86553955,-0.296875,-1.515625,0.3125
1696246868623,0.4633789,0.11004639,-0.8621216,-0.203125,-0.453125,0.34375
1696246868662,0.46557617,0.10614014,-0.8687134,-0.546875,-0.671875,0.015625
1696246868702,0.44580078,0.097595215,-0.8335571,-0.609375,-0.828125,0.15625
1696246868743,0.4453125,0.09173584,-0.8362427,-1.359375,-1.421875,-0.203125
1696246868782,0.45043945,0.10418701,-0.8274536,-0.609375,-1.5,0.0
1696246868821,0.47851562,0.10687256,-0.8904419,1.8125,-2.21875,0.328125
1696246868862,0.48876953,0.09442139,-0.92193604,3.640625,-0.53125,0.671875
1696246868901,0.45239258,0.10467529,-0.79815674,7.15625,-2.546875,1.375
1696246868941,0.48339844,0.12054443,-0.87579346,4.09375,-0.0625,0.484375
1696246868982,0.49389648,0.11785889,-0.9417114,7.75,3.53125,1.953125
1696246869021,0.4724121,0.14910889,-0.79766846,10.078125,1.875,3.0
1696246869064,0.44750977,0.13519287,-0.82940674,3.46875,3.1875,2.203125
1696246869105,0.41870117,0.14178467,-0.7324829,2.703125,2.765625,2.171875
1696246869142,0.39331055,0.15228271,-0.7605591,0.078125,3.59375,0.65625
1696246869181,0.4020996,0.1395874,-0.7908325,-2.640625,1.625,-0.5625
1696246869222,0.42456055,0.14569092,-0.8179321,-3.734375,-0.40625,-1.359375
1696246869264,0.41992188,0.13934326,-0.8364868,-4.421875,-1.203125,-1.265625
1696246869302,0.4506836,0.13641357,-0.88531494,-2.03125,-2.265625,-0.75
1696246869345,0.45996094,0.1395874,-0.8882446,-0.96875,-3.390625,-0.546875
1696246869383,0.45996094,0.13397217,-0.85479736,0.359375,-2.296875,0.0
1696246869421,0.4494629,0.13885498,-0.83062744,1.046875,-1.265625,0.53125
1696246869462,0.43798828,0.13739014,-0.8323364,0.703125,0.609375,0.625
1696246869505,0.4482422,0.14105225,-0.866272,1.890625,1.625,1.25
1696246869543,0.44995117,0.13494873,-0.83062744,0.515625,1.859375,0.5625
1696246869582,0.40966797,0.1359253,-0.831604,1.90625,4.15625,1.5
1696246869621,0.43359375,0.15301514,-0.8596802,3.203125,3.21875,1.9375
1696246869663,0.3930664,0.13909912,-0.7944946,-0.265625,1.015625,0.28125
1696246869701,0.38500977,0.13690186,-0.78912354,-1.265625,-1.171875,-0.3125
1696246869742,0.41333008,0.13909912,-0.8340454,-2.71875,-1.359375,-0.671875
1696246869782,0.4272461,0.1473999,-0.85357666,-1.75,-2.53125,-0.640625
1696246869822,0.44262695,0.14593506,-0.85772705,-0.84375,-2.109375,-0.65625
1696246869862,0.46044922,0.14422607,-0.8904419,-0.421875,-1.109375,-0.234375
1696246869881,0.45336914,0.15032959,-0.89801025,-0.125,-0.03125,0.21875
1696246869921,0.44702148,0.13861084,-0.87823486,1.078125,1.203125,0.75
1696246869961,0.4165039,0.13885498,-0.81988525,-0.4375,1.140625,0.546875
1696246870026,0.3828125,0.13372803,-0.7727661,-1.515625,3.09375,0.15625
1696246870043,0.41357422,0.13226318,-0.798645,-1.75,0.953125,-0.5
1696246870081,0.4008789,0.13006592,-0.81866455,-2.21875,-0.421875,-0.890625
1696246870123,0.40844727,0.12640381,-0.8257446,-2.71875,-1.3125,-0.75
1696246870183,0.4033203,0.12567139,-0.8115845,-5.25,-3.71875,-0.828125
1696246870202,0.43286133,0.121276855,-0.86309814,-4.859375,-5.78125,-0.390625
1696246870241,0.46166992,0.12908936,-0.89849854,-2.640625,-5.609375,-0.734375
1696246870282,0.45458984,0.11468506,-0.87677,-1.40625,-6.09375,-0.515625
1696246870322,0.4543457,0.1161499,-0.84381104,-0.40625,-4.53125,-0.1875
1696246870362,0.4489746,0.116882324,-0.82232666,-0.59375,-2.4375,0.203125
1696246870403,0.45898438,0.10882568,-0.82281494,-1.109375,-1.921875,0.234375
1696246870462,0.44995117,0.11102295,-0.82598877,-1.578125,-1.015625,-0.1875
1696246870482,0.4519043,0.105407715,-0.83258057,-1.171875,-0.34375,-0.390625
1696246870524,0.4597168,0.11102295,-0.8518677,-1.1875,-0.078125,-0.15625
1696246870583,0.45166016,0.105895996,-0.83721924,0.078125,-0.296875,0.28125
1696246870600,0.4716797,0.11053467,-0.8713989,1.5,-1.046875,0.390625
1696246870641,0.4584961,0.10491943,-0.8635864,2.71875,-0.6875,0.671875
1696246870683,0.44702148,0.105651855,-0.8164673,3.984375,-1.765625,0.625
1696246870740,0.45947266,0.11785889,-0.82159424,2.75,-1.5625,0.125
1696246870762,0.4658203,0.12200928,-0.8430786,3.03125,-0.015625,0.15625
1696246870804,0.4868164,0.1486206,-0.90216064,3.40625,1.328125,1.34375
1696246870842,0.4387207,0.121276855,-0.8032837,1.5625,5.203125,0.703125
1696246870882,0.44067383,0.12200928,-0.7769165,0.859375,3.03125,0.828125
1696246870924,0.40356445,0.11541748,-0.76690674,-2.09375,1.984375,-0.4375
1696246870985,0.42138672,0.12713623,-0.8257446,-0.546875,2.1875,0.078125
1696246871001,0.41186523,0.12371826,-0.8286743,-0.34375,-0.765625,0.15625
1696246871065,0.44506836,0.13128662,-0.8562622,-0.953125,-1.75,-0.375
1696246871102,0.44970703,0.12982178,-0.8533325,0.03125,-1.96875,-0.375
1696246871120,0.46142578,0.13470459,-0.8833618,-0.765625,-1.34375,-0.53125
1696246871162,0.4609375,0.13616943,-0.8855591,0.375,-0.46875,-0.109375
1696246871224,0.47436523,0.13909912,-0.8789673,1.390625,1.34375,0.953125
1696246871227,0.4597168,0.13250732,-0.89971924,1.546875,3.265625,0.625
1696246871261,0.42041016,0.11541748,-0.81134033,-0.34375,0.625,0.453125
1696246871302,0.42919922,0.13446045,-0.8401489,-2.171875,3.21875,-0.34375
1696246871344,0.37548828,0.12249756,-0.7632446,-1.421875,3.65625,0.328125
1696246871383,0.4013672,0.11810303,-0.8088989,-0.5,1.03125,0.40625
1696246871422,0.4074707,0.11932373,-0.8340454,-2.125,-0.28125,-0.484375
1696246871463,0.40820312,0.12005615,-0.8245239,-2.5625,-1.546875,-0.90625
1696246871501,0.44506836,0.12371826,-0.90509033,-1.4375,-2.671875,-0.171875
1696246871543,0.4489746,0.11810303,-0.8960571,-0.734375,-2.328125,-0.390625
1696246871582,0.45117188,0.13079834,-0.8760376,0.859375,-1.265625,0.25
1696246871622,0.45043945,0.12567139,-0.8587036,0.734375,0.296875,0.578125
1696246871663,0.43530273,0.12786865,-0.85650635,0.9375,0.453125,0.328125
1696246871703,0.42456055,0.13104248,-0.83551025,-4.484375,0.078125,-2.4375
1696246871744,0.41064453,0.09466553,-0.7776489,-3.390625,1.890625,-1.015625
1696246871780,0.3972168,0.105407715,-0.78912354,-1.296875,0.75,-0.140625
1696246871822,0.40429688,0.09637451,-0.7905884,-2.53125,1.765625,-0.4375
1696246871862,0.41601562,0.105407715,-0.85235596,-1.09375,0.640625,0.125
1696246871901,0.41259766,0.097595215,-0.8418579,-1.453125,0.546875,0.234375
1696246871940,0.39892578,0.090270996,-0.81573486,-1.9375,-0.375,0.984375
1696246871982,0.41235352,0.097839355,-0.83843994,-0.4375,-5.953125,1.328125
1696246872023,0.43701172,0.093933105,-0.8574829,0.53125,-6.890625,1.109375
1696246872060,0.46118164,0.109802246,-0.87286377,0.953125,-7.25,0.5625
1696246872102,0.4633789,0.10736084,-0.8760376,0.28125,-4.921875,0.359375
1696246872144,0.45654297,0.105407715,-0.8591919,0.0,-3.265625,0.15625
1696246872182,0.44970703,0.10467529,-0.83673096,-0.171875,-2.09375,0.328125
1696246872223,0.44555664,0.10101318,-0.8311157,0.0625,-1.671875,0.140625
1696246872262,0.44873047,0.10369873,-0.82403564,-0.671875,-1.4375,-0.109375
1696246872301,0.4501953,0.10101318,-0.82598877,-0.75,-0.40625,-0.015625
1696246872342,0.44360352,0.10028076,-0.8284302,-0.9375,-0.15625,-0.109375
1696246872386,0.45751953,0.105163574,-0.8464966,-0.9375,-0.5,-0.1875
1696246872422,0.4567871,0.101745605,-0.85650635,0.25,-0.921875,0.125
1696246872464,0.45458984,0.09686279,-0.8652954,1.671875,-0.984375,0.59375
1696246872548,0.4567871,0.1161499,-0.83062744,3.09375,-1.171875,0.796875
1696246872553,0.4482422,0.10296631,-0.83966064,1.953125,-1.40625,0.359375
1696246872560,0.46240234,0.109069824,-0.83551025,1.234375,-0.53125,0.15625
1696246872624,0.44628906,0.11663818,-0.815979,1.09375,-1.359375,-0.046875
1696246872663,0.4736328,0.11663818,-0.8533325,-0.046875,0.46875,0.15625
1696246872681,0.49316406,0.1305542,-0.95147705,1.21875,3.953125,1.109375
1696246872744,0.4555664,0.11639404,-0.8616333,-2.546875,5.484375,-0.421875
1696246872783,0.42749023,0.08660889,-0.8440552,-1.96875,9.546875,-0.75
1696246872801,0.4177246,0.09661865,-0.8557739,0.296875,6.03125,-0.25
1696246872842,0.35717773,0.09710693,-0.7283325,0.21875,3.21875,0.828125
1696246872884,0.38378906,0.11468506,-0.7749634,-1.484375,1.5625,-0.34375
1696246872924,0.37304688,0.090270996,-0.80059814,-3.125,0.734375,-0.46875
1696246872964,0.4116211,0.10247803,-0.8599243,-2.203125,-2.71875,-0.734375
1696246873002,0.4309082,0.105163574,-0.89727783,-0.984375,-4.109375,-0.40625
1696246873041,0.46606445,0.11004639,-0.9351196,0.765625,-3.859375,-0.28125
1696246873083,0.45117188,0.10345459,-0.89630127,1.921875,-3.484375,0.375
1696246873123,0.4423828,0.105651855,-0.8735962,2.28125,-1.1875,0.6875
1696246873185,0.43432617,0.11004639,-0.8362427,2.890625,0.328125,1.359375
1696246873201,0.44091797,0.12176514,-0.85113525,2.328125,1.765625,0.75
1696246873266,0.39697266,0.11175537,-0.77960205,1.625,0.984375,0.265625
1696246873280,0.38916016,0.10467529,-0.7888794,-4.09375,1.09375,-1.15625
1696246873323,0.44213867,0.10418701,-0.8670044,-4.390625,0.90625,-1.828125
1696246873362,0.40185547,0.08538818,-0.79571533,-0.75,-0.78125,-0.1875
1696246873402,0.38256836,0.09954834,-0.78741455,0.734375,-0.34375,0.90625
1696246873441,0.4074707,0.093688965,-0.80181885,0.15625,-0.28125,0.6875
1696246873482,0.41992188,0.101989746,-0.8604126,0.125,-0.765625,0.28125
1696246873524,0.44604492,0.11883545,-0.8713989,-0.09375,-1.234375,0.15625
1696246873581,0.4399414,0.10882568,-0.87701416,0.125,-1.5,0.15625
1696246873622,0.44506836,0.11566162,-0.8809204,0.671875,-0.84375,0.28125
1696246873641,0.42651367,0.10760498,-0.85284424,1.15625,-0.84375,0.671875
1696246873683,0.42041016,0.11444092,-0.8374634,1.171875,-0.046875,0.796875
1696246873724,0.42041016,0.11932373,-0.84332275,1.8125,0.328125,1.21875
1696246873782,0.43554688,0.12982178,-0.9143677,2.015625,2.734375,0.96875
1696246873865,0.42382812,0.12030029,-0.88287354,2.515625,3.234375,1.453125
1696246873870,0.44140625,0.14227295,-0.87506104,2.625,1.796875,1.265625
1696246873874,0.4260254,0.120788574,-0.8933716,0.0625,1.5625,-0.203125
1696246873902,0.37158203,0.101257324,-0.7661743,-0.5625,-0.34375,0.359375
1696246873943,0.36035156,0.1149292,-0.7498169,-1.15625,-1.203125,-0.375
1696246873981,0.36767578,0.113220215,-0.77227783,-3.875,-2.203125,-0.515625
1696246874022,0.39746094,0.10662842,-0.84454346,-5.21875,-4.0625,-0.671875
1696246874063,0.43359375,0.11517334,-0.8904419,-3.421875,-5.046875,-0.203125
1696246874102,0.46264648,0.11956787,-0.91973877,-2.125,-6.09375,-0.46875
1696246874144,0.46826172,0.11639404,-0.90582275,-0.375,-4.09375,0.0625
1696246874184,0.44702148,0.113464355,-0.8760376,-0.0625,-2.171875,0.34375
1696246874222,0.42871094,0.101501465,-0.831604,-0.484375,-1.578125,0.03125
1696246874263,0.42163086,0.10638428,-0.8208618,-1.1875,-1.484375,-0.078125
1696246874302,0.42285156,0.097839355,-0.8110962,-0.78125,-1.25,-0.171875
1696246874342,0.43896484,0.1083374,-0.83673096,-1.9375,-0.59375,-0.234375
1696246874383,0.45288086,0.10345459,-0.8621216,-2.28125,-0.609375,-0.265625
1696246874422,0.4428711,0.10272217,-0.8591919,-0.5,-1.015625,0.140625
1696246874484,0.47265625,0.10467529,-0.9138794,2.25,-1.0,0.6875
1696246874503,0.45947266,0.10345459,-0.8845825,5.453125,0.125,1.078125
1696246874545,0.41992188,0.11029053,-0.7954712,5.578125,-2.34375,1.28125
1696246874583,0.47021484,0.11956787,-0.847229,3.390625,-0.140625,0.03125
1696246874624,0.4350586,0.1149292,-0.82891846,1.375,-1.6875,-0.375
1696246874663,0.47631836,0.12249756,-0.88604736,2.203125,4.875,0.5625
1696246874702,0.43115234,0.11981201,-0.8713989,2.9375,7.890625,1.171875
1696246874742,0.38989258,0.11859131,-0.78912354,3.109375,4.890625,1.703125
1696246874784,0.40234375,0.13861084,-0.80792236,1.625,5.90625,1.578125
1696246874822,0.3791504,0.12005615,-0.78326416,-1.203125,2.1875,0.015625
1696246874864,0.38012695,0.124694824,-0.78912354,-4.40625,-1.734375,-0.90625
1696246874901,0.39501953,0.12030029,-0.82647705,-4.484375,-4.40625,-1.0625
1696246874945,0.43066406,0.124694824,-0.8772583,-1.84375,-5.0,-0.78125
1696246874982,0.47509766,0.13519287,-0.9356079,-1.109375,-3.453125,-0.6875
1696246875023,0.4584961,0.12322998,-0.89727783,1.375,-1.5625,0.375
1696246875064,0.46069336,0.13128662,-0.91192627,3.3125,1.03125,1.265625
1696246875102,0.43652344,0.13201904,-0.84088135,4.359375,1.640625,1.34375
1696246875166,0.42382812,0.13494873,-0.8687134,1.21875,2.09375,1.0625
1696246875181,0.42260742,0.13763428,-0.78863525,-0.984375,3.703125,0.15625
1696246875202,0.3786621,0.11834717,-0.7974243,-0.640625,1.140625,0.421875
1696246875245,0.38012695,0.11663818,-0.80426025,-0.6875,-0.09375,-0.09375
1696246875281,0.39672852,0.13763428,-0.83673096,0.0625,-0.65625,0.109375
1696246875323,0.4086914,0.13397217,-0.833313,-1.78125,-2.40625,-0.359375
1696246875362,0.43066406,0.12908936,-0.87701416,-0.921875,-2.359375,-0.203125
1696246875402,0.4267578,0.14105225,-0.8838501,-0.484375,-1.34375,-0.359375
1696246875444,0.43115234,0.13348389,-0.87335205,0.421875,-1.609375,-0.234375
1696246875482,0.43945312,0.13470459,-0.878479,0.9375,-0.671875,0.1875
1696246875545,0.43041992,0.14715576,-0.8687134,1.703125,1.171875,0.609375
1696246875583,0.43164062,0.14447021,-0.85772705,1.0,2.171875,0.5625
1696246875600,0.4248047,0.14447021,-0.86798096,0.453125,1.984375,-0.046875
1696246875642,0.3857422,0.13079834,-0.7822876,1.359375,1.9375,1.046875
1696246875685,0.3828125,0.12835693,-0.7908325,-0.84375,1.453125,0.734375
1696246875721,0.38110352,0.13616943,-0.7905884,-1.625,0.625,-0.046875
1696246875762,0.37719727,0.13201904,-0.800354,-3.109375,-0.421875,-0.8125
1696246875803,0.38232422,0.12445068,-0.81817627,-4.734375,-1.15625,-0.890625
1696246875849,0.40698242,0.117370605,-0.8701782,-4.0,-4.140625,-0.53125
1696246875882,0.4326172,0.12908936,-0.89312744,-3.390625,-6.234375,-0.8125
1696246875922,0.4519043,0.11859131,-0.9060669,-2.390625,-6.5,-0.65625
1696246875963,0.44848633,0.12298584,-0.88116455,-0.515625,-5.171875,-0.046875
1696246876003,0.44262695,0.11395264,-0.8591919,-0.234375,-3.09375,0.265625
1696246876043,0.4284668,0.11175537,-0.81622314,-0.203125,-1.828125,0.296875
1696246876083,0.43237305,0.11199951,-0.8220825,-1.40625,-1.21875,-0.21875
1696246876122,0.42871094,0.1071167,-0.8323364,-1.375,-0.75,-0.1875
1696246876164,0.4350586,0.10736084,-0.83795166,-2.25,-0.453125,-0.265625
1696246876202,0.4387207,0.10223389,-0.8501587,-1.984375,-0.203125,-0.1875
1696246876243,0.44091797,0.105163574,-0.86676025,-1.265625,-0.546875,-0.015625
1696246876282,0.44067383,0.09979248,-0.85943604,-0.484375,-1.234375,0.046875
1696246876345,0.4350586,0.10296631,-0.86016846,1.46875,-1.953125,0.5625
1696246876381,0.45361328,0.11517334,-0.88482666,4.28125,-0.546875,0.875
1696246876401,0.43969727,0.10467529,-0.8442993,7.234375,-2.265625,1.359375
1696246876445,0.51708984,0.13763428,-0.9168091,5.6875,1.0,0.515625
1696246876504,0.4284668,0.121032715,-0.8386841,-1.34375,0.59375,-1.125
1696246876508,0.4284668,0.13079834,-0.76275635,1.640625,5.609375,0.65625
1696246876542,0.3701172,0.1083374,-0.7686157,1.40625,6.109375,1.484375
1696246876583,0.3779297,0.117370605,-0.78375244,-0.5,3.265625,0.59375
1696246876621,0.3701172,0.109558105,-0.7661743,-3.265625,1.71875,-0.40625
1696246876662,0.3786621,0.10687256,-0.7803345,-4.953125,0.15625,-1.265625
1696246876702,0.4116211,0.10418701,-0.86383057,-6.46875,-1.3125,-1.109375
1696246876741,0.4375,0.10467529,-0.9307251,-2.546875,-1.953125,-0.484375
1696246876784,0.4489746,0.11566162,-0.9414673,0.8125,-3.796875,0.25
1696246876823,0.45361328,0.11663818,-0.92681885,1.609375,-3.21875,0.15625
1696246876864,0.4321289,0.11053467,-0.8464966,2.9375,-3.15625,0.703125
1696246876904,0.42773438,0.11248779,-0.847229,3.421875,-1.671875,0.90625
1696246876943,0.42578125,0.113708496,-0.8640747,3.3125,0.609375,0.71875
1696246876984,0.44555664,0.12615967,-0.8286743,4.34375,1.015625,0.765625
1696246877022,0.43945312,0.13275146,-0.8887329,1.84375,7.96875,1.21875
1696246877063,0.39331055,0.11785889,-0.8032837,2.421875,4.34375,1.703125
1696246877104,0.3708496,0.12884521,-0.7781372,-0.640625,4.171875,0.671875
1696246877144,0.38061523,0.13006592,-0.8386841,-1.625,1.640625,-0.15625
1696246877183,0.37353516,0.12005615,-0.79034424,-3.515625,-0.703125,-0.375
1696246877222,0.36767578,0.11199951,-0.77789307,-7.0625,-3.1875,-0.953125
1696246877263,0.3918457,0.11102295,-0.85723877,-7.046875,-3.96875,-0.734375
1696246877303,0.42285156,0.11663818,-0.894104,-3.3125,-8.015625,-0.78125
1696246877342,0.46166992,0.113220215,-0.9351196,-1.75,-8.25,-0.53125
1696246877382,0.47094727,0.112976074,-0.91607666,-0.109375,-7.15625,-0.34375
1696246877423,0.45336914,0.11029053,-0.85723877,0.765625,-3.46875,0.390625
1696246877461,0.43920898,0.10223389,-0.8340454,0.296875,-1.546875,0.4375
1696246877504,0.4326172,0.105407715,-0.8286743,0.9375,-0.640625,0.390625
1696246877542,0.4416504,0.10687256,-0.8579712,2.328125,0.15625,0.328125
1696246877582,0.45532227,0.117126465,-0.880188,4.3125,0.9375,0.796875
1696246877624,0.48510742,0.12884521,-0.9048462,-0.203125,2.171875,-1.765625
1696246877662,0.45776367,0.10028076,-0.892395,-0.84375,3.96875,-0.796875
1696246877703,0.41333008,0.105407715,-0.7966919,0.140625,5.078125,0.609375
1696246877742,0.37451172,0.09588623,-0.7888794,-0.21875,3.71875,0.796875
1696246877785,0.37670898,0.09979248,-0.7666626,-1.046875,1.015625,0.171875
1696246877802,0.3786621,0.093688965,-0.77471924,-2.34375,0.5625,-0.140625
1696246877865,0.39379883,0.10614014,-0.8062134,-3.546875,0.578125,-0.1875
1696246877942,0.41455078,0.10003662,-0.8604126,-2.625,-1.671875,0.375
1696246877946,0.42822266,0.10687256,-0.9006958,-0.90625,-4.59375,0.28125
1696246877961,0.44384766,0.11004639,-0.91119385,0.1875,-6.0625,0.125
1696246878002,0.46069336,0.10247803,-0.9043579,0.921875,-5.984375,0.1875
1696246878065,0.44311523,0.10394287,-0.85650635,1.40625,-4.3125,0.578125
1696246878080,0.43408203,0.101745605,-0.8179321,1.03125,-2.703125,0.328125
1696246878122,0.4326172,0.10614014,-0.8213501,-0.46875,-1.6875,0.109375
1696246878185,0.43725586,0.10491943,-0.8291626,-0.671875,-0.890625,-0.0625
1696246878201,0.44262695,0.101745605,-0.83966064,-0.46875,-0.453125,-0.078125
1696246878241,0.4501953,0.11126709,-0.8616333,-0.046875,-0.578125,0.140625
1696246878283,0.4465332,0.10858154,-0.8621216,0.3125,-0.75,0.265625
1696246878321,0.44384766,0.10418701,-0.8440552,0.34375,-0.84375,0.40625
1696246878364,0.43823242,0.10369873,-0.8377075,0.0,-0.84375,0.1875
1696246878402,0.43481445,0.101501465,-0.82403564,-0.3125,-0.984375,0.171875
1696246878442,0.44213867,0.1005249,-0.83184814,-0.453125,-1.09375,-0.109375
1696246878482,0.44091797,0.105407715,-0.8267212,0.46875,-1.171875,0.328125
1696246878544,0.45092773,0.10491943,-0.83966064,0.1875,-0.671875,0.171875
1696246878562,0.4333496,0.10418701,-0.82037354,1.921875,-0.375,0.859375
1696246878603,0.4404297,0.10321045,-0.82696533,2.34375,-0.734375,0.984375
1696246878645,0.44018555,0.11175537,-0.84942627,1.84375,-1.125,0.359375
1696246878686,0.4428711,0.12249756,-0.86553955,1.015625,-2.203125,0.0625
1696246878723,0.42578125,0.11102295,-0.8154907,1.3125,-2.8125,0.203125
1696246878763,0.46069336,0.11859131,-0.8569946,0.015625,-3.796875,-0.40625
1696246878823,0.44628906,0.11639404,-0.80181885,0.609375,-3.25,-0.171875
1696246878841,0.45532227,0.117126465,-0.8279419,0.546875,-3.625,-0.21875
1696246878882,0.4494629,0.12054443,-0.819397,1.859375,-3.28125,0.328125
1696246878922,0.4711914,0.12005615,-0.8196411,2.28125,-3.765625,0.265625
1696246878962,0.4868164,0.12640381,-0.84088135,0.65625,-3.046875,-0.203125
1696246879025,0.47827148,0.1305542,-0.84210205,-0.109375,-1.375,-0.09375
1696246879042,0.49243164,0.13787842,-0.8374634,-1.703125,-0.234375,-0.5
1696246879102,0.45922852,0.117126465,-0.81427,-1.609375,0.6875,-0.0625
1696246879122,0.47607422,0.11395264,-0.83380127,-2.125,-0.1875,-0.296875
1696246879140,0.45288086,0.11444092,-0.79888916,-1.671875,-0.078125,-0.09375
1696246879181,0.4699707,0.11273193,-0.8242798,-2.03125,0.0625,-0.34375
1696246879222,0.4699707,0.11224365,-0.81988525,-1.296875,-0.984375,-0.296875
1696246879262,0.46655273,0.109069824,-0.8267212,-1.34375,-1.171875,-0.25
1696246879303,0.46777344,0.10345459,-0.819397,-1.046875,-1.265625,-0.125
1696246879342,0.4675293,0.10467529,-0.82403564,-0.3125,-1.265625,0.109375
1696246879385,0.47045898,0.10491943,-0.8179321,0.171875,-1.125,0.28125
1696246879425,0.4675293,0.10784912,-0.8225708,0.265625,-0.890625,0.078125
1696246879460,0.4724121,0.101989746,-0.8123169,0.875,-1.0,0.234375
