,timestamp,accel_x,accel_y,accel_z,gyro_x,gyro_y,gyro_z,ind
0,1696246633712,0.5969238,0.0048217773,0.7411499,-0.671875,1.0,1.234375,0
1,1696246633752,0.68359375,0.090026855,0.80267334,-4.46875,11.015625,-0.015625,1
2,1696246633792,0.57177734,-0.026184082,0.87005615,0.65625,5.015625,3.8125,2
3,1696246633832,0.62890625,-0.04864502,0.8734741,-5.0,4.703125,-1.3125,3
4,1696246633872,0.65844727,-0.015930176,0.85980225,0.609375,-1.328125,-1.484375,4
5,1696246633912,0.6179199,0.0004272461,0.7807007,-1.515625,-3.296875,-1.125,5
6,1696246633952,0.6098633,0.02557373,0.76678467,-0.078125,-4.484375,-0.625,6
7,1696246633992,0.65063477,0.004333496,0.8151245,-0.390625,-1.625,-0.921875,7
8,1696246634032,0.6525879,0.030700684,0.809021,1.265625,-1.515625,-0.265625,8
9,1696246634072,0.6166992,0.008239746,0.7987671,1.671875,-0.25,0.25,9
10,1696246634112,0.62280273,0.0119018555,0.8095093,2.1875,1.65625,1.296875,10
11,1696246634152,0.6113281,0.015319824,0.81121826,3.96875,3.203125,2.15625,11
12,1696246634192,0.5786133,0.030700684,0.7020874,3.484375,7.484375,2.53125,12
13,1696246634232,0.63500977,0.05657959,0.9154663,7.03125,15.171875,5.125,13
14,1696246634272,0.6430664,-0.09185791,0.8534546,-1.46875,11.828125,2.703125,14
15,1696246634312,0.673584,0.020446777,0.8456421,-0.171875,5.34375,-3.734375,15
16,1696246634352,0.66552734,0.039733887,0.7538452,4.78125,-0.046875,-2.75,16
17,1696246634392,0.71777344,-0.023986816,0.696228,2.4375,-5.328125,-5.171875,17
18,1696246634432,0.73706055,-0.08502197,0.7665405,1.828125,-4.140625,-4.953125,18
19,1696246634472,0.6706543,-0.06427002,0.7055054,-3.03125,-0.234375,-1.015625,19
20,1696246634512,0.68115234,0.01751709,0.7665405,-3.546875,-0.453125,2.28125,20
21,1696246634552,0.65625,-0.027404785,0.8060913,-2.453125,-2.15625,2.046875,21
22,1696246634592,0.62353516,-0.031066895,0.78704834,-3.671875,-0.890625,3.875,22
23,1696246634632,0.66552734,0.047302246,0.8300171,-0.8125,-1.953125,3.34375,23
24,1696246634672,0.64331055,0.019470215,0.8475952,-0.34375,-3.6875,2.234375,24
25,1696246634712,0.5966797,-0.030090332,0.8185425,-0.9375,0.1875,2.3125,25
26,1696246634752,0.6828613,0.027770996,0.6744995,-3.671875,6.3125,1.609375,26
27,1696246634792,0.68603516,-0.024230957,0.91156006,-0.75,2.609375,4.6875,27
28,1696246634832,0.65234375,0.002380371,0.7172241,-5.703125,8.890625,-2.34375,28
29,1696246634872,0.6899414,0.014343262,0.7284546,-4.0625,3.40625,-3.28125,29
30,1696246634912,0.6464844,0.01361084,0.80096436,-4.890625,-1.140625,-1.109375,30
31,1696246634952,0.6660156,0.003112793,0.7538452,-9.109375,-4.015625,-3.78125,31
32,1696246634992,0.7199707,-0.020324707,0.7472534,-5.328125,-3.859375,-4.390625,32
33,1696246635032,0.6748047,0.022888184,0.7814331,-5.109375,0.84375,-4.015625,33
34,1696246635072,0.6958008,0.03753662,0.76068115,-6.0,2.390625,-3.34375,34
35,1696246635112,0.75390625,0.05316162,0.79437256,-3.671875,4.953125,-2.65625,35
36,1696246635152,0.68896484,0.039489746,0.7633667,-4.421875,5.59375,-0.9375,36
37,1696246635192,0.6442871,0.07244873,0.78045654,-3.90625,4.4375,-0.4375,37
38,1696246635232,0.69018555,0.06048584,0.69525146,1.125,-4.171875,-2.359375,38
39,1696246635272,0.6464844,0.06585693,0.74823,10.296875,-8.375,-0.5,39
40,1696246635312,0.7426758,0.04901123,0.6366577,11.671875,0.4375,2.484375,40
41,1696246635352,0.67333984,0.021911621,0.8139038,14.296875,-11.34375,6.78125,41
42,1696246635392,0.6574707,-0.051330566,0.8395386,1.84375,-8.5625,5.09375,42
43,1696246635432,0.63012695,-0.07647705,0.7584839,0.234375,-3.546875,1.65625,43
44,1696246635472,0.69677734,0.018249512,0.82611084,0.828125,-1.203125,2.640625,44
45,1696246635512,0.62524414,0.022155762,0.8187866,-0.6875,-0.4375,6.40625,45
46,1696246635552,0.6220703,0.010192871,0.81073,-1.421875,0.09375,3.515625,46
47,1696246635592,0.6801758,0.04534912,0.8048706,-0.890625,-0.015625,0.109375,47
48,1696246635632,0.66308594,0.04852295,0.6798706,0.34375,0.125,-0.578125,48
49,1696246635672,0.76049805,0.14569092,1.0116577,2.171875,14.234375,0.296875,49
50,1696246635712,0.5720215,-0.057434082,0.79486084,-4.015625,1.59375,3.609375,50
51,1696246635752,0.6640625,0.018493652,0.85028076,-4.46875,1.1875,-4.359375,51
52,1696246635792,0.71533203,-0.004699707,0.7243042,0.265625,-3.546875,-0.375,52
53,1696246635832,0.6569824,0.011413574,0.680603,-0.125,-4.65625,-1.5,53
54,1696246635872,0.6621094,0.027770996,0.7802124,1.5,-4.546875,-3.046875,54
55,1696246635912,0.68066406,0.038513184,0.77679443,0.265625,-2.25,0.515625,55
56,1696246635952,0.673584,0.036315918,0.7855835,2.0,-1.09375,1.125,56
57,1696246635992,0.67529297,0.035095215,0.8161011,0.90625,-0.625,2.515625,57
58,1696246636032,0.5998535,0.024353027,0.7838745,-0.640625,1.171875,3.328125,58
59,1696246636072,0.6401367,0.058532715,0.729187,2.203125,1.6875,1.84375,59
60,1696246636112,0.7285156,0.09539795,0.9032593,3.46875,12.328125,2.921875,60
61,1696246636152,0.56811523,-0.006652832,0.6259155,0.25,-3.46875,0.390625,61
62,1696246636192,0.69262695,0.026794434,0.8085327,-2.3125,1.828125,-4.359375,62
63,1696246636232,0.6894531,0.030456543,0.730896,0.28125,-2.171875,0.046875,63
64,1696246636272,0.6713867,-0.020324707,0.75994873,0.96875,-5.140625,-0.84375,64
65,1696246636312,0.64331055,0.02557373,0.74676514,1.625,-0.890625,-3.9375,65
66,1696246636352,0.7092285,0.031921387,0.7772827,0.75,0.328125,1.078125,66
67,1696246636392,0.7116699,0.031433105,0.79486084,2.203125,-0.3125,3.203125,67
68,1696246636432,0.64453125,0.0028686523,0.7682495,0.0625,0.53125,3.40625,68
69,1696246636472,0.6520996,0.04144287,0.7687378,-0.515625,3.15625,1.890625,69
70,1696246636512,0.689209,0.036071777,0.7284546,-0.265625,4.125,2.03125,70
71,1696246636552,0.80029297,0.022888184,0.72210693,-0.90625,25.921875,1.515625,71
72,1696246636592,0.59643555,-0.00079345703,0.7579956,-6.984375,7.234375,1.3125,72
73,1696246636632,0.6628418,0.012390137,0.80145264,-4.4375,-2.984375,-3.0625,73
74,1696246636672,0.69262695,0.01751709,0.78045654,-8.84375,-8.265625,-4.734375,74
75,1696246636712,0.7102051,-0.003967285,0.7379761,-10.53125,-12.453125,-2.484375,75
76,1696246636752,0.70825195,-0.0005493164,0.7321167,-7.59375,-3.234375,-3.03125,76
77,1696246636792,0.6867676,0.03729248,0.6832886,-2.890625,0.765625,-2.71875,77
78,1696246636832,0.6726074,0.05999756,0.7362671,0.171875,4.171875,-0.234375,78
79,1696246636872,0.7319336,0.0602417,0.76116943,1.3125,5.125,1.875,79
80,1696246636912,0.689209,0.0602417,0.80023193,2.28125,2.0625,2.75,80
81,1696246636952,0.6940918,0.07244873,0.75164795,3.828125,-1.453125,-0.65625,81
82,1696246636992,0.7116699,0.047546387,0.7367554,3.875,-1.8125,0.734375,82
83,1696246637032,0.67089844,0.026306152,0.72332764,5.609375,1.46875,0.734375,83
84,1696246637072,0.7331543,0.028015137,0.66326904,7.75,-0.84375,1.796875,84
85,1696246637112,0.68188477,0.043395996,0.82196045,8.453125,-6.15625,3.90625,85
86,1696246637152,0.6533203,-0.0010375977,0.7279663,1.21875,-5.265625,3.59375,86
87,1696246637192,0.7480469,0.034851074,0.82318115,-0.65625,-1.484375,0.765625,87
88,1696246637232,0.6364746,0.019714355,0.77874756,1.234375,-2.953125,3.125,88
89,1696246637272,0.6689453,0.051696777,0.72943115,-2.625,-3.828125,-1.484375,89
90,1696246637312,0.68188477,0.008972168,0.81243896,-2.953125,-0.53125,-1.234375,90
91,1696246637352,0.71240234,0.027282715,0.70062256,-4.03125,2.921875,-2.65625,91
92,1696246637392,0.68115234,0.062683105,0.7211304,3.078125,6.53125,2.265625,92
93,1696246637432,0.71240234,0.030944824,0.807312,-1.078125,8.328125,0.921875,93
94,1696246637472,0.7546387,0.028503418,0.8031616,-4.125,2.203125,-2.390625,94
95,1696246637512,0.63500977,0.018981934,0.7921753,-0.8125,-2.015625,-0.671875,95
96,1696246637552,0.64697266,0.054382324,0.7418823,-4.5,-7.15625,-2.1875,96
97,1696246637592,0.7429199,-0.0032348633,0.69744873,-0.375,-7.796875,-0.875,97
98,1696246637632,0.6496582,0.002380371,0.67840576,2.5625,-6.90625,-1.125,98
99,1696246637672,0.6958008,0.045837402,0.72943115,0.703125,-0.765625,-1.453125,99
100,1696246637712,0.7199707,0.039489746,0.8151245,3.515625,2.578125,5.109375,100
101,1696246637752,0.6828613,0.05267334,0.7706909,1.359375,1.1875,6.0625,101
102,1696246637792,0.6953125,0.028259277,0.7909546,3.640625,-0.984375,4.15625,102
103,1696246637832,0.62939453,0.027282715,0.7518921,2.390625,0.390625,3.53125,103
104,1696246637872,0.6911621,0.06048584,0.791687,0.171875,0.28125,0.296875,104
105,1696246637912,0.66259766,0.009460449,0.6039429,4.75,11.171875,1.65625,105
106,1696246637952,0.75219727,0.08074951,0.9035034,4.75,9.765625,2.375,106
107,1696246637992,0.63134766,0.024353027,0.7653198,-7.171875,2.6875,-1.8125,107
108,1696246638032,0.70458984,-0.07086182,0.78582764,-10.3125,-2.609375,-2.53125,108
109,1696246638072,0.67407227,0.043151855,0.7682495,-10.921875,-9.5625,-3.546875,109
110,1696246638112,0.7849121,0.0038452148,0.67352295,-6.1875,-7.15625,-2.0625,110
111,1696246638152,0.6699219,0.045837402,0.66448975,0.46875,-7.46875,-1.640625,111
112,1696246638192,0.6713867,0.05267334,0.7206421,2.53125,-0.765625,-1.6875,112
113,1696246638232,0.74658203,0.06951904,0.76312256,4.234375,2.625,3.421875,113
114,1696246638272,0.68725586,0.0680542,0.78778076,6.40625,0.984375,4.40625,114
115,1696246638312,0.6635742,0.05657959,0.8222046,8.359375,2.5,5.078125,115
116,1696246638352,0.69189453,0.028747559,0.7094116,8.828125,6.125,3.640625,116
117,1696246638392,0.71362305,0.032409668,0.7477417,4.953125,3.03125,0.734375,117
118,1696246638432,0.7128906,0.014831543,0.7562866,-0.3125,1.46875,0.15625,118
119,1696246638472,0.7553711,-0.0010375977,0.727478,3.828125,14.125,2.390625,119
120,1696246638512,0.64819336,0.085632324,0.7477417,-1.9375,4.25,-0.75,120
121,1696246638552,0.6916504,0.019226074,0.7892456,-7.328125,-1.65625,-2.28125,121
122,1696246638592,0.71362305,-0.070617676,0.77215576,-15.125,-9.4375,-1.328125,122
123,1696246638632,0.7282715,0.026306152,0.6913452,-15.296875,-8.984375,-4.453125,123
124,1696246638672,0.70458984,0.0524292,0.7238159,-5.671875,-8.9375,-3.40625,124
125,1696246638712,0.67529297,0.039245605,0.6637573,-3.328125,-4.0,-2.578125,125
126,1696246638752,0.6538086,0.06048584,0.6847534,0.09375,1.671875,-2.328125,126
127,1696246638792,0.75756836,0.07562256,0.744812,4.078125,3.640625,0.234375,127
128,1696246638832,0.7270508,0.066833496,0.8048706,6.03125,1.5,3.984375,128
129,1696246638872,0.6906738,0.055358887,0.7904663,5.8125,-0.75,1.875,129
130,1696246638912,0.6945801,0.055358887,0.7682495,3.609375,-2.140625,0.875,130
131,1696246638952,0.69873047,0.01751709,0.762146,2.140625,-1.875,0.796875,131
132,1696246638992,0.69433594,0.028747559,0.72991943,-0.890625,-2.640625,-2.515625,132
133,1696246639032,0.71972656,0.042419434,0.74432373,-1.78125,-0.578125,-2.9375,133
134,1696246639072,0.68530273,0.012634277,0.6937866,2.546875,0.84375,0.6875,134
135,1696246639112,0.7207031,0.07147217,0.7357788,4.59375,-1.296875,2.171875,135
136,1696246639152,0.68603516,0.0014038086,0.8016968,2.078125,-1.96875,5.171875,136
137,1696246639192,0.6689453,0.018493652,0.6491089,2.1875,3.859375,1.703125,137
138,1696246639232,0.7109375,0.055847168,0.8356323,6.203125,3.109375,1.28125,138
139,1696246639272,0.63378906,0.01727295,0.75213623,0.921875,2.234375,0.765625,139
140,1696246639312,0.74316406,0.055603027,0.730896,1.59375,0.125,0.1875,140
141,1696246639352,0.7121582,0.016296387,0.7531128,0.390625,-1.078125,1.765625,141
142,1696246639392,0.7011719,0.046569824,0.7194214,-2.984375,1.515625,-0.828125,142
143,1696246639432,0.69799805,0.0446167,0.75579834,3.546875,2.96875,2.453125,143
144,1696246639472,0.828125,0.1473999,0.6564331,2.859375,9.90625,2.15625,144
145,1696246639512,0.7050781,-0.020324707,0.7929077,-5.015625,-2.78125,1.734375,145
146,1696246639552,0.6027832,-0.04864502,0.7680054,-6.703125,-3.46875,-2.125,146
147,1696246639592,0.7492676,0.039978027,0.74261475,-10.6875,-5.25,-5.265625,147
148,1696246639632,0.74658203,0.020202637,0.57684326,-6.234375,-6.171875,-2.3125,148
149,1696246639672,0.6970215,0.03289795,0.682312,-1.421875,-7.671875,-3.078125,149
150,1696246639712,0.6882324,0.06072998,0.66278076,-1.0,0.015625,-3.1875,150
151,1696246639752,0.79003906,0.07879639,0.74017334,2.671875,-0.265625,2.171875,151
152,1696246639792,0.72436523,0.03265381,0.8070679,7.078125,-1.28125,4.640625,152
153,1696246639832,0.67578125,0.04949951,0.7543335,3.40625,0.3125,3.8125,153
154,1696246639872,0.70874023,0.029724121,0.7694702,5.5,0.625,2.578125,154
155,1696246639912,0.6796875,0.02166748,0.7267456,2.1875,-0.03125,1.703125,155
156,1696246639952,0.7114258,0.017028809,0.7965698,2.984375,-0.390625,1.078125,156
157,1696246639992,0.66381836,0.0060424805,0.7106323,-3.53125,1.375,0.25,157
158,1696246640032,0.7573242,0.06756592,0.76239014,0.625,2.984375,-0.171875,158
159,1696246640072,0.6789551,0.022888184,0.6017456,6.265625,13.828125,3.734375,159
160,1696246640112,0.7548828,0.09613037,0.8390503,4.5625,4.90625,2.5625,160
161,1696246640152,0.6154785,0.0053100586,0.80340576,-2.875,-2.859375,-0.5625,161
162,1696246640192,0.66674805,-0.07330322,0.7880249,-8.578125,-6.046875,-2.25,162
163,1696246640232,0.814209,0.06585693,0.68499756,-10.3125,-6.6875,-3.875,163
164,1696246640272,0.7480469,0.010925293,0.64227295,-7.53125,-8.625,-1.5,164
165,1696246640312,0.6230469,0.029724121,0.6881714,-0.796875,-3.6875,-2.28125,165
166,1696246640352,0.74365234,0.09588623,0.68011475,-0.546875,1.578125,-1.609375,166
167,1696246640392,0.79052734,0.059509277,0.743103,2.765625,0.640625,2.78125,167
168,1696246640432,0.6989746,0.050964355,0.75457764,4.84375,-1.296875,4.34375,168
169,1696246640472,0.69506836,0.046081543,0.7680054,4.96875,0.3125,3.734375,169
170,1696246640512,0.6916504,0.038513184,0.75042725,2.578125,0.859375,1.59375,170
171,1696246640552,0.69384766,0.024841309,0.7453003,3.640625,-0.171875,0.125,171
172,1696246640592,0.71191406,0.0289917,0.76483154,1.859375,1.1875,0.9375,172
173,1696246640632,0.70825195,0.044128418,0.70355225,1.6875,1.46875,-0.921875,173
174,1696246640672,0.73657227,0.05267334,0.78118896,1.6875,2.484375,1.03125,174
175,1696246640712,0.68359375,0.005065918,0.7123413,1.265625,2.0625,1.9375,175
176,1696246640752,0.83203125,0.0758667,0.75579834,4.328125,-0.921875,2.140625,176
177,1696246640792,0.54174805,0.015075684,0.605896,1.90625,0.3125,8.15625,177
178,1696246640832,0.88964844,0.2008667,0.8331909,12.15625,7.453125,-2.59375,178
179,1696246640872,0.6044922,-0.013244629,0.71698,-1.0625,5.859375,3.578125,179
180,1696246640912,0.66625977,-0.03277588,0.69818115,-4.890625,-0.796875,-1.546875,180
181,1696246640952,0.72802734,-0.018127441,0.77557373,-8.96875,-6.75,-1.59375,181
182,1696246640992,0.68066406,-0.007873535,0.69818115,-14.90625,-8.828125,-2.890625,182
183,1696246641032,0.80029297,0.046569824,0.6559448,-12.765625,-9.40625,-5.84375,183
184,1696246641072,0.6791992,-0.0068969727,0.6984253,-2.96875,-4.46875,-3.609375,184
185,1696246641112,0.7023926,0.12713623,0.6571655,-2.328125,1.078125,-4.421875,185
186,1696246641152,0.77685547,0.07220459,0.7230835,1.71875,1.34375,0.0625,186
187,1696246641192,0.7199707,0.06439209,0.77093506,7.234375,0.921875,0.21875,187
188,1696246641232,0.71875,0.047546387,0.75213623,6.03125,0.359375,-0.703125,188
189,1696246641272,0.7314453,0.024841309,0.7506714,4.46875,-2.125,0.8125,189
190,1696246641312,0.73876953,0.0289917,0.7184448,2.828125,-3.078125,0.578125,190
191,1696246641352,0.6760254,0.028015137,0.7304077,-0.703125,-2.5,-0.015625,191
192,1696246641392,0.6809082,0.028503418,0.744812,-0.875,-2.40625,-1.0,192
193,1696246641432,0.7402344,0.043884277,0.6571655,1.4375,4.328125,-0.859375,193
194,1696246641472,0.73657227,0.06756592,0.7133179,5.125,1.375,4.265625,194
195,1696246641512,0.72802734,0.00579834,0.7609253,5.453125,-0.4375,4.953125,195
196,1696246641552,0.7175293,0.022644043,0.7235718,2.078125,-2.34375,1.96875,196
197,1696246641592,0.71777344,-0.0022583008,0.7394409,1.578125,0.65625,3.125,197
198,1696246641632,0.68530273,0.054138184,0.7411499,4.1875,-1.6875,2.578125,198
199,1696246641672,0.6989746,0.012145996,0.7614136,0.859375,-1.234375,2.515625,199
200,1696246641712,0.7182617,0.03729248,0.7140503,-2.140625,1.546875,-0.390625,200
201,1696246641752,0.7102051,0.04510498,0.7921753,-1.234375,-0.953125,1.125,201
202,1696246641792,0.6765137,0.0033569336,0.6625366,-7.65625,0.1875,-3.015625,202
203,1696246641832,0.83813477,0.05340576,0.7057495,-3.046875,-1.03125,-2.984375,203
204,1696246641872,0.6430664,0.015563965,0.7211304,0.5,0.734375,3.375,204
205,1696246641912,0.6965332,0.07196045,0.63690186,3.125,3.734375,0.359375,205
206,1696246641952,0.7714844,0.038024902,0.8707886,3.625,5.59375,4.234375,206
207,1696246641992,0.6442871,0.0033569336,0.6976929,-3.078125,0.4375,-3.984375,207
208,1696246642032,0.72924805,-0.016662598,0.7484741,-4.65625,-1.828125,-5.15625,208
209,1696246642072,0.7194824,0.06439209,0.6625366,-4.359375,0.359375,-2.65625,209
210,1696246642112,0.7561035,0.038269043,0.6754761,-4.609375,-6.296875,-1.125,210
211,1696246642152,0.7128906,0.034606934,0.6576538,0.515625,-2.75,-0.46875,211
212,1696246642192,0.7631836,0.09515381,0.71258545,4.140625,0.171875,0.46875,212
213,1696246642232,0.73999023,0.031188965,0.758728,5.015625,0.21875,4.359375,213
214,1696246642272,0.72094727,0.0065307617,0.73651123,4.609375,-0.046875,4.640625,214
215,1696246642312,0.7109375,0.027282715,0.7548218,4.640625,-1.6875,1.4375,215
216,1696246642352,0.7019043,0.007019043,0.7387085,4.46875,-0.53125,2.90625,216
217,1696246642392,0.7102051,0.038269043,0.7301636,1.859375,-0.84375,1.078125,217
218,1696246642432,0.7397461,0.04486084,0.699646,15.625,4.640625,3.265625,218
219,1696246642472,0.6657715,0.054382324,0.711853,-2.203125,0.890625,5.09375,219
220,1696246642512,0.8635254,0.07122803,0.72772217,3.765625,7.640625,-1.046875,220
221,1696246642552,0.74194336,-0.03765869,0.7609253,-2.890625,-1.9375,0.6875,221
222,1696246642592,0.56884766,-0.0647583,0.746521,-6.890625,-5.25,-4.40625,222
223,1696246642632,0.69384766,-0.01763916,0.7098999,-13.1875,-1.78125,-9.46875,223
224,1696246642672,0.81640625,0.036315918,0.6251831,-15.703125,-2.75,-4.265625,224
225,1696246642712,0.7180176,0.016052246,0.64227295,-10.609375,-3.59375,-1.5625,225
226,1696246642752,0.71606445,0.078063965,0.64056396,-5.859375,1.5625,-4.015625,226
227,1696246642792,0.7553711,0.09490967,0.7057495,0.109375,3.0625,-0.421875,227
228,1696246642832,0.76220703,0.05657959,0.7682495,4.09375,2.71875,2.203125,228
229,1696246642872,0.7546387,0.05633545,0.7807007,5.25,-2.0625,0.734375,229
230,1696246642912,0.7441406,0.00970459,0.7548218,1.1875,-1.546875,0.28125,230
231,1696246642952,0.73168945,0.022399902,0.7079468,-1.34375,-2.234375,-0.796875,231
232,1696246642992,0.7128906,0.016540527,0.7067261,-4.03125,-0.875,0.046875,232
233,1696246643032,0.69970703,0.031677246,0.701355,-5.28125,0.265625,-0.859375,233
234,1696246643072,0.7451172,0.040222168,0.6889038,-0.375,-1.78125,0.484375,234
235,1696246643112,0.73876953,0.070251465,0.59832764,2.578125,-0.328125,1.3125,235
236,1696246643152,0.7404785,0.066345215,0.7362671,8.25,-1.6875,4.4375,236
237,1696246643192,0.6833496,-0.016662598,0.75286865,2.40625,-5.765625,2.03125,237
238,1696246643232,0.7524414,0.001159668,0.7460327,0.875,-2.125,-0.78125,238
239,1696246643272,0.7380371,0.026062012,0.72161865,-3.34375,0.84375,0.15625,239
240,1696246643312,0.72924805,0.046325684,0.7177124,-4.1875,-2.15625,1.75,240
241,1696246643352,0.6999512,0.047302246,0.7548218,-1.0625,1.578125,2.5625,241
242,1696246643392,0.72680664,0.06365967,0.70477295,-3.328125,2.703125,-0.96875,242
243,1696246643432,0.7470703,0.04852295,0.75408936,-0.140625,0.421875,1.15625,243
244,1696246643472,0.70654297,0.03656006,0.7050171,-0.4375,2.90625,0.3125,244
245,1696246643512,0.7089844,0.054870605,0.7128296,5.34375,-0.15625,1.328125,245
246,1696246643552,0.67700195,0.058532715,0.6312866,5.484375,1.890625,4.140625,246
247,1696246643592,0.84155273,0.13421631,0.8197632,16.5,10.734375,4.921875,247
248,1696246643632,0.6791992,-0.058898926,0.80096436,0.34375,-5.25,3.734375,248
249,1696246643672,0.5891113,0.010437012,0.6976929,-1.625,2.171875,-5.484375,249
250,1696246643712,0.8383789,0.051696777,0.6976929,-1.28125,3.359375,-2.453125,250
251,1696246643752,0.6843262,0.03314209,0.6959839,-6.890625,-6.0,0.078125,251
252,1696246643792,0.7258301,0.014099121,0.60931396,-6.578125,1.671875,-6.171875,252
253,1696246643832,0.78027344,0.09954834,0.6803589,-2.75,-0.3125,-2.453125,253
254,1696246643872,0.7546387,0.054870605,0.68133545,1.046875,0.765625,2.375,254
255,1696246643912,0.7854004,0.03778076,0.73236084,3.28125,0.234375,0.9375,255
256,1696246643952,0.7468262,0.0036010742,0.7313843,4.40625,-1.140625,3.3125,256
257,1696246643992,0.7512207,0.038269043,0.6762085,2.828125,0.984375,0.5625,257
258,1696246644032,0.7548828,0.03289795,0.729187,4.484375,-1.65625,2.625,258
259,1696246644072,0.6826172,0.008728027,0.6774292,0.96875,-0.046875,1.171875,259
260,1696246644112,0.7402344,0.0602417,0.7362671,0.796875,-3.984375,1.03125,260
261,1696246644152,0.689209,0.015319824,0.67303467,0.3125,-1.203125,2.625,261
262,1696246644192,0.8156738,0.085876465,0.6911011,2.5625,-0.921875,1.234375,262
263,1696246644232,0.71118164,0.014099121,0.73651123,5.796875,5.296875,5.65625,263
264,1696246644272,0.65600586,0.010192871,0.7223511,2.109375,-0.6875,-1.859375,264
265,1696246644312,0.71972656,0.0065307617,0.72332764,-1.015625,0.1875,-2.359375,265
266,1696246644352,0.7546387,0.0060424805,0.7316284,-3.515625,2.5625,-3.09375,266
267,1696246644392,0.69311523,0.020935059,0.71209717,-7.703125,-4.75,-3.953125,267
268,1696246644432,0.6867676,-0.0049438477,0.6732788,-13.609375,-4.1875,-2.890625,268
269,1696246644472,0.7631836,0.07244873,0.619812,-12.359375,1.578125,-6.171875,269
270,1696246644512,0.7766113,0.08050537,0.68426514,-1.65625,2.03125,-2.515625,270
271,1696246644552,0.7402344,0.032165527,0.75042725,3.015625,1.40625,-0.015625,271
272,1696246644592,0.7524414,0.0211792,0.7352905,0.96875,1.0,0.109375,272
273,1696246644632,0.77905273,0.03656006,0.7116089,-0.53125,0.0625,0.375,273
274,1696246644672,0.73461914,0.029724121,0.7128296,-1.40625,-1.140625,1.171875,274
275,1696246644712,0.7011719,0.030456543,0.70062256,-5.859375,-1.125,0.3125,275
276,1696246644752,0.7763672,0.061950684,0.6720581,-1.984375,-2.375,-1.140625,276
277,1696246644792,0.79052734,0.06048584,0.607605,4.046875,1.734375,0.28125,277
278,1696246644832,0.70874023,0.049987793,0.67840576,7.875,-2.75,3.5625,278
279,1696246644872,0.7192383,0.012390137,0.7160034,2.71875,-1.3125,1.34375,279
280,1696246644912,0.7529297,0.013122559,0.71502686,2.984375,-3.265625,-0.28125,280
281,1696246644952,0.7163086,0.01751709,0.72039795,1.46875,-2.328125,0.671875,281
282,1696246644992,0.74438477,0.04534912,0.67840576,-1.046875,-1.34375,1.140625,282
283,1696246645032,0.74316406,0.039733887,0.7509155,2.265625,-1.78125,1.9375,283
284,1696246645072,0.7180176,0.028259277,0.6832886,-0.953125,1.5,1.03125,284
285,1696246645112,0.7380371,0.06341553,0.7103882,4.75,-0.984375,1.3125,285
286,1696246645152,0.7182617,0.014099121,0.7037964,2.203125,-1.203125,1.328125,286
287,1696246645192,0.75390625,0.0289917,0.68621826,1.078125,-1.046875,-1.171875,287
288,1696246645232,0.74438477,0.017028809,0.74993896,3.515625,-0.796875,2.3125,288
289,1696246645272,0.6994629,0.023864746,0.6713257,0.796875,0.328125,2.125,289
290,1696246645312,0.7648926,0.062683105,0.72283936,2.59375,-1.953125,1.203125,290
291,1696246645352,0.71972656,-0.016662598,0.6473999,2.9375,2.0,6.171875,291
292,1696246645392,0.73779297,0.042175293,0.8168335,3.78125,-0.171875,3.984375,292
293,1696246645432,0.6879883,0.022155762,0.7731323,2.390625,1.34375,-1.03125,293
294,1696246645472,0.6833496,0.013366699,0.68573,-1.078125,4.984375,-1.203125,294
295,1696246645512,0.75512695,0.028259277,0.6967163,-3.4375,0.15625,-2.390625,295
296,1696246645552,0.7297363,0.005554199,0.65618896,-6.359375,-4.890625,-2.125,296
297,1696246645592,0.74731445,0.008728027,0.65374756,-2.5625,-2.21875,-3.53125,297
298,1696246645632,0.7763672,0.038024902,0.7218628,0.03125,-0.78125,-2.453125,298
299,1696246645672,0.7668457,0.027038574,0.67181396,-0.890625,0.265625,1.0,299
300,1696246645712,0.7561035,0.030944824,0.73895264,2.140625,-0.921875,2.515625,300
301,1696246645752,0.7150879,0.0053100586,0.66326904,1.453125,-0.390625,1.859375,301
302,1696246645792,0.7404785,0.053894043,0.7289429,2.8125,-2.1875,1.171875,302
303,1696246645832,0.71777344,0.0079956055,0.6869507,2.921875,-0.046875,1.453125,303
304,1696246645872,0.78100586,0.034606934,0.5734253,20.59375,8.03125,0.796875,304
305,1696246645912,0.74365234,0.03704834,0.7731323,9.671875,0.484375,3.65625,305
306,1696246645952,0.5690918,-0.030578613,0.67352295,-4.96875,4.46875,-3.296875,306
307,1696246645992,0.876709,-0.016662598,0.7592163,0.40625,2.40625,-4.65625,307
308,1696246646032,0.76782227,-0.024963379,0.69818115,1.265625,-1.6875,1.421875,308
309,1696246646072,0.732666,0.046325684,0.6671753,0.640625,2.359375,2.375,309
310,1696246646112,0.7873535,0.019470215,0.7470093,-3.671875,4.015625,3.09375,310
311,1696246646152,0.7006836,0.0072631836,0.67352295,-3.15625,2.921875,-0.921875,311
312,1696246646192,0.7585449,-0.0012817383,0.6539917,-1.328125,0.0625,-1.125,312
313,1696246646232,0.76342773,-0.010559082,0.72039795,-2.734375,-2.984375,0.03125,313
314,1696246646272,0.72753906,0.022399902,0.6112671,-3.65625,-1.5,-1.34375,314
315,1696246646312,0.79589844,0.03265381,0.63739014,-4.984375,-0.359375,-1.5,315
316,1696246646352,0.78222656,0.0018920898,0.68011475,-1.75,-3.40625,-0.84375,316
317,1696246646392,0.77685547,0.0138549805,0.66741943,-1.40625,-1.34375,0.15625,317
318,1696246646432,0.7861328,0.041931152,0.68914795,0.515625,-2.859375,1.15625,318
319,1696246646472,0.7258301,0.02142334,0.69207764,1.109375,-2.828125,0.984375,319
320,1696246646512,0.71606445,0.028015137,0.680603,0.65625,-0.40625,0.515625,320
321,1696246646552,0.74243164,0.019470215,0.68426514,2.3125,-1.140625,0.1875,321
322,1696246646592,0.74853516,0.00091552734,0.7267456,1.078125,-0.8125,1.015625,322
323,1696246646632,0.7531738,0.0045776367,0.64471436,2.484375,1.890625,0.125,323
324,1696246646672,0.77734375,0.027526855,0.7374878,4.8125,-1.46875,3.203125,324
325,1696246646712,0.7158203,-0.04156494,0.6390991,-3.203125,0.21875,2.0,325
326,1696246646752,0.85717773,0.032165527,0.7008667,3.890625,2.390625,1.484375,326
327,1696246646792,0.75756836,0.03729248,0.7201538,1.140625,-1.4375,6.40625,327
328,1696246646832,0.73535156,0.025817871,0.68743896,-2.9375,0.25,-0.71875,328
329,1696246646872,0.7495117,0.028015137,0.6676636,0.9375,1.59375,0.46875,329
330,1696246646912,0.7023926,0.01776123,0.6593628,-7.046875,-0.171875,-1.171875,330
331,1696246646952,0.6989746,-0.00982666,0.7157593,-8.890625,-2.34375,-3.875,331
332,1696246646992,0.7011719,-0.020324707,0.66864014,-14.390625,-3.578125,-4.953125,332
333,1696246647032,0.74658203,0.055114746,0.6342163,-13.0,-2.28125,-6.375,333
334,1696246647072,0.8474121,0.06341553,0.66400146,-4.421875,-0.328125,-2.234375,334
335,1696246647112,0.77368164,0.048034668,0.70770264,0.34375,-1.765625,-0.71875,335
336,1696246647152,0.76000977,0.039489746,0.7406616,1.828125,-2.6875,0.203125,336
337,1696246647192,0.7805176,0.027770996,0.7399292,3.46875,-1.359375,0.359375,337
338,1696246647232,0.73413086,0.029724121,0.6918335,3.421875,-1.90625,2.015625,338
339,1696246647272,0.7092285,0.030944824,0.67889404,1.640625,-1.1875,1.75,339
340,1696246647312,0.7145996,0.030212402,0.6622925,1.0,-1.09375,0.09375,340
341,1696246647352,0.7607422,0.026794434,0.65179443,2.09375,1.421875,0.234375,341
342,1696246647392,0.75219727,0.06072998,0.67059326,3.234375,-0.9375,1.65625,342
343,1696246647432,0.72924805,0.00018310547,0.6881714,4.21875,-0.3125,2.390625,343
344,1696246647472,0.75634766,0.031677246,0.6791382,1.84375,-0.609375,0.21875,344
345,1696246647512,0.77490234,0.027526855,0.7057495,2.84375,0.859375,1.140625,345
346,1696246647552,0.73950195,0.015808105,0.6876831,2.71875,-0.5,1.65625,346
347,1696246647592,0.7648926,0.027282715,0.6737671,0.890625,0.0625,1.6875,347
348,1696246647632,0.6779785,0.04827881,0.7477417,1.671875,-4.9375,0.25,348
349,1696246647672,0.6647949,0.012634277,0.668396,1.59375,1.90625,-1.296875,349
350,1696246647712,0.80737305,0.055603027,0.7645874,4.75,-1.84375,-0.953125,350
351,1696246647752,0.69873047,-0.043029785,0.71136475,1.0,-1.53125,2.84375,351
352,1696246647792,0.75634766,0.035339355,0.68426514,2.765625,-0.828125,0.796875,352
353,1696246647832,0.71850586,0.0040893555,0.6852417,4.0625,-0.25,4.875,353
354,1696246647872,0.8137207,0.077819824,0.71502686,2.53125,6.140625,1.84375,354
355,1696246647912,0.7583008,0.0026245117,0.75164795,-0.5,0.328125,1.921875,355
356,1696246647952,0.6933594,0.0119018555,0.6923218,-1.984375,2.53125,0.265625,356
357,1696246647992,0.73168945,0.023376465,0.68963623,-3.859375,-1.28125,-1.890625,357
358,1696246648032,0.7380371,-0.0064086914,0.63739014,-8.484375,-3.46875,-1.84375,358
359,1696246648072,0.74853516,0.030212402,0.6288452,-3.3125,-1.296875,-2.84375,359
360,1696246648112,0.7717285,0.039733887,0.69696045,-1.375,-2.71875,-2.84375,360
361,1696246648152,0.7788086,0.008483887,0.68914795,-0.390625,-1.0625,-0.625,361
362,1696246648192,0.7854004,0.02142334,0.6906128,-0.078125,-2.125,0.140625,362
363,1696246648232,0.73950195,0.026306152,0.6989136,1.3125,-2.296875,1.015625,363
364,1696246648272,0.7180176,0.036315918,0.71209717,0.3125,-1.90625,0.265625,364
365,1696246648312,0.748291,0.028747559,0.69207764,1.78125,-1.21875,-0.171875,365
366,1696246648352,0.7233887,0.022399902,0.7230835,2.53125,-2.640625,1.828125,366
367,1696246648392,0.7324219,0.013366699,0.70892334,1.84375,-1.890625,1.21875,367
368,1696246648432,0.73339844,0.019958496,0.66937256,4.3125,-1.71875,1.75,368
369,1696246648472,0.7602539,0.024841309,0.7435913,2.8125,-1.015625,2.34375,369
370,1696246648512,0.7648926,0.025817871,0.6954956,5.046875,0.203125,3.125,370
371,1696246648552,0.77685547,0.008239746,0.7008667,5.421875,1.875,4.109375,371
372,1696246648592,0.73291016,0.010437012,0.69744873,-0.8125,0.953125,1.28125,372
373,1696246648632,0.75024414,0.0040893555,0.6967163,3.125,1.015625,1.9375,373
374,1696246648672,0.70703125,0.008728027,0.72869873,-2.578125,-3.71875,2.109375,374
375,1696246648712,0.68530273,0.0119018555,0.63690186,-1.421875,2.328125,-1.15625,375
376,1696246648752,0.77978516,-0.0005493164,0.70770264,-0.390625,-2.75,-2.359375,376
377,1696246648792,0.7609863,-0.0068969727,0.6486206,-0.390625,1.171875,0.046875,377
378,1696246648832,0.68652344,0.014831543,0.7328491,-2.28125,-2.953125,0.5625,378
379,1696246648872,0.71728516,-0.014953613,0.7025757,-4.953125,0.734375,-2.3125,379
380,1696246648912,0.79296875,0.023620605,0.7406616,-5.5,1.96875,-4.4375,380
381,1696246648952,0.69433594,-0.011047363,0.73114014,-8.796875,-2.4375,-3.953125,381
382,1696246648992,0.6743164,0.008239746,0.69573975,-10.46875,-5.90625,-3.90625,382
383,1696246649032,0.7753906,0.062683105,0.6408081,-12.4375,0.0,-3.984375,383
384,1696246649072,0.79956055,0.03704834,0.6923218,-4.6875,-0.125,-3.59375,384
385,1696246649112,0.72094727,0.0211792,0.7394409,1.046875,0.0625,-1.171875,385
386,1696246649152,0.7038574,0.019714355,0.7369995,-2.5625,1.03125,-0.328125,386
387,1696246649192,0.76171875,0.039978027,0.696228,-4.78125,1.046875,-0.71875,387
388,1696246649232,0.76708984,0.031188965,0.7262573,-1.03125,0.921875,1.21875,388
389,1696246649272,0.7211914,0.038513184,0.70428467,-2.375,1.171875,1.09375,389
390,1696246649312,0.7233887,0.03753662,0.70843506,-4.84375,0.5625,0.125,390
391,1696246649352,0.7607422,0.06463623,0.6400757,-3.796875,-1.875,-0.578125,391
392,1696246649392,0.72802734,0.054870605,0.6925659,0.375,-0.78125,-0.109375,392
393,1696246649432,0.72680664,0.042175293,0.63031006,3.25,0.46875,0.171875,393
394,1696246649472,0.76293945,0.08148193,0.6376343,9.078125,-2.296875,1.421875,394
395,1696246649512,0.74780273,0.007751465,0.7601929,8.171875,-7.328125,3.078125,395
396,1696246649552,0.70825195,-0.019348145,0.71136475,0.125,-3.640625,0.515625,396
397,1696246649592,0.75634766,0.031677246,0.7304077,0.8125,-4.59375,0.4375,397
398,1696246649632,0.71362305,0.038024902,0.76605225,-1.046875,-3.625,2.21875,398
399,1696246649672,0.6904297,0.035095215,0.68743896,-4.203125,-5.59375,1.359375,399
400,1696246649712,0.7150879,0.0692749,0.7201538,-1.953125,-1.828125,0.734375,400
401,1696246649752,0.7097168,0.05218506,0.7243042,-1.296875,-1.21875,0.03125,401
402,1696246649792,0.70874023,0.024108887,0.7387085,-0.296875,-0.203125,0.484375,402
403,1696246649832,0.71313477,0.020935059,0.71136475,-0.203125,0.515625,0.65625,403
404,1696246649872,0.73706055,0.03289795,0.701355,1.171875,0.703125,-0.390625,404
405,1696246649912,0.73461914,0.015808105,0.7225952,1.21875,-0.28125,0.828125,405
406,1696246649952,0.6933594,0.027282715,0.71136475,-3.359375,-3.09375,0.109375,406
407,1696246649992,0.78393555,0.06341553,0.59198,-5.609375,0.359375,-0.390625,407
408,1696246650032,0.7097168,0.0993042,0.85028076,5.359375,3.421875,2.921875,408
409,1696246650072,0.6376953,0.009216309,0.7272339,-0.453125,4.15625,3.21875,409
410,1696246650112,0.7319336,0.03704834,0.72039795,-1.734375,7.96875,-0.578125,410
411,1696246650152,0.72558594,0.053894043,0.6845093,-0.546875,4.0625,-1.546875,411
412,1696246650192,0.66674805,0.024353027,0.68304443,-1.671875,-1.78125,-0.546875,412
413,1696246650232,0.7907715,0.028747559,0.65911865,-1.21875,1.625,-1.484375,413
414,1696246650272,0.77001953,0.07342529,0.66571045,-0.140625,2.59375,-1.359375,414
415,1696246650312,0.7775879,0.047302246,0.711853,2.65625,0.46875,0.21875,415
416,1696246650352,0.76000977,0.024597168,0.6937866,4.234375,-0.328125,1.328125,416
417,1696246650392,0.7541504,0.039001465,0.71380615,4.640625,-1.0,1.671875,417
418,1696246650432,0.72924805,0.035827637,0.72943115,4.484375,-4.6875,2.46875,418
419,1696246650472,0.76000977,0.05633545,0.73480225,-0.40625,-2.03125,-0.15625,419
420,1696246650512,0.7663574,0.0289917,0.71990967,0.03125,-3.3125,1.703125,420
421,1696246650552,0.77319336,0.035095215,0.7147827,-2.0,-0.765625,1.078125,421
422,1696246650592,0.72924805,0.074157715,0.6437378,3.65625,-0.578125,1.9375,422
423,1696246650632,0.66064453,-0.01373291,0.758728,3.046875,-7.1875,2.421875,423
424,1696246650672,0.69311523,0.0006713867,0.6552124,-3.671875,5.734375,-2.671875,424
425,1696246650712,0.7487793,0.06512451,0.7230835,-2.3125,4.015625,-2.0,425
426,1696246650752,0.6982422,0.024597168,0.71209717,-3.578125,0.984375,-2.5625,426
427,1696246650792,0.6755371,0.051452637,0.6547241,-4.859375,-1.4375,-1.578125,427
428,1696246650832,0.76000977,0.04876709,0.70233154,-1.03125,-1.40625,0.8125,428
429,1696246650872,0.76953125,0.046813965,0.7194214,0.65625,0.359375,-0.640625,429
430,1696246650912,0.78222656,0.04437256,0.6798706,2.609375,1.78125,0.34375,430
431,1696246650952,0.72875977,0.07293701,0.7133179,3.90625,0.109375,2.046875,431
432,1696246650992,0.7897949,0.020935059,0.70111084,3.5,2.15625,0.875,432
433,1696246651032,0.73950195,0.03704834,0.6437378,2.9375,1.078125,1.390625,433
434,1696246651072,0.70947266,0.057800293,0.7020874,4.71875,-1.609375,2.9375,434
435,1696246651112,0.74365234,0.00091552734,0.6935425,4.375,0.28125,0.21875,435
436,1696246651152,0.7241211,0.043151855,0.64056396,3.921875,-1.34375,1.28125,436
437,1696246651192,0.78930664,0.035827637,0.71014404,4.375,-3.5625,1.59375,437
438,1696246651232,0.7414551,-0.026428223,0.6334839,2.46875,-0.953125,2.828125,438
439,1696246651272,0.80200195,0.06121826,0.75946045,2.4375,-0.015625,0.171875,439
440,1696246651312,0.66918945,0.016296387,0.72698975,-2.953125,0.71875,-0.15625,440
441,1696246651352,0.73461914,0.011657715,0.6935425,-4.53125,2.21875,-3.171875,441
442,1696246651392,0.7270508,0.027282715,0.7157593,-5.6875,1.6875,-3.140625,442
443,1696246651432,0.6948242,0.012878418,0.68499756,-8.84375,-3.96875,-2.3125,443
444,1696246651472,0.68969727,0.02947998,0.66522217,-8.9375,-3.703125,-2.984375,444
445,1696246651512,0.7421875,0.038513184,0.67059326,-7.6875,-0.078125,-2.0625,445
446,1696246651552,0.83691406,0.04876709,0.7040405,-2.015625,-0.640625,-2.453125,446
447,1696246651592,0.74609375,0.034118652,0.7218628,0.453125,-1.046875,-0.09375,447
448,1696246651632,0.7697754,0.047302246,0.71795654,-0.21875,-1.828125,0.46875,448
449,1696246651672,0.7236328,0.04486084,0.6918335,1.734375,-5.828125,-0.515625,449
450,1696246651712,0.6855469,0.027038574,0.7094116,1.6875,-3.453125,-0.15625,450
451,1696246651752,0.73046875,0.028503418,0.7177124,-0.890625,-0.3125,0.171875,451
452,1696246651792,0.7402344,0.041931152,0.74334717,-1.375,0.6875,-0.578125,452
453,1696246651832,0.73950195,0.049743652,0.70843506,-3.390625,-0.15625,-0.65625,453
454,1696246651872,0.7355957,0.04119873,0.68011475,-5.265625,-0.375,0.046875,454
455,1696246651912,0.7233887,0.05340576,0.68621826,-2.0,-0.703125,-0.5625,455
456,1696246651952,0.8000488,0.036315918,0.6613159,2.53125,2.984375,-1.234375,456
457,1696246651992,0.74316406,0.046081543,0.65130615,5.765625,1.234375,2.765625,457
458,1696246652032,0.7675781,0.06512451,0.70477295,4.671875,-1.0625,3.53125,458
459,1696246652072,0.71728516,0.010192871,0.699646,4.984375,-3.921875,3.96875,459
460,1696246652112,0.7097168,0.00970459,0.70965576,0.28125,-1.890625,0.96875,460
461,1696246652152,0.7687988,0.029968262,0.65667725,-2.0,-3.6875,0.5625,461
462,1696246652192,0.7224121,0.07659912,0.7352905,-6.75,-3.578125,2.234375,462
463,1696246652232,0.7685547,0.028747559,0.77630615,-7.984375,-5.4375,0.734375,463
464,1696246652272,0.69262695,0.04095459,0.79974365,-3.828125,-6.75,0.640625,464
465,1696246652312,0.68408203,0.070495605,0.67767334,-3.34375,-0.78125,-1.234375,465
466,1696246652352,0.72094727,0.09075928,0.71698,3.171875,-1.421875,0.609375,466
467,1696246652392,0.64697266,0.03387451,0.68743896,1.6875,-1.15625,0.078125,467
468,1696246652432,0.7229004,0.06048584,0.6610718,2.234375,6.09375,-1.671875,468
469,1696246652472,0.68847656,0.02166748,0.7531128,2.9375,-1.484375,1.53125,469
470,1696246652512,0.69799805,0.018981934,0.7206421,1.40625,3.53125,-0.921875,470
471,1696246652552,0.7145996,0.046325684,0.732605,-0.6875,4.078125,-0.578125,471
472,1696246652592,0.7180176,0.042419434,0.71136475,-0.203125,3.890625,-0.296875,472
473,1696246652632,0.7380371,0.04486084,0.7037964,-0.234375,-0.53125,-0.59375,473
474,1696246652672,0.736084,0.035339355,0.7399292,1.78125,0.375,-0.046875,474
475,1696246652712,0.7636719,0.039245605,0.67523193,1.734375,3.71875,0.265625,475
476,1696246652752,0.7416992,0.06536865,0.72161865,5.96875,-2.109375,1.578125,476
477,1696246652792,0.7312012,0.009460449,0.6893921,2.453125,-0.125,3.203125,477
478,1696246652832,0.765625,0.05706787,0.64959717,5.90625,3.171875,0.3125,478
479,1696246652872,0.7097168,0.05316162,0.6378784,14.15625,7.71875,2.15625,479
480,1696246652912,0.7392578,0.042175293,0.69085693,17.484375,14.59375,0.859375,480
481,1696246652952,0.7675781,0.03753662,0.83514404,7.0,0.453125,2.328125,481
482,1696246652992,0.6496582,-0.08892822,0.6456909,3.796875,-0.875,1.0625,482
483,1696246653032,0.845459,-0.0020141602,0.73773193,1.03125,-1.796875,0.21875,483
484,1696246653072,0.70043945,-0.03375244,0.63812256,-4.84375,-2.1875,0.828125,484
485,1696246653112,0.7832031,0.0033569336,0.6376343,4.25,0.453125,-2.0625,485
486,1696246653152,0.76660156,-0.0029907227,0.6564331,-3.8125,-2.8125,1.21875,486
487,1696246653192,0.78027344,0.01727295,0.7555542,-1.53125,-1.046875,1.25,487
488,1696246653232,0.7036133,-0.035705566,0.6679077,-0.921875,-0.234375,1.0625,488
489,1696246653272,0.7248535,0.018005371,0.7074585,-6.0625,-0.5,-1.90625,489
490,1696246653312,0.7297363,0.02532959,0.7067261,-8.53125,-4.140625,-1.3125,490
491,1696246653352,0.7302246,0.016540527,0.6444702,-8.421875,-4.03125,-0.671875,491
492,1696246653392,0.75146484,0.031921387,0.64837646,-4.765625,-1.453125,-2.515625,492
493,1696246653432,0.77905273,0.066101074,0.70843506,-1.34375,-1.734375,-2.90625,493
494,1696246653472,0.7697754,0.0060424805,0.70306396,-0.703125,-1.234375,0.140625,494
495,1696246653512,0.77246094,0.0038452148,0.68011475,0.75,-0.46875,0.1875,495
496,1696246653552,0.7265625,0.015319824,0.7367554,1.84375,-1.6875,1.703125,496
497,1696246653592,0.70825195,0.024841309,0.6691284,-0.40625,-2.40625,1.453125,497
498,1696246653632,0.7512207,0.035827637,0.68133545,-0.359375,1.140625,0.828125,498
499,1696246653672,0.7302246,0.027526855,0.7579956,0.53125,-1.6875,2.046875,499
500,1696246653712,0.7241211,-0.00079345703,0.635437,0.140625,3.296875,1.09375,500
501,1696246653752,0.8046875,0.04901123,0.68011475,5.0625,-0.984375,1.765625,501
502,1696246653792,0.73950195,-0.011291504,0.7711792,0.203125,-1.375,3.359375,502
503,1696246653832,0.72753906,0.004333496,0.64642334,-3.171875,3.984375,-2.203125,503
504,1696246653872,0.79907227,0.027038574,0.70843506,-1.921875,2.96875,0.125,504
505,1696246653912,0.71850586,0.022155762,0.7045288,-4.703125,0.171875,-0.953125,505
506,1696246653952,0.7072754,0.013122559,0.67767334,-8.109375,-3.515625,-2.4375,506
507,1696246653992,0.71069336,0.02508545,0.6737671,-6.96875,-5.28125,-1.578125,507
508,1696246654032,0.7446289,0.070007324,0.6679077,-5.359375,-1.640625,-3.265625,508
509,1696246654072,0.7836914,0.035827637,0.69329834,-1.1875,-1.140625,-2.28125,509
510,1696246654112,0.7519531,0.019714355,0.715271,0.796875,-2.328125,0.5,510
511,1696246654152,0.7368164,0.023132324,0.73480225,0.75,-1.640625,0.40625,511
512,1696246654192,0.7470703,0.030700684,0.75531006,-0.390625,-0.75,0.703125,512
513,1696246654232,0.7324219,0.042663574,0.6893921,-1.5,-0.984375,-0.046875,513
514,1696246654272,0.7272949,0.032165527,0.7128296,-0.375,0.640625,0.453125,514
515,1696246654312,0.7248535,0.038024902,0.7133179,-1.078125,0.453125,-0.015625,515
516,1696246654352,0.72631836,0.025817871,0.69866943,-3.515625,1.640625,-0.921875,516
517,1696246654392,0.75024414,0.043640137,0.652771,-3.484375,-0.09375,-0.734375,517
518,1696246654432,0.7363281,0.038513184,0.6937866,-4.0625,-0.703125,0.421875,518
519,1696246654472,0.7529297,0.050964355,0.6671753,-0.9375,-1.328125,0.015625,519
520,1696246654512,0.7861328,0.039245605,0.6351929,3.46875,1.578125,-0.703125,520
521,1696246654552,0.75512695,0.08514404,0.65740967,8.1875,-1.6875,2.46875,521
522,1696246654592,0.7739258,0.043640137,0.69647217,7.796875,-3.65625,2.78125,522
523,1696246654632,0.7133789,-0.028381348,0.7250366,5.78125,-4.421875,2.5,523
524,1696246654672,0.7336426,0.022888184,0.7028198,3.125,-1.53125,-0.125,524
525,1696246654712,0.7675781,0.038269043,0.68963623,2.59375,-2.625,0.96875,525
526,1696246654752,0.6604004,0.010192871,0.78900146,2.484375,-3.5,3.328125,526
527,1696246654792,0.75561523,0.028747559,0.6845093,-2.140625,-1.09375,-1.65625,527
528,1696246654832,0.7602539,0.0138549805,0.7079468,1.296875,-2.1875,-0.921875,528
529,1696246654872,0.69921875,0.012145996,0.72283936,0.296875,-3.515625,-0.25,529
530,1696246654912,0.717041,0.035339355,0.701355,-0.40625,-0.6875,-1.734375,530
531,1696246654952,0.73876953,0.0211792,0.72454834,-0.046875,-2.78125,0.484375,531
532,1696246654992,0.6960449,0.016052246,0.7350464,1.0625,-1.328125,1.375,532
533,1696246655032,0.7272949,0.01361084,0.71551514,-0.765625,-1.015625,1.203125,533
534,1696246655072,0.7006836,0.0211792,0.7352905,0.4375,-1.984375,1.46875,534
535,1696246655112,0.70458984,0.026550293,0.69158936,2.515625,-2.09375,1.171875,535
536,1696246655152,0.8039551,0.055603027,0.6613159,1.25,7.296875,0.140625,536
537,1696246655192,0.7163086,0.015075684,0.8119507,2.453125,2.765625,4.3125,537
538,1696246655232,0.6591797,-0.0049438477,0.72528076,-0.171875,4.15625,1.296875,538
539,1696246655272,0.7207031,0.02532959,0.7079468,-1.421875,4.109375,-0.03125,539
540,1696246655312,0.7368164,0.008483887,0.6898804,-2.671875,-0.15625,0.140625,540
541,1696246655352,0.7199707,0.021911621,0.68182373,-2.953125,0.375,-1.375,541
542,1696246655392,0.76293945,0.041931152,0.67889404,-1.96875,-0.21875,-1.640625,542
543,1696246655432,0.7788086,0.03314209,0.7040405,0.90625,-0.015625,-0.640625,543
544,1696246655472,0.7648926,0.027526855,0.6930542,0.65625,-0.1875,0.59375,544
545,1696246655512,0.74853516,0.042663574,0.70306396,1.21875,-0.53125,1.015625,545
546,1696246655552,0.7421875,0.016052246,0.70477295,3.921875,-0.359375,0.875,546
547,1696246655592,0.7453613,0.018981934,0.6828003,3.46875,0.921875,0.609375,547
548,1696246655632,0.73535156,0.034606934,0.7069702,4.171875,-2.546875,1.46875,548
549,1696246655672,0.76000977,0.010681152,0.7020874,4.546875,-0.28125,1.109375,549
550,1696246655712,0.73291016,0.05999756,0.7086792,3.890625,0.734375,3.140625,550
551,1696246655752,0.7734375,0.03753662,0.7514038,5.578125,-0.90625,5.3125,551
552,1696246655792,0.71362305,-0.027404785,0.6481323,2.140625,1.453125,2.96875,552
553,1696246655832,0.7116699,-0.011779785,0.6967163,2.078125,1.234375,2.8125,553
554,1696246655872,0.7128906,-0.0076293945,0.7145386,-1.34375,2.359375,-0.671875,554
555,1696246655912,0.74072266,-0.008605957,0.69158936,-3.328125,0.265625,-3.234375,555
556,1696246655952,0.7351074,0.0028686523,0.63812256,-5.015625,-1.34375,-3.328125,556
557,1696246655992,0.765625,0.035095215,0.66082764,-4.671875,-0.03125,-2.234375,557
558,1696246656032,0.74658203,0.016296387,0.67181396,-2.1875,-1.46875,-1.421875,558
559,1696246656072,0.78637695,0.014831543,0.6989136,-0.078125,1.625,-0.71875,559
560,1696246656112,0.76342773,0.038513184,0.6832886,-0.015625,1.34375,1.3125,560
561,1696246656152,0.76708984,0.023132324,0.68670654,2.015625,0.3125,1.390625,561
562,1696246656192,0.7507324,0.02532959,0.6610718,4.375,1.40625,0.734375,562
563,1696246656232,0.76000977,0.029724121,0.69085693,4.6875,-0.03125,1.015625,563
564,1696246656272,0.77001953,0.008239746,0.6642456,6.328125,-1.5,1.5625,564
565,1696246656312,0.7248535,0.023132324,0.6522827,6.96875,2.875,0.796875,565
566,1696246656352,0.7973633,0.014343262,0.6976929,12.59375,0.5,4.53125,566
567,1696246656392,0.66796875,-0.04107666,0.75897217,1.28125,-2.984375,2.78125,567
568,1696246656432,0.76904297,-0.023254395,0.6486206,-8.84375,3.265625,-1.96875,568
569,1696246656472,0.78759766,-0.0044555664,0.682312,-4.546875,0.125,-1.59375,569
570,1696246656512,0.73876953,0.0028686523,0.6769409,-10.03125,-2.4375,-2.21875,570
571,1696246656552,0.7294922,0.02557373,0.6727905,-15.0,-5.25,-3.703125,571
572,1696246656592,0.7348633,0.030212402,0.6828003,-11.78125,-3.265625,-1.796875,572
573,1696246656632,0.75927734,0.040222168,0.68865967,-4.640625,-2.9375,-2.546875,573
574,1696246656672,0.80029297,0.034362793,0.68011475,-2.734375,-0.015625,-1.484375,574
575,1696246656712,0.75512695,0.01751709,0.70843506,-0.84375,-0.9375,1.640625,575
576,1696246656752,0.7416992,0.012145996,0.71087646,0.453125,0.1875,1.4375,576
577,1696246656792,0.7380371,0.028015137,0.68499756,-2.484375,-0.078125,-0.15625,577
578,1696246656832,0.7626953,0.029724121,0.68865967,-2.25,0.46875,-0.28125,578
579,1696246656872,0.74194336,0.04071045,0.6637573,-3.09375,-0.1875,-0.6875,579
580,1696246656912,0.7692871,0.039245605,0.70184326,-1.203125,0.40625,-0.953125,580
581,1696246656952,0.76000977,0.0053100586,0.6659546,-4.75,-1.078125,-2.109375,581
582,1696246656992,0.7402344,0.024353027,0.68084717,-6.5625,0.03125,-2.03125,582
583,1696246657032,0.7553711,0.054382324,0.65960693,-0.953125,-1.421875,-1.578125,583
584,1696246657072,0.81640625,0.040222168,0.5985718,3.328125,0.328125,-0.3125,584
585,1696246657112,0.7402344,0.07757568,0.6486206,11.84375,-0.09375,3.84375,585
586,1696246657152,0.72314453,0.0138549805,0.7160034,10.625,-3.875,3.078125,586
587,1696246657192,0.7907715,0.0006713867,0.69281006,8.015625,-3.21875,1.03125,587
588,1696246657232,0.7194824,0.004333496,0.699646,6.859375,-4.296875,2.34375,588
589,1696246657272,0.73413086,0.015319824,0.7223511,4.640625,-4.671875,1.5,589
590,1696246657312,0.7800293,-0.0010375977,0.70526123,-3.703125,-4.703125,1.125,590
591,1696246657352,0.8063965,0.0016479492,0.7496948,3.828125,-5.515625,0.234375,591
592,1696246657392,0.6999512,-0.006652832,0.6786499,1.375,-0.40625,2.03125,592
593,1696246657432,0.67871094,0.019714355,0.73480225,2.96875,0.921875,-0.40625,593
594,1696246657472,0.72436523,0.018249512,0.668396,-0.5,2.796875,-1.140625,594
595,1696246657512,0.76123047,-0.009094238,0.72283936,0.015625,2.015625,-0.109375,595
596,1696246657552,0.72924805,0.0004272461,0.70965576,-1.25,0.484375,0.875,596
597,1696246657592,0.7084961,0.038757324,0.682312,-1.09375,-1.0625,-0.546875,597
598,1696246657632,0.8208008,0.024353027,0.7147827,-0.28125,2.328125,-0.3125,598
599,1696246657672,0.6201172,-0.026184082,0.69940186,-0.1875,-0.34375,2.25,599
600,1696246657712,0.66137695,0.0065307617,0.6984253,-4.640625,5.484375,-0.65625,600
601,1696246657752,0.82470703,-0.014953613,0.71136475,-8.5,5.34375,-2.84375,601
602,1696246657792,0.74316406,0.007019043,0.6625366,-10.234375,-1.515625,-1.0625,602
603,1696246657832,0.77075195,0.03363037,0.6234741,-6.25,-1.28125,-0.390625,603
604,1696246657872,0.78271484,0.05316162,0.69451904,-2.015625,-0.109375,-1.640625,604
605,1696246657912,0.7861328,0.01776123,0.69818115,0.5625,-0.046875,-0.84375,605
606,1696246657952,0.7487793,0.047302246,0.6715698,1.625,-0.75,0.421875,606
607,1696246657992,0.7668457,0.018737793,0.68255615,5.34375,0.984375,2.203125,607
608,1696246658032,0.7597656,0.023376465,0.6876831,6.78125,2.6875,2.40625,608
609,1696246658072,0.78125,0.01751709,0.66326904,10.609375,1.265625,1.59375,609
610,1696246658112,0.7741699,0.007019043,0.6720581,8.421875,-0.53125,2.03125,610
611,1696246658152,0.7919922,0.0072631836,0.65374756,9.875,3.421875,1.109375,611
612,1696246658192,0.87231445,-0.011779785,0.74432373,7.796875,-2.984375,2.828125,612
613,1696246658232,0.64941406,-0.054748535,0.7045288,4.671875,-4.59375,4.203125,613
614,1696246658272,0.7302246,0.06072998,0.6168823,-3.84375,-2.359375,-1.53125,614
615,1696246658312,0.77685547,-0.003967285,0.7975464,-0.875,-0.875,1.640625,615
616,1696246658352,0.64868164,-0.050598145,0.69036865,-0.53125,1.78125,1.578125,616
617,1696246658392,0.6713867,0.030212402,0.6703491,-9.65625,0.375,-2.84375,617
618,1696246658432,0.7368164,-0.0032348633,0.6898804,-12.78125,-0.5,-3.71875,618
619,1696246658472,0.71728516,0.013366699,0.6793823,-15.0625,-2.953125,-2.921875,619
620,1696246658512,0.7626953,0.02508545,0.6564331,-12.015625,-2.296875,-2.5625,620
621,1696246658552,0.76293945,0.039001465,0.682312,-6.5625,0.046875,-0.15625,621
622,1696246658592,0.74780273,0.025817871,0.727478,-1.484375,0.359375,-0.625,622
623,1696246658632,0.80200195,0.038513184,0.7003784,-2.53125,3.140625,-1.0625,623
624,1696246658672,0.7998047,0.024108887,0.727478,-0.015625,2.890625,1.203125,624
625,1696246658712,0.7441406,0.018981934,0.69818115,-1.4375,0.796875,1.0625,625
626,1696246658752,0.7561035,0.039489746,0.63079834,-6.40625,1.390625,-0.296875,626
627,1696246658792,0.7819824,0.062194824,0.6630249,-3.640625,-0.0625,0.8125,627
628,1696246658832,0.75,0.030212402,0.64056396,-3.890625,-1.734375,0.078125,628
629,1696246658872,0.7910156,0.04510498,0.6022339,2.5625,-1.375,-1.59375,629
630,1696246658912,0.751709,0.07684326,0.63153076,8.890625,-0.828125,1.34375,630
631,1696246658952,0.8034668,0.04901123,0.666687,9.234375,-1.890625,1.9375,631
632,1696246658992,0.78271484,0.009216309,0.7074585,10.078125,-4.75,2.46875,632
633,1696246659032,0.734375,-0.00079345703,0.6991577,8.609375,-2.703125,1.375,633
634,1696246659072,0.7741699,0.008972168,0.6757202,5.5,-0.59375,-2.34375,634
635,1696246659112,0.7915039,0.04534912,0.6810913,0.5,-3.546875,0.59375,635
636,1696246659152,0.6633301,0.039733887,0.7094116,3.53125,-7.40625,-2.046875,636
637,1696246659192,0.6862793,-0.022521973,0.74627686,-5.828125,-3.59375,-4.375,637
638,1696246659232,0.7883301,0.009216309,0.65618896,-0.09375,0.640625,-3.0,638
639,1696246659272,0.7192383,0.028015137,0.69403076,-0.421875,-1.25,0.5,639
640,1696246659312,0.6984863,-0.028137207,0.69573975,0.40625,-1.15625,0.671875,640
641,1696246659352,0.75683594,0.026550293,0.69573975,-1.9375,0.828125,-0.65625,641
642,1696246659392,0.7626953,0.0006713867,0.74139404,-0.09375,-2.09375,2.359375,642
643,1696246659432,0.7109375,0.016540527,0.6954956,0.828125,5.203125,2.15625,643
644,1696246659472,0.68408203,0.0033569336,0.69207764,-1.640625,3.890625,0.640625,644
645,1696246659512,0.77197266,-0.010559082,0.70526123,-1.859375,5.84375,0.234375,645
646,1696246659552,0.7402344,0.0045776367,0.6852417,-4.296875,2.859375,0.453125,646
647,1696246659592,0.7258301,0.026306152,0.6588745,-8.421875,-0.328125,0.953125,647
648,1696246659632,0.7470703,0.025817871,0.6400757,-6.453125,-1.609375,1.90625,648
649,1696246659672,0.78027344,0.058776855,0.67840576,-4.125,-1.15625,-0.421875,649
650,1696246659712,0.76171875,0.040222168,0.6893921,-1.34375,-0.296875,0.078125,650
651,1696246659752,0.81884766,0.042419434,0.7172241,1.5625,1.84375,1.125,651
652,1696246659792,0.7919922,0.024841309,0.6918335,-0.296875,-0.046875,-0.359375,652
653,1696246659832,0.7932129,0.013122559,0.6408081,-4.515625,0.390625,-0.296875,653
654,1696246659872,0.78344727,0.027282715,0.7050171,-5.03125,-1.65625,0.46875,654
655,1696246659912,0.72753906,0.023376465,0.6412964,-6.78125,-3.515625,0.859375,655
656,1696246659952,0.7915039,0.05657959,0.60369873,-1.578125,1.1875,-1.984375,656
657,1696246659992,0.7607422,0.07122803,0.60614014,4.109375,-2.28125,0.5625,657
658,1696246660032,0.720459,0.04876709,0.6918335,7.265625,-4.171875,2.46875,658
659,1696246660072,0.76416016,-0.008117676,0.69085693,4.21875,-5.109375,-0.328125,659
660,1696246660112,0.7697754,0.016052246,0.67230225,3.53125,-3.1875,-0.65625,660
661,1696246660152,0.7373047,0.039245605,0.6703491,1.828125,-4.078125,-0.40625,661
662,1696246660192,0.76171875,0.027526855,0.73236084,-0.46875,-3.921875,0.6875,662
663,1696246660232,0.6879883,0.015075684,0.73553467,-3.421875,-5.578125,-1.25,663
664,1696246660272,0.736084,0.046081543,0.6923218,-4.71875,-2.9375,-2.734375,664
665,1696246660312,0.7324219,0.070739746,0.7123413,-1.3125,-2.21875,-1.125,665
666,1696246660352,0.7060547,0.039245605,0.7201538,0.5625,-2.734375,-0.03125,666
667,1696246660392,0.72631836,0.021911621,0.6947632,0.6875,-0.03125,-0.1875,667
668,1696246660432,0.73999023,0.036071777,0.7145386,1.875,-1.0625,1.375,668
669,1696246660472,0.73291016,0.0289917,0.7091675,3.625,-0.15625,1.46875,669
670,1696246660512,0.74853516,0.014831543,0.6869507,-0.1875,2.515625,-0.96875,670
671,1696246660552,0.79174805,0.047546387,0.68963623,1.796875,-1.65625,1.140625,671
672,1696246660592,0.7416992,0.040222168,0.7369995,2.71875,2.640625,1.703125,672
673,1696246660632,0.7077637,0.016296387,0.7028198,1.21875,7.21875,0.53125,673
674,1696246660672,0.7832031,0.023132324,0.6876831,-1.109375,3.578125,1.4375,674
675,1696246660712,0.65722656,0.012878418,0.71307373,-0.28125,0.984375,1.84375,675
676,1696246660752,0.6972656,0.010192871,0.65252686,-4.90625,0.671875,1.234375,676
677,1696246660792,0.7866211,0.03265381,0.6625366,-0.609375,0.375,-0.359375,677
678,1696246660832,0.7504883,0.047302246,0.70428467,1.328125,-1.9375,-0.28125,678
679,1696246660872,0.7751465,0.0289917,0.6769409,0.359375,0.03125,-0.609375,679
680,1696246660912,0.78149414,0.038757324,0.6954956,1.140625,-0.625,0.703125,680
681,1696246660952,0.75634766,0.041931152,0.70526123,2.265625,-1.96875,0.703125,681
682,1696246660992,0.7597656,0.020690918,0.6889038,0.921875,-0.4375,0.453125,682
683,1696246661032,0.7348633,0.04119873,0.7050171,2.171875,-2.59375,1.421875,683
684,1696246661072,0.734375,0.013366699,0.66448975,2.421875,0.234375,1.375,684
685,1696246661112,0.74487305,0.053894043,0.682312,1.3125,-0.078125,-0.125,685
686,1696246661152,0.74072266,0.020202637,0.6930542,4.578125,-1.25,1.71875,686
687,1696246661192,0.7438965,0.018981934,0.6923218,3.140625,-1.3125,0.21875,687
688,1696246661232,0.7565918,0.032165527,0.69940186,4.234375,-3.375,1.15625,688
689,1696246661272,0.7531738,0.003112793,0.70111084,5.0625,0.359375,1.4375,689
690,1696246661312,0.8334961,0.04827881,0.684021,1.140625,-4.375,2.828125,690
691,1696246661352,0.72802734,-0.012512207,0.6754761,2.328125,-6.203125,4.46875,691
692,1696246661392,0.6809082,0.029724121,0.72528076,4.796875,0.625,1.4375,692
693,1696246661432,0.65966797,0.016540527,0.6635132,-0.890625,2.734375,-0.140625,693
694,1696246661472,0.7133789,0.0014038086,0.7145386,-3.25,4.90625,-0.90625,694
695,1696246661512,0.7155762,0.0016479492,0.6774292,-3.078125,-1.09375,-2.375,695
696,1696246661552,0.720459,0.024108887,0.6329956,-8.171875,-2.25,-1.0,696
697,1696246661592,0.7648926,0.03314209,0.7103882,-5.15625,-0.828125,-0.78125,697
698,1696246661632,0.7763672,0.026794434,0.71698,-1.34375,0.484375,-1.203125,698
699,1696246661672,0.8017578,0.049743652,0.7177124,0.015625,1.0625,-0.21875,699
700,1696246661712,0.78271484,0.01361084,0.70526123,1.09375,0.6875,1.296875,700
701,1696246661752,0.7380371,0.026062012,0.6871948,2.25,1.515625,1.90625,701
702,1696246661792,0.73583984,0.04437256,0.6786499,0.15625,1.859375,0.734375,702
703,1696246661832,0.7260742,0.02508545,0.6742554,3.875,0.859375,1.078125,703
704,1696246661872,0.75512695,0.023376465,0.63739014,6.4375,4.296875,0.875,704
705,1696246661912,0.7780762,0.06463623,0.6264038,21.078125,13.375,3.796875,705
706,1696246661952,0.795166,0.01751709,0.77020264,25.109375,3.0625,4.984375,706
707,1696246661992,0.75634766,-0.05645752,0.66082764,10.703125,-0.6875,4.34375,707
708,1696246662032,0.8972168,-0.03326416,0.7250366,7.5,-4.90625,-0.25,708
709,1696246662072,0.7229004,-0.05621338,0.63201904,3.3125,-4.578125,4.8125,709
710,1696246662112,0.72265625,0.0119018555,0.6310425,-1.59375,-2.65625,-1.578125,710
711,1696246662152,0.7573242,-0.00030517578,0.73651123,-4.484375,-0.890625,-0.328125,711
712,1696246662192,0.71899414,-0.019836426,0.64105225,-8.015625,-3.90625,-0.453125,712
713,1696246662232,0.7001953,-0.0076293945,0.66204834,-7.390625,-0.21875,-3.09375,713
714,1696246662272,0.7077637,-0.031066895,0.7033081,-9.96875,0.765625,-5.078125,714
715,1696246662312,0.77783203,-0.030090332,0.71380615,-13.96875,-3.390625,-7.28125,715
716,1696246662352,0.7524414,0.0119018555,0.67889404,-16.546875,-4.78125,-3.75,716
717,1696246662392,0.7583008,0.022155762,0.69158936,-12.578125,-3.765625,-1.59375,717
718,1696246662432,0.76416016,0.02923584,0.68011475,-8.484375,-1.0625,-1.9375,718
719,1696246662472,0.7788086,0.041931152,0.7008667,-5.390625,0.859375,0.125,719
720,1696246662512,0.7348633,0.026062012,0.7103882,-2.53125,0.90625,1.453125,720
721,1696246662552,0.72558594,0.022399902,0.6967163,-4.34375,1.59375,-0.03125,721
722,1696246662592,0.79003906,0.04949951,0.6832886,-3.546875,0.265625,-1.734375,722
723,1696246662632,0.7565918,0.038757324,0.68084717,-4.3125,-0.53125,1.21875,723
724,1696246662672,0.75927734,0.032409668,0.66571045,-4.28125,0.75,0.71875,724
725,1696246662712,0.77734375,0.04901123,0.6847534,-3.671875,0.84375,0.359375,725
726,1696246662752,0.76123047,0.04510498,0.66156006,-3.84375,-1.953125,0.9375,726
727,1696246662792,0.76904297,0.057800293,0.6430054,-0.984375,-1.75,-0.796875,727
728,1696246662832,0.732666,0.05633545,0.6610718,5.40625,-2.078125,-0.25,728
729,1696246662872,0.73168945,0.07952881,0.6359253,5.140625,-1.4375,1.15625,729
730,1696246662912,0.7897949,0.035827637,0.66156006,5.234375,-2.734375,0.75,730
731,1696246662952,0.7297363,-0.0056762695,0.7340698,8.296875,-4.703125,0.875,731
732,1696246662992,0.7531738,0.023864746,0.71746826,0.953125,-0.171875,-1.59375,732
733,1696246663032,0.7817383,0.043395996,0.75164795,0.015625,-4.703125,-0.03125,733
734,1696246663072,0.75,0.016052246,0.7160034,-2.28125,-5.28125,-0.515625,734
735,1696246663112,0.7927246,0.035339355,0.6725464,-1.0625,-3.3125,-2.375,735
736,1696246663152,0.74194336,0.034851074,0.6947632,2.703125,-5.578125,0.046875,736
737,1696246663192,0.6713867,0.034851074,0.6871948,1.421875,-5.25,-0.484375,737
738,1696246663232,0.703125,0.031921387,0.71209717,2.109375,-2.953125,-0.9375,738
739,1696246663272,0.73095703,0.013366699,0.68548584,1.90625,-3.78125,-0.328125,739
740,1696246663312,0.6376953,0.039733887,0.6832886,1.234375,-5.234375,1.609375,740
741,1696246663352,0.75512695,0.005554199,0.69403076,-0.84375,-3.125,0.109375,741
742,1696246663392,0.65649414,0.050476074,0.7382202,2.34375,3.9375,-1.140625,742
743,1696246663432,0.69799805,0.04437256,0.78778076,1.40625,3.078125,3.40625,743
744,1696246663472,0.7385254,-0.050354004,0.78948975,-1.15625,4.921875,0.328125,744
745,1696246663512,0.68652344,0.030456543,0.6786499,-2.921875,5.703125,0.125,745
746,1696246663552,0.689209,0.05731201,0.7284546,-1.203125,3.65625,2.21875,746
747,1696246663592,0.7495117,-0.022033691,0.7086792,-2.828125,3.5,-0.453125,747
748,1696246663632,0.748291,0.051452637,0.64105225,-1.484375,4.421875,-1.609375,748
749,1696246663672,0.7644043,0.05316162,0.73773193,2.578125,-0.546875,1.921875,749
750,1696246663712,0.81518555,-0.026916504,0.64593506,3.765625,2.75,-0.515625,750
751,1696246663752,0.74438477,0.055603027,0.6564331,13.59375,1.984375,0.828125,751
752,1696246663792,0.82250977,0.02557373,0.73065186,13.59375,2.203125,2.578125,752
753,1696246663832,0.7697754,-0.016906738,0.6415405,12.53125,0.4375,3.71875,753
754,1696246663872,0.72558594,0.046569824,0.71209717,10.453125,-2.84375,4.390625,754
755,1696246663912,0.7956543,-0.051574707,0.7628784,2.0625,-5.953125,1.609375,755
756,1696246663952,0.70751953,-0.007385254,0.6276245,2.796875,-2.140625,0.390625,756
757,1696246663992,0.6328125,0.04437256,0.69451904,-1.28125,-1.65625,0.84375,757
758,1696246664032,0.8120117,-0.06866455,0.6950073,-2.171875,-0.640625,-1.34375,758
759,1696246664072,0.7036133,-0.014709473,0.68621826,-0.53125,-0.015625,-1.015625,759
