,timestamp,accel_x,accel_y,accel_z,gyro_x,gyro_y,gyro_z,ind
0,1696244484298,0.6118164,-0.0134887695,-0.73028564,-0.375,-0.09375,0.015625,0
1,1696244484338,0.6113281,-0.0154418945,-0.72906494,-0.34375,-0.421875,0.046875,1
2,1696244484378,0.6125488,-0.0154418945,-0.72906494,-0.3125,-0.46875,0.125,2
3,1696244484418,0.6125488,-0.022277832,-0.73150635,-0.390625,-0.328125,0.28125,3
4,1696244484458,0.60791016,-0.013000488,-0.7271118,-0.28125,-0.28125,0.125,4
5,1696244484498,0.6208496,-0.026428223,-0.7293091,-0.484375,-0.21875,-0.03125,5
6,1696244484538,0.61157227,-0.015197754,-0.7271118,-0.578125,-0.125,0.109375,6
7,1696244484578,0.6196289,-0.0178833,-0.73272705,-0.671875,0.125,0.046875,7
8,1696244484618,0.60791016,-0.023498535,-0.72662354,-0.5,-0.03125,0.171875,8
9,1696244484658,0.6135254,-0.023010254,-0.73516846,-0.46875,-0.140625,0.1875,9
10,1696244484698,0.6130371,-0.017150879,-0.73272705,-0.28125,-0.421875,0.234375,10
11,1696244484738,0.61083984,-0.01763916,-0.725647,0.140625,-0.796875,0.46875,11
12,1696244484778,0.6064453,-0.022277832,-0.7334595,-0.078125,-0.453125,0.34375,12
13,1696244484818,0.6069336,-0.02178955,-0.73394775,0.421875,-0.84375,0.71875,13
14,1696244484858,0.6130371,-0.016662598,-0.7271118,0.59375,-0.78125,0.65625,14
15,1696244484898,0.6130371,-0.024719238,-0.73223877,0.546875,-0.59375,0.578125,15
16,1696244484938,0.61035156,-0.010559082,-0.73931885,-0.28125,-0.421875,0.203125,16
17,1696244484978,0.6123047,-0.012023926,-0.7312622,-0.4375,-0.640625,-0.0625,17
18,1696244485018,0.6062012,-0.012756348,-0.7268677,-0.140625,-0.609375,0.078125,18
19,1696244485058,0.6032715,-0.022521973,-0.71539307,0.03125,-0.53125,0.125,19
20,1696244485098,0.60595703,-0.027404785,-0.7300415,-0.21875,-0.390625,0.375,20
21,1696244485138,0.60595703,-0.019836426,-0.72369385,-0.046875,-0.3125,0.453125,21
22,1696244485178,0.6188965,-0.019836426,-0.74176025,0.171875,-0.578125,0.3125,22
23,1696244485218,0.6166992,-0.011779785,-0.7373657,-0.171875,-0.609375,0.25,23
24,1696244485258,0.611084,-0.016906738,-0.7317505,-0.03125,-0.65625,0.140625,24
25,1696244485298,0.6113281,-0.0095825195,-0.7334595,-0.03125,-0.6875,0.328125,25
26,1696244485338,0.6135254,-0.020812988,-0.73687744,0.015625,-0.65625,0.15625,26
27,1696244485378,0.6105957,-0.018615723,-0.73516846,0.078125,-0.390625,0.359375,27
28,1696244485418,0.6113281,-0.015930176,-0.7283325,0.09375,-0.765625,0.3125,28
29,1696244485458,0.60668945,-0.019348145,-0.7334595,0.03125,-0.515625,0.296875,29
30,1696244485498,0.61816406,-0.014953613,-0.7385864,0.125,-0.46875,0.328125,30
31,1696244485538,0.6008301,-0.023010254,-0.7227173,0.1875,-0.65625,0.40625,31
32,1696244485578,0.6057129,-0.0178833,-0.73028564,-0.03125,-0.484375,0.171875,32
33,1696244485618,0.61083984,-0.012512207,-0.7390747,-0.125,-0.296875,0.09375,33
34,1696244485658,0.61035156,-0.015197754,-0.7276001,-0.15625,-0.53125,0.203125,34
35,1696244485698,0.607666,-0.022277832,-0.7307739,0.015625,-0.6875,0.453125,35
36,1696244485738,0.609375,-0.019104004,-0.7385864,-0.171875,-0.65625,0.3125,36
37,1696244485778,0.61328125,-0.011047363,-0.7268677,-0.046875,-0.703125,0.171875,37
38,1696244485818,0.6044922,-0.023986816,-0.73101807,-0.25,-0.375,0.328125,38
39,1696244485858,0.6088867,-0.011047363,-0.7337036,0.171875,-0.71875,0.3125,39
40,1696244485898,0.61206055,-0.016418457,-0.7346802,-0.125,-0.515625,0.21875,40
41,1696244485938,0.61572266,-0.016418457,-0.73443604,0.203125,-0.6875,0.28125,41
42,1696244485978,0.6225586,-0.0154418945,-0.73809814,-0.25,-0.578125,0.1875,42
43,1696244486018,0.609375,-0.015686035,-0.7341919,-0.015625,-0.59375,0.328125,43
44,1696244486058,0.6022949,-0.015930176,-0.7241821,0.125,-0.671875,0.484375,44
45,1696244486098,0.60913086,-0.014953613,-0.7359009,-0.015625,-0.640625,0.375,45
46,1696244486138,0.6105957,-0.01763916,-0.73223877,-0.125,-0.765625,0.359375,46
47,1696244486178,0.6086426,-0.01763916,-0.7346802,-0.171875,-0.328125,0.109375,47
48,1696244486218,0.6196289,-0.013244629,-0.75177,-0.296875,-0.1875,0.125,48
49,1696244486258,0.5966797,-0.018371582,-0.72784424,-0.078125,-0.625,0.265625,49
50,1696244486298,0.60839844,-0.016662598,-0.7398071,-0.203125,-0.46875,0.25,50
51,1696244486338,0.61083984,-0.015686035,-0.73760986,0.03125,-0.53125,0.328125,51
52,1696244486378,0.6152344,-0.00982666,-0.7341919,0.15625,-0.484375,0.375,52
53,1696244486418,0.6088867,-0.016418457,-0.73638916,-0.15625,-0.28125,0.390625,53
54,1696244486458,0.6027832,-0.017150879,-0.74053955,-0.21875,-0.546875,0.15625,54
55,1696244486498,0.611084,-0.0154418945,-0.73272705,-0.25,-0.65625,0.0625,55
56,1696244486538,0.6086426,-0.012756348,-0.7307739,-0.25,-0.78125,0.171875,56
57,1696244486578,0.6101074,-0.016418457,-0.7390747,0.0,-0.96875,0.328125,57
58,1696244486618,0.60498047,-0.019592285,-0.7305298,0.0,-0.78125,0.28125,58
59,1696244486658,0.6147461,-0.0154418945,-0.73931885,0.0625,-0.671875,0.375,59
60,1696244486698,0.6125488,-0.010559082,-0.73321533,-0.125,-0.59375,0.28125,60
61,1696244486738,0.61376953,-0.01373291,-0.73321533,-0.28125,-0.453125,0.140625,61
62,1696244486778,0.61083984,-0.010314941,-0.73150635,-0.25,-0.6875,0.1875,62
63,1696244486818,0.6171875,-0.010314941,-0.74005127,-0.390625,-0.5625,-0.078125,63
64,1696244486858,0.61083984,-0.022521973,-0.7312622,-0.03125,-0.78125,0.453125,64
65,1696244486898,0.59716797,-0.018859863,-0.71466064,0.03125,-1.140625,0.359375,65
66,1696244486938,0.6105957,-0.014465332,-0.7420044,-0.171875,-0.453125,0.390625,66
67,1696244486978,0.60717773,-0.0115356445,-0.73028564,-0.140625,-0.703125,0.234375,67
68,1696244487018,0.6154785,-0.016174316,-0.7341919,0.015625,-0.359375,0.1875,68
69,1696244487058,0.6188965,-0.0115356445,-0.74053955,-0.1875,-0.453125,0.15625,69
70,1696244487098,0.6098633,-0.014221191,-0.73321533,-0.046875,-0.734375,0.390625,70
71,1696244487138,0.6010742,-0.01739502,-0.7202759,0.75,-0.734375,0.828125,71
72,1696244487178,0.6196289,-0.013244629,-0.7385864,0.203125,-1.203125,0.46875,72
73,1696244487218,0.61376953,-0.008361816,-0.7373657,-0.234375,-1.171875,0.1875,73
74,1696244487258,0.6052246,-0.013244629,-0.7337036,-0.59375,-0.671875,-0.03125,74
75,1696244487298,0.60253906,-0.016418457,-0.73150635,-0.3125,-0.640625,0.09375,75
76,1696244487338,0.60424805,-0.022033691,-0.71710205,0.0625,-0.71875,0.5,76
77,1696244487378,0.6088867,-0.011291504,-0.7317505,0.3125,-0.640625,0.53125,77
78,1696244487418,0.6135254,-0.013977051,-0.73028564,0.25,-0.5,0.34375,78
79,1696244487458,0.61035156,-0.0056762695,-0.73809814,-0.03125,-0.671875,0.234375,79
80,1696244487498,0.61157227,-0.0064086914,-0.73687744,-0.1875,-0.484375,0.09375,80
81,1696244487538,0.61328125,-0.010803223,-0.7390747,-0.421875,-0.515625,0.0625,81
82,1696244487578,0.62158203,-0.010070801,-0.74005127,-0.171875,-0.4375,0.15625,82
83,1696244487618,0.6147461,-0.0154418945,-0.739563,0.03125,-0.6875,0.359375,83
84,1696244487658,0.60717773,-0.010559082,-0.7149048,0.140625,-1.28125,0.453125,84
85,1696244487698,0.6135254,-0.014221191,-0.737854,-0.0625,-0.34375,0.15625,85
86,1696244487738,0.6074219,-0.011291504,-0.7283325,-0.0625,-0.828125,0.3125,86
87,1696244487778,0.60498047,-0.022033691,-0.722229,0.046875,-0.75,0.40625,87
88,1696244487818,0.6123047,-0.009338379,-0.74053955,-0.125,-0.578125,0.140625,88
89,1696244487858,0.61083984,-0.018859863,-0.73150635,-0.15625,-0.421875,0.15625,89
90,1696244487898,0.6154785,-0.012023926,-0.7407837,-0.25,-0.625,0.171875,90
91,1696244487938,0.6130371,-0.008361816,-0.72906494,0.078125,-0.640625,0.234375,91
92,1696244487978,0.6088867,-0.020324707,-0.7283325,0.0625,-0.5625,0.3125,92
93,1696244488018,0.6062012,-0.020812988,-0.73223877,0.046875,-0.734375,0.234375,93
94,1696244488058,0.6125488,-0.014709473,-0.7293091,0.0625,-0.6875,0.34375,94
95,1696244488098,0.6140137,-0.01739502,-0.7324829,-0.125,-0.796875,0.265625,95
96,1696244488138,0.6166992,-0.015686035,-0.73101807,0.015625,-0.78125,0.25,96
97,1696244488178,0.6164551,-0.00982666,-0.73101807,0.203125,-0.65625,0.328125,97
98,1696244488218,0.6105957,-0.012512207,-0.7288208,-0.0625,-0.453125,0.28125,98
99,1696244488258,0.6130371,-0.011047363,-0.7349243,-0.125,-0.34375,0.296875,99
100,1696244488298,0.6125488,-0.016662598,-0.73809814,-0.3125,-0.65625,0.046875,100
101,1696244488338,0.6069336,-0.012268066,-0.7258911,-0.0625,-0.5,0.28125,101
102,1696244488378,0.6098633,-0.007873535,-0.7390747,-0.09375,-0.890625,0.1875,102
103,1696244488418,0.6159668,-0.019348145,-0.736145,0.015625,-0.84375,0.046875,103
104,1696244488458,0.61499023,-0.016906738,-0.7341919,0.328125,-1.296875,0.4375,104
105,1696244488498,0.62231445,-0.012756348,-0.7432251,0.234375,-1.34375,0.453125,105
106,1696244488538,0.60498047,-0.019104004,-0.72979736,0.625,-1.75,0.640625,106
107,1696244488578,0.61279297,-0.0134887695,-0.7241821,0.546875,-0.96875,0.46875,107
108,1696244488618,0.6203613,-0.0071411133,-0.7319946,-0.03125,-1.140625,0.28125,108
109,1696244488658,0.61865234,-0.0076293945,-0.72442627,0.09375,-0.9375,0.21875,109
110,1696244488698,0.6140137,-0.011047363,-0.72198486,-0.125,-0.78125,0.1875,110
111,1696244488738,0.62060547,-0.0051879883,-0.7295532,-0.125,-0.46875,0.09375,111
112,1696244488778,0.61865234,-0.008361816,-0.7366333,-0.0625,-0.359375,0.25,112
113,1696244488818,0.61499023,-0.010803223,-0.71832275,0.09375,-0.875,0.375,113
114,1696244488858,0.6123047,-0.007873535,-0.7324829,0.109375,-0.765625,0.09375,114
115,1696244488898,0.62353516,-0.0095825195,-0.73321533,-0.015625,-0.4375,0.0625,115
116,1696244488938,0.6159668,-0.00982666,-0.73223877,-0.203125,-0.328125,0.25,116
117,1696244488978,0.61279297,-0.00982666,-0.7337036,0.078125,-0.390625,0.3125,117
118,1696244489018,0.62060547,-0.010803223,-0.72735596,0.0625,-0.75,0.21875,118
119,1696244489058,0.61157227,-0.013977051,-0.72540283,-0.125,-0.9375,0.375,119
120,1696244489098,0.6171875,-0.0029907227,-0.7317505,-0.0625,-0.859375,0.421875,120
121,1696244489138,0.61694336,-0.008361816,-0.7268677,0.140625,-0.796875,0.328125,121
122,1696244489178,0.61621094,-0.010559082,-0.72369385,-0.15625,-0.859375,0.203125,122
123,1696244489218,0.6213379,-0.0015258789,-0.71588135,0.0625,-0.859375,0.21875,123
124,1696244489258,0.62402344,-0.008117676,-0.7383423,-0.046875,-0.359375,0.28125,124
125,1696244489298,0.61743164,-0.014221191,-0.72320557,0.09375,-0.78125,0.21875,125
126,1696244489338,0.6171875,-0.0115356445,-0.72784424,0.1875,-0.703125,0.4375,126
127,1696244489378,0.62109375,-0.013000488,-0.72613525,0.109375,-0.765625,0.265625,127
128,1696244489418,0.61328125,-0.009094238,-0.72491455,-0.046875,-0.578125,0.125,128
129,1696244489458,0.6140137,-0.0076293945,-0.736145,-0.15625,-0.453125,0.15625,129
130,1696244489498,0.6188965,-0.0068969727,-0.7407837,-0.03125,-0.375,0.3125,130
131,1696244489538,0.61987305,-0.010559082,-0.7246704,0.015625,-0.78125,0.375,131
132,1696244489578,0.61621094,-0.014953613,-0.7295532,0.09375,-0.671875,0.171875,132
133,1696244489618,0.61572266,-0.008361816,-0.73101807,0.015625,-0.625,0.140625,133
134,1696244489658,0.6154785,-0.0051879883,-0.72613525,0.046875,-0.796875,0.21875,134
135,1696244489698,0.6135254,-0.0134887695,-0.7271118,0.03125,-0.71875,0.125,135
136,1696244489738,0.6171875,-0.004211426,-0.7337036,0.171875,-0.828125,0.265625,136
137,1696244489778,0.62402344,-0.0115356445,-0.7307739,0.234375,-0.890625,0.34375,137
138,1696244489818,0.6230469,-0.0049438477,-0.725647,0.203125,-0.9375,0.359375,138
139,1696244489858,0.6220703,-0.0032348633,-0.7295532,0.109375,-0.875,0.390625,139
140,1696244489898,0.62109375,-0.008850098,-0.722229,0.234375,-0.671875,0.375,140
141,1696244489938,0.6105957,-0.009338379,-0.7229614,0.015625,-0.703125,0.3125,141
142,1696244489978,0.62109375,-0.0017700195,-0.7312622,-0.25,-0.515625,0.109375,142
143,1696244490018,0.62646484,-0.00030517578,-0.7354126,-0.140625,-0.265625,0.25,143
144,1696244490058,0.6159668,-0.012756348,-0.7168579,-0.296875,-0.4375,0.203125,144
145,1696244490098,0.6188965,-0.006164551,-0.72125244,-1.203125,0.734375,0.0,145
146,1696244490138,0.6101074,-0.011047363,-0.7180786,-1.390625,0.46875,-0.40625,146
147,1696244490178,0.6118164,-0.011779785,-0.72906494,-1.765625,0.984375,-0.5,147
148,1696244490218,0.61328125,-0.008605957,-0.73150635,-2.265625,1.140625,-0.53125,148
149,1696244490258,0.6188965,-0.014465332,-0.7241821,-2.40625,1.234375,-0.625,149
150,1696244490298,0.6135254,-0.024230957,-0.7337036,-2.28125,1.421875,-0.75,150
151,1696244490338,0.6022949,-0.022521973,-0.7402954,-1.921875,0.71875,-0.609375,151
152,1696244490378,0.6062012,-0.034973145,-0.7420044,-1.25,0.234375,-0.28125,152
153,1696244490418,0.6118164,-0.027893066,-0.7432251,-0.6875,-0.671875,0.03125,153
154,1696244490458,0.60595703,-0.030334473,-0.73150635,-0.265625,-0.796875,0.28125,154
155,1696244490498,0.61083984,-0.02911377,-0.73883057,0.265625,-0.671875,0.59375,155
156,1696244490538,0.6020508,-0.027160645,-0.72979736,1.390625,-1.296875,1.203125,156
157,1696244490578,0.61157227,-0.023010254,-0.7349243,1.25,-1.03125,0.921875,157
158,1696244490618,0.6154785,-0.019104004,-0.74664307,0.234375,-0.71875,0.234375,158
159,1696244490658,0.6052246,-0.01739502,-0.7373657,-0.171875,-0.46875,0.03125,159
160,1696244490698,0.6154785,-0.016174316,-0.7437134,-0.046875,-0.671875,0.34375,160
161,1696244490738,0.60302734,-0.02520752,-0.73101807,0.21875,-0.671875,0.46875,161
162,1696244490778,0.6113281,-0.02545166,-0.74298096,0.21875,-0.375,0.3125,162
163,1696244490818,0.6032715,-0.023986816,-0.72662354,0.1875,-0.703125,0.40625,163
164,1696244490858,0.6081543,-0.023742676,-0.737854,-0.0625,-0.375,0.328125,164
165,1696244490898,0.60717773,-0.02178955,-0.7366333,-0.15625,-0.625,0.171875,165
166,1696244490938,0.6064453,-0.01763916,-0.73516846,0.0,-0.59375,0.171875,166
167,1696244490978,0.6069336,-0.015930176,-0.74224854,-0.0625,-0.625,0.328125,167
168,1696244491018,0.60839844,-0.016174316,-0.7439575,-0.09375,-0.75,0.375,168
169,1696244491058,0.61328125,-0.013977051,-0.7481079,-0.265625,-0.578125,0.03125,169
170,1696244491098,0.6044922,-0.022277832,-0.72906494,0.140625,-0.6875,0.359375,170
171,1696244491138,0.6074219,-0.022766113,-0.7366333,0.09375,-0.4375,0.359375,171
172,1696244491178,0.6105957,-0.018371582,-0.7337036,0.234375,-0.65625,0.34375,172
173,1696244491218,0.6098633,-0.015197754,-0.7341919,0.0625,-0.6875,0.203125,173
174,1696244491258,0.6105957,-0.017150879,-0.7476196,-0.109375,-0.59375,0.296875,174
175,1696244491298,0.6098633,-0.020324707,-0.7371216,0.015625,-0.65625,0.296875,175
176,1696244491338,0.6123047,-0.023498535,-0.73394775,0.078125,-0.671875,0.28125,176
177,1696244491378,0.6074219,-0.014953613,-0.73321533,0.0625,-0.75,0.296875,177
178,1696244491418,0.60498047,-0.024475098,-0.74468994,-0.21875,-0.53125,0.03125,178
179,1696244491458,0.6098633,-0.018859863,-0.7366333,-0.171875,-0.4375,0.140625,179
180,1696244491498,0.6057129,-0.01763916,-0.72784424,0.0625,-0.59375,0.421875,180
181,1696244491538,0.60791016,-0.019836426,-0.7346802,0.15625,-0.734375,0.5,181
182,1696244491578,0.60961914,-0.017150879,-0.74346924,0.03125,-0.578125,0.234375,182
183,1696244491618,0.609375,-0.014221191,-0.7398071,-0.140625,-0.546875,0.125,183
184,1696244491658,0.6052246,-0.017150879,-0.73321533,0.140625,-0.59375,0.203125,184
185,1696244491698,0.6064453,-0.0115356445,-0.73516846,-0.0625,-0.5625,0.25,185
186,1696244491738,0.6069336,-0.017150879,-0.7317505,0.109375,-0.78125,0.3125,186
187,1696244491778,0.6113281,-0.013977051,-0.73150635,-0.0625,-0.546875,0.375,187
188,1696244491818,0.60595703,-0.016174316,-0.737854,0.140625,-0.609375,0.359375,188
189,1696244491858,0.60424805,-0.012512207,-0.7385864,-0.34375,-0.40625,0.1875,189
190,1696244491898,0.6040039,-0.016906738,-0.73028564,-0.078125,-0.75,0.109375,190
191,1696244491938,0.60913086,-0.016662598,-0.7451782,0.0625,-0.625,0.078125,191
192,1696244491978,0.6101074,-0.008605957,-0.74346924,0.046875,-0.671875,0.328125,192
193,1696244492018,0.5986328,-0.0115356445,-0.7449341,0.015625,-0.671875,0.328125,193
194,1696244492058,0.60375977,-0.020812988,-0.7324829,-0.125,-0.578125,0.34375,194
195,1696244492098,0.60595703,-0.027404785,-0.72198486,0.21875,-0.640625,0.234375,195
196,1696244492138,0.6047363,-0.022277832,-0.7366333,-0.03125,-0.578125,0.265625,196
197,1696244492178,0.6176758,-0.012023926,-0.74102783,-0.078125,-0.390625,0.296875,197
198,1696244492218,0.60595703,-0.011047363,-0.7276001,0.125,-0.53125,0.359375,198
199,1696244492258,0.6044922,-0.014221191,-0.7268677,0.21875,-0.75,0.34375,199
200,1696244492298,0.6184082,-0.011047363,-0.7461548,-0.109375,-0.625,0.21875,200
201,1696244492338,0.6135254,-0.016174316,-0.7359009,-0.109375,-0.515625,0.078125,201
202,1696244492378,0.6027832,-0.01763916,-0.73394775,-0.1875,-0.59375,0.234375,202
203,1696244492418,0.60131836,-0.016662598,-0.72247314,0.078125,-0.765625,0.390625,203
204,1696244492458,0.60791016,-0.023010254,-0.73883057,-0.046875,-0.65625,0.328125,204
205,1696244492498,0.60839844,-0.019104004,-0.74005127,-0.03125,-0.71875,0.328125,205
206,1696244492538,0.6088867,-0.017150879,-0.74224854,-0.21875,-0.71875,0.1875,206
207,1696244492578,0.6081543,-0.010559082,-0.7366333,-0.03125,-0.71875,0.171875,207
208,1696244492618,0.6064453,-0.014221191,-0.7359009,-0.09375,-0.765625,0.28125,208
209,1696244492658,0.6098633,-0.014221191,-0.72979736,0.140625,-0.796875,0.3125,209
210,1696244492698,0.60375977,-0.014709473,-0.7346802,0.125,-0.984375,0.34375,210
211,1696244492738,0.6142578,-0.016418457,-0.7341919,0.09375,-0.71875,0.296875,211
212,1696244492778,0.60791016,-0.0134887695,-0.73443604,-0.125,-0.59375,0.21875,212
213,1696244492818,0.5966797,-0.017150879,-0.7271118,0.03125,-0.65625,0.359375,213
214,1696244492858,0.6069336,-0.013000488,-0.7227173,0.078125,-0.59375,0.21875,214
215,1696244492898,0.6101074,-0.0178833,-0.7341919,0.0625,-0.8125,0.515625,215
216,1696244492938,0.60717773,-0.015197754,-0.74591064,-0.125,-0.53125,0.109375,216
217,1696244492978,0.60180664,-0.0056762695,-0.7383423,0.15625,-0.890625,0.296875,217
218,1696244493018,0.61035156,-0.01739502,-0.7383423,0.046875,-0.578125,0.171875,218
219,1696244493058,0.6152344,-0.008361816,-0.7276001,-0.03125,-0.90625,0.203125,219
220,1696244493098,0.60791016,-0.015197754,-0.73101807,-0.03125,-0.703125,0.125,220
221,1696244493138,0.6135254,-0.00982666,-0.7341919,-0.0625,-0.359375,0.171875,221
222,1696244493178,0.6022949,-0.014465332,-0.7319946,-0.234375,-0.703125,0.359375,222
223,1696244493218,0.60791016,-0.016906738,-0.7307739,0.0,-0.6875,0.203125,223
224,1696244493258,0.611084,-0.00982666,-0.7334595,-0.109375,-0.609375,0.203125,224
225,1696244493298,0.61206055,-0.012756348,-0.7371216,0.015625,-0.703125,0.296875,225
226,1696244493338,0.6118164,-0.012268066,-0.7341919,0.046875,-0.703125,0.328125,226
227,1696244493378,0.6074219,-0.015686035,-0.72979736,0.078125,-0.609375,0.40625,227
228,1696244493418,0.60180664,-0.014953613,-0.72613525,0.0,-0.609375,0.265625,228
229,1696244493458,0.61279297,-0.018371582,-0.74102783,-0.203125,-0.515625,0.21875,229
230,1696244493498,0.6088867,-0.016662598,-0.72857666,-0.109375,-0.578125,0.21875,230
231,1696244493538,0.61035156,-0.009094238,-0.7300415,-1.4375,0.578125,-0.40625,231
232,1696244493578,0.60961914,-0.024719238,-0.7390747,-1.46875,0.6875,-0.65625,232
233,1696244493618,0.6062012,-0.010070801,-0.74420166,-1.09375,0.3125,-0.1875,233
234,1696244493658,0.6098633,-0.016906738,-0.7366333,-1.09375,0.015625,-0.375,234
235,1696244493698,0.6159668,-0.028869629,-0.75323486,-1.453125,0.3125,-0.25,235
236,1696244493738,0.5998535,-0.03277588,-0.7346802,-1.359375,0.203125,-0.40625,236
237,1696244493778,0.6015625,-0.0256958,-0.7390747,-1.140625,-0.203125,-0.265625,237
238,1696244493818,0.60375977,-0.031066895,-0.7371216,-0.796875,-0.296875,-0.265625,238
239,1696244493858,0.5986328,-0.027648926,-0.736145,-0.484375,-0.34375,0.0,239
240,1696244493898,0.6032715,-0.02911377,-0.7407837,-0.125,-0.671875,0.25,240
241,1696244493938,0.61035156,-0.03277588,-0.74957275,0.359375,-0.5625,0.6875,241
242,1696244493978,0.60498047,-0.034240723,-0.7437134,0.796875,-1.15625,0.71875,242
243,1696244494018,0.6142578,-0.027160645,-0.74884033,0.3125,-0.75,0.375,243
244,1696244494058,0.60791016,-0.0256958,-0.7407837,0.28125,-0.8125,0.328125,244
245,1696244494098,0.60424805,-0.026916504,-0.7349243,-0.015625,-0.734375,0.21875,245
246,1696244494138,0.60717773,-0.02545166,-0.7263794,0.046875,-0.734375,0.203125,246
247,1696244494178,0.6062012,-0.018127441,-0.75128174,0.203125,-0.59375,0.421875,247
248,1696244494218,0.6035156,-0.021057129,-0.7371216,-0.015625,-0.53125,0.40625,248
249,1696244494258,0.6081543,-0.020324707,-0.74468994,0.125,-0.65625,0.140625,249
250,1696244494298,0.6062012,-0.023010254,-0.7432251,0.140625,-0.625,0.203125,250
251,1696244494338,0.607666,-0.010803223,-0.73443604,0.0625,-0.65625,0.1875,251
252,1696244494378,0.607666,-0.023254395,-0.73760986,0.125,-0.28125,0.375,252
253,1696244494418,0.6105957,-0.016906738,-0.7398071,-0.109375,-0.375,0.390625,253
254,1696244494458,0.60180664,-0.027648926,-0.7295532,0.015625,-0.6875,0.203125,254
255,1696244494498,0.6088867,-0.02130127,-0.739563,0.03125,-0.640625,0.21875,255
256,1696244494538,0.6047363,-0.01373291,-0.7359009,0.234375,-0.625,0.34375,256
257,1696244494578,0.60302734,-0.019836426,-0.7295532,0.03125,-0.328125,0.3125,257
258,1696244494618,0.60913086,-0.01739502,-0.7498169,-0.140625,-0.75,0.109375,258
259,1696244494658,0.6027832,-0.02545166,-0.72906494,0.046875,-0.8125,0.4375,259
260,1696244494698,0.60375977,-0.02520752,-0.73150635,0.140625,-0.65625,0.484375,260
261,1696244494738,0.60668945,-0.024963379,-0.74176025,0.09375,-0.734375,0.234375,261
262,1696244494778,0.60717773,-0.022766113,-0.739563,0.15625,-0.578125,0.15625,262
263,1696244494818,0.6057129,-0.022521973,-0.73394775,0.125,-0.8125,0.203125,263
264,1696244494858,0.6057129,-0.018371582,-0.74176025,0.1875,-0.671875,0.5,264
265,1696244494898,0.6052246,-0.019348145,-0.7373657,0.25,-0.78125,0.40625,265
266,1696244494938,0.6123047,-0.016418457,-0.75006104,-0.296875,-0.4375,0.15625,266
267,1696244494978,0.6015625,-0.019104004,-0.7398071,-0.125,-0.5,0.203125,267
268,1696244495018,0.61035156,-0.020568848,-0.74420166,-0.203125,-0.578125,0.0625,268
269,1696244495058,0.6052246,-0.015197754,-0.7493286,-0.125,-0.859375,0.265625,269
270,1696244495098,0.60913086,-0.018859863,-0.7288208,0.0625,-0.46875,0.34375,270
271,1696244495138,0.6113281,-0.019592285,-0.7407837,0.015625,-0.34375,0.09375,271
272,1696244495178,0.59887695,-0.02520752,-0.7280884,0.21875,-0.5625,0.359375,272
273,1696244495218,0.60791016,-0.019348145,-0.7415161,0.171875,-0.703125,0.40625,273
274,1696244495258,0.60791016,-0.020568848,-0.7398071,-0.140625,-0.59375,0.1875,274
275,1696244495298,0.5991211,-0.021057129,-0.7329712,-0.203125,-0.5625,0.171875,275
276,1696244495338,0.6027832,-0.016906738,-0.7349243,-0.0625,-0.671875,0.15625,276
277,1696244495378,0.60717773,-0.025939941,-0.7334595,-0.046875,-0.484375,0.15625,277
278,1696244495418,0.6088867,-0.020080566,-0.737854,-0.015625,-0.59375,0.296875,278
279,1696244495458,0.60791016,-0.014709473,-0.7420044,-0.078125,-0.53125,0.234375,279
280,1696244495498,0.60253906,-0.01739502,-0.7346802,-0.015625,-0.765625,0.265625,280
281,1696244495538,0.6171875,-0.011047363,-0.74176025,-0.1875,-0.609375,0.0625,281
282,1696244495578,0.6147461,-0.0134887695,-0.74468994,0.015625,-0.75,0.1875,282
283,1696244495618,0.6213379,-0.012756348,-0.7437134,-0.046875,-0.609375,0.25,283
284,1696244495658,0.61157227,-0.014221191,-0.74786377,0.0625,-1.09375,0.359375,284
285,1696244495698,0.60668945,-0.012512207,-0.73931885,0.25,-1.015625,0.40625,285
286,1696244495738,0.60791016,-0.019836426,-0.739563,0.09375,-1.078125,0.375,286
287,1696244495778,0.60375977,-0.023254395,-0.7337036,0.25,-1.203125,0.328125,287
288,1696244495818,0.6125488,-0.0095825195,-0.73931885,-0.09375,-0.984375,0.25,288
289,1696244495858,0.609375,-0.020324707,-0.73223877,0.109375,-0.546875,0.34375,289
290,1696244495898,0.6159668,-0.02178955,-0.74053955,-0.265625,-0.234375,0.140625,290
291,1696244495938,0.6074219,-0.0178833,-0.7305298,-0.125,-0.734375,0.28125,291
292,1696244495978,0.60913086,-0.013000488,-0.739563,-0.046875,-0.515625,0.203125,292
293,1696244496018,0.60595703,-0.012756348,-0.7354126,0.21875,-0.65625,0.265625,293
294,1696244496058,0.6125488,-0.016418457,-0.73809814,0.515625,-0.84375,0.515625,294
295,1696244496098,0.61328125,-0.014221191,-0.74224854,0.03125,-0.703125,0.21875,295
296,1696244496138,0.6196289,-0.005432129,-0.74591064,0.046875,-0.5625,0.296875,296
297,1696244496178,0.60717773,-0.02178955,-0.7366333,0.046875,-0.640625,0.359375,297
298,1696244496218,0.61279297,-0.008850098,-0.73150635,0.0625,-0.828125,0.28125,298
299,1696244496258,0.61206055,-0.0134887695,-0.73394775,0.0625,-0.734375,0.25,299
300,1696244496298,0.6086426,-0.010559082,-0.7390747,-0.09375,-0.75,0.109375,300
301,1696244496338,0.61279297,-0.012512207,-0.73394775,0.03125,-0.671875,0.234375,301
302,1696244496378,0.6022949,-0.02130127,-0.72735596,-0.140625,-0.46875,0.453125,302
303,1696244496418,0.6135254,-0.00982666,-0.74664307,-0.1875,-0.765625,0.265625,303
304,1696244496458,0.6086426,-0.016418457,-0.7319946,0.015625,-0.71875,0.234375,304
305,1696244496498,0.60791016,-0.015930176,-0.73321533,0.03125,-0.734375,0.125,305
306,1696244496538,0.60717773,-0.014709473,-0.73809814,0.3125,-0.796875,0.484375,306
307,1696244496578,0.6098633,-0.00592041,-0.7383423,-0.015625,-0.71875,0.265625,307
308,1696244496618,0.6125488,-0.009338379,-0.74176025,-0.140625,-0.109375,0.125,308
309,1696244496658,0.60058594,-0.013244629,-0.7300415,-0.546875,-0.09375,-0.15625,309
310,1696244496698,0.60375977,-0.01373291,-0.72613525,-0.71875,-0.734375,-0.109375,310
311,1696244496738,0.6125488,-0.019592285,-0.7324829,-0.546875,-0.234375,-0.0625,311
312,1696244496778,0.6203613,-0.0115356445,-0.7437134,-0.59375,-0.171875,0.0,312
313,1696244496818,0.607666,-0.0154418945,-0.74346924,-0.09375,-0.5625,0.1875,313
314,1696244496858,0.60546875,-0.018371582,-0.7366333,-0.109375,-0.71875,0.140625,314
315,1696244496898,0.6074219,-0.02178955,-0.7312622,-0.296875,-0.796875,0.09375,315
316,1696244496938,0.60668945,-0.023254395,-0.7276001,-0.375,-0.984375,-0.046875,316
317,1696244496978,0.6064453,-0.019592285,-0.7227173,-0.546875,-0.6875,0.03125,317
318,1696244497018,0.6081543,-0.02178955,-0.73443604,-0.4375,-0.46875,-0.078125,318
319,1696244497058,0.6086426,-0.022521973,-0.7319946,-0.625,-0.34375,0.015625,319
320,1696244497098,0.6179199,-0.016906738,-0.739563,-0.5625,-0.59375,0.0,320
321,1696244497138,0.61279297,-0.013000488,-0.739563,-0.65625,-0.25,0.015625,321
322,1696244497178,0.60424805,-0.023498535,-0.7334595,-0.609375,-0.375,-0.078125,322
323,1696244497218,0.6064453,-0.022521973,-0.73272705,-0.40625,-0.34375,0.0,323
324,1696244497258,0.6057129,-0.022033691,-0.7354126,-0.734375,-0.296875,0.078125,324
325,1696244497298,0.60424805,-0.028869629,-0.72784424,-0.890625,-0.109375,-0.09375,325
326,1696244497338,0.6086426,-0.027648926,-0.73883057,-0.671875,-0.234375,-0.0625,326
327,1696244497378,0.6086426,-0.026916504,-0.7490845,-0.703125,-0.390625,0.0,327
328,1696244497418,0.60131836,-0.023986816,-0.72491455,-0.4375,-0.234375,0.1875,328
329,1696244497458,0.6081543,-0.022033691,-0.73394775,0.703125,-0.5,0.75,329
330,1696244497498,0.5983887,-0.026672363,-0.72906494,0.546875,-0.53125,0.46875,330
331,1696244497538,0.61450195,-0.020324707,-0.7468872,0.0,-0.34375,0.265625,331
332,1696244497578,0.59716797,-0.020080566,-0.7283325,-0.03125,-0.671875,0.3125,332
333,1696244497618,0.60961914,-0.020080566,-0.7437134,-0.125,-0.609375,0.265625,333
334,1696244497658,0.60913086,-0.02545166,-0.74053955,-0.09375,-0.359375,0.234375,334
335,1696244497698,0.5949707,-0.030334473,-0.7427368,-0.375,-0.46875,0.140625,335
336,1696244497738,0.6027832,-0.026672363,-0.7390747,-0.046875,-0.234375,0.21875,336
337,1696244497778,0.5991211,-0.022766113,-0.736145,0.234375,-0.59375,0.40625,337
338,1696244497818,0.60058594,-0.02178955,-0.7415161,0.359375,-0.609375,0.390625,338
339,1696244497858,0.6135254,-0.019348145,-0.74420166,0.140625,-0.9375,0.328125,339
340,1696244497898,0.6125488,-0.018615723,-0.74542236,-0.03125,-0.640625,0.28125,340
341,1696244497938,0.6008301,-0.02130127,-0.7402954,-0.21875,-0.40625,0.109375,341
342,1696244497978,0.60131836,-0.022766113,-0.7312622,-0.0625,-0.65625,0.265625,342
343,1696244498018,0.60595703,-0.02178955,-0.74346924,0.171875,-0.4375,0.296875,343
344,1696244498058,0.60058594,-0.026428223,-0.7437134,-0.203125,-0.421875,0.328125,344
345,1696244498098,0.6003418,-0.02130127,-0.7288208,0.125,-0.640625,0.46875,345
346,1696244498138,0.59350586,-0.023498535,-0.72979736,0.15625,-0.828125,0.46875,346
347,1696244498178,0.60009766,-0.014221191,-0.73883057,-0.0625,-0.265625,0.40625,347
348,1696244498218,0.59643555,-0.020080566,-0.7300415,0.328125,-0.84375,0.375,348
349,1696244498258,0.6057129,-0.025939941,-0.73760986,-0.015625,-0.578125,0.1875,349
350,1696244498298,0.5996094,-0.03643799,-0.7398071,-0.0625,-0.640625,0.0625,350
351,1696244498338,0.6086426,-0.01739502,-0.74957275,-0.296875,-0.4375,0.0625,351
352,1696244498378,0.60253906,-0.020812988,-0.7359009,-0.203125,-0.46875,0.0625,352
353,1696244498418,0.6008301,-0.025939941,-0.7271118,-0.0625,-0.6875,0.328125,353
354,1696244498458,0.6047363,-0.027404785,-0.73101807,-0.09375,-0.359375,0.296875,354
355,1696244498498,0.6057129,-0.023742676,-0.73809814,-0.125,-0.5625,0.25,355
356,1696244498538,0.60058594,-0.023498535,-0.73565674,0.0625,-0.703125,0.515625,356
357,1696244498578,0.60302734,-0.023010254,-0.7354126,-0.109375,-0.71875,0.0625,357
358,1696244498618,0.60595703,-0.019104004,-0.7390747,-0.078125,-0.859375,0.265625,358
359,1696244498658,0.61157227,-0.014709473,-0.74542236,-0.25,-0.546875,-0.09375,359
360,1696244498698,0.59375,-0.023498535,-0.7407837,-0.21875,-0.609375,0.140625,360
361,1696244498738,0.5966797,-0.021057129,-0.73150635,-0.171875,-0.65625,0.265625,361
362,1696244498778,0.6064453,-0.015197754,-0.7337036,0.109375,-0.5625,0.171875,362
363,1696244498818,0.6035156,-0.023986816,-0.73565674,0.171875,-0.65625,0.375,363
364,1696244498858,0.59521484,-0.022521973,-0.7319946,0.203125,-0.984375,0.46875,364
365,1696244498898,0.60961914,-0.0154418945,-0.7505493,0.078125,-0.53125,0.3125,365
366,1696244498938,0.6040039,-0.019348145,-0.7373657,-0.03125,-0.609375,0.15625,366
367,1696244498978,0.59936523,-0.02911377,-0.7305298,-0.015625,-0.734375,0.15625,367
368,1696244499018,0.6027832,-0.016662598,-0.7359009,-0.25,-0.546875,0.15625,368
369,1696244499058,0.60302734,-0.016174316,-0.7366333,-0.078125,-0.671875,0.234375,369
370,1696244499098,0.6098633,-0.017150879,-0.7312622,0.125,-0.703125,0.234375,370
371,1696244499138,0.60180664,-0.020080566,-0.74468994,0.015625,-0.640625,0.3125,371
372,1696244499178,0.6101074,-0.02178955,-0.73638916,0.015625,-0.484375,0.234375,372
373,1696244499218,0.60253906,-0.019348145,-0.73760986,-0.0625,-0.59375,0.265625,373
374,1696244499258,0.6062012,-0.022277832,-0.7390747,0.03125,-0.703125,0.265625,374
375,1696244499298,0.6052246,-0.01739502,-0.74176025,-0.078125,-0.671875,0.28125,375
376,1696244499338,0.60595703,-0.020324707,-0.7293091,0.0,-0.734375,0.390625,376
377,1696244499378,0.6074219,-0.027160645,-0.7366333,0.140625,-0.796875,0.40625,377
378,1696244499418,0.6047363,-0.023254395,-0.73223877,0.21875,-0.796875,0.359375,378
379,1696244499458,0.60253906,-0.028137207,-0.7359009,-0.203125,-0.625,0.109375,379
380,1696244499498,0.609375,-0.017150879,-0.74176025,-0.125,-0.625,0.1875,380
381,1696244499538,0.6044922,-0.023498535,-0.73638916,0.203125,-0.828125,0.34375,381
382,1696244499578,0.60058594,-0.0178833,-0.7156372,0.1875,-1.25,0.390625,382
383,1696244499618,0.61376953,-0.018127441,-0.74053955,0.0625,-0.453125,0.40625,383
384,1696244499658,0.6047363,-0.014709473,-0.74005127,0.109375,-0.6875,0.3125,384
385,1696244499698,0.60546875,-0.022277832,-0.7341919,-0.015625,-0.65625,0.15625,385
386,1696244499738,0.6062012,-0.016174316,-0.74298096,-0.0625,-0.46875,0.109375,386
387,1696244499778,0.60839844,-0.015930176,-0.73565674,-0.109375,-0.75,0.1875,387
388,1696244499818,0.6062012,-0.014953613,-0.7354126,-0.1875,-0.5625,0.203125,388
389,1696244499858,0.61083984,-0.018615723,-0.74102783,0.0625,-0.671875,0.4375,389
390,1696244499898,0.61279297,-0.020568848,-0.7354126,0.015625,-0.546875,0.4375,390
391,1696244499938,0.61083984,-0.017150879,-0.73883057,-0.125,-0.34375,0.25,391
392,1696244499978,0.60546875,-0.022033691,-0.73565674,-0.125,-0.53125,0.390625,392
393,1696244500018,0.60498047,-0.01739502,-0.7349243,-0.203125,-0.609375,0.203125,393
394,1696244500058,0.60668945,-0.013244629,-0.73883057,-0.078125,-0.671875,0.15625,394
395,1696244500098,0.61035156,-0.010559082,-0.741272,-0.15625,-0.578125,0.21875,395
396,1696244500138,0.60302734,-0.018371582,-0.7415161,0.046875,-0.46875,0.3125,396
397,1696244500178,0.6047363,-0.016662598,-0.73272705,-0.0625,-0.734375,0.328125,397
398,1696244500218,0.6101074,-0.018615723,-0.74053955,-0.015625,-0.703125,0.21875,398
399,1696244500258,0.60668945,-0.019592285,-0.73565674,0.1875,-1.046875,0.4375,399
400,1696244500298,0.6035156,-0.01373291,-0.741272,0.328125,-0.984375,0.390625,400
401,1696244500338,0.61694336,-0.007873535,-0.7468872,0.25,-0.84375,0.4375,401
402,1696244500378,0.6040039,-0.017150879,-0.73028564,0.234375,-0.9375,0.4375,402
403,1696244500418,0.6069336,-0.014221191,-0.7280884,0.390625,-0.984375,0.21875,403
404,1696244500458,0.607666,-0.016174316,-0.7349243,-0.03125,-0.921875,0.140625,404
405,1696244500498,0.6142578,-0.0068969727,-0.7383423,-0.03125,-0.4375,0.1875,405
406,1696244500538,0.6105957,-0.014709473,-0.7276001,0.078125,-0.453125,0.3125,406
407,1696244500578,0.6130371,-0.01763916,-0.7354126,-0.015625,-0.65625,0.265625,407
408,1696244500618,0.6069336,-0.016418457,-0.73760986,-0.0625,-0.5625,0.28125,408
409,1696244500658,0.6135254,-0.015197754,-0.7373657,0.046875,-0.65625,0.125,409
410,1696244500698,0.6069336,-0.018615723,-0.73565674,0.15625,-0.78125,0.203125,410
411,1696244500738,0.60498047,-0.018615723,-0.73638916,0.078125,-0.71875,0.28125,411
412,1696244500778,0.609375,-0.010070801,-0.73443604,0.0625,-0.875,0.125,412
413,1696244500818,0.6088867,-0.0134887695,-0.736145,0.21875,-0.75,0.296875,413
414,1696244500858,0.6081543,-0.015686035,-0.73638916,0.234375,-0.90625,0.296875,414
415,1696244500898,0.61279297,-0.015686035,-0.73516846,0.046875,-0.6875,0.328125,415
416,1696244500938,0.61035156,-0.016906738,-0.7371216,0.21875,-0.671875,0.359375,416
417,1696244500978,0.61206055,-0.0134887695,-0.72784424,0.3125,-0.984375,0.359375,417
418,1696244501018,0.60961914,-0.009338379,-0.71466064,0.375,-1.0625,0.5,418
419,1696244501058,0.626709,-0.003967285,-0.7463989,0.0625,-0.375,0.25,419
420,1696244501098,0.60424805,-0.013244629,-0.7295532,0.015625,-0.734375,0.234375,420
421,1696244501138,0.60839844,-0.010803223,-0.73394775,0.09375,-0.671875,0.453125,421
422,1696244501178,0.6101074,-0.018615723,-0.73931885,0.0,-0.671875,0.3125,422
423,1696244501218,0.6069336,-0.0068969727,-0.7324829,-0.015625,-0.625,0.28125,423
424,1696244501258,0.6123047,-0.003967285,-0.74005127,-0.03125,-0.546875,0.140625,424
425,1696244501298,0.6118164,-0.0032348633,-0.7373657,-0.0625,-0.546875,0.21875,425
426,1696244501338,0.61499023,-0.014465332,-0.7373657,-0.1875,-0.78125,0.28125,426
427,1696244501378,0.6101074,-0.01373291,-0.72979736,0.15625,-0.75,0.40625,427
428,1696244501418,0.60961914,-0.014221191,-0.73394775,0.046875,-0.671875,0.3125,428
429,1696244501458,0.60913086,-0.006652832,-0.7402954,-0.171875,-0.65625,0.234375,429
430,1696244501498,0.61083984,-0.0044555664,-0.73687744,-0.03125,-0.875,0.265625,430
431,1696244501538,0.6118164,-0.0068969727,-0.7371216,0.0,-0.796875,0.3125,431
432,1696244501578,0.61572266,0.003112793,-0.7383423,-0.015625,-0.8125,0.25,432
433,1696244501618,0.61450195,-0.0032348633,-0.7324829,0.015625,-0.703125,0.28125,433
434,1696244501658,0.6123047,-0.010803223,-0.73516846,-0.046875,-0.71875,0.34375,434
435,1696244501698,0.6220703,-0.007873535,-0.74468994,-0.234375,-1.453125,0.390625,435
436,1696244501738,0.6130371,-0.009338379,-0.7210083,0.265625,-1.984375,0.359375,436
437,1696244501778,0.6164551,-0.0115356445,-0.736145,-0.046875,-1.21875,0.25,437
438,1696244501818,0.6113281,-0.008117676,-0.7258911,0.09375,-1.21875,0.328125,438
439,1696244501858,0.61694336,-0.008605957,-0.7300415,0.03125,-0.640625,0.28125,439
440,1696244501898,0.61694336,-0.006652832,-0.7337036,-0.125,-0.484375,0.203125,440
441,1696244501938,0.61450195,-0.0064086914,-0.7354126,-0.015625,-0.5,0.203125,441
442,1696244501978,0.62109375,-0.00030517578,-0.7307739,-0.015625,-0.515625,0.28125,442
443,1696244502018,0.6152344,-0.0134887695,-0.7241821,0.125,-0.671875,0.3125,443
444,1696244502058,0.61572266,-0.011047363,-0.723938,0.0625,-0.734375,0.328125,444
445,1696244502098,0.609375,-0.013977051,-0.71881104,0.1875,-0.71875,0.359375,445
446,1696244502138,0.61694336,-0.0095825195,-0.72735596,0.140625,-0.859375,0.390625,446
447,1696244502178,0.62353516,-0.004211426,-0.72979736,0.171875,-0.9375,0.09375,447
448,1696244502218,0.61572266,-0.004699707,-0.7383423,-0.1875,-0.53125,0.09375,448
449,1696244502258,0.61938477,-0.0032348633,-0.73321533,-0.1875,-0.609375,0.09375,449
450,1696244502298,0.62109375,-0.0064086914,-0.72857666,-0.046875,-0.609375,0.234375,450
451,1696244502338,0.6130371,-0.004211426,-0.7246704,0.09375,-0.8125,0.390625,451
452,1696244502378,0.61621094,-0.009094238,-0.7251587,0.109375,-0.921875,0.328125,452
453,1696244502418,0.60791016,-0.0049438477,-0.7246704,-0.21875,-0.75,0.28125,453
454,1696244502458,0.623291,-0.0044555664,-0.7307739,-0.359375,-0.4375,0.1875,454
455,1696244502498,0.6130371,-0.010559082,-0.72076416,-0.171875,-0.78125,0.265625,455
456,1696244502538,0.6166992,-0.0076293945,-0.72906494,-0.078125,-0.65625,0.28125,456
457,1696244502578,0.61987305,-0.010803223,-0.73394775,-0.140625,-0.5625,0.15625,457
458,1696244502618,0.6191406,-0.009094238,-0.7246704,-0.015625,-0.703125,0.265625,458
459,1696244502658,0.6125488,-0.009094238,-0.7283325,0.015625,-0.71875,0.234375,459
460,1696244502698,0.6179199,-0.0068969727,-0.7217407,0.171875,-0.40625,0.421875,460
461,1696244502738,0.61572266,-0.0064086914,-0.72979736,0.046875,-0.484375,0.21875,461
462,1696244502778,0.6188965,-0.0134887695,-0.7246704,-0.140625,-0.640625,0.375,462
463,1696244502818,0.6201172,-0.011291504,-0.73223877,-0.046875,-0.796875,0.203125,463
464,1696244502858,0.6191406,-0.005432129,-0.7300415,0.0,-0.828125,0.171875,464
465,1696244502898,0.62939453,-0.004211426,-0.73272705,-0.015625,-0.640625,0.375,465
466,1696244502938,0.6191406,-0.0017700195,-0.73272705,-0.09375,-0.96875,0.09375,466
467,1696244502978,0.62353516,0.0038452148,-0.7276001,0.0625,-1.0,0.109375,467
468,1696244503018,0.61572266,-0.0049438477,-0.7283325,0.03125,-0.828125,0.265625,468
469,1696244503058,0.6176758,-0.009094238,-0.7214966,0.03125,-0.828125,0.328125,469
470,1696244503098,0.6196289,-0.0005493164,-0.7307739,-0.171875,-0.953125,0.3125,470
471,1696244503138,0.6218262,-0.016174316,-0.7366333,0.109375,-0.546875,0.140625,471
472,1696244503178,0.6308594,-0.008605957,-0.7385864,-0.328125,-0.40625,0.046875,472
473,1696244503218,0.6171875,-0.0064086914,-0.72320557,-0.234375,-0.59375,0.0625,473
474,1696244503258,0.6218262,-0.007873535,-0.73150635,-0.203125,-0.71875,0.171875,474
475,1696244503298,0.6113281,-0.010070801,-0.7280884,-0.078125,-0.59375,0.421875,475
476,1696244503338,0.6188965,-0.0005493164,-0.7217407,0.046875,-0.5,0.46875,476
477,1696244503378,0.6213379,-0.012023926,-0.73687744,0.578125,-0.625,0.609375,477
478,1696244503418,0.61987305,-0.0037231445,-0.7192993,0.671875,-1.078125,0.546875,478
479,1696244503458,0.62109375,0.00091552734,-0.73883057,0.1875,-0.671875,0.328125,479
480,1696244503498,0.6220703,-0.006652832,-0.7268677,0.1875,-1.015625,0.390625,480
481,1696244503538,0.62524414,-0.0049438477,-0.72076416,0.15625,-1.171875,0.296875,481
482,1696244503578,0.6254883,-0.0012817383,-0.71710205,0.03125,-1.21875,0.234375,482
483,1696244503618,0.6191406,-0.004211426,-0.71832275,0.234375,-0.9375,0.15625,483
484,1696244503658,0.6254883,0.0038452148,-0.72735596,-0.09375,-0.96875,0.15625,484
485,1696244503698,0.6315918,-0.0037231445,-0.7288208,-0.046875,-0.6875,0.25,485
486,1696244503738,0.6164551,-0.0051879883,-0.7263794,-0.046875,-0.5625,0.171875,486
487,1696244503778,0.623291,-0.006164551,-0.7283325,-0.125,-0.640625,0.15625,487
488,1696244503818,0.62939453,-0.00079345703,-0.72540283,-0.0625,-0.640625,0.328125,488
489,1696244503858,0.6218262,-0.002746582,-0.737854,-0.046875,-0.453125,0.296875,489
490,1696244503898,0.62475586,0.00091552734,-0.72857666,-0.171875,-0.625,0.25,490
491,1696244503938,0.6274414,0.0026245117,-0.7156372,-0.21875,-0.734375,0.203125,491
492,1696244503978,0.623291,-0.0049438477,-0.72320557,0.015625,-0.46875,0.21875,492
493,1696244504018,0.62646484,-0.0012817383,-0.72540283,-0.125,-0.734375,0.28125,493
494,1696244504058,0.6176758,0.00091552734,-0.71954346,0.078125,-0.375,0.40625,494
495,1696244504098,0.6269531,0.0028686523,-0.7390747,-0.25,-0.0625,0.140625,495
496,1696244504138,0.6242676,-0.005432129,-0.72442627,0.03125,-0.25,0.125,496
497,1696244504178,0.6201172,-0.00592041,-0.7337036,-0.328125,-0.28125,0.171875,497
498,1696244504218,0.61376953,-0.005432129,-0.722229,-0.328125,-0.859375,0.1875,498
499,1696244504258,0.61694336,-0.0064086914,-0.7168579,-0.015625,-1.046875,0.203125,499
500,1696244504298,0.61694336,-0.0044555664,-0.71661377,-0.03125,-1.046875,0.203125,500
501,1696244504338,0.6164551,-0.0012817383,-0.72052,0.0625,-0.984375,0.234375,501
502,1696244504378,0.6269531,-0.004211426,-0.73321533,-0.25,-0.875,-0.046875,502
503,1696244504418,0.62231445,-0.00030517578,-0.7268677,-0.234375,-0.328125,0.21875,503
504,1696244504458,0.62060547,-0.0022583008,-0.7319946,-0.109375,-0.328125,0.21875,504
505,1696244504498,0.6176758,-0.0071411133,-0.7234497,-0.25,-0.59375,0.375,505
506,1696244504538,0.623291,-0.0010375977,-0.73443604,-0.25,-0.453125,0.09375,506
507,1696244504578,0.6237793,-0.008850098,-0.7280884,-0.140625,-1.109375,0.140625,507
508,1696244504618,0.6237793,-0.0029907227,-0.7192993,-0.390625,-1.328125,0.15625,508
509,1696244504658,0.6237793,-0.011291504,-0.72662354,-0.1875,-0.96875,0.125,509
510,1696244504698,0.62768555,0.0021362305,-0.72247314,-0.21875,-1.046875,0.171875,510
511,1696244504738,0.6298828,-0.008361816,-0.72540283,-0.265625,-0.734375,0.15625,511
512,1696244504778,0.6237793,-0.0032348633,-0.7180786,-0.4375,-0.78125,0.265625,512
513,1696244504818,0.62402344,-0.0049438477,-0.71221924,-0.390625,-0.125,0.125,513
514,1696244504858,0.62646484,-0.007385254,-0.7202759,-0.390625,0.0,0.109375,514
515,1696244504898,0.62060547,-0.0071411133,-0.7090454,-0.40625,0.78125,0.09375,515
516,1696244504938,0.6188965,0.001159668,-0.72052,-0.046875,0.796875,0.3125,516
517,1696244504978,0.62280273,-0.0029907227,-0.7334595,-1.28125,1.515625,-0.15625,517
518,1696244505018,0.6196289,-0.008117676,-0.7337036,-1.625,1.03125,-0.375,518
519,1696244505058,0.6105957,-0.008361816,-0.72003174,-1.59375,1.015625,-0.421875,519
520,1696244505098,0.6118164,-0.017150879,-0.7271118,-1.9375,1.671875,-0.46875,520
521,1696244505138,0.6032715,-0.019104004,-0.7324829,-1.171875,0.90625,-0.25,521
522,1696244505178,0.60668945,-0.019836426,-0.7385864,-0.8125,0.09375,-0.15625,522
523,1696244505218,0.60498047,-0.018859863,-0.7283325,-0.546875,-0.125,-0.09375,523
524,1696244505258,0.6086426,-0.022521973,-0.7427368,-1.015625,0.46875,-0.09375,524
525,1696244505298,0.61450195,-0.023742676,-0.74713135,-0.734375,0.296875,-0.046875,525
526,1696244505338,0.5983887,-0.02178955,-0.7271118,-0.875,0.453125,-0.15625,526
527,1696244505378,0.6027832,-0.023254395,-0.73883057,-1.296875,0.671875,-0.40625,527
528,1696244505418,0.6027832,-0.02520752,-0.74346924,-1.234375,0.46875,-0.390625,528
529,1696244505458,0.5949707,-0.023498535,-0.7341919,-1.03125,0.140625,-0.109375,529
530,1696244505498,0.60180664,-0.030090332,-0.74420166,-0.765625,-0.171875,0.0,530
531,1696244505538,0.60498047,-0.024963379,-0.74346924,-0.625,-0.203125,0.0,531
532,1696244505578,0.60058594,-0.0335083,-0.7444458,-0.671875,-0.453125,0.125,532
533,1696244505618,0.60058594,-0.03375244,-0.7449341,0.203125,-0.9375,0.359375,533
534,1696244505658,0.5986328,-0.032287598,-0.7341919,1.234375,-1.375,1.0625,534
535,1696244505698,0.6027832,-0.02935791,-0.72906494,0.640625,-1.21875,0.65625,535
536,1696244505738,0.6020508,-0.027648926,-0.73931885,0.125,-0.984375,0.1875,536
537,1696244505778,0.6125488,-0.019836426,-0.7461548,-0.125,-0.59375,0.21875,537
538,1696244505818,0.6040039,-0.019348145,-0.73516846,0.046875,-0.765625,0.21875,538
539,1696244505858,0.60131836,-0.02178955,-0.7402954,0.125,-0.6875,0.53125,539
540,1696244505898,0.6027832,-0.031555176,-0.7402954,0.046875,-0.640625,0.5,540
541,1696244505938,0.595459,-0.02520752,-0.7263794,0.125,-0.90625,0.34375,541
542,1696244505978,0.59936523,-0.02520752,-0.73931885,0.234375,-0.546875,0.3125,542
543,1696244506018,0.595459,-0.026184082,-0.7280884,0.21875,-0.71875,0.34375,543
544,1696244506058,0.6032715,-0.019592285,-0.736145,-0.015625,-0.59375,0.234375,544
545,1696244506098,0.60058594,-0.023742676,-0.73809814,0.046875,-0.78125,0.171875,545
546,1696244506138,0.6040039,-0.021057129,-0.7463989,-0.046875,-0.8125,0.28125,546
547,1696244506178,0.6044922,-0.029846191,-0.7373657,0.0,-0.484375,0.234375,547
548,1696244506218,0.6020508,-0.023742676,-0.7337036,-0.015625,-0.359375,0.265625,548
549,1696244506258,0.6040039,-0.029846191,-0.7424927,-0.109375,-0.609375,0.3125,549
550,1696244506298,0.59399414,-0.021057129,-0.7307739,0.09375,-0.5625,0.265625,550
551,1696244506338,0.6069336,-0.027893066,-0.74005127,0.015625,-0.640625,0.265625,551
552,1696244506378,0.6047363,-0.025939941,-0.73760986,-0.015625,-0.609375,0.1875,552
553,1696244506418,0.6044922,-0.024475098,-0.74176025,0.125,-0.8125,0.46875,553
554,1696244506458,0.60546875,-0.021057129,-0.74713135,0.015625,-0.65625,0.390625,554
555,1696244506498,0.6022949,-0.02960205,-0.73565674,0.328125,-0.5625,0.34375,555
556,1696244506538,0.6081543,-0.0256958,-0.7385864,0.078125,-0.71875,0.296875,556
557,1696244506578,0.6062012,-0.016418457,-0.75079346,0.15625,-0.765625,0.28125,557
558,1696244506618,0.6022949,-0.020812988,-0.7293091,0.40625,-0.765625,0.5625,558
559,1696244506658,0.6118164,-0.026428223,-0.7571411,-0.25,-0.453125,0.234375,559
560,1696244506698,0.5986328,-0.023498535,-0.73321533,0.046875,-0.640625,0.328125,560
561,1696244506738,0.61083984,-0.019348145,-0.74835205,0.015625,-0.546875,0.265625,561
562,1696244506778,0.60595703,-0.024475098,-0.74420166,-0.09375,-0.546875,0.328125,562
563,1696244506818,0.6010742,-0.022277832,-0.7334595,-0.03125,-0.828125,0.3125,563
564,1696244506858,0.60498047,-0.022521973,-0.7407837,0.0,-0.828125,0.328125,564
565,1696244506898,0.6035156,-0.019348145,-0.7503052,-0.21875,-0.640625,0.109375,565
566,1696244506938,0.6044922,-0.026428223,-0.736145,-0.28125,-0.421875,0.109375,566
567,1696244506978,0.60424805,-0.028381348,-0.7437134,-0.140625,-0.296875,0.234375,567
568,1696244507018,0.6074219,-0.02178955,-0.7490845,-0.171875,-0.390625,0.28125,568
569,1696244507058,0.6035156,-0.019592285,-0.73638916,-0.046875,-0.59375,0.296875,569
570,1696244507098,0.6010742,-0.016906738,-0.7473755,0.0625,-0.640625,0.375,570
571,1696244507138,0.6062012,-0.018127441,-0.74102783,-0.109375,-0.671875,0.21875,571
572,1696244507178,0.6027832,-0.022277832,-0.7373657,-0.203125,-0.53125,0.171875,572
573,1696244507218,0.6098633,-0.018615723,-0.741272,-0.015625,-0.765625,0.25,573
574,1696244507258,0.6022949,-0.030578613,-0.736145,0.0,-0.40625,0.28125,574
575,1696244507298,0.60961914,-0.024963379,-0.7354126,0.140625,-0.609375,0.265625,575
576,1696244507338,0.60498047,-0.013977051,-0.74713135,0.03125,-0.328125,0.359375,576
577,1696244507378,0.60498047,-0.018371582,-0.74102783,-0.21875,-0.328125,0.265625,577
578,1696244507418,0.5991211,-0.02154541,-0.7317505,0.171875,-0.671875,0.359375,578
579,1696244507458,0.6062012,-0.027404785,-0.7432251,0.109375,-0.703125,0.21875,579
580,1696244507498,0.60668945,-0.023742676,-0.7371216,-0.09375,-0.6875,0.046875,580
581,1696244507538,0.6069336,-0.019592285,-0.74176025,-0.125,-0.734375,0.265625,581
582,1696244507578,0.6052246,-0.019104004,-0.73760986,0.09375,-0.625,0.28125,582
583,1696244507618,0.60498047,-0.023498535,-0.73931885,-0.0625,-0.765625,0.265625,583
584,1696244507658,0.6062012,-0.0256958,-0.737854,-0.421875,-0.640625,0.046875,584
585,1696244507698,0.60253906,-0.020080566,-0.7427368,-0.046875,-0.4375,0.25,585
586,1696244507738,0.6010742,-0.015197754,-0.737854,0.109375,-0.75,0.375,586
587,1696244507778,0.6047363,-0.019836426,-0.7420044,-0.15625,-0.578125,0.171875,587
588,1696244507818,0.60791016,-0.020080566,-0.7424927,-0.0625,-0.5625,0.203125,588
589,1696244507858,0.6022949,-0.019348145,-0.7398071,0.015625,-0.5625,0.203125,589
590,1696244507898,0.59814453,-0.020812988,-0.7337036,0.09375,-0.515625,0.3125,590
591,1696244507938,0.60058594,-0.016906738,-0.7461548,-0.28125,-0.40625,0.203125,591
592,1696244507978,0.6035156,-0.016418457,-0.74005127,-0.09375,-0.40625,0.21875,592
593,1696244508018,0.60253906,-0.020080566,-0.7334595,0.09375,-0.484375,0.171875,593
594,1696244508058,0.6062012,-0.020812988,-0.75079346,-0.375,0.125,0.046875,594
595,1696244508098,0.5998535,-0.018127441,-0.74542236,-0.40625,0.0625,0.125,595
596,1696244508138,0.5974121,-0.02154541,-0.7402954,-1.28125,0.640625,-0.40625,596
597,1696244508178,0.5932617,-0.02911377,-0.73516846,-1.1875,0.765625,-0.4375,597
598,1696244508218,0.60498047,-0.028625488,-0.75567627,-1.359375,0.546875,-0.515625,598
599,1696244508258,0.5979004,-0.025939941,-0.7451782,-0.875,0.390625,0.015625,599
600,1696244508298,0.5942383,-0.02960205,-0.7449341,-0.953125,0.4375,-0.25,600
601,1696244508338,0.6032715,-0.027404785,-0.74957275,-1.375,-0.0625,-0.234375,601
602,1696244508378,0.59594727,-0.031555176,-0.74664307,-1.1875,-0.25,-0.265625,602
603,1696244508418,0.59594727,-0.028625488,-0.7324829,-0.84375,-0.234375,-0.171875,603
604,1696244508458,0.5944824,-0.03741455,-0.74298096,-0.359375,-0.40625,0.171875,604
605,1696244508498,0.5996094,-0.035949707,-0.75323486,-0.1875,-0.65625,0.328125,605
606,1696244508538,0.5913086,-0.030578613,-0.7451782,0.484375,-1.015625,0.5625,606
607,1696244508578,0.5983887,-0.02960205,-0.7444458,0.875,-1.28125,1.0,607
608,1696244508618,0.59814453,-0.030334473,-0.74468994,0.484375,-0.984375,0.71875,608
609,1696244508658,0.59887695,-0.022521973,-0.74224854,0.15625,-0.4375,0.265625,609
610,1696244508698,0.59643555,-0.026916504,-0.7456665,-0.078125,-0.53125,0.015625,610
611,1696244508738,0.60131836,-0.028137207,-0.75079346,0.0625,-0.515625,0.34375,611
612,1696244508778,0.592041,-0.030822754,-0.737854,0.40625,-0.796875,0.578125,612
613,1696244508818,0.59399414,-0.03277588,-0.75079346,-0.078125,-0.46875,0.203125,613
614,1696244508858,0.6020508,-0.026184082,-0.75323486,-0.171875,-0.46875,0.109375,614
615,1696244508898,0.59106445,-0.02545166,-0.7424927,0.03125,-0.5,0.296875,615
616,1696244508938,0.5925293,-0.023742676,-0.7505493,-0.078125,-0.203125,0.0625,616
617,1696244508978,0.6003418,-0.022277832,-0.7554321,-0.0625,-0.421875,0.140625,617
618,1696244509018,0.5949707,-0.023742676,-0.74298096,0.03125,-0.734375,0.484375,618
619,1696244509058,0.59643555,-0.020568848,-0.7449341,-0.09375,-0.609375,0.453125,619
620,1696244509098,0.5983887,-0.026428223,-0.7415161,0.0,-0.640625,0.359375,620
621,1696244509138,0.5979004,-0.029846191,-0.7493286,-0.09375,-0.46875,0.171875,621
622,1696244509178,0.5957031,-0.023742676,-0.74176025,-0.15625,-0.578125,0.328125,622
623,1696244509218,0.59399414,-0.029846191,-0.7437134,-0.265625,-0.71875,0.203125,623
624,1696244509258,0.6052246,-0.021057129,-0.74591064,-0.25,-0.46875,0.015625,624
625,1696244509298,0.5949707,-0.024475098,-0.7449341,-0.0625,-0.828125,0.359375,625
626,1696244509338,0.6022949,-0.030578613,-0.74468994,0.078125,-0.5,0.28125,626
627,1696244509378,0.5957031,-0.02545166,-0.7444458,-0.078125,-0.53125,0.265625,627
628,1696244509418,0.59936523,-0.026916504,-0.741272,-0.125,-0.765625,0.296875,628
629,1696244509458,0.5966797,-0.028869629,-0.7390747,-0.0625,-0.546875,0.359375,629
630,1696244509498,0.58984375,-0.032043457,-0.74224854,-0.046875,-0.796875,0.28125,630
631,1696244509538,0.6003418,-0.024230957,-0.753479,-0.25,-0.40625,0.046875,631
632,1696244509578,0.5983887,-0.026916504,-0.7581177,-0.1875,-0.484375,0.21875,632
633,1696244509618,0.59375,-0.020080566,-0.74591064,0.109375,-0.4375,0.234375,633
634,1696244509658,0.5966797,-0.02935791,-0.74664307,-0.03125,-0.390625,0.203125,634
635,1696244509698,0.5930176,-0.024963379,-0.74835205,-0.015625,-0.609375,0.296875,635
636,1696244509738,0.59106445,-0.030334473,-0.73883057,0.09375,-0.828125,0.390625,636
637,1696244509778,0.5942383,-0.026428223,-0.74468994,0.328125,-0.53125,0.453125,637
638,1696244509818,0.59765625,-0.024963379,-0.7427368,0.34375,-0.15625,0.4375,638
639,1696244509858,0.5932617,-0.03253174,-0.73223877,0.4375,-0.453125,0.4375,639
640,1696244509898,0.59277344,-0.027648926,-0.7349243,0.203125,-0.078125,0.421875,640
641,1696244509938,0.58862305,-0.031311035,-0.7415161,0.0625,-0.265625,0.375,641
642,1696244509978,0.59594727,-0.023986816,-0.7542114,0.09375,-0.328125,0.28125,642
643,1696244510018,0.59375,-0.019836426,-0.74786377,0.046875,-0.515625,0.40625,643
644,1696244510058,0.58862305,-0.024230957,-0.73809814,-0.03125,-0.734375,0.359375,644
645,1696244510098,0.5917969,-0.022033691,-0.7420044,-0.140625,-0.671875,0.125,645
646,1696244510138,0.5925293,-0.0256958,-0.7493286,-0.03125,-0.703125,0.234375,646
647,1696244510178,0.5949707,-0.018127441,-0.7481079,0.015625,-0.796875,0.203125,647
648,1696244510218,0.59155273,-0.02911377,-0.7402954,-0.109375,-0.578125,0.171875,648
649,1696244510258,0.5891113,-0.022766113,-0.74957275,-0.046875,-0.71875,0.328125,649
650,1696244510298,0.59521484,-0.028869629,-0.73931885,-0.078125,-0.796875,0.1875,650
651,1696244510338,0.59277344,-0.027404785,-0.7503052,-0.1875,-0.46875,0.109375,651
652,1696244510378,0.5864258,-0.018371582,-0.7420044,-0.09375,-0.890625,0.25,652
653,1696244510418,0.5991211,-0.027893066,-0.7456665,-0.203125,-0.5625,0.21875,653
654,1696244510458,0.5949707,-0.022277832,-0.75079346,-0.234375,-0.765625,0.109375,654
655,1696244510498,0.5991211,-0.024719238,-0.74542236,-0.09375,-0.640625,0.203125,655
656,1696244510538,0.59887695,-0.019348145,-0.7542114,0.359375,-0.96875,0.484375,656
657,1696244510578,0.6022949,-0.020324707,-0.7473755,0.6875,-1.03125,0.609375,657
658,1696244510618,0.5998535,-0.030334473,-0.7439575,-0.015625,-0.8125,0.359375,658
659,1696244510658,0.5905762,-0.024963379,-0.7385864,-0.28125,-0.625,0.25,659
660,1696244510698,0.59228516,-0.023986816,-0.7439575,-0.140625,-0.875,0.203125,660
661,1696244510738,0.5966797,-0.018371582,-0.74468994,-0.296875,-0.84375,0.15625,661
662,1696244510778,0.59277344,-0.024475098,-0.7485962,-0.203125,-1.03125,0.203125,662
663,1696244510818,0.59936523,-0.02545166,-0.74346924,-0.09375,-1.09375,0.234375,663
664,1696244510858,0.6003418,-0.023498535,-0.7498169,0.171875,-1.09375,0.46875,664
665,1696244510898,0.5966797,-0.024230957,-0.7439575,0.359375,-1.171875,0.28125,665
666,1696244510938,0.5996094,-0.024475098,-0.74420166,0.5,-1.046875,0.40625,666
667,1696244510978,0.5932617,-0.023254395,-0.7341919,0.265625,-0.890625,0.5625,667
668,1696244511018,0.6003418,-0.024719238,-0.75323486,-0.1875,-0.421875,0.21875,668
669,1696244511058,0.60424805,-0.019836426,-0.75323486,0.140625,-0.375,0.3125,669
670,1696244511098,0.5944824,-0.011779785,-0.7402954,0.125,-0.703125,0.421875,670
671,1696244511138,0.59887695,-0.016906738,-0.7427368,0.109375,-0.875,0.390625,671
672,1696244511178,0.6062012,-0.018371582,-0.74786377,0.109375,-0.765625,0.25,672
673,1696244511218,0.6040039,-0.016906738,-0.7439575,0.234375,-0.78125,0.234375,673
674,1696244511258,0.60131836,-0.02130127,-0.7383423,0.078125,-0.515625,0.28125,674
675,1696244511298,0.59765625,-0.022521973,-0.7383423,-0.015625,-0.59375,0.1875,675
676,1696244511338,0.5986328,-0.0134887695,-0.7451782,-0.125,-0.421875,0.390625,676
677,1696244511378,0.6010742,-0.0134887695,-0.74884033,-0.203125,-0.625,0.234375,677
678,1696244511418,0.59814453,-0.018371582,-0.74346924,-0.09375,-0.796875,0.421875,678
679,1696244511458,0.60546875,-0.024230957,-0.7451782,-0.0625,-0.75,0.28125,679
680,1696244511498,0.6010742,-0.020080566,-0.7359009,-0.21875,-0.796875,0.125,680
681,1696244511538,0.6032715,-0.016418457,-0.7481079,-0.234375,-0.484375,0.09375,681
682,1696244511578,0.60302734,-0.015930176,-0.74884033,-0.359375,-0.375,0.25,682
683,1696244511618,0.5944824,-0.022277832,-0.73760986,-0.203125,-0.5625,0.140625,683
684,1696244511658,0.60424805,-0.0178833,-0.7432251,-0.0625,-0.5625,0.296875,684
685,1696244511698,0.59155273,-0.022766113,-0.7371216,0.03125,-0.46875,0.3125,685
686,1696244511738,0.6044922,-0.018127441,-0.75372314,-0.046875,0.078125,0.125,686
687,1696244511778,0.5983887,-0.024230957,-0.75177,-0.21875,-0.25,0.046875,687
688,1696244511818,0.5998535,-0.023498535,-0.7432251,0.0625,-0.484375,0.34375,688
689,1696244511858,0.5979004,-0.024719238,-0.7437134,0.09375,-0.65625,0.359375,689
690,1696244511898,0.5986328,-0.016418457,-0.75128174,0.15625,-0.984375,0.34375,690
691,1696244511938,0.6047363,-0.015930176,-0.7473755,0.046875,-0.921875,0.59375,691
692,1696244511978,0.6032715,-0.014953613,-0.739563,0.125,-0.796875,0.25,692
693,1696244512018,0.5983887,-0.016418457,-0.7402954,-0.046875,-0.625,0.203125,693
694,1696244512058,0.6035156,-0.015197754,-0.74176025,-0.078125,-1.0,0.234375,694
695,1696244512098,0.59375,-0.02130127,-0.7329712,-0.109375,-0.78125,0.1875,695
696,1696244512138,0.59375,-0.019836426,-0.73394775,0.0625,-0.734375,0.171875,696
697,1696244512178,0.60058594,-0.019592285,-0.75250244,0.03125,-0.515625,0.265625,697
698,1696244512218,0.6003418,-0.00982666,-0.7398071,-0.09375,-0.671875,0.15625,698
699,1696244512258,0.59887695,-0.018615723,-0.73443604,0.0,-0.578125,0.25,699
700,1696244512298,0.6010742,-0.011291504,-0.73809814,0.046875,-0.78125,0.234375,700
701,1696244512338,0.5969238,-0.018615723,-0.7542114,0.046875,-0.78125,0.15625,701
702,1696244512378,0.5991211,-0.018127441,-0.74298096,0.125,-1.046875,0.4375,702
703,1696244512418,0.60546875,-0.018127441,-0.7415161,0.171875,-0.953125,0.359375,703
704,1696244512458,0.5991211,-0.022521973,-0.73321533,0.0,-0.546875,0.25,704
705,1696244512498,0.5996094,-0.014709473,-0.7420044,0.03125,-0.40625,0.203125,705
706,1696244512538,0.60498047,-0.018615723,-0.75665283,-0.296875,-0.359375,0.1875,706
707,1696244512578,0.5961914,-0.010559082,-0.7451782,-0.078125,-0.78125,0.09375,707
708,1696244512618,0.6057129,-0.019104004,-0.741272,0.125,-0.75,0.1875,708
709,1696244512658,0.60717773,-0.011779785,-0.7498169,-0.203125,-0.734375,0.15625,709
710,1696244512698,0.5991211,-0.016662598,-0.7359009,-0.09375,-0.640625,0.265625,710
711,1696244512738,0.6020508,-0.018127441,-0.736145,0.046875,-0.84375,0.1875,711
712,1696244512778,0.60180664,-0.023498535,-0.7461548,-0.046875,-0.734375,0.109375,712
713,1696244512818,0.6003418,-0.012756348,-0.73516846,0.09375,-0.71875,0.28125,713
714,1696244512858,0.60668945,-0.019104004,-0.74053955,0.015625,-0.75,0.234375,714
715,1696244512898,0.6069336,-0.00592041,-0.74957275,0.078125,-0.953125,0.375,715
716,1696244512938,0.60253906,-0.013000488,-0.73687744,0.171875,-1.125,0.296875,716
717,1696244512978,0.6010742,-0.011779785,-0.7490845,0.140625,-1.21875,0.359375,717
718,1696244513018,0.5998535,-0.022766113,-0.74005127,0.046875,-0.875,0.28125,718
719,1696244513058,0.60791016,-0.013244629,-0.73931885,0.0,-0.875,0.265625,719
720,1696244513098,0.5996094,-0.01763916,-0.73272705,-0.25,-0.796875,0.171875,720
721,1696244513138,0.6035156,-0.016174316,-0.73638916,-0.3125,-0.71875,0.046875,721
722,1696244513178,0.60595703,-0.010559082,-0.73687744,-0.28125,-0.6875,0.03125,722
723,1696244513218,0.6062012,-0.013000488,-0.7398071,-0.140625,-0.515625,0.1875,723
724,1696244513258,0.6052246,-0.012023926,-0.7468872,-0.453125,-0.609375,0.0625,724
725,1696244513298,0.60058594,-0.023498535,-0.736145,-0.15625,-0.609375,0.0625,725
726,1696244513338,0.6008301,-0.018127441,-0.74102783,-0.109375,-0.484375,0.28125,726
727,1696244513378,0.6047363,-0.0044555664,-0.74591064,-0.078125,-0.671875,0.234375,727
728,1696244513418,0.6064453,-0.018127441,-0.74005127,0.15625,-0.296875,0.25,728
729,1696244513458,0.60546875,-0.018371582,-0.739563,-0.09375,-0.703125,0.390625,729
730,1696244513498,0.60180664,-0.0178833,-0.7490845,-0.265625,-0.671875,0.234375,730
731,1696244513538,0.60131836,-0.015930176,-0.7346802,-0.09375,-0.78125,0.359375,731
732,1696244513578,0.60717773,-0.013977051,-0.7385864,0.109375,-0.84375,0.34375,732
733,1696244513618,0.60595703,-0.020568848,-0.7407837,0.15625,-1.046875,0.421875,733
734,1696244513658,0.6057129,-0.014953613,-0.7317505,0.3125,-1.109375,0.09375,734
735,1696244513698,0.6113281,-0.01739502,-0.73687744,-0.21875,-0.96875,0.078125,735
736,1696244513738,0.6032715,-0.011779785,-0.736145,-0.46875,-0.859375,0.078125,736
737,1696244513778,0.61450195,-0.0049438477,-0.7427368,-0.4375,-0.375,0.140625,737
738,1696244513818,0.5966797,-0.019836426,-0.71759033,-0.421875,0.140625,0.125,738
739,1696244513858,0.5986328,-0.019104004,-0.723938,-1.1875,0.921875,-0.265625,739
740,1696244513898,0.61376953,-0.015197754,-0.75494385,-1.984375,1.21875,-0.53125,740
741,1696244513938,0.60424805,-0.019836426,-0.7415161,-1.5625,0.5,-0.359375,741
742,1696244513978,0.60302734,-0.02130127,-0.7461548,-1.109375,0.53125,-0.125,742
743,1696244514018,0.5944824,-0.023010254,-0.7329712,-1.140625,0.515625,-0.28125,743
744,1696244514058,0.59887695,-0.031799316,-0.7456665,-1.34375,0.40625,-0.421875,744
745,1696244514098,0.595459,-0.030578613,-0.7424927,-1.203125,0.046875,-0.265625,745
746,1696244514138,0.59155273,-0.02545166,-0.7371216,-1.0625,-0.015625,-0.34375,746
747,1696244514178,0.5966797,-0.03741455,-0.7427368,-0.96875,0.140625,-0.1875,747
748,1696244514218,0.5888672,-0.031066895,-0.7463989,-1.015625,-0.578125,-0.078125,748
749,1696244514258,0.59765625,-0.039123535,-0.7522583,-0.859375,-0.40625,-0.140625,749
750,1696244514298,0.5966797,-0.037902832,-0.75201416,-0.453125,-0.65625,-0.03125,750
751,1696244514338,0.59521484,-0.032043457,-0.74542236,-0.234375,-0.796875,0.203125,751
752,1696244514378,0.5961914,-0.034973145,-0.7493286,0.375,-0.84375,0.359375,752
753,1696244514418,0.5878906,-0.02911377,-0.7317505,1.390625,-1.9375,1.0625,753
754,1696244514458,0.6035156,-0.034484863,-0.755188,0.75,-1.359375,0.625,754
755,1696244514498,0.58813477,-0.035705566,-0.74053955,0.28125,-0.875,0.15625,755
756,1696244514538,0.595459,-0.023742676,-0.7481079,0.015625,-0.8125,0.15625,756
757,1696244514578,0.60180664,-0.028625488,-0.7461548,0.015625,-0.546875,0.28125,757
758,1696244514618,0.5957031,-0.031066895,-0.7515259,0.234375,-0.328125,0.34375,758
759,1696244514658,0.58032227,-0.021057129,-0.7305298,0.5,-0.484375,0.421875,759
