,timestamp,accel_x,accel_y,accel_z,gyro_x,gyro_y,gyro_z,ind
0,1696243003796,-0.74731445,-0.04107666,0.732605,-0.34375,-0.21875,-0.5625,0
1,1696243003836,-0.7375488,-0.047912598,0.7160034,-0.265625,-0.4375,-0.21875,1
2,1696243003876,-0.7451172,-0.042785645,0.7128296,0.125,-0.546875,0.40625,2
3,1696243003916,-0.75219727,-0.054260254,0.71624756,-0.09375,0.53125,0.78125,3
4,1696243003956,-0.7692871,-0.053771973,0.7484741,1.0625,-1.03125,1.21875,4
5,1696243003996,-0.77734375,-0.0491333,0.7445679,0.21875,0.375,0.578125,5
6,1696243004036,-0.8046875,-0.07476807,0.76483154,1.34375,-0.765625,0.9375,6
7,1696243004076,-0.7753906,-0.05645752,0.74505615,0.0,-0.0625,0.203125,7
8,1696243004116,-0.76464844,-0.049621582,0.7304077,0.15625,0.140625,-0.109375,8
9,1696243004156,-0.751709,-0.051330566,0.72528076,0.390625,-0.078125,0.109375,9
10,1696243004196,-0.73706055,-0.054992676,0.71868896,0.328125,-0.453125,0.578125,10
11,1696243004236,-0.75634766,-0.061828613,0.73651123,0.796875,-0.875,0.765625,11
12,1696243004276,-0.7636719,-0.054016113,0.73724365,0.328125,-0.25,1.015625,12
13,1696243004316,-0.7770996,-0.06817627,0.7567749,0.625,-0.375,1.0625,13
14,1696243004356,-0.7878418,-0.05987549,0.7460327,0.046875,-0.609375,0.671875,14
15,1696243004396,-0.7770996,-0.049621582,0.7418823,-0.125,-0.421875,0.078125,15
16,1696243004436,-0.77197266,-0.05328369,0.72943115,0.09375,-0.046875,0.078125,16
17,1696243004476,-0.7492676,-0.058166504,0.730896,0.25,-0.140625,0.015625,17
18,1696243004516,-0.7480469,-0.059387207,0.72991943,0.15625,-0.1875,0.3125,18
19,1696243004556,-0.7624512,-0.06695557,0.7514038,0.890625,-0.515625,0.5625,19
20,1696243004596,-0.76342773,-0.06109619,0.74993896,0.125,-0.28125,0.3125,20
21,1696243004636,-0.76782227,-0.066467285,0.72650146,-0.984375,0.21875,0.421875,21
22,1696243004676,-0.78027344,-0.058898926,0.76239014,0.359375,-0.5625,0.203125,22
23,1696243004716,-0.77368164,-0.07525635,0.74920654,-0.296875,-0.21875,0.25,23
24,1696243004756,-0.75805664,-0.051086426,0.732605,-0.75,-0.578125,-0.328125,24
25,1696243004796,-0.7595215,-0.044006348,0.7230835,-0.453125,-0.75,-0.21875,25
26,1696243004836,-0.77197266,-0.054992676,0.73773193,-0.515625,-0.15625,0.03125,26
27,1696243004876,-0.7714844,-0.05718994,0.73773193,-0.890625,-0.046875,0.125,27
28,1696243004916,-0.7631836,-0.06036377,0.73968506,-1.109375,0.109375,-0.03125,28
29,1696243004956,-0.76049805,-0.055725098,0.7514038,-0.71875,0.171875,-0.390625,29
30,1696243004996,-0.75683594,-0.0635376,0.7514038,-0.796875,-0.265625,-0.1875,30
31,1696243005036,-0.74609375,-0.0491333,0.74090576,-1.03125,-1.0625,-0.1875,31
32,1696243005076,-0.76342773,-0.04498291,0.73651123,-0.875,-1.09375,-0.046875,32
33,1696243005116,-0.7727051,-0.04937744,0.73553467,-1.15625,-0.90625,0.03125,33
34,1696243005156,-0.7746582,-0.045715332,0.7399292,-1.078125,-0.59375,-0.03125,34
35,1696243005196,-0.77783203,-0.050354004,0.73773193,-0.796875,-0.234375,-0.03125,35
36,1696243005236,-0.7702637,-0.055725098,0.7387085,-0.90625,-0.578125,0.015625,36
37,1696243005276,-0.76171875,-0.042297363,0.75823975,-1.09375,-0.828125,-0.515625,37
38,1696243005316,-0.7583008,-0.03668213,0.7196655,-1.265625,0.015625,-0.4375,38
39,1696243005356,-0.7753906,-0.05279541,0.7601929,0.171875,-0.6875,0.0,39
40,1696243005396,-0.7512207,-0.042541504,0.73724365,-1.28125,-0.421875,-0.15625,40
41,1696243005436,-0.7553711,-0.035949707,0.7379761,-0.96875,-0.375,-0.46875,41
42,1696243005476,-0.76342773,-0.04156494,0.74871826,-0.515625,-0.46875,-0.046875,42
43,1696243005516,-0.7609863,-0.042297363,0.73724365,-0.921875,-0.578125,-0.09375,43
44,1696243005556,-0.7661133,-0.035705566,0.7506714,-0.5,-0.765625,-0.046875,44
45,1696243005596,-0.76171875,-0.030334473,0.73553467,-1.28125,-0.234375,-0.25,45
46,1696243005636,-0.76538086,-0.03375244,0.7435913,-0.59375,-0.59375,-0.1875,46
47,1696243005676,-0.76660156,-0.038879395,0.73651123,-0.65625,-0.734375,-0.046875,47
48,1696243005716,-0.767334,-0.0335083,0.75213623,-0.453125,-0.640625,-0.265625,48
49,1696243005756,-0.76782227,-0.028137207,0.73968506,-0.609375,-0.328125,-0.203125,49
50,1696243005796,-0.7626953,-0.028381348,0.74627686,-0.703125,-0.5625,-0.21875,50
51,1696243005836,-0.76586914,-0.035705566,0.7518921,-0.484375,-0.78125,0.09375,51
52,1696243005876,-0.76538086,-0.02911377,0.7379761,-0.71875,-0.640625,-0.078125,52
53,1696243005916,-0.7734375,-0.03717041,0.7367554,-0.53125,-1.078125,0.171875,53
54,1696243005956,-0.77001953,-0.020812988,0.7650757,-0.4375,-1.109375,-0.140625,54
55,1696243005996,-0.765625,-0.023254395,0.7250366,-0.90625,0.40625,-0.1875,55
56,1696243006036,-0.7741699,-0.03717041,0.7626343,0.453125,-0.78125,0.375,56
57,1696243006076,-0.7504883,-0.02960205,0.73651123,-0.890625,-0.53125,-0.125,57
58,1696243006116,-0.7636719,-0.01373291,0.7387085,-0.578125,-0.71875,-0.34375,58
59,1696243006156,-0.76660156,-0.016418457,0.7453003,-0.21875,-0.625,0.0625,59
60,1696243006196,-0.76586914,-0.019836426,0.73358154,0.09375,-0.9375,0.359375,60
61,1696243006236,-0.7746582,-0.021057129,0.7518921,0.796875,-1.515625,0.40625,61
62,1696243006276,-0.7624512,-0.024963379,0.7304077,0.078125,-0.65625,0.375,62
63,1696243006316,-0.76831055,-0.028869629,0.7423706,0.640625,-0.984375,0.53125,63
64,1696243006356,-0.763916,-0.03253174,0.73724365,0.734375,-0.875,0.640625,64
65,1696243006396,-0.76953125,-0.021057129,0.7435913,1.109375,-0.8125,0.65625,65
66,1696243006436,-0.76904297,-0.032287598,0.74432373,0.65625,-0.34375,0.96875,66
67,1696243006476,-0.75927734,-0.02154541,0.7394409,0.53125,-0.75,0.78125,67
68,1696243006516,-0.7729492,-0.027160645,0.73724365,0.5625,-1.03125,0.953125,68
69,1696243006556,-0.76538086,-0.033996582,0.73553467,0.59375,-0.921875,0.8125,69
70,1696243006596,-0.77001953,-0.043762207,0.74017334,0.25,0.078125,0.6875,70
71,1696243006636,-0.7685547,-0.03326416,0.7367554,0.640625,-0.796875,0.765625,71
72,1696243006676,-0.7631836,-0.024230957,0.7255249,0.34375,0.4375,-0.0625,72
73,1696243006716,-0.7819824,-0.046447754,0.7506714,1.515625,-0.84375,0.921875,73
74,1696243006756,-0.76220703,-0.04034424,0.73724365,0.53125,-0.0625,0.53125,74
75,1696243006796,-0.7709961,-0.032287598,0.73895264,0.546875,-0.484375,0.5,75
76,1696243006836,-0.767334,-0.035705566,0.7435913,0.71875,-0.421875,0.859375,76
77,1696243006876,-0.7663574,-0.041809082,0.7338257,0.453125,-0.796875,0.8125,77
78,1696243006916,-0.76782227,-0.046203613,0.7369995,0.484375,-0.875,0.546875,78
79,1696243006956,-0.7573242,-0.036193848,0.7211304,-0.109375,0.03125,0.1875,79
80,1696243006996,-0.77319336,-0.045959473,0.7411499,0.71875,-0.375,0.453125,80
81,1696243007036,-0.7727051,-0.046203613,0.7338257,0.328125,-0.546875,0.53125,81
82,1696243007076,-0.77246094,-0.042053223,0.7428589,0.578125,-0.484375,0.53125,82
83,1696243007116,-0.77319336,-0.043518066,0.73358154,0.453125,-0.171875,0.5625,83
84,1696243007156,-0.7619629,-0.042297363,0.7374878,0.65625,-0.53125,0.5625,84
85,1696243007196,-0.77246094,-0.043518066,0.73602295,0.5625,-0.578125,0.5625,85
86,1696243007236,-0.7590332,-0.047424316,0.73309326,0.15625,-0.171875,0.515625,86
87,1696243007276,-0.7766113,-0.054260254,0.7391968,0.625,-0.25,0.65625,87
88,1696243007316,-0.76904297,-0.033996582,0.75775146,0.671875,-0.890625,0.515625,88
89,1696243007356,-0.75390625,-0.04058838,0.71502686,-0.3125,0.296875,0.59375,89
90,1696243007396,-0.7763672,-0.06036377,0.75164795,1.4375,-0.890625,0.59375,90
91,1696243007436,-0.7687988,-0.058410645,0.73773193,0.34375,-0.25,0.53125,91
92,1696243007476,-0.7675781,-0.043518066,0.7387085,0.21875,-0.4375,0.21875,92
93,1696243007516,-0.7687988,-0.04058838,0.7338257,0.65625,-0.515625,0.453125,93
94,1696243007556,-0.77124023,-0.054504395,0.73602295,0.5625,-0.125,0.75,94
95,1696243007596,-0.76293945,-0.054504395,0.7509155,0.828125,-0.3125,0.75,95
96,1696243007636,-0.7595215,-0.055725098,0.73480225,-0.078125,0.015625,0.1875,96
97,1696243007676,-0.75634766,-0.058654785,0.74627686,0.40625,0.1875,0.34375,97
98,1696243007716,-0.765625,-0.058410645,0.7472534,0.296875,-0.515625,0.484375,98
99,1696243007756,-0.76538086,-0.05645752,0.7453003,0.03125,-0.71875,0.53125,99
100,1696243007796,-0.77197266,-0.054748535,0.73114014,0.234375,-0.78125,0.625,100
101,1696243007836,-0.7680664,-0.05621338,0.7379761,0.078125,-0.375,0.21875,101
102,1696243007876,-0.77563477,-0.058410645,0.73651123,0.203125,-0.265625,0.4375,102
103,1696243007916,-0.7675781,-0.06719971,0.73602295,-0.203125,0.0625,0.0625,103
104,1696243007956,-0.76049805,-0.06085205,0.7523804,-0.21875,0.203125,0.0625,104
105,1696243007996,-0.76586914,-0.05303955,0.7445679,-0.6875,-0.21875,-0.03125,105
106,1696243008036,-0.75439453,-0.05596924,0.73114014,-1.546875,0.25,-0.296875,106
107,1696243008076,-0.7561035,-0.05621338,0.7399292,-0.671875,-0.78125,-0.21875,107
108,1696243008116,-0.76220703,-0.046447754,0.74823,-0.515625,-0.390625,-0.46875,108
109,1696243008156,-0.77856445,-0.06793213,0.74017334,-0.453125,-0.8125,-0.03125,109
110,1696243008196,-0.76123047,-0.050354004,0.7321167,-1.28125,-0.453125,-0.484375,110
111,1696243008236,-0.7661133,-0.038879395,0.73895264,-0.671875,-0.1875,-0.3125,111
112,1696243008276,-0.7626953,-0.042541504,0.7460327,-0.5625,-0.25,0.140625,112
113,1696243008316,-0.75512695,-0.051330566,0.7416382,-0.53125,-0.53125,0.21875,113
114,1696243008356,-0.7619629,-0.06304932,0.73846436,-0.828125,-0.75,-0.109375,114
115,1696243008396,-0.7558594,-0.043273926,0.74554443,-0.90625,-0.5,-0.546875,115
116,1696243008436,-0.77124023,-0.050842285,0.7416382,-1.171875,-0.8125,-0.1875,116
117,1696243008476,-0.767334,-0.043518066,0.7340698,-1.578125,-0.703125,-0.25,117
118,1696243008516,-0.7709961,-0.037902832,0.73895264,-0.921875,-0.75,-0.421875,118
119,1696243008556,-0.7651367,-0.031311035,0.7394409,-0.828125,-0.546875,-0.390625,119
120,1696243008596,-0.765625,-0.039611816,0.74090576,-0.75,-0.65625,-0.1875,120
121,1696243008636,-0.7675781,-0.041809082,0.7445679,-0.6875,-0.34375,-0.140625,121
122,1696243008676,-0.7685547,-0.043518066,0.7457886,-0.828125,-0.46875,-0.390625,122
123,1696243008716,-0.76464844,-0.037902832,0.73724365,-0.78125,-0.578125,-0.390625,123
124,1696243008756,-0.7648926,-0.038391113,0.73431396,-0.625,-0.8125,-0.140625,124
125,1696243008796,-0.76342773,-0.018615723,0.7662964,-0.296875,-0.859375,-0.203125,125
126,1696243008836,-0.7541504,-0.02960205,0.727478,-0.796875,0.28125,-0.25,126
127,1696243008876,-0.7832031,-0.045959473,0.76361084,0.234375,-0.609375,0.09375,127
128,1696243008916,-0.7619629,-0.035217285,0.7453003,-1.203125,-0.484375,-0.328125,128
129,1696243008956,-0.7717285,-0.02130127,0.74383545,-0.78125,-0.515625,-0.375,129
130,1696243008996,-0.7763672,-0.028625488,0.7379761,-0.71875,-0.296875,0.171875,130
131,1696243009036,-0.7536621,-0.024230957,0.73431396,-0.71875,-0.375,0.0,131
132,1696243009076,-0.7631836,-0.031555176,0.7501831,0.109375,-1.125,0.0,132
133,1696243009116,-0.75439453,-0.031066895,0.73114014,-0.921875,-0.4375,-0.296875,133
134,1696243009156,-0.7739258,-0.027404785,0.7453003,-0.546875,-0.59375,-0.234375,134
135,1696243009196,-0.77197266,-0.02520752,0.7428589,-0.6875,-0.671875,-0.171875,135
136,1696243009236,-0.7751465,-0.016174316,0.7526245,-0.4375,-0.5625,-0.078125,136
137,1696243009276,-0.75634766,-0.017150879,0.7394409,-0.75,-0.546875,-0.15625,137
138,1696243009316,-0.7597656,-0.018371582,0.73602295,-0.53125,-0.859375,0.0625,138
139,1696243009356,-0.763916,-0.022766113,0.73602295,-0.1875,-0.859375,0.109375,139
140,1696243009396,-0.76904297,-0.01763916,0.7391968,0.015625,-0.859375,-0.03125,140
141,1696243009436,-0.7741699,-0.023498535,0.73431396,0.09375,-1.0625,0.34375,141
142,1696243009476,-0.7727051,-0.015930176,0.73431396,0.65625,-1.265625,0.578125,142
143,1696243009516,-0.7697754,-0.005432129,0.76068115,0.796875,-0.734375,0.484375,143
144,1696243009556,-0.7553711,-0.011047363,0.7211304,0.0625,0.265625,0.5,144
145,1696243009596,-0.77783203,-0.03375244,0.75946045,1.1875,-1.09375,0.65625,145
146,1696243009636,-0.75341797,-0.02545166,0.7255249,0.578125,-1.109375,0.4375,146
147,1696243009676,-0.76953125,-0.016174316,0.7445679,1.34375,-1.21875,0.640625,147
148,1696243009716,-0.7746582,-0.028869629,0.7423706,1.421875,-1.09375,1.234375,148
149,1696243009756,-0.765625,-0.02911377,0.73187256,1.0625,-0.84375,1.25,149
150,1696243009796,-0.7727051,-0.031555176,0.7453003,1.34375,-1.1875,0.921875,150
151,1696243009836,-0.76953125,-0.031799316,0.73065186,0.765625,-0.53125,0.78125,151
152,1696243009876,-0.76782227,-0.032287598,0.74627686,1.0625,-0.203125,0.53125,152
153,1696243009916,-0.7702637,-0.04058838,0.7406616,1.171875,-0.375,0.875,153
154,1696243009956,-0.7722168,-0.031311035,0.7362671,1.0,-0.734375,0.625,154
155,1696243009996,-0.7714844,-0.04156494,0.73431396,0.84375,-0.875,0.640625,155
156,1696243010036,-0.7651367,-0.039123535,0.7352905,0.40625,-0.34375,0.640625,156
157,1696243010076,-0.76953125,-0.039367676,0.729187,0.453125,-0.765625,0.859375,157
158,1696243010116,-0.77124023,-0.04034424,0.73431396,0.90625,-0.5625,0.65625,158
159,1696243010156,-0.77441406,-0.04425049,0.7289429,0.578125,-0.234375,0.5,159
160,1696243010196,-0.7751465,-0.041809082,0.7394409,1.0625,-0.3125,0.625,160
161,1696243010236,-0.7648926,-0.038391113,0.7304077,0.265625,0.5,0.59375,161
162,1696243010276,-0.76464844,-0.04547119,0.74017334,0.921875,-0.546875,0.90625,162
163,1696243010316,-0.75219727,-0.033996582,0.7328491,0.296875,0.203125,0.21875,163
164,1696243010356,-0.7763672,-0.05987549,0.74383545,1.15625,-0.984375,0.8125,164
165,1696243010396,-0.76342773,-0.054504395,0.73358154,0.328125,-0.328125,0.59375,165
166,1696243010436,-0.7751465,-0.04058838,0.73480225,0.453125,-0.4375,0.40625,166
167,1696243010476,-0.7687988,-0.050842285,0.7411499,0.875,-0.390625,0.734375,167
168,1696243010516,-0.7614746,-0.054260254,0.7267456,0.609375,-0.328125,0.671875,168
169,1696243010556,-0.77001953,-0.062805176,0.7362671,0.640625,-0.5,0.59375,169
170,1696243010596,-0.7714844,-0.047180176,0.7284546,-0.046875,-0.21875,0.296875,170
171,1696243010636,-0.7692871,-0.047912598,0.74212646,0.640625,-0.140625,0.375,171
172,1696243010676,-0.7648926,-0.06036377,0.7435913,0.484375,-0.34375,0.703125,172
173,1696243010716,-0.76049805,-0.049621582,0.7362671,0.328125,-0.59375,0.53125,173
174,1696243010756,-0.76904297,-0.051574707,0.7399292,0.453125,-0.359375,0.421875,174
175,1696243010796,-0.7663574,-0.05206299,0.7382202,0.421875,-0.359375,0.359375,175
176,1696243010836,-0.77001953,-0.054748535,0.74017334,0.484375,-0.359375,0.546875,176
177,1696243010876,-0.7687988,-0.058654785,0.7338257,0.140625,-0.25,0.5625,177
178,1696243010916,-0.76904297,-0.051574707,0.73431396,0.21875,-0.125,0.40625,178
179,1696243010956,-0.7675781,-0.057678223,0.7328491,0.359375,-0.265625,0.484375,179
180,1696243010996,-0.76782227,-0.055480957,0.73846436,0.375,-0.25,0.625,180
181,1696243011036,-0.76782227,-0.05279541,0.7418823,0.46875,-0.125,0.359375,181
182,1696243011076,-0.7668457,-0.05621338,0.7382202,0.28125,-0.4375,0.359375,182
183,1696243011116,-0.7663574,-0.06329346,0.7369995,0.203125,-0.46875,0.4375,183
184,1696243011156,-0.77685547,-0.054992676,0.7628784,0.859375,-0.984375,0.703125,184
185,1696243011196,-0.75097656,-0.057678223,0.7123413,-0.828125,0.3125,-0.03125,185
186,1696243011236,-0.7753906,-0.06109619,0.75457764,0.859375,-0.828125,0.25,186
187,1696243011276,-0.7644043,-0.07647705,0.7423706,0.3125,-0.421875,0.359375,187
188,1696243011316,-0.76464844,-0.057678223,0.73724365,-0.171875,-0.484375,0.15625,188
189,1696243011356,-0.7685547,-0.04937744,0.7399292,-0.03125,-0.703125,0.203125,189
190,1696243011396,-0.7651367,-0.061584473,0.73846436,0.015625,-0.390625,0.453125,190
191,1696243011436,-0.7663574,-0.06817627,0.7418823,0.25,-0.5,0.171875,191
192,1696243011476,-0.7702637,-0.057678223,0.7301636,-0.390625,-0.296875,0.359375,192
193,1696243011516,-0.76123047,-0.058410645,0.73968506,-0.15625,-0.1875,0.125,193
194,1696243011556,-0.76660156,-0.065979004,0.74554443,0.03125,-0.28125,0.296875,194
195,1696243011596,-0.76660156,-0.0635376,0.7340698,-0.453125,-0.421875,0.125,195
196,1696243011636,-0.7727051,-0.05670166,0.7387085,-0.46875,-0.25,0.0,196
197,1696243011676,-0.75805664,-0.062561035,0.74212646,-0.390625,-0.359375,-0.09375,197
198,1696243011716,-0.7636719,-0.061828613,0.74212646,-0.546875,-0.484375,0.03125,198
199,1696243011756,-0.76464844,-0.066467285,0.7445679,-0.703125,-0.59375,0.078125,199
200,1696243011796,-0.76171875,-0.05596924,0.7379761,-1.28125,-0.34375,-0.25,200
201,1696243011836,-0.7626953,-0.05718994,0.73846436,-1.03125,-0.3125,-0.234375,201
202,1696243011876,-0.7668457,-0.049621582,0.7435913,-0.671875,-0.453125,0.0625,202
203,1696243011916,-0.7626953,-0.055725098,0.7404175,-0.875,-0.625,0.015625,203
204,1696243011956,-0.76416016,-0.05670166,0.73553467,-0.9375,-0.78125,-0.234375,204
205,1696243011996,-0.76538086,-0.05596924,0.73602295,-0.703125,-0.453125,-0.296875,205
206,1696243012036,-0.77441406,-0.050354004,0.7406616,-0.90625,-0.78125,0.0,206
207,1696243012076,-0.7609863,-0.054016113,0.72821045,-1.734375,0.375,-0.296875,207
208,1696243012116,-0.763916,-0.043518066,0.73236084,-0.921875,-0.703125,-0.296875,208
209,1696243012156,-0.7602539,-0.03668213,0.743103,-0.515625,-0.25,-0.40625,209
210,1696243012196,-0.76904297,-0.055236816,0.7457886,-0.65625,-0.46875,-0.015625,210
211,1696243012236,-0.7585449,-0.044006348,0.7369995,-1.03125,-0.5625,-0.25,211
212,1696243012276,-0.7675781,-0.035217285,0.7514038,-0.53125,-0.3125,-0.078125,212
213,1696243012316,-0.75927734,-0.04034424,0.7428589,-0.625,-0.25,0.359375,213
214,1696243012356,-0.7529297,-0.037902832,0.73236084,-0.875,-0.40625,0.109375,214
215,1696243012396,-0.765625,-0.05328369,0.73187256,-0.640625,-1.265625,-0.0625,215
216,1696243012436,-0.751709,-0.04083252,0.73602295,-1.40625,-0.453125,-0.46875,216
217,1696243012476,-0.7685547,-0.046936035,0.74823,-0.828125,-0.625,0.0625,217
218,1696243012516,-0.7705078,-0.035705566,0.74139404,-1.109375,-0.8125,-0.078125,218
219,1696243012556,-0.7651367,-0.03302002,0.74383545,-0.734375,-0.84375,-0.25,219
220,1696243012596,-0.7626953,-0.03277588,0.7387085,-1.0,-0.4375,-0.1875,220
221,1696243012636,-0.76586914,-0.032043457,0.7374878,-0.59375,-0.65625,-0.21875,221
222,1696243012676,-0.77197266,-0.035949707,0.73724365,-0.390625,-0.59375,-0.265625,222
223,1696243012716,-0.7661133,-0.043029785,0.7387085,-0.78125,-0.203125,-0.21875,223
224,1696243012756,-0.767334,-0.032287598,0.7399292,-0.734375,-0.296875,-0.078125,224
225,1696243012796,-0.76416016,-0.030822754,0.74139404,-0.6875,-0.390625,-0.0625,225
226,1696243012836,-0.7648926,-0.028869629,0.73846436,-0.671875,-0.28125,0.09375,226
227,1696243012876,-0.77612305,-0.023742676,0.7494507,-0.234375,-0.59375,0.03125,227
228,1696243012916,-0.75683594,-0.03717041,0.7382202,-1.40625,0.5,-0.15625,228
229,1696243012956,-0.76220703,-0.019348145,0.72528076,-0.71875,-0.265625,-0.453125,229
230,1696243012996,-0.76538086,-0.026672363,0.74871826,-0.21875,0.078125,-0.328125,230
231,1696243013036,-0.76538086,-0.035461426,0.7406616,-1.03125,-0.296875,0.0625,231
232,1696243013076,-0.7614746,-0.019592285,0.7367554,-1.046875,-0.375,-0.640625,232
233,1696243013116,-0.76831055,-0.016174316,0.74090576,-0.6875,-0.4375,-0.328125,233
234,1696243013156,-0.76220703,-0.020812988,0.7418823,-0.90625,-0.25,-0.125,234
235,1696243013196,-0.76464844,-0.018371582,0.74139404,-0.953125,-0.21875,-0.234375,235
236,1696243013236,-0.76586914,-0.029846191,0.7379761,-0.703125,-0.75,-0.234375,236
237,1696243013276,-0.75390625,-0.014221191,0.73724365,-1.09375,-0.1875,-0.390625,237
238,1696243013316,-0.76831055,-0.02154541,0.74505615,-0.15625,-0.671875,-0.015625,238
239,1696243013356,-0.7595215,-0.023010254,0.7352905,-0.125,-1.015625,0.28125,239
240,1696243013396,-0.76708984,-0.012756348,0.74432373,0.484375,-1.140625,0.140625,240
241,1696243013436,-0.76000977,-0.0115356445,0.73895264,0.578125,-0.9375,0.46875,241
242,1696243013476,-0.7687988,-0.018615723,0.74261475,0.6875,-1.1875,0.875,242
243,1696243013516,-0.76538086,-0.018127441,0.7367554,0.84375,-1.015625,0.65625,243
244,1696243013556,-0.7663574,-0.02545166,0.74139404,0.9375,-1.125,0.703125,244
245,1696243013596,-0.76660156,-0.016174316,0.73846436,1.0,-1.15625,0.765625,245
246,1696243013636,-0.7692871,-0.02935791,0.72650146,1.0,-1.140625,1.0,246
247,1696243013676,-0.77734375,-0.0178833,0.76361084,1.734375,-1.59375,1.03125,247
248,1696243013716,-0.7583008,-0.018127441,0.72039795,0.671875,-0.1875,0.875,248
249,1696243013756,-0.78271484,-0.03717041,0.7550659,1.671875,-1.21875,1.03125,249
250,1696243013796,-0.7661133,-0.03643799,0.73187256,0.59375,-0.53125,0.625,250
251,1696243013836,-0.77197266,-0.02178955,0.7352905,0.75,-0.5625,0.359375,251
252,1696243013876,-0.77319336,-0.027404785,0.7340698,1.078125,-0.53125,0.828125,252
253,1696243013916,-0.7675781,-0.0335083,0.7357788,1.4375,-0.578125,0.96875,253
254,1696243013956,-0.7722168,-0.035705566,0.732605,1.9375,-1.140625,0.859375,254
255,1696243013996,-0.77441406,-0.051574707,0.7391968,1.5,-0.953125,0.875,255
256,1696243014036,-0.767334,-0.04107666,0.7362671,0.578125,-0.390625,0.765625,256
257,1696243014076,-0.7675781,-0.04522705,0.7382202,0.375,-0.796875,0.859375,257
258,1696243014116,-0.76953125,-0.04107666,0.729187,0.28125,-0.703125,0.765625,258
259,1696243014156,-0.7746582,-0.03692627,0.7367554,0.15625,-0.5,0.484375,259
260,1696243014196,-0.7675781,-0.04058838,0.72698975,0.125,-0.359375,0.46875,260
261,1696243014236,-0.7722168,-0.03741455,0.7304077,0.484375,-0.34375,0.484375,261
262,1696243014276,-0.7763672,-0.05255127,0.7369995,0.609375,-0.140625,0.328125,262
263,1696243014316,-0.7709961,-0.042053223,0.7404175,0.46875,0.078125,0.359375,263
264,1696243014356,-0.7741699,-0.04547119,0.7387085,0.484375,-0.4375,0.484375,264
265,1696243014396,-0.7692871,-0.04864502,0.7304077,0.21875,-0.078125,0.71875,265
266,1696243014436,-0.7709961,-0.043273926,0.76239014,1.171875,-1.21875,0.96875,266
267,1696243014476,-0.7585449,-0.040100098,0.7157593,-0.265625,0.328125,0.296875,267
268,1696243014516,-0.78466797,-0.055480957,0.7494507,1.203125,-0.8125,0.8125,268
269,1696243014556,-0.7668457,-0.06060791,0.7352905,0.359375,-0.390625,0.4375,269
270,1696243014596,-0.77197266,-0.046691895,0.7338257,-0.1875,-0.390625,0.3125,270
271,1696243014636,-0.7687988,-0.042053223,0.7333374,0.359375,-0.453125,0.453125,271
272,1696243014676,-0.7705078,-0.049621582,0.73602295,0.46875,-0.109375,0.578125,272
273,1696243014716,-0.77246094,-0.05230713,0.74139404,0.703125,-0.484375,0.5625,273
274,1696243014756,-0.7614746,-0.05328369,0.73114014,0.015625,-0.0625,0.453125,274
275,1696243014796,-0.7727051,-0.049621582,0.7394409,0.375,-0.109375,0.265625,275
276,1696243014836,-0.77075195,-0.06036377,0.7445679,0.359375,-0.28125,0.4375,276
277,1696243014876,-0.7636719,-0.051574707,0.7369995,-0.03125,-0.453125,0.40625,277
278,1696243014916,-0.7709961,-0.04522705,0.7321167,0.0625,-0.546875,0.203125,278
279,1696243014956,-0.76782227,-0.051574707,0.73480225,0.140625,-0.125,0.4375,279
280,1696243014996,-0.76538086,-0.05279541,0.7316284,0.40625,-0.25,0.375,280
281,1696243015036,-0.7680664,-0.05621338,0.7369995,0.34375,-0.078125,0.3125,281
282,1696243015076,-0.76831055,-0.055236816,0.73724365,0.421875,-0.0625,0.359375,282
283,1696243015116,-0.7644043,-0.058654785,0.7379761,0.453125,-0.078125,0.46875,283
284,1696243015156,-0.7685547,-0.05621338,0.74261475,0.453125,-0.25,0.640625,284
285,1696243015196,-0.76220703,-0.049621582,0.7404175,0.203125,-0.359375,0.5625,285
286,1696243015236,-0.765625,-0.05670166,0.74432373,0.15625,-0.40625,0.34375,286
287,1696243015276,-0.76586914,-0.055236816,0.73773193,0.046875,-0.578125,0.34375,287
288,1696243015316,-0.767334,-0.062805176,0.7333374,0.078125,-0.21875,0.328125,288
289,1696243015356,-0.7709961,-0.06842041,0.74676514,0.359375,-0.4375,0.625,289
290,1696243015396,-0.75512695,-0.05230713,0.7340698,-0.734375,0.875,-0.03125,290
291,1696243015436,-0.7687988,-0.06964111,0.7313843,-0.421875,-0.140625,0.078125,291
292,1696243015476,-0.7595215,-0.046203613,0.74334717,-0.390625,0.0,-0.4375,292
293,1696243015516,-0.77368164,-0.074279785,0.7501831,-0.5,-0.359375,0.0,293
294,1696243015556,-0.75927734,-0.054748535,0.74505615,-1.125,-0.546875,-0.21875,294
295,1696243015596,-0.767334,-0.044006348,0.7345581,-1.078125,-0.59375,-0.25,295
296,1696243015636,-0.7685547,-0.046203613,0.74334717,-0.875,-0.75,-0.09375,296
297,1696243015676,-0.76171875,-0.05328369,0.73480225,-0.90625,-0.4375,0.015625,297
298,1696243015716,-0.76782227,-0.05987549,0.7399292,-0.65625,-0.828125,-0.21875,298
299,1696243015756,-0.75927734,-0.044006348,0.7406616,-0.828125,-0.53125,-0.34375,299
300,1696243015796,-0.7661133,-0.05279541,0.74871826,-0.46875,-0.453125,-0.125,300
301,1696243015836,-0.765625,-0.05279541,0.73846436,-0.984375,-0.734375,-0.109375,301
302,1696243015876,-0.7636719,-0.038879395,0.7457886,-0.859375,-0.9375,-0.4375,302
303,1696243015916,-0.75805664,-0.042297363,0.74334717,-0.875,-0.578125,-0.28125,303
304,1696243015956,-0.7648926,-0.03717041,0.730896,-1.0625,-0.6875,-0.265625,304
305,1696243015996,-0.7648926,-0.038635254,0.73895264,-0.640625,-0.6875,-0.109375,305
306,1696243016036,-0.7624512,-0.042541504,0.7418823,-0.671875,-0.453125,-0.25,306
307,1696243016076,-0.76708984,-0.042785645,0.7367554,-0.78125,-0.125,-0.203125,307
308,1696243016116,-0.76416016,-0.03643799,0.7367554,-0.9375,-0.421875,-0.125,308
309,1696243016156,-0.76293945,-0.035949707,0.7416382,-0.59375,-0.375,-0.109375,309
310,1696243016196,-0.76782227,-0.03741455,0.743103,-0.484375,-0.515625,-0.21875,310
311,1696243016236,-0.77124023,-0.03692627,0.7418823,-0.609375,-0.859375,-0.21875,311
312,1696243016276,-0.76586914,-0.03765869,0.730896,-1.234375,-0.4375,-0.234375,312
313,1696243016316,-0.7595215,-0.025939941,0.74334717,-0.671875,-1.140625,-0.203125,313
314,1696243016356,-0.765625,-0.027648926,0.73236084,-0.5625,0.109375,-0.328125,314
315,1696243016396,-0.7729492,-0.038391113,0.7536011,-0.15625,-0.453125,0.09375,315
316,1696243016436,-0.7548828,-0.027404785,0.7304077,-1.078125,-0.265625,-0.328125,316
317,1696243016476,-0.76293945,-0.0178833,0.743103,-0.109375,-0.203125,-0.328125,317
318,1696243016516,-0.76831055,-0.02520752,0.74090576,-0.265625,-0.203125,0.359375,318
319,1696243016556,-0.7651367,-0.027648926,0.7367554,-0.453125,-0.28125,0.125,319
320,1696243016596,-0.77124023,-0.030334473,0.75653076,0.015625,-0.734375,-0.015625,320
321,1696243016636,-0.75341797,-0.028625488,0.73724365,-0.921875,-0.390625,-0.34375,321
322,1696243016676,-0.76342773,-0.024963379,0.75286865,-0.640625,-0.640625,-0.25,322
323,1696243016716,-0.76293945,-0.034973145,0.7428589,-0.625,-0.71875,-0.046875,323
324,1696243016756,-0.76586914,-0.02520752,0.7501831,-0.453125,-0.796875,-0.265625,324
325,1696243016796,-0.76586914,-0.02520752,0.73846436,-0.703125,-0.703125,-0.078125,325
326,1696243016836,-0.7675781,-0.020812988,0.74139404,-0.625,-0.765625,-0.09375,326
327,1696243016876,-0.7680664,-0.027404785,0.7379761,-0.765625,-0.53125,-0.1875,327
328,1696243016916,-0.76831055,-0.030334473,0.7406616,-0.375,-0.375,-0.40625,328
329,1696243016956,-0.7636719,-0.021057129,0.7369995,-0.28125,-0.46875,-0.328125,329
330,1696243016996,-0.76293945,-0.022033691,0.74017334,0.265625,-0.796875,0.125,330
331,1696243017036,-0.76220703,-0.018615723,0.7399292,0.625,-1.28125,0.671875,331
332,1696243017076,-0.77368164,-0.0256958,0.74676514,0.90625,-1.234375,0.90625,332
333,1696243017116,-0.7614746,-0.013977051,0.729187,-0.140625,-0.234375,0.421875,333
334,1696243017156,-0.763916,-0.0256958,0.71551514,0.484375,-0.34375,0.5625,334
335,1696243017196,-0.7758789,-0.029846191,0.7494507,1.40625,-0.890625,0.703125,335
336,1696243017236,-0.76538086,-0.034240723,0.73187256,0.359375,-0.671875,0.671875,336
337,1696243017276,-0.7702637,-0.024230957,0.7321167,0.8125,-0.859375,0.59375,337
338,1696243017316,-0.7687988,-0.020812988,0.7367554,0.921875,-0.984375,0.671875,338
339,1696243017356,-0.76904297,-0.024230957,0.73773193,1.390625,-0.65625,0.8125,339
340,1696243017396,-0.7626953,-0.034729004,0.73236084,1.046875,-0.546875,0.84375,340
341,1696243017436,-0.76953125,-0.04156494,0.7338257,1.0625,-1.0,0.640625,341
342,1696243017476,-0.7626953,-0.023742676,0.7262573,0.40625,-0.015625,0.3125,342
343,1696243017516,-0.7739258,-0.03717041,0.744812,0.859375,-0.484375,0.875,343
344,1696243017556,-0.76538086,-0.038635254,0.727478,-0.09375,-0.5,0.734375,344
345,1696243017596,-0.76538086,-0.02960205,0.73846436,0.34375,-0.71875,0.234375,345
346,1696243017636,-0.7783203,-0.033996582,0.7313843,0.4375,-0.25,0.453125,346
347,1696243017676,-0.76904297,-0.039611816,0.7340698,0.53125,-0.390625,0.75,347
348,1696243017716,-0.7668457,-0.04156494,0.7321167,0.734375,-0.40625,0.40625,348
349,1696243017756,-0.7709961,-0.038879395,0.7321167,0.65625,-0.609375,0.296875,349
350,1696243017796,-0.7624512,-0.038635254,0.7304077,0.4375,-0.171875,0.53125,350
351,1696243017836,-0.7746582,-0.0413208,0.74090576,0.984375,-0.5625,0.71875,351
352,1696243017876,-0.75390625,-0.04840088,0.72528076,0.171875,0.65625,0.59375,352
353,1696243017916,-0.7680664,-0.050598145,0.74212646,0.796875,-0.34375,0.796875,353
354,1696243017956,-0.767334,-0.03741455,0.7362671,0.703125,0.078125,0.25,354
355,1696243017996,-0.7805176,-0.058898926,0.7387085,1.140625,-0.84375,0.84375,355
356,1696243018036,-0.7714844,-0.055236816,0.7382202,0.5625,-0.171875,0.796875,356
357,1696243018076,-0.7714844,-0.042785645,0.7345581,0.53125,-0.03125,0.453125,357
358,1696243018116,-0.7636719,-0.04815674,0.7379761,0.75,-0.234375,0.625,358
359,1696243018156,-0.76660156,-0.047180176,0.73724365,0.640625,-0.28125,0.859375,359
360,1696243018196,-0.7714844,-0.062316895,0.74993896,0.84375,-0.578125,0.53125,360
361,1696243018236,-0.76708984,-0.051818848,0.7379761,0.125,0.0,0.390625,361
362,1696243018276,-0.76904297,-0.050354004,0.74676514,0.375,-0.078125,0.484375,362
363,1696243018316,-0.7687988,-0.06524658,0.74090576,0.421875,-0.234375,0.578125,363
364,1696243018356,-0.7614746,-0.05596924,0.7440796,0.1875,-0.40625,0.390625,364
365,1696243018396,-0.7697754,-0.054748535,0.7267456,0.25,-0.234375,0.484375,365
366,1696243018436,-0.7607422,-0.04888916,0.7333374,0.203125,-0.0625,0.375,366
367,1696243018476,-0.7680664,-0.058654785,0.7357788,0.546875,-0.25,0.484375,367
368,1696243018516,-0.76904297,-0.05645752,0.7387085,0.28125,-0.03125,0.453125,368
369,1696243018556,-0.76782227,-0.059631348,0.7333374,0.234375,-0.046875,0.421875,369
370,1696243018596,-0.7648926,-0.057678223,0.73968506,0.390625,-0.3125,0.34375,370
371,1696243018636,-0.76538086,-0.057434082,0.74505615,0.3125,-0.234375,0.578125,371
372,1696243018676,-0.763916,-0.05621338,0.7435913,0.21875,-0.390625,0.359375,372
373,1696243018716,-0.7624512,-0.06085205,0.7338257,0.3125,-0.28125,0.109375,373
374,1696243018756,-0.767334,-0.057678223,0.7367554,0.3125,-0.140625,0.21875,374
375,1696243018796,-0.76831055,-0.06451416,0.74432373,0.390625,-0.328125,0.421875,375
376,1696243018836,-0.7595215,-0.049621582,0.7428589,0.0625,-0.1875,0.359375,376
377,1696243018876,-0.75878906,-0.066223145,0.7230835,-0.5625,0.015625,0.3125,377
378,1696243018916,-0.76586914,-0.0491333,0.744812,0.46875,-0.671875,0.078125,378
379,1696243018956,-0.7687988,-0.077941895,0.75115967,0.3125,-0.296875,0.640625,379
380,1696243018996,-0.7687988,-0.06695557,0.7382202,-0.015625,-0.375,0.359375,380
381,1696243019036,-0.7624512,-0.059143066,0.7416382,-0.1875,-0.421875,0.109375,381
382,1696243019076,-0.7648926,-0.06036377,0.7428589,0.109375,-0.234375,0.3125,382
383,1696243019116,-0.76782227,-0.06329346,0.74212646,-0.203125,-0.21875,0.28125,383
384,1696243019156,-0.75634766,-0.07281494,0.73895264,-0.546875,0.0,0.21875,384
385,1696243019196,-0.7536621,-0.0569458,0.7362671,-0.515625,-0.21875,-0.03125,385
386,1696243019236,-0.75805664,-0.06378174,0.74798584,-0.328125,-0.34375,-0.078125,386
387,1696243019276,-0.7663574,-0.070373535,0.74383545,-0.765625,-0.46875,-0.109375,387
388,1696243019316,-0.7709961,-0.055236816,0.7460327,-0.859375,-0.609375,-0.015625,388
389,1696243019356,-0.76049805,-0.051574707,0.743103,-0.90625,-0.578125,-0.125,389
390,1696243019396,-0.7597656,-0.05230713,0.74261475,-1.0,-0.53125,-0.1875,390
391,1696243019436,-0.7663574,-0.058898926,0.7411499,-0.796875,-0.515625,0.0,391
392,1696243019476,-0.7602539,-0.058898926,0.74212646,-0.890625,-0.34375,-0.3125,392
393,1696243019516,-0.7565918,-0.05645752,0.744812,-0.75,-0.515625,-0.09375,393
394,1696243019556,-0.7626953,-0.050109863,0.73846436,-0.75,-0.640625,0.0,394
395,1696243019596,-0.7702637,-0.050598145,0.7440796,-0.765625,-0.5,0.1875,395
396,1696243019636,-0.76660156,-0.046203613,0.73846436,-0.890625,-0.734375,-0.28125,396
397,1696243019676,-0.7609863,-0.047912598,0.744812,-0.640625,-0.59375,-0.34375,397
398,1696243019716,-0.76293945,-0.047668457,0.7435913,-0.609375,-0.71875,-0.078125,398
399,1696243019756,-0.7697754,-0.04888916,0.7350464,-1.15625,-0.59375,0.0625,399
400,1696243019796,-0.75927734,-0.034484863,0.7477417,-0.8125,-1.03125,-0.140625,400
401,1696243019836,-0.7565918,-0.035217285,0.73358154,-0.71875,0.03125,-0.28125,401
402,1696243019876,-0.7717285,-0.05303955,0.7562866,-0.1875,-0.859375,-0.015625,402
403,1696243019916,-0.7570801,-0.041809082,0.73846436,-1.03125,-0.546875,-0.234375,403
404,1696243019956,-0.76416016,-0.028137207,0.7416382,-0.859375,-0.546875,-0.234375,404
405,1696243019996,-0.7692871,-0.038879395,0.7404175,-0.703125,-0.515625,-0.21875,405
406,1696243020036,-0.7663574,-0.042053223,0.74212646,-0.734375,-0.5,-0.109375,406
407,1696243020076,-0.77612305,-0.038635254,0.75531006,-0.1875,-1.03125,0.0,407
408,1696243020116,-0.77001953,-0.03643799,0.7394409,-0.859375,-0.703125,-0.265625,408
409,1696243020156,-0.76708984,-0.031066895,0.74554443,-0.65625,-0.359375,-0.109375,409
410,1696243020196,-0.7602539,-0.043273926,0.7399292,-0.6875,-0.65625,-0.109375,410
411,1696243020236,-0.765625,-0.035217285,0.7411499,-0.671875,-0.84375,-0.1875,411
412,1696243020276,-0.7661133,-0.02545166,0.74017334,-0.828125,-1.0625,-0.328125,412
413,1696243020316,-0.76660156,-0.027160645,0.7411499,-0.828125,-0.28125,-0.296875,413
414,1696243020356,-0.7680664,-0.02960205,0.7367554,-0.71875,-0.40625,-0.046875,414
415,1696243020396,-0.77124023,-0.03326416,0.7394409,-0.703125,-0.546875,-0.078125,415
416,1696243020436,-0.7663574,-0.02960205,0.7345581,-0.71875,-0.40625,-0.1875,416
417,1696243020476,-0.76660156,-0.027404785,0.7399292,-0.578125,-0.4375,-0.265625,417
418,1696243020516,-0.7626953,-0.027404785,0.746521,-0.546875,-0.53125,-0.046875,418
419,1696243020556,-0.763916,-0.026672363,0.7418823,-0.5,-0.421875,-0.078125,419
420,1696243020596,-0.7739258,-0.027893066,0.7489624,0.109375,-0.96875,0.015625,420
421,1696243020636,-0.76171875,-0.026184082,0.73846436,-0.96875,0.0,0.0,421
422,1696243020676,-0.7668457,-0.015930176,0.72772217,-0.421875,-0.75,-0.09375,422
423,1696243020716,-0.7663574,-0.023010254,0.7399292,-0.09375,-0.515625,0.03125,423
424,1696243020756,-0.7661133,-0.032287598,0.7382202,-0.0625,-0.34375,0.234375,424
425,1696243020796,-0.7631836,-0.015197754,0.73358154,0.15625,-0.671875,0.046875,425
426,1696243020836,-0.7702637,-0.020080566,0.7406616,0.5,-0.90625,0.3125,426
427,1696243020876,-0.767334,-0.022033691,0.73846436,0.59375,-0.609375,0.6875,427
428,1696243020916,-0.76293945,-0.022766113,0.7367554,0.84375,-1.046875,0.828125,428
429,1696243020956,-0.7729492,-0.031311035,0.7509155,1.390625,-1.46875,0.828125,429
430,1696243020996,-0.76171875,-0.027893066,0.73236084,0.625,-0.421875,0.59375,430
431,1696243021036,-0.76708984,-0.030822754,0.7394409,1.0625,-0.890625,0.640625,431
432,1696243021076,-0.77319336,-0.03326416,0.7338257,0.859375,-0.796875,0.890625,432
433,1696243021116,-0.7644043,-0.025939941,0.7440796,1.0,-0.875,0.546875,433
434,1696243021156,-0.763916,-0.031066895,0.7289429,0.65625,-0.6875,0.625,434
435,1696243021196,-0.7648926,-0.028137207,0.73773193,0.734375,-0.53125,0.53125,435
436,1696243021236,-0.765625,-0.04034424,0.7316284,0.609375,-0.59375,0.671875,436
437,1696243021276,-0.7675781,-0.042541504,0.7404175,0.59375,-0.421875,0.484375,437
438,1696243021316,-0.7661133,-0.039855957,0.7362671,0.34375,-0.40625,0.515625,438
439,1696243021356,-0.77001953,-0.03692627,0.74383545,0.734375,-0.53125,0.453125,439
440,1696243021396,-0.7770996,-0.038146973,0.7406616,0.921875,-0.765625,1.03125,440
441,1696243021436,-0.7668457,-0.04498291,0.7272339,0.234375,-0.265625,0.625,441
442,1696243021476,-0.77490234,-0.031066895,0.7575073,1.1875,-1.359375,0.625,442
443,1696243021516,-0.7519531,-0.029846191,0.71673584,0.09375,0.328125,0.234375,443
444,1696243021556,-0.77563477,-0.04815674,0.7560425,1.359375,-0.84375,0.734375,444
445,1696243021596,-0.7680664,-0.05303955,0.7382202,0.671875,-0.53125,0.671875,445
446,1696243021636,-0.7741699,-0.04083252,0.7333374,0.328125,-0.640625,0.53125,446
447,1696243021676,-0.77490234,-0.03741455,0.7362671,0.671875,-0.546875,0.5625,447
448,1696243021716,-0.77612305,-0.042541504,0.730896,0.609375,-0.40625,0.9375,448
449,1696243021756,-0.779541,-0.04547119,0.7338257,0.71875,-0.40625,0.65625,449
450,1696243021796,-0.76904297,-0.055725098,0.7238159,0.34375,-0.25,0.46875,450
451,1696243021836,-0.7626953,-0.04864502,0.7321167,0.21875,-0.03125,0.125,451
452,1696243021876,-0.7644043,-0.059631348,0.74554443,0.421875,-0.234375,0.46875,452
453,1696243021916,-0.7626953,-0.05670166,0.73309326,-0.0625,-0.578125,0.53125,453
454,1696243021956,-0.7685547,-0.047668457,0.7362671,0.421875,-0.6875,0.28125,454
455,1696243021996,-0.7668457,-0.046203613,0.73724365,0.265625,-0.234375,0.578125,455
456,1696243022036,-0.76708984,-0.05596924,0.72869873,0.359375,-0.328125,0.5625,456
457,1696243022076,-0.7680664,-0.066467285,0.73602295,0.3125,-0.4375,0.265625,457
458,1696243022116,-0.7692871,-0.054748535,0.73187256,-0.09375,-0.296875,0.296875,458
459,1696243022156,-0.76660156,-0.05670166,0.7379761,0.09375,-0.109375,0.359375,459
460,1696243022196,-0.76123047,-0.054748535,0.7382202,0.34375,-0.53125,0.640625,460
461,1696243022236,-0.7687988,-0.053527832,0.7338257,0.265625,-0.5,0.453125,461
462,1696243022276,-0.7692871,-0.058898926,0.7367554,0.25,-0.21875,0.25,462
463,1696243022316,-0.7722168,-0.057678223,0.74334717,0.515625,-0.515625,0.375,463
464,1696243022356,-0.7619629,-0.059631348,0.7387085,-0.1875,-0.3125,0.421875,464
465,1696243022396,-0.77075195,-0.054992676,0.7555542,0.75,-1.21875,0.765625,465
466,1696243022436,-0.7529297,-0.04498291,0.71795654,-0.4375,0.0,0.0625,466
467,1696243022476,-0.77685547,-0.062561035,0.7418823,0.78125,-0.625,0.765625,467
468,1696243022516,-0.7609863,-0.06793213,0.7362671,0.390625,-0.015625,0.625,468
469,1696243022556,-0.7741699,-0.054016113,0.73065186,0.140625,-0.625,0.46875,469
470,1696243022596,-0.76708984,-0.04937744,0.73773193,0.265625,-0.75,0.375,470
471,1696243022636,-0.767334,-0.05621338,0.7367554,0.25,-0.046875,0.515625,471
472,1696243022676,-0.7619629,-0.06427002,0.74334717,0.34375,-0.25,0.265625,472
473,1696243022716,-0.75878906,-0.061340332,0.72869873,-0.46875,-0.0625,0.296875,473
474,1696243022756,-0.76220703,-0.058166504,0.73773193,-0.21875,-0.296875,0.21875,474
475,1696243022796,-0.7770996,-0.06427002,0.746521,0.015625,-0.5,0.3125,475
476,1696243022836,-0.76660156,-0.059387207,0.7362671,-0.234375,-0.390625,0.078125,476
477,1696243022876,-0.7602539,-0.057922363,0.743103,-0.1875,-0.421875,-0.09375,477
478,1696243022916,-0.75756836,-0.06329346,0.7406616,-0.203125,0.078125,-0.109375,478
479,1696243022956,-0.75512695,-0.05987549,0.74627686,-0.1875,-0.46875,-0.015625,479
480,1696243022996,-0.76000977,-0.06524658,0.74432373,-0.546875,-0.484375,-0.171875,480
481,1696243023036,-0.7644043,-0.05230713,0.74627686,-0.890625,-0.578125,-0.046875,481
482,1696243023076,-0.76538086,-0.05206299,0.73895264,-0.71875,-0.84375,-0.03125,482
483,1696243023116,-0.7702637,-0.05255127,0.73553467,-0.75,-0.5,0.078125,483
484,1696243023156,-0.77001953,-0.057678223,0.74017334,-0.546875,-0.46875,-0.015625,484
485,1696243023196,-0.76586914,-0.055236816,0.7374878,-0.578125,-0.296875,-0.171875,485
486,1696243023236,-0.76293945,-0.050109863,0.73553467,-0.4375,-0.390625,-0.328125,486
487,1696243023276,-0.75927734,-0.051818848,0.7367554,-0.75,-0.203125,-0.078125,487
488,1696243023316,-0.76416016,-0.059143066,0.758728,-0.171875,-0.84375,0.21875,488
489,1696243023356,-0.7458496,-0.04425049,0.7345581,-1.671875,0.140625,-0.46875,489
490,1696243023396,-0.7717285,-0.051818848,0.72869873,-1.203125,-0.59375,0.0,490
491,1696243023436,-0.7792969,-0.04937744,0.7567749,-0.421875,-0.53125,-0.109375,491
492,1696243023476,-0.7763672,-0.054016113,0.732605,-1.25,-0.296875,-0.140625,492
493,1696243023516,-0.767334,-0.041809082,0.7301636,-1.421875,-0.359375,-0.5625,493
494,1696243023556,-0.76708984,-0.039611816,0.7484741,-0.53125,-0.21875,-0.3125,494
495,1696243023596,-0.76123047,-0.038391113,0.74871826,-0.609375,-0.28125,0.0625,495
496,1696243023636,-0.76293945,-0.042053223,0.74212646,-0.859375,-0.703125,-0.09375,496
497,1696243023676,-0.76464844,-0.04547119,0.7394409,-0.828125,-0.703125,-0.109375,497
498,1696243023716,-0.7546387,-0.03741455,0.732605,-1.34375,-0.28125,-0.75,498
499,1696243023756,-0.76660156,-0.039367676,0.7470093,-0.6875,-0.75,-0.03125,499
500,1696243023796,-0.7607422,-0.03717041,0.7369995,-0.984375,-0.640625,-0.015625,500
501,1696243023836,-0.76293945,-0.031555176,0.74383545,-0.703125,-0.796875,-0.125,501
502,1696243023876,-0.7692871,-0.030334473,0.73236084,-0.75,-0.625,-0.09375,502
503,1696243023916,-0.76831055,-0.030090332,0.7404175,-0.640625,-0.765625,-0.125,503
504,1696243023956,-0.7709961,-0.03277588,0.74334717,-0.46875,-0.609375,-0.265625,504
505,1696243023996,-0.7697754,-0.03253174,0.7357788,-0.65625,-0.5,-0.171875,505
506,1696243024036,-0.76171875,-0.03375244,0.7382202,-0.71875,-0.421875,-0.328125,506
507,1696243024076,-0.767334,-0.022033691,0.74139404,-0.515625,-0.5625,-0.125,507
508,1696243024116,-0.7595215,-0.030334473,0.7416382,-0.703125,-0.40625,-0.140625,508
509,1696243024156,-0.7644043,-0.026184082,0.74676514,-0.546875,-0.5,-0.09375,509
510,1696243024196,-0.7626953,-0.028869629,0.7333374,-0.625,-0.546875,-0.109375,510
511,1696243024236,-0.7722168,-0.028869629,0.7477417,-0.25,-0.734375,0.1875,511
512,1696243024276,-0.76293945,-0.021057129,0.73309326,-1.3125,0.375,-0.390625,512
513,1696243024316,-0.7636719,-0.020324707,0.72991943,-0.609375,-0.265625,-0.140625,513
514,1696243024356,-0.7734375,-0.03375244,0.7572632,0.09375,-0.625,0.125,514
515,1696243024396,-0.763916,-0.028869629,0.7382202,-0.421875,-0.578125,0.171875,515
516,1696243024436,-0.7668457,-0.016662598,0.72991943,-0.390625,-0.5,-0.125,516
517,1696243024476,-0.77197266,-0.023254395,0.7435913,-0.09375,-0.828125,0.234375,517
518,1696243024516,-0.7685547,-0.019592285,0.74334717,-0.15625,-0.46875,0.21875,518
519,1696243024556,-0.7661133,-0.022277832,0.7374878,-0.09375,-0.578125,0.15625,519
520,1696243024596,-0.763916,-0.027648926,0.73773193,0.1875,-1.171875,0.3125,520
521,1696243024636,-0.75927734,-0.01739502,0.72943115,-0.171875,-0.34375,0.1875,521
522,1696243024676,-0.7685547,-0.029846191,0.746521,0.78125,-0.8125,0.6875,522
523,1696243024716,-0.76904297,-0.033996582,0.7387085,0.71875,-0.921875,0.84375,523
524,1696243024756,-0.76342773,-0.0256958,0.7411499,1.15625,-0.9375,0.703125,524
525,1696243024796,-0.7651367,-0.026184082,0.7328491,1.15625,-0.8125,0.859375,525
526,1696243024836,-0.77197266,-0.024230957,0.74261475,1.03125,-0.6875,0.859375,526
527,1696243024876,-0.7758789,-0.03692627,0.73187256,0.921875,-0.53125,0.84375,527
528,1696243024916,-0.7729492,-0.038146973,0.73895264,0.703125,-0.5625,0.640625,528
529,1696243024956,-0.76831055,-0.033996582,0.7328491,0.671875,-0.484375,0.6875,529
530,1696243024996,-0.763916,-0.035949707,0.73431396,0.953125,-0.59375,0.78125,530
531,1696243025036,-0.7663574,-0.044006348,0.74383545,0.9375,-0.71875,0.875,531
532,1696243025076,-0.77001953,-0.03741455,0.72943115,0.625,-0.5625,0.59375,532
533,1696243025116,-0.779541,-0.046447754,0.7350464,0.84375,-0.6875,0.734375,533
534,1696243025156,-0.76904297,-0.02960205,0.73358154,0.515625,-0.296875,0.390625,534
535,1696243025196,-0.76586914,-0.039611816,0.7230835,0.28125,0.25,0.546875,535
536,1696243025236,-0.7746582,-0.04425049,0.74871826,1.40625,-0.484375,0.5625,536
537,1696243025276,-0.76538086,-0.054504395,0.73773193,0.984375,-0.359375,0.78125,537
538,1696243025316,-0.75927734,-0.04840088,0.7382202,0.34375,-0.34375,0.609375,538
539,1696243025356,-0.7692871,-0.035705566,0.732605,0.703125,-0.59375,0.609375,539
540,1696243025396,-0.77978516,-0.04156494,0.7374878,0.5,-0.296875,0.921875,540
541,1696243025436,-0.7685547,-0.047180176,0.73358154,0.578125,-0.328125,0.609375,541
542,1696243025476,-0.7714844,-0.05303955,0.7399292,0.859375,-0.484375,0.578125,542
543,1696243025516,-0.75927734,-0.042785645,0.72528076,0.234375,0.03125,0.265625,543
544,1696243025556,-0.7739258,-0.050842285,0.7406616,0.5625,-0.140625,0.5625,544
545,1696243025596,-0.7692871,-0.057678223,0.73724365,0.375,-0.296875,0.59375,545
546,1696243025636,-0.767334,-0.0491333,0.7387085,0.34375,-0.453125,0.40625,546
547,1696243025676,-0.7619629,-0.047912598,0.7350464,0.296875,-0.421875,0.421875,547
548,1696243025716,-0.7648926,-0.05230713,0.73431396,0.28125,-0.515625,0.640625,548
549,1696243025756,-0.767334,-0.06109619,0.74212646,0.40625,-0.484375,0.453125,549
550,1696243025796,-0.7680664,-0.051818848,0.73309326,0.234375,-0.171875,0.484375,550
551,1696243025836,-0.7609863,-0.055480957,0.7333374,0.359375,-0.0625,0.375,551
552,1696243025876,-0.76171875,-0.047180176,0.7418823,0.359375,-0.28125,0.53125,552
553,1696243025916,-0.7668457,-0.0569458,0.7367554,0.359375,-0.53125,0.671875,553
554,1696243025956,-0.763916,-0.054992676,0.74017334,0.15625,-0.5625,0.515625,554
555,1696243025996,-0.7709961,-0.054504395,0.7362671,0.234375,-0.328125,0.421875,555
556,1696243026036,-0.77319336,-0.058410645,0.7406616,0.484375,-0.6875,0.40625,556
557,1696243026076,-0.7595215,-0.059631348,0.7391968,-0.125,0.15625,0.390625,557
558,1696243026116,-0.7624512,-0.055725098,0.7477417,0.90625,-0.90625,0.6875,558
559,1696243026156,-0.75,-0.04522705,0.7184448,-0.515625,0.359375,-0.109375,559
560,1696243026196,-0.7668457,-0.061584473,0.74798584,0.90625,-0.6875,0.6875,560
561,1696243026236,-0.76464844,-0.07476807,0.7428589,0.5,-0.28125,0.390625,561
562,1696243026276,-0.7685547,-0.059631348,0.7387085,0.03125,-0.390625,0.28125,562
563,1696243026316,-0.7644043,-0.05230713,0.74432373,0.265625,-0.265625,0.375,563
564,1696243026356,-0.7636719,-0.06085205,0.7404175,0.3125,-0.3125,0.53125,564
565,1696243026396,-0.7644043,-0.061584473,0.73431396,0.03125,-0.328125,0.46875,565
566,1696243026436,-0.75634766,-0.06964111,0.7279663,-0.296875,-0.171875,0.234375,566
567,1696243026476,-0.76586914,-0.05596924,0.73480225,-0.09375,-0.4375,0.1875,567
568,1696243026516,-0.7697754,-0.06304932,0.7435913,0.09375,-0.40625,0.375,568
569,1696243026556,-0.7644043,-0.06329346,0.7387085,-0.109375,-0.453125,0.3125,569
570,1696243026596,-0.7668457,-0.057678223,0.7416382,-0.09375,-0.140625,0.109375,570
571,1696243026636,-0.7561035,-0.05718994,0.73895264,-0.0625,-0.328125,0.15625,571
572,1696243026676,-0.76708984,-0.06329346,0.73773193,0.09375,-0.5,0.296875,572
573,1696243026716,-0.7636719,-0.062072754,0.7435913,-0.0625,-0.625,0.359375,573
574,1696243026756,-0.7727051,-0.06011963,0.7435913,-0.21875,-0.46875,0.15625,574
575,1696243026796,-0.7675781,-0.062072754,0.7406616,-0.234375,-0.515625,0.0,575
576,1696243026836,-0.7636719,-0.061584473,0.73480225,-0.1875,-0.546875,0.03125,576
577,1696243026876,-0.76342773,-0.05987549,0.7418823,-0.171875,-0.453125,0.140625,577
578,1696243026916,-0.7614746,-0.06524658,0.7406616,-0.125,-0.625,0.09375,578
579,1696243026956,-0.76464844,-0.06549072,0.7367554,-0.203125,-0.578125,-0.125,579
580,1696243026996,-0.767334,-0.05255127,0.7338257,-0.75,-0.4375,-0.1875,580
581,1696243027036,-0.763916,-0.05987549,0.7445679,-0.3125,-0.515625,0.265625,581
582,1696243027076,-0.7585449,-0.050842285,0.7374878,-0.828125,-0.140625,-0.34375,582
583,1696243027116,-0.763916,-0.054260254,0.71868896,-1.390625,-0.28125,-0.078125,583
584,1696243027156,-0.7663574,-0.055480957,0.7536011,-0.03125,-0.515625,-0.296875,584
585,1696243027196,-0.76782227,-0.06109619,0.7362671,-0.625,-0.40625,-0.078125,585
586,1696243027236,-0.7687988,-0.054748535,0.73065186,-1.21875,-0.671875,-0.28125,586
587,1696243027276,-0.7680664,-0.0413208,0.7404175,-0.609375,-0.484375,-0.15625,587
588,1696243027316,-0.77001953,-0.05670166,0.75115967,-0.46875,0.109375,-0.03125,588
589,1696243027356,-0.7565918,-0.055725098,0.74432373,-0.8125,-0.28125,-0.25,589
590,1696243027396,-0.7504883,-0.061340332,0.7362671,-0.59375,-1.046875,0.015625,590
591,1696243027436,-0.7595215,-0.043762207,0.7340698,-0.953125,-0.796875,-0.234375,591
592,1696243027476,-0.77246094,-0.045715332,0.7489624,-0.59375,-0.703125,0.09375,592
593,1696243027516,-0.7590332,-0.045959473,0.7387085,-0.984375,-0.578125,0.046875,593
594,1696243027556,-0.7648926,-0.031799316,0.7418823,-0.84375,-0.765625,-0.109375,594
595,1696243027596,-0.7675781,-0.045959473,0.74505615,-0.609375,-0.609375,-0.203125,595
596,1696243027636,-0.7626953,-0.0491333,0.73968506,-0.546875,-0.578125,-0.140625,596
597,1696243027676,-0.7624512,-0.047424316,0.7457886,-0.703125,-0.78125,-0.09375,597
598,1696243027716,-0.76708984,-0.04840088,0.7435913,-0.640625,-0.5625,-0.09375,598
599,1696243027756,-0.75927734,-0.0491333,0.74139404,-0.625,-0.390625,-0.28125,599
600,1696243027796,-0.7597656,-0.0335083,0.7435913,-0.40625,-0.40625,-0.0625,600
601,1696243027836,-0.7573242,-0.03375244,0.73773193,-0.65625,-0.578125,-0.25,601
602,1696243027876,-0.76538086,-0.04107666,0.7418823,-0.671875,-0.53125,-0.015625,602
603,1696243027916,-0.7636719,-0.042297363,0.74261475,-0.390625,-0.78125,-0.171875,603
604,1696243027956,-0.76708984,-0.043273926,0.72698975,-1.015625,-0.390625,-0.125,604
605,1696243027996,-0.76831055,-0.027648926,0.7501831,-0.46875,-1.0,-0.3125,605
606,1696243028036,-0.7609863,-0.031066895,0.7296753,-0.453125,-0.1875,-0.125,606
607,1696243028076,-0.779541,-0.039611816,0.7484741,-0.046875,-0.8125,0.359375,607
608,1696243028116,-0.76660156,-0.031799316,0.73651123,-0.625,-0.1875,-0.15625,608
609,1696243028156,-0.7624512,-0.025939941,0.7428589,-0.34375,-0.21875,-0.28125,609
610,1696243028196,-0.7636719,-0.03375244,0.7457886,-0.375,-0.40625,-0.125,610
611,1696243028236,-0.76464844,-0.031066895,0.74139404,-0.53125,-0.828125,0.0625,611
612,1696243028276,-0.76660156,-0.035217285,0.743103,-0.34375,-0.625,-0.140625,612
613,1696243028316,-0.767334,-0.03277588,0.7350464,-0.890625,-0.546875,0.03125,613
614,1696243028356,-0.76049805,-0.023498535,0.7379761,-0.75,0.140625,-0.453125,614
615,1696243028396,-0.7619629,-0.033996582,0.74261475,-0.34375,-0.53125,0.03125,615
616,1696243028436,-0.7648926,-0.022033691,0.7428589,-0.875,-0.59375,-0.25,616
617,1696243028476,-0.76953125,-0.02178955,0.7345581,-0.734375,-0.796875,-0.203125,617
618,1696243028516,-0.7631836,-0.016662598,0.73602295,-0.765625,-0.5,-0.203125,618
619,1696243028556,-0.7763672,-0.027648926,0.7352905,-0.421875,-0.71875,-0.015625,619
620,1696243028596,-0.7705078,-0.024719238,0.7416382,-0.375,-0.484375,-0.109375,620
621,1696243028636,-0.76049805,-0.019348145,0.73846436,-0.21875,-0.5625,-0.15625,621
622,1696243028676,-0.7631836,-0.025939941,0.74139404,-0.015625,-0.875,0.125,622
623,1696243028716,-0.7661133,-0.019104004,0.7472534,0.421875,-0.75,0.390625,623
624,1696243028756,-0.76171875,-0.019348145,0.73651123,0.390625,-0.703125,0.453125,624
625,1696243028796,-0.7661133,-0.028869629,0.727478,-0.0625,-0.65625,0.53125,625
626,1696243028836,-0.7741699,-0.016906738,0.75994873,0.5,-1.109375,0.203125,626
627,1696243028876,-0.7636719,-0.019592285,0.7313843,0.125,-0.296875,0.265625,627
628,1696243028916,-0.7866211,-0.03692627,0.7531128,0.859375,-0.5,0.578125,628
629,1696243028956,-0.75927734,-0.0256958,0.7247925,0.328125,-0.796875,0.484375,629
630,1696243028996,-0.7619629,-0.018127441,0.7391968,0.84375,-1.015625,0.421875,630
631,1696243029036,-0.7697754,-0.025939941,0.7391968,0.734375,-0.78125,0.859375,631
632,1696243029076,-0.77441406,-0.024963379,0.73358154,0.453125,-0.6875,0.671875,632
633,1696243029116,-0.765625,-0.027648926,0.7350464,0.84375,-0.859375,0.34375,633
634,1696243029156,-0.76293945,-0.04473877,0.7304077,0.734375,-0.75,0.671875,634
635,1696243029196,-0.7607422,-0.033996582,0.7284546,0.015625,-0.265625,0.296875,635
636,1696243029236,-0.7717285,-0.038391113,0.74017334,0.671875,-0.65625,0.734375,636
637,1696243029276,-0.76904297,-0.041809082,0.73358154,0.234375,-0.625,0.515625,637
638,1696243029316,-0.7697754,-0.031066895,0.74090576,0.6875,-0.59375,0.28125,638
639,1696243029356,-0.7746582,-0.03741455,0.73602295,0.515625,-0.40625,0.75,639
640,1696243029396,-0.76904297,-0.038391113,0.74212646,0.671875,-0.546875,0.625,640
641,1696243029436,-0.7697754,-0.039855957,0.7345581,0.5625,-0.421875,0.59375,641
642,1696243029476,-0.7663574,-0.039123535,0.7328491,0.640625,-0.515625,0.359375,642
643,1696243029516,-0.76904297,-0.0413208,0.7374878,0.703125,-0.53125,0.453125,643
644,1696243029556,-0.7729492,-0.043273926,0.74676514,0.828125,-0.296875,0.640625,644
645,1696243029596,-0.7714844,-0.038879395,0.73480225,0.46875,-0.546875,0.765625,645
646,1696243029636,-0.76904297,-0.046447754,0.72772217,0.3125,-0.390625,0.828125,646
647,1696243029676,-0.77734375,-0.034484863,0.7601929,1.25,-1.421875,0.859375,647
648,1696243029716,-0.7609863,-0.036193848,0.7250366,0.140625,0.328125,0.15625,648
649,1696243029756,-0.7780762,-0.057922363,0.7550659,1.5,-1.1875,0.859375,649
650,1696243029796,-0.76538086,-0.055480957,0.72991943,0.828125,-0.453125,0.765625,650
651,1696243029836,-0.76538086,-0.043273926,0.7369995,0.5625,-0.609375,0.484375,651
652,1696243029876,-0.76953125,-0.044006348,0.73724365,0.703125,-0.40625,0.703125,652
653,1696243029916,-0.7680664,-0.04840088,0.7406616,0.5,-0.484375,0.6875,653
654,1696243029956,-0.7687988,-0.05328369,0.7313843,0.234375,-0.46875,0.671875,654
655,1696243029996,-0.76782227,-0.054504395,0.73236084,0.125,-0.28125,0.609375,655
656,1696243030036,-0.76708984,-0.04840088,0.7345581,0.125,-0.171875,0.125,656
657,1696243030076,-0.7746582,-0.05596924,0.74432373,0.25,-0.1875,0.5,657
658,1696243030116,-0.763916,-0.053771973,0.73309326,0.078125,-0.265625,0.640625,658
659,1696243030156,-0.767334,-0.047912598,0.7352905,0.375,-0.453125,0.390625,659
660,1696243030196,-0.7651367,-0.058654785,0.730896,0.265625,-0.078125,0.40625,660
661,1696243030236,-0.765625,-0.05645752,0.7338257,0.359375,-0.328125,0.328125,661
662,1696243030276,-0.7729492,-0.059631348,0.7428589,0.40625,-0.34375,0.453125,662
663,1696243030316,-0.7648926,-0.05670166,0.7374878,0.25,-0.0625,0.34375,663
664,1696243030356,-0.76708984,-0.051086426,0.7406616,0.1875,-0.140625,0.421875,664
665,1696243030396,-0.767334,-0.050598145,0.74432373,0.421875,-0.375,0.515625,665
666,1696243030436,-0.76708984,-0.057434082,0.74334717,0.28125,-0.359375,0.671875,666
667,1696243030476,-0.7636719,-0.05621338,0.73114014,0.09375,-0.671875,0.546875,667
668,1696243030516,-0.7792969,-0.058654785,0.72650146,0.21875,-0.75,0.640625,668
669,1696243030556,-0.7817383,-0.04888916,0.7555542,0.484375,-0.671875,0.609375,669
670,1696243030596,-0.7602539,-0.05718994,0.7304077,-0.53125,0.625,0.296875,670
671,1696243030636,-0.76416016,-0.055725098,0.7514038,0.984375,-0.21875,0.296875,671
672,1696243030676,-0.7597656,-0.077941895,0.744812,0.703125,-0.59375,0.5,672
673,1696243030716,-0.7717285,-0.061828613,0.744812,0.046875,-0.71875,0.421875,673
674,1696243030756,-0.7680664,-0.06085205,0.74334717,-0.015625,-0.484375,0.34375,674
675,1696243030796,-0.7705078,-0.058654785,0.74261475,0.0,-0.0625,0.375,675
676,1696243030836,-0.76586914,-0.057678223,0.7362671,-0.265625,-0.234375,0.25,676
677,1696243030876,-0.76464844,-0.06890869,0.73309326,-0.625,-0.125,0.21875,677
678,1696243030916,-0.75756836,-0.055236816,0.73895264,-0.34375,-0.15625,-0.046875,678
679,1696243030956,-0.76342773,-0.070129395,0.7509155,-0.46875,-0.21875,-0.125,679
680,1696243030996,-0.7631836,-0.066711426,0.7367554,-1.109375,-0.40625,-0.15625,680
681,1696243031036,-0.76293945,-0.051330566,0.7418823,-0.59375,-0.78125,-0.234375,681
682,1696243031076,-0.7714844,-0.05328369,0.74505615,-0.546875,-0.734375,0.015625,682
683,1696243031116,-0.7619629,-0.054504395,0.7399292,-0.796875,-0.546875,-0.15625,683
684,1696243031156,-0.77197266,-0.06011963,0.73553467,-0.515625,-0.640625,-0.1875,684
685,1696243031196,-0.76586914,-0.055480957,0.73895264,-0.984375,-0.46875,-0.21875,685
686,1696243031236,-0.76342773,-0.051330566,0.7357788,-0.765625,-0.375,-0.203125,686
687,1696243031276,-0.76049805,-0.051086426,0.7423706,-0.4375,-0.578125,-0.1875,687
688,1696243031316,-0.7602539,-0.04937744,0.73895264,-0.53125,-0.640625,-0.03125,688
689,1696243031356,-0.7583008,-0.04888916,0.744812,-0.796875,-0.390625,-0.171875,689
690,1696243031396,-0.7590332,-0.049621582,0.7391968,-1.015625,-0.453125,-0.3125,690
691,1696243031436,-0.77490234,-0.054748535,0.7440796,-0.578125,-0.921875,0.109375,691
692,1696243031476,-0.75927734,-0.034729004,0.7289429,-1.59375,-0.0625,-0.40625,692
693,1696243031516,-0.76538086,-0.038635254,0.727478,-0.9375,-0.328125,-0.15625,693
694,1696243031556,-0.77246094,-0.05206299,0.7562866,-0.03125,-0.515625,-0.15625,694
695,1696243031596,-0.76538086,-0.050842285,0.73773193,-0.875,-0.34375,-0.125,695
696,1696243031636,-0.7536621,-0.03302002,0.73114014,-0.84375,-0.640625,-0.375,696
697,1696243031676,-0.76586914,-0.044006348,0.7472534,-0.53125,-0.5625,-0.0625,697
698,1696243031716,-0.76782227,-0.039367676,0.7440796,-0.640625,-0.34375,0.125,698
699,1696243031756,-0.76660156,-0.036193848,0.73480225,-0.890625,-0.71875,-0.171875,699
700,1696243031796,-0.76293945,-0.050109863,0.73773193,-0.859375,-1.125,-0.078125,700
701,1696243031836,-0.7631836,-0.02911377,0.730896,-1.125,-0.453125,-0.5625,701
702,1696243031876,-0.7729492,-0.037902832,0.7489624,-0.46875,-0.515625,-0.03125,702
703,1696243031916,-0.76171875,-0.03765869,0.73968506,-0.90625,-0.546875,-0.1875,703
704,1696243031956,-0.7692871,-0.022033691,0.74823,-0.40625,-0.671875,-0.1875,704
705,1696243031996,-0.76538086,-0.029846191,0.7387085,-0.640625,-0.625,-0.15625,705
706,1696243032036,-0.76708984,-0.025939941,0.74090576,-0.515625,-0.734375,0.078125,706
707,1696243032076,-0.77246094,-0.03375244,0.73773193,-0.953125,-0.65625,-0.1875,707
708,1696243032116,-0.7661133,-0.0335083,0.7350464,-0.8125,-0.453125,-0.1875,708
709,1696243032156,-0.76660156,-0.024719238,0.7369995,-0.640625,-0.3125,-0.203125,709
710,1696243032196,-0.7685547,-0.028869629,0.730896,-0.328125,-0.34375,0.0625,710
711,1696243032236,-0.76464844,-0.026184082,0.7416382,-0.296875,-0.40625,0.21875,711
712,1696243032276,-0.7680664,-0.024719238,0.746521,-0.25,-0.375,-0.09375,712
713,1696243032316,-0.76660156,-0.031066895,0.72821045,-0.6875,-0.609375,0.0625,713
714,1696243032356,-0.76831055,-0.02130127,0.7658081,0.1875,-1.1875,-0.078125,714
715,1696243032396,-0.7558594,-0.020324707,0.7272339,-0.015625,-0.46875,-0.03125,715
716,1696243032436,-0.7819824,-0.035949707,0.74823,0.484375,-1.171875,0.59375,716
717,1696243032476,-0.76342773,-0.034484863,0.72943115,-0.015625,-0.4375,0.328125,717
718,1696243032516,-0.7685547,-0.019592285,0.7321167,0.34375,-0.515625,0.421875,718
719,1696243032556,-0.7692871,-0.024230957,0.73065186,0.53125,-0.65625,0.328125,719
720,1696243032596,-0.76416016,-0.024475098,0.7367554,0.609375,-1.078125,0.453125,720
721,1696243032636,-0.7729492,-0.036193848,0.73358154,0.453125,-0.65625,0.65625,721
722,1696243032676,-0.7663574,-0.038146973,0.7333374,0.375,-0.8125,0.4375,722
723,1696243032716,-0.76831055,-0.028381348,0.7316284,0.34375,0.03125,0.140625,723
724,1696243032756,-0.77001953,-0.031555176,0.7345581,0.5625,-0.671875,0.65625,724
725,1696243032796,-0.7636719,-0.034729004,0.73553467,0.8125,-0.953125,0.40625,725
726,1696243032836,-0.76708984,-0.0256958,0.7399292,1.25,-0.890625,0.515625,726
727,1696243032876,-0.77075195,-0.0335083,0.7379761,1.203125,-0.53125,0.890625,727
728,1696243032916,-0.7697754,-0.04156494,0.7418823,0.796875,-0.5,0.8125,728
729,1696243032956,-0.77368164,-0.039367676,0.73602295,0.3125,-0.5,0.578125,729
730,1696243032996,-0.7729492,-0.035217285,0.7345581,0.625,-0.53125,0.46875,730
731,1696243033036,-0.7661133,-0.04425049,0.73553467,0.765625,-0.375,0.578125,731
732,1696243033076,-0.76831055,-0.034729004,0.74017334,0.828125,-0.46875,0.71875,732
733,1696243033116,-0.765625,-0.03302002,0.73187256,0.484375,-0.203125,0.8125,733
734,1696243033156,-0.7734375,-0.04498291,0.74505615,1.21875,-0.71875,0.75,734
735,1696243033196,-0.75219727,-0.039123535,0.73065186,0.0625,-0.140625,0.21875,735
736,1696243033236,-0.76000977,-0.046203613,0.72039795,-0.09375,-0.046875,0.5,736
737,1696243033276,-0.7734375,-0.042541504,0.7477417,1.296875,-0.4375,0.484375,737
738,1696243033316,-0.7722168,-0.059387207,0.7345581,0.953125,-0.421875,0.765625,738
739,1696243033356,-0.7661133,-0.0491333,0.73773193,0.5625,-0.390625,0.421875,739
740,1696243033396,-0.76586914,-0.038635254,0.7284546,0.5625,-0.375,0.53125,740
741,1696243033436,-0.76782227,-0.04449463,0.7369995,0.421875,-0.4375,0.78125,741
742,1696243033476,-0.7685547,-0.05230713,0.73773193,0.75,-0.265625,0.65625,742
743,1696243033516,-0.77368164,-0.054748535,0.75042725,0.703125,-0.328125,0.78125,743
744,1696243033556,-0.7585449,-0.050598145,0.7289429,0.15625,0.109375,0.234375,744
745,1696243033596,-0.7697754,-0.054992676,0.74383545,0.453125,-0.171875,0.578125,745
746,1696243033636,-0.76464844,-0.059387207,0.74017334,0.4375,-0.078125,0.578125,746
747,1696243033676,-0.76831055,-0.051818848,0.7374878,0.28125,-0.328125,0.34375,747
748,1696243033716,-0.765625,-0.0491333,0.7352905,0.53125,-0.3125,0.546875,748
749,1696243033756,-0.7573242,-0.05206299,0.7345581,0.25,-0.40625,0.53125,749
750,1696243033796,-0.7661133,-0.05206299,0.74090576,0.234375,-0.484375,0.59375,750
751,1696243033836,-0.7668457,-0.059387207,0.7362671,0.109375,-0.40625,0.328125,751
752,1696243033876,-0.75927734,-0.05596924,0.73187256,0.125,-0.0625,0.140625,752
753,1696243033916,-0.76831055,-0.05670166,0.74090576,0.296875,-0.4375,0.4375,753
754,1696243033956,-0.76464844,-0.059631348,0.7394409,0.4375,-0.4375,0.609375,754
755,1696243033996,-0.76342773,-0.057434082,0.73846436,0.328125,-0.546875,0.484375,755
756,1696243034036,-0.75878906,-0.05596924,0.73236084,0.1875,-0.265625,0.359375,756
757,1696243034076,-0.7697754,-0.06378174,0.73651123,0.359375,-0.390625,0.5,757
758,1696243034116,-0.7714844,-0.050842285,0.7548218,0.4375,-0.75,0.484375,758
759,1696243034156,-0.7546387,-0.059387207,0.7218628,-0.5,0.15625,0.34375,759
