,timestamp,accel_x,accel_y,accel_z,gyro_x,gyro_y,gyro_z,ind
0,1696244826349,-0.11645508,-0.9717407,0.17523193,-0.546875,-0.5625,-0.53125,0
1,1696244826389,-0.119628906,-0.9788208,0.17694092,0.1875,-0.46875,0.109375,1
2,1696244826429,-0.11450195,-0.98272705,0.18597412,0.84375,-1.078125,0.171875,2
3,1696244826469,-0.111572266,-0.9800415,0.17352295,1.515625,-0.296875,0.015625,3
4,1696244826509,-0.10913086,-0.9702759,0.17669678,1.625,0.28125,0.78125,4
5,1696244826549,-0.111572266,-0.98516846,0.16937256,2.296875,0.59375,0.984375,5
6,1696244826589,-0.11645508,-0.9768677,0.1642456,1.71875,0.484375,0.484375,6
7,1696244826629,-0.11621094,-0.96832275,0.17401123,2.359375,1.09375,0.5,7
8,1696244826669,-0.12011719,-0.9885864,0.17230225,2.390625,0.40625,1.1875,8
9,1696244826709,-0.103515625,-0.98516846,0.1605835,1.234375,0.8125,1.28125,9
10,1696244826749,-0.107666016,-0.9805298,0.15008545,1.453125,-0.046875,1.46875,10
11,1696244826789,-0.10644531,-0.97613525,0.1642456,2.75,-0.234375,1.53125,11
12,1696244826829,-0.08862305,-0.98638916,0.14398193,1.3125,2.046875,1.0625,12
13,1696244826869,-0.095703125,-0.97369385,0.15765381,0.796875,0.71875,0.9375,13
14,1696244826909,-0.10620117,-0.98565674,0.15374756,1.8125,-0.890625,1.140625,14
15,1696244826949,-0.10058594,-0.9854126,0.14691162,2.15625,-0.421875,1.078125,15
16,1696244826989,-0.09741211,-0.98101807,0.14276123,4.3125,-0.390625,0.953125,16
17,1696244827029,-0.095458984,-0.9920044,0.1383667,3.078125,0.921875,1.546875,17
18,1696244827069,-0.0847168,-0.9780884,0.1317749,0.671875,0.4375,1.1875,18
19,1696244827109,-0.09106445,-0.98565674,0.14031982,1.15625,-0.25,1.015625,19
20,1696244827149,-0.09008789,-0.98565674,0.13616943,0.875,-1.859375,0.984375,20
21,1696244827189,-0.09423828,-0.97735596,0.14007568,2.078125,-0.921875,0.9375,21
22,1696244827229,-0.09887695,-0.98321533,0.1251831,1.578125,0.203125,0.65625,22
23,1696244827269,-0.0925293,-0.99835205,0.12713623,1.109375,-0.703125,0.828125,23
24,1696244827309,-0.087646484,-0.9746704,0.11932373,0.171875,-1.46875,0.15625,24
25,1696244827349,-0.091796875,-0.986145,0.12445068,-0.046875,-0.078125,0.59375,25
26,1696244827389,-0.09057617,-0.9973755,0.13861084,1.0625,-2.984375,1.0,26
27,1696244827429,-0.087646484,-0.97735596,0.11785889,-1.625,-0.921875,-0.21875,27
28,1696244827469,-0.08959961,-0.9824829,0.14251709,0.734375,-0.765625,0.671875,28
29,1696244827509,-0.09692383,-0.987854,0.12347412,1.984375,-0.09375,0.21875,29
30,1696244827549,-0.09057617,-0.9859009,0.1317749,0.96875,0.40625,0.359375,30
31,1696244827589,-0.092285156,-0.99005127,0.12738037,0.234375,-0.609375,0.546875,31
32,1696244827629,-0.09057617,-0.9768677,0.124938965,-0.140625,-1.1875,-0.15625,32
33,1696244827669,-0.0925293,-0.9907837,0.121276855,-0.234375,-0.84375,0.3125,33
34,1696244827709,-0.09887695,-0.9819946,0.12225342,0.078125,-0.890625,0.1875,34
35,1696244827749,-0.09643555,-0.99102783,0.12371826,1.640625,-0.015625,0.09375,35
36,1696244827789,-0.09838867,-0.9883423,0.121032715,0.984375,0.546875,0.6875,36
37,1696244827829,-0.091796875,-0.97784424,0.11639404,0.359375,-0.015625,0.3125,37
38,1696244827869,-0.08984375,-0.987854,0.11444092,0.953125,1.359375,0.640625,38
39,1696244827909,-0.084472656,-0.9885864,0.117126465,1.1875,0.296875,0.53125,39
40,1696244827949,-0.08862305,-0.97540283,0.13006592,1.328125,0.75,0.65625,40
41,1696244827989,-0.09008789,-0.986145,0.09881592,0.96875,1.03125,0.625,41
42,1696244828029,-0.07910156,-0.9795532,0.11663818,0.828125,1.234375,1.140625,42
43,1696244828069,-0.08325195,-0.99053955,0.11859131,1.125,-0.078125,1.1875,43
44,1696244828109,-0.07910156,-0.991272,0.10418701,0.921875,0.796875,0.609375,44
45,1696244828149,-0.080078125,-0.97735596,0.10369873,0.46875,0.125,0.71875,45
46,1696244828189,-0.08300781,-0.9907837,0.10394287,0.421875,0.0,0.625,46
47,1696244828229,-0.068603516,-0.9907837,0.11199951,0.53125,-0.4375,0.90625,47
48,1696244828269,-0.08325195,-0.9819946,0.10784912,0.421875,-0.328125,0.46875,48
49,1696244828309,-0.08129883,-0.9841919,0.10345459,0.234375,-0.015625,0.46875,49
50,1696244828349,-0.07543945,-0.98150635,0.10809326,-0.015625,0.03125,0.421875,50
51,1696244828389,-0.08129883,-0.98883057,0.10687256,-0.265625,-0.140625,0.28125,51
52,1696244828429,-0.07446289,-0.99053955,0.09466553,-0.6875,-0.375,0.140625,52
53,1696244828469,-0.0871582,-0.9951782,0.11004639,0.984375,-0.34375,0.59375,53
54,1696244828509,-0.07470703,-0.97540283,0.1161499,0.203125,0.140625,0.0625,54
55,1696244828549,-0.0859375,-0.99884033,0.093688965,0.03125,0.4375,0.890625,55
56,1696244828589,-0.061279297,-0.98028564,0.117126465,-0.421875,0.46875,-0.1875,56
57,1696244828629,-0.09350586,-0.99102783,0.10491943,0.15625,0.046875,0.9375,57
58,1696244828669,-0.07519531,-0.9846802,0.101745605,0.125,1.1875,0.515625,58
59,1696244828709,-0.06713867,-0.9834595,0.10321045,0.359375,-0.1875,1.09375,59
60,1696244828749,-0.096191406,-0.9961548,0.10760498,0.375,-0.265625,1.140625,60
61,1696244828789,-0.06567383,-0.9812622,0.10809326,-0.109375,-0.328125,0.765625,61
62,1696244828829,-0.07714844,-0.9883423,0.113708496,0.875,-0.4375,1.53125,62
63,1696244828869,-0.07836914,-0.9898071,0.105651855,0.796875,-0.046875,1.15625,63
64,1696244828909,-0.06738281,-0.97906494,0.101501465,0.578125,-0.625,0.859375,64
65,1696244828949,-0.06713867,-0.9871216,0.10882568,0.609375,-0.40625,1.328125,65
66,1696244828989,-0.07324219,-0.99224854,0.10223389,0.34375,0.03125,0.828125,66
67,1696244829029,-0.071777344,-0.99542236,0.09832764,-0.328125,-0.75,0.375,67
68,1696244829069,-0.07495117,-0.9817505,0.12713623,0.828125,-0.46875,0.625,68
69,1696244829109,-0.06201172,-0.9854126,0.0927124,-1.734375,0.109375,0.078125,69
70,1696244829149,-0.06762695,-0.9873657,0.1149292,-1.828125,0.234375,-0.5,70
71,1696244829189,-0.06616211,-0.9993286,0.13323975,-2.796875,-0.90625,-0.546875,71
72,1696244829229,-0.057617188,-0.9883423,0.10809326,-1.984375,-4.609375,-0.890625,72
73,1696244829269,-0.087402344,-0.991272,0.105895996,-1.390625,-6.25,-1.09375,73
74,1696244829309,-0.06591797,-1.0042114,0.105895996,-0.96875,-3.0625,-2.0,74
75,1696244829349,-0.0793457,-0.9859009,0.10345459,-3.5625,-2.578125,-2.328125,75
76,1696244829389,-0.08129883,-0.9690552,0.117614746,-2.53125,-1.453125,-0.421875,76
77,1696244829429,-0.09301758,-0.973938,0.10321045,2.28125,-1.796875,0.515625,77
78,1696244829469,-0.06542969,-0.9841919,0.09637451,4.25,-0.40625,-0.171875,78
79,1696244829509,-0.0715332,-0.9627075,0.0927124,0.78125,-0.640625,0.078125,79
80,1696244829549,-0.091796875,-0.97320557,0.10272217,1.03125,-1.15625,0.03125,80
81,1696244829589,-0.08178711,-0.98687744,0.09954834,0.609375,-2.328125,-0.296875,81
82,1696244829629,-0.07543945,-0.9949341,0.10784912,0.859375,-1.296875,-0.09375,82
83,1696244829669,-0.07861328,-0.98321533,0.09637451,-2.40625,0.65625,-1.078125,83
84,1696244829709,-0.09326172,-0.98443604,0.11590576,-0.375,-1.015625,-0.390625,84
85,1696244829749,-0.08520508,-0.9902954,0.113220215,-1.4375,-1.25,-0.78125,85
86,1696244829789,-0.08911133,-0.98760986,0.11395264,-1.828125,-1.1875,-0.421875,86
87,1696244829829,-0.09057617,-0.9883423,0.13421631,-0.5,-1.453125,-0.015625,87
88,1696244829869,-0.088378906,-0.9849243,0.1161499,-2.09375,-1.375,-0.203125,88
89,1696244829909,-0.087402344,-0.9902954,0.1251831,-2.015625,-1.46875,0.078125,89
90,1696244829949,-0.09814453,-0.9859009,0.12786865,-1.859375,-1.09375,0.15625,90
91,1696244829989,-0.087646484,-0.98516846,0.1227417,-1.203125,-1.203125,0.0625,91
92,1696244830029,-0.084228516,-0.9956665,0.13031006,-0.625,-0.65625,-0.046875,92
93,1696244830069,-0.095214844,-0.986145,0.11981201,-1.203125,-0.90625,0.25,93
94,1696244830109,-0.09838867,-0.98760986,0.13104248,-0.015625,-1.25,0.40625,94
95,1696244830149,-0.09472656,-0.97979736,0.13421631,0.359375,-0.5625,0.203125,95
96,1696244830189,-0.08691406,-0.9902954,0.113708496,-1.796875,-0.171875,0.75,96
97,1696244830229,-0.08911133,-0.9776001,0.1305542,-1.5625,1.015625,0.015625,97
98,1696244830269,-0.10522461,-0.99102783,0.14251709,-0.421875,-0.046875,0.359375,98
99,1696244830309,-0.08251953,-0.98272705,0.1281128,0.03125,-0.15625,0.03125,99
100,1696244830349,-0.095947266,-0.9871216,0.13397217,1.484375,0.171875,0.3125,100
101,1696244830389,-0.09350586,-0.9866333,0.12542725,0.203125,-0.265625,0.484375,101
102,1696244830429,-0.084472656,-0.9817505,0.12445068,-0.59375,-1.4375,0.28125,102
103,1696244830469,-0.09033203,-0.9846802,0.13250732,0.4375,-0.640625,0.671875,103
104,1696244830509,-0.099609375,-0.98565674,0.12957764,0.890625,-1.21875,0.375,104
105,1696244830549,-0.09033203,-0.98321533,0.12884521,0.90625,-0.5,0.109375,105
106,1696244830589,-0.08935547,-0.9768677,0.120788574,0.40625,-0.390625,0.03125,106
107,1696244830629,-0.092041016,-0.9859009,0.13421631,0.765625,-1.3125,0.046875,107
108,1696244830669,-0.087890625,-0.9795532,0.12322998,-0.875,-0.03125,-0.53125,108
109,1696244830709,-0.096191406,-0.99591064,0.12347412,0.53125,-0.828125,0.171875,109
110,1696244830749,-0.08520508,-0.9771118,0.12005615,-1.0,-0.5,-0.59375,110
111,1696244830789,-0.09692383,-0.9859009,0.13616943,0.765625,-0.6875,-0.09375,111
112,1696244830829,-0.0925293,-0.99053955,0.13323975,-0.328125,0.875,-0.578125,112
113,1696244830869,-0.09472656,-0.98760986,0.12371826,-0.1875,-0.03125,-0.21875,113
114,1696244830909,-0.09375,-0.98931885,0.12200928,-0.140625,-0.921875,-0.1875,114
115,1696244830949,-0.08984375,-0.9841919,0.120788574,-0.421875,-0.25,-0.03125,115
116,1696244830989,-0.092041016,-0.9846802,0.12738037,0.109375,-0.078125,0.328125,116
117,1696244831029,-0.09350586,-0.9883423,0.1329956,0.3125,-0.515625,0.234375,117
118,1696244831069,-0.09472656,-0.9873657,0.12615967,0.171875,0.265625,0.234375,118
119,1696244831109,-0.09716797,-0.9883423,0.12615967,0.265625,0.03125,0.578125,119
120,1696244831149,-0.09863281,-0.9824829,0.12200928,-0.046875,0.25,0.796875,120
121,1696244831189,-0.09472656,-0.9763794,0.12030029,2.65625,0.265625,1.234375,121
122,1696244831229,-0.087890625,-0.9807739,0.1383667,2.5625,1.453125,1.3125,122
123,1696244831269,-0.08105469,-0.9807739,0.097839355,-0.296875,2.859375,1.9375,123
124,1696244831309,-0.083740234,-0.9871216,0.11859131,0.734375,0.71875,1.78125,124
125,1696244831349,-0.08325195,-0.99468994,0.11785889,0.6875,0.703125,1.796875,125
126,1696244831389,-0.07446289,-0.9837036,0.11810303,1.078125,0.28125,1.546875,126
127,1696244831429,-0.08569336,-0.9793091,0.10858154,1.609375,0.171875,1.421875,127
128,1696244831469,-0.07080078,-0.99005127,0.105407715,1.15625,-0.578125,1.296875,128
129,1696244831509,-0.07739258,-0.98687744,0.10345459,0.84375,0.046875,1.109375,129
130,1696244831549,-0.07495117,-0.98101807,0.113708496,-0.03125,0.265625,1.0,130
131,1696244831589,-0.07739258,-0.99468994,0.09954834,0.5,-0.28125,1.28125,131
132,1696244831629,-0.06665039,-0.98028564,0.109802246,0.234375,0.03125,0.328125,132
133,1696244831669,-0.06567383,-0.98760986,0.0993042,-0.125,-0.71875,0.4375,133
134,1696244831709,-0.07006836,-0.99591064,0.10809326,0.34375,-0.578125,0.265625,134
135,1696244831749,-0.06616211,-0.9763794,0.113220215,0.609375,-0.53125,0.265625,135
136,1696244831789,-0.072509766,-0.9800415,0.113220215,1.390625,-0.765625,0.53125,136
137,1696244831829,-0.07104492,-0.98687744,0.10638428,0.359375,-0.046875,-0.15625,137
138,1696244831869,-0.06274414,-0.9885864,0.09564209,-0.125,-0.734375,0.1875,138
139,1696244831909,-0.068115234,-0.9829712,0.11126709,-0.828125,0.484375,-0.140625,139
140,1696244831949,-0.07836914,-1.008606,0.13568115,-1.078125,-0.390625,-0.34375,140
141,1696244831989,-0.06542969,-0.9866333,0.10418701,-4.09375,-4.265625,-1.59375,141
142,1696244832029,-0.072021484,-0.9717407,0.11566162,-1.453125,-4.9375,-0.546875,142
143,1696244832069,-0.080566406,-0.9932251,0.10003662,3.109375,-3.265625,0.171875,143
144,1696244832109,-0.09008789,-0.9871216,0.0770874,2.984375,-1.5,0.171875,144
145,1696244832149,-0.057617188,-0.9614868,0.10614014,2.71875,1.21875,0.65625,145
146,1696244832189,-0.08300781,-0.9961548,0.08880615,2.78125,0.078125,0.703125,146
147,1696244832229,-0.07324219,-0.9939575,0.093688965,1.375,-1.3125,0.53125,147
148,1696244832269,-0.07348633,-0.9763794,0.09295654,-0.296875,-0.6875,0.046875,148
149,1696244832309,-0.078125,-0.9968872,0.094177246,0.0625,-1.734375,-0.21875,149
150,1696244832349,-0.07080078,-0.98760986,0.09832764,-0.921875,-1.53125,-0.296875,150
151,1696244832389,-0.078125,-0.98565674,0.094177246,-1.65625,-1.1875,-0.40625,151
152,1696244832429,-0.07885742,-0.99884033,0.09222412,-0.9375,-1.1875,-0.109375,152
153,1696244832469,-0.08496094,-0.9854126,0.11053467,1.78125,-1.265625,0.046875,153
154,1696244832509,-0.068359375,-0.9849243,0.0758667,-1.640625,1.109375,0.03125,154
155,1696244832549,-0.08129883,-0.98394775,0.113708496,0.421875,-0.375,0.703125,155
156,1696244832589,-0.08178711,-0.99102783,0.09954834,0.0,-0.40625,0.125,156
157,1696244832629,-0.0847168,-0.9834595,0.097839355,0.25,-0.1875,0.171875,157
158,1696244832669,-0.076171875,-0.9883423,0.090270996,-0.40625,-0.765625,0.5,158
159,1696244832709,-0.080322266,-0.98443604,0.093933105,-0.984375,-1.5625,0.265625,159
160,1696244832749,-0.0793457,-0.9883423,0.09295654,-0.734375,-1.4375,0.265625,160
161,1696244832789,-0.0859375,-0.97735596,0.10369873,-0.515625,-1.078125,0.75,161
162,1696244832829,-0.08129883,-0.98809814,0.101745605,0.453125,-1.359375,0.84375,162
163,1696244832869,-0.075927734,-0.98931885,0.10443115,-0.078125,-0.515625,0.734375,163
164,1696244832909,-0.0769043,-0.99005127,0.10418701,-0.1875,0.1875,1.03125,164
165,1696244832949,-0.07397461,-0.9883423,0.10345459,-0.328125,-0.375,0.53125,165
166,1696244832989,-0.078125,-0.9817505,0.09686279,-0.390625,-0.15625,0.671875,166
167,1696244833029,-0.07763672,-0.98394775,0.10345459,-0.484375,-0.1875,0.734375,167
168,1696244833069,-0.07885742,-0.9883423,0.11419678,0.390625,-0.578125,0.40625,168
169,1696244833109,-0.07348633,-0.9819946,0.11004639,0.15625,1.21875,0.09375,169
170,1696244833149,-0.07763672,-0.98516846,0.10321045,0.015625,0.15625,1.078125,170
171,1696244833189,-0.06640625,-0.9746704,0.105651855,-0.671875,1.390625,0.390625,171
172,1696244833229,-0.078125,-0.99664307,0.11395264,-0.390625,0.96875,0.421875,172
173,1696244833269,-0.06762695,-0.97442627,0.10687256,-0.3125,1.28125,-0.140625,173
174,1696244833309,-0.072021484,-0.9819946,0.10809326,-0.421875,0.5625,0.640625,174
175,1696244833349,-0.07519531,-0.98443604,0.11981201,0.65625,0.265625,0.609375,175
176,1696244833389,-0.072753906,-0.98760986,0.09637451,-0.328125,0.46875,-0.140625,176
177,1696244833429,-0.068847656,-0.98883057,0.105895996,-0.578125,0.328125,0.71875,177
178,1696244833469,-0.07006836,-0.9915161,0.11004639,0.1875,1.03125,0.59375,178
179,1696244833509,-0.06567383,-0.99053955,0.105651855,0.125,0.640625,0.78125,179
180,1696244833549,-0.06616211,-0.9771118,0.10662842,-0.25,0.078125,0.640625,180
181,1696244833589,-0.064941406,-0.9854126,0.10418701,-0.515625,-0.234375,0.640625,181
182,1696244833629,-0.06542969,-0.98760986,0.105651855,-0.25,-0.171875,0.53125,182
183,1696244833669,-0.068603516,-0.98028564,0.09979248,-0.046875,0.0,0.5625,183
184,1696244833709,-0.06933594,-0.98638916,0.10369873,0.078125,-0.109375,0.296875,184
185,1696244833749,-0.06323242,-0.987854,0.105163574,-0.359375,-0.34375,0.6875,185
186,1696244833789,-0.06933594,-0.9890747,0.105407715,0.515625,-1.3125,0.875,186
187,1696244833829,-0.061035156,-0.987854,0.12445068,2.40625,-0.296875,0.671875,187
188,1696244833869,-0.061523438,-0.986145,0.08319092,-0.875,0.625,0.453125,188
189,1696244833909,-0.06591797,-0.9829712,0.11566162,0.375,-0.078125,0.515625,189
190,1696244833949,-0.0690918,-0.9915161,0.109558105,0.375,-0.09375,0.484375,190
191,1696244833989,-0.06665039,-0.986145,0.11199951,0.28125,0.1875,0.328125,191
192,1696244834029,-0.056396484,-0.9854126,0.10247803,-0.21875,-0.015625,0.5625,192
193,1696244834069,-0.06201172,-0.99542236,0.11199951,0.359375,-0.53125,0.90625,193
194,1696244834109,-0.06298828,-0.99102783,0.10662842,-0.28125,-0.5,0.453125,194
195,1696244834149,-0.060546875,-0.9829712,0.11102295,-0.4375,0.546875,1.03125,195
196,1696244834189,-0.059814453,-0.9883423,0.10638428,0.546875,-0.109375,0.703125,196
197,1696244834229,-0.061279297,-0.98565674,0.109069824,-0.1875,0.046875,0.65625,197
198,1696244834269,-0.061523438,-0.9837036,0.10638428,0.21875,-0.34375,0.671875,198
199,1696244834309,-0.060302734,-0.986145,0.10247803,0.078125,0.078125,0.609375,199
200,1696244834349,-0.059326172,-0.98321533,0.1005249,-0.125,-0.234375,0.765625,200
201,1696244834389,-0.056640625,-0.99224854,0.10882568,0.40625,-0.1875,0.578125,201
202,1696244834429,-0.05810547,-0.9873657,0.105163574,-0.03125,0.125,0.515625,202
203,1696244834469,-0.053466797,-0.9898071,0.10638428,0.125,0.125,0.484375,203
204,1696244834509,-0.052490234,-0.9885864,0.10272217,0.515625,0.34375,0.78125,204
205,1696244834549,-0.056640625,-0.98883057,0.09881592,0.4375,0.25,0.484375,205
206,1696244834589,-0.05859375,-0.991272,0.09173584,-0.3125,-0.390625,0.734375,206
207,1696244834629,-0.044921875,-0.987854,0.1149292,1.109375,-0.703125,0.671875,207
208,1696244834669,-0.043945312,-0.9805298,0.08343506,-1.78125,1.046875,0.96875,208
209,1696244834709,-0.057861328,-0.9902954,0.11639404,-0.375,-0.828125,1.359375,209
210,1696244834749,-0.05444336,-0.9924927,0.109313965,-0.140625,-0.203125,0.3125,210
211,1696244834789,-0.056152344,-0.98931885,0.1293335,0.578125,-2.0,0.578125,211
212,1696244834829,-0.045654297,-0.9902954,0.10809326,0.53125,-4.6875,0.15625,212
213,1696244834869,-0.041992188,-0.9956665,0.08514404,-0.765625,-4.796875,0.0,213
214,1696244834909,-0.044677734,-0.9871216,0.098083496,-1.71875,-4.15625,0.421875,214
215,1696244834949,-0.046875,-0.9819946,0.11175537,-3.1875,-3.84375,-0.484375,215
216,1696244834989,-0.05053711,-0.991272,0.109313965,-2.5,-3.078125,-0.265625,216
217,1696244835029,-0.060546875,-0.9949341,0.117614746,-1.625,-2.25,-0.515625,217
218,1696244835069,-0.045898438,-0.9927368,0.12030029,-1.90625,-1.8125,-0.828125,218
219,1696244835109,-0.057373047,-0.99176025,0.12005615,-2.515625,-2.421875,-0.46875,219
220,1696244835149,-0.06298828,-0.9885864,0.1239624,-1.953125,-1.796875,-1.125,220
221,1696244835189,-0.06616211,-0.9898071,0.116882324,0.671875,-0.1875,-0.296875,221
222,1696244835229,-0.055664062,-0.9846802,0.11053467,0.390625,0.140625,-0.40625,222
223,1696244835269,-0.060546875,-0.97491455,0.11566162,0.484375,-0.625,-0.03125,223
224,1696244835309,-0.05810547,-0.9780884,0.11395264,1.296875,-0.53125,0.296875,224
225,1696244835349,-0.06274414,-0.9788208,0.12225342,1.515625,-0.515625,-0.046875,225
226,1696244835389,-0.071777344,-0.98443604,0.13616943,1.3125,-1.0,-0.546875,226
227,1696244835429,-0.053955078,-0.9871216,0.09588623,-1.6875,-1.796875,0.09375,227
228,1696244835469,-0.060302734,-0.98638916,0.13079834,-1.1875,-1.28125,0.203125,228
229,1696244835509,-0.053710938,-1.0022583,0.1227417,0.0,-0.6875,-0.078125,229
230,1696244835549,-0.06933594,-0.9915161,0.11517334,-0.671875,-0.625,-0.65625,230
231,1696244835589,-0.0625,-0.98272705,0.11053467,-0.796875,-0.546875,0.078125,231
232,1696244835629,-0.06518555,-0.9846802,0.12615967,-1.53125,-0.15625,0.375,232
233,1696244835669,-0.068603516,-0.99176025,0.12420654,-1.3125,-0.921875,-0.328125,233
234,1696244835709,-0.064208984,-0.97906494,0.116882324,-1.984375,-0.453125,-0.375,234
235,1696244835749,-0.06982422,-0.9819946,0.13348389,-1.234375,-0.28125,-0.28125,235
236,1696244835789,-0.06542969,-0.9920044,0.12713623,-0.734375,-0.40625,-0.375,236
237,1696244835829,-0.06567383,-0.98516846,0.12835693,-0.828125,-0.5625,-0.546875,237
238,1696244835869,-0.07299805,-0.987854,0.124694824,-0.78125,-0.734375,-0.171875,238
239,1696244835909,-0.07324219,-0.9795532,0.1408081,-1.0625,-0.578125,-0.125,239
240,1696244835949,-0.07495117,-0.9871216,0.14251709,-0.96875,-1.359375,-0.140625,240
241,1696244835989,-0.07543945,-0.9846802,0.1317749,0.59375,-1.375,0.21875,241
242,1696244836029,-0.068359375,-0.9805298,0.12884521,-0.78125,-0.96875,0.0625,242
243,1696244836069,-0.0715332,-0.9849243,0.14178467,-0.671875,-1.015625,0.03125,243
244,1696244836109,-0.07739258,-0.9795532,0.14471436,0.125,-1.5,0.078125,244
245,1696244836149,-0.06933594,-0.98516846,0.13690186,-0.9375,-0.390625,-0.21875,245
246,1696244836189,-0.071777344,-0.9890747,0.14154053,0.375,-1.640625,0.625,246
247,1696244836229,-0.06567383,-0.9819946,0.13421631,-0.78125,1.1875,0.296875,247
248,1696244836269,-0.072265625,-0.99053955,0.14813232,0.65625,0.4375,0.1875,248
249,1696244836309,-0.07421875,-0.98443604,0.1383667,-0.5,0.609375,-0.59375,249
250,1696244836349,-0.07836914,-0.991272,0.13031006,-0.296875,0.09375,0.296875,250
251,1696244836389,-0.07397461,-0.98272705,0.13568115,-0.578125,-0.453125,0.3125,251
252,1696244836429,-0.06665039,-0.98394775,0.1359253,-1.25,-1.1875,-0.015625,252
253,1696244836469,-0.076171875,-0.9751587,0.1359253,-1.46875,-0.859375,-0.296875,253
254,1696244836509,-0.07470703,-0.9902954,0.15228271,-0.90625,-1.125,-0.578125,254
255,1696244836549,-0.07836914,-0.99176025,0.14349365,-0.125,-0.15625,-0.484375,255
256,1696244836589,-0.07324219,-0.97491455,0.14154053,-0.671875,0.0,-0.5625,256
257,1696244836629,-0.08081055,-0.9807739,0.14642334,-0.203125,0.25,0.078125,257
258,1696244836669,-0.076171875,-0.98101807,0.1486206,-0.125,0.3125,0.0625,258
259,1696244836709,-0.079589844,-0.9771118,0.13983154,2.53125,0.453125,0.859375,259
260,1696244836749,-0.080566406,-0.9873657,0.1305542,3.609375,0.5,0.5625,260
261,1696244836789,-0.07885742,-0.9793091,0.13665771,1.8125,0.390625,0.703125,261
262,1696244836829,-0.064941406,-0.975647,0.13446045,1.8125,0.265625,0.515625,262
263,1696244836869,-0.07519531,-0.9849243,0.12298584,1.625,-0.25,0.984375,263
264,1696244836909,-0.07836914,-0.9951782,0.1161499,1.578125,-1.0625,1.03125,264
265,1696244836949,-0.06640625,-0.9776001,0.13275146,2.578125,-0.4375,0.625,265
266,1696244836989,-0.0637207,-0.9849243,0.098083496,-1.453125,0.640625,0.890625,266
267,1696244837029,-0.0703125,-0.98809814,0.13323975,2.9375,0.0625,1.03125,267
268,1696244837069,-0.071777344,-0.9961548,0.12542725,1.015625,0.390625,0.90625,268
269,1696244837109,-0.06518555,-0.9807739,0.11395264,1.25,-0.21875,0.90625,269
270,1696244837149,-0.072265625,-0.98565674,0.10467529,0.703125,-0.046875,1.125,270
271,1696244837189,-0.068115234,-0.9998169,0.1293335,1.59375,-0.421875,1.078125,271
272,1696244837229,-0.06225586,-0.9932251,0.10345459,0.328125,-0.1875,0.546875,272
273,1696244837269,-0.072021484,-0.98760986,0.11785889,0.484375,-0.59375,0.40625,273
274,1696244837309,-0.061279297,-0.99298096,0.105163574,0.078125,-1.140625,0.40625,274
275,1696244837349,-0.056640625,-0.9873657,0.10858154,0.21875,-1.09375,0.40625,275
276,1696244837389,-0.06274414,-0.98565674,0.11151123,-0.375,-0.9375,0.109375,276
277,1696244837429,-0.064208984,-0.9898071,0.105895996,-0.09375,-0.578125,0.265625,277
278,1696244837469,-0.056884766,-0.9915161,0.1149292,-0.03125,-0.8125,0.390625,278
279,1696244837509,-0.064697266,-0.987854,0.113708496,0.046875,-0.84375,0.375,279
280,1696244837549,-0.061523438,-0.9854126,0.11077881,0.265625,-0.75,0.65625,280
281,1696244837589,-0.05810547,-0.9871216,0.10882568,0.234375,-0.8125,0.546875,281
282,1696244837629,-0.05908203,-0.989563,0.10858154,0.328125,-0.375,0.765625,282
283,1696244837669,-0.059570312,-0.98101807,0.10614014,0.625,-0.421875,0.9375,283
284,1696244837709,-0.064208984,-0.98883057,0.109558105,0.609375,0.109375,1.234375,284
285,1696244837749,-0.06542969,-0.9944458,0.10491943,0.859375,-0.609375,1.421875,285
286,1696244837789,-0.045166016,-0.98565674,0.12615967,2.15625,-0.375,1.328125,286
287,1696244837829,-0.055664062,-0.9873657,0.07904053,-1.078125,1.90625,0.890625,287
288,1696244837869,-0.057617188,-0.98638916,0.12005615,0.890625,0.96875,1.0625,288
289,1696244837909,-0.06298828,-0.9949341,0.11175537,0.1875,1.171875,0.984375,289
290,1696244837949,-0.050048828,-0.98101807,0.10321045,0.5,1.671875,0.71875,290
291,1696244837989,-0.05029297,-0.9915161,0.09954834,-0.1875,1.15625,1.125,291
292,1696244838029,-0.05126953,-0.9993286,0.09906006,1.25,1.0625,0.90625,292
293,1696244838069,-0.03955078,-0.9885864,0.10345459,0.359375,1.453125,0.59375,293
294,1696244838109,-0.04296875,-0.9849243,0.09906006,0.609375,0.953125,1.15625,294
295,1696244838149,-0.052978516,-0.9915161,0.10003662,0.453125,0.59375,0.578125,295
296,1696244838189,-0.04321289,-0.9846802,0.09637451,0.421875,1.171875,0.5,296
297,1696244838229,-0.038330078,-0.9866333,0.101501465,-0.03125,0.78125,0.421875,297
298,1696244838269,-0.04663086,-0.98687744,0.09588623,0.3125,0.375,0.390625,298
299,1696244838309,-0.040527344,-0.99298096,0.09906006,0.875,0.40625,0.265625,299
300,1696244838349,-0.040527344,-0.9819946,0.08929443,0.296875,-0.390625,0.375,300
301,1696244838389,-0.047851562,-0.9834595,0.10076904,0.109375,-0.015625,0.46875,301
302,1696244838429,-0.040283203,-0.989563,0.09466553,-0.0625,0.078125,0.40625,302
303,1696244838469,-0.045898438,-0.99176025,0.097351074,-0.15625,-0.59375,0.3125,303
304,1696244838509,-0.041503906,-0.9834595,0.097351074,0.390625,-0.765625,0.109375,304
305,1696244838549,-0.040039062,-0.98809814,0.09881592,0.015625,-0.609375,0.03125,305
306,1696244838589,-0.043701172,-0.9890747,0.0914917,-0.1875,-0.71875,0.1875,306
307,1696244838629,-0.045166016,-0.9883423,0.09661865,-0.453125,-0.46875,-0.46875,307
308,1696244838669,-0.03955078,-0.9951782,0.081726074,-0.703125,-1.546875,-0.046875,308
309,1696244838709,-0.037841797,-0.97540283,0.09881592,-1.5625,-1.03125,-0.796875,309
310,1696244838749,-0.049804688,-0.99884033,0.09613037,-0.796875,-0.859375,-0.59375,310
311,1696244838789,-0.052490234,-0.99053955,0.0914917,-1.484375,-0.96875,-1.078125,311
312,1696244838829,-0.049804688,-0.986145,0.10662842,-0.890625,-1.015625,-0.640625,312
313,1696244838869,-0.046142578,-0.986145,0.1005249,-1.359375,-1.578125,-0.90625,313
314,1696244838909,-0.056396484,-0.98931885,0.10491943,-0.734375,-1.625,-0.546875,314
315,1696244838949,-0.050048828,-0.9788208,0.10028076,-0.84375,-2.125,-0.9375,315
316,1696244838989,-0.061279297,-0.9902954,0.10369873,-0.765625,-1.6875,-0.421875,316
317,1696244839029,-0.05419922,-0.98223877,0.09588623,-0.75,-0.296875,-0.015625,317
318,1696244839069,-0.052978516,-0.9846802,0.1083374,-0.796875,0.515625,0.34375,318
319,1696244839109,-0.056396484,-0.98883057,0.11199951,-0.59375,-0.078125,0.671875,319
320,1696244839149,-0.055664062,-0.9873657,0.109802246,-0.21875,-0.53125,0.21875,320
321,1696244839189,-0.05859375,-0.98516846,0.11077881,0.546875,0.265625,1.0,321
322,1696244839229,-0.057617188,-0.98638916,0.1083374,1.171875,0.171875,0.96875,322
323,1696244839269,-0.061035156,-0.991272,0.10760498,1.140625,1.03125,0.625,323
324,1696244839309,-0.056152344,-0.98565674,0.11004639,0.765625,0.84375,0.8125,324
325,1696244839349,-0.052734375,-0.98028564,0.10882568,0.53125,0.8125,0.984375,325
326,1696244839389,-0.045898438,-0.98687744,0.10638428,0.203125,0.578125,0.71875,326
327,1696244839429,-0.052734375,-0.9846802,0.11956787,0.859375,-0.359375,0.65625,327
328,1696244839469,-0.056396484,-0.9849243,0.13226318,1.21875,0.671875,0.609375,328
329,1696244839509,-0.051513672,-0.98565674,0.08343506,-1.515625,1.84375,0.53125,329
330,1696244839549,-0.049560547,-0.98565674,0.10858154,0.234375,0.6875,0.53125,330
331,1696244839589,-0.05078125,-0.9973755,0.105651855,-0.140625,1.109375,0.5,331
332,1696244839629,-0.05444336,-0.98223877,0.11102295,0.03125,1.234375,-0.03125,332
333,1696244839669,-0.047851562,-0.98565674,0.10687256,-0.265625,0.8125,0.28125,333
334,1696244839709,-0.046142578,-0.9939575,0.113464355,-0.6875,-0.484375,-0.046875,334
335,1696244839749,-0.048095703,-0.991272,0.11956787,0.25,-1.53125,-0.203125,335
336,1696244839789,-0.049072266,-0.97906494,0.10662842,0.8125,-5.40625,0.6875,336
337,1696244839829,-0.050048828,-1.000061,0.1083374,0.21875,-3.640625,0.359375,337
338,1696244839869,-0.060058594,-0.9776001,0.09173584,1.203125,-2.421875,0.171875,338
339,1696244839909,-0.041503906,-0.9795532,0.09661865,0.90625,-0.109375,0.1875,339
340,1696244839949,-0.048339844,-0.986145,0.09490967,0.59375,0.359375,1.171875,340
341,1696244839989,-0.048583984,-0.9846802,0.10321045,0.4375,0.3125,0.703125,341
342,1696244840029,-0.04638672,-0.98931885,0.10321045,0.65625,-0.09375,1.03125,342
343,1696244840069,-0.04296875,-0.987854,0.09832764,-0.046875,0.0,1.28125,343
344,1696244840109,-0.049072266,-0.9920044,0.101257324,0.0,0.1875,1.078125,344
345,1696244840149,-0.042236328,-0.98565674,0.09661865,-0.21875,0.203125,0.75,345
346,1696244840189,-0.035888672,-0.97857666,0.10736084,0.578125,0.0625,0.78125,346
347,1696244840229,-0.04345703,-0.98638916,0.10858154,0.8125,0.28125,0.8125,347
348,1696244840269,-0.03100586,-0.99468994,0.066833496,-0.265625,-0.328125,0.765625,348
349,1696244840309,-0.036621094,-0.9763794,0.105651855,-0.265625,-0.390625,0.578125,349
350,1696244840349,-0.04296875,-0.9927368,0.09857178,0.484375,0.59375,1.140625,350
351,1696244840389,-0.049316406,-0.99102783,0.101257324,0.125,0.578125,0.265625,351
352,1696244840429,-0.03466797,-0.98638916,0.08929443,0.3125,0.09375,0.640625,352
353,1696244840469,-0.03955078,-0.9968872,0.113220215,0.734375,-0.46875,0.421875,353
354,1696244840509,-0.028320312,-0.987854,0.09515381,0.171875,-0.390625,-0.015625,354
355,1696244840549,-0.0390625,-0.9898071,0.09637451,-0.03125,-0.140625,0.21875,355
356,1696244840589,-0.029785156,-0.9817505,0.09442139,0.0,-0.109375,0.4375,356
357,1696244840629,-0.036621094,-0.98516846,0.0993042,0.15625,-0.40625,0.109375,357
358,1696244840669,-0.03173828,-0.9871216,0.09954834,0.078125,-0.0625,0.375,358
359,1696244840709,-0.038330078,-0.99005127,0.09051514,0.1875,-0.078125,0.328125,359
360,1696244840749,-0.037597656,-0.9883423,0.09906006,0.46875,0.15625,0.3125,360
361,1696244840789,-0.040283203,-0.9902954,0.08782959,0.3125,0.484375,0.203125,361
362,1696244840829,-0.032470703,-0.9927368,0.098083496,0.15625,0.25,0.34375,362
363,1696244840869,-0.03930664,-0.9824829,0.09222412,0.21875,0.5,0.296875,363
364,1696244840909,-0.03515625,-0.9837036,0.09295654,0.171875,0.484375,0.40625,364
365,1696244840949,-0.040771484,-0.99420166,0.09075928,0.78125,0.4375,0.4375,365
366,1696244840989,-0.026123047,-0.9871216,0.077819824,0.734375,-0.078125,0.515625,366
367,1696244841029,-0.02368164,-0.98028564,0.08660889,-0.1875,0.625,0.15625,367
368,1696244841069,-0.038085938,-1.0005493,0.09515381,0.28125,0.640625,0.5,368
369,1696244841109,-0.036865234,-0.99420166,0.09442139,0.0,0.65625,-0.125,369
370,1696244841149,-0.03149414,-0.99468994,0.089538574,-0.03125,0.609375,0.109375,370
371,1696244841189,-0.037841797,-0.9883423,0.0927124,-0.28125,-0.078125,-0.15625,371
372,1696244841229,-0.029785156,-0.9824829,0.08905029,-0.015625,-0.09375,-0.140625,372
373,1696244841269,-0.03955078,-0.98565674,0.0848999,-0.28125,-0.515625,-0.0625,373
374,1696244841309,-0.03564453,-0.9873657,0.0914917,-0.09375,-0.421875,0.21875,374
375,1696244841349,-0.03857422,-0.9883423,0.09075928,0.359375,-0.578125,-0.109375,375
376,1696244841389,-0.03564453,-0.97735596,0.09613037,-0.15625,-0.640625,-0.171875,376
377,1696244841429,-0.04272461,-0.9907837,0.089538574,-0.328125,-1.015625,-0.375,377
378,1696244841469,-0.03491211,-0.9993286,0.090026855,-0.734375,-1.359375,-0.15625,378
379,1696244841509,-0.037597656,-0.98809814,0.09515381,-0.328125,-1.09375,-0.28125,379
380,1696244841549,-0.045898438,-0.99053955,0.101989746,0.28125,-2.453125,0.109375,380
381,1696244841589,-0.03881836,-0.99664307,0.10369873,1.25,-3.734375,0.1875,381
382,1696244841629,-0.04736328,-0.9939575,0.0770874,0.875,-5.15625,0.484375,382
383,1696244841669,-0.031982422,-0.9968872,0.12005615,4.734375,-1.796875,-0.28125,383
384,1696244841709,-0.043701172,-0.98101807,0.034851074,-0.21875,-1.875,-0.53125,384
385,1696244841749,-0.03930664,-0.9776001,0.097595215,1.03125,-1.484375,0.9375,385
386,1696244841789,-0.04736328,-0.98516846,0.07977295,-0.515625,-0.484375,0.03125,386
387,1696244841829,-0.040283203,-0.975647,0.08099365,-0.328125,-0.546875,-0.265625,387
388,1696244841869,-0.047851562,-0.99420166,0.08392334,-0.625,-1.265625,0.203125,388
389,1696244841909,-0.037109375,-0.98809814,0.086120605,-1.546875,-1.0625,-0.328125,389
390,1696244841949,-0.036865234,-0.975647,0.09051514,-1.40625,-0.140625,-0.546875,390
391,1696244841989,-0.052734375,-0.99420166,0.08538818,-0.9375,-0.5625,-0.09375,391
392,1696244842029,-0.05029297,-0.9961548,0.09710693,-0.375,-0.96875,-0.28125,392
393,1696244842069,-0.051513672,-0.9788208,0.08709717,-0.4375,-0.546875,0.09375,393
394,1696244842109,-0.04321289,-0.98028564,0.08660889,-0.484375,-0.046875,0.015625,394
395,1696244842149,-0.05126953,-0.9939575,0.09295654,0.03125,-0.625,0.421875,395
396,1696244842189,-0.04248047,-0.9866333,0.08758545,0.21875,-0.421875,0.265625,396
397,1696244842229,-0.050048828,-0.9859009,0.08660889,0.546875,-0.46875,0.5625,397
398,1696244842269,-0.045166016,-0.98809814,0.09954834,0.359375,-0.671875,0.3125,398
399,1696244842309,-0.045410156,-0.9873657,0.08758545,-0.21875,-0.140625,0.0,399
400,1696244842349,-0.039794922,-0.99005127,0.08001709,0.21875,-0.921875,0.421875,400
401,1696244842389,-0.040771484,-0.98394775,0.097839355,-0.84375,0.0625,-0.5,401
402,1696244842429,-0.05053711,-0.9981079,0.09515381,0.0625,0.1875,-0.046875,402
403,1696244842469,-0.05908203,-0.98760986,0.093933105,-0.125,0.625,-0.515625,403
404,1696244842509,-0.053955078,-0.9859009,0.09515381,0.0625,0.15625,0.21875,404
405,1696244842549,-0.046875,-0.9981079,0.097351074,0.90625,0.46875,0.234375,405
406,1696244842589,-0.039794922,-0.9871216,0.0848999,-0.390625,0.96875,0.46875,406
407,1696244842629,-0.044921875,-0.98883057,0.09295654,0.28125,0.390625,0.5,407
408,1696244842669,-0.03930664,-0.9956665,0.090026855,-0.046875,-0.09375,0.53125,408
409,1696244842709,-0.04638672,-0.97906494,0.08807373,0.15625,-0.390625,0.453125,409
410,1696244842749,-0.036376953,-0.98321533,0.090026855,0.125,-0.28125,0.109375,410
411,1696244842789,-0.045898438,-0.99542236,0.09173584,0.03125,-0.15625,0.46875,411
412,1696244842829,-0.04638672,-0.989563,0.08758545,-0.25,-0.171875,0.28125,412
413,1696244842869,-0.041748047,-0.98883057,0.090270996,-0.109375,0.078125,0.453125,413
414,1696244842909,-0.042236328,-0.991272,0.08465576,-0.5,-0.03125,0.15625,414
415,1696244842949,-0.040771484,-0.9859009,0.07342529,-0.203125,-0.6875,0.421875,415
416,1696244842989,-0.03540039,-0.98516846,0.09197998,0.984375,-1.171875,0.75,416
417,1696244843029,-0.034179688,-0.975647,0.07635498,-0.484375,0.109375,0.21875,417
418,1696244843069,-0.045654297,-0.99786377,0.09588623,0.765625,0.28125,1.015625,418
419,1696244843109,-0.04321289,-0.98638916,0.089782715,0.375,0.3125,0.15625,419
420,1696244843149,-0.044189453,-0.9885864,0.08660889,0.5625,0.328125,0.46875,420
421,1696244843189,-0.044189453,-0.9939575,0.085632324,0.265625,-0.34375,0.6875,421
422,1696244843229,-0.036621094,-0.98760986,0.08343506,0.203125,0.0,0.171875,422
423,1696244843269,-0.03491211,-0.9819946,0.08831787,-0.59375,0.0,0.21875,423
424,1696244843309,-0.044677734,-0.9883423,0.08782959,-0.703125,0.234375,0.78125,424
425,1696244843349,-0.03515625,-0.99346924,0.089538574,-0.28125,0.171875,0.3125,425
426,1696244843389,-0.039794922,-0.98028564,0.085632324,0.171875,-0.0625,0.296875,426
427,1696244843429,-0.040039062,-0.9915161,0.08856201,-0.328125,-0.015625,0.515625,427
428,1696244843469,-0.03125,-0.9927368,0.086364746,0.046875,-0.296875,0.328125,428
429,1696244843509,-0.04663086,-0.99005127,0.089538574,0.15625,-1.015625,0.15625,429
430,1696244843549,-0.041259766,-0.989563,0.082214355,-0.140625,-0.671875,0.203125,430
431,1696244843589,-0.034423828,-0.98101807,0.08465576,-0.359375,-0.140625,0.359375,431
432,1696244843629,-0.036865234,-0.98809814,0.08441162,-0.46875,0.359375,0.53125,432
433,1696244843669,-0.032958984,-0.989563,0.07879639,0.390625,-0.84375,0.53125,433
434,1696244843709,-0.028320312,-0.9727173,0.08416748,-0.828125,0.421875,0.015625,434
435,1696244843749,-0.049560547,-1.0032349,0.09857178,-0.0625,-0.046875,0.96875,435
436,1696244843789,-0.042236328,-0.98809814,0.08880615,-0.203125,-0.28125,-0.125,436
437,1696244843829,-0.03930664,-0.989563,0.09075928,-0.140625,0.140625,0.15625,437
438,1696244843869,-0.041503906,-0.9885864,0.10003662,0.171875,0.125,0.25,438
439,1696244843909,-0.036621094,-0.9866333,0.08831787,0.203125,-0.21875,0.375,439
440,1696244843949,-0.03491211,-0.9854126,0.09100342,-0.03125,-0.046875,0.046875,440
441,1696244843989,-0.038085938,-0.9841919,0.08734131,0.109375,0.046875,0.28125,441
442,1696244844029,-0.03540039,-0.9902954,0.08758545,-0.171875,-0.09375,0.140625,442
443,1696244844069,-0.040771484,-0.99053955,0.085632324,-0.03125,-0.328125,0.09375,443
444,1696244844109,-0.026123047,-0.9890747,0.09124756,-0.28125,-0.375,0.265625,444
445,1696244844149,-0.041259766,-0.9924927,0.090026855,0.0,-0.359375,0.0625,445
446,1696244844189,-0.03491211,-0.9902954,0.0914917,0.078125,-0.515625,0.28125,446
447,1696244844229,-0.03881836,-0.98883057,0.09051514,-0.453125,-0.34375,-0.34375,447
448,1696244844269,-0.036865234,-0.9849243,0.093444824,-0.421875,-0.296875,0.078125,448
449,1696244844309,-0.036376953,-0.98638916,0.09442139,-0.59375,-0.484375,-0.046875,449
450,1696244844349,-0.041992188,-0.9956665,0.089782715,0.1875,-1.6875,0.421875,450
451,1696244844389,-0.03466797,-0.9859009,0.11663818,1.46875,-0.421875,-0.09375,451
452,1696244844429,-0.041015625,-0.9907837,0.07171631,-0.859375,0.109375,0.109375,452
453,1696244844469,-0.037597656,-0.9944458,0.097351074,-0.15625,-0.03125,0.1875,453
454,1696244844509,-0.041259766,-0.9883423,0.09490967,-0.078125,-0.6875,-0.46875,454
455,1696244844549,-0.041992188,-0.9758911,0.09906006,0.15625,0.015625,-0.125,455
456,1696244844589,-0.03930664,-0.99591064,0.08294678,-0.4375,-0.15625,0.046875,456
457,1696244844629,-0.047607422,-0.9849243,0.10101318,0.515625,-0.328125,0.09375,457
458,1696244844669,-0.03930664,-0.9805298,0.08514404,-0.1875,-0.375,0.4375,458
459,1696244844709,-0.04272461,-0.99542236,0.09246826,-0.171875,0.1875,0.671875,459
460,1696244844749,-0.0390625,-0.99102783,0.101257324,-0.28125,0.046875,0.40625,460
461,1696244844789,-0.036376953,-0.9834595,0.109802246,-0.265625,-0.796875,0.484375,461
462,1696244844829,-0.047607422,-0.9990845,0.094177246,1.34375,-4.609375,0.40625,462
463,1696244844869,-0.048583984,-0.9824829,0.08416748,0.96875,-5.53125,0.5625,463
464,1696244844909,-0.041015625,-0.987854,0.0836792,0.59375,-2.09375,0.890625,464
465,1696244844949,-0.043701172,-0.99224854,0.07952881,0.84375,-2.453125,0.109375,465
466,1696244844989,-0.032470703,-0.97491455,0.07635498,0.359375,-0.953125,0.359375,466
467,1696244845029,-0.040527344,-0.975647,0.07952881,0.078125,-0.359375,0.4375,467
468,1696244845069,-0.03149414,-0.9907837,0.08465576,-0.40625,-0.390625,0.046875,468
469,1696244845109,-0.041259766,-0.9920044,0.09246826,-0.03125,-1.1875,0.359375,469
470,1696244845149,-0.027832031,-0.98223877,0.11834717,1.171875,-0.0625,0.15625,470
471,1696244845189,-0.047851562,-0.99468994,0.066101074,-0.828125,-0.015625,-0.015625,471
472,1696244845229,-0.045898438,-0.9849243,0.09588623,-0.34375,-0.203125,0.0625,472
473,1696244845269,-0.045654297,-0.9885864,0.08880615,-0.78125,-0.171875,-0.453125,473
474,1696244845309,-0.036621094,-0.9841919,0.0927124,-0.984375,0.0,-0.28125,474
475,1696244845349,-0.041259766,-0.989563,0.08709717,-1.0,-0.046875,0.15625,475
476,1696244845389,-0.037597656,-0.99053955,0.08929443,-1.203125,-0.09375,0.078125,476
477,1696244845429,-0.03857422,-0.9841919,0.09710693,-0.46875,-0.5625,0.140625,477
478,1696244845469,-0.041259766,-0.9817505,0.093444824,-0.65625,-0.3125,0.578125,478
479,1696244845509,-0.04345703,-1.0032349,0.101989746,0.265625,-0.375,0.484375,479
480,1696244845549,-0.036621094,-0.99005127,0.089538574,-0.296875,-0.421875,0.21875,480
481,1696244845589,-0.041992188,-0.97735596,0.0914917,0.1875,-0.125,0.453125,481
482,1696244845629,-0.032714844,-0.9920044,0.097351074,-0.28125,-0.546875,0.5,482
483,1696244845669,-0.03857422,-0.9866333,0.09490967,-0.328125,-0.5625,0.359375,483
484,1696244845709,-0.038330078,-0.98760986,0.09295654,-0.390625,-0.140625,0.1875,484
485,1696244845749,-0.036376953,-0.9866333,0.09173584,-0.1875,-0.28125,0.625,485
486,1696244845789,-0.04345703,-0.9907837,0.09222412,-0.125,-0.15625,0.421875,486
487,1696244845829,-0.045898438,-0.9854126,0.10491943,0.796875,-0.828125,0.609375,487
488,1696244845869,-0.033203125,-0.98516846,0.11981201,1.203125,0.265625,0.25,488
489,1696244845909,-0.04345703,-0.9920044,0.07684326,0.203125,0.3125,0.8125,489
490,1696244845949,-0.03100586,-0.97613525,0.09539795,0.5,0.390625,0.5625,490
491,1696244845989,-0.039794922,-0.9985962,0.089538574,-0.03125,0.171875,0.625,491
492,1696244846029,-0.033935547,-0.9859009,0.09490967,-0.21875,0.609375,-0.21875,492
493,1696244846069,-0.03881836,-0.98931885,0.09295654,-0.171875,-0.453125,0.21875,493
494,1696244846109,-0.032714844,-1.0005493,0.0914917,0.0625,-0.15625,0.234375,494
495,1696244846149,-0.03881836,-0.9885864,0.0914917,-0.34375,-0.59375,-0.015625,495
496,1696244846189,-0.043701172,-0.9883423,0.09686279,0.0,0.125,0.359375,496
497,1696244846229,-0.030761719,-0.98760986,0.09954834,0.0,-0.640625,-0.03125,497
498,1696244846269,-0.035888672,-0.98223877,0.09051514,-0.09375,-0.671875,0.390625,498
499,1696244846309,-0.03466797,-0.98687744,0.09173584,-0.625,-0.828125,0.390625,499
500,1696244846349,-0.03540039,-0.9841919,0.09613037,0.171875,-1.0625,0.4375,500
501,1696244846389,-0.03540039,-0.99005127,0.09539795,0.109375,-1.09375,0.34375,501
502,1696244846429,-0.036132812,-0.98883057,0.09466553,0.265625,-0.375,0.125,502
503,1696244846469,-0.041503906,-0.9873657,0.09881592,0.078125,-0.28125,0.515625,503
504,1696244846509,-0.036621094,-0.99591064,0.09442139,-0.359375,-0.359375,0.40625,504
505,1696244846549,-0.034423828,-0.98321533,0.08685303,-0.4375,-0.953125,0.09375,505
506,1696244846589,-0.022705078,-0.9883423,0.10418701,0.875,-0.046875,0.234375,506
507,1696244846629,-0.028808594,-0.99102783,0.08905029,-0.34375,0.3125,-0.078125,507
508,1696244846669,-0.04345703,-1.008606,0.12054443,2.328125,-0.296875,0.640625,508
509,1696244846709,-0.048339844,-0.98101807,0.07879639,1.5625,-4.15625,0.5625,509
510,1696244846749,-0.018066406,-0.9924927,0.08099365,-0.109375,-4.0625,0.921875,510
511,1696244846789,-0.041748047,-0.99664307,0.086364746,-0.0625,-3.265625,1.296875,511
512,1696244846829,-0.03564453,-0.99542236,0.07977295,-0.03125,-3.25,0.203125,512
513,1696244846869,-0.034423828,-0.98516846,0.08026123,-0.5,-3.25,0.59375,513
514,1696244846909,-0.035888672,-0.99053955,0.09075928,0.34375,-1.5,0.421875,514
515,1696244846949,-0.03881836,-0.99542236,0.08099365,0.109375,-2.34375,-0.046875,515
516,1696244846989,-0.03100586,-0.98223877,0.08441162,-0.140625,-1.359375,-0.046875,516
517,1696244847029,-0.033935547,-0.9800415,0.08099365,-0.6875,-0.859375,0.125,517
518,1696244847069,-0.033203125,-0.9854126,0.089538574,-0.875,-0.46875,-0.25,518
519,1696244847109,-0.029541016,-0.9907837,0.093933105,-0.75,-0.546875,-0.265625,519
520,1696244847149,-0.04321289,-0.98883057,0.09832764,-0.765625,-0.3125,-0.4375,520
521,1696244847189,-0.033691406,-0.98443604,0.097839355,-0.390625,0.078125,-0.25,521
522,1696244847229,-0.032226562,-0.98931885,0.094177246,-0.828125,0.0625,-0.046875,522
523,1696244847269,-0.04272461,-0.9890747,0.07879639,-0.625,-0.421875,-0.328125,523
524,1696244847309,-0.032714844,-0.98638916,0.116882324,1.25,0.265625,0.015625,524
525,1696244847349,-0.05493164,-0.9817505,0.14422607,-0.984375,1.125,-0.765625,661
526,1696244847389,-0.049804688,-0.9907837,0.14178467,-1.046875,1.171875,-0.75,662
527,1696244847429,-0.043945312,-0.98760986,0.11810303,-1.109375,0.9375,-0.1875,663
528,1696244847469,-0.03955078,-0.97247314,0.13861084,-0.765625,1.265625,0.265625,664
529,1696244847509,-0.051757812,-0.99224854,0.13568115,0.0,1.390625,0.109375,665
530,1696244847549,-0.047607422,-0.9854126,0.13909912,0.3125,0.765625,-0.359375,666
531,1696244847589,-0.052978516,-0.97540283,0.12860107,0.765625,0.5,0.1875,667
532,1696244847629,-0.052978516,-0.9981079,0.11175537,0.953125,0.640625,0.34375,668
533,1696244847669,-0.048339844,-0.9846802,0.12982178,1.75,0.375,0.46875,669
534,1696244847709,-0.0390625,-0.9795532,0.12884521,2.1875,0.078125,1.109375,670
535,1696244847749,-0.052001953,-0.98687744,0.1251831,2.984375,-0.359375,1.515625,671
536,1696244847789,-0.045410156,-0.9927368,0.12615967,2.875,-0.171875,1.34375,672
537,1696244847829,-0.046875,-0.9829712,0.11932373,2.84375,-0.375,1.078125,673
538,1696244847869,-0.04248047,-0.9817505,0.11468506,2.6875,-0.65625,1.28125,674
539,1696244847909,-0.043945312,-0.9944458,0.11810303,2.828125,-0.53125,1.359375,675
540,1696244847949,-0.035888672,-0.9837036,0.11102295,2.359375,-0.46875,0.875,676
541,1696244847989,-0.048583984,-0.986145,0.117126465,3.03125,-0.421875,1.125,677
542,1696244848029,-0.044677734,-0.9859009,0.121276855,3.21875,-0.015625,0.796875,678
543,1696244848069,-0.044189453,-0.9907837,0.09075928,2.171875,-0.484375,1.03125,679
544,1696244848109,-0.046142578,-0.9788208,0.101745605,2.75,-0.078125,0.78125,680
545,1696244848149,-0.040527344,-0.989563,0.10076904,2.171875,0.125,1.015625,681
546,1696244848189,-0.041992188,-0.98516846,0.08709717,1.953125,0.078125,0.609375,682
547,1696244848229,-0.036132812,-0.98638916,0.08294678,1.46875,-0.5,0.671875,683
548,1696244848269,-0.03540039,-0.99298096,0.0836792,0.96875,-0.4375,0.546875,684
549,1696244848309,-0.041748047,-0.9793091,0.086120605,1.28125,-0.171875,0.359375,685
550,1696244848349,-0.030273438,-0.9920044,0.08514404,1.078125,-0.484375,0.171875,686
551,1696244848389,-0.042236328,-0.98443604,0.07952881,0.75,-1.015625,-0.25,687
552,1696244848429,-0.038330078,-0.9824829,0.08416748,0.796875,-0.578125,0.375,688
553,1696244848469,-0.045166016,-0.9898071,0.08074951,0.421875,-0.84375,-0.15625,689
554,1696244848509,-0.052246094,-0.99468994,0.105407715,0.90625,-2.703125,-0.703125,690
555,1696244848549,-0.025634766,-0.9849243,0.06829834,1.953125,-4.53125,-0.34375,691
556,1696244848589,-0.05834961,-1.0020142,0.0914917,4.171875,-5.046875,0.703125,692
557,1696244848629,-0.032470703,-0.9973755,0.053894043,3.875,-4.953125,0.015625,693
558,1696244848669,-0.02368164,-0.9795532,0.0524292,1.890625,-2.421875,0.6875,694
559,1696244848709,-0.0390625,-0.98883057,0.061950684,3.75,-0.921875,1.078125,695
560,1696244848749,-0.052978516,-0.9990845,0.050231934,2.65625,-2.40625,0.03125,696
561,1696244848789,-0.03564453,-0.96710205,0.035095215,0.53125,-0.78125,0.375,697
562,1696244848829,-0.03857422,-0.9685669,0.047546387,0.1875,-0.484375,0.734375,698
563,1696244848869,-0.033691406,-0.9976196,0.043884277,-0.234375,-0.21875,0.71875,699
564,1696244848909,-0.037597656,-0.986145,0.046813965,-0.453125,-0.421875,0.171875,700
565,1696244848949,-0.04736328,-0.98443604,0.051696777,0.125,-0.71875,0.484375,701
566,1696244848989,-0.037597656,-0.991272,0.058044434,-0.171875,-0.484375,0.3125,702
567,1696244849029,-0.036621094,-0.9885864,0.047546387,-0.703125,-0.171875,-0.078125,703
568,1696244849069,-0.040039062,-0.99346924,0.047790527,-0.796875,-0.578125,0.234375,704
569,1696244849109,-0.03930664,-0.9883423,0.050476074,-0.46875,0.015625,0.0,705
570,1696244849149,-0.030761719,-0.98760986,0.05267334,-0.578125,-0.25,0.328125,706
571,1696244849189,-0.03466797,-0.99664307,0.05731201,-0.78125,-0.46875,0.265625,707
572,1696244849229,-0.045410156,-0.9963989,0.05340576,-0.9375,-0.859375,0.15625,708
573,1696244849269,-0.03100586,-0.9866333,0.0692749,-0.359375,-0.09375,-0.140625,709
574,1696244849309,-0.043945312,-0.9902954,0.043395996,-1.34375,-0.71875,0.109375,710
575,1696244849349,-0.03540039,-0.9902954,0.066101074,-0.28125,-0.046875,-0.1875,711
576,1696244849389,-0.046142578,-1.0025024,0.055603027,-0.796875,-0.1875,0.1875,712
577,1696244849429,-0.04321289,-0.9812622,0.06463623,-0.390625,-0.0625,0.03125,713
578,1696244849469,-0.034179688,-0.99176025,0.057556152,-0.546875,-0.046875,0.578125,714
579,1696244849509,-0.030029297,-0.98321533,0.06072998,-0.921875,0.453125,0.453125,715
580,1696244849549,-0.037109375,-0.9873657,0.06341553,-0.453125,-0.421875,0.578125,716
581,1696244849589,-0.032958984,-0.987854,0.06390381,-0.578125,0.171875,0.703125,717
582,1696244849629,-0.046875,-0.9890747,0.066345215,-0.40625,-0.015625,1.25,718
583,1696244849669,-0.03149414,-0.98443604,0.06707764,-1.0625,0.21875,0.75,719
584,1696244849709,-0.03857422,-0.9883423,0.06707764,-0.96875,-0.015625,0.78125,720
585,1696244849749,-0.030029297,-0.9890747,0.06878662,-1.171875,-0.28125,0.578125,721
586,1696244849789,-0.037353516,-0.9859009,0.074401855,-0.59375,-0.40625,0.609375,722
587,1696244849829,-0.040039062,-0.98516846,0.07196045,-1.015625,-0.578125,0.1875,723
588,1696244849869,-0.03515625,-0.9902954,0.059753418,-0.828125,0.140625,0.4375,724
589,1696244849909,-0.021484375,-0.99713135,0.062438965,-0.421875,-1.09375,0.40625,725
590,1696244849949,-0.024169922,-0.96832275,0.06488037,-1.15625,-0.0625,-0.140625,726
591,1696244849989,-0.035888672,-0.99957275,0.07269287,-0.28125,-0.125,0.734375,727
592,1696244850029,-0.034179688,-0.99005127,0.070739746,-0.5625,-0.140625,0.015625,728
593,1696244850069,-0.032958984,-0.98443604,0.07611084,-0.25,-0.296875,0.5,729
594,1696244850109,-0.030517578,-0.9939575,0.073913574,-0.359375,-0.359375,0.296875,730
595,1696244850149,-0.032226562,-0.9951782,0.07928467,-0.15625,-0.359375,0.515625,731
596,1696244850189,-0.041259766,-0.99420166,0.07220459,-0.40625,-0.109375,0.25,732
597,1696244850229,-0.034179688,-0.9890747,0.08074951,-0.171875,-0.078125,0.40625,733
598,1696244850269,-0.028076172,-0.99835205,0.07220459,-0.21875,-0.59375,0.21875,734
599,1696244850309,-0.033203125,-0.98272705,0.08001709,0.1875,-0.28125,0.171875,735
600,1696244850349,-0.026855469,-0.9973755,0.08929443,1.171875,-0.75,0.34375,736
601,1696244850389,-0.036132812,-0.9849243,0.07293701,-0.484375,-2.53125,0.484375,737
602,1696244850429,-0.02709961,-0.9854126,0.07928467,0.3125,-3.0625,0.90625,738
603,1696244850469,-0.028808594,-1.0015259,0.07269287,-0.296875,-3.40625,1.109375,739
604,1696244850509,-0.026123047,-0.99591064,0.05682373,0.765625,-3.75,0.140625,740
605,1696244850549,-0.016113281,-0.98101807,0.08123779,2.5625,-2.9375,0.109375,741
606,1696244850589,-0.032958984,-0.97906494,0.04925537,0.40625,-2.296875,0.71875,742
607,1696244850629,-0.026367188,-0.99298096,0.06732178,0.890625,-1.40625,0.9375,743
608,1696244850669,-0.036865234,-0.98272705,0.057556152,-0.796875,-0.46875,-0.171875,744
609,1696244850709,-0.015380859,-0.9783325,0.05999756,-0.796875,0.515625,0.78125,745
610,1696244850749,-0.029541016,-0.99542236,0.06732178,-1.140625,-0.359375,0.9375,746
611,1696244850789,-0.020507812,-0.9885864,0.0692749,-1.203125,-0.0625,0.265625,747
612,1696244850829,-0.03125,-0.987854,0.073913574,-0.921875,-0.109375,0.359375,748
613,1696244850869,-0.026855469,-0.9951782,0.07489014,-0.671875,0.328125,0.6875,749
614,1696244850909,-0.029296875,-0.9841919,0.066101074,-0.171875,0.1875,0.140625,750
615,1696244850949,-0.020019531,-0.98101807,0.07635498,0.0625,0.609375,0.3125,751
616,1696244850989,-0.028564453,-0.9849243,0.07489014,-0.28125,0.5,0.609375,752
617,1696244851029,-0.020019531,-0.9937134,0.07244873,-0.4375,-0.0625,0.28125,753
618,1696244851069,-0.03100586,-0.99298096,0.066833496,-0.59375,-0.09375,0.171875,754
619,1696244851109,-0.0234375,-0.9854126,0.07489014,-0.0625,-0.203125,0.25,755
620,1696244851149,-0.020019531,-0.9890747,0.08050537,-0.015625,0.015625,-0.03125,756
621,1696244851189,-0.02319336,-0.98565674,0.066589355,-0.03125,0.171875,0.125,757
622,1696244851229,-0.014404297,-0.9873657,0.05999756,-0.1875,-0.671875,0.296875,758
623,1696244851269,-0.0107421875,-0.9795532,0.07684326,-1.03125,0.8125,-0.21875,759
624,1696244851309,-0.029785156,-0.9963989,0.07269287,-0.21875,0.1875,0.203125,760
625,1696244851349,-0.028076172,-0.9873657,0.07366943,-0.046875,0.65625,-0.453125,761
626,1696244851389,-0.014892578,-0.98638916,0.07513428,0.203125,-0.140625,0.03125,762
627,1696244851429,-0.028076172,-0.98809814,0.082458496,0.453125,-0.234375,-0.03125,763
628,1696244851469,-0.022949219,-0.99176025,0.07098389,0.0,-0.171875,0.109375,764
629,1696244851509,-0.021484375,-0.9841919,0.07196045,-0.125,0.453125,-0.125,765
630,1696244851549,-0.032958984,-1.003479,0.078308105,0.109375,-0.078125,0.203125,766
631,1696244851589,-0.024169922,-0.9819946,0.078552246,0.15625,0.15625,-0.171875,767
632,1696244851629,-0.025634766,-0.9915161,0.07293701,-0.203125,-0.03125,-0.046875,768
633,1696244851669,-0.029052734,-0.987854,0.07904053,-0.0625,-0.078125,-0.234375,769
634,1696244851709,-0.032714844,-0.98443604,0.07318115,-0.140625,-0.109375,-0.578125,770
635,1696244851749,-0.029296875,-0.99102783,0.07952881,-0.640625,-0.328125,-0.46875,771
636,1696244851789,-0.03540039,-0.99005127,0.078552246,-0.40625,-0.03125,-0.6875,772
637,1696244851829,-0.030517578,-0.98223877,0.070251465,-0.640625,0.046875,-0.859375,773
638,1696244851869,-0.036132812,-0.9927368,0.070251465,-0.578125,-0.375,-0.796875,774
639,1696244851909,-0.03100586,-0.9937134,0.081970215,0.078125,-0.34375,-0.578125,775
640,1696244851949,-0.028808594,-0.9768677,0.06536865,-2.203125,0.5625,-1.203125,776
641,1696244851989,-0.0390625,-0.99542236,0.09320068,-0.390625,0.234375,-0.71875,777
642,1696244852029,-0.045410156,-0.99224854,0.07977295,-1.0,0.125,-1.15625,778
643,1696244852069,-0.032226562,-0.9834595,0.08538818,-1.109375,0.703125,-1.03125,779
644,1696244852109,-0.044189453,-0.9920044,0.086120605,-1.359375,0.234375,-1.03125,780
645,1696244852149,-0.04736328,-0.9937134,0.08807373,-1.140625,0.265625,-0.6875,781
646,1696244852189,-0.037597656,-0.98272705,0.0927124,-0.84375,0.21875,-0.734375,782
647,1696244852229,-0.048095703,-0.9890747,0.089782715,-0.8125,0.375,-0.15625,783
648,1696244852269,-0.046875,-0.9920044,0.08441162,-0.890625,0.1875,-0.203125,784
649,1696244852309,-0.044189453,-0.9871216,0.089538574,-0.734375,-0.015625,0.25,785
650,1696244852349,-0.048339844,-0.98687744,0.08514404,-0.5,-0.3125,0.34375,786
651,1696244852389,-0.045654297,-0.98687744,0.094177246,-0.203125,-0.484375,0.6875,787
652,1696244852429,-0.045410156,-0.9846802,0.08782959,-0.078125,-0.421875,0.6875,788
653,1696244852469,-0.044921875,-0.98687744,0.08905029,-0.265625,-0.421875,0.359375,789
654,1696244852509,-0.049560547,-0.9932251,0.09832764,0.21875,-0.375,0.875,790
655,1696244852549,-0.05078125,-0.9873657,0.09320068,-0.1875,-0.78125,0.546875,791
656,1696244852589,-0.049316406,-0.9937134,0.085876465,0.0,-1.109375,0.8125,792
657,1696244852629,-0.033691406,-0.98394775,0.10076904,1.140625,-0.515625,0.6875,793
658,1696244852669,-0.048583984,-0.9890747,0.08074951,-0.671875,0.03125,0.546875,794
659,1696244852709,-0.049804688,-0.99664307,0.109313965,0.890625,-0.65625,0.71875,795
660,1696244852749,-0.052978516,-0.9927368,0.0993042,1.265625,-1.734375,0.984375,796
661,1696244852789,-0.037597656,-0.9729614,0.086364746,0.515625,-3.265625,0.71875,797
662,1696244852829,-0.03881836,-0.99298096,0.090270996,0.234375,-3.859375,0.96875,798
663,1696244852869,-0.0546875,-0.99298096,0.093444824,1.5,-3.875,0.640625,799
664,1696244852909,-0.041992188,-0.9788208,0.08270264,-0.40625,-2.734375,0.046875,800
665,1696244852949,-0.052734375,-0.9807739,0.09222412,-0.140625,-2.84375,1.015625,801
666,1696244852989,-0.041259766,-0.98565674,0.08880615,1.484375,-1.859375,0.6875,802
667,1696244853029,-0.032226562,-0.99835205,0.08856201,2.8125,-0.90625,0.125,803
668,1696244853069,-0.04272461,-0.98883057,0.07757568,1.53125,-1.90625,0.328125,804
669,1696244853109,-0.04296875,-0.9883423,0.0848999,-0.53125,-1.625,0.015625,805
670,1696244853149,-0.04272461,-0.9932251,0.08343506,1.25,-0.328125,0.015625,806
671,1696244853189,-0.038085938,-0.98760986,0.06585693,1.015625,-0.453125,0.1875,807
672,1696244853229,-0.0390625,-0.9866333,0.07611084,0.65625,-0.671875,0.15625,808
673,1696244853269,-0.03955078,-0.987854,0.07562256,1.125,-0.90625,0.265625,809
674,1696244853309,-0.033447266,-0.9854126,0.077819824,1.515625,-0.203125,-0.140625,810
675,1696244853349,-0.036376953,-0.9780884,0.04876709,-0.984375,-1.171875,-0.234375,811
676,1696244853389,-0.043701172,-0.97979736,0.078308105,-0.703125,-1.328125,-0.5,812
677,1696244853429,-0.046875,-0.9976196,0.08001709,-0.296875,-0.578125,-0.28125,813
678,1696244853469,-0.051757812,-0.9824829,0.06951904,-0.875,-1.046875,-0.671875,814
679,1696244853509,-0.033447266,-0.98809814,0.08148193,-0.25,-0.84375,0.046875,815
680,1696244853549,-0.049560547,-0.99591064,0.0848999,0.484375,-0.734375,0.015625,816
681,1696244853589,-0.03881836,-0.9771118,0.07196045,-0.5,-0.546875,-0.078125,817
682,1696244853629,-0.04248047,-0.9795532,0.06878662,-0.25,-1.09375,0.203125,818
683,1696244853669,-0.04638672,-0.99786377,0.0770874,0.015625,-0.421875,0.453125,819
684,1696244853709,-0.042236328,-0.99102783,0.07904053,0.0625,-0.40625,0.46875,820
685,1696244853749,-0.04321289,-0.989563,0.07489014,0.328125,-0.921875,0.734375,821
686,1696244853789,-0.045898438,-0.9898071,0.07171631,-0.0625,-1.03125,0.40625,822
687,1696244853829,-0.037841797,-0.99005127,0.074157715,0.359375,-1.0,0.578125,823
688,1696244853869,-0.04345703,-0.98760986,0.081726074,0.3125,-0.84375,0.46875,824
689,1696244853909,-0.040283203,-0.99346924,0.0680542,-0.46875,-0.671875,0.390625,825
690,1696244853949,-0.053466797,-0.99005127,0.06585693,-1.0,-0.859375,0.125,826
691,1696244853989,-0.030273438,-0.9846802,0.07977295,0.578125,-0.375,0.359375,827
692,1696244854029,-0.039794922,-0.9866333,0.058532715,-1.75,0.125,0.234375,828
693,1696244854069,-0.044433594,-0.99298096,0.081970215,0.140625,-0.171875,0.28125,829
694,1696244854109,-0.048339844,-0.99053955,0.07562256,-0.125,0.3125,0.28125,830
695,1696244854149,-0.041259766,-0.9898071,0.07733154,-0.1875,0.59375,-0.09375,831
696,1696244854189,-0.037109375,-0.9873657,0.066589355,-0.59375,-0.140625,0.15625,832
697,1696244854229,-0.037353516,-0.98931885,0.082214355,0.21875,-0.6875,0.484375,833
698,1696244854269,-0.03955078,-0.9854126,0.07659912,-0.40625,-0.984375,0.515625,834
699,1696244854309,-0.03955078,-0.9824829,0.06756592,-0.265625,-0.84375,0.109375,835
700,1696244854349,-0.050048828,-0.989563,0.074157715,-0.28125,-0.0625,0.265625,836
701,1696244854389,-0.036865234,-0.99713135,0.08270264,0.40625,0.0625,0.25,837
702,1696244854429,-0.03491211,-0.9812622,0.0770874,-0.21875,-0.6875,0.265625,838
703,1696244854469,-0.044677734,-0.98150635,0.07977295,-0.140625,-0.953125,0.1875,839
704,1696244854509,-0.05053711,-0.9944458,0.0770874,-0.421875,-0.734375,0.046875,840
705,1696244854549,-0.039794922,-0.9920044,0.07293701,-0.671875,-0.734375,-0.09375,841
706,1696244854589,-0.048339844,-0.9951782,0.07122803,-0.703125,-1.5625,0.09375,842
707,1696244854629,-0.03955078,-0.98687744,0.09124756,0.546875,-0.546875,-0.09375,843
708,1696244854669,-0.044677734,-0.9963989,0.057800293,-1.0,-0.390625,0.28125,844
709,1696244854709,-0.05444336,-0.9859009,0.08880615,-0.015625,-0.40625,-0.1875,845
710,1696244854749,-0.057373047,-0.98883057,0.082214355,-0.484375,-0.484375,-0.234375,846
711,1696244854789,-0.044433594,-0.9780884,0.082214355,-0.5625,0.0,-0.53125,847
712,1696244854829,-0.048339844,-0.98809814,0.074401855,-0.53125,-0.578125,-0.203125,848
713,1696244854869,-0.041992188,-0.991272,0.07952881,-0.15625,-0.296875,0.078125,849
714,1696244854909,-0.04638672,-0.9871216,0.07659912,0.078125,-0.21875,-0.046875,850
715,1696244854949,-0.047607422,-0.9871216,0.089538574,0.0625,0.296875,0.140625,851
716,1696244854989,-0.049072266,-0.9924927,0.082214355,0.3125,0.109375,0.015625,852
717,1696244855029,-0.0546875,-0.9846802,0.07611084,0.171875,0.046875,0.21875,853
718,1696244855069,-0.047607422,-0.9898071,0.07635498,-0.4375,0.4375,0.28125,854
719,1696244855109,-0.048828125,-0.9924927,0.08050537,-0.28125,0.671875,0.359375,855
720,1696244855149,-0.04711914,-0.9920044,0.08074951,-0.53125,0.515625,-0.0625,856
721,1696244855189,-0.050048828,-0.98638916,0.07513428,-0.375,0.421875,0.078125,857
722,1696244855229,-0.043701172,-0.99420166,0.07757568,-0.046875,0.34375,0.53125,858
723,1696244855269,-0.04345703,-0.9841919,0.09564209,1.21875,0.921875,0.296875,859
724,1696244855309,-0.046142578,-0.98809814,0.06414795,-0.4375,0.65625,0.484375,860
725,1696244855349,-0.044433594,-0.98394775,0.086120605,-0.171875,0.75,0.203125,861
726,1696244855389,-0.053955078,-1.00177,0.0770874,-0.1875,0.5625,0.671875,862
727,1696244855429,-0.041015625,-0.9793091,0.078308105,0.4375,0.78125,0.109375,863
728,1696244855469,-0.041259766,-0.98809814,0.07879639,0.375,0.296875,0.78125,864
729,1696244855509,-0.04321289,-0.99053955,0.06878662,-0.609375,-0.328125,0.484375,865
730,1696244855549,-0.040771484,-0.98931885,0.073913574,-0.15625,0.0,0.421875,866
731,1696244855589,-0.043701172,-0.9885864,0.08441162,0.21875,0.265625,0.53125,867
732,1696244855629,-0.044189453,-0.991272,0.08074951,-0.03125,0.140625,0.5,868
733,1696244855669,-0.034179688,-0.9807739,0.077819824,0.125,0.421875,0.484375,869
734,1696244855709,-0.042236328,-0.98638916,0.078552246,-0.140625,0.0,0.546875,870
735,1696244855749,-0.041015625,-0.9841919,0.078308105,-0.1875,0.03125,0.328125,871
736,1696244855789,-0.037597656,-0.99005127,0.08074951,-0.078125,-0.3125,0.765625,872
737,1696244855829,-0.041748047,-0.98565674,0.08294678,0.171875,-0.171875,0.6875,873
738,1696244855869,-0.044921875,-0.9824829,0.07757568,-0.390625,-0.34375,0.109375,874
739,1696244855909,-0.037353516,-0.9841919,0.086364746,-0.25,1.484375,0.828125,875
740,1696244855949,-0.036132812,-1.0010376,0.066833496,0.25,-0.40625,1.140625,876
741,1696244855989,-0.02709961,-0.97613525,0.07879639,-0.28125,0.78125,0.125,877
742,1696244856029,-0.0390625,-0.99713135,0.0848999,0.65625,0.515625,1.1875,878
743,1696244856069,-0.033935547,-0.99713135,0.07928467,-0.25,0.828125,0.5625,879
744,1696244856109,-0.03173828,-0.9951782,0.07513428,0.796875,0.6875,0.65625,880
745,1696244856149,-0.037841797,-0.9885864,0.0914917,0.75,0.015625,0.921875,881
746,1696244856189,-0.03930664,-0.9837036,0.07757568,0.484375,-0.390625,0.671875,882
747,1696244856229,-0.034179688,-0.9793091,0.081726074,-0.0625,-0.546875,0.359375,883
748,1696244856269,-0.032958984,-0.9924927,0.078552246,0.28125,-0.265625,0.546875,884
749,1696244856309,-0.031982422,-0.9932251,0.070251465,0.203125,-0.34375,0.453125,885
750,1696244856349,-0.03466797,-0.99005127,0.07928467,0.015625,-0.375,0.453125,886
751,1696244856389,-0.034423828,-0.9859009,0.07635498,0.46875,-0.515625,0.4375,887
752,1696244856429,-0.029785156,-0.9812622,0.06903076,0.515625,-0.140625,0.484375,888
753,1696244856469,-0.03955078,-0.99005127,0.06854248,1.109375,-0.25,0.90625,889
754,1696244856509,-0.030029297,-0.991272,0.07366943,0.484375,0.21875,0.28125,890
755,1696244856549,-0.03564453,-0.99053955,0.06414795,0.484375,-0.53125,0.703125,891
756,1696244856589,-0.028076172,-0.986145,0.08758545,1.125,0.234375,0.390625,892
757,1696244856629,-0.03466797,-0.98443604,0.051940918,-0.40625,0.1875,0.578125,893
758,1696244856669,-0.02319336,-0.98931885,0.07757568,1.0,0.296875,0.328125,894
759,1696244856709,-0.03466797,-0.9937134,0.074157715,0.4375,0.34375,0.625,895
