# Sensor type: Respeck
# Activity type: Lying down back
# Activity subtype: Laughing
# Subject id: s2104454
# Notes: unprocessed
timestamp,accel_x,accel_y,accel_z,gyro_x,gyro_y,gyro_z
1696248160004,-0.7077637,-0.039855957,0.82611084,-0.59375,0.90625,0.296875
1696248160044,-0.7006836,-0.045959473,0.80926514,-1.890625,0.984375,-0.015625
1696248160085,-0.6940918,-0.05255127,0.8119507,-1.78125,0.9375,-0.75
1696248160123,-0.7011719,-0.05596924,0.8175659,-1.4375,0.875,-0.671875
1696248160163,-0.6804199,-0.04498291,0.8175659,-3.140625,0.671875,-0.5625
1696248160203,-0.66137695,9.1552734E-4,0.78704834,0.859375,-2.1875,-0.890625
1696248160244,-0.6982422,-0.04815674,0.7758179,5.0,-4.96875,-0.515625
1696248160325,-0.65405273,0.016296387,0.73309326,1.046875,-2.796875,-2.328125
1696248160327,-0.6413574,0.031433105,0.7296753,3.328125,-1.25,-4.140625
1696248160344,-0.70214844,-0.045715332,0.82977295,10.328125,2.703125,-1.75
1696248160385,-0.68603516,-0.128479,0.9113159,9.0625,4.8125,2.140625
1696248160425,-0.65722656,-0.20806885,0.7628784,-5.703125,0.859375,2.3125
1696248160486,-0.73461914,-0.0010375977,0.7904663,-5.390625,1.21875,-6.328125
1696248160505,-0.6738281,-0.012512207,0.8776245,3.921875,8.796875,-1.359375
1696248160546,-0.6999512,0.02142334,0.8666382,6.46875,3.546875,-0.953125
1696248160586,-0.65600586,-0.17730713,0.93304443,4.28125,-1.0625,4.21875
1696248160626,-0.7199707,-0.08013916,0.71990967,-3.203125,-3.359375,1.140625
1696248160670,-0.66503906,-0.039611816,0.7719116,2.953125,5.9375,-3.625
1696248160706,-0.65625,-0.039611816,0.90448,4.03125,2.359375,-1.203125
1696248160748,-0.7507324,-0.13287354,0.8805542,-2.609375,-6.34375,1.828125
1696248160786,-0.64282227,-0.054016113,0.83807373,-1.125,1.15625,-0.953125
1696248160829,-0.6945801,-0.047668457,0.82318115,4.703125,7.0625,-0.5
1696248160867,-0.69091797,-0.09820557,0.9291382,-1.46875,-3.484375,-2.671875
1696248160906,-0.63061523,-0.039855957,0.73846436,-2.46875,-1.0,1.65625
1696248160946,-0.6608887,-0.058166504,0.8265991,-2.234375,1.109375,0.3125
1696248160986,-0.64624023,-0.082092285,0.8903198,0.125,0.671875,-2.234375
1696248161045,-0.69799805,-0.059387207,0.80340576,-5.296875,-1.6875,-1.453125
1696248161065,-0.66918945,-0.02911377,0.84490967,-0.328125,-0.34375,0.0
1696248161105,-0.68115234,-0.09283447,0.8004761,1.109375,0.578125,-0.546875
1696248161166,-0.6520996,-0.045959473,0.87323,-0.640625,0.078125,-0.015625
1696248161185,-0.65893555,-0.028869629,0.8048706,0.5625,-1.640625,-0.578125
1696248161227,-0.68603516,-0.054504395,0.8407593,0.203125,-0.75,0.578125
1696248161267,-0.6503906,-0.06817627,0.80145264,0.171875,-0.03125,0.34375
1696248161326,-0.65234375,-0.047424316,0.8744507,0.921875,-0.734375,-0.578125
1696248161368,-0.7163086,-0.054260254,0.8251343,-0.09375,-1.71875,-0.3125
1696248161386,-0.6586914,-0.04522705,0.8434448,-0.40625,0.890625,1.921875
1696248161426,-0.6640625,-0.061584473,0.7992554,0.5,1.359375,-0.234375
1696248161466,-0.69189453,-0.07574463,0.91693115,-1.375,-0.359375,-1.796875
1696248161506,-0.6254883,0.0021362305,0.7692261,-1.265625,-0.921875,0.6875
1696248161546,-0.7011719,-0.09063721,0.8685913,0.40625,0.609375,0.5
1696248161588,-0.6520996,-0.06011963,0.8082886,-0.15625,5.203125,0.890625
1696248161628,-0.6582031,-0.054504395,0.9398804,-3.203125,-1.171875,1.40625
1696248161646,-0.69189453,-0.038146973,0.7941284,0.59375,-2.828125,0.203125
1696248161686,-0.6464844,-0.08258057,0.80584717,-2.65625,-0.296875,-0.09375
1696248161726,-0.65844727,-0.05206299,0.8348999,-0.328125,-0.953125,-0.421875
1696248161765,-0.6508789,-0.05206299,0.87249756,0.1875,0.6875,0.4375
1696248161805,-0.6623535,-0.021057129,0.83099365,-2.9375,-4.46875,1.09375
1696248161847,-0.6791992,-0.058898926,0.793396,3.078125,-5.09375,1.078125
1696248161885,-0.6801758,-0.0791626,0.77386475,1.671875,1.15625,0.4375
1696248161926,-0.6269531,-0.04058838,0.8414917,2.53125,1.59375,-0.96875
1696248161966,-0.7285156,-0.0413208,0.88568115,0.765625,-1.21875,0.4375
1696248162005,-0.6723633,-0.054748535,0.8488159,0.0625,-2.328125,1.671875
1696248162047,-0.7102051,-0.073791504,0.82562256,0.828125,-1.78125,0.953125
1696248162086,-0.65844727,-0.07183838,0.81951904,2.375,-0.296875,-0.84375
1696248162126,-0.62939453,-0.06866455,0.8114624,2.0,1.03125,1.09375
1696248162167,-0.68603516,-0.03253174,0.8529663,-1.234375,-0.46875,-0.671875
1696248162205,-0.6875,-0.1194458,0.86932373,-0.375,-3.328125,3.109375
1696248162247,-0.7126465,-0.085754395,0.8890991,-8.359375,-1.9375,1.46875
1696248162287,-0.62524414,0.023376465,0.7362671,-3.578125,-2.765625,-2.03125
1696248162326,-0.67456055,-0.020568848,0.7728882,2.34375,-3.6875,-1.125
1696248162366,-0.6699219,-0.05987549,0.69207764,4.671875,1.703125,-0.375
1696248162407,-0.68408203,-0.082092285,0.8812866,1.953125,1.078125,-0.515625
1696248162446,-0.69970703,-0.065979004,0.95111084,1.15625,-2.3125,3.28125
1696248162486,-0.7224121,-0.109436035,0.8278198,-1.625,-4.234375,1.578125
1696248162525,-0.6838379,-7.9345703E-4,0.7391968,-2.703125,1.515625,-2.828125
1696248162566,-0.64501953,-0.0022583008,0.73236084,4.0,-0.453125,-0.609375
1696248162606,-0.6767578,-0.09136963,0.8673706,6.078125,-0.71875,-2.375
1696248162648,-0.71533203,-0.097961426,0.9298706,0.4375,-0.421875,2.390625
1696248162686,-0.69262695,-0.10870361,0.7704468,-2.234375,-4.09375,3.859375
1696248162725,-0.69970703,-0.06817627,0.8324585,-6.8125,-2.8125,-4.265625
1696248162767,-0.70947266,0.015075684,0.805603,-0.265625,-6.84375,-4.71875
1696248162806,-0.6340332,0.005554199,0.6757202,3.21875,-1.421875,1.40625
1696248162846,-0.62841797,-0.028625488,0.711853,9.09375,1.265625,0.4375
1696248162885,-0.68115234,-0.05303955,0.73480225,6.640625,10.53125,-1.515625
1696248162948,-0.6682129,-0.15167236,0.9059448,4.015625,1.015625,3.421875
1696248162964,-0.70166016,-0.18707275,0.8563843,-5.71875,-2.140625,4.859375
1696248162985,-0.72558594,-0.018859863,0.8036499,-4.140625,-0.203125,-1.890625
1696248163025,-0.7155762,0.012878418,0.8468628,-0.71875,2.4375,-1.84375
1696248163065,-0.63720703,-0.06866455,0.87298584,-0.890625,6.015625,-3.734375
1696248163106,-0.7133789,-0.12335205,0.9401245,-1.21875,-2.171875,-0.03125
1696248163146,-0.6586914,-0.10015869,0.78289795,-3.046875,-2.8125,0.734375
1696248163185,-0.6923828,-0.074523926,0.80511475,-2.203125,1.71875,1.453125
1696248163225,-0.6201172,-0.042785645,0.78704834,-0.0625,3.21875,-1.703125
1696248163269,-0.70288086,-0.011291504,0.87249756,-0.875,-1.625,0.609375
1696248163326,-0.6074219,-0.047424316,0.8119507,1.09375,-0.078125,-0.21875
1696248163346,-0.7207031,-0.05645752,0.82196045,-0.640625,1.828125,0.71875
1696248163411,-0.69506836,-0.07354736,0.8300171,0.484375,-3.75,0.03125
1696248163424,-0.62841797,-0.039367676,0.78533936,-1.203125,0.84375,0.25
1696248163468,-0.68725586,-0.018615723,0.80999756,0.4375,-0.296875,0.484375
1696248163504,-0.6826172,-0.089416504,0.8563843,-0.6875,2.109375,1.125
1696248163565,-0.6982422,-0.061584473,0.87298584,-2.953125,-0.484375,-0.46875
1696248163606,-0.6286621,-0.015197754,0.8007202,1.640625,0.125,1.828125
1696248163625,-0.7072754,-0.054504395,0.84661865,-0.59375,0.59375,0.4375
1696248163687,-0.66064453,-0.062805176,0.90301514,-0.875,-2.4375,0.03125
1696248163704,-0.67626953,-0.039855957,0.80023193,-0.078125,-0.09375,0.890625
1696248163746,-0.6298828,-0.027648926,0.8529663,0.453125,-0.296875,0.546875
1696248163785,-0.70874023,-0.07867432,0.8383179,-0.40625,-2.390625,0.03125
1696248163826,-0.6640625,-0.043273926,0.8324585,-0.53125,-0.875,0.375
1696248163865,-0.6826172,-0.05718994,0.8746948,-0.78125,-3.65625,-0.296875
1696248163905,-0.6503906,-0.035949707,0.81243896,-3.296875,-10.203125,-0.578125
1696248163945,-0.6635742,-0.057434082,0.77508545,-0.25,-2.609375,2.125
1696248163986,-0.6672363,-0.03253174,0.8192749,-0.75,-0.78125,-0.359375
1696248164047,-0.70458984,-0.054504395,0.8217163,-1.328125,-0.921875,0.203125
1696248164064,-0.67407227,-0.022277832,0.81829834,0.828125,-1.046875,0.90625
1696248164105,-0.6906738,-0.06695557,0.7704468,-0.265625,1.828125,0.75
1696248164169,-0.6796875,-0.043029785,0.8373413,-0.515625,1.0625,0.1875
1696248164208,-0.7006836,-0.04058838,0.85736084,0.453125,-3.09375,1.453125
1696248164244,-0.7133789,-0.1104126,0.92181396,-1.078125,-3.546875,2.421875
1696248164266,-0.6723633,-0.039123535,0.822937,-12.640625,4.5,2.421875
1696248164285,-0.67456055,9.1552734E-4,0.7579956,-2.96875,-0.765625,-0.609375
1696248164327,-0.6489258,-0.016906738,0.7875366,1.484375,-1.90625,-0.5
1696248164366,-0.63378906,-0.030090332,0.6798706,1.578125,-0.0625,-0.046875
1696248164408,-0.65063477,-0.04522705,0.8908081,5.53125,-1.015625,-0.53125
1696248164445,-0.7675781,-0.07305908,0.8981323,0.453125,-1.984375,1.875
1696248164485,-0.7182617,-0.08795166,0.7982788,-1.5,-4.3125,2.046875
1696248164528,-0.70947266,-0.0071411133,0.78240967,-1.84375,0.34375,-1.171875
1696248164566,-0.6850586,-0.010314941,0.7428589,1.390625,1.34375,-0.8125
1696248164607,-0.6262207,-0.024230957,0.82318115,1.3125,1.171875,-0.984375
1696248164644,-0.74194336,-0.043029785,0.9130249,0.703125,-0.03125,1.328125
1696248164686,-0.6916504,-0.11895752,0.8187866,0.15625,-5.171875,2.9375
1696248164729,-0.6809082,-0.044006348,0.84539795,-6.59375,0.53125,-1.59375
1696248164768,-0.69506836,0.0138549805,0.7201538,2.671875,-1.71875,-0.171875
1696248164806,-0.62646484,-0.006164551,0.7106323,1.09375,-0.421875,-1.359375
1696248164846,-0.68310547,-0.069885254,0.8666382,4.625,-2.453125,0.09375
1696248164886,-0.74194336,-0.054260254,0.9335327,-0.078125,-1.28125,0.765625
1696248164927,-0.736084,-0.0803833,0.763855,-1.78125,-4.90625,1.78125
1696248164966,-0.6940918,0.026306152,0.7731323,-0.953125,2.390625,-1.671875
1696248165010,-0.66015625,-0.0154418945,0.74505615,2.765625,-0.359375,-1.03125
1696248165046,-0.6804199,-0.07745361,0.8522339,3.1875,-0.890625,-0.09375
1696248165084,-0.72680664,-0.10357666,0.9232788,-0.625,-0.09375,3.328125
1696248165125,-0.75878906,-0.07305908,0.8251343,-3.171875,-2.875,0.28125
1696248165166,-0.6904297,0.0028686523,0.79437256,-1.1875,1.125,-0.375
1696248165207,-0.67871094,0.021911621,0.7272339,7.4375,-3.59375,0.765625
1696248165249,-0.6958008,-0.07647705,0.81658936,5.359375,6.53125,-2.15625
1696248165287,-0.6999512,-0.08721924,0.9845581,2.78125,-0.015625,4.078125
1696248165326,-0.72558594,-0.14898682,0.7584839,-2.75,-4.453125,3.046875
1696248165367,-0.7128906,-0.02130127,0.83758545,-7.734375,1.671875,-3.703125
1696248165407,-0.7043457,0.04559326,0.77264404,2.375,-2.140625,-0.65625
1696248165449,-0.6418457,-0.032043457,0.7123413,0.75,1.03125,-0.5
1696248165487,-0.6669922,-0.06890869,0.7758179,3.5,5.578125,0.28125
1696248165527,-0.6418457,-0.05987549,0.8175659,4.59375,6.75,0.875
1696248165587,-0.6821289,-0.16119385,0.8444214,1.453125,-1.828125,5.75
1696248165606,-0.7541504,-0.08453369,0.8065796,-3.796875,6.625,0.796875
1696248165626,-0.71777344,-0.014953613,0.9191284,-0.359375,0.96875,-2.109375
1696248165666,-0.68408203,-0.053527832,0.8744507,-3.15625,-1.796875,-1.015625
1696248165706,-0.71728516,-0.039611816,0.81658936,-0.5,-0.1875,1.15625
1696248165748,-0.6496582,-0.034484863,0.7728882,-0.90625,1.46875,-1.484375
1696248165788,-0.63549805,-0.10357666,0.8473511,-1.46875,-1.53125,-0.96875
1696248165829,-0.70092773,-0.077697754,0.77386475,-1.1875,-1.484375,0.875
1696248165886,-0.6311035,-0.038879395,0.82489014,-0.96875,1.296875,0.03125
1696248165904,-0.7102051,-0.07159424,0.8373413,0.09375,-1.453125,-0.375
1696248165949,-0.6357422,-0.018371582,0.87957764,1.015625,-0.21875,-1.046875
1696248165986,-0.6940918,-0.046936035,0.8341675,1.40625,-1.375,1.390625
1696248166028,-0.6621094,-0.05670166,0.83148193,-0.390625,0.5,-0.109375
1696248166065,-0.6665039,-0.03643799,0.7850952,-1.875,0.921875,-0.359375
1696248166105,-0.6833496,-0.046936035,0.82318115,0.1875,-1.390625,0.765625
1696248166147,-0.6479492,-0.055725098,0.7821655,0.359375,-0.921875,1.640625
1696248166206,-0.6933594,-0.058898926,0.8192749,0.734375,-0.078125,0.734375
1696248166245,-0.6555176,-0.043029785,0.7460327,-0.078125,3.796875,-0.453125
1696248166285,-0.6928711,-0.038391113,0.92767334,2.03125,5.34375,0.375
1696248166304,-0.69873047,-0.051330566,0.90740967,-1.796875,-4.03125,0.8125
1696248166346,-0.65844727,-0.08746338,0.81829834,1.109375,0.078125,1.171875
1696248166386,-0.67456055,-0.035217285,0.83880615,-1.046875,1.03125,-0.578125
1696248166428,-0.592041,-0.043273926,0.81048584,2.140625,3.453125,-2.453125
1696248166467,-0.6323242,-0.0012817383,0.8510132,-0.515625,-0.375,-0.25
1696248166528,-0.6323242,-0.06890869,0.79803467,0.21875,0.125,1.5
1696248166544,-0.72631836,-0.09844971,0.9039917,0.421875,0.203125,1.40625
1696248166586,-0.6152344,-0.058410645,0.8456421,-0.109375,3.34375,-1.875
1696248166627,-0.7336426,-0.044006348,0.9291382,0.546875,-5.25,-0.046875
1696248166690,-0.6269531,-0.06085205,0.80584717,-0.09375,-1.734375,-1.03125
1696248166706,-0.69628906,-0.08428955,0.9039917,1.0625,-0.0625,1.96875
1696248166750,-0.62597656,-0.070129395,0.7819214,-0.9375,1.578125,-1.859375
1696248166787,-0.70410156,-0.003967285,0.9110718,-0.34375,-2.953125,0.53125
1696248166827,-0.5996094,-0.06060791,0.8041382,1.21875,-0.3125,0.484375
1696248166888,-0.7429199,-0.090148926,0.8637085,0.265625,-0.015625,1.53125
1696248166905,-0.5866699,-0.04034424,0.8217163,-0.3125,0.75,-1.90625
1696248166926,-0.70288086,-0.031066895,0.8444214,0.5,-1.484375,0.28125
1696248166967,-0.61987305,-0.05303955,0.84832764,1.1875,0.015625,0.125
1696248167006,-0.7060547,-0.07354736,0.83465576,0.078125,-0.34375,0.671875
1696248167045,-0.62890625,-0.055480957,0.8060913,-0.09375,0.484375,-0.4375
1696248167088,-0.6254883,-0.055725098,0.87908936,1.671875,0.09375,0.296875
1696248167126,-0.6665039,-0.054016113,0.80755615,-0.71875,-1.375,0.1875
1696248167167,-0.65405273,-0.07281494,0.854187,0.78125,0.015625,0.5625
1696248167209,-0.64941406,-0.054504395,0.8410034,-0.578125,-0.53125,-0.34375
1696248167246,-0.6464844,-0.04522705,0.8685913,1.140625,0.0,1.046875
1696248167287,-0.65527344,-0.081848145,0.822937,0.5,-0.921875,0.109375
1696248167328,-0.6616211,-0.03741455,0.8168335,0.0625,-3.546875,1.390625
1696248167367,-0.6652832,-0.06817627,0.81414795,0.375,-1.546875,1.078125
1696248167407,-0.6452637,-0.06817627,0.84661865,-0.890625,-1.5,-0.75
1696248167446,-0.67163086,-0.046203613,0.84906006,-1.390625,-1.46875,0.640625
1696248167488,-0.6748047,-0.08404541,0.9105835,-1.5,-2.640625,2.703125
1696248167527,-0.66503906,-0.00592041,0.7665405,-1.984375,-5.40625,0.578125
1696248167566,-0.6489258,-0.04449463,0.8168335,0.6875,-2.359375,-0.203125
1696248167606,-0.6647949,-0.06890869,0.80096436,0.515625,-1.265625,0.015625
1696248167646,-0.6616211,-0.06011963,0.8300171,0.109375,0.796875,-1.421875
1696248167689,-0.70288086,-0.049865723,0.86053467,-0.328125,-0.78125,1.140625
1696248167725,-0.6672363,-0.07476807,0.81048584,0.984375,-1.328125,1.171875
1696248167765,-0.66796875,-0.06427002,0.81829834,-0.375,-1.046875,-0.234375
1696248167808,-0.6442871,-0.04864502,0.77264404,1.28125,1.8125,-0.78125
1696248167847,-0.67944336,-0.02545166,0.8805542,-0.265625,1.296875,-0.859375
1696248167888,-0.6567383,-0.074279785,0.8883667,-1.390625,-1.15625,1.125
1696248167926,-0.6904297,-0.09234619,0.821228,-1.875,-1.71875,1.21875
1696248167964,-0.65771484,-0.020324707,0.81048584,-1.828125,-1.78125,-0.90625
1696248168006,-0.6381836,-0.03692627,0.7831421,0.96875,0.078125,-0.234375
1696248168044,-0.62768555,-0.05303955,0.8180542,0.796875,-2.484375,-0.96875
1696248168084,-0.67749023,-0.05718994,0.85028076,0.765625,-2.15625,2.0625
1696248168127,-0.7158203,-0.097717285,0.83709717,-1.4375,-4.109375,3.09375
1696248168165,-0.66674805,0.0072631836,0.7992554,-6.859375,-0.703125,-0.6875
1696248168206,-0.7023926,-0.028137207,0.81463623,-1.953125,-3.953125,-0.609375
1696248168225,-0.68603516,-0.07989502,0.7977905,1.859375,1.859375,-0.359375
1696248168266,-0.6994629,-0.058898926,0.89520264,1.4375,-0.125,-0.34375
1696248168306,-0.6845703,-0.05255127,0.8085327,-1.078125,-3.09375,1.625
1696248168368,-0.6921387,-0.046203613,0.8163452,-1.4375,-0.640625,0.484375
1696248168384,-0.6555176,-0.034240723,0.79119873,0.296875,-0.53125,-0.46875
1696248168429,-0.66967773,-0.038635254,0.8102417,1.640625,2.84375,-0.15625
1696248168466,-0.66796875,-0.038635254,0.8427124,1.9375,2.328125,0.0625
1696248168508,-0.6850586,-0.074523926,0.88446045,0.734375,-0.03125,1.421875
1696248168547,-0.69140625,-0.08135986,0.7965698,-1.3125,-2.328125,0.796875
1696248168585,-0.67407227,-0.024230957,0.81463623,-0.625,-0.78125,-0.59375
1696248168649,-0.67333984,-0.01373291,0.822937,0.5625,-1.15625,-0.59375
1696248168665,-0.68115234,-0.04156494,0.8522339,0.15625,-1.6875,0.15625
1696248168706,-0.70166016,-0.07476807,0.82366943,-1.328125,-1.578125,1.09375
1696248168748,-0.6804199,-0.06011963,0.81048584,-1.6875,-0.390625,0.46875
1696248168808,-0.65844727,-0.040100098,0.77923584,0.703125,0.109375,-0.140625
1696248168827,-0.66259766,-0.04840088,0.82366943,1.828125,0.5,-0.609375
1696248168866,-0.70214844,-0.023986816,0.8895874,-0.015625,1.40625,-0.171875
1696248168905,-0.68603516,-0.08404541,0.81121826,0.0625,-3.859375,2.5
1696248168970,-0.704834,-0.055480957,0.91693115,-5.96875,-1.390625,-1.59375
1696248169007,-0.6594238,-6.1035156E-5,0.6815796,1.734375,-2.890625,0.453125
1696248169046,-0.66259766,-0.031799316,0.79681396,2.875,-1.4375,-0.125
1696248169064,-0.6789551,-0.093811035,0.8114624,1.765625,-2.421875,-0.71875
1696248169106,-0.6750488,-0.0335083,0.838562,0.078125,0.625,0.09375
1696248169148,-0.70458984,-0.05303955,0.80511475,1.046875,-2.859375,1.59375
1696248169206,-0.69873047,-0.038146973,0.8029175,0.71875,-0.78125,0.359375
1696248169247,-0.6796875,-0.020080566,0.821228,1.390625,1.03125,-0.6875
1696248169266,-0.73291016,-0.0635376,0.87957764,1.28125,0.28125,0.46875
1696248169304,-0.68652344,-0.13067627,0.8239136,-0.609375,-2.1875,1.703125
1696248169344,-0.6899414,-0.05328369,0.8505249,-6.734375,0.703125,-0.609375
1696248169407,-0.7167969,0.020690918,0.7821655,0.0,-5.84375,0.265625
1696248169426,-0.5854492,-0.0178833,0.6967163,1.984375,-1.90625,-0.3125
1696248169468,-0.6586914,-0.04449463,0.6901245,5.0,1.46875,0.8125
1696248169507,-0.7285156,-0.085998535,0.8600464,7.875,3.234375,1.15625
1696248169546,-0.69140625,-0.094055176,0.9122925,3.875,2.359375,2.21875
1696248169565,-0.7043457,-0.105285645,0.8029175,-2.46875,-1.765625,2.390625
1696248169605,-0.7192383,-0.012268066,0.840271,-1.640625,-0.375,-1.609375
1696248169648,-0.72875977,-0.014953613,0.7872925,-0.6875,1.78125,-0.8125
1696248169686,-0.68603516,-0.022766113,0.91156006,2.03125,8.421875,-2.53125
1696248169726,-0.6308594,-0.11968994,0.91986084,1.203125,4.25,0.453125
1696248169766,-0.72680664,-0.128479,0.8341675,-3.359375,-2.671875,3.9375
1696248169807,-0.6376953,-0.07281494,0.8319702,-1.03125,0.453125,-0.296875
1696248169846,-0.703125,-0.050109863,0.78948975,-1.875,0.328125,-1.984375
1696248169888,-0.58813477,-0.008605957,0.7868042,0.609375,4.953125,-1.484375
1696248169926,-0.7734375,-0.08306885,0.9689331,-3.453125,-5.265625,0.140625
1696248169966,-0.6164551,-0.06695557,0.8410034,-1.046875,-0.609375,-0.625
1696248170005,-0.751709,-0.061828613,0.88812256,-0.046875,1.265625,0.6875
1696248170047,-0.6201172,-0.08843994,0.8114624,0.28125,-0.515625,-1.375
1696248170088,-0.6940918,-0.018615723,0.77459717,0.625,-0.578125,1.15625
1696248170126,-0.6027832,-0.06085205,0.8209839,1.46875,0.0,-1.140625
1696248170168,-0.69262695,-0.057678223,0.8554077,-0.34375,-0.453125,1.453125
1696248170205,-0.68896484,-0.038635254,0.83465576,-0.09375,-1.0625,-0.1875
1696248170248,-0.6694336,-0.051574707,0.8497925,-0.3125,-0.828125,0.390625
1696248170288,-0.6809082,-0.06719971,0.854187,-0.28125,-2.5,0.671875
1696248170327,-0.6533203,-0.085998535,0.78656006,-1.21875,-0.25,-0.09375
1696248170365,-0.67089844,-0.050598145,0.8251343,-0.703125,-0.71875,-0.078125
1696248170409,-0.6682129,-0.0491333,0.84295654,-0.03125,-0.875,0.3125
1696248170445,-0.6796875,-0.04083252,0.82684326,0.453125,-0.921875,0.984375
1696248170485,-0.67749023,-0.06329346,0.81951904,-0.046875,-2.390625,1.046875
1696248170524,-0.66674805,-0.05621338,0.83514404,-0.46875,-2.015625,0.015625
1696248170564,-0.67626953,-0.062072754,0.82440186,0.796875,-0.53125,0.484375
1696248170604,-0.67163086,-0.054748535,0.81073,-0.265625,-0.390625,-0.328125
1696248170644,-0.67407227,-0.057678223,0.84246826,0.1875,0.4375,-0.109375
1696248170684,-0.69555664,-0.051330566,0.8649292,-0.5625,-0.984375,0.3125
1696248170724,-0.7006836,-0.0869751,0.8468628,0.484375,-3.0,2.0625
1696248170764,-0.6291504,-0.07989502,0.9086304,-6.484375,1.625,-0.25
1696248170804,-0.7265625,-0.0134887695,0.855896,-7.015625,-6.09375,1.453125
1696248170864,-0.69384766,-0.0725708,0.70428467,7.796875,-7.828125,1.125
1696248170866,-0.6503906,-0.0154418945,0.78167725,-0.484375,0.171875,-1.34375
1696248170905,-0.67700195,-0.028381348,0.72283936,4.671875,-2.140625,1.1875
1696248170988,-0.6772461,-0.10211182,0.80999756,6.6875,-3.28125,2.140625
1696248170993,-0.67211914,-0.062072754,0.91033936,1.890625,3.421875,0.296875
1696248171025,-0.72802734,-0.11016846,0.7880249,0.09375,-5.015625,3.015625
1696248171067,-0.72143555,-0.035949707,0.82977295,-3.921875,1.671875,-1.828125
1696248171127,-0.7001953,0.01361084,0.8012085,0.328125,-0.03125,0.65625
1696248171145,-0.67871094,-0.08795166,0.8278198,1.03125,0.78125,-1.203125
1696248171185,-0.7109375,-0.109436035,0.8722534,0.625,2.5625,1.875
1696248171225,-0.66748047,-0.09234619,0.7797241,-1.21875,-0.046875,0.125
1696248171272,-0.6555176,-0.05255127,0.8126831,-0.703125,2.875,-0.578125
1696248171307,-0.6760254,-0.024230957,0.7518921,-1.453125,2.734375,-0.296875
1696248171348,-0.6340332,-0.01739502,0.85321045,1.75,8.140625,-0.9375
1696248171387,-0.71313477,-0.11431885,0.96380615,1.609375,-1.40625,3.828125
1696248171427,-0.7084961,-0.08648682,0.7772827,-3.46875,-0.3125,0.6875
1696248171469,-0.67822266,-0.034973145,0.87127686,-0.953125,1.953125,-0.9375
1696248171528,-0.6574707,-0.05596924,0.8222046,0.359375,1.609375,-2.484375
1696248171545,-0.67211914,-0.06549072,0.8649292,-2.1875,-2.5,0.515625
1696248171585,-0.6118164,-0.050842285,0.79852295,0.9375,-1.953125,-0.171875
1696248171628,-0.70043945,-0.09259033,0.8463745,0.625,0.3125,0.5
1696248171667,-0.67700195,-0.06109619,0.84295654,-1.0625,-2.375,0.25
1696248171705,-0.7224121,-0.07183838,0.8759155,-4.71875,-4.796875,0.625
1696248171746,-0.6542969,-0.0044555664,0.7872925,0.078125,-5.328125,-0.203125
1696248171806,-0.6640625,-0.05596924,0.80755615,0.9375,-1.96875,0.453125
1696248171846,-0.7104492,-0.062561035,0.8070679,0.671875,-2.015625,-0.21875
1696248171865,-0.66064453,-0.059143066,0.79315186,-0.21875,-0.203125,-0.375
1696248171906,-0.66967773,-0.04547119,0.8161011,0.40625,-1.5625,0.234375
1696248171945,-0.70532227,-0.0569458,0.8317261,1.046875,-0.828125,1.53125
1696248171989,-0.70654297,-0.054260254,0.8173218,0.875,-1.953125,0.703125
1696248172049,-0.6933594,-0.054992676,0.83587646,-0.125,-1.328125,-0.03125
1696248172064,-0.69506836,-0.08428955,0.8493042,0.578125,-2.171875,0.03125
1696248172105,-0.7116699,-0.09625244,0.88616943,-0.65625,-1.59375,1.3125
1696248172169,-0.7026367,-0.06549072,0.86102295,-9.53125,4.625,1.546875
1696248172185,-0.70458984,-0.0064086914,0.7731323,-6.96875,-0.375,-0.109375
1696248172206,-0.5966797,-0.039855957,0.7255249,-0.765625,-0.015625,-1.5625
1696248172247,-0.64208984,-0.0154418945,0.71429443,0.40625,-1.171875,0.359375
1696248172286,-0.69799805,-0.07501221,0.83099365,4.34375,-1.5,0.28125
1696248172325,-0.7312012,-0.11383057,0.883728,1.859375,-0.609375,1.328125
1696248172366,-0.6875,-0.0635376,0.7797241,-1.6875,-0.59375,1.625
1696248172406,-0.7285156,-0.014709473,0.8200073,0.375,-2.078125,0.0
1696248172447,-0.6936035,-0.029846191,0.82684326,1.140625,-0.5,-0.796875
1696248172487,-0.64404297,-0.054504395,0.81170654,0.53125,-1.828125,-1.03125
1696248172529,-0.69189453,-0.07159424,0.8810425,0.875,-0.15625,0.671875
1696248172568,-0.7277832,-0.144104,0.8287964,0.125,-2.3125,3.5
1696248172607,-0.6765137,-0.06060791,0.8134155,-4.328125,3.25,0.953125
1696248172646,-0.66918945,0.02532959,0.7445679,-0.375,-3.453125,-0.390625
1696248172688,-0.654541,0.032409668,0.7538452,4.0625,-1.765625,-0.421875
1696248172726,-0.6862793,-0.0635376,0.78045654,7.328125,-1.453125,2.046875
1696248172768,-0.6965332,-0.13189697,0.8341675,3.578125,-3.140625,2.203125
1696248172806,-0.6906738,-0.1026001,0.8720093,-2.421875,1.328125,0.515625
1696248172846,-0.74975586,-0.09503174,0.76312256,1.5625,-4.5625,4.046875
1696248172887,-0.7121582,-0.03643799,0.86151123,-3.59375,0.328125,-2.703125
1696248172925,-0.6442871,0.059265137,0.7340698,-0.328125,1.640625,-1.578125
1696248172968,-0.6604004,-0.024719238,0.73065186,4.734375,-3.484375,0.03125
1696248173006,-0.6843262,-0.10601807,0.8329468,3.890625,3.109375,-0.578125
1696248173044,-0.71191406,-0.13970947,0.8734741,2.328125,3.296875,1.625
1696248173088,-0.68896484,-0.14068604,0.7987671,-0.484375,-0.046875,3.234375
1696248173125,-0.6779785,-0.018615723,0.7597046,-3.265625,6.328125,2.390625
1696248173168,-0.66552734,-0.034729004,0.86590576,0.40625,3.3125,-0.765625
1696248173207,-0.7458496,-0.081848145,0.8773804,-1.40625,0.921875,-1.0
1696248173246,-0.6816406,-0.06085205,0.7831421,-0.71875,1.203125,0.765625
1696248173284,-0.720459,-0.09503174,0.868103,-2.078125,0.125,-1.65625
1696248173325,-0.6567383,-0.08282471,0.8283081,-0.65625,0.234375,-0.09375
1696248173367,-0.64404297,-0.08331299,0.81707764,-0.8125,-2.71875,0.140625
1696248173406,-0.671875,-0.04840088,0.8644409,-3.59375,-4.671875,-0.75
1696248173449,-0.6821289,-0.054748535,0.79730225,0.984375,-6.921875,1.28125
1696248173486,-0.6936035,-0.04058838,0.7770386,1.828125,-5.765625,0.1875
1696248173505,-0.7067871,-0.109191895,0.88031006,1.640625,-4.703125,0.203125
1696248173546,-0.717041,-0.11505127,0.82440186,-4.296875,0.734375,-0.109375
1696248173586,-0.75146484,-0.05718994,0.78948975,-8.234375,3.078125,-1.0625
1696248173627,-0.65356445,0.0060424805,0.743103,-1.578125,0.03125,-2.734375
1696248173687,-0.6413574,0.018249512,0.7316284,2.90625,-0.015625,-0.421875
1696248173706,-0.68774414,-0.06011963,0.7782593,8.90625,-2.984375,1.0625
1696248173745,-0.67578125,-0.10797119,0.8546753,3.5,0.046875,0.75
1696248173809,-0.7348633,-0.11505127,0.91448975,-1.09375,-0.125,2.390625
1696248173826,-0.7277832,-0.09039307,0.8119507,-2.328125,-1.875,1.359375
1696248173887,-0.7102051,-0.0071411133,0.8522339,-5.21875,1.171875,-1.6875
1696248173926,-0.7092285,-0.005432129,0.76556396,-0.6875,-0.53125,-0.53125
1696248173965,-0.671875,-0.05718994,0.77508545,2.53125,-2.6875,0.640625
1696248173985,-0.69311523,-0.09429932,0.78826904,3.640625,-4.25,1.28125
1696248174027,-0.6984863,-0.10015869,0.80218506,2.328125,-2.3125,0.78125
1696248174067,-0.68774414,-0.07525635,0.84295654,-0.859375,3.515625,1.15625
1696248174106,-0.72436523,-0.06964111,0.85858154,-0.890625,1.265625,1.484375
1696248174146,-0.6994629,-0.047424316,0.8373413,-5.15625,3.234375,-0.734375
1696248174188,-0.76904297,-0.06768799,0.7731323,1.484375,-3.40625,-0.359375
1696248174226,-0.60180664,-0.006164551,0.7411499,3.203125,-2.234375,-1.984375
1696248174265,-0.68115234,-0.051086426,0.66156006,8.75,1.09375,0.78125
1696248174328,-0.6821289,-0.08673096,0.8890991,5.984375,4.1875,-1.90625
1696248174345,-0.66796875,-0.14434814,0.86590576,3.03125,4.4375,2.046875
1696248174388,-0.67944336,-0.13043213,0.7584839,-4.734375,1.15625,1.71875
1696248174446,-0.7182617,-0.024719238,0.85028076,-3.625,-1.421875,-0.109375
1696248174465,-0.7199707,-0.047668457,0.85321045,-1.0,-2.078125,-0.5625
1696248174507,-0.6906738,-0.058410645,0.8185425,-2.96875,-0.46875,-1.1875
1696248174566,-0.6352539,-0.078430176,0.84173584,-2.171875,1.828125,-0.171875
1696248174585,-0.64501953,-0.108947754,0.74871826,-1.53125,-1.078125,4.0625
1696248174626,-0.71850586,-0.05596924,0.81121826,-1.5,-0.578125,1.40625
1696248174667,-0.6633301,-0.046936035,0.7247925,0.6875,1.34375,-0.3125
1696248174729,-0.6516113,-0.039611816,0.8258667,2.015625,4.15625,-1.5625
1696248174770,-0.7324219,-0.13555908,0.8822632,1.28125,1.4375,2.15625
1696248174786,-0.7092285,-0.05621338,0.79803467,-0.78125,0.671875,-0.21875
1696248174804,-0.7182617,-0.061584473,0.871521,0.078125,2.6875,-0.375
1696248174846,-0.63671875,-0.055236816,0.791687,-1.46875,3.828125,-1.609375
1696248174887,-0.6711426,-0.08770752,0.93182373,0.265625,3.09375,1.25
1696248174926,-0.640625,-0.049865723,0.7296753,-3.609375,-2.234375,-1.359375
1696248174966,-0.6467285,-0.05645752,0.8629761,1.21875,1.109375,0.6875
1696248175006,-0.6977539,-0.09283447,0.8300171,-0.71875,-1.546875,-0.640625
1696248175047,-0.62768555,-0.057922363,0.8156128,-0.859375,1.859375,-0.640625
1696248175087,-0.6867676,-0.04937744,0.8607788,0.3125,0.53125,0.0625
1696248175125,-0.70288086,-0.07598877,0.8668823,-1.328125,-2.828125,-0.65625
1696248175167,-0.64404297,-0.06549072,0.80267334,-0.515625,-0.421875,-0.09375
1696248175208,-0.64575195,-0.07354736,0.83587646,0.015625,-1.390625,0.1875
1696248175247,-0.65356445,-0.054504395,0.83270264,0.890625,-3.25,1.21875
1696248175287,-0.69091797,-0.074035645,0.8629761,1.71875,-7.234375,1.65625
1696248175328,-0.6765137,-0.047912598,0.80389404,-0.484375,-5.65625,-0.75
1696248175368,-0.67993164,-0.078186035,0.8041382,1.015625,-0.71875,-0.28125
1696248175406,-0.6567383,-0.04522705,0.80511475,-0.4375,-0.59375,-1.234375
1696248175446,-0.69311523,-0.070373535,0.8361206,1.125,0.1875,0.578125
1696248175486,-0.6855469,-0.066467285,0.8143921,0.578125,-0.796875,0.71875
1696248175525,-0.6833496,-0.07159424,0.8348999,0.234375,1.8125,0.453125
1696248175566,-0.67285156,-0.058410645,0.8085327,-0.671875,1.515625,0.09375
1696248175607,-0.66796875,-0.07305908,0.8312378,-0.328125,2.8125,-0.125
1696248175646,-0.68725586,-0.06500244,0.7770386,-1.9375,3.796875,0.828125
1696248175689,-0.5957031,-0.07086182,0.8734741,-2.71875,7.75,-2.984375
1696248175726,-0.73413086,-0.038635254,0.92645264,-1.25,-3.078125,1.234375
1696248175770,-0.63256836,-0.039123535,0.80804443,0.4375,-0.328125,0.5625
1696248175806,-0.7036133,-0.09210205,0.8361206,0.03125,0.53125,0.265625
1696248175845,-0.64282227,-0.04107666,0.84490967,-0.53125,0.390625,-0.796875
1696248175885,-0.65356445,-0.05987549,0.79559326,0.34375,0.359375,1.609375
1696248175927,-0.6154785,-0.050354004,0.868103,0.390625,2.625,-0.59375
1696248175967,-0.7180176,-0.07598877,0.8829956,-0.6875,-2.046875,-0.046875
1696248176007,-0.5852051,-0.062561035,0.79852295,0.3125,0.78125,0.53125
1696248176047,-0.7480469,-0.07891846,0.83587646,0.0625,-1.1875,1.28125
1696248176086,-0.5554199,-0.057922363,0.8317261,-0.71875,0.40625,-2.140625
1696248176125,-0.7211914,-0.04425049,0.9232788,0.578125,-3.640625,1.171875
1696248176146,-0.6274414,-0.051330566,0.8283081,0.328125,-0.734375,0.515625
1696248176188,-0.71240234,-0.06964111,0.8768921,0.625,0.140625,0.0
1696248176228,-0.6152344,-0.06890869,0.8324585,0.21875,-1.40625,0.1875
1696248176285,-0.685791,-0.050109863,0.83807373,-0.21875,-3.390625,0.640625
1696248176305,-0.64624023,-0.059143066,0.8739624,0.453125,-3.640625,-0.375
1696248176369,-0.67626953,-0.05328369,0.8200073,-1.203125,-6.28125,0.265625
1696248176385,-0.67333984,-0.043518066,0.7929077,0.28125,-0.46875,0.171875
1696248176428,-0.6633301,-0.03692627,0.8241577,0.96875,-1.53125,-0.390625
1696248176486,-0.66064453,-0.06842041,0.8187866,0.765625,-2.0,1.015625
1696248176505,-0.68896484,-0.06402588,0.86102295,0.703125,-1.078125,1.28125
1696248176547,-0.70410156,-0.066711426,0.824646,-1.125,-2.53125,0.0
1696248176586,-0.6711426,-0.06768799,0.84661865,0.359375,-1.78125,0.734375
1696248176627,-0.6994629,-0.06500244,0.8529663,-0.671875,-2.0,1.359375
1696248176670,-0.6713867,-0.08892822,0.8602905,0.125,-2.78125,1.953125
1696248176706,-0.68408203,-0.082336426,0.83270264,-0.484375,-4.625,3.46875
1696248176747,-0.6738281,-0.06573486,0.75115967,-2.390625,-2.28125,1.640625
1696248176809,-0.65112305,-0.012023926,0.7711792,-2.453125,-0.5,-1.109375
1696248176825,-0.7175293,-0.06890869,0.80926514,1.53125,-1.71875,1.078125
1696248176869,-0.6765137,-0.081848145,0.7785034,0.640625,-1.8125,0.359375
1696248176906,-0.7097168,-0.062561035,0.795105,5.375,-1.4375,1.0
1696248176948,-0.72021484,-0.07696533,0.8331909,5.125,0.0,1.859375
1696248176988,-0.7167969,-0.08306885,0.84246826,2.84375,2.859375,1.96875
1696248177050,-0.6923828,-0.09234619,0.77142334,-2.46875,5.921875,-0.75
1696248177067,-0.60595703,-0.0713501,0.8786011,-1.234375,6.46875,-1.9375
1696248177107,-0.7121582,-0.07891846,0.8607788,-1.046875,-1.25,0.328125
1696248177168,-0.6657715,-0.097473145,0.7963257,-0.703125,-1.75,0.0
1696248177185,-0.6677246,-0.07598877,0.8444214,0.15625,-4.875,-1.765625
1696248177228,-0.6882324,-0.06524658,0.7850952,-1.375,-5.53125,-0.40625
1696248177288,-0.67211914,-0.06549072,0.78460693,1.4375,-4.578125,0.546875
1696248177305,-0.69433594,-0.09088135,0.7860718,0.25,-0.078125,-0.9375
1696248177346,-0.68115234,-0.062805176,0.7628784,0.90625,4.4375,0.3125
1696248177386,-0.6765137,-0.06793213,0.83221436,-0.15625,3.078125,-0.75
1696248177446,-0.6916504,-0.10064697,0.8690796,-0.65625,3.078125,-0.25
1696248177466,-0.71533203,-0.054016113,0.8685913,-0.96875,-0.3125,0.96875
1696248177485,-0.6723633,-0.07623291,0.840271,0.171875,-2.328125,0.84375
1696248177526,-0.6945801,-0.085754395,0.9135132,-3.1875,-3.046875,-0.28125
1696248177569,-0.68408203,-0.050598145,0.8344116,-7.0,-6.28125,0.984375
1696248177606,-0.670166,-0.057434082,0.77264404,-4.703125,-5.421875,0.796875
1696248177648,-0.6904297,-0.07647705,0.7609253,-4.28125,-1.828125,-0.265625
1696248177686,-0.7050781,-0.045959473,0.7640991,-4.40625,1.375,-0.828125
1696248177726,-0.673584,0.0040893555,0.75946045,-0.78125,-0.21875,-1.546875
1696248177765,-0.65844727,6.713867E-4,0.76678467,3.65625,-2.1875,-0.328125
1696248177805,-0.7363281,-0.06500244,0.7807007,11.171875,-5.0,2.59375
1696248177850,-0.68652344,-0.09698486,0.8451538,8.40625,-2.65625,1.25
1696248177888,-0.7062988,-0.09454346,0.7887573,1.84375,4.46875,-0.75
1696248177930,-0.6586914,-0.031799316,0.8632202,0.71875,4.546875,-1.375
1696248177966,-0.7150879,-0.074279785,0.871521,-0.671875,-3.578125,1.109375
1696248178007,-0.7102051,-0.08770752,0.7953491,-3.3125,0.515625,1.015625
1696248178048,-0.70996094,-0.06719971,0.80096436,-1.15625,-2.078125,-0.625
1696248178089,-0.6879883,-0.050109863,0.79315186,1.171875,-1.40625,-0.890625
1696248178126,-0.67944336,-0.06964111,0.7575073,1.15625,-2.375,-0.125
1696248178168,-0.689209,-0.06500244,0.8119507,-0.03125,3.140625,-0.46875
1696248178208,-0.70043945,-0.06866455,0.83880615,0.484375,2.46875,0.015625
1696248178247,-0.6904297,-0.10699463,0.82977295,-2.046875,-0.609375,2.34375
1696248178287,-0.72265625,-0.105773926,0.885437,-1.859375,-0.3125,1.5625
1696248178327,-0.70410156,-0.039611816,0.8629761,-6.234375,-0.515625,-0.265625
1696248178367,-0.71484375,-0.065979004,0.8258667,-3.6875,-2.40625,2.421875
1696248178408,-0.71850586,-0.08087158,0.7399292,-3.796875,-1.4375,1.3125
1696248178448,-0.66430664,-0.006652832,0.70355225,-0.9375,0.375,-0.078125
1696248178487,-0.64697266,-0.03375244,0.74432373,3.578125,-2.546875,-1.703125
1696248178526,-0.6804199,-0.078186035,0.72528076,8.96875,-3.90625,0.9375
1696248178567,-0.7207031,-0.07965088,0.838562,7.59375,-3.390625,1.421875
1696248178608,-0.72509766,-0.094055176,0.8226929,1.234375,4.796875,-2.015625
1696248178647,-0.7038574,-0.053527832,0.88079834,0.0625,4.828125,-0.46875
1696248178690,-0.72875977,-0.10211182,0.88983154,-2.1875,-0.859375,-0.140625
1696248178727,-0.65649414,-0.12677002,0.8217163,-2.328125,3.1875,0.765625
1696248178765,-0.7128906,-0.109680176,0.84173584,-3.265625,-2.765625,0.875
1696248178786,-0.6906738,-0.054992676,0.83026123,-6.40625,-2.703125,-1.234375
1696248178846,-0.7145996,-0.07574463,0.76116943,-4.875,-1.421875,2.34375
1696248178866,-0.70532227,-0.05255127,0.72772217,-4.8125,-0.484375,0.71875
1696248178906,-0.6801758,0.003112793,0.7567749,1.765625,-1.65625,-0.4375
1696248178945,-0.66967773,0.0045776367,0.78778076,5.625,-2.53125,-1.171875
1696248178986,-0.7385254,-0.07623291,0.7716675,11.375,-5.21875,0.921875
1696248179025,-0.7294922,-0.12335205,0.76434326,6.328125,0.96875,0.5
1696248179066,-0.5830078,-0.085754395,0.8776245,0.796875,10.15625,-5.4375
1696248179106,-0.7434082,-0.07672119,0.8710327,1.5625,-1.265625,1.578125
1696248179146,-0.66552734,-0.04840088,0.7885132,-2.65625,1.125,-0.109375
1696248179206,-0.7182617,-0.06939697,0.80218506,-2.25,4.53125,0.3125
1696248179225,-0.65527344,-0.08526611,0.8578491,-3.546875,1.765625,-2.3125
1696248179266,-0.7573242,-0.101867676,0.8607788,-7.828125,-0.984375,-0.796875
1696248179306,-0.5854492,-0.043518066,0.74554443,-1.984375,4.1875,0.09375
1696248179370,-0.7421875,-0.0335083,0.82366943,-0.5,4.21875,1.421875
1696248179386,-0.6394043,-0.06085205,0.78778076,0.609375,2.90625,-1.078125
1696248179427,-0.72631836,-0.10064697,0.91082764,0.390625,0.84375,1.4375
1696248179489,-0.59936523,-0.011047363,0.69818115,-0.703125,1.0625,-2.25
1696248179505,-0.75,-0.06451416,0.9515991,1.375,2.46875,2.609375
1696248179567,-0.63549805,-0.09039307,0.7711792,-0.171875,-0.078125,-0.859375
1696248179584,-0.66748047,-0.042297363,0.8209839,-0.96875,1.953125,0.875
1696248179626,-0.6359863,-0.04522705,0.86151123,0.046875,-2.171875,-0.859375
1696248179666,-0.68774414,-0.05279541,0.8151245,-0.09375,-1.4375,0.90625
1696248179707,-0.6779785,-0.066467285,0.86468506,1.28125,-1.328125,-0.03125
1696248179747,-0.67407227,-0.06549072,0.8180542,1.453125,-1.5625,1.15625
1696248179786,-0.64941406,-0.062561035,0.8275757,1.5625,-1.609375,0.84375
1696248179825,-0.68188477,-0.06036377,0.8451538,0.5,0.109375,0.40625
1696248179868,-0.66845703,-0.06939697,0.8065796,-0.46875,0.4375,0.671875
1696248179909,-0.67333984,-0.058654785,0.81903076,1.5625,0.84375,1.109375
1696248179969,-0.6687012,-0.073791504,0.8468628,1.765625,0.9375,1.046875
1696248179985,-0.6586914,-0.07647705,0.8041382,0.75,0.375,0.40625
1696248180046,-0.6538086,-0.07330322,0.81292725,0.203125,1.890625,0.328125
1696248180065,-0.6369629,-0.06549072,0.84906006,-2.640625,5.140625,0.03125
1696248180086,-0.70825195,-0.08306885,0.89715576,-0.984375,-1.734375,1.3125
1696248180126,-0.60302734,-0.065979004,0.77679443,0.25,1.625,-0.25
1696248180164,-0.7128906,-0.055480957,0.87371826,0.109375,0.421875,1.296875
1696248180208,-0.59472656,-0.08380127,0.82733154,-0.671875,2.171875,-1.734375
1696248180247,-0.76293945,-0.06695557,0.91400146,-0.703125,-3.5625,1.671875
1696248180285,-0.59765625,-0.062805176,0.8192749,-0.046875,-1.5625,-0.71875
1696248180327,-0.71313477,-0.10211182,0.8673706,1.0625,0.171875,1.21875
1696248180366,-0.62841797,-0.02911377,0.8485718,0.875,-1.015625,-0.8125
1696248180406,-0.6921387,-0.078430176,0.8546753,1.15625,1.46875,0.8125
1696248180446,-0.6298828,-0.0791626,0.8588257,0.203125,1.90625,-0.609375
1696248180487,-0.6340332,-0.043762207,0.80682373,0.046875,1.484375,-1.109375
1696248180526,-0.70336914,-0.08892822,0.8866577,-1.09375,-2.6875,0.3125
1696248180566,-0.6179199,-0.05230713,0.80511475,0.96875,-1.1875,-0.25
1696248180606,-0.6894531,-0.08917236,0.87542725,-0.609375,0.625,1.296875
1696248180646,-0.5944824,-0.06402588,0.83929443,-0.265625,-0.28125,-0.84375
1696248180687,-0.6958008,-0.062072754,0.8446655,0.328125,-1.09375,0.796875
1696248180728,-0.63378906,-0.054992676,0.84832764,0.046875,-0.765625,0.296875
1696248180767,-0.6706543,-0.09039307,0.8383179,-0.671875,-0.5,0.125
1696248180809,-0.640625,-0.06109619,0.8649292,-0.015625,-1.890625,-0.84375
1696248180845,-0.6501465,-0.081848145,0.7897339,0.5625,-5.09375,0.421875
1696248180887,-0.6550293,-0.050842285,0.8517456,0.953125,-3.109375,-0.015625
1696248180928,-0.67285156,-0.085998535,0.83343506,1.890625,-0.171875,0.796875
1696248180966,-0.64819336,-0.0491333,0.7994995,-0.3125,0.671875,-0.078125
1696248181009,-0.65771484,-0.06304932,0.8497925,0.921875,0.40625,0.796875
1696248181046,-0.65283203,-0.08795166,0.8485718,-0.390625,0.1875,0.125
1696248181087,-0.6633301,-0.06695557,0.840271,-0.375,0.125,0.359375
1696248181132,-0.66015625,-0.062316895,0.8287964,-0.03125,-0.578125,0.203125
1696248181166,-0.66137695,-0.08062744,0.85687256,-0.234375,-1.015625,0.40625
1696248181206,-0.6623535,-0.07745361,0.8356323,-1.40625,-1.03125,0.0
1696248181247,-0.66430664,-0.059631348,0.83758545,-0.40625,-0.78125,-0.046875
1696248181290,-0.65063477,-0.061340332,0.82025146,-0.34375,0.046875,-0.109375
1696248181328,-0.64990234,-0.0791626,0.84368896,-0.734375,-0.28125,0.40625
1696248181366,-0.66137695,-0.07110596,0.8434448,-0.359375,-1.375,0.375
1696248181408,-0.67211914,-0.089660645,0.899353,-0.921875,-1.46875,1.28125
1696248181425,-0.67626953,-0.081604004,0.8878784,-5.53125,-4.15625,1.1875
1696248181466,-0.6586914,-0.03668213,0.7284546,0.171875,-2.671875,1.171875
1696248181508,-0.6179199,-0.022033691,0.81292725,0.9375,-1.6875,-1.59375
1696248181566,-0.69799805,-0.046447754,0.79022217,1.8125,-2.25,0.734375
1696248181585,-0.66137695,-0.08282471,0.8031616,1.546875,-1.546875,-0.46875
1696248181647,-0.6660156,-0.08453369,0.84417725,1.8125,-1.421875,0.34375
1696248181665,-0.7036133,-0.06109619,0.84588623,0.21875,-1.171875,0.140625
1696248181708,-0.7297363,-0.10797119,0.87786865,0.90625,-0.75,1.390625
1696248181749,-0.72558594,-0.08135986,0.883728,-2.53125,0.296875,0.515625
1696248181789,-0.6628418,-0.04498291,0.758728,-2.875,1.734375,-0.265625
1696248181825,-0.59399414,0.011169434,0.8016968,2.265625,-0.953125,0.109375
1696248181866,-0.6677246,-0.1104126,0.81048584,4.0625,-2.296875,-0.875
1696248181906,-0.65405273,-0.105041504,0.8031616,3.328125,-1.71875,0.515625
1696248181967,-0.6940918,-0.10015869,0.86346436,2.5,-0.015625,1.625
1696248182007,-0.65844727,-0.097961426,0.805603,0.1875,-1.796875,1.765625
1696248182047,-0.7109375,-0.05255127,0.8529663,0.09375,-1.765625,1.578125
1696248182087,-0.68530273,-0.050842285,0.8007202,0.515625,-0.171875,1.3125
1696248182105,-0.66967773,-0.040100098,0.7904663,2.6875,-2.59375,-0.15625
1696248182146,-0.6699219,-0.12652588,0.7741089,3.28125,1.46875,-0.171875
1696248182209,-0.64208984,-0.10699463,0.7692261,3.65625,2.484375,1.828125
1696248182227,-0.65185547,-0.11651611,0.8361206,1.046875,2.140625,-0.859375
1696248182265,-0.6789551,-0.10308838,0.8156128,-0.390625,1.8125,1.25
1696248182330,-0.66967773,-0.085754395,0.8776245,-0.921875,2.40625,-0.15625
1696248182345,-0.7270508,-0.10675049,0.8678589,-2.734375,-0.5,-0.171875
1696248182387,-0.63964844,-0.04815674,0.83758545,-0.25,-0.09375,-0.09375
1696248182426,-0.6916504,-0.113586426,0.8522339,0.515625,-1.390625,-0.390625
1696248182469,-0.64501953,-0.097961426,0.81585693,0.078125,-2.046875,-0.46875
1696248182505,-0.6635742,-0.09063721,0.82440186,0.375,-3.078125,0.390625
1696248182545,-0.68481445,-0.09844971,0.8473511,-1.921875,-4.734375,0.625
1696248182586,-0.6743164,-0.10089111,0.82147217,-4.34375,-5.0625,-0.53125
1696248182627,-0.6999512,-0.053771973,0.8300171,-2.875,-5.453125,0.078125
1696248182666,-0.71850586,-0.07891846,0.8139038,-1.25,-2.59375,0.625
1696248182728,-0.61206055,-0.049621582,0.7863159,1.890625,-1.1875,-0.390625
1696248182732,-0.67407227,-0.08868408,0.7538452,3.6875,-0.703125,-0.109375
1696248182767,-0.6894531,-0.086242676,0.774353,7.359375,1.421875,1.484375
1696248182806,-0.66015625,-0.117248535,0.82684326,1.28125,3.203125,-1.28125
1696248182846,-0.70751953,-0.055725098,0.8644409,0.25,5.578125,-0.234375
1696248182888,-0.7055664,-0.109680176,0.90448,0.75,0.421875,0.078125
1696248182927,-0.66552734,-0.10406494,0.83514404,-3.4375,-1.125,0.734375
1696248182968,-0.6789551,-0.07159424,0.8119507,-1.03125,-1.921875,0.21875
1696248183008,-0.6616211,-0.09259033,0.83465576,-0.015625,-0.921875,-0.5
1696248183052,-0.66259766,-0.085998535,0.8109741,0.546875,-1.203125,0.375
1696248183086,-0.6738281,-0.08648682,0.81170654,0.375,-2.484375,0.1875
1696248183127,-0.6845703,-0.09869385,0.8331909,0.59375,-1.234375,1.0625
1696248183168,-0.6972656,-0.10040283,0.8253784,-1.21875,-0.6875,1.25
1696248183206,-0.70288086,-0.090148926,0.85687256,-3.359375,-0.21875,0.828125
1696248183246,-0.68408203,-0.101135254,0.85272217,-2.734375,-1.5,0.296875
1696248183286,-0.7272949,-0.0869751,0.85443115,-1.875,-2.765625,0.53125
1696248183326,-0.6594238,-0.086242676,0.7338257,-0.84375,-1.75,-0.984375
1696248183371,-0.6154785,-0.012756348,0.7711792,1.234375,0.984375,-0.96875
1696248183406,-0.68115234,-0.07696533,0.74823,5.640625,-1.578125,0.546875
1696248183446,-0.6633301,-0.08648682,0.7741089,5.65625,0.125,1.328125
1696248183486,-0.6464844,-0.10723877,0.8554077,-0.890625,6.1875,-2.453125
1696248183526,-0.73999023,-0.105773926,0.89886475,0.671875,0.6875,0.640625
1696248183567,-0.6621094,-0.0803833,0.8444214,-1.375,0.046875,1.15625
1696248183607,-0.69384766,-0.11090088,0.8336792,-0.46875,-1.8125,0.234375
1696248183650,-0.6542969,-0.07745361,0.8036499,-0.453125,-0.8125,-0.484375
1696248183686,-0.67333984,-0.0869751,0.8265991,0.453125,-2.421875,-0.296875
1696248183727,-0.64282227,-0.09259033,0.8007202,-0.578125,-0.609375,-0.03125
1696248183766,-0.64819336,-0.08428955,0.8121948,-1.03125,1.375,0.96875
1696248183806,-0.7175293,-0.11016846,0.82489014,-0.421875,-1.21875,2.578125
1696248183846,-0.704834,-0.13336182,0.89178467,-2.765625,-0.21875,0.15625
1696248183886,-0.7294922,-0.08355713,0.8571167,-4.234375,-3.03125,-1.046875
1696248183927,-0.68359375,-0.05206299,0.7843628,-1.875,-0.1875,0.28125
1696248183969,-0.6191406,-0.013244629,0.7741089,1.40625,-0.453125,-0.125
1696248184048,-0.6777344,-0.11090088,0.7785034,1.890625,-1.21875,-0.4375
1696248184051,-0.6608887,-0.09136963,0.80340576,2.296875,-1.71875,0.4375
1696248184066,-0.65527344,-0.089416504,0.83709717,-0.03125,-0.671875,0.109375
1696248184109,-0.72216797,-0.12677002,0.84539795,0.75,-0.921875,2.875
1696248184150,-0.70947266,-0.09307861,0.8473511,-3.140625,-0.75,0.109375
1696248184187,-0.67089844,-0.026428223,0.7868042,-1.078125,0.375,-0.59375
1696248184228,-0.67700195,-0.06109619,0.8053589,2.5,-2.28125,0.71875
1696248184267,-0.66503906,-0.12432861,0.75457764,2.25,-0.546875,0.1875
1696248184327,-0.63964844,-0.10235596,0.82244873,1.96875,1.5,-0.765625
1696248184366,-0.68310547,-0.07086182,0.7748413,1.765625,2.015625,0.5625
1696248184408,-0.6713867,-0.081848145,0.8583374,2.65625,1.484375,1.40625
1696248184426,-0.6977539,-0.117004395,0.85491943,0.65625,1.234375,0.65625
1696248184466,-0.70532227,-0.081848145,0.836853,0.265625,1.765625,0.921875
1696248184528,-0.67700195,-0.07281494,0.83709717,-2.53125,5.109375,-1.59375
1696248184567,-0.6633301,-0.10723877,0.8764038,0.34375,2.3125,0.359375
1696248184585,-0.64331055,-0.1116333,0.84539795,-2.171875,-1.59375,0.515625
1696248184628,-0.6501465,-0.09625244,0.7953491,0.34375,-2.28125,1.015625
1696248184668,-0.6286621,-0.07550049,0.7938843,0.21875,-0.25,-0.015625
1696248184706,-0.63623047,-0.06378174,0.8366089,-1.9375,3.078125,-0.703125
1696248184747,-0.7019043,-0.077697754,0.8690796,-0.828125,0.421875,1.671875
1696248184810,-0.69189453,-0.11260986,0.8410034,-0.03125,-0.90625,0.984375
1696248184846,-0.67333984,-0.11602783,0.8703003,-0.0625,-0.796875,-0.015625
1696248184866,-0.6616211,-0.09869385,0.82855225,-0.875,-0.875,0.671875
1696248184929,-0.65771484,-0.089660645,0.8209839,-0.765625,-2.109375,0.984375
1696248184967,-0.6633301,-0.093322754,0.88031006,-2.140625,-5.90625,0.96875
1696248184985,-0.6875,-0.085998535,0.8341675,-4.1875,-6.375,-0.125
1696248185030,-0.76538086,-0.10308838,0.83099365,-2.09375,-4.25,-0.703125
1696248185069,-0.6608887,-0.08673096,0.8383179,-3.203125,0.1875,-2.046875
1696248185109,-0.62402344,-0.05645752,0.7987671,-0.96875,-3.28125,-1.953125
1696248185149,-0.66796875,-0.06329346,0.8222046,0.453125,-5.65625,-1.25
1696248185189,-0.6491699,-0.050598145,0.7567749,0.625,-1.109375,0.609375
1696248185226,-0.6875,-0.051330566,0.7706909,1.6875,-1.15625,1.890625
1696248185270,-0.6965332,-0.039855957,0.7572632,2.9375,2.75,1.734375
1696248185307,-0.6245117,-0.08062744,0.8378296,1.703125,5.625,-1.15625
1696248185348,-0.704834,-0.10064697,0.8649292,2.34375,1.375,0.625
1696248185365,-0.7089844,-0.11920166,0.8036499,0.265625,2.84375,-0.046875
1696248185406,-0.6567383,-0.055480957,0.8546753,-2.84375,7.265625,-0.96875
1696248185446,-0.66796875,-0.07647705,0.901062,1.234375,0.578125,-0.25
1696248185489,-0.67456055,-0.108947754,0.7741089,0.671875,0.859375,1.9375
1696248185526,-0.63305664,-0.07281494,0.8197632,-1.125,3.140625,-0.46875
1696248185569,-0.6447754,-0.08770752,0.8851929,1.0625,2.5625,0.296875
1696248185607,-0.6972656,-0.13140869,0.8463745,-2.125,-4.078125,0.765625
1696248185647,-0.6262207,-0.07672119,0.8036499,0.421875,3.171875,0.21875
1696248185688,-0.6657715,-0.077941895,0.8109741,-1.921875,5.5,0.65625
1696248185726,-0.6875,-0.12261963,0.92767334,-0.34375,-1.5625,0.0625
1696248185767,-0.5385742,-0.08282471,0.7670288,-0.75,0.609375,-0.875
1696248185807,-0.70703125,-0.061584473,0.9315796,-1.609375,0.203125,1.265625
1696248185846,-0.60913086,-0.09039307,0.83270264,0.4375,2.890625,-1.203125
1696248185888,-0.6940918,-0.06304932,0.9022827,-1.375,-4.671875,1.03125
1696248185929,-0.64038086,-0.08868408,0.8473511,0.6875,-0.703125,0.640625
1696248185966,-0.6970215,-0.09844971,0.9003296,-0.140625,0.71875,0.703125
1696248186007,-0.5949707,-0.065979004,0.82366943,-0.671875,-0.546875,-1.53125
1696248186070,-0.7167969,-0.08770752,0.8722534,0.203125,-1.140625,1.34375
1696248186086,-0.576416,-0.07574463,0.8131714,0.453125,0.875,-0.625
1696248186126,-0.6633301,-0.08917236,0.8275757,1.453125,0.890625,-0.125
1696248186167,-0.65527344,-0.074279785,0.87542725,-0.765625,-1.296875,-0.203125
1696248186206,-0.6699219,-0.0869751,0.8612671,-1.671875,-2.765625,1.453125
1696248186247,-0.6894531,-0.07867432,0.84295654,-1.6875,-4.265625,-0.0625
1696248186288,-0.6333008,-0.08331299,0.8317261,-1.625,-0.296875,0.171875
1696248186327,-0.6328125,-0.054748535,0.83465576,-0.96875,-1.375,-0.828125
1696248186367,-0.6491699,-0.07086182,0.83758545,-0.875,-1.875,-0.25
1696248186407,-0.6899414,-0.0725708,0.8475952,-1.0625,-2.765625,0.09375
1696248186448,-0.66308594,-0.082092285,0.8703003,-1.6875,-2.578125,0.921875
1696248186488,-0.67749023,-0.06304932,0.836853,-2.265625,-2.703125,2.046875
1696248186528,-0.67089844,-0.06329346,0.7860718,0.734375,-1.53125,1.125
1696248186567,-0.63720703,-0.08062744,0.8226929,1.296875,-2.359375,0.03125
1696248186607,-0.6635742,-0.078186035,0.8290405,1.875,-1.484375,-0.015625
1696248186648,-0.6621094,-0.06890869,0.80633545,2.671875,-0.03125,-0.09375
1696248186667,-0.6706543,-0.057922363,0.8048706,3.21875,0.15625,0.375
1696248186705,-0.67626953,-0.089904785,0.8156128,2.15625,1.015625,1.453125
1696248186748,-0.5966797,-0.074035645,0.8654175,-1.953125,3.78125,-1.359375
1696248186787,-0.7373047,-0.07598877,0.83392334,-0.484375,-1.796875,1.203125
1696248186827,-0.6672363,-0.10357666,0.8588257,0.515625,0.640625,0.1875
1696248186866,-0.70532227,-0.089416504,0.79119873,-1.03125,1.734375,0.234375
1696248186908,-0.58496094,-0.061584473,0.83807373,-0.4375,2.921875,-0.3125
1696248186967,-0.7297363,-0.089660645,0.8578491,-1.8125,-4.046875,1.640625
1696248186986,-0.61450195,-0.105285645,0.8410034,0.640625,1.140625,-0.578125
1696248187025,-0.72509766,-0.07354736,0.86883545,-0.9375,-1.5625,-0.234375
1696248187086,-0.5998535,-0.06573486,0.84002686,-0.109375,-0.3125,-0.046875
1696248187105,-0.67578125,-0.074523926,0.8512573,-0.625,-1.390625,1.3125
1696248187146,-0.6513672,-0.10650635,0.8722534,-1.296875,-4.046875,-0.296875
1696248187187,-0.70214844,-0.07208252,0.7863159,-2.59375,-6.125,-0.59375
1696248187227,-0.6594238,-0.050109863,0.80804443,0.5625,-2.359375,-0.03125
1696248187266,-0.6928711,-0.08477783,0.8395386,-0.4375,-3.046875,0.40625
1696248187306,-0.640625,-0.07110596,0.8270874,-2.96875,-2.25,-0.046875
1696248187347,-0.6777344,-0.06500244,0.86102295,-2.53125,-5.0,1.625
1696248187387,-0.7163086,-0.074279785,0.83221436,-4.46875,-3.703125,0.171875
1696248187428,-0.7141113,-0.066711426,0.84490967,-2.6875,-1.75,0.984375
1696248187466,-0.70043945,-0.070617676,0.8353882,0.421875,-4.53125,0.875
1696248187507,-0.64086914,-0.06890869,0.75946045,-0.921875,-1.078125,-0.875
1696248187549,-0.6520996,-0.030578613,0.7909546,1.515625,-0.09375,0.265625
1696248187589,-0.67944336,-0.05645752,0.76068115,4.828125,-1.703125,0.78125
1696248187626,-0.70581055,-0.06378174,0.8082886,2.796875,-1.453125,-0.03125
1696248187668,-0.7019043,-0.08087158,0.8312378,3.1875,-0.453125,0.96875
1696248187708,-0.69384766,-0.085998535,0.8612671,-0.71875,1.265625,0.671875
1696248187747,-0.7312012,-0.11529541,0.82855225,-0.84375,-2.453125,1.328125
1696248187786,-0.69750977,-0.101623535,0.83636475,-5.40625,1.4375,-1.109375
1696248187826,-0.70581055,-0.06402588,0.8678589,-3.21875,-0.421875,-1.703125
1696248187867,-0.7019043,-0.061584473,0.774353,-1.21875,-3.21875,-0.875
1696248187907,-0.66137695,-0.014953613,0.7601929,0.3125,-2.78125,-0.421875
1696248187946,-0.6140137,-0.017150879,0.7411499,2.921875,-2.09375,0.515625
1696248187988,-0.7080078,-0.070373535,0.77386475,3.8125,-2.4375,1.53125
1696248188006,-0.6657715,-0.0803833,0.77801514,3.15625,-0.5625,1.453125
1696248188049,-0.7175293,-0.059387207,0.7687378,2.640625,0.28125,0.59375
1696248188086,-0.66625977,-0.0647583,0.87615967,1.015625,2.921875,-2.359375
1696248188128,-0.75927734,-0.09820557,0.852478,-0.359375,0.859375,2.015625
1696248188168,-0.72680664,-0.0947876,0.8410034,-2.859375,-1.078125,-0.234375
1696248188208,-0.6960449,-0.113342285,0.824646,-2.1875,-1.609375,0.671875
1696248188246,-0.67749023,-0.06011963,0.8290405,-4.515625,-1.453125,-1.734375
1696248188289,-0.6845703,-0.055236816,0.81170654,-4.859375,-2.984375,-1.046875
1696248188347,-0.70874023,-0.05303955,0.78460693,-3.34375,-0.921875,-0.03125
1696248188366,-0.71484375,-0.06964111,0.7904663,-2.21875,0.359375,0.671875
1696248188407,-0.6767578,-0.039367676,0.7892456,-2.328125,1.234375,0.265625
1696248188446,-0.69384766,-0.026428223,0.8012085,-0.09375,0.203125,-0.0625
1696248188489,-0.68774414,-0.0569458,0.80999756,1.0,-0.265625,0.140625
1696248188526,-0.6894531,-0.05596924,0.8085327,0.515625,-0.984375,0.1875
1696248188567,-0.69921875,-0.049621582,0.80218506,-0.578125,-0.203125,0.421875
1696248188606,-0.6850586,-0.06109619,0.81121826,0.671875,-0.9375,0.53125
1696248188647,-0.68603516,-0.05987549,0.8029175,0.40625,-1.46875,0.8125
1696248188689,-0.6940918,-0.051086426,0.80682373,0.125,-1.53125,0.65625
1696248188726,-0.701416,-0.042541504,0.8082886,0.046875,-1.328125,0.609375
1696248188767,-0.71362305,-0.055236816,0.8175659,0.203125,-1.234375,0.921875
1696248188808,-0.69677734,-0.07501221,0.79730225,-1.5,0.984375,0.375
1696248188846,-0.69555664,-0.06304932,0.776062,-1.75,0.140625,0.484375
1696248188890,-0.69677734,-0.05206299,0.81365967,-0.921875,0.0625,0.3125
1696248188926,-0.6906738,-0.053527832,0.8119507,-0.21875,-0.5625,0.453125
1696248188966,-0.6953125,-0.04888916,0.8053589,-0.453125,-0.71875,0.40625
1696248189008,-0.6945801,-0.045715332,0.8078003,0.609375,-0.8125,0.515625
1696248189047,-0.7026367,-0.054260254,0.81292725,1.109375,-1.296875,0.71875
1696248189088,-0.69970703,-0.07159424,0.8082886,1.34375,-1.390625,0.875
1696248189132,-0.6989746,-0.057922363,0.8085327,0.71875,-0.75,0.546875
1696248189169,-0.6928711,-0.05718994,0.81073,0.8125,-1.078125,0.53125
1696248189209,-0.701416,-0.06719971,0.8031616,0.359375,-0.609375,0.421875
1696248189246,-0.69628906,-0.051330566,0.80682373,0.375,-0.71875,0.421875
1696248189309,-0.6999512,-0.06402588,0.79852295,0.09375,-0.6875,0.25
1696248189324,-0.717041,-0.06719971,0.8361206,0.859375,-1.03125,0.5
1696248189345,-0.6958008,-0.04937744,0.80218506,-0.890625,0.578125,0.453125
1696248189389,-0.6906738,-0.070373535,0.7809448,-2.0625,1.546875,0.109375
1696248189426,-0.6948242,-0.04888916,0.82147217,-1.265625,0.453125,-0.09375
1696248189469,-0.6945801,-0.058166504,0.8004761,-1.703125,0.875,-0.34375
1696248189506,-0.6970215,-0.057678223,0.80633545,-1.09375,1.171875,0.375
1696248189548,-0.69750977,-0.046936035,0.8019409,-0.484375,0.0,0.234375
1696248189587,-0.6906738,-0.058654785,0.81292725,0.25,-0.734375,0.5
1696248189629,-0.6965332,-0.06695557,0.80926514,0.71875,-1.171875,0.5
1696248189667,-0.69677734,-0.049621582,0.81292725,0.25,-0.59375,0.28125
1696248189707,-0.6994629,-0.055725098,0.8109741,0.546875,-0.90625,0.34375
1696248189748,-0.69433594,-0.05987549,0.8151245,0.21875,-0.921875,0.421875
1696248189788,-0.6960449,-0.0635376,0.809021,0.40625,-0.90625,0.15625
1696248189827,-0.69921875,-0.055480957,0.8024292,0.171875,-0.03125,0.484375
1696248189868,-0.6940918,-0.066223145,0.80511475,0.578125,-1.578125,0.390625
1696248189908,-0.70288086,-0.05230713,0.82611084,0.546875,-1.203125,0.453125
1696248189947,-0.6923828,-0.055725098,0.78411865,-1.03125,0.875,0.109375
1696248189989,-0.7043457,-0.06744385,0.8348999,0.9375,-0.4375,0.125
1696248190027,-0.69970703,-0.070129395,0.805603,0.265625,-0.3125,0.265625
1696248190068,-0.6994629,-0.047424316,0.80145264,-0.375,0.03125,0.25
1696248190126,-0.70043945,-0.051086426,0.80926514,-0.21875,0.1875,0.53125
1696248190166,-0.69555664,-0.070617676,0.82440186,0.140625,-0.40625,0.53125
1696248190188,-0.69970703,-0.06890869,0.8121948,-0.515625,-0.125,0.328125
1696248190227,-0.6972656,-0.06036377,0.82440186,-0.53125,0.28125,0.484375
1696248190289,-0.6867676,-0.06695557,0.8065796,-1.171875,-0.234375,0.203125
1696248190326,-0.7019043,-0.05255127,0.8192749,-1.34375,-0.453125,-0.09375
1696248190366,-0.6958008,-0.04888916,0.8126831,-0.84375,-0.125,0.421875
1696248190387,-0.69311523,-0.05230713,0.822937,-2.0,-0.609375,0.296875
1696248190448,-0.7043457,-0.047912598,0.7875366,-2.75,-0.65625,-0.21875
1696248190487,-0.6669922,-0.034484863,0.7731323,-0.796875,-1.375,-0.40625
1696248190505,-0.6933594,-0.04864502,0.8329468,0.109375,0.4375,-0.1875
1696248190548,-0.69555664,-0.06719971,0.8048706,0.171875,-1.25,0.109375
1696248190587,-0.68530273,-0.04034424,0.81073,0.875,-0.78125,0.109375
1696248190649,-0.68896484,-0.046936035,0.8126831,1.171875,-0.5625,0.578125
1696248190652,-0.68652344,-0.057678223,0.8029175,0.75,-0.328125,0.71875
1696248190691,-0.6855469,-0.05621338,0.809021,0.75,-1.171875,0.078125
1696248190728,-0.6936035,-0.051086426,0.8078003,0.0,-0.484375,0.390625
1696248190767,-0.6989746,-0.058654785,0.8102417,0.546875,-0.65625,0.203125
1696248190808,-0.7036133,-0.058410645,0.8082886,0.078125,-0.453125,0.1875
1696248190850,-0.69873047,-0.054992676,0.81170654,0.265625,-0.5,0.015625
1696248190886,-0.6916504,-0.050598145,0.80633545,0.25,0.015625,0.171875
1696248190927,-0.6994629,-0.054016113,0.82440186,1.15625,-1.03125,0.53125
1696248190967,-0.6879883,-0.059387207,0.7970581,-0.71875,0.765625,0.046875
1696248191010,-0.6899414,-0.066467285,0.7860718,-0.84375,0.34375,0.0625
1696248191049,-0.69677734,-0.05670166,0.8307495,0.609375,-0.3125,0.03125
1696248191087,-0.70825195,-0.06744385,0.8156128,0.015625,-0.6875,0.359375
1696248191128,-0.6960449,-0.053527832,0.8036499,0.0,-0.609375,0.078125
1696248191166,-0.6984863,-0.04425049,0.8082886,0.3125,-0.625,0.296875
1696248191205,-0.6933594,-0.061584473,0.8012085,0.21875,-0.578125,0.421875
1696248191248,-0.68603516,-0.06573486,0.8078003,0.375,-0.84375,0.28125
1696248191289,-0.6960449,-0.055480957,0.805603,-0.109375,-0.296875,0.375
1696248191327,-0.6958008,-0.058166504,0.81658936,0.25,-0.328125,0.40625
1696248191367,-0.69140625,-0.062072754,0.8019409,0.0625,-0.640625,0.375
1696248191406,-0.69873047,-0.054016113,0.81073,0.296875,-0.375,0.09375
1696248191449,-0.69189453,-0.05596924,0.80511475,0.109375,-0.421875,0.3125
1696248191487,-0.69384766,-0.06549072,0.809021,0.109375,-0.53125,0.328125
1696248191526,-0.7089844,-0.057922363,0.8175659,0.359375,-0.921875,0.34375
1696248191569,-0.6948242,-0.04425049,0.8234253,0.0625,-0.453125,0.265625
1696248191608,-0.68481445,-0.062072754,0.7892456,-0.875,0.734375,0.109375
1696248191647,-0.69750977,-0.054748535,0.8305054,0.671875,-0.5625,0.234375
1696248191686,-0.69873047,-0.07086182,0.8053589,-0.03125,-0.265625,0.359375
1696248191727,-0.6972656,-0.051574707,0.80682373,-0.625,-0.15625,0.21875
1696248191768,-0.6994629,-0.055725098,0.821228,-0.890625,-0.03125,0.359375
1696248191805,-0.7060547,-0.06109619,0.8161011,-1.53125,0.125,0.84375
1696248191845,-0.69018555,-0.05206299,0.7977905,-1.015625,-2.8125,0.1875
1696248191886,-0.7155762,-0.049865723,0.8319702,0.890625,-1.078125,0.5625
1696248191948,-0.6789551,-0.062805176,0.7550659,2.03125,-3.234375,0.015625
1696248191964,-0.6923828,-0.08258057,0.72039795,6.671875,-0.5,0.765625
1696248191986,-0.67529297,-0.005432129,0.8463745,5.1875,1.953125,-0.578125
1696248192027,-0.685791,-0.059387207,0.78118896,-1.25,-0.109375,-1.546875
1696248192067,-0.65527344,-0.0960083,0.90008545,-1.484375,4.71875,-2.15625
1696248192107,-0.75341797,-0.16363525,0.81658936,-1.671875,0.0,-0.015625
1696248192169,-0.6870117,-0.015930176,0.7753296,-0.828125,3.984375,-2.40625
1696248192186,-0.7128906,-0.02154541,0.79608154,1.5625,6.203125,1.328125
1696248192227,-0.64990234,-0.10699463,0.8764038,0.6875,1.390625,0.921875
1696248192268,-0.6713867,-0.02178955,0.7284546,-2.390625,-1.1875,-0.828125
1696248192307,-0.6616211,-0.0134887695,0.8788452,1.34375,2.3125,0.546875
1696248192347,-0.6760254,-0.0791626,0.84710693,2.421875,1.328125,-0.6875
1696248192386,-0.7207031,-0.117492676,0.9003296,-1.28125,-0.828125,0.90625
1696248192426,-0.62890625,-0.026672363,0.8168335,-0.203125,1.125,0.296875
1696248192467,-0.69140625,-0.055725098,0.8121948,0.234375,4.015625,0.6875
1696248192506,-0.67944336,-0.081604004,0.8998413,-0.71875,-2.171875,-0.328125
1696248192547,-0.6057129,-0.02178955,0.7213745,-1.171875,-0.203125,-0.078125
1696248192586,-0.68847656,-0.047912598,0.87176514,1.703125,-0.078125,1.359375
1696248192629,-0.6513672,-0.08111572,0.78240967,0.46875,1.359375,-0.921875
1696248192666,-0.68115234,-0.06744385,0.949646,-1.390625,-1.921875,0.78125
1696248192727,-0.63061523,-0.027160645,0.7694702,-0.21875,0.578125,-0.828125
1696248192746,-0.70458984,-0.073791504,0.86639404,-0.53125,1.390625,1.5
1696248192786,-0.6599121,-0.06427002,0.8114624,-0.09375,-0.703125,-0.78125
1696248192826,-0.6604004,-0.035705566,0.8192749,-0.640625,-1.390625,0.4375
1696248192888,-0.6550293,-0.0569458,0.84588623,0.859375,-1.75,-0.09375
1696248192926,-0.67456055,-0.08013916,0.8209839,-0.234375,-0.34375,0.359375
1696248192947,-0.6677246,-0.043273926,0.8361206,-0.03125,-1.765625,-1.265625
1696248192986,-0.6657715,-0.03302002,0.8329468,3.21875,-2.421875,2.21875
1696248193025,-0.67529297,-0.07208252,0.8258667,0.171875,-0.296875,0.4375
1696248193068,-0.7302246,-0.09527588,0.8336792,-1.359375,-1.515625,-0.25
1696248193107,-0.60302734,-0.03668213,0.8270874,0.59375,-0.5625,0.828125
1696248193148,-0.7277832,-0.0881958,0.822937,-1.640625,1.265625,-0.296875
1696248193194,-0.6364746,-0.055725098,0.8390503,-0.140625,-0.359375,0.09375
1696248193228,-0.66064453,-0.04058838,0.7965698,-0.09375,0.40625,0.5
1696248193287,-0.6743164,-0.06304932,0.871521,0.6875,0.078125,0.8125
1696248193290,-0.6730957,-0.10699463,0.83465576,-0.5625,1.546875,-1.375
1696248193327,-0.6875,-0.03643799,0.84368896,-2.171875,-2.265625,0.25
1696248193368,-0.63012695,-0.054016113,0.83270264,1.203125,0.015625,0.453125
1696248193409,-0.7192383,-0.08477783,0.822937,-0.25,-1.4375,0.328125
1696248193447,-0.64501953,-0.042785645,0.840271,-0.375,-1.359375,-1.265625
1696248193486,-0.6855469,-0.0647583,0.8590698,-1.6875,-4.953125,-0.765625
1696248193528,-0.6982422,-0.022766113,0.78460693,-1.09375,-5.96875,-2.140625
1696248193566,-0.6591797,-0.06085205,0.8151245,1.015625,-2.5,0.75
1696248193608,-0.6875,-0.059631348,0.8031616,0.421875,-2.828125,-0.28125
1696248193647,-0.6647949,-0.06793213,0.855896,1.1875,-0.96875,0.4375
1696248193687,-0.67700195,-0.037902832,0.80511475,-0.625,-1.203125,0.328125
1696248193727,-0.69555664,-0.043273926,0.8239136,-0.125,-1.4375,0.296875
1696248193768,-0.67333984,-0.057434082,0.8239136,-0.203125,-1.890625,0.234375
1696248193807,-0.6936035,-0.057922363,0.81243896,-0.671875,-1.71875,0.65625
1696248193848,-0.703125,-0.05621338,0.8373413,-0.3125,-1.3125,1.03125
1696248193887,-0.71875,-0.085510254,0.86761475,1.25,-1.421875,2.15625
1696248193927,-0.70092773,-0.06768799,0.74749756,-0.65625,-1.578125,3.1875
1696248193971,-0.689209,-0.021057129,0.7958374,1.671875,-2.296875,0.9375
1696248194007,-0.65356445,-0.04815674,0.7782593,0.328125,-0.171875,-1.203125
1696248194048,-0.67333984,-0.06549072,0.7868042,0.6875,-0.53125,-0.078125
1696248194086,-0.6982422,-0.042785645,0.8204956,1.75,-1.65625,0.859375
1696248194127,-0.7314453,-0.09698486,0.85491943,2.109375,-2.671875,0.828125
1696248194167,-0.6933594,-0.09649658,0.83636475,0.734375,-0.65625,0.515625
1696248194206,-0.6982422,-0.050354004,0.8324585,-2.109375,1.859375,0.8125
1696248194247,-0.67822266,-0.027404785,0.7694702,-1.296875,0.390625,0.34375
1696248194287,-0.701416,-0.054748535,0.7926636,2.140625,-2.796875,-1.015625
1696248194328,-0.65112305,-0.06524658,0.72088623,0.8125,-0.984375,-1.8125
1696248194367,-0.68188477,-0.07696533,0.75457764,3.0,2.484375,0.421875
1696248194407,-0.6845703,-0.050598145,0.8505249,0.359375,8.390625,0.375
1696248194447,-0.7163086,-0.08746338,0.86395264,1.8125,1.546875,1.1875
1696248194487,-0.6916504,-0.05621338,0.776062,-4.109375,5.984375,-0.46875
1696248194528,-0.69628906,-0.039611816,0.86932373,-1.3125,4.921875,1.0625
1696248194570,-0.6496582,-0.09185791,0.857605,-1.703125,1.15625,-1.90625
1696248194611,-0.66918945,-0.06915283,0.7826538,0.96875,-0.6875,0.09375
1696248194626,-0.65722656,-0.07354736,0.83343506,0.640625,0.53125,-0.40625
1696248194708,-0.6640625,-0.065979004,0.8222046,-0.03125,-1.28125,0.71875
1696248194711,-0.65966797,-0.055480957,0.8414917,0.046875,-2.40625,0.296875
1696248194767,-0.6904297,-0.06378174,0.85687256,-3.4375,-6.125,-0.125
1696248194786,-0.70703125,-0.06451416,0.8012085,1.609375,-5.359375,0.96875
1696248194849,-0.68896484,-0.07476807,0.77630615,-0.21875,-4.109375,0.53125
1696248194866,-0.6604004,-0.047668457,0.7941284,0.546875,-2.265625,-0.28125
1696248194931,-0.69799805,-0.089904785,0.8432007,2.828125,-3.1875,0.25
1696248194946,-0.69091797,-0.09283447,0.840271,-0.609375,-1.375,0.234375
1696248194988,-0.6882324,-0.047668457,0.7789917,-3.265625,1.578125,1.1875
1696248195028,-0.6879883,-0.034973145,0.78460693,2.515625,-2.640625,0.828125
1696248195068,-0.69873047,-0.08502197,0.8085327,-0.234375,-0.6875,-0.296875
1696248195106,-0.6789551,-0.06695557,0.79730225,-0.015625,-1.578125,-0.140625
1696248195147,-0.7145996,-0.07330322,0.855896,0.84375,-1.328125,0.390625
1696248195189,-0.70581055,-0.0947876,0.82611084,-0.046875,-0.921875,1.3125
1696248195226,-0.6748047,-0.07598877,0.8510132,-4.125,0.78125,0.34375
1696248195268,-0.70288086,-0.036193848,0.80218506,-5.921875,1.71875,1.015625
1696248195307,-0.70092773,-0.027893066,0.7814331,0.53125,-1.421875,1.21875
1696248195349,-0.6694336,-0.04937744,0.7628784,0.734375,-1.71875,0.078125
1696248195387,-0.67285156,-0.07476807,0.77093506,4.375,-2.34375,0.328125
1696248195427,-0.7182617,-0.09136963,0.85565186,4.875,0.125,0.671875
1696248195468,-0.70947266,-0.06768799,0.8395386,-0.953125,6.6875,-1.03125
1696248195528,-0.7233887,-0.11627197,0.87908936,-1.484375,-2.640625,2.375
1696248195567,-0.71972656,-0.07208252,0.7665405,-3.671875,-0.359375,-0.140625
1696248195586,-0.6982422,-0.0071411133,0.81658936,-0.6875,0.65625,-0.953125
1696248195650,-0.6594238,-0.05328369,0.74993896,1.84375,-1.09375,-0.53125
1696248195686,-0.657959,-0.108947754,0.82366943,-0.09375,2.40625,-1.0
1696248195726,-0.7163086,-0.07720947,0.9303589,0.609375,-0.109375,1.71875
1696248195748,-0.7116699,-0.13287354,0.78411865,-1.765625,-3.6875,1.265625
1696248195787,-0.69433594,-0.02178955,0.8168335,-3.453125,1.96875,-0.921875
1696248195849,-0.6669922,0.0099487305,0.7728882,1.125,-1.296875,0.640625
1696248195888,-0.6726074,-0.04937744,0.81829834,3.5625,-4.15625,-0.546875
1696248195892,-0.7348633,-0.12286377,0.83026123,1.484375,0.3125,1.0
1696248195928,-0.70092773,-0.09942627,0.79901123,-0.6875,-0.953125,1.390625
1696248195966,-0.70336914,-0.05206299,0.80926514,-0.0625,-1.40625,0.8125
1696248196007,-0.6977539,-0.0413208,0.7909546,-0.390625,1.734375,-1.015625
1696248196048,-0.703125,-0.07525635,0.89349365,0.421875,3.3125,0.390625
1696248196088,-0.7001953,-0.11993408,0.7723999,-1.59375,-4.921875,1.296875
1696248196127,-0.72387695,-0.028381348,0.8173218,-6.671875,3.078125,-2.125
1696248196169,-0.69873047,-0.020568848,0.82025146,-1.640625,-0.5,-0.734375
1696248196209,-0.63500977,-0.04815674,0.758728,1.625,-1.765625,-0.921875
1696248196247,-0.64697266,-0.07232666,0.8722534,6.46875,-2.15625,1.6875
1696248196288,-0.7038574,-0.124572754,0.8134155,-0.34375,-3.5,2.421875
1696248196328,-0.704834,-0.039123535,0.7584839,-3.25,-1.28125,0.203125
1696248196366,-0.7272949,-0.014221191,0.824646,1.359375,0.171875,0.21875
1696248196407,-0.7114258,-0.04083252,0.8241577,1.453125,-1.6875,-0.515625
1696248196448,-0.72558594,-0.12188721,0.8768921,-0.34375,-0.328125,1.171875
1696248196488,-0.7001953,-0.08526611,0.7785034,-3.921875,0.125,-0.25
1696248196527,-0.7109375,-0.047424316,0.79730225,-3.5,3.015625,-1.0
1696248196567,-0.6477051,-0.027648926,0.7645874,2.953125,-3.171875,0.296875
1696248196607,-0.6777344,-0.062805176,0.8204956,3.78125,-1.71875,1.1875
1696248196647,-0.6970215,-0.10235596,0.8378296,0.859375,-0.859375,1.625
1696248196688,-0.71533203,-0.07891846,0.7765503,1.328125,-1.984375,1.5
1696248196727,-0.72558594,-0.029846191,0.75701904,3.140625,-1.890625,0.421875
1696248196767,-0.7062988,-0.051330566,0.7765503,4.625,1.53125,0.234375
1696248196808,-0.62060547,-0.09625244,0.87713623,0.734375,8.3125,-1.421875
1696248196847,-0.73876953,-0.13946533,0.86712646,-3.6875,-1.5,2.390625
1696248196886,-0.72802734,-0.077941895,0.7860718,-4.171875,-0.078125,-1.734375
1696248196928,-0.6801758,-0.013977051,0.8197632,-2.46875,0.5,-0.84375
1696248196968,-0.6936035,-0.06744385,0.7987671,-0.6875,-3.796875,0.5
1696248197010,-0.6713867,-0.08111572,0.8148804,1.4375,-4.546875,0.765625
1696248197049,-0.6916504,-0.070373535,0.8239136,0.0625,-1.234375,0.0625
1696248197087,-0.70751953,-0.07501221,0.7731323,-0.09375,-2.109375,0.0
1696248197128,-0.6982422,-0.046203613,0.8024292,1.046875,-1.625,0.234375
1696248197167,-0.7019043,-0.06964111,0.85809326,-0.171875,0.90625,0.765625
1696248197205,-0.7207031,-0.09503174,0.7921753,-1.875,-1.703125,0.78125
1696248197227,-0.73413086,-0.051818848,0.82733154,-2.625,0.734375,-1.453125
1696248197288,-0.6887207,-0.054016113,0.78118896,-1.0,-0.046875,-0.90625
1696248197307,-0.6621094,-0.04473877,0.8024292,1.859375,-2.78125,-0.09375
1696248197346,-0.6982422,-0.09820557,0.84710693,2.671875,-0.265625,1.9375
1696248197388,-0.6921387,-0.093322754,0.7550659,-1.125,-2.4375,1.609375
1696248197426,-0.7084961,-0.038391113,0.7929077,-2.90625,0.546875,-0.65625
1696248197466,-0.6911621,-0.019592285,0.80999756,0.53125,0.1875,0.265625
1696248197506,-0.71313477,-0.08746338,0.8163452,1.828125,-1.015625,0.765625
1696248197547,-0.7199707,-0.109191895,0.83929443,1.28125,-0.640625,1.625
1696248197586,-0.7233887,-0.082092285,0.7704468,-2.15625,0.6875,0.4375
1696248197628,-0.6982422,-0.050842285,0.78900146,-1.40625,1.28125,-0.234375
1696248197669,-0.65966797,-0.034484863,0.77801514,0.1875,-0.171875,0.140625
1696248197707,-0.6772461,-0.058654785,0.7977905,1.171875,-0.46875,0.609375
1696248197770,-0.70410156,-0.065979004,0.82073975,2.3125,-0.984375,0.953125
1696248197786,-0.7219238,-0.093566895,0.81585693,0.671875,-3.1875,1.375
1696248197828,-0.70874023,-0.105773926,0.8265991,-4.09375,1.53125,0.375
1696248197870,-0.7290039,-0.109680176,0.8173218,-2.84375,-0.296875,0.171875
1696248197908,-0.6784668,-0.015686035,0.7892456,-5.625,3.234375,-2.921875
1696248197947,-0.6875,-0.004211426,0.77752686,0.640625,-0.125,-0.359375
1696248197989,-0.6838379,-0.05987549,0.7887573,2.703125,-4.234375,0.453125
1696248198049,-0.685791,-0.10748291,0.821228,2.625,-0.75,0.875
1696248198066,-0.70458984,-0.08453369,0.8305054,1.75,0.03125,1.09375
1696248198129,-0.7192383,-0.09063721,0.824646,0.0,-0.328125,1.4375
1696248198145,-0.69799805,-0.05255127,0.76605225,-1.734375,-0.140625,0.046875
1696248198209,-0.70043945,-0.023742676,0.79608154,2.0625,-0.578125,-1.265625
1696248198226,-0.6503906,-0.043518066,0.7387085,7.328125,5.953125,0.265625
1696248198268,-0.6364746,-0.077697754,0.8239136,-1.234375,16.390625,-1.96875
1696248198307,-0.751709,-0.117004395,0.9347534,2.515625,0.65625,1.65625
1696248198347,-0.67626953,-0.128479,0.758728,-3.609375,-1.25,1.390625
1696248198409,-0.7011719,-0.04937744,0.8197632,-6.0,-1.390625,-0.6875
1696248198428,-0.6599121,-0.013000488,0.8290405,-1.765625,-2.25,-3.15625
1696248198467,-0.69921875,-0.022766113,0.8048706,2.734375,-4.6875,-0.140625
1696248198508,-0.6645508,-0.08062744,0.83758545,2.8125,-3.671875,-1.265625
1696248198527,-0.6970215,-0.13531494,0.83392334,0.4375,-3.296875,0.796875
1696248198567,-0.6948242,-0.09210205,0.774353,-0.5625,-2.125,0.25
1696248198607,-0.6801758,-0.04449463,0.7711792,0.375,-0.65625,1.1875
1696248198648,-0.6784668,-0.022277832,0.78167725,1.609375,-2.078125,0.140625
1696248198688,-0.6970215,-0.07208252,0.83636475,3.328125,-1.984375,0.3125
1696248198728,-0.7216797,-0.09552002,0.84124756,1.65625,-1.140625,0.75
1696248198766,-0.71069336,-0.0947876,0.7885132,-0.5625,-1.140625,0.71875
1696248198808,-0.6958008,-0.073791504,0.7885132,-0.828125,-0.875,0.3125
1696248198847,-0.70825195,-0.08428955,0.82611084,-0.296875,-0.140625,0.328125
1696248198887,-0.6936035,-0.0960083,0.79803467,-2.328125,-0.3125,-0.109375
1696248198927,-0.6882324,-0.032287598,0.7999878,-2.421875,-0.296875,-0.984375
1696248198969,-0.69873047,-0.03717041,0.8036499,0.90625,-0.921875,0.5
1696248199007,-0.71899414,-0.10333252,0.8395386,0.71875,-0.859375,0.921875
1696248199046,-0.68725586,-0.097961426,0.78118896,-2.84375,-0.265625,0.625
1696248199087,-0.7050781,-0.05255127,0.82147217,-1.234375,2.453125,0.046875
1696248199128,-0.69091797,-0.043273926,0.81585693,-0.109375,1.984375,-0.21875
1696248199167,-0.6713867,-0.045959473,0.77801514,2.421875,-0.484375,-0.125
1696248199207,-0.67089844,-0.09112549,0.8070679,4.078125,-0.125,0.890625
1696248199246,-0.6958008,-0.12042236,0.838562,-0.125,-1.0,2.125
1696248199288,-0.703125,-0.074523926,0.8004761,-5.96875,1.3125,0.03125
1696248199327,-0.70874023,-0.034240723,0.83148193,-5.109375,1.984375,-0.71875
1696248199368,-0.69091797,-0.059631348,0.8226929,-2.390625,0.53125,-0.34375
1696248199407,-0.6875,-0.06378174,0.8109741,-2.171875,-0.15625,0.265625
1696248199446,-0.6828613,-0.062072754,0.8204956,-2.359375,0.296875,0.375
1696248199488,-0.6882324,-0.07183838,0.8043823,-2.4375,-0.296875,0.375
1696248199529,-0.6821289,-0.061828613,0.8168335,-0.59375,-1.25,0.671875
1696248199566,-0.68603516,-0.04107666,0.81292725,-0.765625,-0.390625,0.546875
1696248199605,-0.6826172,-0.04425049,0.81658936,-0.296875,-0.875,0.4375
