,timestamp,accel_x,accel_y,accel_z,gyro_x,gyro_y,gyro_z,ind
0,1696245270644,-0.01953125,-1.0095825,0.051940918,-1.40625,-0.59375,-0.140625,40
1,1696245270684,-0.00024414062,-0.9763794,0.077819824,-0.3125,-0.6875,-0.25,41
2,1696245270724,-0.016113281,-0.99298096,0.0602417,-1.203125,-0.59375,0.171875,42
3,1696245270764,-0.008056641,-0.98638916,0.078308105,-0.0625,0.03125,0.34375,43
4,1696245270804,-0.015136719,-0.9924927,0.07122803,0.140625,-0.578125,0.46875,44
5,1696245270844,-0.0041503906,-0.9734497,0.08123779,-0.234375,0.078125,0.453125,45
6,1696245270884,-0.018554688,-0.99884033,0.07342529,0.640625,-1.140625,0.859375,46
7,1696245270924,0.008300781,-0.9956665,0.066345215,-0.578125,0.03125,-0.125,47
8,1696245270964,-0.010009766,-0.98394775,0.06585693,0.03125,-0.8125,-0.015625,48
9,1696245271004,-0.009277344,-0.9973755,0.07684326,0.25,-0.046875,0.296875,49
10,1696245271044,-0.009033203,-0.9746704,0.08050537,0.40625,-0.578125,0.78125,50
11,1696245271084,-0.018066406,-1.0012817,0.07659912,0.671875,-0.734375,0.46875,51
12,1696245271124,-0.0075683594,-0.98223877,0.07879639,0.53125,-0.5,0.09375,52
13,1696245271164,-0.0007324219,-0.9751587,0.06756592,-0.5625,0.28125,0.15625,53
14,1696245271204,-0.0068359375,-0.98321533,0.055847168,-0.125,-0.78125,0.484375,54
15,1696245271244,0.0031738281,-0.98565674,0.073913574,0.09375,-0.328125,0.234375,55
16,1696245271284,-0.008300781,-1.0012817,0.074157715,0.515625,-0.671875,0.734375,56
17,1696245271324,-0.010498047,-0.98321533,0.06878662,-0.171875,-0.171875,0.28125,57
18,1696245271364,0.0061035156,-0.991272,0.0758667,-0.328125,-0.234375,0.09375,58
19,1696245271404,-0.013183594,-0.9771118,0.0680542,0.328125,-0.96875,0.859375,59
20,1696245271444,-0.0107421875,-0.9944458,0.06536865,0.5625,-0.6875,0.328125,60
21,1696245271484,0.020019531,-0.991272,0.06488037,-0.6875,0.15625,0.296875,61
22,1696245271524,-0.020996094,-0.98272705,0.062927246,-0.046875,-0.59375,1.0,62
23,1696245271564,-0.009033203,-0.9944458,0.08050537,0.015625,-0.328125,0.609375,63
24,1696245271604,0.0075683594,-0.98516846,0.06878662,-0.53125,-0.28125,-0.0625,64
25,1696245271644,-0.021972656,-0.9817505,0.06536865,-0.875,-0.890625,0.28125,65
26,1696245271684,-0.0041503906,-0.99224854,0.078552246,0.703125,0.03125,0.734375,66
27,1696245271724,0.014892578,-0.989563,0.070007324,-0.03125,0.09375,-0.21875,67
28,1696245271764,-0.006591797,-0.9771118,0.066833496,-0.65625,-0.875,0.375,68
29,1696245271804,0.008544922,-0.99468994,0.078308105,0.109375,-1.15625,0.96875,69
30,1696245271844,0.0026855469,-1.0007935,0.070495605,0.375,-1.28125,0.921875,70
31,1696245271884,-0.012451172,-0.9776001,0.085632324,1.875,-1.3125,0.796875,71
32,1696245271924,-0.0034179688,-0.98272705,0.090270996,1.140625,-1.015625,0.65625,72
33,1696245271964,0.011474609,-0.98883057,0.054870605,-1.125,-0.875,0.296875,73
34,1696245272004,-0.008056641,-0.9817505,0.06707764,1.671875,-1.75,-0.15625,74
35,1696245272044,0.012207031,-1.0064087,0.07098389,0.1875,-1.4375,0.171875,75
36,1696245272084,0.0014648438,-0.97784424,0.07366943,-0.4375,-1.421875,-0.28125,76
37,1696245272124,-0.014404297,-0.9944458,0.06756592,-0.53125,-1.6875,0.109375,77
38,1696245272164,-0.012939453,-0.9920044,0.08026123,0.4375,-1.828125,0.640625,78
39,1696245272204,0.0024414062,-1.0015259,0.061462402,-0.359375,-1.78125,-0.5,79
40,1696245272244,0.015136719,-0.98516846,0.066589355,-1.046875,-0.78125,-0.25,80
41,1696245272284,-0.01928711,-0.9837036,0.082214355,-0.4375,-1.453125,0.03125,81
42,1696245272324,0.0034179688,-0.9932251,0.070495605,-0.65625,-1.34375,-0.296875,82
43,1696245272364,0.0014648438,-0.9837036,0.07122803,-0.1875,-1.53125,-0.125,83
44,1696245272404,-0.015136719,-0.9873657,0.07879639,-0.546875,-1.25,-0.015625,84
45,1696245272444,-0.004638672,-0.986145,0.08074951,-1.421875,-0.90625,-0.046875,85
46,1696245272484,-0.0087890625,-0.9932251,0.07635498,-1.5625,-0.484375,0.09375,86
47,1696245272524,-0.007080078,-0.9800415,0.08660889,-1.28125,-0.078125,0.015625,87
48,1696245272564,-0.02319336,-0.9873657,0.07244873,-0.546875,-0.390625,0.90625,88
49,1696245272604,0.0043945312,-0.9937134,0.07318115,0.03125,-0.46875,-0.03125,89
50,1696245272644,0.0043945312,-0.98321533,0.09442139,-0.625,-0.25,-0.1875,90
51,1696245272684,-0.016113281,-0.99224854,0.055114746,-3.703125,0.703125,0.375,91
52,1696245272724,-0.0048828125,-0.99346924,0.10272217,-1.640625,0.984375,-0.15625,92
53,1696245272764,-0.013427734,-0.9981079,0.093688965,-0.75,0.421875,0.5,93
54,1696245272804,0.0007324219,-0.97125244,0.0836792,-1.609375,0.875,0.359375,94
55,1696245272844,-0.0056152344,-0.9854126,0.08929443,-2.140625,0.828125,0.296875,95
56,1696245272884,0.0024414062,-0.98565674,0.09197998,-0.578125,-0.078125,0.484375,96
57,1696245272924,-0.0041503906,-0.99591064,0.089782715,-1.484375,-0.484375,0.265625,97
58,1696245272964,0.0036621094,-0.9714966,0.09124756,-1.109375,-0.203125,0.5625,98
59,1696245273004,-0.015380859,-0.98760986,0.10638428,0.203125,-0.5,0.828125,99
60,1696245273044,0.0009765625,-0.98516846,0.08660889,-0.140625,-0.671875,0.703125,100
61,1696245273084,-0.0021972656,-0.9763794,0.09246826,0.53125,-0.84375,0.796875,101
62,1696245273124,-0.011962891,-1.0012817,0.09320068,0.78125,-1.09375,1.125,102
63,1696245273164,0.020263672,-0.9963989,0.09051514,0.140625,-0.46875,0.4375,103
64,1696245273204,-0.0009765625,-0.98516846,0.10272217,1.234375,-0.875,0.75,104
65,1696245273244,0.0024414062,-0.9866333,0.08392334,-0.125,-0.421875,0.8125,105
66,1696245273284,-0.0029296875,-1.0027466,0.097595215,1.515625,-1.421875,1.15625,106
67,1696245273324,0.01586914,-0.98394775,0.11077881,1.703125,-0.734375,0.734375,107
68,1696245273364,0.014160156,-0.9780884,0.062438965,-1.25,0.203125,0.328125,108
69,1696245273404,-0.019042969,-1.008606,0.097595215,1.234375,-0.484375,0.90625,109
70,1696245273444,0.013671875,-0.98394775,0.097839355,1.46875,0.140625,0.3125,110
71,1696245273484,0.004638672,-0.96954346,0.07928467,0.703125,0.1875,0.34375,111
72,1696245273524,0.0029296875,-0.9819946,0.089538574,1.0625,0.265625,0.203125,112
73,1696245273564,0.007080078,-0.9932251,0.089538574,1.640625,-0.078125,0.203125,113
74,1696245273604,0.0021972656,-0.99346924,0.08807373,1.171875,-0.484375,0.46875,114
75,1696245273644,0.009521484,-0.9890747,0.08294678,0.078125,0.390625,0.078125,115
76,1696245273684,-0.011962891,-0.9697876,0.08538818,1.65625,-0.171875,0.859375,116
77,1696245273724,0.0146484375,-1.0134888,0.06976318,0.5,-0.34375,-0.1875,117
78,1696245273764,0.020996094,-0.9805298,0.07147217,0.65625,0.203125,-0.140625,118
79,1696245273804,-0.016113281,-0.9817505,0.08294678,0.90625,-0.234375,0.359375,119
80,1696245273844,-0.00048828125,-0.9902954,0.07904053,0.734375,-0.234375,0.734375,120
81,1696245273884,0.0031738281,-0.9902954,0.073913574,1.109375,-0.125,0.390625,121
82,1696245273924,0.0048828125,-0.9846802,0.066101074,0.046875,0.015625,0.140625,122
83,1696245273964,-0.0036621094,-0.9871216,0.0758667,0.53125,-0.671875,0.203125,123
84,1696245274004,0.010009766,-0.9944458,0.089782715,1.78125,-0.34375,0.03125,124
85,1696245274044,0.0063476562,-0.9927368,0.059509277,-1.265625,0.359375,0.0625,125
86,1696245274084,-0.0012207031,-0.9837036,0.07562256,0.59375,0.078125,0.1875,126
87,1696245274124,-0.0053710938,-0.9956665,0.07293701,0.859375,-0.171875,0.6875,127
88,1696245274164,0.0073242188,-0.97320557,0.07196045,0.46875,0.109375,0.5,128
89,1696245274204,-0.0075683594,-0.99786377,0.06536865,0.640625,-0.59375,0.796875,129
90,1696245274244,0.029785156,-0.9932251,0.059020996,-0.390625,-0.171875,0.109375,130
91,1696245274284,0.0043945312,-0.98028564,0.06097412,-0.015625,-0.625,0.265625,131
92,1696245274324,0.0075683594,-0.9866333,0.06414795,-0.6875,-0.40625,0.546875,132
93,1696245274364,0.0087890625,-0.98931885,0.07611084,-0.234375,-0.5625,0.46875,133
94,1696245274404,-0.0021972656,-0.9937134,0.07318115,0.40625,-0.59375,0.59375,134
95,1696245274444,0.015380859,-0.9824829,0.06512451,-0.578125,-0.078125,0.34375,135
96,1696245274484,-0.001953125,-0.98321533,0.06903076,-0.234375,-0.3125,0.609375,136
97,1696245274524,0.024658203,-0.9829712,0.06732178,-0.1875,-0.0625,0.40625,137
98,1696245274564,0.0056152344,-0.98809814,0.06854248,0.515625,-0.515625,0.53125,138
99,1696245274604,0.0068359375,-0.9981079,0.070739746,0.65625,-0.21875,0.265625,139
100,1696245274644,0.0126953125,-0.9885864,0.07098389,0.265625,0.015625,0.640625,140
101,1696245274684,0.0053710938,-0.9829712,0.07684326,1.3125,-0.703125,0.6875,141
102,1696245274724,0.0031738281,-0.9859009,0.08685303,0.875,-0.578125,0.265625,142
103,1696245274764,0.0031738281,-0.98516846,0.054138184,0.578125,-0.9375,0.734375,143
104,1696245274804,0.02758789,-0.99176025,0.05706787,-0.234375,-0.625,-0.125,144
105,1696245274844,-0.0014648438,-0.99298096,0.06561279,0.625,-1.25,0.359375,145
106,1696245274884,0.0036621094,-0.9776001,0.06414795,0.796875,-1.03125,0.109375,146
107,1696245274924,0.013427734,-0.9937134,0.06048584,-0.5625,-1.265625,-0.03125,147
108,1696245274964,0.0036621094,-1.0066528,0.06707764,-0.40625,-1.546875,-0.109375,148
109,1696245275004,0.02319336,-0.98272705,0.06439209,-1.4375,-1.578125,-0.703125,149
110,1696245275044,0.00390625,-0.97784424,0.06512451,-2.34375,-1.359375,-0.234375,150
111,1696245275084,0.013916016,-0.98321533,0.074645996,-3.0,-1.015625,-0.625,151
112,1696245275124,0.0053710938,-1.0046997,0.08685303,-1.875,-1.3125,-0.40625,152
113,1696245275164,0.0012207031,-0.9771118,0.081726074,-0.984375,-1.40625,-0.4375,153
114,1696245275204,-0.0036621094,-0.9807739,0.077819824,-1.046875,-0.984375,-0.296875,154
115,1696245275244,0.010009766,-0.98516846,0.08294678,-1.03125,-0.421875,0.15625,155
116,1696245275284,0.0053710938,-0.97906494,0.090026855,-0.90625,-0.46875,0.125,156
117,1696245275324,-0.0009765625,-0.99346924,0.07659912,-0.546875,-0.9375,0.265625,157
118,1696245275364,0.018554688,-0.9871216,0.08123779,-1.171875,-0.59375,-0.390625,158
119,1696245275404,-0.010986328,-0.9883423,0.081970215,-0.40625,-1.15625,0.28125,159
120,1696245275444,-0.0009765625,-0.9981079,0.08074951,-1.640625,-0.34375,0.46875,160
121,1696245275484,0.001953125,-0.98883057,0.09539795,-0.546875,-0.15625,0.25,161
122,1696245275524,0.009277344,-0.9846802,0.09173584,-1.359375,-0.40625,0.4375,162
123,1696245275564,-0.0073242188,-0.9915161,0.09515381,-0.703125,-1.4375,0.53125,163
124,1696245275604,0.009033203,-0.97491455,0.101257324,-0.078125,-0.921875,0.375,164
125,1696245275644,0.0029296875,-0.99005127,0.059509277,-3.0625,0.609375,-0.453125,165
126,1696245275684,-0.009765625,-0.99053955,0.113220215,-0.078125,0.15625,0.34375,166
127,1696245275724,-0.0029296875,-0.9902954,0.09320068,-0.375,-0.25,0.171875,167
128,1696245275764,0.004638672,-0.9573364,0.09051514,-0.96875,0.203125,0.265625,168
129,1696245275804,0.0087890625,-1.0088501,0.09954834,-0.9375,-0.453125,0.609375,169
130,1696245275844,0.0056152344,-1.0012817,0.09100342,-0.375,-0.46875,0.125,170
131,1696245275884,0.00024414062,-0.9607544,0.090270996,0.21875,-1.328125,0.453125,171
132,1696245275924,0.0017089844,-0.9717407,0.08709717,-0.328125,-0.328125,0.78125,172
133,1696245275964,0.020263672,-1.0110474,0.101989746,1.046875,-0.375,0.046875,173
134,1696245276004,-0.0029296875,-0.9812622,0.09222412,0.921875,-0.4375,0.59375,174
135,1696245276044,0.008300781,-0.97979736,0.08758545,0.921875,-0.78125,0.875,175
136,1696245276084,-0.004638672,-0.9885864,0.10076904,1.453125,-1.109375,0.6875,176
137,1696245276124,0.009521484,-0.9871216,0.094177246,1.28125,-0.40625,0.265625,177
138,1696245276164,0.005126953,-0.99053955,0.08319092,0.328125,-0.46875,0.09375,178
139,1696245276204,0.0087890625,-0.9849243,0.08514404,1.625,-0.46875,0.234375,179
140,1696245276244,-0.00024414062,-0.989563,0.085876465,2.0625,-0.484375,0.296875,180
141,1696245276284,-0.00048828125,-0.9846802,0.08319092,2.265625,0.109375,0.75,181
142,1696245276324,0.0029296875,-0.9902954,0.0770874,1.171875,0.390625,0.671875,182
143,1696245276364,-0.0009765625,-0.99176025,0.08123779,1.28125,0.03125,0.453125,183
144,1696245276404,0.0031738281,-0.97491455,0.08782959,1.890625,-0.71875,0.8125,184
145,1696245276444,0.016113281,-0.9937134,0.053894043,-0.921875,0.84375,0.625,185
146,1696245276484,0.0234375,-0.99224854,0.07562256,0.546875,0.34375,-0.015625,186
147,1696245276524,-0.00390625,-0.99664307,0.078552246,1.265625,-0.453125,0.515625,187
148,1696245276564,0.0029296875,-0.9890747,0.07928467,0.25,-0.109375,0.40625,188
149,1696245276604,-0.0024414062,-0.98150635,0.082214355,1.578125,-0.4375,1.140625,189
150,1696245276644,-0.0017089844,-0.98931885,0.066345215,-0.09375,-0.546875,0.25,190
151,1696245276684,0.01953125,-0.97320557,0.066345215,-0.609375,-0.046875,-0.046875,191
152,1696245276724,0.009765625,-1.0254517,0.055603027,-0.859375,-0.5,0.40625,192
153,1696245276764,0.0014648438,-0.96954346,0.07196045,1.03125,0.140625,-0.1875,193
154,1696245276804,0.0061035156,-0.987854,0.07122803,0.59375,0.296875,1.609375,194
155,1696245276844,0.0078125,-0.989563,0.062683105,0.453125,-0.125,0.375,195
156,1696245276884,0.017822266,-0.99884033,0.070007324,0.34375,0.390625,0.796875,196
157,1696245276924,0.001953125,-0.9871216,0.053649902,0.625,0.28125,0.4375,197
158,1696245276964,0.017822266,-0.97442627,0.08099365,0.9375,0.296875,0.765625,198
159,1696245277004,0.0026855469,-0.9956665,0.051696777,1.03125,-0.34375,1.125,199
160,1696245277044,0.02734375,-0.98883057,0.062438965,0.328125,0.28125,0.109375,200
161,1696245277084,0.0075683594,-0.9961548,0.0692749,0.9375,-0.5,0.34375,201
162,1696245277124,0.01586914,-0.97979736,0.06854248,-0.046875,-0.4375,0.15625,202
163,1696245277164,0.009277344,-0.9907837,0.06707764,0.640625,-0.78125,0.671875,203
164,1696245277204,0.0146484375,-0.98516846,0.04876709,-0.734375,0.046875,0.578125,204
165,1696245277244,0.007080078,-0.9937134,0.06829834,1.09375,-0.890625,0.890625,205
166,1696245277284,0.03100586,-0.97369385,0.04559326,-0.140625,1.125,0.328125,206
167,1696245277324,0.0075683594,-1.000061,0.06072998,0.96875,-0.46875,1.0,207
168,1696245277364,0.020751953,-0.99176025,0.05633545,0.625,-0.1875,0.359375,208
169,1696245277404,0.01953125,-0.9783325,0.054626465,0.09375,0.15625,0.40625,209
170,1696245277444,0.015380859,-0.99298096,0.061706543,0.3125,-0.234375,0.25,210
171,1696245277484,0.017578125,-0.9885864,0.05706787,0.0625,-0.484375,0.015625,211
172,1696245277524,0.027832031,-0.9758911,0.062927246,0.203125,-0.03125,0.359375,212
173,1696245277564,0.011962891,-0.9956665,0.046325684,-0.4375,-0.546875,-0.1875,213
174,1696245277604,0.032958984,-0.98394775,0.059265137,-0.25,-0.546875,-0.25,214
175,1696245277644,0.0041503906,-0.9841919,0.058776855,0.421875,-1.5,-0.078125,215
176,1696245277684,0.01928711,-0.9932251,0.06097412,-0.609375,-1.8125,-0.609375,216
177,1696245277724,0.0041503906,-0.9824829,0.062927246,-0.46875,-2.34375,-0.546875,217
178,1696245277764,0.0026855469,-0.99957275,0.05657959,-1.96875,-1.8125,-1.0625,218
179,1696245277804,0.025390625,-0.9729614,0.06951904,-1.03125,-2.015625,-1.109375,219
180,1696245277844,-0.0043945312,-0.9990845,0.062927246,-2.125,-2.53125,-0.53125,220
181,1696245277884,0.014892578,-0.9788208,0.06365967,-2.203125,-1.890625,-0.75,221
182,1696245277924,0.0,-0.9817505,0.06951904,-1.984375,-1.6875,-0.5625,222
183,1696245277964,0.0048828125,-0.9907837,0.07098389,-2.296875,-1.28125,-0.71875,223
184,1696245278004,0.010498047,-0.9932251,0.0914917,-0.71875,-1.546875,-0.4375,224
185,1696245278044,-0.016113281,-0.99053955,0.08441162,-0.125,-1.6875,0.203125,225
186,1696245278084,0.020751953,-0.9846802,0.053649902,-3.25,1.140625,-0.765625,226
187,1696245278124,-0.015136719,-0.9819946,0.082214355,-0.4375,-0.421875,0.21875,227
188,1696245278164,-0.00024414062,-1.0073853,0.08538818,-0.421875,-0.515625,0.0625,228
189,1696245278204,0.0048828125,-0.9788208,0.07757568,-0.9375,0.1875,-0.0625,229
190,1696245278244,-0.0029296875,-0.9849243,0.085876465,-1.375,-0.375,-0.015625,230
191,1696245278284,-0.009765625,-0.9907837,0.08050537,-1.4375,-0.578125,0.453125,231
192,1696245278324,0.0073242188,-0.98760986,0.078308105,-2.03125,-0.421875,0.296875,232
193,1696245278364,0.001953125,-0.98101807,0.08880615,-0.65625,-0.6875,0.34375,233
194,1696245278404,0.0031738281,-0.9951782,0.09320068,-0.796875,-0.4375,0.140625,234
195,1696245278444,0.0021972656,-0.9824829,0.08758545,-0.671875,-0.4375,0.296875,235
196,1696245278484,-0.0012207031,-0.9907837,0.09222412,-0.484375,-0.421875,0.640625,236
197,1696245278524,0.0024414062,-0.98028564,0.09881592,-0.5,-0.53125,0.421875,237
198,1696245278564,0.0007324219,-0.9849243,0.09539795,0.125,-0.625,0.78125,238
199,1696245278604,0.010009766,-1.0003052,0.08416748,-0.890625,-0.234375,-0.140625,239
200,1696245278644,0.012939453,-0.97979736,0.10296631,0.234375,-0.15625,0.65625,240
201,1696245278684,0.0,-0.98809814,0.07489014,-0.25,-1.03125,0.609375,241
202,1696245278724,0.017089844,-0.9829712,0.090270996,1.46875,-1.0,0.796875,242
203,1696245278764,0.0036621094,-0.987854,0.10003662,2.84375,-0.796875,0.578125,243
204,1696245278804,0.011962891,-0.98883057,0.062438965,-1.234375,0.5,0.234375,244
205,1696245278844,0.008300781,-0.9937134,0.09466553,0.8125,-0.390625,0.625,245
206,1696245278884,0.014160156,-0.9932251,0.08905029,0.359375,-0.5,-0.015625,246
207,1696245278924,0.008544922,-0.98272705,0.0848999,0.375,-0.203125,0.359375,247
208,1696245278964,0.0107421875,-0.98809814,0.09197998,0.828125,-0.046875,0.21875,248
209,1696245279004,0.016113281,-0.9907837,0.07684326,0.515625,-0.171875,-0.0625,249
210,1696245279044,-0.0031738281,-1.0044556,0.08514404,0.09375,-0.984375,-0.15625,250
211,1696245279084,0.014160156,-0.97857666,0.08416748,-0.109375,-0.0625,0.171875,251
212,1696245279124,-0.0026855469,-0.9898071,0.09588623,0.796875,-0.5625,0.09375,252
213,1696245279164,0.00390625,-0.9924927,0.07659912,-0.046875,-0.78125,0.171875,253
214,1696245279204,-0.00024414062,-0.973938,0.08758545,1.03125,-0.59375,0.28125,254
215,1696245279244,0.007080078,-0.98931885,0.08685303,0.609375,-0.59375,-0.109375,255
216,1696245279284,0.0017089844,-0.98443604,0.07342529,1.328125,-0.46875,0.421875,256
217,1696245279324,0.0007324219,-0.9990845,0.078552246,0.46875,0.359375,0.171875,257
218,1696245279364,0.0031738281,-0.9890747,0.08074951,0.9375,0.40625,0.296875,258
219,1696245279404,-0.0043945312,-0.9885864,0.08050537,2.125,0.0,0.59375,259
220,1696245279444,-0.0014648438,-0.98809814,0.08538818,1.3125,-0.015625,0.25,260
221,1696245279484,0.011474609,-0.9885864,0.06072998,-0.5,0.234375,0.375,261
222,1696245279524,0.01171875,-0.9824829,0.07220459,0.1875,0.703125,0.015625,262
223,1696245279564,-0.005859375,-1.0027466,0.06561279,0.921875,0.65625,0.609375,263
224,1696245279604,0.013183594,-0.98809814,0.073913574,1.078125,0.765625,0.25,264
225,1696245279644,-0.0075683594,-0.99468994,0.062194824,0.421875,0.375,0.625,265
226,1696245279684,0.013183594,-0.9920044,0.06854248,0.3125,0.734375,0.3125,266
227,1696245279724,0.010253906,-0.9846802,0.062927246,0.25,-0.25,0.265625,267
228,1696245279764,-0.00024414062,-0.99102783,0.06390381,-0.234375,-0.140625,0.65625,268
229,1696245279804,0.021972656,-0.9846802,0.08050537,0.421875,0.015625,0.734375,269
230,1696245279844,-0.0009765625,-0.9951782,0.06732178,0.359375,-0.890625,0.515625,270
231,1696245279884,0.0031738281,-0.9817505,0.058776855,0.296875,-0.671875,0.46875,271
232,1696245279924,0.0041503906,-0.98516846,0.077819824,0.5625,-0.3125,0.78125,272
233,1696245279964,0.005126953,-0.9890747,0.05999756,0.6875,0.203125,0.765625,273
234,1696245280004,0.025878906,-0.98638916,0.06781006,0.03125,0.28125,0.453125,274
235,1696245280044,-0.001953125,-0.9956665,0.06365967,0.96875,-0.578125,0.984375,275
236,1696245280084,0.013671875,-0.9939575,0.07269287,1.171875,-1.4375,0.28125,276
237,1696245280124,0.011230469,-0.98028564,0.074401855,1.109375,-0.890625,0.109375,277
238,1696245280164,0.020019531,-0.9944458,0.05267334,-0.765625,-0.8125,0.140625,278
239,1696245280204,0.022949219,-0.9859009,0.07562256,0.234375,-0.90625,-0.46875,279
240,1696245280244,-0.0068359375,-0.9985962,0.050476074,0.734375,-3.171875,0.6875,280
241,1696245280284,0.006591797,-1.0032349,0.06732178,0.4375,-1.109375,-0.28125,281
242,1696245280324,0.020996094,-0.9783325,0.07293701,0.078125,-1.59375,-0.359375,282
243,1696245280364,-0.0078125,-0.9998169,0.039489746,-2.0,-2.515625,-0.328125,283
244,1696245280404,-0.0034179688,-1.0022583,0.0758667,-1.03125,-1.46875,-0.71875,284
245,1696245280444,0.023925781,-0.9807739,0.05731201,-1.390625,-1.0,-0.78125,285
246,1696245280484,0.0048828125,-0.9771118,0.0758667,-0.625,-1.78125,-0.390625,286
247,1696245280524,-0.0063476562,-0.9924927,0.06976318,-1.71875,-1.59375,-0.15625,287
248,1696245280564,0.010253906,-0.9854126,0.06781006,-1.65625,-0.84375,-0.53125,288
249,1696245280604,-0.0029296875,-0.99298096,0.07562256,-1.140625,-0.921875,-0.21875,289
250,1696245280644,-0.0029296875,-0.99176025,0.08343506,-1.265625,-0.265625,-0.25,290
251,1696245280684,-0.0031738281,-0.99713135,0.07318115,-0.703125,-0.9375,0.40625,291
252,1696245280724,0.020019531,-0.98101807,0.07244873,-1.828125,-0.21875,-0.296875,292
253,1696245280764,-0.0017089844,-0.9949341,0.074157715,-1.125,-0.171875,0.046875,293
254,1696245280804,0.0024414062,-0.9837036,0.07537842,-0.625,-1.109375,0.125,294
255,1696245280844,0.013183594,-0.98028564,0.073913574,-2.359375,0.3125,-0.65625,295
256,1696245280884,-0.01586914,-1.0027466,0.098083496,0.28125,-0.953125,0.375,296
257,1696245280924,-0.0078125,-0.98150635,0.07611084,-1.46875,-0.453125,-0.421875,297
258,1696245280964,0.001953125,-0.97320557,0.08685303,-0.625,-0.234375,0.609375,298
259,1696245281004,0.0017089844,-0.9963989,0.09100342,-0.5,-0.40625,-0.15625,299
260,1696245281044,0.0036621094,-0.989563,0.07611084,1.171875,-1.0,0.140625,300
261,1696245281084,0.008300781,-0.9812622,0.08782959,0.609375,-0.1875,0.4375,301
262,1696245281124,-0.014160156,-0.98931885,0.085632324,0.484375,-0.65625,0.46875,302
263,1696245281164,-0.0017089844,-0.98565674,0.08465576,1.015625,-0.828125,0.609375,303
264,1696245281204,-0.0031738281,-0.9834595,0.08026123,0.65625,-0.453125,0.5625,304
265,1696245281244,0.0031738281,-0.99542236,0.0914917,0.125,-0.671875,0.640625,305
266,1696245281284,-0.00024414062,-0.9824829,0.09197998,0.953125,-0.5625,0.28125,306
267,1696245281324,-0.004638672,-1.0007935,0.06561279,0.203125,-0.640625,0.609375,307
268,1696245281364,0.011962891,-0.98687744,0.09442139,1.53125,-0.296875,0.421875,308
269,1696245281404,0.0034179688,-0.9819946,0.07757568,0.703125,0.171875,0.28125,309
270,1696245281444,-0.0043945312,-0.9973755,0.049743652,0.84375,-0.1875,0.765625,310
271,1696245281484,0.014404297,-0.9956665,0.07684326,0.1875,1.421875,-0.5625,311
272,1696245281524,-0.01171875,-0.98809814,0.09320068,2.3125,-0.53125,1.015625,312
273,1696245281564,-0.017578125,-0.99664307,0.054870605,0.328125,-0.015625,0.375,313
274,1696245281604,0.029296875,-0.9849243,0.07171631,0.515625,0.578125,0.015625,314
275,1696245281644,-0.010498047,-0.98638916,0.066101074,-0.140625,-0.25,0.40625,315
276,1696245281684,0.007080078,-0.9902954,0.059509277,-0.4375,-0.125,0.46875,316
277,1696245281724,0.016113281,-0.9768677,0.0680542,-0.25,0.453125,0.65625,317
278,1696245281764,-0.0026855469,-0.98272705,0.074401855,0.59375,0.203125,0.828125,318
279,1696245281804,-0.0026855469,-0.99420166,0.08099365,0.5,0.125,0.71875,319
280,1696245281844,0.015625,-0.9937134,0.074645996,0.609375,0.328125,0.75,320
281,1696245281884,0.001953125,-0.9883423,0.06976318,0.328125,-0.015625,0.59375,321
282,1696245281924,0.0,-0.9824829,0.06976318,0.8125,-0.015625,1.21875,322
283,1696245281964,0.0036621094,-0.9932251,0.06414795,0.90625,0.828125,1.296875,323
284,1696245282004,0.01586914,-0.9939575,0.06488037,1.6875,-0.078125,0.609375,324
285,1696245282044,0.0014648438,-0.9829712,0.08319092,1.875,-0.34375,0.8125,325
286,1696245282084,0.016113281,-0.9907837,0.038757324,-0.765625,0.03125,0.765625,326
287,1696245282124,0.030517578,-0.9763794,0.06585693,-0.171875,0.015625,-0.21875,327
288,1696245282164,-0.013916016,-1.0059204,0.057800293,0.296875,-0.625,0.640625,328
289,1696245282204,0.009033203,-0.9768677,0.06781006,0.4375,0.390625,0.53125,329
290,1696245282244,0.0068359375,-0.9981079,0.057800293,0.046875,-0.234375,0.578125,330
291,1696245282284,0.021972656,-0.98760986,0.05267334,-0.515625,-0.375,-0.109375,331
292,1696245282324,0.005126953,-0.9849243,0.05340576,-0.921875,-0.40625,0.515625,332
293,1696245282364,0.012207031,-0.987854,0.058288574,-0.5625,-0.3125,0.09375,333
294,1696245282404,0.014160156,-0.989563,0.06854248,0.28125,-0.53125,0.40625,334
295,1696245282444,0.007080078,-0.9890747,0.06732178,0.21875,-0.953125,0.09375,335
296,1696245282484,0.0087890625,-0.98028564,0.06512451,-0.03125,-0.4375,-0.140625,336
297,1696245282524,0.0073242188,-0.9873657,0.06756592,0.015625,-1.09375,0.21875,337
298,1696245282564,0.011474609,-0.9859009,0.070495605,0.484375,-1.140625,-0.078125,338
299,1696245282604,-0.004638672,-0.9949341,0.058532715,0.390625,-2.1875,0.28125,339
300,1696245282644,0.011230469,-1.00177,0.062683105,-0.125,-2.75,-0.421875,340
301,1696245282684,0.008544922,-0.98443604,0.07904053,0.890625,-2.109375,-0.96875,341
302,1696245282724,0.013671875,-0.9927368,0.038757324,-3.640625,-1.3125,-0.6875,342
303,1696245282764,0.0061035156,-0.987854,0.073913574,-0.671875,-1.5,-0.625,343
304,1696245282804,-0.0026855469,-1.0020142,0.06976318,-0.421875,-1.703125,-0.40625,344
305,1696245282844,0.0056152344,-0.9902954,0.06903076,-2.09375,-0.953125,-0.578125,345
306,1696245282884,0.0056152344,-0.95977783,0.070495605,-1.53125,-1.21875,-0.21875,346
307,1696245282924,-0.01171875,-0.9993286,0.08734131,-0.15625,-1.328125,0.171875,347
308,1696245282964,0.012939453,-0.9834595,0.061706543,-2.1875,-0.328125,-0.171875,348
309,1696245283004,-0.0031738281,-0.9776001,0.073913574,-0.765625,-0.359375,-0.125,349
310,1696245283044,-0.005126953,-0.99591064,0.08856201,-1.046875,-0.59375,0.09375,350
311,1696245283084,0.00390625,-0.9939575,0.08026123,-0.9375,-0.296875,-0.015625,351
312,1696245283124,-0.0007324219,-0.9817505,0.08538818,-0.671875,-0.28125,-0.0625,352
313,1696245283164,-0.009277344,-0.9902954,0.07733154,-0.96875,-0.28125,0.203125,353
314,1696245283204,0.005126953,-0.9898071,0.08831787,-0.703125,-0.28125,0.140625,354
315,1696245283244,0.0031738281,-0.986145,0.074157715,-1.296875,0.03125,0.015625,355
316,1696245283284,-0.0048828125,-0.99346924,0.090026855,-0.28125,-0.78125,0.328125,356
317,1696245283324,-0.010498047,-0.9800415,0.09564209,0.578125,-0.96875,0.828125,357
318,1696245283364,0.012939453,-0.9963989,0.045837402,-2.796875,0.890625,-0.5,358
319,1696245283404,-0.0073242188,-0.9849243,0.11053467,0.9375,-0.546875,0.4375,359
320,1696245283444,-0.012939453,-0.9944458,0.07757568,-0.671875,-0.796875,0.359375,360
321,1696245283484,0.01171875,-0.9673462,0.08392334,-0.625,-0.109375,0.359375,361
322,1696245283524,-0.0056152344,-0.9937134,0.08660889,0.0625,-0.328125,0.34375,362
323,1696245283564,0.0007324219,-1.0071411,0.09246826,0.4375,-1.0,0.375,363
324,1696245283604,0.010009766,-0.97052,0.08074951,-0.15625,-0.234375,0.828125,364
325,1696245283644,-0.0073242188,-0.98321533,0.08538818,-0.078125,-0.46875,0.984375,365
326,1696245283684,0.010498047,-0.99713135,0.0848999,0.578125,-0.96875,0.40625,366
327,1696245283724,0.0056152344,-0.9800415,0.0758667,1.203125,-0.1875,0.65625,367
328,1696245283764,0.0029296875,-0.9771118,0.089538574,1.25,-0.625,0.859375,368
329,1696245283804,0.0078125,-0.9866333,0.0836792,1.171875,-0.609375,0.578125,369
330,1696245283844,0.010986328,-0.986145,0.078063965,1.515625,-0.671875,0.890625,370
331,1696245283884,0.009033203,-0.98638916,0.06976318,0.484375,-0.203125,0.484375,371
332,1696245283924,0.00390625,-1.0007935,0.09173584,1.15625,-0.703125,0.703125,372
333,1696245283964,0.01171875,-0.98687744,0.08538818,2.125,-0.875,0.859375,373
334,1696245284004,0.02758789,-0.97735596,0.053894043,-1.1875,0.96875,-0.015625,374
335,1696245284044,-0.0031738281,-0.9924927,0.08026123,1.421875,-0.8125,0.671875,375
336,1696245284084,0.0075683594,-1.0081177,0.06951904,1.8125,-0.484375,0.78125,376
337,1696245284124,0.018066406,-0.9663696,0.06341553,1.859375,0.125,0.578125,377
338,1696245284164,0.0,-0.99346924,0.070007324,1.875,0.0625,0.703125,378
339,1696245284204,0.013427734,-1.000061,0.0836792,2.78125,-0.09375,0.328125,379
340,1696245284244,0.018798828,-0.9883423,0.066833496,1.5625,0.625,1.03125,380
341,1696245284284,0.0075683594,-0.9834595,0.058044434,0.46875,0.0,1.140625,381
342,1696245284324,0.0043945312,-0.9873657,0.06097412,1.21875,0.875,1.53125,382
343,1696245284364,0.01928711,-0.98931885,0.06317139,1.90625,1.5,1.0,383
344,1696245284404,0.0075683594,-0.98883057,0.06365967,1.328125,1.1875,1.03125,384
345,1696245284444,0.024902344,-0.98809814,0.041931152,1.453125,1.03125,1.140625,385
346,1696245284484,0.018066406,-0.99102783,0.047302246,1.15625,1.109375,1.25,386
347,1696245284524,0.020263672,-0.98687744,0.04046631,0.734375,1.359375,1.109375,387
348,1696245284564,0.014892578,-0.99420166,0.051208496,1.5,-0.0625,1.203125,388
349,1696245284604,0.026855469,-0.98443604,0.059509277,1.90625,-0.21875,0.65625,389
350,1696245284644,0.032958984,-0.98638916,0.024841309,0.03125,0.8125,0.765625,390
351,1696245284684,0.02319336,-0.9727173,0.050476074,0.90625,-0.5,0.625,391
352,1696245284724,0.010986328,-0.99664307,0.036071777,0.953125,-0.0625,0.609375,392
353,1696245284764,0.04663086,-0.989563,0.038757324,0.046875,-0.21875,-0.40625,393
354,1696245284804,0.022216797,-0.98687744,0.04046631,0.40625,-1.765625,0.265625,394
355,1696245284844,0.021484375,-0.99346924,0.049987793,-0.25,-2.203125,0.0625,395
356,1696245284884,0.016601562,-0.99298096,0.03338623,-2.046875,-3.03125,-0.515625,396
357,1696245284924,0.013427734,-0.9702759,0.03753662,-3.078125,-2.859375,-1.640625,397
358,1696245284964,0.011230469,-0.9871216,0.061706543,-2.734375,-2.890625,-1.703125,398
359,1696245285004,0.011230469,-1.0032349,0.051452637,-3.046875,-2.78125,-1.21875,399
360,1696245285044,0.018066406,-0.989563,0.057800293,-2.640625,-1.28125,-1.359375,400
361,1696245285084,0.021240234,-0.97784424,0.06072998,-2.21875,-1.484375,-0.375,401
362,1696245285124,0.010253906,-0.9854126,0.062438965,-2.015625,-1.078125,-0.1875,402
363,1696245285164,0.0126953125,-0.98687744,0.07244873,-1.359375,-0.921875,-0.046875,403
364,1696245285204,0.009277344,-0.9854126,0.058288574,-2.015625,-0.625,0.078125,404
365,1696245285244,0.015380859,-0.9907837,0.07562256,-1.5625,-0.5625,0.125,405
366,1696245285284,0.013671875,-0.98516846,0.0848999,-0.375,-0.5625,0.53125,406
367,1696245285324,0.013427734,-0.97979736,0.047790527,-2.609375,0.3125,0.28125,407
368,1696245285364,0.0029296875,-1.0071411,0.08538818,-0.140625,-0.5625,0.0,408
369,1696245285404,0.01953125,-0.98272705,0.074157715,-1.140625,-0.046875,0.171875,409
370,1696245285444,0.00048828125,-0.97369385,0.07879639,-0.859375,-0.453125,0.265625,410
371,1696245285484,0.017089844,-0.9944458,0.08465576,-0.5,-1.0,-0.046875,411
372,1696245285524,0.0014648438,-0.98443604,0.09075928,0.328125,-0.671875,0.328125,412
373,1696245285564,0.021240234,-0.99053955,0.070007324,-1.953125,0.03125,0.234375,413
374,1696245285604,0.009033203,-0.9927368,0.08416748,-0.859375,-0.6875,0.203125,414
375,1696245285644,0.009033203,-0.99542236,0.09051514,-0.4375,-0.75,0.296875,415
376,1696245285684,0.011962891,-0.9763794,0.08001709,-0.296875,-0.59375,0.359375,416
377,1696245285724,0.009521484,-0.98443604,0.085876465,-0.265625,-0.484375,0.34375,417
378,1696245285764,0.00390625,-0.975647,0.08392334,-0.484375,-0.75,0.296875,418
379,1696245285804,0.013916016,-0.9819946,0.093933105,-0.640625,-0.046875,0.46875,419
380,1696245285844,0.016845703,-0.9898071,0.074401855,-0.8125,-0.390625,0.03125,420
381,1696245285884,0.0075683594,-0.99713135,0.08734131,1.265625,-1.84375,0.5,421
382,1696245285924,0.01586914,-0.97857666,0.097351074,0.859375,-0.71875,0.453125,422
383,1696245285964,0.022460938,-0.9841919,0.04559326,-1.203125,0.0625,0.375,423
384,1696245286004,0.0061035156,-0.99957275,0.089538574,0.53125,-0.53125,0.328125,424
385,1696245286044,0.021484375,-0.975647,0.08880615,0.59375,-0.859375,0.40625,425
386,1696245286084,-0.0014648438,-0.9793091,0.08026123,0.5,-0.953125,0.71875,426
387,1696245286124,0.016845703,-0.9939575,0.08343506,-0.234375,-0.375,0.109375,427
388,1696245286164,0.022705078,-0.98028564,0.0758667,0.703125,-0.671875,-0.078125,428
389,1696245286204,-0.00024414062,-0.9915161,0.078063965,0.921875,-1.3125,0.09375,429
390,1696245286244,0.016113281,-0.989563,0.07684326,0.1875,-0.34375,0.34375,430
391,1696245286284,0.005859375,-0.989563,0.08392334,0.6875,-0.046875,0.28125,431
392,1696245286324,0.009033203,-0.9932251,0.07952881,0.953125,-0.625,0.15625,432
393,1696245286364,0.01586914,-0.9829712,0.082458496,1.1875,-0.234375,0.078125,433
394,1696245286404,0.0043945312,-0.9763794,0.066101074,1.71875,-0.671875,0.96875,434
395,1696245286444,0.021484375,-1.0076294,0.059020996,0.65625,0.125,-0.40625,435
396,1696245286484,0.034423828,-0.9824829,0.07733154,0.96875,0.09375,-0.25,436
397,1696245286524,-0.010009766,-0.9873657,0.06878662,0.1875,-0.46875,0.265625,437
398,1696245286564,0.013427734,-0.99957275,0.062927246,0.234375,-0.125,0.171875,438
399,1696245286604,0.00390625,-0.9976196,0.08709717,2.609375,-1.296875,0.796875,439
400,1696245286644,0.012939453,-0.97784424,0.035095215,-1.796875,1.109375,-0.125,440
401,1696245286684,0.011474609,-0.9907837,0.08123779,2.234375,-0.21875,0.390625,441
402,1696245286724,0.005126953,-0.9951782,0.05682373,0.953125,0.0625,0.421875,442
403,1696245286764,0.024658203,-0.9697876,0.06488037,0.84375,0.515625,0.546875,443
404,1696245286804,0.0048828125,-0.99346924,0.06365967,0.4375,0.296875,0.8125,444
405,1696245286844,0.01977539,-0.98101807,0.07635498,0.9375,0.640625,0.40625,445
406,1696245286884,0.018066406,-0.9907837,0.058776855,0.625,0.453125,0.71875,446
407,1696245286924,0.0146484375,-0.9866333,0.059265137,0.03125,0.4375,0.65625,447
408,1696245286964,0.010986328,-0.98687744,0.06781006,0.375,0.046875,0.796875,448
409,1696245287004,0.009521484,-0.9976196,0.051208496,1.078125,-0.109375,0.640625,449
410,1696245287044,0.020507812,-0.9890747,0.0680542,1.5,0.734375,0.578125,450
411,1696245287084,0.014404297,-0.9932251,0.04852295,0.609375,0.5,0.546875,451
412,1696245287124,0.012207031,-0.98883057,0.055114746,0.734375,0.3125,0.515625,452
413,1696245287164,0.020751953,-0.987854,0.05267334,0.25,0.265625,0.671875,453
414,1696245287204,0.028564453,-0.9758911,0.049743652,0.9375,-0.078125,0.40625,454
415,1696245287244,-0.006591797,-0.99884033,0.053649902,1.59375,-1.3125,1.0625,455
416,1696245287284,0.021484375,-0.98687744,0.061706543,1.59375,-0.125,0.3125,456
417,1696245287324,0.029296875,-0.986145,0.03314209,-0.03125,0.40625,0.484375,457
418,1696245287364,0.018554688,-0.9805298,0.047058105,0.34375,0.203125,-0.109375,458
419,1696245287404,0.020996094,-0.9981079,0.051452637,0.96875,-0.296875,0.5625,459
420,1696245287444,0.017578125,-0.9846802,0.044128418,0.359375,-0.40625,-0.15625,460
421,1696245287484,0.017822266,-0.9883423,0.047302246,-0.046875,-0.703125,0.484375,461
422,1696245287524,0.018798828,-0.9885864,0.04559326,0.765625,-1.453125,0.15625,462
423,1696245287564,0.024902344,-0.9871216,0.05316162,-0.78125,-2.125,-0.203125,463
424,1696245287604,0.013916016,-0.9883423,0.043151855,-0.96875,-2.59375,-0.4375,464
425,1696245287644,0.037353516,-0.9824829,0.04559326,2.015625,-2.953125,-0.640625,465
426,1696245287684,0.011230469,-1.006897,0.045837402,0.65625,-2.625,-0.03125,466
427,1696245287724,0.0029296875,-0.986145,0.047058105,-0.03125,-2.5625,-0.53125,467
428,1696245287764,0.0056152344,-0.9817505,0.03778076,-1.171875,-2.296875,0.015625,468
429,1696245287804,0.016845703,-0.98883057,0.047302246,-1.234375,-1.625,-0.28125,469
430,1696245287844,0.009033203,-0.9963989,0.04949951,-3.1875,-1.21875,-0.796875,470
431,1696245287884,-0.0048828125,-0.9949341,0.05657959,-4.15625,-0.015625,-0.03125,471
432,1696245287924,0.022949219,-0.9819946,0.061950684,-3.421875,0.125,-0.4375,472
433,1696245287964,0.02368164,-0.9990845,0.06488037,-3.25,0.28125,-0.109375,473
434,1696245288004,0.016845703,-0.99005127,0.06121826,-1.59375,-1.234375,0.0,474
435,1696245288044,0.01953125,-0.9768677,0.051208496,-3.4375,0.921875,-0.4375,475
436,1696245288084,-0.00024414062,-1.0005493,0.08782959,-0.28125,-0.75,0.625,476
437,1696245288124,0.014404297,-0.9885864,0.06439209,-1.71875,-0.203125,0.078125,477
438,1696245288164,0.011230469,-0.97857666,0.07269287,-1.359375,-0.015625,0.078125,478
439,1696245288204,0.0026855469,-0.987854,0.0692749,-1.0,-0.296875,0.328125,479
440,1696245288244,0.020507812,-0.9976196,0.07684326,-0.140625,-0.640625,-0.09375,480
441,1696245288284,0.014892578,-0.9812622,0.07366943,-0.921875,-0.296875,0.234375,481
442,1696245288324,0.010253906,-0.9902954,0.08123779,-0.40625,-0.703125,0.265625,482
443,1696245288364,0.0075683594,-0.9981079,0.08026123,-0.828125,-0.5,0.15625,483
444,1696245288404,0.0234375,-0.98028564,0.08807373,0.046875,-0.5,0.3125,484
445,1696245288444,0.020507812,-0.97857666,0.08319092,0.15625,-1.078125,0.46875,485
446,1696245288484,0.011962891,-0.9807739,0.0692749,-0.25,-0.796875,0.296875,486
447,1696245288524,0.017089844,-0.98394775,0.077819824,0.65625,-0.9375,0.265625,487
448,1696245288564,0.010498047,-0.9944458,0.08319092,0.5,-0.453125,0.234375,488
449,1696245288604,0.005859375,-0.9807739,0.094177246,1.421875,-0.71875,0.40625,489
450,1696245288644,0.017089844,-0.9805298,0.07977295,-1.078125,0.203125,-0.015625,490
451,1696245288684,0.011962891,-0.9873657,0.050231934,-1.09375,-0.859375,0.484375,491
452,1696245288724,0.014404297,-0.98809814,0.08856201,-0.078125,0.390625,0.109375,492
453,1696245288764,0.0034179688,-0.9849243,0.09100342,0.421875,-1.125,0.28125,493
454,1696245288804,0.016601562,-0.9834595,0.06976318,-0.625,-0.234375,-0.328125,494
455,1696245288844,0.010253906,-0.9915161,0.07122803,-0.4375,-0.015625,0.03125,495
456,1696245288884,0.014160156,-0.99664307,0.07928467,-0.390625,-0.28125,-0.171875,496
457,1696245288924,0.020996094,-0.98760986,0.082214355,-0.21875,-0.90625,0.0,497
458,1696245288964,0.0041503906,-0.98223877,0.07928467,-0.09375,-0.484375,0.46875,498
459,1696245289004,0.00390625,-0.99176025,0.085632324,-0.5625,-0.40625,0.265625,499
460,1696245289044,0.015625,-0.97857666,0.08514404,0.46875,-0.59375,0.0625,500
461,1696245289084,0.0041503906,-0.99786377,0.07293701,-0.15625,-0.59375,-0.203125,501
462,1696245289124,0.022705078,-0.97442627,0.078552246,0.09375,-0.15625,0.390625,502
463,1696245289164,0.0043945312,-0.9873657,0.07977295,-0.078125,-0.328125,0.484375,503
464,1696245289204,0.010009766,-0.991272,0.090026855,0.25,-0.296875,0.265625,504
465,1696245289244,0.0063476562,-0.99224854,0.07562256,-0.15625,-0.359375,-0.015625,505
466,1696245289284,0.0036621094,-0.9956665,0.0836792,0.125,-1.390625,0.09375,506
467,1696245289324,0.0078125,-0.9768677,0.10491943,2.25,-1.375,0.640625,507
468,1696245289364,0.010498047,-0.98638916,0.047546387,-2.109375,0.828125,-0.21875,508
469,1696245289404,0.009521484,-0.9920044,0.09100342,0.296875,0.109375,0.46875,509
470,1696245289444,0.0056152344,-0.9920044,0.08319092,0.0625,-0.796875,-0.28125,510
471,1696245289484,0.014404297,-0.9902954,0.078552246,-0.78125,0.0,-0.25,511
472,1696245289524,-0.0014648438,-0.9829712,0.08050537,0.078125,-0.75,0.125,512
473,1696245289564,0.0073242188,-0.98028564,0.085632324,0.640625,-0.875,0.0625,513
474,1696245289604,0.0012207031,-0.9924927,0.0680542,-0.46875,-0.34375,0.0,514
475,1696245289644,0.009765625,-0.9800415,0.08026123,0.015625,0.203125,0.125,515
476,1696245289684,0.00048828125,-0.989563,0.085632324,0.46875,-0.90625,0.234375,516
477,1696245289724,0.0126953125,-0.98638916,0.07562256,0.109375,-1.046875,0.265625,517
478,1696245289764,0.0017089844,-0.99176025,0.08343506,0.71875,-1.0,0.265625,518
479,1696245289804,-0.00390625,-0.9885864,0.07366943,-0.484375,-0.6875,-0.15625,519
480,1696245289844,0.0053710938,-0.98760986,0.08465576,-0.90625,-0.46875,0.140625,520
481,1696245289884,0.0036621094,-0.97784424,0.06854248,-0.84375,-0.40625,0.140625,521
482,1696245289924,0.00390625,-0.98760986,0.07879639,-0.140625,-1.40625,0.5,522
483,1696245289964,0.0034179688,-0.99224854,0.093688965,1.34375,-1.203125,0.671875,523
484,1696245290004,0.014892578,-0.9854126,0.05633545,-1.953125,1.078125,0.203125,524
485,1696245290044,0.0029296875,-0.9968872,0.09466553,0.734375,0.09375,0.609375,525
486,1696245290084,0.013671875,-0.98150635,0.07366943,0.078125,-0.46875,0.15625,526
487,1696245290124,0.010253906,-0.98101807,0.078552246,-0.09375,-0.0625,0.546875,527
488,1696245290164,-0.0017089844,-0.99957275,0.08074951,0.375,-0.671875,0.328125,528
489,1696245290204,0.01586914,-0.9807739,0.093688965,0.34375,-0.765625,0.015625,529
490,1696245290244,0.0078125,-0.99102783,0.07171631,-0.21875,-0.609375,0.359375,530
491,1696245290284,0.0043945312,-0.9795532,0.06854248,-0.125,-0.21875,0.25,531
492,1696245290324,0.010986328,-1.0010376,0.07977295,-0.03125,-0.578125,-0.28125,532
493,1696245290364,-0.0029296875,-0.96710205,0.07147217,0.375,-0.546875,0.265625,533
494,1696245290404,0.012207031,-0.99176025,0.0836792,-0.0625,-1.078125,0.109375,534
495,1696245290444,0.0087890625,-0.9866333,0.07904053,0.734375,-0.65625,0.203125,535
496,1696245290484,0.011962891,-0.98223877,0.077819824,0.296875,-0.828125,-0.03125,536
497,1696245290524,0.0061035156,-0.97052,0.07733154,-0.125,-0.375,0.171875,537
498,1696245290564,0.0029296875,-0.9927368,0.07098389,0.0,-0.65625,0.65625,538
499,1696245290604,-0.005859375,-1.0032349,0.08685303,1.78125,-1.5625,0.5625,539
500,1696245290644,0.02734375,-0.9834595,0.047790527,-2.34375,2.359375,-0.265625,540
501,1696245290684,-0.008544922,-1.003479,0.08831787,0.359375,0.0625,0.296875,541
502,1696245290724,0.014892578,-0.98931885,0.07757568,0.296875,0.375,-0.53125,542
503,1696245290764,0.016601562,-0.9663696,0.07904053,-0.34375,-0.28125,-0.078125,543
504,1696245290804,-0.016357422,-1.0078735,0.08392334,0.484375,-1.203125,0.453125,544
505,1696245290844,0.014892578,-0.9898071,0.08538818,0.171875,-1.0625,-0.59375,545
506,1696245290884,-0.0041503906,-0.989563,0.074157715,-0.828125,-0.265625,-0.296875,546
507,1696245290924,0.0007324219,-0.9741821,0.08294678,-0.375,0.03125,0.359375,547
508,1696245290964,-0.00048828125,-1.0007935,0.082214355,0.484375,-0.640625,0.6875,548
509,1696245291004,0.008544922,-0.9824829,0.07489014,-0.15625,-0.1875,0.328125,549
510,1696245291044,-0.001953125,-0.9873657,0.07904053,-0.640625,0.0,0.359375,550
511,1696245291084,0.008300781,-0.99224854,0.07659912,-0.078125,0.0625,0.734375,551
512,1696245291124,0.013183594,-0.99298096,0.07489014,-0.078125,0.25,0.15625,552
513,1696245291164,-0.016601562,-0.9956665,0.08319092,1.796875,-1.8125,1.0,553
514,1696245291204,0.013427734,-0.9800415,0.07928467,0.96875,-0.375,0.3125,554
515,1696245291244,0.010009766,-0.9841919,0.04852295,-1.46875,1.109375,0.40625,555
516,1696245291284,0.016601562,-0.9846802,0.08001709,0.59375,0.4375,0.546875,556
517,1696245291324,-0.0036621094,-0.9976196,0.07977295,1.453125,-0.15625,0.6875,557
518,1696245291364,0.018310547,-0.98443604,0.07122803,0.765625,0.25,0.421875,558
519,1696245291404,0.0126953125,-0.9915161,0.07366943,0.25,0.09375,0.515625,559
520,1696245291444,0.016601562,-0.98565674,0.07977295,1.421875,-0.28125,0.796875,560
521,1696245291484,0.009033203,-0.9963989,0.070739746,-0.15625,-0.296875,0.453125,561
522,1696245291524,0.0078125,-0.9807739,0.06781006,-0.390625,0.234375,0.234375,562
523,1696245291564,0.011962891,-0.9927368,0.08123779,0.328125,0.09375,0.328125,563
524,1696245291604,0.009033203,-0.9883423,0.07122803,0.515625,-0.078125,0.234375,564
525,1696245291644,0.0007324219,-0.9805298,0.07269287,0.4375,-1.15625,0.75,565
526,1696245291684,0.0068359375,-1.0003052,0.06951904,0.125,-0.28125,0.15625,566
527,1696245291724,0.010253906,-0.9907837,0.06561279,0.046875,-0.15625,0.21875,567
528,1696245291764,0.0034179688,-0.9902954,0.07562256,1.71875,-0.75,0.6875,568
529,1696245291804,0.0234375,-0.9841919,0.082214355,0.6875,0.09375,0.046875,569
530,1696245291844,0.0063476562,-0.97979736,0.05340576,-0.171875,-0.40625,0.5625,570
531,1696245291884,0.015136719,-0.9871216,0.07220459,0.109375,0.109375,0.109375,571
532,1696245291924,0.01171875,-0.987854,0.07366943,1.390625,-0.671875,0.265625,572
533,1696245291964,0.0024414062,-0.9871216,0.062683105,0.3125,-0.1875,-0.03125,573
534,1696245292004,0.010009766,-0.9849243,0.061950684,-0.03125,-0.078125,0.40625,574
535,1696245292044,0.018066406,-0.99884033,0.07318115,0.234375,0.125,0.234375,575
536,1696245292084,0.014160156,-0.9854126,0.06488037,-0.234375,-0.3125,-0.125,576
537,1696245292124,0.0063476562,-0.9849243,0.05999756,-0.28125,-0.265625,0.25,577
538,1696245292164,0.0036621094,-0.99420166,0.07562256,-0.109375,-0.421875,0.390625,578
539,1696245292204,0.00024414062,-0.98638916,0.0602417,0.140625,-0.296875,0.59375,579
540,1696245292244,0.0126953125,-0.9805298,0.073913574,0.21875,0.1875,0.390625,580
541,1696245292284,0.0063476562,-0.9817505,0.07147217,0.703125,0.21875,0.734375,581
542,1696245292324,0.007080078,-0.9898071,0.07098389,-0.078125,-0.203125,0.34375,582
543,1696245292364,0.015625,-0.986145,0.05706787,0.03125,-0.0625,0.671875,583
544,1696245292404,0.0073242188,-0.99420166,0.05682373,-0.046875,-1.015625,0.453125,584
545,1696245292444,0.0126953125,-0.99176025,0.07293701,1.0625,-0.734375,0.515625,585
546,1696245292484,0.024414062,-0.99468994,0.050964355,-1.859375,0.390625,0.03125,586
547,1696245292524,0.015136719,-0.9795532,0.07635498,1.25,-1.171875,0.25,587
548,1696245292564,0.0007324219,-1.0015259,0.0602417,-0.53125,-1.71875,-0.5625,588
549,1696245292604,0.0063476562,-0.9763794,0.06439209,-0.125,-1.59375,0.15625,589
550,1696245292644,0.012451172,-1.0046997,0.06414795,-0.875,-1.65625,-0.40625,590
551,1696245292684,0.016845703,-0.9932251,0.059265137,-0.296875,-1.78125,-0.734375,591
552,1696245292724,0.0078125,-0.99053955,0.06585693,-1.859375,-1.65625,-0.421875,592
553,1696245292764,0.008056641,-0.99053955,0.06951904,-0.875,-1.421875,-0.1875,593
554,1696245292804,0.01586914,-0.9927368,0.078552246,-0.25,-1.859375,-0.15625,594
555,1696245292844,0.011474609,-0.98223877,0.06512451,-0.578125,-2.046875,0.078125,595
556,1696245292884,0.0063476562,-0.9859009,0.07122803,-1.0625,-1.265625,-0.140625,596
557,1696245292924,0.00024414062,-0.9854126,0.06756592,-0.6875,-1.390625,0.21875,597
558,1696245292964,-0.00048828125,-0.9973755,0.06463623,-0.734375,-0.953125,0.0625,598
559,1696245293004,0.0126953125,-0.9788208,0.08441162,-0.375,-0.421875,0.109375,599
560,1696245293044,-0.0012207031,-0.9849243,0.06072998,-1.0625,-0.71875,0.171875,600
561,1696245293084,-0.0007324219,-0.9920044,0.07733154,0.03125,-1.375,0.71875,601
562,1696245293124,0.008300781,-0.9902954,0.07879639,-0.125,-1.046875,0.546875,602
563,1696245293164,0.025634766,-0.9932251,0.054626465,-3.046875,1.59375,-0.625,603
564,1696245293204,-0.0073242188,-0.99102783,0.09954834,0.9375,-0.484375,0.671875,604
565,1696245293244,0.01171875,-0.9976196,0.07659912,-0.59375,-0.46875,-0.0625,605
566,1696245293284,0.01977539,-0.9758911,0.07611084,-0.90625,-0.109375,-0.09375,606
567,1696245293324,0.0043945312,-0.99542236,0.08465576,-0.65625,-0.578125,0.03125,607
568,1696245293364,0.0126953125,-0.9927368,0.07537842,-0.78125,-1.28125,-0.15625,608
569,1696245293404,0.018066406,-0.97247314,0.08538818,-0.890625,-0.03125,0.140625,609
570,1696245293444,0.0043945312,-0.97540283,0.0993042,0.65625,-0.59375,0.609375,610
571,1696245293484,-0.0031738281,-0.9998169,0.07562256,-0.5,-1.296875,-0.03125,611
572,1696245293524,0.010986328,-0.9837036,0.081726074,-0.234375,-0.0625,0.171875,612
573,1696245293564,0.009765625,-0.99053955,0.0836792,0.5625,-0.5625,0.46875,613
574,1696245293604,0.0068359375,-0.99053955,0.077819824,-0.09375,-0.546875,0.453125,614
575,1696245293644,0.0073242188,-0.9793091,0.08392334,0.296875,-0.6875,0.4375,615
576,1696245293684,0.0043945312,-0.9829712,0.08441162,0.359375,-0.4375,0.59375,616
577,1696245293724,-0.0012207031,-0.9841919,0.07489014,-0.0625,-0.734375,0.21875,617
578,1696245293764,0.0061035156,-0.9973755,0.07952881,0.015625,-0.375,0.375,618
579,1696245293804,0.005126953,-0.98272705,0.07147217,0.9375,-1.421875,0.609375,619
580,1696245293844,0.015380859,-0.98565674,0.07269287,-0.828125,1.1875,-0.078125,620
581,1696245293884,0.009277344,-0.9937134,0.10028076,2.078125,0.0,0.828125,621
582,1696245293924,-0.012451172,-0.9807739,0.07489014,1.390625,-0.484375,0.734375,622
583,1696245293964,0.02319336,-0.98394775,0.0758667,0.59375,0.46875,0.21875,623
584,1696245294004,0.0126953125,-0.9920044,0.07220459,0.359375,-0.46875,0.125,624
585,1696245294044,0.014160156,-0.99468994,0.06732178,0.84375,-0.703125,0.5,625
586,1696245294084,0.021240234,-0.9854126,0.06536865,-0.578125,0.125,0.203125,626
587,1696245294124,0.004638672,-0.98516846,0.07220459,1.0,0.03125,0.765625,627
588,1696245294164,0.011230469,-0.98883057,0.08148193,0.859375,-0.359375,0.8125,628
589,1696245294204,0.0043945312,-0.99053955,0.06854248,-0.046875,-0.21875,0.28125,629
590,1696245294244,0.016113281,-0.99005127,0.07342529,0.34375,0.28125,0.203125,630
591,1696245294284,0.008056641,-0.98443604,0.07611084,0.15625,0.125,0.046875,631
592,1696245294324,0.010986328,-0.9873657,0.059509277,0.0,0.140625,0.4375,632
593,1696245294364,0.009521484,-0.97857666,0.06878662,0.625,0.265625,0.609375,633
594,1696245294404,0.0014648438,-0.9915161,0.070007324,0.421875,0.0,0.828125,634
595,1696245294444,0.0087890625,-0.98883057,0.085632324,1.53125,-0.296875,0.890625,635
596,1696245294484,0.0078125,-0.98150635,0.08026123,0.453125,0.3125,0.140625,636
597,1696245294524,0.017822266,-0.98931885,0.054870605,-0.1875,0.09375,0.96875,637
598,1696245294564,0.029541016,-0.9729614,0.06854248,0.109375,0.71875,0.28125,638
599,1696245294604,-0.0078125,-0.9939575,0.07757568,2.0625,-0.828125,1.453125,639
600,1696245294644,0.016357422,-0.9819946,0.0680542,0.96875,0.453125,0.28125,640
601,1696245294684,0.024169922,-0.98565674,0.059509277,0.03125,0.328125,0.75,641
602,1696245294724,0.0043945312,-0.98760986,0.05657959,-0.09375,-0.234375,0.515625,642
603,1696245294764,0.022460938,-0.9937134,0.05706787,-0.46875,-0.34375,0.453125,643
604,1696245294804,0.02368164,-0.986145,0.055358887,-0.328125,0.328125,0.40625,644
605,1696245294844,0.0075683594,-0.9834595,0.07244873,0.96875,0.015625,1.0,645
606,1696245294884,0.015625,-0.9920044,0.061950684,0.328125,-0.40625,0.5625,646
607,1696245294924,0.0146484375,-0.97784424,0.05609131,-0.046875,0.1875,0.1875,647
608,1696245294964,0.01953125,-0.98809814,0.066833496,0.421875,0.140625,0.71875,648
609,1696245295004,0.021728516,-0.99664307,0.06463623,0.09375,-0.109375,-0.015625,649
610,1696245295044,0.02368164,-0.9854126,0.06097412,1.0,0.15625,0.4375,650
611,1696245295084,0.013183594,-0.99176025,0.0602417,0.625,-0.046875,0.453125,651
612,1696245295124,0.020996094,-0.9854126,0.061950684,0.546875,0.109375,0.3125,652
613,1696245295164,0.013916016,-0.9805298,0.066101074,0.859375,-0.125,0.71875,653
614,1696245295204,0.026855469,-0.987854,0.048034668,-0.328125,0.828125,0.234375,654
615,1696245295244,0.02368164,-0.98272705,0.039978027,0.390625,-0.875,0.65625,655
616,1696245295284,0.024169922,-0.97247314,0.050964355,0.171875,0.078125,0.328125,656
617,1696245295324,0.025390625,-0.99102783,0.06512451,1.03125,-0.46875,0.53125,657
618,1696245295364,0.0234375,-0.98931885,0.050476074,0.265625,-0.328125,-0.609375,658
619,1696245295404,0.014892578,-0.9846802,0.053649902,0.0625,-0.875,0.390625,659
620,1696245295444,0.005126953,-0.99053955,0.07293701,-0.953125,-0.03125,0.3125,691
621,1696245295484,0.0078125,-0.99176025,0.10296631,0.109375,-0.3125,0.859375,692
622,1696245295524,0.0048828125,-0.987854,0.08709717,-0.171875,-0.703125,-0.171875,693
623,1696245295564,0.009521484,-0.97540283,0.09222412,0.390625,-0.65625,0.90625,694
624,1696245295604,-0.0031738281,-0.9924927,0.086364746,0.890625,-1.09375,0.609375,695
625,1696245295644,0.016113281,-0.9902954,0.08441162,1.0625,-1.1875,0.3125,696
626,1696245295684,0.009521484,-0.9824829,0.08148193,0.890625,-0.328125,0.21875,697
627,1696245295724,0.0048828125,-0.9834595,0.086364746,0.84375,-0.34375,0.34375,698
628,1696245295764,0.0075683594,-0.9873657,0.08343506,1.6875,-0.625,0.28125,699
629,1696245295804,0.010986328,-0.98687744,0.073913574,1.21875,-0.40625,0.34375,700
630,1696245295844,0.0007324219,-0.9920044,0.081726074,1.359375,-0.484375,0.421875,701
631,1696245295884,0.006591797,-0.9800415,0.07635498,1.203125,0.046875,0.203125,702
632,1696245295924,-0.00048828125,-0.9819946,0.07659912,1.40625,-0.875,0.75,703
633,1696245295964,0.017333984,-0.98150635,0.06707764,0.46875,-0.078125,0.015625,704
634,1696245296004,-0.0009765625,-0.9924927,0.0848999,2.890625,-1.34375,0.421875,705
635,1696245296044,0.009033203,-0.9819946,0.07366943,1.171875,0.1875,-0.125,706
636,1696245296084,0.017089844,-0.98321533,0.05731201,-0.09375,0.0625,0.125,707
637,1696245296124,0.0087890625,-0.9846802,0.07537842,0.21875,-0.046875,0.421875,708
638,1696245296164,-0.011474609,-1.0049438,0.07611084,1.734375,-0.890625,1.171875,709
639,1696245296204,0.014404297,-0.98394775,0.06585693,1.15625,0.46875,-0.0625,710
640,1696245296244,0.008300781,-0.98883057,0.06512451,0.625,-0.234375,0.34375,711
641,1696245296284,0.010498047,-0.9883423,0.062683105,0.078125,-0.5,0.578125,712
642,1696245296324,0.005126953,-0.99102783,0.06829834,0.03125,-0.921875,0.125,713
643,1696245296364,0.017333984,-0.9885864,0.059020996,-0.171875,-0.015625,0.140625,714
644,1696245296404,0.0061035156,-0.9854126,0.070007324,0.34375,-0.28125,0.234375,715
645,1696245296444,0.0056152344,-0.99102783,0.061706543,0.40625,-0.296875,0.234375,716
646,1696245296484,0.012451172,-0.9920044,0.06048584,0.109375,0.140625,0.40625,717
647,1696245296524,0.016845703,-0.9834595,0.06414795,1.046875,-0.59375,1.0625,718
648,1696245296564,-0.0041503906,-0.9968872,0.047058105,0.625,-0.4375,0.40625,719
649,1696245296604,0.03173828,-0.9907837,0.055603027,-0.203125,0.5625,0.09375,720
650,1696245296644,0.007080078,-0.9837036,0.0602417,0.0,-0.609375,0.171875,721
651,1696245296684,0.014892578,-0.99298096,0.048034668,-0.90625,-0.046875,0.015625,722
652,1696245296724,0.0026855469,-0.987854,0.07122803,1.546875,-0.953125,1.078125,723
653,1696245296764,0.022949219,-0.9885864,0.042663574,-1.140625,0.6875,0.09375,724
654,1696245296804,0.014404297,-0.9793091,0.0680542,0.90625,-0.125,0.40625,725
655,1696245296844,0.0043945312,-0.9990845,0.055114746,0.9375,-0.6875,0.21875,726
656,1696245296884,0.023925781,-0.9795532,0.058776855,0.34375,-0.296875,-0.15625,727
657,1696245296924,0.008056641,-0.9927368,0.053649902,0.109375,-0.109375,0.640625,728
658,1696245296964,0.02319336,-0.99176025,0.06781006,0.921875,-0.484375,0.390625,729
659,1696245297004,0.011962891,-0.9849243,0.04901123,-0.234375,-0.328125,0.453125,730
660,1696245297044,0.011230469,-0.98443604,0.06707764,0.109375,-0.25,0.546875,731
661,1696245297084,-0.00024414062,-0.98883057,0.049987793,0.390625,-0.8125,0.6875,732
662,1696245297124,0.03149414,-0.989563,0.051208496,-0.265625,-0.03125,-0.046875,733
663,1696245297164,0.0075683594,-0.98760986,0.05706787,0.265625,-0.046875,0.421875,734
664,1696245297204,0.013671875,-0.9949341,0.051696777,-0.421875,-0.59375,0.609375,735
665,1696245297244,0.015625,-0.9898071,0.05340576,-0.25,0.34375,0.234375,736
666,1696245297284,0.00390625,-0.9746704,0.05999756,0.09375,-0.5,0.8125,737
667,1696245297324,0.015380859,-0.9854126,0.07220459,1.21875,-1.34375,0.40625,738
668,1696245297364,0.013427734,-0.98101807,0.05731201,-0.484375,-0.28125,-0.25,739
669,1696245297404,0.018310547,-0.9859009,0.058288574,-0.28125,-1.3125,0.59375,740
670,1696245297444,0.014404297,-0.9824829,0.04071045,-1.0625,-0.078125,-0.1875,741
671,1696245297484,0.0126953125,-0.9915161,0.074401855,0.25,-1.203125,0.171875,742
672,1696245297524,0.013671875,-0.9890747,0.058532715,-1.09375,-0.96875,-0.328125,743
673,1696245297564,0.020019531,-0.98272705,0.051208496,-2.140625,-1.203125,0.109375,744
674,1696245297604,0.012451172,-0.9902954,0.058532715,-1.65625,-0.875,-0.078125,745
675,1696245297644,0.0007324219,-0.99298096,0.06488037,-1.046875,-1.84375,0.375,746
676,1696245297684,0.029296875,-0.97979736,0.047790527,-2.1875,-0.21875,-0.546875,747
677,1696245297724,0.01171875,-0.97491455,0.07342529,-1.203125,-0.5,0.09375,748
678,1696245297764,0.0014648438,-0.99786377,0.06463623,-1.265625,-1.515625,0.34375,749
679,1696245297804,0.018310547,-0.98687744,0.07244873,-0.875,-0.84375,-0.109375,750
680,1696245297844,0.013671875,-0.98931885,0.06903076,-1.40625,-0.609375,0.078125,751
681,1696245297884,0.018066406,-0.9780884,0.078308105,-1.140625,-0.328125,0.171875,752
682,1696245297924,0.0043945312,-0.9898071,0.08807373,-0.296875,-0.890625,0.484375,753
683,1696245297964,0.0056152344,-0.98760986,0.066833496,-1.5625,-0.484375,0.3125,754
684,1696245298004,0.009765625,-0.9883423,0.08050537,0.3125,-0.859375,0.3125,755
685,1696245298044,0.01928711,-0.98809814,0.08905029,-0.84375,0.109375,-0.078125,756
686,1696245298084,0.010009766,-0.9944458,0.05340576,-2.34375,0.390625,0.234375,757
687,1696245298124,0.016601562,-0.98516846,0.08782959,-0.53125,0.34375,0.578125,758
688,1696245298164,0.005859375,-0.98931885,0.07562256,-0.234375,-0.609375,0.640625,759
689,1696245298204,0.023925781,-0.97491455,0.08001709,-0.796875,0.046875,0.375,760
690,1696245298244,0.0048828125,-0.98321533,0.09100342,-0.6875,-0.578125,0.671875,761
691,1696245298284,0.014892578,-0.99346924,0.086364746,-0.515625,-0.421875,0.078125,762
692,1696245298324,0.014160156,-0.98150635,0.06976318,-0.34375,-0.96875,0.140625,763
693,1696245298364,0.015380859,-0.9841919,0.07513428,-0.8125,-0.578125,0.3125,764
694,1696245298404,0.012451172,-0.99542236,0.08734131,0.109375,-0.34375,0.28125,765
695,1696245298444,0.0043945312,-0.9727173,0.08074951,0.234375,-0.65625,0.703125,766
696,1696245298484,0.0126953125,-0.98516846,0.08074951,-0.125,-0.703125,0.78125,767
697,1696245298524,0.020263672,-0.9807739,0.08319092,0.171875,-0.1875,0.171875,768
698,1696245298564,0.008300781,-0.9915161,0.08758545,0.34375,-0.96875,0.546875,769
699,1696245298604,0.028320312,-0.98809814,0.085876465,0.171875,-0.265625,0.421875,770
700,1696245298644,0.008056641,-0.98516846,0.093933105,0.296875,-0.671875,0.265625,771
701,1696245298684,0.025146484,-0.99176025,0.07293701,-1.546875,-0.125,0.03125,772
702,1696245298724,0.017333984,-0.98150635,0.07684326,0.421875,-1.046875,0.671875,773
703,1696245298764,0.018310547,-0.98223877,0.0836792,-0.375,0.265625,0.25,774
704,1696245298804,0.012939453,-0.99224854,0.0993042,0.453125,-0.4375,0.625,775
705,1696245298844,0.012939453,-0.98321533,0.07659912,0.328125,-0.546875,0.453125,776
706,1696245298884,0.020263672,-0.98638916,0.08538818,-0.828125,0.046875,-0.03125,777
707,1696245298924,0.013183594,-0.9920044,0.08441162,0.1875,-0.96875,0.1875,778
708,1696245298964,0.016601562,-1.0005493,0.08660889,1.140625,-1.125,0.0,779
709,1696245299004,0.023925781,-0.9788208,0.08685303,0.296875,-0.46875,-0.046875,780
710,1696245299044,0.016113281,-0.9890747,0.08319092,-0.40625,-0.734375,-0.0625,781
711,1696245299084,0.014404297,-0.98565674,0.08807373,0.4375,-1.359375,-0.28125,782
712,1696245299124,0.015136719,-0.989563,0.089538574,0.921875,-1.109375,0.015625,783
713,1696245299164,0.0073242188,-0.98809814,0.08001709,0.703125,-0.9375,-0.0625,784
714,1696245299204,0.017822266,-0.9871216,0.08514404,1.390625,-0.421875,0.03125,785
715,1696245299244,0.013671875,-0.9924927,0.08050537,1.109375,-0.140625,-0.15625,786
716,1696245299284,0.015625,-0.97979736,0.07489014,1.4375,-0.03125,0.109375,787
717,1696245299324,0.0056152344,-0.9883423,0.08709717,2.734375,-1.453125,0.65625,788
718,1696245299364,0.0053710938,-0.99591064,0.093444824,1.734375,-0.84375,0.328125,789
719,1696245299404,0.0126953125,-0.9907837,0.047302246,-1.796875,-0.625,-0.140625,790
720,1696245299444,0.014160156,-0.98394775,0.07171631,-1.40625,0.34375,0.140625,791
721,1696245299484,0.010009766,-0.9963989,0.08880615,0.09375,-1.0,0.3125,792
722,1696245299524,0.018798828,-0.9758911,0.06878662,-0.515625,0.0625,-0.125,793
723,1696245299564,0.0126953125,-0.9871216,0.07904053,-0.109375,-0.203125,0.671875,794
724,1696245299604,0.01928711,-0.97735596,0.07366943,0.453125,-0.734375,0.46875,795
725,1696245299644,0.01586914,-1.0032349,0.07537842,0.40625,-1.046875,0.34375,796
726,1696245299684,0.02368164,-0.9805298,0.06756592,-0.3125,-0.359375,0.171875,797
727,1696245299724,0.0031738281,-0.9812622,0.08416748,0.4375,-0.359375,0.71875,798
728,1696245299764,0.012939453,-0.9961548,0.07952881,0.390625,-1.015625,0.546875,799
729,1696245299804,0.014892578,-0.9890747,0.062683105,-0.1875,-0.390625,0.3125,800
730,1696245299844,0.011474609,-0.987854,0.07098389,0.515625,-0.578125,0.375,801
731,1696245299884,0.018554688,-0.9932251,0.06585693,0.4375,-0.546875,0.109375,802
732,1696245299924,0.01977539,-0.9898071,0.07318115,0.828125,-0.65625,0.1875,803
733,1696245299964,0.014160156,-0.99542236,0.06414795,0.34375,-0.421875,0.421875,804
734,1696245300004,0.017333984,-0.9963989,0.07611084,1.109375,-1.359375,0.390625,805
735,1696245300044,0.01586914,-0.97662354,0.086120605,1.90625,-0.703125,0.46875,806
736,1696245300084,0.014892578,-0.9920044,0.05267334,-1.015625,-0.609375,0.34375,807
737,1696245300124,0.016845703,-0.9780884,0.066345215,-0.328125,0.203125,0.546875,808
738,1696245300164,0.0146484375,-0.9937134,0.07122803,0.515625,-0.609375,0.09375,809
739,1696245300204,0.018066406,-0.99420166,0.05657959,-0.6875,-0.21875,-0.046875,810
740,1696245300244,0.02709961,-0.9795532,0.06903076,-0.15625,0.734375,0.296875,811
741,1696245300284,0.024414062,-0.99542236,0.058288574,0.203125,-0.53125,0.421875,812
742,1696245300324,0.017089844,-0.99224854,0.062683105,0.265625,-0.5,0.09375,813
743,1696245300364,0.013916016,-0.9817505,0.0602417,-0.078125,-0.125,0.203125,814
744,1696245300404,0.0078125,-0.9932251,0.07244873,-0.21875,-0.03125,0.09375,815
745,1696245300444,0.0075683594,-0.9866333,0.06512451,0.96875,-0.140625,0.21875,816
746,1696245300484,0.013671875,-0.9915161,0.06365967,0.46875,-0.453125,0.03125,817
747,1696245300524,0.013427734,-0.9898071,0.07562256,0.71875,-0.515625,0.203125,818
748,1696245300564,0.008544922,-0.9920044,0.06390381,0.515625,-0.421875,0.109375,819
749,1696245300604,0.021240234,-0.9890747,0.058288574,-0.046875,0.078125,0.234375,820
750,1696245300644,0.015136719,-0.98687744,0.07611084,1.96875,-1.03125,0.703125,821
751,1696245300684,0.01586914,-0.987854,0.062438965,0.15625,-0.21875,0.078125,822
752,1696245300724,0.035888672,-0.98809814,0.05316162,0.0625,-0.5,0.375,823
753,1696245300764,0.012939453,-0.9812622,0.05267334,-0.625,0.234375,-0.1875,824
754,1696245300804,0.017578125,-0.9927368,0.07269287,0.8125,-0.796875,0.71875,825
755,1696245300844,0.010986328,-0.9920044,0.058776855,1.125,-0.34375,0.078125,826
756,1696245300884,0.018554688,-0.987854,0.06048584,-0.265625,-0.28125,0.171875,827
757,1696245300924,0.020996094,-0.99005127,0.047790527,-0.484375,-0.265625,0.15625,828
758,1696245300964,0.020263672,-0.9937134,0.054870605,-0.34375,-0.390625,0.296875,829
759,1696245301004,0.01586914,-0.98638916,0.06048584,-0.171875,0.03125,0.484375,830
