,timestamp,accel_x,accel_y,accel_z,gyro_x,gyro_y,gyro_z,ind
0,1696245856246,0.39819336,-0.1272583,-0.8447876,0.84375,-0.5,0.453125,126
1,1696245856286,0.40307617,-0.12799072,-0.8557739,0.578125,-0.5625,0.515625,127
2,1696245856326,0.40307617,-0.12823486,-0.8674927,-0.4375,0.203125,0.15625,128
3,1696245856366,0.40283203,-0.1260376,-0.8648071,-1.28125,0.609375,-0.171875,129
4,1696245856406,0.39868164,-0.13018799,-0.8665161,-1.5,0.203125,-0.1875,130
5,1696245856446,0.39282227,-0.124816895,-0.8584595,-1.703125,0.296875,-0.140625,131
6,1696245856486,0.3942871,-0.12701416,-0.85040283,-1.125,-0.171875,0.015625,132
7,1696245856526,0.39086914,-0.13189697,-0.8538208,-1.828125,-0.0625,-0.0625,133
8,1696245856566,0.38891602,-0.13922119,-0.8550415,-1.953125,-0.09375,-0.21875,134
9,1696245856606,0.39672852,-0.14117432,-0.8599243,-2.015625,-0.734375,-0.328125,135
10,1696245856646,0.39282227,-0.13800049,-0.85650635,-1.578125,-0.953125,-0.234375,136
11,1696245856686,0.39868164,-0.14239502,-0.8533325,-1.21875,-1.125,0.0,137
12,1696245856726,0.39526367,-0.14581299,-0.86309814,-1.515625,-1.0,-0.1875,138
13,1696245856766,0.3996582,-0.14703369,-0.8574829,-0.796875,-1.53125,-0.015625,139
14,1696245856806,0.40429688,-0.14337158,-0.85479736,-0.671875,-1.140625,0.015625,140
15,1696245856846,0.40039062,-0.15093994,-0.85113525,-0.15625,-1.265625,0.109375,141
16,1696245856886,0.40185547,-0.14874268,-0.8442993,-0.421875,-1.03125,0.0625,142
17,1696245856926,0.40039062,-0.15020752,-0.86676025,1.140625,-0.359375,0.59375,143
18,1696245856966,0.390625,-0.14117432,-0.84552,2.890625,-0.53125,1.109375,144
19,1696245857006,0.39819336,-0.14654541,-0.8526001,1.203125,-0.671875,0.625,145
20,1696245857046,0.40405273,-0.14068604,-0.84747314,0.5,-0.6875,0.359375,146
21,1696245857086,0.40307617,-0.13970947,-0.8513794,0.578125,-1.171875,0.28125,147
22,1696245857126,0.40063477,-0.12286377,-0.8579712,1.171875,-0.953125,0.5625,148
23,1696245857166,0.41259766,-0.13165283,-0.85723877,1.546875,-0.828125,0.5625,149
24,1696245857206,0.4050293,-0.13287354,-0.862854,1.125,-0.75,0.3125,150
25,1696245857246,0.40649414,-0.12750244,-0.8584595,1.203125,-0.65625,0.515625,151
26,1696245857286,0.40234375,-0.13214111,-0.8464966,1.03125,-0.921875,0.5,152
27,1696245857326,0.4008789,-0.12750244,-0.85040283,0.765625,-0.5625,0.46875,153
28,1696245857366,0.3947754,-0.12310791,-0.84503174,1.046875,-0.703125,0.328125,154
29,1696245857406,0.40063477,-0.12628174,-0.8550415,0.109375,-0.671875,0.4375,155
30,1696245857446,0.4050293,-0.12628174,-0.8569946,-0.828125,-0.171875,0.171875,156
31,1696245857486,0.40844727,-0.12872314,-0.8621216,-1.0625,-0.421875,-0.015625,157
32,1696245857526,0.4099121,-0.12408447,-0.8567505,-1.28125,-0.453125,-0.046875,158
33,1696245857566,0.40576172,-0.12310791,-0.86138916,-1.546875,0.109375,-0.015625,159
34,1696245857606,0.40478516,-0.13409424,-0.8477173,-1.75,0.484375,-0.15625,160
35,1696245857646,0.3996582,-0.13922119,-0.84698486,-1.6875,0.328125,-0.25,161
36,1696245857686,0.3984375,-0.13677979,-0.8526001,-2.140625,0.484375,-0.234375,162
37,1696245857726,0.40112305,-0.13580322,-0.8501587,-1.890625,-0.109375,-0.328125,163
38,1696245857766,0.39624023,-0.13970947,-0.8555298,-2.046875,-0.34375,-0.0625,164
39,1696245857806,0.4008789,-0.14581299,-0.8591919,-1.578125,-0.5625,-0.109375,165
40,1696245857846,0.39868164,-0.15093994,-0.8555298,-1.1875,-0.640625,-0.0625,166
41,1696245857886,0.40649414,-0.14361572,-0.8557739,-0.609375,-0.953125,-0.03125,167
42,1696245857926,0.39794922,-0.13995361,-0.8621216,-0.46875,-0.84375,0.15625,168
43,1696245857966,0.39672852,-0.14874268,-0.84576416,-0.171875,-0.9375,0.1875,169
44,1696245858006,0.39819336,-0.15020752,-0.84552,0.515625,-1.09375,0.40625,170
45,1696245858046,0.40112305,-0.14312744,-0.8545532,1.265625,-0.6875,0.546875,171
46,1696245858086,0.39086914,-0.14556885,-0.84503174,1.71875,-1.109375,0.875,172
47,1696245858126,0.3996582,-0.14874268,-0.8574829,1.140625,-1.046875,0.609375,173
48,1696245858166,0.40307617,-0.14727783,-0.86260986,0.84375,-0.9375,0.359375,174
49,1696245858206,0.3996582,-0.13360596,-0.8530884,1.125,-1.25,0.46875,175
50,1696245858246,0.40551758,-0.13165283,-0.85601807,1.359375,-1.015625,0.65625,176
51,1696245858286,0.40478516,-0.14019775,-0.85894775,1.375,-0.875,0.578125,177
52,1696245858326,0.4086914,-0.12774658,-0.8501587,1.15625,-0.71875,0.421875,178
53,1696245858366,0.40185547,-0.1350708,-0.85235596,0.703125,-0.796875,0.5,179
54,1696245858406,0.40307617,-0.13067627,-0.8533325,0.734375,-0.84375,0.53125,180
55,1696245858446,0.40771484,-0.124572754,-0.83966064,1.046875,-0.609375,0.296875,181
56,1696245858486,0.4104004,-0.12359619,-0.8587036,1.46875,-0.84375,0.359375,182
57,1696245858526,0.4050293,-0.12432861,-0.8623657,1.5,-0.90625,0.53125,183
58,1696245858566,0.4038086,-0.121154785,-0.85162354,1.1875,-0.953125,0.390625,184
59,1696245858606,0.40820312,-0.120910645,-0.8550415,0.03125,-0.140625,0.046875,185
60,1696245858646,0.4013672,-0.120910645,-0.8467407,-1.21875,0.265625,-0.125,186
61,1696245858686,0.40112305,-0.11602783,-0.8533325,-1.84375,0.046875,-0.328125,187
62,1696245858726,0.40112305,-0.120666504,-0.84576416,-1.859375,0.265625,-0.140625,188
63,1696245858766,0.40625,-0.12432861,-0.85723877,-1.21875,0.03125,-0.015625,189
64,1696245858806,0.4008789,-0.12945557,-0.864563,-1.953125,0.5,-0.3125,190
65,1696245858846,0.4038086,-0.13311768,-0.8587036,-2.21875,0.203125,-0.1875,191
66,1696245858886,0.40039062,-0.1362915,-0.8545532,-2.359375,0.296875,-0.34375,192
67,1696245858926,0.3959961,-0.14019775,-0.8496704,-2.046875,-0.53125,-0.234375,193
68,1696245858966,0.39624023,-0.13800049,-0.85406494,-1.78125,-0.71875,-0.1875,194
69,1696245859006,0.40039062,-0.13189697,-0.8381958,0.90625,-0.5,0.546875,211
70,1696245859046,0.4008789,-0.13043213,-0.84625244,0.609375,-0.4375,0.359375,212
71,1696245859086,0.4033203,-0.13018799,-0.8479614,0.953125,-0.6875,0.421875,213
72,1696245859126,0.4033203,-0.12823486,-0.84454346,1.03125,-0.390625,0.390625,214
73,1696245859166,0.40283203,-0.12774658,-0.8599243,0.640625,-0.5625,0.28125,215
74,1696245859206,0.4111328,-0.12994385,-0.8677368,0.671875,-0.75,0.140625,216
75,1696245859246,0.4038086,-0.12799072,-0.8579712,0.375,-0.625,0.25,217
76,1696245859286,0.4020996,-0.12628174,-0.85406494,-0.3125,-0.1875,0.265625,218
77,1696245859326,0.39916992,-0.12799072,-0.84161377,-0.640625,0.25,-0.015625,219
78,1696245859366,0.40283203,-0.12164307,-0.8584595,-1.265625,0.375,-0.109375,220
79,1696245859406,0.40039062,-0.12310791,-0.8543091,-1.375,0.15625,-0.25,221
80,1696245859446,0.40405273,-0.13726807,-0.8484497,-1.765625,-0.234375,-0.25,222
81,1696245859486,0.39794922,-0.13433838,-0.8530884,-2.0625,-0.046875,-0.375,223
82,1696245859526,0.3955078,-0.13726807,-0.8621216,-1.828125,-0.203125,-0.28125,224
83,1696245859566,0.39892578,-0.13555908,-0.848938,-1.515625,-0.78125,-0.078125,225
84,1696245859606,0.4074707,-0.13800049,-0.8599243,-1.1875,-0.359375,-0.109375,226
85,1696245859646,0.3959961,-0.14874268,-0.84161377,-1.34375,-0.34375,-0.09375,227
86,1696245859686,0.40283203,-0.14654541,-0.85601807,-1.546875,-0.9375,-0.265625,228
87,1696245859726,0.39648438,-0.13946533,-0.8479614,-1.265625,-0.96875,-0.1875,229
88,1696245859766,0.40649414,-0.14678955,-0.85113525,-0.890625,-1.390625,-0.09375,230
89,1696245859806,0.40429688,-0.14727783,-0.85040283,-0.8125,-1.390625,0.0625,231
90,1696245859846,0.40405273,-0.15362549,-0.8584595,-1.640625,-1.5625,-0.28125,232
91,1696245859886,0.4025879,-0.1494751,-0.84161377,-1.375,-2.5,0.0625,233
92,1696245859926,0.4020996,-0.14459229,-0.8291626,-0.03125,-1.703125,0.21875,234
93,1696245859966,0.4104004,-0.1506958,-0.8496704,1.671875,0.078125,0.640625,235
94,1696245860006,0.40039062,-0.14483643,-0.84991455,3.140625,0.3125,1.171875,236
95,1696245860046,0.40234375,-0.14727783,-0.8423462,1.421875,0.1875,0.65625,237
96,1696245860086,0.41088867,-0.14141846,-0.8550415,1.109375,-0.609375,0.515625,238
97,1696245860126,0.40039062,-0.13995361,-0.8447876,0.796875,-0.640625,0.484375,239
98,1696245860166,0.4074707,-0.13287354,-0.85235596,1.375,-0.65625,0.578125,240
99,1696245860206,0.40283203,-0.13287354,-0.864563,1.671875,-0.390625,0.859375,241
100,1696245860246,0.4091797,-0.13677979,-0.85650635,1.546875,-0.6875,0.71875,242
101,1696245860286,0.41064453,-0.13409424,-0.85406494,0.90625,-0.21875,0.5625,243
102,1696245860326,0.4091797,-0.13140869,-0.8518677,0.859375,0.109375,0.265625,244
103,1696245860366,0.40039062,-0.12799072,-0.8435669,0.96875,-0.328125,0.234375,245
104,1696245860406,0.40185547,-0.12750244,-0.8447876,0.78125,-0.53125,0.546875,246
105,1696245860446,0.40161133,-0.12384033,-0.8464966,0.84375,-0.65625,0.203125,247
106,1696245860486,0.40527344,-0.12750244,-0.86431885,0.34375,-0.625,0.359375,248
107,1696245860526,0.40649414,-0.12921143,-0.86260986,0.375,-0.578125,0.234375,249
108,1696245860566,0.40600586,-0.12652588,-0.85821533,-0.203125,-0.0625,0.09375,250
109,1696245860606,0.40063477,-0.12945557,-0.85357666,-1.140625,0.015625,0.0625,251
110,1696245860646,0.40356445,-0.12213135,-0.8521118,-1.265625,-0.09375,-0.25,252
111,1696245860686,0.40112305,-0.12921143,-0.8538208,-1.484375,0.5,-0.3125,253
112,1696245860726,0.3959961,-0.13092041,-0.8496704,-1.25,-0.0625,0.15625,254
113,1696245860766,0.39819336,-0.13677979,-0.86138916,-1.703125,0.078125,-0.328125,255
114,1696245860806,0.3930664,-0.12799072,-0.8513794,-2.71875,0.21875,-0.265625,256
115,1696245860846,0.39648438,-0.14068604,-0.864563,-2.421875,0.15625,-0.453125,257
116,1696245860886,0.3942871,-0.14434814,-0.8623657,-1.640625,0.328125,0.015625,258
117,1696245860926,0.3918457,-0.14483643,-0.8574829,-1.171875,0.0625,-0.109375,259
118,1696245860966,0.3864746,-0.14385986,-0.8567505,-1.375,-0.34375,0.03125,260
119,1696245861006,0.39819336,-0.144104,-0.8533325,-1.140625,-0.671875,-0.046875,261
120,1696245861046,0.39282227,-0.14727783,-0.8491821,-1.078125,-1.1875,0.046875,262
121,1696245861086,0.40039062,-0.1482544,-0.8533325,-0.703125,-1.5625,0.046875,263
122,1696245861126,0.39697266,-0.14556885,-0.8621216,-0.390625,-1.34375,0.015625,264
123,1696245861166,0.39648438,-0.15020752,-0.8543091,-0.09375,-1.015625,0.0625,265
124,1696245861206,0.4033203,-0.15484619,-0.85113525,-1.3125,-1.890625,-0.375,266
125,1696245861246,0.4033203,-0.15386963,-0.84869385,-1.296875,-1.984375,-0.296875,267
126,1696245861286,0.40625,-0.14849854,-0.8442993,-0.171875,-1.078125,0.125,268
127,1696245861326,0.40527344,-0.15167236,-0.85479736,1.3125,-0.203125,0.609375,269
128,1696245861366,0.40039062,-0.15264893,-0.8526001,2.765625,1.3125,0.890625,270
129,1696245861406,0.38916016,-0.14337158,-0.8399048,3.921875,0.578125,1.4375,271
130,1696245861446,0.39697266,-0.14996338,-0.85601807,1.15625,0.390625,0.484375,272
131,1696245861486,0.3947754,-0.14190674,-0.85406494,0.5625,-0.296875,0.328125,273
132,1696245861526,0.38867188,-0.14093018,-0.8442993,0.984375,-0.359375,0.671875,274
133,1696245861566,0.39990234,-0.13067627,-0.8587036,1.484375,-0.328125,0.796875,275
134,1696245861606,0.40576172,-0.13604736,-0.87677,1.34375,-0.5,0.828125,276
135,1696245861646,0.40039062,-0.13800049,-0.86138916,1.1875,-0.71875,0.46875,277
136,1696245861686,0.39501953,-0.13555908,-0.86138916,0.765625,-1.203125,0.09375,278
137,1696245861726,0.390625,-0.1296997,-0.8435669,1.1875,-1.578125,0.453125,279
138,1696245861766,0.39257812,-0.12628174,-0.8374634,1.25,-1.578125,0.59375,280
139,1696245861806,0.4025879,-0.12237549,-0.8496704,0.96875,-1.46875,0.53125,281
140,1696245861846,0.40600586,-0.12750244,-0.8569946,1.03125,-0.640625,0.46875,282
141,1696245861886,0.41015625,-0.13214111,-0.8711548,0.375,0.078125,0.265625,283
142,1696245861926,0.39868164,-0.12823486,-0.85894775,-0.640625,0.234375,0.0,284
143,1696245861966,0.40454102,-0.12408447,-0.8657837,-2.140625,0.25,-0.265625,285
144,1696245862006,0.39868164,-0.12677002,-0.8557739,-2.234375,0.28125,-0.234375,286
145,1696245862046,0.3959961,-0.1338501,-0.8562622,-1.34375,0.03125,-0.140625,287
146,1696245862086,0.39672852,-0.12994385,-0.8467407,-1.09375,0.0,-0.03125,288
147,1696245862126,0.3955078,-0.1338501,-0.8555298,-1.5625,-0.046875,-0.3125,289
148,1696245862166,0.39379883,-0.1428833,-0.85650635,-2.109375,-0.515625,-0.28125,290
149,1696245862206,0.39160156,-0.14752197,-0.8484497,-2.6875,-0.046875,-0.5,291
150,1696245862246,0.3942871,-0.13848877,-0.8530884,-2.1875,-0.671875,-0.28125,292
151,1696245862286,0.3996582,-0.14459229,-0.8599243,-2.015625,-0.875,-0.296875,293
152,1696245862326,0.39868164,-0.1494751,-0.86016846,-1.046875,-1.140625,-0.03125,294
153,1696245862366,0.3947754,-0.14581299,-0.86187744,-0.859375,-1.15625,0.125,295
154,1696245862406,0.4013672,-0.1482544,-0.8599243,-0.875,-1.609375,0.015625,296
155,1696245862446,0.4008789,-0.1506958,-0.8491821,-0.890625,-1.609375,-0.0625,297
156,1696245862486,0.4020996,-0.1560669,-0.8491821,-0.46875,-1.953125,0.03125,298
157,1696245862526,0.39868164,-0.14898682,-0.8460083,0.296875,-1.5,0.359375,299
158,1696245862566,0.41064453,-0.1519165,-0.8496704,1.078125,-0.5625,0.578125,300
159,1696245862606,0.39916992,-0.1482544,-0.8550415,2.5625,0.75,1.09375,301
160,1696245862646,0.39916992,-0.14727783,-0.8538208,3.140625,-0.59375,1.421875,302
161,1696245862686,0.40820312,-0.14581299,-0.8557739,0.8125,0.015625,0.328125,303
162,1696245862726,0.40307617,-0.13409424,-0.8584595,0.234375,-0.71875,0.234375,304
163,1696245862766,0.40576172,-0.13922119,-0.84747314,0.390625,-1.15625,0.46875,305
164,1696245862806,0.40478516,-0.1326294,-0.8621216,0.96875,-0.953125,0.625,306
165,1696245862846,0.40795898,-0.1428833,-0.8657837,0.9375,-0.671875,0.46875,307
166,1696245862886,0.40185547,-0.12823486,-0.8555298,1.0625,-0.5,0.265625,308
167,1696245862926,0.40283203,-0.13848877,-0.85772705,0.734375,-0.453125,0.140625,309
168,1696245862966,0.39868164,-0.1326294,-0.83673096,0.9375,-0.8125,0.28125,310
169,1696245863006,0.39746094,-0.12921143,-0.8386841,1.03125,-0.640625,0.25,311
170,1696245863046,0.4008789,-0.12506104,-0.8442993,0.875,-0.78125,0.4375,312
171,1696245863086,0.4104004,-0.128479,-0.8584595,0.859375,-0.65625,0.21875,313
172,1696245863126,0.40771484,-0.13067627,-0.861145,0.828125,-0.6875,0.328125,314
173,1696245863166,0.4086914,-0.124816895,-0.85821533,0.359375,-0.390625,0.296875,315
174,1696245863206,0.40234375,-0.1260376,-0.8567505,-0.609375,0.3125,0.078125,316
175,1696245863246,0.3984375,-0.13140869,-0.8464966,-1.046875,0.359375,-0.046875,317
176,1696245863286,0.39526367,-0.12261963,-0.8491821,-1.03125,0.078125,-0.015625,318
177,1696245863326,0.39868164,-0.13043213,-0.8569946,-1.484375,0.390625,-0.140625,319
178,1696245863366,0.39624023,-0.13287354,-0.85601807,-1.375,0.0,-0.125,320
179,1696245863406,0.39819336,-0.13311768,-0.85235596,-1.75,0.15625,-0.234375,321
180,1696245863446,0.39086914,-0.13775635,-0.85601807,-2.34375,-0.171875,-0.53125,322
181,1696245863486,0.40039062,-0.14093018,-0.85650635,-2.0625,-0.796875,-0.3125,323
182,1696245863526,0.3984375,-0.13726807,-0.84942627,-1.9375,-0.71875,-0.203125,324
183,1696245863566,0.3959961,-0.14117432,-0.85601807,-1.65625,-0.671875,-0.296875,325
184,1696245863606,0.39526367,-0.14703369,-0.8530884,-1.265625,-0.984375,-0.15625,326
185,1696245863646,0.40307617,-0.14752197,-0.8533325,-1.328125,-0.453125,-0.21875,327
186,1696245863686,0.40161133,-0.15484619,-0.86260986,-1.390625,-0.96875,-0.015625,328
187,1696245863726,0.39868164,-0.1560669,-0.8569946,-1.109375,-1.171875,-0.171875,329
188,1696245863766,0.39404297,-0.15509033,-0.84332275,-0.65625,-1.359375,0.0625,330
189,1696245863806,0.40844727,-0.14898682,-0.8484497,-0.1875,-1.75,0.265625,331
190,1696245863846,0.40673828,-0.14971924,-0.8530884,0.375,-1.59375,0.46875,332
191,1696245863886,0.40649414,-0.15411377,-0.8518677,1.078125,-1.046875,0.578125,333
192,1696245863926,0.4104004,-0.15142822,-0.85528564,1.234375,-0.109375,0.796875,334
193,1696245863966,0.4008789,-0.1506958,-0.8447876,2.8125,-0.421875,0.984375,335
194,1696245864006,0.40429688,-0.15142822,-0.8484497,2.046875,-0.28125,0.890625,336
195,1696245864046,0.40283203,-0.1416626,-0.8533325,1.28125,-0.59375,0.65625,337
196,1696245864086,0.40551758,-0.13238525,-0.84942627,1.40625,-0.625,0.65625,338
197,1696245864126,0.40527344,-0.13409424,-0.8579712,1.25,-0.40625,0.421875,339
198,1696245864166,0.4008789,-0.13287354,-0.8526001,1.3125,-0.703125,0.5625,340
199,1696245864206,0.4025879,-0.13165283,-0.8562622,0.921875,-0.453125,0.40625,341
200,1696245864246,0.40551758,-0.13677979,-0.8579712,0.75,-0.328125,0.203125,342
201,1696245864286,0.40673828,-0.13140869,-0.8521118,0.71875,-0.34375,0.296875,343
202,1696245864326,0.39868164,-0.12408447,-0.8477173,0.953125,-0.515625,0.3125,344
203,1696245864366,0.3984375,-0.13214111,-0.84503174,1.171875,-0.6875,0.5,345
204,1696245864406,0.40307617,-0.1260376,-0.8609009,0.84375,-0.484375,0.390625,346
205,1696245864446,0.40771484,-0.12774658,-0.8567505,0.34375,-0.359375,0.3125,347
206,1696245864486,0.3996582,-0.12701416,-0.85284424,-0.0625,-0.1875,0.265625,348
207,1696245864526,0.40234375,-0.12335205,-0.861145,-0.53125,0.140625,-0.046875,349
208,1696245864566,0.40722656,-0.12188721,-0.8587036,-0.953125,-0.03125,-0.046875,350
209,1696245864606,0.40454102,-0.13043213,-0.85040283,-0.765625,-0.09375,0.015625,351
210,1696245864646,0.4025879,-0.13360596,-0.85479736,-1.015625,0.140625,0.046875,352
211,1696245864686,0.3984375,-0.12945557,-0.8609009,-0.921875,-0.046875,0.078125,353
212,1696245864726,0.40454102,-0.1338501,-0.85357666,-1.5625,-0.296875,-0.125,354
213,1696245864766,0.40356445,-0.14117432,-0.85650635,-1.953125,-0.234375,-0.28125,355
214,1696245864806,0.40356445,-0.13677979,-0.8616333,-1.984375,-0.421875,-0.375,356
215,1696245864846,0.3942871,-0.13922119,-0.8491821,-1.640625,-0.53125,-0.109375,357
216,1696245864886,0.40698242,-0.1350708,-0.84869385,-1.0,-0.734375,-0.09375,358
217,1696245864926,0.3984375,-0.13946533,-0.85528564,0.265625,-1.0,0.296875,359
218,1696245864966,0.4033203,-0.13824463,-0.86138916,0.5625,-0.90625,0.421875,360
219,1696245865006,0.39892578,-0.1375122,-0.8648071,-0.21875,-1.34375,0.1875,361
220,1696245865046,0.40795898,-0.13922119,-0.85772705,-0.21875,-1.59375,0.0,362
221,1696245865086,0.40185547,-0.13970947,-0.84259033,0.109375,-1.703125,0.109375,363
222,1696245865126,0.41308594,-0.13702393,-0.8530884,0.40625,-1.015625,0.390625,364
223,1696245865166,0.41333008,-0.13800049,-0.8569946,1.625,-0.234375,0.53125,365
224,1696245865206,0.40454102,-0.13140869,-0.8394165,3.234375,-0.5,0.953125,366
225,1696245865246,0.40795898,-0.1326294,-0.86065674,1.859375,-0.34375,0.78125,367
226,1696245865286,0.40429688,-0.12872314,-0.84503174,1.03125,-0.671875,0.390625,368
227,1696245865326,0.40014648,-0.12261963,-0.84039307,0.4375,-0.53125,0.15625,369
228,1696245865366,0.3984375,-0.117248535,-0.861145,0.53125,-0.828125,0.3125,370
229,1696245865406,0.4086914,-0.121398926,-0.86260986,1.1875,-1.0625,0.453125,371
230,1696245865446,0.4091797,-0.11968994,-0.8677368,1.328125,-0.671875,0.46875,372
231,1696245865486,0.4038086,-0.121398926,-0.85894775,0.984375,-0.671875,0.265625,373
232,1696245865526,0.40185547,-0.12164307,-0.8545532,0.9375,-0.796875,0.21875,374
233,1696245865566,0.4025879,-0.11480713,-0.84161377,0.6875,-0.90625,0.46875,375
234,1696245865606,0.40234375,-0.11846924,-0.83599854,0.65625,-0.921875,0.484375,376
235,1696245865646,0.40039062,-0.11773682,-0.8428345,-0.125,-0.421875,0.203125,377
236,1696245865686,0.4086914,-0.1182251,-0.8640747,-0.625,0.3125,0.03125,378
237,1696245865726,0.4086914,-0.11236572,-0.86138916,-0.96875,-0.046875,-0.234375,379
238,1696245865766,0.40844727,-0.1182251,-0.862854,-1.5625,0.328125,-0.171875,380
239,1696245865806,0.40527344,-0.11773682,-0.86187744,-1.578125,0.15625,-0.0625,381
240,1696245865846,0.3984375,-0.1194458,-0.8467407,-1.234375,0.1875,-0.171875,382
241,1696245865886,0.39697266,-0.12872314,-0.85284424,-0.796875,-0.203125,-0.046875,383
242,1696245865926,0.40429688,-0.12628174,-0.8496704,-1.234375,-0.3125,-0.140625,384
243,1696245865966,0.4050293,-0.12677002,-0.86968994,-2.0625,-0.3125,-0.234375,385
244,1696245866006,0.4013672,-0.13336182,-0.848938,-1.90625,-0.625,-0.203125,386
245,1696245866046,0.3972168,-0.12921143,-0.85601807,-1.78125,-0.578125,-0.296875,387
246,1696245866086,0.39697266,-0.13482666,-0.8555298,-1.546875,-0.4375,-0.125,388
247,1696245866126,0.40234375,-0.13970947,-0.8652954,-1.640625,-0.609375,-0.234375,389
248,1696245866166,0.4038086,-0.13848877,-0.8543091,-0.546875,-1.015625,0.03125,390
249,1696245866206,0.4074707,-0.14068604,-0.8545532,-0.84375,-1.03125,-0.015625,391
250,1696245866246,0.39941406,-0.13824463,-0.8491821,-0.703125,-1.328125,0.078125,392
251,1696245866286,0.4050293,-0.13995361,-0.84942627,-0.609375,-1.71875,0.0625,393
252,1696245866326,0.40820312,-0.14141846,-0.84576416,-0.078125,-1.390625,0.21875,394
253,1696245866366,0.4033203,-0.13922119,-0.8521118,0.453125,-0.78125,0.421875,395
254,1696245866406,0.4104004,-0.13873291,-0.86383057,1.875,-0.421875,0.859375,396
255,1696245866446,0.4111328,-0.13897705,-0.8401489,2.953125,-0.6875,1.140625,397
256,1696245866486,0.40942383,-0.13018799,-0.8640747,1.078125,-0.234375,0.421875,398
257,1696245866526,0.40185547,-0.13311768,-0.84332275,0.875,-0.71875,0.390625,399
258,1696245866566,0.4050293,-0.12628174,-0.8440552,0.65625,-0.875,0.375,400
259,1696245866606,0.40478516,-0.12432861,-0.86431885,0.609375,-0.6875,0.40625,401
260,1696245866646,0.40893555,-0.128479,-0.8569946,0.71875,-0.453125,0.46875,402
261,1696245866686,0.41357422,-0.12432861,-0.8689575,0.25,-0.484375,0.203125,403
262,1696245866726,0.40844727,-0.1326294,-0.8538208,0.078125,-0.453125,0.03125,404
263,1696245866766,0.40576172,-0.12579346,-0.8557739,0.125,-0.46875,0.125,405
264,1696245866806,0.40454102,-0.12530518,-0.8401489,0.484375,-0.375,0.359375,406
265,1696245866846,0.4074707,-0.128479,-0.8406372,0.578125,-0.53125,0.296875,407
266,1696245866886,0.40356445,-0.13214111,-0.85235596,0.40625,-0.59375,0.453125,408
267,1696245866926,0.40356445,-0.12628174,-0.864563,0.078125,-0.46875,0.21875,409
268,1696245866966,0.40722656,-0.12164307,-0.85772705,-0.375,-0.203125,0.078125,410
269,1696245867006,0.40698242,-0.120666504,-0.8587036,-0.84375,-0.171875,0.046875,411
270,1696245867046,0.4038086,-0.120666504,-0.8579712,-1.046875,-0.03125,-0.109375,412
271,1696245867086,0.40527344,-0.1272583,-0.8557739,-0.984375,-0.015625,0.015625,413
272,1696245867126,0.40014648,-0.1272583,-0.850647,-1.234375,-0.0625,-0.03125,414
273,1696245867166,0.40039062,-0.13092041,-0.85528564,-1.515625,-0.28125,-0.09375,415
274,1696245867206,0.40942383,-0.12530518,-0.8526001,-1.84375,-0.75,-0.21875,416
275,1696245867246,0.39892578,-0.1350708,-0.85406494,-1.65625,-0.265625,-0.234375,417
276,1696245867286,0.39819336,-0.13482666,-0.85601807,-1.640625,-0.296875,-0.21875,418
277,1696245867326,0.4099121,-0.14093018,-0.85284424,-1.4375,-0.484375,-0.046875,419
278,1696245867366,0.40820312,-0.13531494,-0.86602783,-1.59375,-0.671875,-0.25,420
279,1696245867406,0.39941406,-0.14263916,-0.8579712,-1.46875,-0.8125,-0.171875,421
280,1696245867446,0.40234375,-0.14337158,-0.8484497,-1.09375,-0.984375,-0.0625,422
281,1696245867486,0.4025879,-0.14508057,-0.8460083,-1.109375,-1.140625,-0.03125,423
282,1696245867526,0.4008789,-0.14654541,-0.85113525,-1.09375,-1.28125,-0.140625,424
283,1696245867566,0.4091797,-0.14776611,-0.85772705,-1.078125,-1.1875,-0.09375,425
284,1696245867606,0.40698242,-0.14923096,-0.8513794,-0.6875,-1.28125,0.234375,426
285,1696245867646,0.40820312,-0.1482544,-0.85357666,-0.21875,-1.484375,0.25,427
286,1696245867686,0.40161133,-0.14776611,-0.8513794,-0.0625,-1.109375,0.28125,428
287,1696245867726,0.41674805,-0.14239502,-0.84942627,0.421875,-0.984375,0.359375,429
288,1696245867766,0.40844727,-0.1531372,-0.85821533,1.484375,0.109375,0.625,430
289,1696245867806,0.4033203,-0.14630127,-0.83966064,3.09375,-0.046875,1.1875,431
290,1696245867846,0.40576172,-0.14141846,-0.8518677,2.015625,0.0,0.6875,432
291,1696245867886,0.40161133,-0.144104,-0.84625244,0.796875,-0.203125,0.359375,433
292,1696245867926,0.40185547,-0.13702393,-0.84747314,0.46875,-0.78125,0.3125,434
293,1696245867966,0.41137695,-0.12628174,-0.8633423,0.953125,-0.25,0.46875,435
294,1696245868006,0.40771484,-0.13092041,-0.861145,1.5625,-0.09375,0.65625,436
295,1696245868046,0.40722656,-0.13116455,-0.8623657,1.53125,-0.046875,0.65625,437
296,1696245868086,0.4111328,-0.13189697,-0.8550415,0.953125,-0.6875,0.328125,438
297,1696245868126,0.39892578,-0.12872314,-0.847229,0.828125,-0.46875,0.28125,439
298,1696245868166,0.39746094,-0.12921143,-0.84088135,0.546875,-0.640625,0.234375,440
299,1696245868206,0.39916992,-0.11920166,-0.83843994,0.640625,-0.609375,0.484375,441
300,1696245868246,0.40722656,-0.12213135,-0.8543091,0.609375,-0.53125,0.421875,442
301,1696245868286,0.40673828,-0.13165283,-0.8550415,0.65625,-0.3125,0.25,443
302,1696245868326,0.41601562,-0.12774658,-0.8640747,-0.109375,-0.09375,0.234375,444
303,1696245868366,0.40844727,-0.12335205,-0.85894775,-0.734375,-0.203125,0.078125,445
304,1696245868406,0.4104004,-0.12896729,-0.8513794,-0.8125,-0.28125,0.140625,446
305,1696245868446,0.40014648,-0.11895752,-0.85821533,-0.84375,-0.046875,0.109375,447
306,1696245868486,0.40551758,-0.12579346,-0.8447876,-0.625,-0.328125,0.015625,448
307,1696245868526,0.40185547,-0.12628174,-0.8599243,-0.921875,-0.015625,-0.03125,449
308,1696245868566,0.40039062,-0.12701416,-0.8533325,-1.25,-0.15625,-0.3125,450
309,1696245868606,0.40014648,-0.13531494,-0.8616333,-1.953125,-0.046875,-0.4375,451
310,1696245868646,0.39916992,-0.13653564,-0.84747314,-1.390625,-0.53125,-0.078125,452
311,1696245868686,0.40795898,-0.13409424,-0.8567505,-1.1875,-0.5625,-0.09375,453
312,1696245868726,0.40307617,-0.13433838,-0.85601807,-0.984375,-0.609375,0.03125,454
313,1696245868766,0.41333008,-0.13604736,-0.8555298,-1.125,-0.9375,0.015625,455
314,1696245868806,0.40112305,-0.13897705,-0.8477173,-1.09375,-0.375,-0.15625,456
315,1696245868846,0.39916992,-0.13116455,-0.8530884,-1.234375,-0.375,-0.25,457
316,1696245868886,0.40625,-0.14117432,-0.84942627,-1.265625,-0.625,-0.1875,458
317,1696245868926,0.39941406,-0.13604736,-0.8584595,-1.171875,-0.890625,-0.125,459
318,1696245868966,0.39453125,-0.14703369,-0.85040283,-0.640625,-1.03125,0.140625,460
319,1696245869006,0.40576172,-0.14459229,-0.86505127,-0.328125,-1.078125,0.1875,461
320,1696245869046,0.40600586,-0.14068604,-0.8557739,0.265625,-0.78125,0.34375,462
321,1696245869086,0.40405273,-0.13946533,-0.84576416,1.109375,-0.71875,0.4375,463
322,1696245869126,0.40161133,-0.14117432,-0.8550415,1.90625,-0.359375,0.765625,464
323,1696245869166,0.3972168,-0.144104,-0.8418579,1.3125,-0.609375,0.5,465
324,1696245869206,0.4038086,-0.14093018,-0.848938,1.46875,-0.875,0.59375,466
325,1696245869246,0.4050293,-0.12823486,-0.85650635,0.921875,-0.625,0.546875,467
326,1696245869286,0.40673828,-0.12530518,-0.8648071,0.625,-0.59375,0.453125,468
327,1696245869326,0.40551758,-0.1272583,-0.85821533,1.0,-0.609375,0.5625,469
328,1696245869366,0.4086914,-0.12896729,-0.8616333,0.96875,-0.421875,0.578125,470
329,1696245869406,0.4033203,-0.13214111,-0.8545532,0.65625,-0.40625,0.25,471
330,1696245869446,0.40771484,-0.12945557,-0.8484497,0.703125,-0.5625,0.265625,472
331,1696245869486,0.40405273,-0.124816895,-0.8423462,0.671875,-0.625,0.5,473
332,1696245869526,0.39892578,-0.11993408,-0.8411255,0.71875,-0.75,0.359375,474
333,1696245869566,0.40722656,-0.13116455,-0.85772705,-0.078125,-0.0625,0.1875,475
334,1696245869606,0.41015625,-0.12701416,-0.86309814,0.390625,-0.40625,0.28125,476
335,1696245869646,0.4074707,-0.12554932,-0.8604126,0.28125,-0.484375,0.25,477
336,1696245869686,0.40576172,-0.12384033,-0.8567505,0.484375,-0.671875,0.328125,478
337,1696245869726,0.40405273,-0.12628174,-0.8518677,-0.046875,-0.328125,0.234375,479
338,1696245869766,0.41235352,-0.12652588,-0.8513794,-0.3125,-0.421875,0.15625,480
339,1696245869806,0.3984375,-0.12408447,-0.85162354,-0.703125,-0.203125,0.078125,481
340,1696245869846,0.40234375,-0.124572754,-0.8538208,-1.078125,-0.28125,0.0,482
341,1696245869886,0.4033203,-0.1326294,-0.86968994,-1.5625,0.375,-0.140625,483
342,1696245869926,0.40795898,-0.12579346,-0.8596802,-1.390625,0.328125,-0.140625,484
343,1696245869966,0.40185547,-0.1350708,-0.86016846,-1.25,0.046875,-0.125,485
344,1696245870006,0.39794922,-0.1375122,-0.8543091,-1.4375,0.046875,-0.234375,486
345,1696245870046,0.3955078,-0.1338501,-0.8545532,-1.25,-0.5,-0.125,487
346,1696245870086,0.39575195,-0.12652588,-0.85479736,-1.21875,-0.453125,0.078125,488
347,1696245870126,0.39501953,-0.13604736,-0.84991455,-1.15625,-0.5625,0.078125,489
348,1696245870166,0.40405273,-0.13409424,-0.8609009,-1.59375,-0.546875,-0.125,490
349,1696245870206,0.4008789,-0.14361572,-0.85601807,-1.609375,-0.734375,-0.0625,491
350,1696245870246,0.40527344,-0.14508057,-0.85943604,-1.4375,-1.125,-0.09375,492
351,1696245870286,0.3942871,-0.14117432,-0.8545532,-0.9375,-1.328125,-0.140625,493
352,1696245870326,0.40405273,-0.14874268,-0.85479736,-0.609375,-1.21875,0.109375,494
353,1696245870366,0.41088867,-0.14141846,-0.8557739,-0.296875,-1.265625,0.0625,495
354,1696245870406,0.40185547,-0.14141846,-0.85821533,-0.578125,-0.703125,0.125,496
355,1696245870446,0.4008789,-0.14654541,-0.8435669,0.0,-0.578125,0.078125,497
356,1696245870486,0.4091797,-0.15045166,-0.8545532,0.125,-0.265625,0.328125,498
357,1696245870526,0.40551758,-0.14385986,-0.85723877,1.5625,-0.203125,0.71875,499
358,1696245870566,0.40014648,-0.1428833,-0.8545532,2.46875,-0.40625,1.0,500
359,1696245870606,0.4050293,-0.1416626,-0.84991455,1.578125,-0.5625,0.5625,501
360,1696245870646,0.40161133,-0.13726807,-0.86065674,0.515625,-0.46875,0.265625,502
361,1696245870686,0.41259766,-0.13018799,-0.84942627,1.078125,-0.5,0.609375,503
362,1696245870726,0.40820312,-0.12750244,-0.8562622,1.296875,-0.59375,0.6875,504
363,1696245870766,0.4091797,-0.12554932,-0.8579712,1.296875,-0.515625,0.53125,505
364,1696245870806,0.4050293,-0.12872314,-0.8609009,0.9375,-0.390625,0.40625,506
365,1696245870846,0.4050293,-0.12554932,-0.86187744,0.34375,-0.53125,0.421875,507
366,1696245870886,0.40478516,-0.13189697,-0.8413696,0.625,-0.65625,0.3125,508
367,1696245870926,0.39990234,-0.11798096,-0.84454346,0.734375,-0.75,0.34375,509
368,1696245870966,0.40234375,-0.124572754,-0.85162354,0.671875,-0.578125,0.359375,510
369,1696245871006,0.40576172,-0.12408447,-0.86138916,0.328125,-0.703125,0.328125,511
370,1696245871046,0.40649414,-0.12750244,-0.86187744,0.421875,-0.6875,0.140625,512
371,1696245871086,0.40478516,-0.12628174,-0.85357666,0.28125,-0.625,0.03125,513
372,1696245871126,0.41137695,-0.12213135,-0.8567505,-0.1875,-0.484375,0.25,514
373,1696245871166,0.40820312,-0.12042236,-0.8479614,-0.5,-0.40625,0.15625,515
374,1696245871206,0.41064453,-0.12408447,-0.86260986,-0.953125,0.265625,-0.28125,516
375,1696245871246,0.40234375,-0.12506104,-0.84210205,-0.953125,0.078125,0.015625,517
376,1696245871286,0.40429688,-0.12261963,-0.85528564,-1.53125,0.203125,-0.15625,518
377,1696245871326,0.40161133,-0.13189697,-0.8652954,-1.6875,0.171875,-0.21875,519
378,1696245871366,0.39672852,-0.13043213,-0.8596802,-1.390625,-0.234375,-0.078125,520
379,1696245871406,0.39819336,-0.13140869,-0.8533325,-1.109375,-0.421875,0.015625,521
380,1696245871446,0.4013672,-0.13482666,-0.8533325,-1.40625,-0.375,-0.109375,522
381,1696245871486,0.39624023,-0.13970947,-0.85113525,-1.1875,-0.84375,-0.03125,523
382,1696245871526,0.39697266,-0.13604736,-0.84747314,-1.25,-0.609375,-0.171875,524
383,1696245871566,0.4025879,-0.13531494,-0.8557739,-1.265625,-0.765625,-0.09375,525
384,1696245871606,0.39990234,-0.14337158,-0.8545532,-1.171875,-0.78125,-0.109375,526
385,1696245871646,0.40478516,-0.14581299,-0.85113525,-1.234375,-0.984375,-0.046875,527
386,1696245871686,0.40185547,-0.14385986,-0.8518677,-1.015625,-1.25,-0.09375,528
387,1696245871726,0.40112305,-0.14971924,-0.85357666,-0.84375,-1.109375,0.0625,529
388,1696245871766,0.4008789,-0.1453247,-0.8533325,-0.6875,-1.375,0.125,530
389,1696245871806,0.3996582,-0.14776611,-0.85772705,-0.65625,-1.34375,0.03125,531
390,1696245871846,0.40405273,-0.144104,-0.8389282,-0.4375,-1.53125,0.15625,532
391,1696245871886,0.41503906,-0.14605713,-0.8538208,-0.390625,-1.1875,-0.015625,533
392,1696245871926,0.4086914,-0.15020752,-0.8567505,-0.59375,-0.796875,0.125,534
393,1696245871966,0.40478516,-0.14752197,-0.83843994,-0.125,-0.546875,0.234375,535
394,1696245872006,0.4111328,-0.1506958,-0.86309814,0.5625,-0.078125,0.375,536
395,1696245872046,0.39892578,-0.13995361,-0.8501587,1.828125,0.1875,0.734375,537
396,1696245872086,0.41381836,-0.14434814,-0.8491821,1.140625,0.125,0.578125,538
397,1696245872126,0.40429688,-0.14312744,-0.85113525,1.0,-0.125,0.46875,539
398,1696245872166,0.40527344,-0.14117432,-0.8508911,1.046875,-0.34375,0.4375,540
399,1696245872206,0.40551758,-0.13702393,-0.86846924,1.203125,-0.25,0.453125,541
400,1696245872246,0.40844727,-0.13775635,-0.86602783,1.453125,-0.375,0.65625,542
401,1696245872286,0.4013672,-0.13604736,-0.8599243,1.109375,-0.234375,0.5625,543
402,1696245872326,0.4033203,-0.13677979,-0.8596802,1.015625,-0.515625,0.40625,544
403,1696245872366,0.39819336,-0.128479,-0.8538208,0.640625,-0.21875,0.34375,545
404,1696245872406,0.40307617,-0.13214111,-0.84869385,0.734375,-0.609375,0.484375,546
405,1696245872446,0.40356445,-0.12945557,-0.8418579,0.875,-0.75,0.421875,547
406,1696245872486,0.39892578,-0.12701416,-0.8538208,0.578125,-0.703125,0.265625,548
407,1696245872526,0.40844727,-0.124572754,-0.8635864,0.578125,-0.625,0.421875,549
408,1696245872566,0.40356445,-0.12261963,-0.8562622,0.671875,-0.9375,0.234375,550
409,1696245872606,0.40527344,-0.12872314,-0.8635864,0.453125,-0.734375,0.359375,551
410,1696245872646,0.40625,-0.12261963,-0.8479614,0.25,-0.65625,0.359375,552
411,1696245872686,0.4033203,-0.12164307,-0.86187744,0.09375,0.015625,0.203125,553
412,1696245872726,0.39892578,-0.12237549,-0.84454346,-0.21875,-0.296875,0.15625,554
413,1696245872766,0.40771484,-0.12335205,-0.85601807,-1.1875,0.109375,-0.140625,555
414,1696245872806,0.39892578,-0.12506104,-0.8574829,-1.5625,0.078125,-0.25,556
415,1696245872846,0.39941406,-0.12164307,-0.8550415,-1.546875,-0.09375,-0.1875,557
416,1696245872886,0.40234375,-0.12872314,-0.861145,-1.078125,-0.296875,-0.109375,558
417,1696245872926,0.39819336,-0.13653564,-0.85284424,-0.9375,-0.40625,0.140625,559
418,1696245872966,0.39916992,-0.13873291,-0.8543091,-0.953125,-0.53125,-0.015625,560
419,1696245873006,0.40283203,-0.13702393,-0.85284424,-1.125,-0.515625,-0.1875,561
420,1696245873046,0.39770508,-0.1350708,-0.8440552,-1.125,-0.625,-0.125,562
421,1696245873086,0.40820312,-0.13067627,-0.8584595,-1.296875,-0.6875,-0.0625,563
422,1696245873126,0.39501953,-0.13604736,-0.8484497,-1.3125,-0.671875,-0.125,564
423,1696245873166,0.40698242,-0.1338501,-0.86016846,-1.203125,-0.796875,-0.015625,565
424,1696245873206,0.40161133,-0.14141846,-0.86383057,-0.84375,-0.8125,-0.09375,566
425,1696245873246,0.40673828,-0.14068604,-0.86431885,-0.6875,-0.8125,0.046875,567
426,1696245873286,0.4025879,-0.14776611,-0.8521118,-0.546875,-1.03125,0.078125,568
427,1696245873326,0.39868164,-0.14263916,-0.84552,-0.328125,-0.96875,0.09375,569
428,1696245873366,0.40405273,-0.14190674,-0.8518677,-0.6875,-0.953125,-0.046875,570
429,1696245873406,0.40405273,-0.14093018,-0.8621216,-0.296875,-0.609375,0.03125,571
430,1696245873446,0.3984375,-0.14263916,-0.8364868,0.078125,-0.796875,0.3125,572
431,1696245873486,0.41210938,-0.14556885,-0.8670044,0.8125,-0.515625,0.5,573
432,1696245873526,0.40405273,-0.13873291,-0.8513794,1.46875,-0.359375,0.671875,574
433,1696245873566,0.4025879,-0.14068604,-0.8545532,1.140625,-0.71875,0.578125,575
434,1696245873606,0.40405273,-0.13873291,-0.8530884,1.0,-0.375,0.5,576
435,1696245873646,0.4013672,-0.1428833,-0.85113525,1.171875,-0.6875,0.515625,577
436,1696245873686,0.40039062,-0.13018799,-0.8464966,1.625,-1.109375,0.890625,578
437,1696245873726,0.40356445,-0.13336182,-0.85040283,1.421875,-0.53125,0.625,579
438,1696245873766,0.40551758,-0.13092041,-0.85772705,1.109375,-0.4375,0.3125,580
439,1696245873806,0.40820312,-0.13116455,-0.8555298,0.8125,-0.4375,0.40625,581
440,1696245873846,0.40356445,-0.120910645,-0.85235596,0.328125,-0.5625,0.296875,582
441,1696245873886,0.40185547,-0.12896729,-0.84332275,0.6875,-0.765625,0.53125,583
442,1696245873926,0.40112305,-0.12774658,-0.8545532,0.65625,-0.609375,0.328125,584
443,1696245873966,0.40454102,-0.13116455,-0.8569946,0.390625,-0.515625,0.34375,585
444,1696245874006,0.40722656,-0.12945557,-0.864563,0.265625,-0.546875,0.21875,586
445,1696245874046,0.40649414,-0.12335205,-0.84991455,0.46875,-0.828125,0.46875,587
446,1696245874086,0.4050293,-0.12506104,-0.86383057,-0.234375,-0.1875,0.0625,588
447,1696245874126,0.40820312,-0.11920166,-0.8479614,0.265625,-0.203125,0.15625,589
448,1696245874166,0.40039062,-0.117248535,-0.8479614,-0.03125,-0.25,0.296875,590
449,1696245874206,0.40185547,-0.12994385,-0.8538208,-0.75,-0.125,0.34375,591
450,1696245874246,0.4008789,-0.1272583,-0.86968994,-1.578125,0.046875,0.015625,592
451,1696245874286,0.40307617,-0.12408447,-0.8587036,-1.40625,-0.1875,-0.375,593
452,1696245874326,0.40234375,-0.12774658,-0.85235596,-0.96875,-0.25,-0.0625,594
453,1696245874366,0.4038086,-0.13092041,-0.85772705,-1.03125,-0.421875,-0.140625,595
454,1696245874406,0.40112305,-0.13653564,-0.8609009,-1.125,-0.453125,-0.0625,596
455,1696245874446,0.3918457,-0.13555908,-0.8526001,-1.4375,-0.53125,-0.109375,597
456,1696245874486,0.40039062,-0.13531494,-0.85479736,-1.546875,-0.421875,-0.234375,598
457,1696245874526,0.39697266,-0.13433838,-0.848938,-1.015625,-0.6875,-0.140625,599
458,1696245874566,0.4008789,-0.13531494,-0.86016846,-1.390625,-0.59375,-0.078125,600
459,1696245874606,0.4074707,-0.1416626,-0.8538208,-1.109375,-0.90625,0.046875,601
460,1696245874646,0.40600586,-0.14508057,-0.86138916,-0.828125,-0.953125,0.03125,602
461,1696245874686,0.40722656,-0.14605713,-0.85772705,-0.734375,-1.125,0.046875,603
462,1696245874726,0.4033203,-0.14556885,-0.85162354,-0.921875,-0.828125,-0.078125,604
463,1696245874766,0.4038086,-0.14605713,-0.84625244,-0.40625,-1.03125,0.09375,605
464,1696245874806,0.40185547,-0.14508057,-0.85113525,-0.6875,-0.734375,-0.15625,606
465,1696245874846,0.41308594,-0.14874268,-0.86383057,-0.625,-0.734375,0.03125,607
466,1696245874886,0.3942871,-0.1416626,-0.8362427,-0.296875,-0.65625,0.09375,608
467,1696245874926,0.40966797,-0.15435791,-0.8623657,-0.765625,-0.59375,-0.046875,609
468,1696245874966,0.4086914,-0.14630127,-0.8623657,0.5625,-0.625,0.28125,610
469,1696245875006,0.4074707,-0.14703369,-0.850647,1.625,-0.421875,0.5,611
470,1696245875046,0.40185547,-0.14093018,-0.8435669,2.265625,-0.671875,0.96875,612
471,1696245875086,0.40478516,-0.1375122,-0.84991455,0.9375,-0.390625,0.375,613
472,1696245875126,0.39770508,-0.14239502,-0.85357666,0.234375,-0.65625,0.34375,614
473,1696245875166,0.39868164,-0.13360596,-0.85040283,0.9375,-0.5625,0.46875,615
474,1696245875206,0.4074707,-0.12921143,-0.8543091,1.5,-0.546875,0.625,616
475,1696245875246,0.40795898,-0.13897705,-0.8616333,1.578125,-0.4375,0.671875,617
476,1696245875286,0.40625,-0.13555908,-0.86846924,0.765625,-0.25,0.328125,618
477,1696245875326,0.40185547,-0.13360596,-0.84869385,0.875,-0.296875,0.40625,619
478,1696245875366,0.39868164,-0.12994385,-0.85113525,0.671875,-0.59375,0.359375,620
479,1696245875406,0.40429688,-0.12408447,-0.8406372,0.796875,-0.6875,0.546875,621
480,1696245875446,0.40429688,-0.121154785,-0.84698486,0.671875,-0.703125,0.46875,622
481,1696245875486,0.40698242,-0.12799072,-0.86016846,0.671875,-0.796875,0.328125,623
482,1696245875526,0.40454102,-0.12750244,-0.8557739,0.59375,-0.796875,0.25,624
483,1696245875566,0.4074707,-0.1272583,-0.87164307,-0.125,-0.28125,0.15625,625
484,1696245875606,0.4008789,-0.12432861,-0.8491821,0.421875,-0.453125,0.3125,626
485,1696245875646,0.40063477,-0.11968994,-0.85040283,0.109375,-0.453125,0.234375,627
486,1696245875686,0.40722656,-0.12384033,-0.8562622,-0.28125,-0.203125,0.21875,628
487,1696245875726,0.40649414,-0.12384033,-0.848938,-0.3125,-0.515625,0.078125,629
488,1696245875766,0.4020996,-0.12359619,-0.85723877,-0.390625,-0.578125,0.3125,630
489,1696245875806,0.40649414,-0.120666504,-0.85528564,-0.578125,-0.359375,0.078125,631
490,1696245875846,0.3996582,-0.12554932,-0.86065674,-0.875,-0.265625,-0.078125,632
491,1696245875886,0.40771484,-0.12628174,-0.8579712,-1.453125,-0.078125,-0.015625,633
492,1696245875926,0.4008789,-0.13458252,-0.85235596,-1.203125,-0.359375,-0.109375,634
493,1696245875966,0.3942871,-0.12896729,-0.850647,-1.1875,-0.171875,-0.21875,635
494,1696245876006,0.40527344,-0.12872314,-0.85284424,-1.28125,-0.40625,-0.109375,636
495,1696245876046,0.40039062,-0.1362915,-0.85601807,-1.46875,-0.46875,-0.1875,637
496,1696245876086,0.3996582,-0.1404419,-0.8521118,-1.328125,-0.5625,-0.015625,638
497,1696245876126,0.4025879,-0.13580322,-0.8584595,-1.359375,-0.59375,0.015625,639
498,1696245876166,0.4020996,-0.14459229,-0.8513794,-1.140625,-0.84375,-0.125,640
499,1696245876206,0.40356445,-0.14117432,-0.85650635,-1.140625,-0.640625,-0.125,641
500,1696245876246,0.3984375,-0.13800049,-0.8550415,-1.203125,-1.203125,0.140625,642
501,1696245876286,0.40844727,-0.13604736,-0.8513794,-1.03125,-0.640625,-0.234375,643
502,1696245876326,0.39892578,-0.14434814,-0.85235596,-0.75,-0.4375,0.078125,644
503,1696245876366,0.40527344,-0.14898682,-0.8479614,-0.890625,-0.5625,-0.1875,645
504,1696245876406,0.40551758,-0.14654541,-0.8533325,-0.390625,-0.6875,0.25,646
505,1696245876446,0.40112305,-0.14703369,-0.8584595,0.859375,-0.75,0.390625,647
506,1696245876486,0.40112305,-0.14385986,-0.84820557,1.25,-0.421875,0.5,648
507,1696245876526,0.4008789,-0.1338501,-0.8521118,1.5625,-0.671875,0.625,649
508,1696245876566,0.4038086,-0.13433838,-0.8399048,1.109375,-0.609375,0.296875,650
509,1696245876606,0.40161133,-0.13287354,-0.85601807,0.328125,-0.546875,0.390625,651
510,1696245876646,0.4025879,-0.14093018,-0.85528564,0.90625,-0.625,0.421875,652
511,1696245876686,0.4025879,-0.12896729,-0.85162354,1.609375,-0.546875,0.546875,653
512,1696245876726,0.40820312,-0.12921143,-0.86505127,1.25,-0.515625,0.546875,654
513,1696245876766,0.39990234,-0.13677979,-0.8569946,0.9375,-0.609375,0.359375,655
514,1696245876806,0.40600586,-0.13140869,-0.85406494,0.546875,-0.546875,0.34375,656
515,1696245876846,0.4038086,-0.12384033,-0.8452759,0.625,-0.875,0.28125,657
516,1696245876886,0.39892578,-0.12286377,-0.8381958,0.671875,-0.71875,0.390625,658
517,1696245876926,0.4050293,-0.12750244,-0.84625244,0.578125,-0.546875,0.296875,659
518,1696245876966,0.41381836,-0.1260376,-0.8670044,-0.125,-0.078125,0.3125,660
519,1696245877006,0.40551758,-0.124816895,-0.86309814,0.125,-0.296875,0.09375,661
520,1696245877046,0.40722656,-0.121398926,-0.8569946,-0.578125,-0.046875,0.171875,662
521,1696245877086,0.4033203,-0.12554932,-0.8508911,-0.796875,-0.171875,0.078125,663
522,1696245877126,0.40625,-0.12554932,-0.8569946,-1.0625,0.046875,-0.078125,664
523,1696245877166,0.40405273,-0.12652588,-0.8513794,-1.15625,-0.15625,-0.140625,665
524,1696245877206,0.39941406,-0.13409424,-0.8567505,-1.203125,-0.109375,-0.125,666
525,1696245877246,0.4025879,-0.13165283,-0.8604126,-1.3125,-0.25,-0.09375,667
526,1696245877286,0.40161133,-0.14581299,-0.8670044,-1.40625,-0.5,-0.140625,668
527,1696245877326,0.39916992,-0.13458252,-0.8584595,-1.40625,-0.359375,-0.109375,669
528,1696245877366,0.3984375,-0.14556885,-0.84942627,-1.328125,-0.3125,-0.015625,670
529,1696245877406,0.39770508,-0.13604736,-0.85357666,-0.96875,-0.578125,0.046875,671
530,1696245877446,0.40014648,-0.13897705,-0.86065674,-1.109375,-0.828125,-0.0625,672
531,1696245877486,0.40283203,-0.13922119,-0.8533325,-1.09375,-0.71875,-0.0625,673
532,1696245877526,0.40649414,-0.13946533,-0.85601807,-0.828125,-0.9375,0.03125,674
533,1696245877566,0.40649414,-0.14727783,-0.85601807,-0.6875,-0.921875,0.0625,675
534,1696245877606,0.4050293,-0.1482544,-0.8562622,-0.28125,-1.015625,0.0,676
535,1696245877646,0.40600586,-0.14581299,-0.8567505,0.0,-0.9375,0.359375,677
536,1696245877686,0.4104004,-0.14093018,-0.86138916,0.609375,-1.171875,0.515625,678
537,1696245877726,0.40161133,-0.13775635,-0.84161377,1.234375,-0.40625,0.46875,679
538,1696245877766,0.39916992,-0.14361572,-0.84991455,0.96875,-0.046875,0.375,680
539,1696245877806,0.40649414,-0.13873291,-0.847229,0.96875,-0.796875,0.359375,681
540,1696245877846,0.40112305,-0.13433838,-0.8491821,0.796875,-0.953125,0.375,682
541,1696245877886,0.40551758,-0.13775635,-0.86016846,0.625,-0.484375,0.359375,683
542,1696245877926,0.40527344,-0.13116455,-0.8533325,1.078125,-0.578125,0.546875,684
543,1696245877966,0.40673828,-0.12774658,-0.8579712,1.015625,-0.59375,0.59375,685
544,1696245878006,0.40673828,-0.13238525,-0.8491821,1.109375,-0.375,0.484375,686
545,1696245878046,0.3996582,-0.1296997,-0.8604126,0.5,-0.390625,0.21875,687
546,1696245878086,0.40112305,-0.13043213,-0.84210205,0.46875,-0.453125,0.203125,688
547,1696245878126,0.39990234,-0.12530518,-0.84210205,0.609375,-0.4375,0.34375,689
548,1696245878166,0.40844727,-0.12628174,-0.85406494,0.5,-0.53125,0.359375,690
549,1696245878206,0.41137695,-0.12432861,-0.8562622,0.4375,-0.53125,0.234375,691
550,1696245878246,0.40478516,-0.12286377,-0.86260986,0.078125,-0.484375,0.171875,692
551,1696245878286,0.40283203,-0.12701416,-0.8587036,-0.015625,-0.4375,0.15625,693
552,1696245878326,0.40356445,-0.12872314,-0.8526001,-0.203125,-0.40625,0.140625,694
553,1696245878366,0.40112305,-0.11920166,-0.8501587,-0.375,-0.421875,0.1875,695
554,1696245878406,0.40063477,-0.1272583,-0.8413696,-0.484375,-0.4375,0.171875,696
555,1696245878446,0.39941406,-0.12554932,-0.84991455,-0.6875,-0.21875,0.0,697
556,1696245878486,0.40063477,-0.13140869,-0.87042236,-1.0625,-0.0625,-0.015625,698
557,1696245878526,0.3955078,-0.128479,-0.8435669,-1.0625,-0.125,-0.03125,699
558,1696245878566,0.40234375,-0.13726807,-0.8562622,-2.046875,0.03125,-0.3125,700
559,1696245878606,0.4013672,-0.13531494,-0.86016846,-1.71875,-0.296875,-0.328125,701
560,1696245878646,0.39453125,-0.13311768,-0.85162354,-1.0625,-0.5625,0.09375,702
561,1696245878686,0.40014648,-0.13800049,-0.8508911,-1.203125,-0.734375,-0.09375,703
562,1696245878726,0.40307617,-0.13800049,-0.8569946,-1.125,-0.65625,-0.109375,704
563,1696245878766,0.3972168,-0.1404419,-0.84747314,-1.0625,-0.8125,-0.078125,705
564,1696245878806,0.39379883,-0.14337158,-0.8513794,-1.171875,-0.78125,-0.09375,706
565,1696245878846,0.39672852,-0.14776611,-0.8467407,-0.8125,-0.859375,0.03125,707
566,1696245878886,0.40283203,-0.1453247,-0.85113525,-0.546875,-0.984375,0.078125,708
567,1696245878926,0.40478516,-0.14385986,-0.85406494,-0.5,-1.046875,0.109375,709
568,1696245878966,0.40405273,-0.14727783,-0.84820557,-0.296875,-1.09375,0.4375,710
569,1696245879006,0.39868164,-0.14263916,-0.86016846,0.515625,-0.75,0.3125,711
570,1696245879046,0.40161133,-0.13897705,-0.85528564,1.46875,-0.71875,0.546875,712
571,1696245879086,0.4033203,-0.13653564,-0.8477173,2.015625,-0.828125,0.84375,713
572,1696245879126,0.40234375,-0.14093018,-0.8411255,1.46875,-1.078125,0.75,714
573,1696245879166,0.40405273,-0.13604736,-0.8513794,0.625,-0.21875,0.25,715
574,1696245879206,0.4013672,-0.12994385,-0.8609009,0.671875,-0.421875,0.296875,716
575,1696245879246,0.4020996,-0.12506104,-0.8479614,0.96875,-0.578125,0.53125,717
576,1696245879286,0.40429688,-0.13214111,-0.8574829,0.953125,-0.578125,0.40625,718
577,1696245879326,0.4038086,-0.13433838,-0.86431885,0.34375,-0.28125,0.28125,719
578,1696245879366,0.40698242,-0.13140869,-0.85650635,0.0625,-0.109375,0.046875,720
579,1696245879406,0.39379883,-0.13653564,-0.8530884,0.109375,-0.5,0.203125,721
580,1696245879446,0.40234375,-0.12335205,-0.8394165,0.484375,-0.90625,0.21875,722
581,1696245879486,0.40014648,-0.12994385,-0.83721924,0.21875,-0.640625,0.203125,723
582,1696245879526,0.4013672,-0.13409424,-0.84991455,0.15625,-0.390625,0.28125,724
583,1696245879566,0.4086914,-0.13140869,-0.8648071,-0.1875,-0.375,0.171875,725
584,1696245879606,0.4025879,-0.13140869,-0.8591919,-0.34375,-0.484375,0.125,726
585,1696245879646,0.40795898,-0.12994385,-0.86431885,-0.828125,-0.453125,-0.140625,727
586,1696245879686,0.4013672,-0.12774658,-0.85113525,-0.734375,-0.4375,0.0,728
587,1696245879726,0.40307617,-0.13409424,-0.8484497,-0.875,-0.0625,-0.015625,729
588,1696245879766,0.40014648,-0.13653564,-0.848938,-0.828125,-0.375,-0.078125,730
589,1696245879806,0.39746094,-0.13946533,-0.8557739,-1.140625,-0.546875,0.03125,731
590,1696245879846,0.40307617,-0.13287354,-0.8496704,-1.3125,-0.6875,-0.078125,732
591,1696245879886,0.40356445,-0.13922119,-0.85406494,-1.359375,-1.0625,-0.015625,733
592,1696245879926,0.39916992,-0.14361572,-0.8543091,-1.359375,-0.71875,-0.1875,734
593,1696245879966,0.40966797,-0.14434814,-0.86724854,-1.203125,-0.390625,-0.265625,735
594,1696245880006,0.39819336,-0.14337158,-0.84259033,-0.84375,-0.671875,0.0,736
595,1696245880046,0.3984375,-0.14459229,-0.8574829,-1.28125,-0.703125,-0.25,737
596,1696245880086,0.4008789,-0.1404419,-0.8557739,-1.15625,-0.984375,-0.125,738
597,1696245880126,0.4013672,-0.14874268,-0.85357666,-0.90625,-1.09375,0.03125,739
598,1696245880166,0.4050293,-0.14971924,-0.848938,-0.25,-1.234375,-0.03125,740
599,1696245880206,0.40454102,-0.14459229,-0.848938,0.3125,-0.828125,0.46875,741
600,1696245880246,0.4104004,-0.14849854,-0.861145,1.140625,-0.40625,0.515625,742
601,1696245880286,0.40356445,-0.14239502,-0.84454346,1.515625,-0.796875,0.765625,743
602,1696245880326,0.40454102,-0.144104,-0.8508911,1.375,-0.640625,0.5,744
603,1696245880366,0.4086914,-0.13214111,-0.8543091,1.25,-0.796875,0.5625,745
604,1696245880406,0.40527344,-0.128479,-0.84747314,1.109375,-0.875,0.546875,746
605,1696245880446,0.40527344,-0.13726807,-0.85284424,1.125,-0.71875,0.59375,747
606,1696245880486,0.40429688,-0.1350708,-0.85479736,0.859375,-0.390625,0.390625,748
607,1696245880526,0.40405273,-0.13677979,-0.86065674,0.765625,-0.46875,0.390625,749
608,1696245880566,0.40185547,-0.12823486,-0.85162354,0.875,-0.625,0.328125,750
609,1696245880606,0.4104004,-0.13092041,-0.85357666,0.390625,-0.515625,0.21875,751
610,1696245880646,0.39794922,-0.13116455,-0.8460083,0.578125,-0.21875,0.265625,752
611,1696245880686,0.39941406,-0.13165283,-0.85772705,0.078125,-0.015625,0.078125,753
612,1696245880726,0.40551758,-0.12945557,-0.8491821,0.40625,-0.5625,0.203125,754
613,1696245880766,0.40844727,-0.12945557,-0.8545532,-0.046875,-0.34375,0.28125,755
614,1696245880806,0.40722656,-0.13482666,-0.8579712,-0.671875,-0.265625,-0.046875,756
615,1696245880846,0.4099121,-0.12261963,-0.8587036,-1.453125,-0.109375,-0.234375,757
616,1696245880886,0.40161133,-0.12652588,-0.8557739,-1.40625,0.125,-0.21875,758
617,1696245880926,0.3996582,-0.13433838,-0.8731079,-1.359375,0.046875,-0.0625,759
618,1696245880966,0.40161133,-0.13214111,-0.8530884,-0.859375,-0.34375,0.125,760
619,1696245881006,0.39819336,-0.1404419,-0.8501587,-1.421875,-0.03125,-0.203125,761
620,1696245881046,0.3996582,-0.14215088,-0.8533325,-1.5,-0.46875,-0.171875,762
621,1696245881086,0.39794922,-0.13677979,-0.8555298,-1.640625,-0.578125,-0.171875,763
622,1696245881126,0.39575195,-0.14117432,-0.8508911,-1.828125,-0.796875,-0.328125,764
623,1696245881166,0.40063477,-0.14337158,-0.86309814,-1.4375,-0.96875,-0.25,765
624,1696245881206,0.40795898,-0.14385986,-0.8640747,-0.921875,-1.0,-0.109375,766
625,1696245881246,0.40454102,-0.1453247,-0.8530884,-0.734375,-1.046875,0.15625,767
626,1696245881286,0.40551758,-0.14459229,-0.85235596,-0.875,-1.09375,0.140625,768
627,1696245881326,0.4033203,-0.15142822,-0.8533325,-0.796875,-1.296875,0.125,769
628,1696245881366,0.40478516,-0.14361572,-0.8320923,-0.40625,-1.90625,0.125,770
629,1696245881406,0.4008789,-0.14923096,-0.8526001,-0.296875,-0.84375,-0.0625,771
630,1696245881446,0.41186523,-0.14556885,-0.8440552,-0.265625,-0.609375,0.203125,772
631,1696245881486,0.41186523,-0.1494751,-0.8621216,1.203125,-0.046875,0.5,773
632,1696245881526,0.39746094,-0.14508057,-0.8428345,2.109375,-0.328125,1.0,774
633,1696245881566,0.40063477,-0.1482544,-0.8467407,1.53125,-0.265625,0.796875,775
634,1696245881606,0.40478516,-0.14556885,-0.8501587,0.890625,-0.296875,0.203125,776
635,1696245881646,0.3996582,-0.13922119,-0.8521118,1.0625,-0.609375,0.625,777
636,1696245881686,0.40795898,-0.1350708,-0.85040283,1.484375,-0.46875,0.65625,778
637,1696245881726,0.40576172,-0.13238525,-0.85943604,1.703125,-0.296875,0.625,779
638,1696245881766,0.40698242,-0.13555908,-0.8496704,1.15625,-0.40625,0.28125,780
639,1696245881806,0.4020996,-0.13897705,-0.864563,0.671875,-0.421875,0.359375,781
640,1696245881846,0.40283203,-0.13531494,-0.8555298,0.421875,-0.671875,0.40625,782
641,1696245881886,0.40551758,-0.12554932,-0.8452759,0.796875,-0.75,0.484375,783
642,1696245881926,0.40600586,-0.13189697,-0.84552,0.875,-0.765625,0.53125,784
643,1696245881966,0.40673828,-0.12530518,-0.8543091,0.703125,-0.703125,0.40625,785
644,1696245882006,0.40698242,-0.12774658,-0.8596802,0.046875,-0.296875,0.265625,786
645,1696245882046,0.40649414,-0.1272583,-0.8599243,-0.9375,-0.171875,-0.015625,787
646,1696245882086,0.40429688,-0.13214111,-0.8550415,-1.078125,-0.09375,0.0625,788
647,1696245882126,0.40112305,-0.12506104,-0.8479614,-1.125,-0.046875,-0.078125,789
648,1696245882166,0.39404297,-0.13604736,-0.847229,-1.53125,0.25,-0.265625,790
649,1696245882206,0.40307617,-0.13433838,-0.85723877,-1.28125,-0.09375,-0.125,791
650,1696245882246,0.4099121,-0.13238525,-0.8543091,-1.3125,-0.140625,-0.296875,792
651,1696245882286,0.3996582,-0.14190674,-0.8545532,-1.265625,-0.703125,-0.0625,793
652,1696245882326,0.3996582,-0.1416626,-0.8579712,-1.828125,-0.390625,-0.296875,794
653,1696245882366,0.39648438,-0.1453247,-0.8657837,-1.609375,-0.578125,-0.21875,795
654,1696245882406,0.40600586,-0.14019775,-0.85235596,-1.625,-0.609375,-0.1875,796
655,1696245882446,0.4008789,-0.14874268,-0.8574829,-1.234375,-0.984375,-0.21875,797
656,1696245882486,0.39282227,-0.1416626,-0.8496704,-1.171875,-1.09375,-0.03125,798
657,1696245882526,0.40893555,-0.14898682,-0.86187744,-1.1875,-1.3125,-0.234375,799
658,1696245882566,0.40283203,-0.15216064,-0.847229,-0.40625,-1.53125,0.078125,800
659,1696245882606,0.40429688,-0.1531372,-0.8508911,0.0,-1.140625,0.265625,801
660,1696245882646,0.40234375,-0.14703369,-0.85284424,0.78125,-0.84375,0.484375,802
661,1696245882686,0.40795898,-0.1453247,-0.8518677,2.109375,-0.265625,0.84375,803
662,1696245882726,0.40161133,-0.14898682,-0.84161377,3.046875,-0.859375,1.125,804
663,1696245882766,0.39941406,-0.14215088,-0.850647,1.5625,-0.296875,0.609375,805
664,1696245882806,0.4050293,-0.13677979,-0.8652954,0.609375,-0.125,0.21875,806
665,1696245882846,0.39868164,-0.12921143,-0.84088135,0.890625,-0.71875,0.5625,807
666,1696245882886,0.4033203,-0.13336182,-0.850647,0.78125,-0.21875,0.375,808
667,1696245882926,0.40454102,-0.1326294,-0.8635864,0.828125,-0.171875,0.578125,809
668,1696245882966,0.40551758,-0.13433838,-0.862854,0.75,-0.21875,0.453125,810
669,1696245883006,0.40454102,-0.1375122,-0.85406494,0.421875,-0.375,0.125,811
670,1696245883046,0.39916992,-0.1375122,-0.8430786,0.796875,-0.453125,0.328125,812
671,1696245883086,0.40185547,-0.13043213,-0.8401489,0.625,-0.78125,0.21875,813
672,1696245883126,0.39990234,-0.12530518,-0.84747314,0.34375,-0.4375,0.359375,814
673,1696245883166,0.4020996,-0.13580322,-0.8538208,-0.109375,-0.25,0.03125,815
674,1696245883206,0.40625,-0.13140869,-0.866272,-0.578125,-0.28125,0.203125,816
675,1696245883246,0.40527344,-0.12554932,-0.8652954,-1.015625,-0.390625,-0.140625,817
676,1696245883286,0.40356445,-0.12799072,-0.85601807,-1.390625,-0.171875,-0.203125,818
677,1696245883326,0.40014648,-0.1362915,-0.8543091,-1.25,-0.421875,-0.125,819
678,1696245883366,0.4025879,-0.13482666,-0.8491821,-0.890625,-0.21875,0.125,820
679,1696245883406,0.40234375,-0.13433838,-0.8518677,-1.234375,-0.375,-0.078125,821
680,1696245883446,0.39575195,-0.13726807,-0.85235596,-1.53125,-0.578125,-0.046875,822
681,1696245883486,0.3918457,-0.13726807,-0.8587036,-1.625,-0.671875,-0.328125,823
682,1696245883526,0.40673828,-0.14093018,-0.87213135,-1.296875,-0.640625,-0.25,824
683,1696245883566,0.39086914,-0.14361572,-0.84039307,-1.046875,-0.890625,0.125,825
684,1696245883606,0.3984375,-0.1506958,-0.86016846,-1.53125,-1.03125,-0.203125,826
685,1696245883646,0.4099121,-0.14776611,-0.85357666,-0.875,-1.359375,-0.03125,827
686,1696245883686,0.39892578,-0.15045166,-0.850647,-0.8125,-1.4375,0.0625,828
687,1696245883726,0.4038086,-0.1506958,-0.8447876,-0.5,-1.234375,0.203125,829
688,1696245883766,0.40454102,-0.14703369,-0.84088135,-0.34375,-1.4375,0.203125,830
689,1696245883806,0.4033203,-0.14898682,-0.8423462,0.09375,-1.046875,0.140625,831
690,1696245883846,0.40600586,-0.15216064,-0.8484497,1.203125,-0.109375,0.515625,832
691,1696245883886,0.39892578,-0.14190674,-0.8452759,2.84375,-0.296875,1.21875,833
692,1696245883926,0.40307617,-0.14239502,-0.8460083,2.234375,-0.3125,0.90625,834
693,1696245883966,0.40014648,-0.15142822,-0.8562622,0.109375,-0.234375,0.3125,835
694,1696245884006,0.40649414,-0.1362915,-0.84747314,0.59375,-0.875,0.421875,836
695,1696245884046,0.40844727,-0.13165283,-0.85040283,1.34375,-0.71875,0.703125,837
696,1696245884086,0.40844727,-0.13604736,-0.85943604,1.859375,-0.4375,0.65625,838
697,1696245884126,0.40966797,-0.13116455,-0.8545532,1.46875,-0.546875,0.671875,839
698,1696245884166,0.40112305,-0.13580322,-0.86065674,0.5625,-0.203125,0.171875,840
699,1696245884206,0.4086914,-0.13238525,-0.8591919,0.5,-0.078125,0.1875,841
700,1696245884246,0.3996582,-0.12677002,-0.8406372,0.625,-0.328125,0.375,842
701,1696245884286,0.3955078,-0.12823486,-0.83917236,0.671875,-0.75,0.40625,843
702,1696245884326,0.40478516,-0.13458252,-0.85943604,-0.09375,-0.21875,0.265625,844
703,1696245884366,0.41015625,-0.13214111,-0.862854,-0.421875,-0.40625,-0.109375,845
704,1696245884406,0.40942383,-0.12799072,-0.86431885,-0.6875,-0.234375,0.03125,846
705,1696245884446,0.40527344,-0.12628174,-0.85821533,-0.8125,-0.234375,0.015625,847
706,1696245884486,0.39941406,-0.13360596,-0.85113525,-1.296875,-0.21875,-0.15625,848
707,1696245884526,0.3955078,-0.1326294,-0.84820557,-1.578125,0.296875,-0.421875,849
708,1696245884566,0.3959961,-0.13336182,-0.8464966,-1.375,-0.125,-0.046875,850
709,1696245884606,0.3930664,-0.13433838,-0.8479614,-1.265625,-0.578125,-0.125,851
710,1696245884646,0.40112305,-0.1326294,-0.85284424,-1.34375,-0.5,-0.046875,852
711,1696245884686,0.4038086,-0.14190674,-0.86138916,-1.390625,-0.671875,-0.03125,853
712,1696245884726,0.39916992,-0.14459229,-0.8604126,-1.484375,-0.609375,-0.203125,854
713,1696245884766,0.40161133,-0.14776611,-0.8604126,-1.0,-1.140625,-0.03125,855
714,1696245884806,0.39746094,-0.1453247,-0.8508911,-0.859375,-1.125,0.078125,856
715,1696245884846,0.39794922,-0.14581299,-0.85162354,-0.546875,-1.640625,0.125,857
716,1696245884886,0.40161133,-0.14898682,-0.8430786,-0.828125,-1.78125,-0.125,858
717,1696245884926,0.40698242,-0.14678955,-0.85284424,-0.390625,-1.25,0.015625,859
718,1696245884966,0.3972168,-0.14703369,-0.83013916,-0.265625,-0.90625,0.1875,860
719,1696245885006,0.4086914,-0.14776611,-0.8652954,0.859375,-0.4375,0.21875,861
720,1696245885046,0.40112305,-0.14385986,-0.847229,1.46875,-0.1875,0.6875,862
721,1696245885086,0.40527344,-0.14996338,-0.8508911,1.28125,-0.09375,0.5625,863
722,1696245885126,0.39990234,-0.14141846,-0.848938,0.9375,-0.3125,0.625,864
723,1696245885166,0.40063477,-0.14337158,-0.8526001,1.03125,-0.859375,0.4375,865
724,1696245885206,0.40625,-0.14581299,-0.850647,1.546875,-0.890625,0.65625,866
725,1696245885246,0.4050293,-0.13897705,-0.86187744,1.40625,-0.484375,0.546875,867
726,1696245885286,0.40942383,-0.13726807,-0.85113525,1.125,-0.453125,0.484375,868
727,1696245885326,0.4033203,-0.13433838,-0.8562622,0.953125,-0.4375,0.3125,869
728,1696245885366,0.4013672,-0.13116455,-0.8518677,0.71875,-0.4375,0.28125,870
729,1696245885406,0.40551758,-0.12896729,-0.84747314,0.8125,-0.59375,0.46875,871
730,1696245885446,0.3959961,-0.12750244,-0.8435669,0.875,-0.390625,0.46875,872
731,1696245885486,0.40454102,-0.13116455,-0.85601807,0.59375,-0.390625,0.328125,873
732,1696245885526,0.4111328,-0.12774658,-0.85650635,0.390625,-0.390625,0.390625,874
733,1696245885566,0.40966797,-0.13018799,-0.8701782,-0.515625,-0.390625,0.21875,875
734,1696245885606,0.39868164,-0.12554932,-0.847229,-0.625,-0.140625,0.03125,876
735,1696245885646,0.4099121,-0.12823486,-0.8609009,-1.359375,0.03125,-0.125,877
736,1696245885686,0.39892578,-0.120666504,-0.8381958,-1.28125,0.171875,-0.15625,878
737,1696245885726,0.3959961,-0.13482666,-0.8567505,-2.046875,0.484375,-0.484375,879
738,1696245885766,0.39697266,-0.13067627,-0.8616333,-1.546875,-0.375,-0.21875,880
739,1696245885806,0.39233398,-0.13726807,-0.8496704,-1.4375,-0.59375,-0.15625,881
740,1696245885846,0.40112305,-0.13995361,-0.85821533,-1.640625,-0.46875,-0.046875,882
741,1696245885886,0.39941406,-0.13702393,-0.8491821,-1.25,-0.53125,-0.125,883
742,1696245885926,0.40161133,-0.1416626,-0.8569946,-1.625,-0.625,-0.265625,884
743,1696245885966,0.39794922,-0.14703369,-0.8467407,-0.75,-0.828125,-0.046875,885
744,1696245886006,0.3984375,-0.15118408,-0.8569946,-0.9375,-0.984375,-0.0625,886
745,1696245886046,0.40356445,-0.14215088,-0.85650635,-1.125,-1.375,-0.15625,887
746,1696245886086,0.40161133,-0.15045166,-0.8562622,-0.890625,-1.6875,-0.046875,888
747,1696245886126,0.40234375,-0.15142822,-0.8484497,-0.65625,-1.40625,-0.046875,889
748,1696245886166,0.4033203,-0.1519165,-0.84942627,-0.03125,-1.25,0.3125,890
749,1696245886206,0.40454102,-0.14605713,-0.8484497,0.203125,-1.078125,0.359375,891
750,1696245886246,0.40698242,-0.15045166,-0.8538208,0.96875,-0.765625,0.546875,892
751,1696245886286,0.39868164,-0.1519165,-0.83721924,2.25,-0.46875,0.890625,893
752,1696245886326,0.39990234,-0.14581299,-0.84991455,1.640625,-0.046875,0.703125,894
753,1696245886366,0.40161133,-0.14141846,-0.8616333,1.078125,0.015625,0.453125,895
754,1696245886406,0.3996582,-0.1326294,-0.83917236,1.34375,-0.5,0.625,896
755,1696245886446,0.4038086,-0.13140869,-0.84942627,1.0625,-0.71875,0.515625,897
756,1696245886486,0.4033203,-0.13360596,-0.8621216,0.984375,-0.296875,0.546875,898
757,1696245886526,0.40576172,-0.13653564,-0.862854,0.65625,-0.46875,0.453125,899
758,1696245886566,0.40795898,-0.12945557,-0.85601807,0.953125,-0.625,0.328125,900
759,1696245886606,0.40673828,-0.13482666,-0.85040283,1.125,-1.1875,0.3125,901
