,timestamp,accel_x,accel_y,accel_z,gyro_x,gyro_y,gyro_z,ind
0,1696245722721,0.71777344,-0.010314941,0.7550659,-0.71875,-2.140625,-0.9375,0
1,1696245722761,0.7138672,-0.019592285,0.7687378,1.0625,-0.453125,-0.171875,1
2,1696245722801,0.71435547,-0.014465332,0.7926636,2.28125,0.71875,-0.390625,2
3,1696245722841,0.7297363,-0.038391113,0.7435913,-0.46875,1.765625,-0.546875,3
4,1696245722881,0.7145996,-0.043762207,0.77557373,1.0625,1.90625,-0.28125,4
5,1696245722921,0.7126465,-0.04425049,0.7435913,-0.5,2.609375,0.078125,5
6,1696245722961,0.6940918,-0.028625488,0.7665405,-0.46875,2.21875,-0.484375,6
7,1696245723001,0.720459,-0.022033691,0.72943115,-1.828125,4.140625,-1.8125,7
8,1696245723041,0.7241211,-0.019348145,0.73358154,-1.5,2.921875,-0.03125,8
9,1696245723081,0.7536621,-0.02545166,0.7723999,-3.515625,3.875,0.109375,9
10,1696245723121,0.782959,-0.026428223,0.7562866,-3.703125,4.78125,-0.96875,10
11,1696245723161,0.751709,-0.012756348,0.7406616,-4.046875,4.296875,0.15625,11
12,1696245723201,0.7475586,-0.023010254,0.7067261,-1.296875,2.390625,1.5625,12
13,1696245723241,0.73876953,-0.025939941,0.71868896,3.609375,2.375,1.59375,13
14,1696245723281,0.7468262,-0.016906738,0.6937866,4.71875,0.671875,2.703125,14
15,1696245723321,0.73535156,-0.004699707,0.6803589,3.375,-1.640625,3.0625,15
16,1696245723361,0.704834,-0.009094238,0.6725464,0.84375,-2.640625,3.53125,16
17,1696245723401,0.71435547,-0.006164551,0.6835327,-0.328125,-1.859375,2.0625,17
18,1696245723441,0.72436523,0.0079956055,0.69281006,-0.546875,-1.703125,0.109375,18
19,1696245723481,0.71728516,0.014343262,0.70355225,-0.140625,-1.5625,0.0625,19
20,1696245723521,0.72680664,0.00091552734,0.7128296,0.328125,-2.171875,-0.15625,20
21,1696245723561,0.7277832,-0.006652832,0.7177124,1.109375,-1.953125,-0.578125,21
22,1696245723601,0.7229004,-0.016418457,0.7250366,1.0625,-2.453125,-0.078125,22
23,1696245723641,0.7097168,-0.026916504,0.72406006,-1.296875,-3.578125,-0.1875,23
24,1696245723681,0.7128906,-0.018127441,0.7103882,-2.3125,-3.640625,-0.65625,24
25,1696245723721,0.7097168,0.012634277,0.6911011,-0.578125,-4.1875,-0.171875,25
26,1696245723761,0.67700195,0.023132324,0.69207764,4.265625,-1.1875,1.03125,26
27,1696245723801,0.7019043,-0.0025024414,0.6715698,8.046875,-1.921875,1.3125,27
28,1696245723841,0.70410156,-0.02960205,0.6925659,5.28125,1.65625,0.234375,28
29,1696245723881,0.72265625,-0.03375244,0.68914795,0.578125,1.4375,-0.53125,29
30,1696245723921,0.7441406,-0.03326416,0.75335693,0.96875,2.828125,0.0,30
31,1696245723961,0.74194336,-0.023498535,0.72943115,-0.78125,-1.84375,1.21875,31
32,1696245724001,0.7114258,-0.016418457,0.7116089,-1.59375,-4.796875,1.3125,32
33,1696245724041,0.6984863,-0.015686035,0.7062378,-4.109375,-4.90625,0.53125,33
34,1696245724081,0.7011719,-0.024230957,0.732605,-3.640625,-4.46875,-0.796875,34
35,1696245724121,0.689209,-0.022033691,0.7247925,-2.453125,-2.6875,-1.671875,35
36,1696245724161,0.7182617,-0.0115356445,0.7457886,1.328125,-0.46875,-2.015625,36
37,1696245724201,0.7216797,-0.026916504,0.743103,2.09375,0.625,-0.90625,37
38,1696245724241,0.7224121,-0.035949707,0.75531006,2.859375,-1.625,-0.578125,38
39,1696245724281,0.73339844,-0.04498291,0.74823,4.875,2.96875,-0.75,39
40,1696245724321,0.7375488,-0.014709473,0.7538452,2.875,2.125,0.0625,40
41,1696245724361,0.7421875,-0.03717041,0.72650146,0.015625,-0.046875,0.515625,41
42,1696245724401,0.7434082,-0.04888916,0.7572632,-1.578125,2.625,1.328125,42
43,1696245724441,0.7602539,-0.05596924,0.76556396,-3.734375,2.5625,0.4375,43
44,1696245724481,0.72216797,-0.04034424,0.72821045,-6.96875,0.765625,0.96875,44
45,1696245724521,0.703125,-0.01739502,0.7028198,-7.296875,1.671875,1.515625,45
46,1696245724561,0.7297363,-0.00592041,0.7201538,-5.640625,3.75,0.703125,46
47,1696245724601,0.73095703,0.003112793,0.7514038,-1.40625,2.234375,0.75,47
48,1696245724641,0.73535156,0.002380371,0.69451904,1.4375,-0.609375,1.484375,48
49,1696245724681,0.6965332,0.012634277,0.67718506,1.4375,-2.53125,0.6875,49
50,1696245724721,0.70874023,0.0048217773,0.71087646,2.265625,-1.328125,0.859375,50
51,1696245724761,0.71435547,-0.023010254,0.6937866,0.234375,-0.65625,0.65625,51
52,1696245724801,0.71850586,-0.008850098,0.70599365,0.15625,-0.90625,-0.515625,52
53,1696245724841,0.7155762,-0.0015258789,0.6935425,-0.140625,-1.1875,-0.15625,53
54,1696245724881,0.72875977,-0.0178833,0.7123413,0.0,-1.40625,0.15625,54
55,1696245724921,0.7241211,-0.015930176,0.7194214,-0.484375,-2.5,-0.296875,55
56,1696245724961,0.72094727,-0.0076293945,0.7074585,-0.609375,-2.546875,-0.4375,56
57,1696245725001,0.71069336,0.0036010742,0.71429443,0.46875,-3.234375,-0.03125,57
58,1696245725041,0.6870117,0.011413574,0.6959839,0.5,-3.71875,0.609375,58
59,1696245725081,0.6779785,0.014831543,0.6864624,2.671875,-2.328125,1.21875,59
60,1696245725121,0.68725586,-0.011291504,0.67889404,3.5,-3.21875,0.6875,60
61,1696245725161,0.70874023,-0.023010254,0.72039795,1.875,1.15625,0.34375,61
62,1696245725201,0.7336426,-0.018371582,0.7518921,1.671875,3.4375,-0.875,62
63,1696245725241,0.7495117,-0.03253174,0.71380615,0.171875,3.59375,-0.546875,63
64,1696245725281,0.7397461,-0.024230957,0.71624756,0.328125,0.625,1.875,64
65,1696245725321,0.71875,-0.011291504,0.71624756,-1.328125,-0.453125,2.46875,65
66,1696245725361,0.6936035,-0.0068969727,0.7235718,-1.53125,-3.4375,0.875,66
67,1696245725401,0.6828613,-0.013000488,0.7091675,-2.6875,-4.65625,-0.6875,67
68,1696245725441,0.71899414,-0.024963379,0.73553467,-3.609375,-2.125,-1.484375,68
69,1696245725481,0.70654297,0.010437012,0.7157593,-4.796875,-1.796875,-0.484375,69
70,1696245725521,0.7038574,0.011413574,0.73651123,-2.390625,0.4375,-0.09375,70
71,1696245725561,0.72924805,-0.013244629,0.74920654,-0.78125,1.140625,-0.140625,71
72,1696245725601,0.73706055,-0.010070801,0.75408936,0.140625,1.953125,0.5,72
73,1696245725641,0.72924805,-0.02545166,0.7614136,0.8125,1.78125,0.765625,73
74,1696245725681,0.7504883,-0.027648926,0.77630615,-2.421875,4.84375,0.5,74
75,1696245725721,0.75805664,-0.026428223,0.7416382,-2.296875,1.265625,0.890625,75
76,1696245725761,0.7392578,0.005065918,0.72039795,-2.765625,1.109375,0.375,76
77,1696245725801,0.7390137,0.0079956055,0.7020874,-2.484375,1.234375,0.28125,77
78,1696245725841,0.73291016,0.008483887,0.6930542,-1.609375,0.84375,0.375,78
79,1696245725881,0.751709,0.0067749023,0.7069702,-0.015625,1.546875,-0.125,79
80,1696245725921,0.72998047,0.010925293,0.68914795,1.8125,-0.09375,0.3125,80
81,1696245725961,0.7285156,0.0006713867,0.6976929,1.125,-1.046875,1.03125,81
82,1696245726001,0.71606445,-0.0012817383,0.70184326,1.15625,-1.015625,0.578125,82
83,1696245726041,0.7246094,0.012145996,0.7284546,2.4375,-1.6875,0.703125,83
84,1696245726081,0.717041,0.012145996,0.70184326,0.03125,-0.953125,0.203125,84
85,1696245726121,0.7116699,0.010437012,0.67474365,0.171875,-2.53125,0.203125,85
86,1696245726161,0.71191406,0.0004272461,0.7279663,1.328125,-2.046875,-0.1875,86
87,1696245726201,0.7150879,-0.0068969727,0.71746826,-0.1875,-2.859375,-0.4375,87
88,1696245726241,0.704834,0.0036010742,0.69647217,-0.59375,-2.484375,-0.921875,88
89,1696245726281,0.70458984,0.018249512,0.715271,0.828125,-3.265625,-0.265625,89
90,1696245726321,0.6923828,0.0099487305,0.69940186,1.578125,-3.046875,0.375,90
91,1696245726361,0.6838379,0.020446777,0.6679077,4.625,-3.84375,0.53125,91
92,1696245726401,0.7314453,-0.01373291,0.72821045,6.421875,2.203125,0.25,92
93,1696245726441,0.7194824,-0.022277832,0.684021,3.578125,1.65625,0.484375,93
94,1696245726481,0.73168945,-0.020080566,0.7213745,2.75,1.53125,1.3125,94
95,1696245726521,0.72509766,-0.024963379,0.7086792,1.1875,-1.25,1.4375,95
96,1696245726561,0.7062988,-0.010314941,0.72332764,-1.125,-2.6875,1.046875,96
97,1696245726601,0.7019043,-0.0005493164,0.7304077,-2.078125,-4.21875,0.875,97
98,1696245726641,0.69140625,0.0036010742,0.7145386,-2.625,-5.0625,-0.15625,98
99,1696245726681,0.70336914,-0.012512207,0.7609253,-1.28125,-2.375,-1.125,99
100,1696245726721,0.7089844,-0.006164551,0.73724365,-2.4375,-0.9375,-1.4375,100
101,1696245726761,0.7141113,-0.018127441,0.7201538,-1.125,-0.046875,-1.75,101
102,1696245726801,0.72680664,-0.023742676,0.74090576,-0.328125,-0.28125,-2.140625,102
103,1696245726841,0.73583984,-0.02520752,0.74920654,-0.265625,0.171875,-1.25,103
104,1696245726881,0.74121094,-0.030578613,0.74798584,-0.515625,1.875,-0.359375,104
105,1696245726921,0.74243164,-0.02960205,0.7848511,-1.875,4.984375,0.5,105
106,1696245726961,0.75268555,-0.022766113,0.7560425,-2.109375,2.234375,0.53125,106
107,1696245727001,0.74243164,-0.014221191,0.7316284,-4.015625,1.84375,0.734375,107
108,1696245727041,0.72680664,0.0038452148,0.72650146,-2.328125,-0.421875,1.21875,108
109,1696245727081,0.7331543,0.0004272461,0.71307373,-1.796875,0.53125,0.875,109
110,1696245727121,0.7446289,-0.0029907227,0.73553467,-1.21875,0.78125,1.78125,110
111,1696245727161,0.71972656,0.0038452148,0.697937,-1.859375,-0.765625,1.3125,111
112,1696245727201,0.7036133,0.008483887,0.7055054,-0.625,-0.546875,0.734375,112
113,1696245727241,0.7036133,0.011657715,0.7182007,0.265625,-1.21875,-0.0625,113
114,1696245727281,0.7141113,0.011657715,0.7094116,0.3125,-1.234375,0.015625,114
115,1696245727321,0.7006836,0.02166748,0.72039795,1.296875,-2.1875,-0.203125,115
116,1696245727361,0.70043945,0.01361084,0.72161865,1.375,-2.28125,-0.125,116
117,1696245727401,0.7077637,0.00091552734,0.72821045,1.28125,-1.546875,0.203125,117
118,1696245727441,0.7006836,0.0026245117,0.72406006,0.40625,-2.421875,0.25,118
119,1696245727481,0.69750977,-0.0025024414,0.72283936,-0.03125,-2.515625,-0.171875,119
120,1696245727521,0.6972656,0.0099487305,0.71551514,1.3125,-3.046875,-0.125,120
121,1696245727561,0.6772461,0.0119018555,0.69866943,1.4375,-1.546875,0.421875,121
122,1696245727601,0.6882324,0.0072631836,0.68621826,4.5625,-2.765625,0.265625,122
123,1696245727641,0.7067871,-0.00982666,0.72869873,5.125,-1.609375,0.5,123
124,1696245727681,0.7109375,-0.0071411133,0.71014404,0.25,1.078125,0.234375,124
125,1696245727721,0.7121582,-0.0095825195,0.7045288,-0.234375,-2.484375,0.796875,125
126,1696245727761,0.70288086,-0.004211426,0.730896,-0.21875,-1.609375,0.9375,126
127,1696245727801,0.7089844,-0.009338379,0.7694702,-0.515625,-0.515625,0.296875,127
128,1696245727841,0.69921875,-0.0064086914,0.72698975,-1.0,-2.015625,0.015625,128
129,1696245727881,0.7026367,-0.0029907227,0.7352905,-0.78125,-2.1875,-0.46875,129
130,1696245727921,0.6984863,-0.014465332,0.75579834,-1.296875,-1.515625,-0.578125,130
131,1696245727961,0.6984863,-0.029846191,0.7506714,-1.171875,-0.328125,-1.140625,131
132,1696245728001,0.69970703,-0.0115356445,0.7531128,0.28125,0.75,-0.84375,132
133,1696245728041,0.7121582,-0.02130127,0.743103,-0.546875,1.453125,-0.71875,133
134,1696245728081,0.7194824,-0.010803223,0.7584839,0.453125,2.3125,0.375,134
135,1696245728121,0.7138672,-0.020080566,0.74334717,0.453125,1.984375,0.8125,135
136,1696245728161,0.748291,-0.030334473,0.7872925,-0.75,5.5,0.171875,136
137,1696245728201,0.75390625,-0.03302002,0.76849365,-2.6875,3.484375,0.078125,137
138,1696245728241,0.7458496,-0.011047363,0.7406616,-3.46875,1.765625,0.25,138
139,1696245728281,0.74316406,-0.0012817383,0.7296753,-2.921875,1.875,0.875,139
140,1696245728321,0.7290039,-0.0064086914,0.7157593,-2.4375,1.21875,1.328125,140
141,1696245728361,0.7458496,0.007019043,0.7213745,-1.75,1.78125,1.75,141
142,1696245728401,0.7067871,0.010437012,0.6832886,-1.34375,-1.453125,2.21875,142
143,1696245728441,0.70825195,0.01751709,0.7111206,-0.21875,-1.25,0.953125,143
144,1696245728481,0.70288086,0.01361084,0.6935425,-0.328125,-2.078125,0.515625,144
145,1696245728521,0.7077637,0.018249512,0.7316284,0.78125,-1.703125,-0.3125,145
146,1696245728561,0.7062988,0.018737793,0.7189331,0.875,-2.03125,-0.421875,146
147,1696245728601,0.70825195,0.0026245117,0.7379761,1.25,-3.078125,-0.28125,147
148,1696245728641,0.7216797,0.005554199,0.75701904,-0.1875,0.296875,-0.390625,148
149,1696245728681,0.701416,0.005554199,0.715271,-2.015625,-0.796875,0.828125,149
150,1696245728721,0.70043945,0.0045776367,0.7435913,-0.71875,-2.140625,0.078125,150
151,1696245728761,0.69555664,0.01776123,0.70770264,-0.875,-1.984375,-0.28125,151
152,1696245728801,0.69433594,0.024353027,0.6954956,2.421875,-2.421875,0.578125,152
153,1696245728841,0.68725586,0.030456543,0.6911011,4.25,-1.90625,0.578125,153
154,1696245728881,0.69555664,0.007507324,0.6906128,5.390625,0.046875,0.640625,154
155,1696245728921,0.6843262,0.0014038086,0.6725464,5.703125,-3.4375,0.140625,155
156,1696245728961,0.68969727,-0.010559082,0.6906128,0.59375,-5.4375,-0.4375,156
157,1696245729001,0.7290039,-0.014221191,0.7445679,-2.109375,-0.734375,-0.671875,157
158,1696245729041,0.71533203,0.001159668,0.75042725,-0.875,-0.734375,-0.203125,158
159,1696245729081,0.7404785,-0.004211426,0.7711792,1.765625,1.90625,0.96875,159
160,1696245729121,0.7207031,-0.011291504,0.7601929,0.453125,-0.09375,1.921875,160
161,1696245729161,0.7026367,-0.023498535,0.74432373,-1.6875,-1.390625,0.8125,161
162,1696245729201,0.69799805,-0.015930176,0.73895264,-2.078125,-1.734375,0.359375,162
163,1696245729241,0.6777344,-0.0044555664,0.7296753,-1.859375,-1.65625,0.421875,163
164,1696245729281,0.68774414,0.0060424805,0.7289429,-1.515625,-0.59375,-0.0625,164
165,1696245729321,0.6945801,0.0079956055,0.74212646,-0.375,0.578125,-0.609375,165
166,1696245729361,0.72094727,0.001159668,0.75653076,0.390625,1.078125,-0.46875,166
167,1696245729401,0.7224121,-0.004211426,0.7506714,0.46875,1.640625,-0.3125,167
168,1696245729441,0.7373047,-0.012756348,0.7633667,0.375,1.828125,0.0625,168
169,1696245729481,0.7663574,-0.02178955,0.7970581,-0.8125,5.078125,-0.109375,169
170,1696245729521,0.75146484,-0.02178955,0.74017334,-2.875,2.0625,0.515625,170
171,1696245729561,0.73168945,-0.004211426,0.73651123,-2.203125,0.296875,1.25,171
172,1696245729601,0.7128906,0.0079956055,0.7453003,-1.3125,0.875,0.875,172
173,1696245729641,0.7062988,-0.00030517578,0.7189331,-2.828125,1.25,-0.5,173
174,1696245729681,0.7219238,0.01727295,0.6942749,-1.5625,0.125,-1.03125,174
175,1696245729721,0.71899414,0.019226074,0.69207764,0.421875,-0.6875,0.328125,175
176,1696245729761,0.71362305,0.0033569336,0.7003784,1.21875,0.0625,0.4375,176
177,1696245729801,0.72436523,0.0033569336,0.71429443,2.03125,0.5625,-0.03125,177
178,1696245729841,0.7216797,0.0018920898,0.7206421,2.171875,0.0625,0.109375,178
179,1696245729881,0.7258301,-0.0044555664,0.7301636,2.53125,-0.5625,0.015625,179
180,1696245729921,0.71069336,-0.007385254,0.7223511,1.890625,-2.28125,-0.5,180
181,1696245729961,0.7080078,-0.0032348633,0.7164917,2.15625,-2.453125,-1.296875,181
182,1696245730001,0.7246094,0.0026245117,0.7079468,3.171875,-2.640625,-0.859375,182
183,1696245730041,0.7133789,-0.003967285,0.7040405,3.75,-3.4375,0.390625,183
184,1696245730081,0.6999512,-0.008605957,0.69989014,3.390625,-3.296875,0.375,184
185,1696245730121,0.6940918,-0.008605957,0.69696045,3.0625,-2.609375,0.28125,185
186,1696245730161,0.68310547,0.0033569336,0.6847534,2.671875,-1.78125,1.109375,186
187,1696245730201,0.69799805,-0.014221191,0.70599365,5.5625,1.328125,1.4375,187
188,1696245730241,0.6984863,-0.029846191,0.7086792,4.546875,0.109375,0.34375,188
189,1696245730281,0.70410156,-0.036193848,0.70062256,0.90625,-1.953125,0.078125,189
190,1696245730321,0.6984863,-0.038146973,0.73309326,-1.140625,-3.859375,-0.109375,190
191,1696245730361,0.7077637,-0.02911377,0.7184448,-5.203125,-3.234375,-0.5,191
192,1696245730401,0.71240234,-0.026428223,0.76239014,-3.96875,-1.4375,-0.078125,192
193,1696245730441,0.7077637,-0.027160645,0.7428589,-4.40625,-2.921875,0.203125,193
194,1696245730481,0.7145996,-0.010314941,0.7567749,-3.875,-0.0625,-0.1875,194
195,1696245730521,0.7038574,-0.02960205,0.7562866,-2.328125,0.8125,-0.25,195
196,1696245730561,0.7097168,-0.02154541,0.746521,-0.84375,0.40625,-0.046875,196
197,1696245730601,0.7155762,-0.020568848,0.74871826,0.4375,0.0,-0.0625,197
198,1696245730641,0.6965332,-0.027893066,0.7404175,-1.90625,0.546875,0.0625,198
199,1696245730681,0.7109375,-0.010314941,0.727478,-2.984375,0.453125,-0.328125,199
200,1696245730721,0.7138672,-0.0020141602,0.7470093,-1.265625,0.171875,-0.078125,200
201,1696245730761,0.717041,-0.008605957,0.73065186,-1.640625,1.75,0.265625,201
202,1696245730801,0.7155762,-0.0022583008,0.74139404,0.65625,1.0,0.375,202
203,1696245730841,0.71875,-0.013000488,0.74554443,0.78125,1.25,0.5,203
204,1696245730881,0.7451172,-0.028137207,0.7850952,-0.84375,3.390625,1.015625,204
205,1696245730921,0.7258301,-0.01739502,0.7460327,-2.3125,1.671875,0.90625,205
206,1696245730961,0.73999023,-0.0005493164,0.73773193,-3.390625,1.625,1.03125,206
207,1696245731001,0.72631836,-0.0032348633,0.7279663,-2.71875,1.1875,1.21875,207
208,1696245731041,0.7307129,0.005065918,0.7147827,-2.265625,0.328125,0.984375,208
209,1696245731081,0.7199707,0.015319824,0.71917725,-1.1875,0.625,0.59375,209
210,1696245731121,0.71191406,0.0072631836,0.70526123,-0.609375,-0.546875,0.125,210
211,1696245731161,0.717041,0.015075684,0.713562,-0.21875,-0.109375,0.0,211
212,1696245731201,0.72021484,0.0040893555,0.69744873,-0.796875,-0.171875,-0.578125,212
213,1696245731241,0.72753906,0.01776123,0.70770264,-0.203125,-1.125,-0.234375,213
214,1696245731281,0.7138672,0.011413574,0.72698975,0.890625,0.265625,0.375,214
215,1696245731321,0.71899414,0.003112793,0.7328491,0.953125,-1.453125,0.140625,215
216,1696245731361,0.71435547,-0.0029907227,0.7081909,0.421875,-1.171875,-0.390625,216
217,1696245731401,0.71875,0.01361084,0.72283936,1.703125,-0.421875,-0.75,217
218,1696245731441,0.72143555,0.010681152,0.7098999,3.25,-1.03125,0.375,218
219,1696245731481,0.7060547,-0.0017700195,0.7172241,2.8125,-0.9375,0.640625,219
220,1696245731521,0.70654297,-0.0015258789,0.71258545,1.4375,-1.46875,0.4375,220
221,1696245731561,0.701416,0.0006713867,0.70233154,0.234375,-1.171875,0.34375,221
222,1696245731601,0.70996094,0.0021362305,0.7225952,0.953125,-2.21875,0.59375,222
223,1696245731641,0.6945801,0.006286621,0.7050171,0.375,-4.109375,0.6875,223
224,1696245731681,0.69189453,0.013366699,0.69818115,1.203125,-2.609375,0.375,224
225,1696245731721,0.68774414,0.008972168,0.6884155,2.3125,-4.359375,0.453125,225
226,1696245731761,0.6994629,-0.01763916,0.72576904,3.328125,-1.375,-0.1875,226
227,1696245731801,0.7277832,-0.016906738,0.744812,2.5,1.09375,-0.703125,227
228,1696245731841,0.7219238,-0.019348145,0.7225952,1.375,-0.890625,-0.125,228
229,1696245731881,0.72924805,-0.01373291,0.7506714,1.734375,-0.671875,0.984375,229
230,1696245731921,0.70581055,-0.0178833,0.7357788,0.4375,-1.578125,1.28125,230
231,1696245731961,0.6945801,-0.015686035,0.7194214,-2.046875,-3.5625,0.765625,231
232,1696245732001,0.70166016,-0.012756348,0.7572632,-1.046875,-1.859375,0.390625,232
233,1696245732041,0.6904297,-0.013000488,0.7238159,-3.1875,-0.625,-0.078125,233
234,1696245732081,0.6958008,-0.00592041,0.73846436,-2.203125,-0.359375,-0.3125,234
235,1696245732121,0.70214844,-0.006164551,0.7440796,-1.703125,-0.375,-0.546875,235
236,1696245732161,0.7036133,-0.020324707,0.7626343,-1.734375,0.359375,-0.515625,236
237,1696245732201,0.7138672,-0.007873535,0.7562866,-1.15625,0.828125,-0.625,237
238,1696245732241,0.7375488,-0.019836426,0.75701904,-0.3125,1.171875,-0.09375,238
239,1696245732281,0.7319336,-0.011291504,0.75164795,0.171875,1.640625,0.625,239
240,1696245732321,0.71362305,-0.0134887695,0.7440796,-0.765625,1.90625,1.171875,240
241,1696245732361,0.7253418,-0.00592041,0.7523804,-2.34375,4.03125,0.859375,241
242,1696245732401,0.73291016,-0.015686035,0.7560425,-2.21875,1.953125,0.828125,242
243,1696245732441,0.7167969,-0.002746582,0.7272339,-3.765625,0.703125,0.890625,243
244,1696245732481,0.7180176,0.0138549805,0.7223511,-3.328125,-1.125,1.171875,244
245,1696245732521,0.7260742,0.014587402,0.7304077,-1.6875,0.234375,1.0625,245
246,1696245732561,0.71728516,0.016052246,0.72821045,-1.359375,-0.15625,1.09375,246
247,1696245732601,0.7192383,0.017028809,0.71746826,-0.875,-0.59375,0.921875,247
248,1696245732641,0.717041,0.01751709,0.71698,0.5625,0.125,0.03125,248
249,1696245732681,0.71435547,0.0099487305,0.72332764,0.5625,-0.40625,-0.1875,249
250,1696245732721,0.720459,0.0119018555,0.7211304,1.1875,-0.703125,-0.296875,250
251,1696245732761,0.72387695,0.011657715,0.73309326,1.625,0.515625,0.109375,251
252,1696245732801,0.71899414,0.019226074,0.7328491,1.984375,0.234375,0.671875,252
253,1696245732841,0.7246094,0.012390137,0.7194214,2.1875,0.234375,1.3125,253
254,1696245732881,0.717041,0.012145996,0.7086792,2.265625,0.5,1.46875,254
255,1696245732921,0.6984863,0.011169434,0.70355225,2.25,0.375,1.703125,255
256,1696245732961,0.7133789,0.0033569336,0.7316284,1.21875,-1.296875,0.921875,256
257,1696245733001,0.7036133,0.0036010742,0.6954956,0.046875,-2.109375,0.234375,257
258,1696245733041,0.71313477,0.014587402,0.70843506,0.59375,-2.203125,-0.375,258
259,1696245733081,0.6989746,0.014587402,0.70770264,0.4375,-3.25,-0.109375,259
260,1696245733121,0.6940918,0.00970459,0.71307373,-0.40625,-3.15625,-0.109375,260
261,1696245733161,0.69555664,0.01776123,0.7164917,1.15625,-1.328125,-0.03125,261
262,1696245733201,0.68530273,-0.00079345703,0.68670654,2.828125,-2.515625,-0.34375,262
263,1696245733241,0.71118164,-0.009338379,0.73480225,3.90625,0.1875,-0.578125,263
264,1696245733281,0.7102051,-0.0115356445,0.7172241,2.328125,-0.703125,0.328125,264
265,1696245733321,0.72143555,-0.016906738,0.732605,0.1875,-0.59375,-0.1875,265
266,1696245733361,0.70825195,-0.00030517578,0.7394409,-1.046875,-2.453125,0.484375,266
267,1696245733401,0.703125,0.0072631836,0.7321167,-2.703125,-3.671875,1.125,267
268,1696245733441,0.7019043,-0.0015258789,0.73602295,-3.5625,-4.09375,0.421875,268
269,1696245733481,0.685791,0.002380371,0.7333374,-2.859375,-4.140625,-0.4375,269
270,1696245733521,0.6906738,-0.0017700195,0.74798584,-1.40625,-2.21875,-0.859375,270
271,1696245733561,0.6960449,-0.0076293945,0.75115967,-0.453125,-1.015625,-1.4375,271
272,1696245733601,0.70703125,-0.0064086914,0.76434326,0.546875,-0.359375,-1.28125,272
273,1696245733641,0.7133789,-0.010314941,0.76312256,-0.15625,1.703125,-1.65625,273
274,1696245733681,0.7199707,-0.01373291,0.75408936,-1.015625,1.875,-1.078125,274
275,1696245733721,0.7233887,-0.008605957,0.7550659,-2.125,1.5,-0.46875,275
276,1696245733761,0.7141113,-0.011291504,0.7609253,-0.359375,2.15625,-0.34375,276
277,1696245733801,0.7114258,-0.0037231445,0.7514038,-0.40625,1.90625,-0.3125,277
278,1696245733841,0.7438965,-0.014953613,0.78778076,-1.859375,4.671875,0.203125,278
279,1696245733881,0.73461914,-0.0051879883,0.7567749,-2.515625,1.828125,0.96875,279
280,1696245733921,0.7224121,-0.0029907227,0.7333374,-3.203125,1.328125,1.28125,280
281,1696245733961,0.7097168,0.0060424805,0.72528076,-2.71875,0.171875,1.734375,281
282,1696245734001,0.71362305,0.008972168,0.7272339,-1.59375,1.671875,1.5,282
283,1696245734041,0.71533203,0.015808105,0.7213745,-0.015625,0.765625,0.828125,283
284,1696245734081,0.7194824,0.007019043,0.7189331,1.21875,-0.640625,0.53125,284
285,1696245734121,0.7224121,0.0021362305,0.7147827,0.40625,-0.078125,0.203125,285
286,1696245734161,0.7072754,0.01361084,0.71673584,1.09375,-0.625,0.421875,286
287,1696245734201,0.71069336,0.014343262,0.7184448,1.25,-0.390625,0.1875,287
288,1696245734241,0.7141113,0.009460449,0.7218628,0.765625,-0.375,-0.171875,288
289,1696245734281,0.71484375,0.01776123,0.72406006,1.0,-0.171875,0.046875,289
290,1696245734321,0.71899414,0.0014038086,0.72161865,1.359375,-0.484375,0.15625,290
291,1696245734361,0.7241211,-0.0044555664,0.7218628,1.03125,-0.5,0.34375,291
292,1696245734401,0.7175293,-0.0029907227,0.72283936,1.03125,-0.671875,0.453125,292
293,1696245734441,0.71240234,0.011657715,0.71868896,0.828125,-0.390625,0.625,293
294,1696245734481,0.70996094,0.0004272461,0.72161865,2.203125,-0.15625,0.765625,294
295,1696245734521,0.7224121,-0.00030517578,0.7160034,1.875,-2.5,0.6875,295
296,1696245734561,0.7060547,0.008972168,0.71551514,2.078125,-0.046875,0.53125,296
297,1696245734601,0.7141113,-0.0010375977,0.73553467,1.5625,-2.0,0.109375,297
298,1696245734641,0.7062988,0.0038452148,0.71209717,0.640625,-2.890625,-0.265625,298
299,1696245734681,0.6879883,0.027770996,0.70526123,0.671875,-2.09375,0.15625,299
300,1696245734721,0.703125,0.003112793,0.7025757,2.96875,-1.421875,0.609375,300
301,1696245734761,0.7067871,-0.00982666,0.6984253,3.65625,-0.671875,0.3125,301
302,1696245734801,0.7055664,-0.009338379,0.7164917,3.1875,-0.421875,0.6875,302
303,1696245734841,0.69750977,-0.019836426,0.70184326,-1.078125,-2.265625,0.21875,303
304,1696245734881,0.71972656,-0.027404785,0.7514038,-3.078125,0.5625,0.0625,304
305,1696245734921,0.71362305,0.0006713867,0.73724365,-4.203125,-1.234375,-0.53125,305
306,1696245734961,0.7297363,0.001159668,0.75531006,-2.84375,1.828125,-0.078125,306
307,1696245735001,0.72021484,0.0038452148,0.7333374,-1.78125,-2.59375,0.578125,307
308,1696245735041,0.68066406,0.0038452148,0.7160034,-2.078125,-5.046875,1.015625,308
309,1696245735081,0.6765137,0.00018310547,0.73114014,-2.9375,-4.1875,-0.109375,309
310,1696245735121,0.68530273,0.0065307617,0.7350464,-2.4375,-3.015625,-1.15625,310
311,1696245735161,0.7116699,0.008972168,0.7597046,-0.765625,-0.984375,-0.78125,311
312,1696245735201,0.7126465,0.003112793,0.7548218,0.1875,-1.984375,0.21875,312
313,1696245735241,0.7102051,-0.0032348633,0.7575073,0.71875,-0.5,0.53125,313
314,1696245735281,0.7072754,-0.0068969727,0.776062,0.359375,-0.125,0.140625,314
315,1696245735321,0.7167969,0.0006713867,0.7626343,0.25,1.15625,-0.3125,315
316,1696245735361,0.7182617,-0.0064086914,0.7418823,-1.15625,1.953125,0.15625,316
317,1696245735401,0.7229004,-0.010559082,0.77923584,-0.515625,5.1875,0.359375,317
318,1696245735441,0.7236328,-0.02154541,0.76556396,-0.0625,3.703125,0.65625,318
319,1696245735481,0.7233887,0.005554199,0.7321167,-2.5625,2.203125,1.03125,319
320,1696245735521,0.7246094,0.010681152,0.7440796,-1.40625,2.828125,0.859375,320
321,1696245735561,0.7426758,0.0033569336,0.72821045,-1.671875,2.546875,0.890625,321
322,1696245735601,0.7126465,0.01776123,0.7157593,-1.15625,-0.109375,1.390625,322
323,1696245735641,0.70214844,0.016296387,0.7074585,-0.921875,-0.59375,0.625,323
324,1696245735681,0.7126465,0.011413574,0.7103882,1.09375,0.0,0.40625,324
325,1696245735721,0.7019043,0.01361084,0.71673584,0.859375,-0.046875,0.40625,325
326,1696245735761,0.70166016,0.012390137,0.7020874,1.515625,-2.046875,0.0625,326
327,1696245735801,0.7055664,0.0138549805,0.715271,1.78125,-1.203125,-0.484375,327
328,1696245735841,0.7102051,0.009216309,0.72283936,1.4375,-1.9375,-0.21875,328
329,1696245735881,0.7182617,0.004333496,0.7223511,0.0,-1.78125,-0.1875,329
330,1696245735921,0.7133789,0.009460449,0.71673584,-0.859375,-2.625,-0.28125,330
331,1696245735961,0.7019043,0.015075684,0.7196655,-1.40625,-3.140625,-0.578125,331
332,1696245736001,0.7092285,0.011657715,0.72283936,0.265625,-2.171875,-0.875,332
333,1696245736041,0.70703125,0.014343262,0.70965576,1.625,-1.859375,0.015625,333
334,1696245736081,0.6879883,0.011413574,0.7116089,2.828125,-1.921875,0.625,334
335,1696245736121,0.6928711,0.007019043,0.68914795,3.1875,-0.546875,0.296875,335
336,1696245736161,0.68603516,-0.007385254,0.67767334,2.859375,-2.640625,0.203125,336
337,1696245736201,0.72680664,-0.008117676,0.73480225,0.703125,-0.1875,-0.328125,337
338,1696245736241,0.70825195,0.0018920898,0.7457886,-0.203125,-2.484375,-0.671875,338
339,1696245736281,0.70092773,-0.006652832,0.73895264,0.109375,-2.734375,-0.015625,339
340,1696245736321,0.703125,-6.1035156e-05,0.7477417,0.125,-2.671875,-0.171875,340
341,1696245736361,0.70214844,0.0016479492,0.74554443,-0.390625,-3.125,-0.515625,341
342,1696245736401,0.6972656,-0.007873535,0.75164795,-1.296875,-2.921875,-0.671875,342
343,1696245736441,0.69091797,-0.019592285,0.73846436,-1.828125,-2.859375,-0.390625,343
344,1696245736481,0.6904297,-0.006652832,0.7394409,-2.09375,-0.78125,-0.46875,344
345,1696245736521,0.6933594,-0.00079345703,0.7572632,-0.09375,1.21875,-0.546875,345
346,1696245736561,0.7084961,-0.018615723,0.75775146,1.109375,1.09375,-0.28125,346
347,1696245736601,0.71435547,-0.008117676,0.7616577,1.21875,1.125,-0.25,347
348,1696245736641,0.71362305,-0.014953613,0.7562866,1.515625,0.59375,0.3125,348
349,1696245736681,0.7180176,-0.013244629,0.7536011,0.640625,0.984375,0.71875,349
350,1696245736721,0.7145996,-0.024230957,0.74823,-1.0625,2.46875,0.578125,350
351,1696245736761,0.7270508,-0.015930176,0.76434326,-0.859375,2.890625,0.453125,351
352,1696245736801,0.72143555,-0.0095825195,0.74505615,-2.078125,2.6875,0.578125,352
353,1696245736841,0.72314453,-0.0068969727,0.7357788,-2.578125,1.9375,0.5625,353
354,1696245736881,0.720459,-0.009338379,0.7196655,-2.03125,1.25,0.75,354
355,1696245736921,0.7109375,-0.0012817383,0.72210693,-0.5625,0.96875,0.203125,355
356,1696245736961,0.7297363,0.004333496,0.71868896,0.125,2.0,-0.34375,356
357,1696245737001,0.7331543,-0.0015258789,0.7028198,-0.984375,1.109375,0.25,357
358,1696245737041,0.71313477,-0.007873535,0.7194214,0.234375,-0.6875,0.640625,358
359,1696245737081,0.7114258,0.0014038086,0.7238159,-0.140625,-0.734375,-0.21875,359
360,1696245737121,0.7102051,-0.003967285,0.7094116,-0.609375,-1.40625,-0.25,360
361,1696245737161,0.7126465,0.013122559,0.72772217,0.625,-0.6875,-0.546875,361
362,1696245737201,0.7233887,0.00579834,0.72943115,1.21875,0.140625,0.40625,362
363,1696245737241,0.71484375,-6.1035156e-05,0.7128296,1.28125,-0.671875,0.34375,363
364,1696245737281,0.7248535,-0.0029907227,0.7243042,2.078125,0.0625,0.09375,364
365,1696245737321,0.7060547,-0.0012817383,0.713562,2.125,-0.1875,0.375,365
366,1696245737361,0.71240234,-0.00592041,0.7230835,2.296875,-0.6875,0.4375,366
367,1696245737401,0.70874023,-0.011047363,0.71624756,1.046875,-2.328125,0.171875,367
368,1696245737441,0.7055664,-0.005432129,0.71502686,1.15625,-2.234375,-0.078125,368
369,1696245737481,0.7055664,0.0079956055,0.71258545,1.765625,-2.796875,0.140625,369
370,1696245737521,0.6916504,0.008239746,0.70062256,1.015625,-3.609375,0.796875,370
371,1696245737561,0.6972656,-0.0012817383,0.71917725,2.015625,0.140625,0.5625,371
372,1696245737601,0.6923828,-0.018371582,0.6989136,3.734375,-2.390625,-0.0625,372
373,1696245737641,0.7080078,-0.019836426,0.74554443,4.921875,0.28125,0.21875,373
374,1696245737681,0.7092285,-0.03765869,0.69647217,1.484375,-1.0,0.015625,374
375,1696245737721,0.703125,-0.034729004,0.70721436,-0.375,-3.421875,0.3125,375
376,1696245737761,0.7072754,-0.02178955,0.73968506,-3.046875,-0.390625,-0.484375,376
377,1696245737801,0.71313477,-0.011291504,0.75653076,-2.359375,-0.890625,-0.75,377
378,1696245737841,0.71362305,-0.020568848,0.7382202,-1.53125,-1.34375,-0.921875,378
379,1696245737881,0.70336914,-0.013000488,0.72991943,-1.453125,-2.921875,-0.34375,379
380,1696245737921,0.71899414,-0.017150879,0.75946045,-0.125,-1.8125,0.1875,380
381,1696245737961,0.701416,-0.023742676,0.7404175,-1.21875,-3.109375,1.4375,381
382,1696245738001,0.68408203,-0.015930176,0.7435913,-2.1875,-3.6875,1.75,382
383,1696245738041,0.6875,-0.013977051,0.746521,-3.0,-1.015625,0.890625,383
384,1696245738081,0.6960449,-0.0049438477,0.7501831,-2.78125,0.453125,0.4375,384
385,1696245738121,0.7043457,-0.010803223,0.76483154,-0.421875,0.171875,0.046875,385
386,1696245738161,0.7109375,-0.01373291,0.7579956,0.1875,1.8125,-0.6875,386
387,1696245738201,0.7236328,-0.014465332,0.7650757,1.1875,2.34375,0.03125,387
388,1696245738241,0.7409668,-0.02911377,0.78338623,-0.75,6.40625,0.28125,388
389,1696245738281,0.7546387,-0.030090332,0.77801514,-1.265625,5.484375,0.734375,389
390,1696245738321,0.7451172,-0.0134887695,0.7489624,-2.5625,3.296875,1.5625,390
391,1696245738361,0.732666,-0.0005493164,0.71624756,-1.859375,1.9375,1.890625,391
392,1696245738401,0.71850586,0.0004272461,0.7069702,-0.828125,1.265625,1.6875,392
393,1696245738441,0.7265625,0.008483887,0.7069702,0.21875,-0.1875,2.3125,393
394,1696245738481,0.7067871,0.016052246,0.7025757,0.171875,-1.09375,1.453125,394
395,1696245738521,0.6923828,0.01361084,0.6779175,-0.421875,-0.546875,0.65625,395
396,1696245738561,0.69750977,0.01727295,0.73309326,1.671875,-0.90625,0.078125,396
397,1696245738601,0.70410156,-0.00030517578,0.7194214,1.03125,-1.84375,-0.5,397
398,1696245738641,0.7067871,0.0067749023,0.7235718,0.453125,-1.46875,-0.859375,398
399,1696245738681,0.71777344,0.002380371,0.7362671,0.875,-1.8125,-0.734375,399
400,1696245738721,0.71606445,-0.0029907227,0.72650146,0.328125,-1.296875,0.046875,400
401,1696245738761,0.70532227,0.0036010742,0.7260132,0.203125,-1.40625,0.296875,401
402,1696245738801,0.7126465,-0.0005493164,0.7086792,0.21875,-1.296875,0.125,402
403,1696245738841,0.6972656,0.0038452148,0.7055054,1.03125,-1.40625,0.203125,403
404,1696245738881,0.7060547,-0.002746582,0.72332764,2.234375,-1.390625,-0.09375,404
405,1696245738921,0.7050781,-0.0015258789,0.71624756,1.78125,-1.90625,-0.25,405
406,1696245738961,0.69384766,0.001159668,0.7140503,2.171875,-2.28125,0.3125,406
407,1696245739001,0.6923828,0.0119018555,0.7081909,2.015625,-1.15625,0.75,407
408,1696245739041,0.7019043,-0.0037231445,0.70843506,5.171875,-2.59375,0.53125,408
409,1696245739081,0.7055664,-0.019348145,0.7128296,3.140625,-0.1875,0.234375,409
410,1696245739121,0.7102051,-0.027160645,0.74993896,2.359375,1.328125,-0.078125,410
411,1696245739161,0.7097168,-0.030334473,0.6935425,-0.78125,-1.1875,0.046875,411
412,1696245739201,0.7011719,-0.012512207,0.7267456,-0.40625,-2.375,1.0625,412
413,1696245739241,0.6945801,-0.012268066,0.7328491,-2.703125,-2.703125,0.921875,413
414,1696245739281,0.6875,-0.012756348,0.76556396,-2.890625,0.296875,0.4375,414
415,1696245739321,0.6970215,-0.008361816,0.73480225,-2.4375,-1.328125,-1.0,415
416,1696245739361,0.70410156,-0.0049438477,0.7250366,-1.578125,-2.25,-1.046875,416
417,1696245739401,0.7114258,-0.01763916,0.7536011,-1.0,-1.625,-0.578125,417
418,1696245739441,0.70874023,-0.024475098,0.7494507,-1.328125,-1.3125,-0.5625,418
419,1696245739481,0.7089844,-0.020080566,0.7597046,-0.84375,0.140625,-0.59375,419
420,1696245739521,0.7233887,-0.013977051,0.7509155,-0.796875,1.46875,-0.34375,420
421,1696245739561,0.7080078,-0.010070801,0.7472534,-0.328125,1.328125,0.484375,421
422,1696245739601,0.7175293,-0.01739502,0.7579956,0.9375,0.921875,0.234375,422
423,1696245739641,0.71655273,-0.011047363,0.7484741,0.53125,1.40625,-0.515625,423
424,1696245739681,0.7290039,-0.015930176,0.758728,0.109375,2.109375,-0.28125,424
425,1696245739721,0.74902344,-0.035705566,0.78167725,-1.234375,3.0,-0.140625,425
426,1696245739761,0.74438477,-0.020080566,0.7514038,-2.703125,1.234375,0.078125,426
427,1696245739801,0.7307129,-0.015686035,0.7435913,-1.328125,-0.25,0.78125,427
428,1696245739841,0.7150879,-0.0049438477,0.7184448,-1.265625,-0.4375,0.984375,428
429,1696245739881,0.7062988,0.00091552734,0.7086792,-1.5625,-0.8125,1.109375,429
430,1696245739921,0.6994629,0.005065918,0.71624756,-0.328125,-1.21875,0.859375,430
431,1696245739961,0.71069336,0.006286621,0.7050171,-1.140625,-0.390625,0.515625,431
432,1696245740001,0.6977539,0.003112793,0.6893921,-1.578125,1.34375,0.171875,432
433,1696245740041,0.70703125,0.010681152,0.7440796,0.8125,0.3125,0.3125,433
434,1696245740081,0.6984863,-0.0037231445,0.7289429,0.09375,-1.46875,-0.078125,434
435,1696245740121,0.71313477,-0.004211426,0.73065186,0.125,-0.609375,-0.890625,435
436,1696245740161,0.7229004,0.005554199,0.73236084,0.84375,-0.78125,-0.25,436
437,1696245740201,0.73535156,-0.013977051,0.7367554,0.671875,-1.09375,0.359375,437
438,1696245740241,0.7102051,-0.004699707,0.72039795,0.171875,-1.8125,0.359375,438
439,1696245740281,0.71069336,-0.0017700195,0.7067261,-0.46875,-1.046875,0.578125,439
440,1696245740321,0.6960449,-0.00592041,0.7177124,0.546875,-0.921875,0.703125,440
441,1696245740361,0.6916504,0.0065307617,0.73187256,1.296875,-1.40625,0.265625,441
442,1696245740401,0.6921387,0.001159668,0.7218628,2.546875,-2.015625,0.421875,442
443,1696245740441,0.69555664,0.011413574,0.7111206,3.21875,-1.296875,0.6875,443
444,1696245740481,0.71362305,-0.0005493164,0.7247925,5.3125,-0.0625,0.890625,444
445,1696245740521,0.6911621,-0.018371582,0.69573975,4.578125,-2.03125,0.8125,445
446,1696245740561,0.6965332,-0.013244629,0.6864624,0.15625,-4.0625,0.4375,446
447,1696245740601,0.6960449,-0.021057129,0.73187256,-1.65625,-1.84375,-0.265625,447
448,1696245740641,0.71313477,-0.022521973,0.7304077,-3.640625,-0.734375,-1.296875,448
449,1696245740681,0.70214844,-6.1035156e-05,0.74261475,-3.140625,-2.71875,-0.21875,449
450,1696245740721,0.7104492,0.0040893555,0.74139404,-3.140625,-2.09375,0.625,450
451,1696245740761,0.69311523,-0.0076293945,0.7716675,-1.609375,-2.46875,0.390625,451
452,1696245740801,0.6982422,-0.0115356445,0.76361084,-1.484375,-1.4375,-0.140625,452
453,1696245740841,0.6982422,-0.00079345703,0.76116943,-0.84375,-0.328125,-0.53125,453
454,1696245740881,0.7026367,0.001159668,0.7484741,-0.078125,-0.78125,0.03125,454
455,1696245740921,0.7006836,-0.015930176,0.7536011,-0.3125,-0.25,0.015625,455
456,1696245740961,0.6999512,-0.014221191,0.7555542,-0.796875,0.328125,-0.125,456
457,1696245741001,0.70336914,-0.00030517578,0.7457886,-1.359375,1.4375,0.046875,457
458,1696245741041,0.70703125,-0.0056762695,0.74749756,-0.59375,1.15625,0.390625,458
459,1696245741081,0.70825195,0.0021362305,0.75335693,0.515625,0.28125,0.5,459
460,1696245741121,0.70996094,-0.0071411133,0.74993896,-0.046875,0.875,0.1875,460
461,1696245741161,0.7104492,-0.008361816,0.7506714,-0.765625,-0.125,0.625,461
462,1696245741201,0.7258301,-0.02178955,0.76971436,-0.859375,1.390625,0.203125,462
463,1696245741241,0.7097168,-0.00030517578,0.75531006,-2.40625,1.453125,0.125,463
464,1696245741281,0.7219238,0.00091552734,0.746521,-2.375,1.171875,0.53125,464
465,1696245741321,0.70947266,-0.0051879883,0.7379761,-1.890625,1.390625,0.078125,465
466,1696245741361,0.71313477,0.00018310547,0.7357788,-0.40625,1.4375,0.109375,466
467,1696245741401,0.71875,-0.010070801,0.72991943,-0.3125,2.375,0.46875,467
468,1696245741441,0.7331543,-0.0012817383,0.72650146,-0.453125,1.546875,1.125,468
469,1696245741481,0.7092285,0.00579834,0.71990967,0.09375,1.265625,1.515625,469
470,1696245741521,0.70410156,0.027038574,0.7067261,0.375,2.328125,1.46875,470
471,1696245741561,0.704834,0.016540527,0.7382202,0.921875,0.921875,0.234375,471
472,1696245741601,0.71899414,0.010681152,0.7062378,0.0625,-0.453125,-0.375,472
473,1696245741641,0.7248535,0.01727295,0.71624756,0.890625,-0.203125,-0.546875,473
474,1696245741681,0.7224121,0.013122559,0.72698975,2.5,-0.671875,-0.34375,474
475,1696245741721,0.72143555,-0.0115356445,0.7079468,1.875,-1.140625,-0.0625,475
476,1696245741761,0.71435547,-0.0064086914,0.7255249,1.359375,-1.34375,0.046875,476
477,1696245741801,0.7155762,-0.01373291,0.69573975,-1.390625,-1.921875,-0.109375,477
478,1696245741841,0.70581055,0.0036010742,0.71795654,-2.203125,-2.734375,0.015625,478
479,1696245741881,0.70947266,0.0045776367,0.71917725,-1.125,-3.109375,-0.0625,479
480,1696245741921,0.7001953,0.020935059,0.7147827,-0.03125,-2.65625,0.03125,480
481,1696245741961,0.7001953,0.024841309,0.71624756,1.859375,-2.328125,0.640625,481
482,1696245742001,0.7023926,0.008239746,0.7160034,2.59375,-0.546875,0.40625,482
483,1696245742041,0.70825195,-0.008361816,0.7194214,4.390625,-0.296875,0.328125,483
484,1696245742081,0.6887207,-0.012023926,0.6889038,4.296875,-2.734375,0.4375,484
485,1696245742121,0.6989746,-0.016906738,0.74798584,2.8125,-2.1875,0.5625,485
486,1696245742161,0.7233887,-0.006652832,0.72943115,-2.109375,-0.296875,-0.109375,486
487,1696245742201,0.70947266,-0.006652832,0.713562,-1.5,-2.1875,-0.0625,487
488,1696245742241,0.7019043,0.002380371,0.74505615,-0.1875,-1.53125,0.90625,488
489,1696245742281,0.70092773,-0.0017700195,0.75531006,0.0,-2.71875,0.671875,489
490,1696245742321,0.68847656,-0.008361816,0.7328491,-1.328125,-3.515625,-0.3125,490
491,1696245742361,0.7001953,-0.0044555664,0.74676514,-0.3125,-2.046875,-0.515625,491
492,1696245742401,0.70751953,-0.020812988,0.7509155,-1.28125,-2.09375,0.1875,492
493,1696245742441,0.68530273,-0.009338379,0.7418823,-1.671875,-1.765625,0.09375,493
494,1696245742481,0.7038574,-0.0056762695,0.75701904,-0.515625,0.421875,-0.078125,494
495,1696245742521,0.7038574,-0.010559082,0.7536011,-0.640625,0.96875,0.015625,495
496,1696245742561,0.7043457,-0.00079345703,0.76116943,0.328125,0.359375,0.21875,496
497,1696245742601,0.70581055,-0.010803223,0.7489624,-0.171875,-0.1875,0.09375,497
498,1696245742641,0.70703125,0.00091552734,0.7555542,-0.234375,0.984375,-0.203125,498
499,1696245742681,0.703125,-0.008850098,0.74798584,0.296875,1.078125,0.640625,499
500,1696245742721,0.71606445,-0.008850098,0.7518921,0.0,2.4375,0.34375,500
501,1696245742761,0.7253418,-0.00982666,0.77459717,-2.21875,3.234375,0.796875,501
502,1696245742801,0.72558594,-0.0071411133,0.7601929,-1.765625,2.328125,0.578125,502
503,1696245742841,0.7294922,0.0038452148,0.73651123,-1.796875,2.125,0.625,503
504,1696245742881,0.71240234,-0.0032348633,0.7340698,-1.4375,0.796875,0.3125,504
505,1696245742921,0.7248535,0.007751465,0.7333374,-1.625,1.265625,-0.078125,505
506,1696245742961,0.72143555,0.011169434,0.7111206,-1.640625,0.875,0.265625,506
507,1696245743001,0.7038574,0.0004272461,0.72528076,-0.90625,-0.234375,0.609375,507
508,1696245743041,0.6936035,-0.00030517578,0.71380615,-1.84375,-0.671875,0.359375,508
509,1696245743081,0.70654297,0.015319824,0.71502686,-1.015625,0.40625,-0.375,509
510,1696245743121,0.7158203,0.024353027,0.7352905,0.953125,0.359375,0.375,510
511,1696245743161,0.7224121,0.012390137,0.72528076,0.90625,-0.625,0.40625,511
512,1696245743201,0.7258301,0.015563965,0.7313843,1.09375,-0.921875,0.578125,512
513,1696245743241,0.71118164,0.0053100586,0.7074585,0.640625,-0.796875,0.65625,513
514,1696245743281,0.71191406,0.0048217773,0.7238159,1.359375,-0.71875,0.359375,514
515,1696245743321,0.7104492,0.0006713867,0.73431396,1.734375,-1.46875,0.046875,515
516,1696245743361,0.7114258,-0.003479004,0.71258545,1.21875,-1.234375,0.0625,516
517,1696245743401,0.704834,0.0079956055,0.7184448,0.78125,-1.4375,-0.046875,517
518,1696245743441,0.71069336,-0.0032348633,0.7235718,0.34375,-0.75,-0.03125,518
519,1696245743481,0.71777344,0.0053100586,0.7211304,0.203125,-1.515625,-0.21875,519
520,1696245743521,0.7084961,0.016052246,0.7382202,0.328125,-1.28125,0.03125,520
521,1696245743561,0.71655273,-0.0005493164,0.7164917,-0.046875,-0.65625,-0.09375,521
522,1696245743601,0.7155762,-0.0025024414,0.6976929,0.09375,-1.46875,-0.078125,522
523,1696245743641,0.7072754,-0.005432129,0.7477417,0.5625,-0.671875,-0.015625,523
524,1696245743681,0.7114258,-0.0076293945,0.73358154,-1.3125,-1.9375,-0.296875,524
525,1696245743721,0.704834,0.0033569336,0.72772217,-0.875,-1.21875,-0.59375,525
526,1696245743761,0.7089844,0.016784668,0.7223511,0.546875,-0.96875,-0.171875,526
527,1696245743801,0.7077637,0.0028686523,0.7321167,1.234375,-1.40625,-0.0625,527
528,1696245743841,0.69873047,0.0060424805,0.7243042,1.25,-1.25,0.296875,528
529,1696245743881,0.6970215,0.004333496,0.7267456,2.703125,0.171875,0.609375,529
530,1696245743921,0.69750977,-0.009338379,0.71014404,4.734375,1.578125,0.515625,530
531,1696245743961,0.6994629,-0.0095825195,0.7230835,6.09375,0.625,0.625,531
532,1696245744001,0.6982422,-0.02911377,0.69744873,4.34375,-2.4375,1.046875,532
533,1696245744041,0.7192383,-0.020812988,0.71917725,1.109375,0.03125,0.6875,533
534,1696245744081,0.7062988,-0.011779785,0.72943115,-0.5,-0.25,0.28125,534
535,1696245744121,0.704834,-0.012512207,0.7296753,-0.859375,-1.09375,-0.109375,535
536,1696245744161,0.7133789,-0.01373291,0.7230835,-0.890625,-0.71875,0.25,536
537,1696245744201,0.7089844,-0.014953613,0.75531006,-0.609375,0.9375,0.59375,537
538,1696245744241,0.7194824,-0.028137207,0.74139404,-0.578125,2.4375,-0.4375,538
539,1696245744281,0.7072754,-0.016662598,0.7040405,-1.234375,-1.15625,0.375,539
540,1696245744321,0.68847656,-0.02154541,0.7062378,-1.921875,-7.328125,1.875,540
541,1696245744361,0.66967773,-0.0115356445,0.74017334,-3.71875,-5.71875,0.484375,541
542,1696245744401,0.703125,-0.013000488,0.7572632,-3.375,-0.078125,-1.703125,542
543,1696245744441,0.7182617,0.0060424805,0.7496948,-2.03125,0.0,-1.65625,543
544,1696245744481,0.7253418,0.003112793,0.7453003,-0.1875,-1.140625,-0.234375,544
545,1696245744521,0.71728516,-0.026428223,0.76116943,0.703125,-0.375,-0.390625,545
546,1696245744561,0.7241211,-0.032287598,0.75653076,-0.9375,1.359375,-0.53125,546
547,1696245744601,0.73706055,-0.028381348,0.75897217,-1.859375,4.234375,0.234375,547
548,1696245744641,0.7404785,-0.02911377,0.79608154,-1.296875,3.203125,0.390625,548
549,1696245744681,0.7331543,-0.019592285,0.75579834,-3.125,0.859375,0.8125,549
550,1696245744721,0.71972656,-6.1035156e-05,0.7340698,-3.0,0.59375,0.703125,550
551,1696245744761,0.70874023,0.0119018555,0.71746826,-1.921875,-0.359375,0.765625,551
552,1696245744801,0.7138672,0.005065918,0.7211304,-1.375,-0.125,0.421875,552
553,1696245744841,0.717041,0.003112793,0.72210693,-1.125,-0.609375,0.25,553
554,1696245744881,0.6972656,0.00018310547,0.7147827,-1.625,-1.0,0.40625,554
555,1696245744921,0.7019043,0.008483887,0.7201538,-1.203125,-1.609375,0.53125,555
556,1696245744961,0.7055664,0.018493652,0.7352905,-0.921875,-0.890625,0.0625,556
557,1696245745001,0.6928711,0.023620605,0.72039795,0.140625,0.6875,0.3125,557
558,1696245745041,0.70410156,0.013366699,0.74383545,1.171875,-1.703125,-0.015625,558
559,1696245745081,0.70751953,-0.0010375977,0.7225952,-0.046875,-2.109375,-0.125,559
560,1696245745121,0.7055664,0.01361084,0.7328491,0.640625,-1.296875,-0.796875,560
561,1696245745161,0.7114258,0.011657715,0.7316284,0.9375,-1.5,-0.328125,561
562,1696245745201,0.7055664,0.0016479492,0.729187,0.71875,-1.921875,-0.1875,562
563,1696245745241,0.69262695,0.011169434,0.72991943,0.859375,-3.078125,-0.0625,563
564,1696245745281,0.6645508,0.016540527,0.6984253,0.21875,-0.796875,0.5625,564
565,1696245745321,0.6887207,0.014099121,0.727478,4.5625,-0.546875,0.921875,565
566,1696245745361,0.68896484,-0.0032348633,0.7194214,4.28125,-2.4375,0.609375,566
567,1696245745401,0.7080078,-0.008850098,0.7382202,2.421875,1.46875,0.25,567
568,1696245745441,0.70288086,-0.00592041,0.73846436,1.953125,-0.203125,0.125,568
569,1696245745481,0.6982422,-0.0049438477,0.72576904,0.859375,-2.6875,0.703125,569
570,1696245745521,0.7006836,-0.007385254,0.7453003,-0.765625,-2.984375,-0.03125,570
571,1696245745561,0.6855469,-0.0115356445,0.7382202,-2.28125,-3.03125,-0.15625,571
572,1696245745601,0.6894531,0.0004272461,0.75994873,-1.03125,-3.40625,0.265625,572
573,1696245745641,0.70092773,-0.013244629,0.7523804,-1.84375,-1.375,-0.265625,573
574,1696245745681,0.701416,-0.00982666,0.74017334,-2.5,-0.21875,-0.1875,574
575,1696245745721,0.70092773,-0.0076293945,0.7572632,-0.40625,-0.328125,0.125,575
576,1696245745761,0.6958008,-0.016662598,0.75994873,0.515625,0.578125,0.203125,576
577,1696245745801,0.7019043,-0.026428223,0.76776123,0.359375,1.453125,0.0625,577
578,1696245745841,0.7133789,-0.0051879883,0.7543335,-0.75,1.140625,0.328125,578
579,1696245745881,0.7133789,-0.01373291,0.758728,-0.765625,0.609375,0.421875,579
580,1696245745921,0.71533203,-0.015930176,0.7628784,-2.28125,2.703125,-0.1875,580
581,1696245745961,0.7351074,-0.02130127,0.7885132,-1.03125,3.9375,-0.328125,581
582,1696245746001,0.7199707,-0.00079345703,0.7514038,-2.78125,1.96875,0.5625,582
583,1696245746041,0.7194824,-0.0020141602,0.7350464,-2.765625,1.171875,0.515625,583
584,1696245746081,0.71191406,0.0018920898,0.7262573,-3.0,0.734375,0.375,584
585,1696245746121,0.7158203,0.005065918,0.7340698,-1.8125,0.78125,0.890625,585
586,1696245746161,0.7072754,0.015808105,0.72772217,-0.453125,0.03125,0.453125,586
587,1696245746201,0.71655273,0.011413574,0.73065186,0.65625,0.71875,0.375,587
588,1696245746241,0.7060547,0.0036010742,0.73846436,1.59375,1.125,0.4375,588
589,1696245746281,0.7192383,0.013122559,0.75531006,3.375,2.578125,0.765625,589
590,1696245746321,0.7109375,0.008483887,0.72698975,4.296875,-0.15625,1.78125,590
591,1696245746361,0.7102051,0.0072631836,0.71990967,4.5,-1.046875,1.640625,591
592,1696245746401,0.70166016,-0.005432129,0.6937866,2.796875,-2.046875,1.265625,592
593,1696245746441,0.70581055,-0.0029907227,0.70843506,1.765625,-1.53125,0.59375,593
594,1696245746481,0.69091797,0.0021362305,0.71551514,1.796875,-0.359375,0.15625,594
595,1696245746521,0.70458984,-0.007873535,0.7316284,0.859375,-2.234375,-0.46875,595
596,1696245746561,0.6921387,-0.011291504,0.70233154,-0.40625,-2.84375,-0.5,596
597,1696245746601,0.69311523,0.011413574,0.71673584,0.5625,-2.296875,-0.625,597
598,1696245746641,0.7050781,0.007019043,0.72283936,0.75,-0.796875,0.015625,598
599,1696245746681,0.6945801,-0.0044555664,0.696228,3.640625,-1.75,0.21875,599
600,1696245746721,0.71118164,-0.011047363,0.72698975,3.953125,-0.65625,0.765625,600
601,1696245746761,0.7019043,-0.018371582,0.7040405,0.265625,-1.75,0.40625,601
602,1696245746801,0.6948242,-0.013977051,0.7350464,-0.640625,0.078125,0.671875,602
603,1696245746841,0.69799805,-0.010803223,0.73480225,-0.4375,-3.15625,0.484375,603
604,1696245746881,0.6916504,-0.007385254,0.7177124,-3.671875,-1.953125,0.0,604
605,1696245746921,0.6977539,-0.0025024414,0.7406616,-1.46875,-1.90625,-0.390625,605
606,1696245746961,0.7023926,-0.008605957,0.75042725,-1.296875,-3.03125,-0.234375,606
607,1696245747001,0.7084961,-0.013244629,0.7560425,-1.40625,-1.875,-0.640625,607
608,1696245747041,0.70751953,-0.014465332,0.7592163,-1.984375,-0.703125,-1.25,608
609,1696245747081,0.70825195,-0.016418457,0.7692261,-1.640625,0.734375,-0.734375,609
610,1696245747121,0.7011719,-0.01739502,0.7514038,-2.75,0.890625,-0.875,610
611,1696245747161,0.71240234,-0.008850098,0.75946045,-1.890625,-0.0625,-0.171875,611
612,1696245747201,0.7194824,-0.004211426,0.73309326,-2.625,0.953125,0.375,612
613,1696245747241,0.7060547,0.0060424805,0.7555542,0.328125,1.765625,0.28125,613
614,1696245747281,0.7109375,-0.0056762695,0.75897217,0.78125,1.375,0.171875,614
615,1696245747321,0.7355957,-0.011047363,0.75531006,-1.1875,3.40625,0.21875,615
616,1696245747361,0.73657227,-0.009094238,0.76556396,-1.078125,0.828125,0.59375,616
617,1696245747401,0.7145996,-6.1035156e-05,0.73236084,-1.984375,0.21875,1.28125,617
618,1696245747441,0.70825195,-0.0022583008,0.73773193,-1.546875,-0.3125,0.875,618
619,1696245747481,0.7138672,0.001159668,0.729187,-1.765625,1.046875,0.8125,619
620,1696245747521,0.7126465,0.017028809,0.72698975,-1.796875,0.734375,0.71875,620
621,1696245747561,0.71875,0.009216309,0.72650146,-1.296875,-0.421875,0.671875,621
622,1696245747601,0.70996094,0.011169434,0.72772217,-0.734375,-0.53125,0.515625,622
623,1696245747641,0.70581055,0.013122559,0.7235718,-0.125,-1.5625,0.46875,623
624,1696245747681,0.70336914,0.016052246,0.730896,0.9375,-0.953125,0.25,624
625,1696245747721,0.7019043,0.018981934,0.7267456,0.65625,-0.890625,0.015625,625
626,1696245747761,0.7102051,0.015319824,0.72991943,0.625,-0.765625,-0.046875,626
627,1696245747801,0.7150879,0.012634277,0.71551514,0.765625,-1.46875,0.203125,627
628,1696245747841,0.7060547,0.004333496,0.744812,1.4375,-1.0625,0.015625,628
629,1696245747881,0.7011719,0.005554199,0.711853,-0.625,-0.875,-0.40625,629
630,1696245747921,0.6916504,0.00579834,0.6847534,-0.65625,-1.59375,0.0,630
631,1696245747961,0.6994629,0.004333496,0.73968506,1.375,-0.59375,-0.140625,631
632,1696245748001,0.7006836,-0.0015258789,0.72650146,0.3125,-2.578125,0.140625,632
633,1696245748041,0.69091797,0.014831543,0.7164917,0.125,-2.0,0.25,633
634,1696245748081,0.70092773,0.023620605,0.7313843,2.65625,0.1875,-0.03125,634
635,1696245748121,0.6953125,-0.004699707,0.7279663,4.890625,-0.890625,0.453125,635
636,1696245748161,0.6738281,-0.004211426,0.7025757,4.03125,-4.828125,0.703125,636
637,1696245748201,0.6933594,-0.0071411133,0.7333374,-0.15625,-2.328125,-0.140625,637
638,1696245748241,0.6940918,-0.019836426,0.72528076,-2.046875,-0.640625,-0.375,638
639,1696245748281,0.6882324,0.00579834,0.7394409,-0.59375,-2.90625,0.703125,639
640,1696245748321,0.69921875,0.011413574,0.74920654,1.65625,-3.046875,0.796875,640
641,1696245748361,0.7077637,-0.00982666,0.78118896,1.03125,-0.4375,0.203125,641
642,1696245748401,0.7077637,-0.016662598,0.7653198,0.34375,-1.546875,0.0625,642
643,1696245748441,0.69091797,-0.022766113,0.74823,0.328125,-0.625,-0.5,643
644,1696245748481,0.6965332,-0.018371582,0.76361084,0.3125,-0.953125,-0.421875,644
645,1696245748521,0.69750977,-0.008117676,0.7555542,-0.34375,-0.234375,0.71875,645
646,1696245748561,0.6838379,-0.014465332,0.7440796,-1.4375,0.25,0.5625,646
647,1696245748601,0.7050781,-0.0012817383,0.76312256,-0.8125,0.296875,-0.25,647
648,1696245748641,0.7102051,-0.003967285,0.74432373,-1.96875,0.53125,-0.203125,648
649,1696245748681,0.7001953,-0.0025024414,0.7694702,0.578125,0.859375,0.0625,649
650,1696245748721,0.7011719,-0.0064086914,0.7538452,0.203125,0.453125,0.1875,650
651,1696245748761,0.6972656,-0.0037231445,0.74505615,-0.28125,0.609375,0.078125,651
652,1696245748801,0.7067871,-0.0049438477,0.75408936,-0.8125,-0.078125,0.21875,652
653,1696245748841,0.72631836,-0.024230957,0.7723999,-2.3125,2.234375,0.375,653
654,1696245748881,0.7145996,0.0028686523,0.7506714,-2.640625,1.703125,0.015625,654
655,1696245748921,0.7104492,0.0006713867,0.7418823,-1.78125,1.875,0.78125,655
656,1696245748961,0.7121582,-0.0012817383,0.75579834,-0.703125,2.328125,0.25,656
657,1696245749001,0.720459,-0.002746582,0.74261475,-0.328125,2.796875,-0.03125,657
658,1696245749041,0.71655273,-0.007385254,0.7218628,-0.375,0.671875,-0.09375,658
659,1696245749081,0.7126465,0.0045776367,0.71990967,-0.8125,-0.59375,0.46875,659
660,1696245749121,0.6965332,0.0053100586,0.72039795,-0.90625,-0.921875,0.265625,660
661,1696245749161,0.70532227,0.016052246,0.72772217,-0.4375,-0.40625,-0.0625,661
662,1696245749201,0.70458984,0.015319824,0.71868896,-0.53125,-0.578125,0.296875,662
663,1696245749241,0.6965332,0.009460449,0.73480225,0.984375,-1.9375,0.15625,663
664,1696245749281,0.7138672,0.0065307617,0.7379761,0.4375,-1.078125,0.234375,664
665,1696245749321,0.6928711,0.012390137,0.7128296,0.40625,0.171875,0.765625,665
666,1696245749361,0.70214844,-0.0022583008,0.75653076,0.828125,-1.21875,0.46875,666
667,1696245749401,0.69506836,-0.017150879,0.7184448,-1.296875,-1.796875,0.28125,667
668,1696245749441,0.70166016,0.008728027,0.7206421,-0.65625,-1.046875,-0.484375,668
669,1696245749481,0.7026367,0.016296387,0.7313843,0.578125,-1.234375,0.0625,669
670,1696245749521,0.69311523,0.012634277,0.71014404,0.453125,-2.53125,0.109375,670
671,1696245749561,0.69140625,0.019470215,0.71673584,0.984375,-1.1875,0.296875,671
672,1696245749601,0.69799805,0.0018920898,0.71673584,2.625,-0.640625,0.421875,672
673,1696245749641,0.6899414,0.0026245117,0.71698,1.9375,-2.59375,1.046875,673
674,1696245749681,0.68115234,0.013122559,0.730896,0.515625,-4.75,1.125,674
675,1696245749721,0.6982422,-0.0017700195,0.74749756,-0.9375,-2.015625,0.515625,675
676,1696245749761,0.7026367,0.0021362305,0.7550659,0.171875,-0.4375,0.40625,676
677,1696245749801,0.7019043,0.010681152,0.75775146,1.703125,-0.015625,0.171875,677
678,1696245749841,0.6972656,-0.007385254,0.743103,1.53125,-1.015625,-0.078125,678
679,1696245749881,0.68969727,-0.016418457,0.7645874,2.40625,-3.578125,0.203125,679
680,1696245749921,0.6899414,-0.0064086914,0.7579956,-0.71875,-1.984375,-0.328125,680
681,1696245749961,0.6940918,-0.0134887695,0.71746826,-2.796875,-0.703125,-0.5625,681
682,1696245750001,0.6965332,-0.0010375977,0.7506714,-0.875,-0.3125,-0.1875,682
683,1696245750041,0.69921875,0.0060424805,0.7662964,-0.0625,0.0625,-0.09375,683
684,1696245750081,0.70532227,-0.007873535,0.7555542,0.328125,0.453125,0.1875,684
685,1696245750121,0.71118164,-0.006652832,0.76556396,0.125,0.71875,0.125,685
686,1696245750161,0.7121582,-0.0056762695,0.7609253,0.109375,0.578125,0.453125,686
687,1696245750201,0.7019043,-0.013977051,0.76483154,0.484375,0.578125,0.421875,687
688,1696245750241,0.6999512,-0.009338379,0.74798584,0.125,1.03125,0.546875,688
689,1696245750281,0.7128906,-0.01739502,0.7682495,-1.859375,3.359375,0.6875,689
690,1696245750321,0.70654297,-0.012268066,0.76190186,-0.671875,1.84375,0.46875,690
691,1696245750361,0.7138672,-0.00592041,0.7523804,-1.671875,2.5625,-0.078125,691
692,1696245750401,0.7192383,0.0028686523,0.7379761,-1.96875,1.390625,0.375,692
693,1696245750441,0.72216797,-0.0051879883,0.74017334,-1.359375,1.703125,0.203125,693
694,1696245750481,0.7277832,0.0038452148,0.73431396,-1.109375,1.609375,0.390625,694
695,1696245750521,0.71240234,0.0048217773,0.71698,-0.34375,1.859375,0.46875,695
696,1696245750561,0.71191406,0.001159668,0.7230835,1.140625,0.1875,1.421875,696
697,1696245750601,0.70825195,0.0079956055,0.7184448,0.3125,0.125,0.890625,697
698,1696245750641,0.7043457,0.011169434,0.6972046,-0.625,1.390625,0.625,698
699,1696245750681,0.7026367,0.010925293,0.74334717,0.875,-0.046875,0.28125,699
700,1696245750721,0.7128906,0.0014038086,0.72332764,-0.453125,-1.390625,-0.234375,700
701,1696245750761,0.7104492,0.018493652,0.71868896,-0.359375,-1.015625,-0.640625,701
702,1696245750801,0.7104492,0.013122559,0.72943115,0.703125,-1.34375,-0.046875,702
703,1696245750841,0.7038574,0.002380371,0.72088623,0.15625,-1.4375,0.140625,703
704,1696245750881,0.70336914,0.0021362305,0.7260132,0.5,-1.078125,-0.53125,704
705,1696245750921,0.69873047,0.0067749023,0.7067261,0.21875,-1.5625,-0.09375,705
706,1696245750961,0.69628906,0.007751465,0.71624756,0.1875,-2.53125,0.28125,706
707,1696245751001,0.6958008,0.007507324,0.71380615,1.0625,-0.671875,0.328125,707
708,1696245751041,0.7001953,0.010925293,0.7103882,3.828125,-2.296875,0.578125,708
709,1696245751081,0.6855469,0.0028686523,0.7074585,2.25,-5.609375,1.21875,709
710,1696245751121,0.6953125,-0.00079345703,0.7133179,-1.671875,-3.9375,-0.234375,710
711,1696245751161,0.69799805,-0.008850098,0.73773193,-1.359375,-2.5,-0.75,711
712,1696245751201,0.6970215,0.010437012,0.7802124,0.9375,-3.265625,0.046875,712
713,1696245751241,0.7023926,0.014343262,0.7470093,-0.765625,-2.40625,0.46875,713
714,1696245751281,0.6999512,-0.0076293945,0.74212646,-0.875,-2.296875,0.4375,714
715,1696245751321,0.6921387,-0.014709473,0.75775146,-0.25,-1.78125,0.40625,715
716,1696245751361,0.69799805,-0.0012817383,0.76971436,0.140625,-0.375,-0.25,716
717,1696245751401,0.6999512,-0.01373291,0.75823975,-0.015625,0.53125,-0.609375,717
718,1696245751441,0.704834,-0.006164551,0.7658081,0.4375,1.1875,-0.21875,718
719,1696245751481,0.7084961,-0.011779785,0.76068115,-0.046875,0.59375,0.59375,719
720,1696245751521,0.7036133,-0.012023926,0.7616577,0.46875,0.5625,0.625,720
721,1696245751561,0.7019043,-0.006652832,0.75164795,-0.171875,1.109375,0.546875,721
722,1696245751601,0.70336914,-0.008850098,0.7435913,-0.1875,0.859375,0.578125,722
723,1696245751641,0.6982422,-0.0015258789,0.7518921,0.484375,0.546875,0.5,723
724,1696245751681,0.7121582,-0.0044555664,0.746521,-0.25,0.921875,0.375,724
725,1696245751721,0.7175293,-0.015197754,0.7694702,-0.171875,2.359375,0.5,725
726,1696245751761,0.7145996,-0.008117676,0.75531006,-1.234375,1.703125,0.609375,726
727,1696245751801,0.7163086,-0.01373291,0.7628784,-2.140625,3.015625,0.15625,727
728,1696245751841,0.72216797,-0.0020141602,0.7328491,-2.28125,0.984375,0.0625,728
729,1696245751881,0.7121582,0.00091552734,0.72698975,-1.890625,1.625,0.234375,729
730,1696245751921,0.7155762,0.0048217773,0.73553467,0.0,1.125,0.0,730
731,1696245751961,0.70825195,0.010192871,0.7189331,-1.046875,0.5625,-0.265625,731
732,1696245752001,0.7138672,0.011413574,0.7001343,-1.890625,1.203125,0.0625,732
733,1696245752041,0.7133789,-0.0012817383,0.73602295,-0.5,0.015625,0.4375,733
734,1696245752081,0.70703125,0.0004272461,0.72821045,-1.84375,-1.421875,0.109375,734
735,1696245752121,0.70458984,0.007507324,0.7106323,-2.453125,-1.59375,-0.484375,735
736,1696245752161,0.7128906,0.027770996,0.7340698,-0.109375,-1.25,-0.25,736
737,1696245752201,0.7077637,0.018005371,0.7284546,0.15625,-2.359375,0.609375,737
738,1696245752241,0.6921387,0.019226074,0.7399292,0.359375,-1.953125,-0.015625,738
739,1696245752281,0.70214844,0.0072631836,0.7196655,0.328125,-0.671875,-0.21875,739
740,1696245752321,0.7055664,0.00091552734,0.7333374,0.515625,-0.359375,-0.015625,740
741,1696245752361,0.7092285,-6.1035156e-05,0.74139404,0.84375,-0.703125,-0.140625,741
742,1696245752401,0.70703125,0.0045776367,0.7194214,0.421875,-0.9375,-0.03125,742
743,1696245752441,0.7072754,0.007507324,0.727478,0.921875,-1.15625,0.09375,743
744,1696245752481,0.7026367,0.0211792,0.72088623,1.109375,-2.234375,0.40625,744
745,1696245752521,0.6953125,0.022888184,0.70843506,1.125,-1.140625,0.65625,745
746,1696245752561,0.70288086,0.006286621,0.7157593,3.8125,-1.03125,0.578125,746
747,1696245752601,0.701416,-6.1035156e-05,0.7313843,4.421875,-1.625,0.46875,747
748,1696245752641,0.69433594,-0.0005493164,0.696228,1.421875,-2.3125,0.9375,748
749,1696245752681,0.69873047,-0.02520752,0.71673584,-0.359375,-1.25,0.8125,749
750,1696245752721,0.69921875,-0.007385254,0.7472534,0.046875,-0.390625,0.390625,750
751,1696245752761,0.69311523,0.0004272461,0.7550659,-0.046875,-2.390625,0.453125,751
752,1696245752801,0.69140625,0.0060424805,0.74432373,-0.28125,-4.046875,0.21875,752
753,1696245752841,0.69555664,-0.0049438477,0.75213623,-0.6875,-2.796875,-0.40625,753
754,1696245752881,0.6970215,-0.008361816,0.75897217,-0.375,-1.515625,-0.140625,754
755,1696245752921,0.7097168,-0.008361816,0.7567749,0.296875,-0.25,-0.125,755
756,1696245752961,0.70092773,-0.0020141602,0.7411499,0.015625,-0.03125,0.15625,756
757,1696245753001,0.7089844,-0.0051879883,0.7374878,-0.15625,0.328125,0.453125,757
758,1696245753041,0.6982422,-0.00592041,0.7609253,0.234375,0.515625,0.5,758
759,1696245753081,0.7067871,-0.008850098,0.7538452,0.421875,0.96875,0.828125,759
