# Sensor type: Respeck
# Activity type: Standing
# Activity subtype: Hyperventilating
# Subject id: s2104454
# Notes: unprocessed
timestamp,accel_x,accel_y,accel_z,gyro_x,gyro_y,gyro_z
1696245583736,-0.056152344,-0.9866333,-0.019104004,-5.1875,5.6875,-0.5625
1696245583775,-0.04711914,-0.97052,0.007507324,-0.609375,6.125,-0.21875
1696245583816,-0.04248047,-0.99224854,0.006286621,0.828125,5.65625,0.640625
1696245583856,-0.060058594,-0.9585571,0.0067749023,-0.5,1.03125,-0.109375
1696245583896,-0.052490234,-0.9890747,0.027770996,0.859375,2.640625,0.171875
1696245583936,-0.048095703,-0.97857666,-0.0095825195,-1.78125,-1.3125,-0.5625
1696245583976,-0.056884766,-0.9663696,9.1552734E-4,-0.71875,-2.34375,-0.21875
1696245584016,-0.049560547,-0.9578247,0.015075684,0.875,-2.25,1.15625
1696245584056,-0.061767578,-0.90753174,-0.044006348,3.3125,-5.515625,1.234375
1696245584096,-0.036132812,-0.973938,-0.0076293945,2.671875,-5.765625,0.9375
1696245584137,-0.048583984,-1.0432739,0.042907715,2.4375,-3.875,1.578125
1696245584177,-0.05859375,-1.0039673,0.0036010742,2.4375,-3.609375,0.640625
1696245584218,-0.068359375,-0.9512329,-0.012268066,-4.171875,-12.578125,-1.015625
1696245584258,-0.048583984,-0.99176025,0.020446777,-0.046875,-10.484375,0.296875
1696245584298,-0.013916016,-0.99957275,-0.0095825195,-9.265625,-5.9375,-2.765625
1696245584337,-0.08862305,-1.0117798,0.013122559,-2.796875,-7.65625,-0.734375
1696245584377,-0.048828125,-0.99591064,0.032409668,-0.296875,-4.609375,-0.46875
1696245584416,-0.056884766,-0.99005127,0.039733887,0.03125,-1.25,0.375
1696245584457,-0.05029297,-0.99346924,0.057556152,0.90625,1.5,0.875
1696245584496,-0.063964844,-1.0110474,0.039978027,0.703125,1.828125,0.828125
1696245584538,-0.06713867,-1.0227661,0.062683105,1.59375,4.234375,1.453125
1696245584577,-0.099609375,-1.050354,0.04901123,5.09375,2.578125,2.8125
1696245584617,-0.041992188,-0.9793091,-0.0071411133,-7.46875,2.21875,-0.71875
1696245584658,-0.044433594,-0.9702759,0.018493652,-5.21875,2.875,-2.390625
1696245584699,-0.022216797,-0.9939575,0.025817871,-1.09375,1.21875,-0.453125
1696245584737,-0.037841797,-0.9805298,0.024597168,-0.078125,5.078125,-0.28125
1696245584778,-0.04272461,-0.9927368,0.023620605,0.375,3.96875,-0.828125
1696245584817,-0.05908203,-0.98394775,0.04876709,2.953125,3.328125,0.53125
1696245584857,-0.06347656,-0.9690552,-0.01739502,-2.453125,4.015625,-0.546875
1696245584897,-0.071777344,-0.98638916,0.04925537,2.625,3.625,1.0625
1696245584938,-0.064453125,-0.9834595,0.0026245117,-0.0625,0.859375,0.25
1696245584955,-0.037109375,-0.956604,0.018249512,0.578125,0.421875,0.390625
1696245585000,-0.036865234,-0.958313,0.0060424805,2.59375,-1.265625,1.6875
1696245585038,-0.05810547,-0.92633057,-0.02911377,5.359375,-4.34375,1.078125
1696245585078,-0.026367188,-0.97442627,0.008972168,8.484375,-5.890625,0.796875
1696245585119,-0.04736328,-1.0130005,0.022399902,2.4375,-4.484375,1.46875
1696245585159,-0.048828125,-0.9968872,-0.028869629,1.734375,-5.5,1.03125
1696245585199,-0.052001953,-0.9536743,-0.027893066,-2.25,-13.203125,-2.46875
1696245585238,-0.052978516,-1.0095825,0.06414795,3.765625,-7.875,1.09375
1696245585277,-0.05102539,-1.0083618,-0.023742676,-1.015625,-5.703125,0.78125
1696245585319,-0.06933594,-0.9866333,-0.0076293945,-1.03125,-7.875,0.1875
1696245585357,-0.016357422,-0.9885864,-3.0517578E-4,-1.75,-3.828125,-0.4375
1696245585398,-0.03857422,-0.9951782,0.0067749023,-3.25,-2.859375,1.03125
1696245585458,-0.053710938,-0.9890747,0.01361084,-2.140625,-0.890625,0.359375
1696245585497,-0.060302734,-1.0215454,0.04095459,0.515625,2.21875,1.28125
1696245585515,-0.05810547,-1.0164185,0.06365967,2.4375,5.140625,1.609375
1696245585580,-0.037353516,-1.0122681,-0.0017700195,0.328125,2.765625,-0.296875
1696245585597,-0.036621094,-0.9819946,0.0028686523,-5.15625,4.203125,-1.65625
1696245585660,-0.07006836,-0.9949341,0.0021362305,-4.75,6.90625,-1.921875
1696245585676,-0.055419922,-0.99468994,0.0099487305,-0.609375,6.671875,-1.3125
1696245585717,-0.045654297,-0.99053955,0.0028686523,0.453125,5.015625,-0.921875
1696245585759,-0.037353516,-0.9817505,0.02923584,0.09375,3.578125,-0.75
1696245585819,-0.052734375,-0.9981079,0.010925293,-0.6875,2.640625,-0.546875
1696245585836,-0.068847656,-0.9824829,0.004333496,-1.046875,1.34375,-0.421875
1696245585877,-0.063964844,-0.98443604,0.005065918,-0.671875,1.53125,-0.546875
1696245585942,-0.06274414,-0.9746704,-0.00982666,-0.984375,0.75,-0.0625
1696245585983,-0.05078125,-0.9651489,0.031188965,3.578125,-2.34375,0.890625
1696245585997,-0.056396484,-0.9404907,-0.039123535,-2.96875,-1.703125,0.453125
1696245586058,-0.046875,-0.93707275,-0.04473877,8.734375,-4.078125,2.734375
1696245586077,-0.041992188,-1.0195923,0.058532715,4.796875,-4.265625,1.109375
1696245586136,-0.04248047,-0.99420166,-0.012023926,0.984375,-2.53125,1.46875
1696245586177,-0.05419922,-0.96832275,-0.04034424,-0.484375,-6.5,0.359375
1696245586196,-0.04711914,-0.9590454,-0.0037231445,-0.5625,-12.3125,-1.0
1696245586238,-0.040283203,-1.0271606,0.031188965,-4.046875,-12.390625,0.0
1696245586256,-0.06616211,-1.006897,0.004333496,-3.8125,-8.03125,0.578125
1696245586299,-0.041015625,-0.9915161,-0.004211426,-1.890625,-5.28125,-0.046875
1696245586339,-0.038330078,-0.99346924,0.014343262,0.375,-3.296875,1.21875
1696245586378,-0.05908203,-0.99346924,0.022155762,-1.640625,-2.4375,0.875
1696245586417,-0.03857422,-0.99786377,0.03778076,0.4375,1.046875,0.890625
1696245586459,-0.06640625,-1.0076294,0.039978027,1.203125,3.125,1.296875
1696245586496,-0.052490234,-1.0234985,0.04071045,2.46875,5.75,2.09375
1696245586540,-0.053466797,-0.9985962,0.027038574,-0.015625,3.734375,0.078125
1696245586578,-0.028076172,-0.98150635,-0.013977051,-6.046875,5.265625,-0.59375
1696245586619,-0.05517578,-0.99884033,0.008483887,-7.671875,5.5,-2.859375
1696245586656,-0.072265625,-1.0198364,0.042175293,-1.265625,7.0,-0.5625
1696245586699,-0.055908203,-0.99298096,0.025817871,0.421875,8.6875,-0.171875
1696245586744,-0.042236328,-0.9800415,0.009460449,2.296875,7.703125,0.046875
1696245586777,-0.04736328,-0.9849243,0.0026245117,2.28125,4.5,0.109375
1696245586817,-0.044921875,-0.9741821,0.013366699,0.5625,3.3125,0.078125
1696245586858,-0.060058594,-0.98638916,0.012390137,-0.375,0.6875,0.0625
1696245586896,-0.06542969,-0.98394775,0.016296387,1.625,0.25,0.359375
1696245586937,-0.05053711,-0.9697876,0.014343262,1.0625,0.53125,-0.15625
1696245586977,-0.049560547,-0.9854126,-0.022277832,5.140625,-1.828125,0.78125
1696245587018,-0.060791016,-0.9360962,-0.039611816,2.0625,-4.359375,0.421875
1696245587056,-0.040283203,-0.95684814,-0.031311035,6.5625,-5.546875,0.65625
1696245587099,-0.05126953,-1.008606,0.04486084,1.546875,-2.734375,0.828125
1696245587137,-0.061035156,-1.0044556,-0.008850098,0.5625,-2.9375,0.3125
1696245587176,-0.06201172,-0.9585571,-0.024963379,-0.453125,-7.875,-0.78125
1696245587217,-0.040283203,-0.9644165,-0.016174316,-3.625,-6.859375,-1.96875
1696245587256,-0.045166016,-1.0083618,-0.021057129,-7.515625,-9.015625,-2.859375
1696245587302,-0.059326172,-1.0493774,0.034362793,-1.671875,-4.5625,-0.78125
1696245587337,-0.064208984,-0.97442627,-0.003479004,-2.125,-7.90625,-0.40625
1696245587377,-0.040039062,-0.97906494,0.015075684,-2.203125,-4.421875,-0.328125
1696245587421,-0.05834961,-1.0088501,0.031188965,-1.53125,-2.875,0.3125
1696245587458,-0.059326172,-1.0151978,0.053894043,-0.859375,1.859375,0.75
1696245587499,-0.057128906,-0.9981079,0.02947998,-2.34375,3.59375,0.5625
1696245587536,-0.072509766,-0.9961548,0.041931152,-0.390625,1.296875,0.09375
1696245587578,-0.045410156,-1.0049438,0.06976318,-0.546875,4.390625,0.171875
1696245587596,-0.07763672,-0.9998169,0.043884277,-6.09375,5.015625,-0.078125
1696245587637,-0.06665039,-1.0137329,0.038757324,-4.734375,7.609375,-0.453125
1696245587679,-0.060791016,-0.98638916,0.057800293,0.703125,9.703125,-0.046875
1696245587737,-0.048095703,-0.99298096,0.027526855,2.546875,12.21875,1.515625
1696245587756,-0.06689453,-0.97906494,0.0119018555,4.9375,6.984375,2.078125
1696245587797,-0.053955078,-0.9644165,0.027770996,4.234375,3.0625,1.03125
1696245587838,-0.048095703,-0.9812622,-0.015686035,0.234375,3.015625,-0.015625
1696245587877,-0.061279297,-0.9927368,0.0289917,0.15625,1.3125,0.84375
1696245587917,-0.071777344,-0.9920044,0.026306152,-0.46875,0.140625,0.890625
1696245587957,-0.051757812,-0.956604,0.0038452148,-0.25,-0.859375,0.203125
1696245587999,-0.041748047,-0.9841919,0.016296387,2.0625,-1.546875,1.5625
1696245588037,-0.051513672,-0.9624634,-0.00592041,4.375,-2.65625,1.5625
1696245588079,-0.040527344,-0.9417114,-0.022277832,9.546875,-3.3125,1.109375
1696245588117,-0.048828125,-0.97979736,-0.0025024414,1.15625,-5.109375,0.359375
1696245588181,-0.056152344,-0.97320557,-0.0056762695,2.765625,-6.046875,1.484375
1696245588219,-0.052978516,-1.0046997,0.0033569336,-2.6875,-4.171875,-1.234375
1696245588235,-0.03930664,-1.0127563,-0.014953613,-3.671875,-5.890625,-0.234375
1696245588301,-0.05493164,-0.9585571,-0.014953613,-5.671875,-14.28125,-1.4375
1696245588316,-0.022949219,-0.9702759,0.0211792,-6.109375,-9.4375,-1.90625
1696245588381,-0.060546875,-1.020813,0.031677246,-4.46875,-8.5625,-1.203125
1696245588422,-0.04711914,-1.0222778,0.03363037,-1.6875,-6.40625,-0.609375
1696245588436,-0.045410156,-0.97052,0.0016479492,-1.984375,-3.359375,-0.21875
1696245588499,-0.035888672,-1.020813,0.085876465,6.9375,6.890625,1.3125
1696245588517,-0.064697266,-1.006897,0.0040893555,-0.46875,3.9375,1.859375
1696245588579,-0.075927734,-1.0010376,0.05682373,5.84375,6.609375,3.015625
1696245588595,-0.05419922,-0.9944458,0.01727295,3.1875,4.75,1.890625
1696245588640,-0.01586914,-0.9780884,0.028747559,-0.546875,3.515625,0.6875
1696245588679,-0.06347656,-1.0181274,0.013122559,-4.65625,1.578125,-0.328125
1696245588719,-0.052001953,-1.0029907,0.023620605,-3.109375,4.703125,-1.0
1696245588778,-0.044677734,-0.99176025,0.010925293,-1.796875,5.78125,-0.296875
1696245588797,-0.03881836,-0.9939575,0.024597168,1.46875,5.9375,0.921875
1696245588861,-0.037353516,-0.99176025,0.01751709,3.34375,5.15625,1.859375
1696245588876,-0.061767578,-0.98223877,0.008728027,2.734375,3.96875,1.5625
1696245588896,-0.060546875,-0.96759033,-0.0037231445,1.71875,2.484375,1.09375
1696245588938,-0.044189453,-0.97491455,-0.008117676,0.390625,1.875,0.765625
1696245588977,-0.033447266,-0.9758911,0.008972168,1.796875,0.84375,0.421875
1696245589019,-0.053466797,-0.9727173,0.01776123,2.796875,-0.890625,0.71875
1696245589056,-0.044921875,-0.94000244,-0.007873535,1.59375,-2.171875,0.96875
1696245589098,-0.02734375,-0.9446411,-0.05328369,6.4375,-2.515625,1.46875
1696245589139,-0.024902344,-0.99420166,0.00970459,5.09375,-0.5625,1.796875
1696245589180,-0.045410156,-0.9968872,-0.023986816,2.578125,0.328125,3.546875
1696245589217,-0.029296875,-0.96466064,-0.018615723,1.90625,-3.640625,2.265625
1696245589259,-0.033935547,-0.98809814,-0.011047363,0.765625,-3.53125,1.484375
1696245589299,-0.022705078,-1.0073853,-7.9345703E-4,-1.21875,-1.046875,0.828125
1696245589339,-0.055908203,-0.9768677,-0.030090332,-3.96875,-6.953125,-0.59375
1696245589380,-0.023925781,-0.9614868,-0.0491333,-8.71875,-10.453125,-2.796875
1696245589416,-0.026367188,-0.99835205,0.026550293,-3.8125,-5.96875,-1.984375
1696245589457,-0.032470703,-1.0403442,0.010192871,-4.71875,-6.828125,-1.59375
1696245589500,-0.016357422,-1.005188,0.02557373,-1.3125,-3.203125,-0.296875
1696245589539,-0.031982422,-0.9812622,-0.007873535,-1.15625,-3.421875,0.65625
1696245589579,-0.026611328,-0.98321533,0.013122559,-0.171875,-2.203125,1.359375
1696245589623,-0.048339844,-1.0044556,0.018981934,-1.75,-1.796875,0.71875
1696245589660,-0.029541016,-1.0252075,0.061462402,2.625,4.90625,2.296875
1696245589698,-0.033691406,-1.0186157,0.036071777,1.40625,5.140625,1.96875
1696245589738,4.8828125E-4,-1.0037231,0.018493652,3.984375,5.546875,1.21875
1696245589779,-0.017578125,-0.975647,0.00579834,-4.15625,2.546875,-0.453125
1696245589816,-0.056884766,-1.0142212,0.03729248,-3.0625,5.0,-0.703125
1696245589856,-0.04321289,-1.0064087,-0.0012817383,-3.15625,5.015625,-1.71875
1696245589897,-0.029052734,-0.9717407,0.016540527,-0.578125,4.3125,-2.578125
1696245589936,-0.018310547,-0.99005127,0.020446777,1.03125,3.265625,-0.09375
1696245589978,-0.04272461,-0.9763794,0.005065918,-0.28125,1.03125,-0.796875
1696245590018,-0.042236328,-0.9834595,0.015808105,0.5,2.25,-0.25
1696245590056,-0.044677734,-0.9795532,-0.0017700195,1.515625,0.15625,0.28125
1696245590097,-0.04638672,-0.98516846,0.0040893555,2.515625,0.890625,0.515625
1696245590139,-0.05029297,-0.9692993,0.006286621,1.53125,0.53125,0.59375
1696245590221,-0.044921875,-0.9585571,0.0053100586,2.3125,-1.1875,1.0
1696245590225,-0.037841797,-0.960022,-0.018371582,1.859375,-3.15625,0.609375
1696245590240,-0.022216797,-0.94659424,-0.003479004,2.53125,-2.3125,1.078125
1696245590278,-0.041992188,-0.98883057,0.010681152,2.515625,-1.65625,0.90625
1696245590319,-0.038330078,-0.97052,-0.028869629,-3.53125,-8.109375,-0.34375
1696245590355,-0.036132812,-0.9512329,0.031433105,-5.984375,-5.8125,-0.765625
1696245590399,-0.05517578,-1.0457153,0.035583496,-1.171875,-1.921875,0.171875
1696245590438,-0.034179688,-1.0076294,9.1552734E-4,-7.359375,-7.3125,-1.109375
1696245590480,-0.026123047,-0.9651489,0.021911621,-3.59375,-9.078125,-0.609375
1696245590520,-0.041015625,-0.987854,0.04925537,-4.140625,-7.40625,-1.171875
1696245590580,-0.018310547,-1.0029907,0.00970459,-8.515625,-6.015625,-1.96875
1696245590596,-0.055664062,-1.0054321,0.054626465,-5.765625,-6.25,-2.484375
1696245590658,-0.036376953,-0.99053955,0.06341553,-0.796875,-4.890625,-1.0625
1696245590679,-0.05883789,-0.9807739,0.054626465,-1.390625,-3.75,-0.34375
1696245590717,-0.05078125,-0.9871216,0.061950684,0.5,-1.40625,0.15625
1696245590758,-0.044677734,-0.99346924,0.06903076,-0.921875,-1.3125,-0.46875
1696245590797,-0.049316406,-0.99713135,0.089538574,0.9375,1.1875,0.421875
1696245590837,-0.045654297,-1.0164185,0.09124756,2.703125,2.9375,0.875
1696245590877,-0.056640625,-1.0010376,0.08074951,3.09375,2.34375,0.75
1696245590942,-0.056396484,-0.987854,0.06121826,3.734375,4.234375,0.671875
1696245590956,-0.05493164,-0.99786377,0.023132324,-4.546875,4.828125,-2.359375
1696245591021,-0.05810547,-0.99346924,0.040222168,-2.03125,3.53125,-1.03125
1696245591058,-0.05493164,-0.989563,0.039733887,-1.34375,3.796875,-0.796875
1696245591078,-0.05859375,-0.99053955,0.053649902,-0.4375,6.484375,-0.234375
1696245591117,-0.0637207,-1.0007935,0.05731201,1.953125,4.953125,0.828125
1696245591177,-0.059570312,-0.9805298,0.06072998,1.46875,4.625,-0.046875
1696245591220,-0.047607422,-0.9976196,0.053649902,3.609375,5.3125,-0.203125
1696245591237,-0.057373047,-1.00177,0.01727295,2.703125,3.84375,-0.09375
1696245591300,-0.057128906,-0.98687744,0.020690918,1.53125,2.6875,-0.28125
1696245591316,-0.064208984,-0.9793091,0.022644043,1.625,2.734375,0.84375
1696245591380,-0.056640625,-0.98809814,0.024353027,1.625,2.46875,1.421875
1696245591396,-0.04248047,-0.9932251,0.039978027,0.953125,2.09375,1.640625
1696245591436,-0.052734375,-0.9854126,0.02923584,0.828125,-0.578125,1.234375
1696245591478,-0.05517578,-0.9517212,0.039245605,3.171875,-3.515625,0.90625
1696245591518,-0.029296875,-0.9336548,-0.044006348,-1.1875,-4.578125,-0.109375
1696245591536,-0.045166016,-0.9968872,0.06585693,3.34375,-3.796875,1.828125
1696245591580,-0.041992188,-0.99786377,0.030944824,-0.15625,-1.875,0.5625
1696245591619,-0.05810547,-0.96295166,0.0026245117,-5.84375,-6.359375,-1.296875
1696245591659,-0.06225586,-0.9500122,-0.020568848,-9.25,-13.484375,-2.734375
1696245591699,-0.057861328,-1.013977,0.07098389,-8.234375,-12.796875,-3.484375
1696245591739,-0.04321289,-1.05719,0.08319092,-7.890625,-8.6875,-2.984375
1696245591782,-0.068847656,-0.99176025,0.06878662,-2.921875,-5.859375,-0.71875
1696245591819,-0.052246094,-0.9783325,0.066833496,1.03125,-4.53125,0.046875
1696245591859,-0.041503906,-0.986145,0.07904053,0.75,-1.40625,0.375
1696245591897,-0.08520508,-1.0054321,0.055847168,0.109375,-1.453125,0.9375
1696245591938,-0.06201172,-0.9976196,0.070251465,1.75,-1.125,0.84375
1696245591978,-0.047851562,-0.9627075,0.058532715,1.0625,-1.109375,1.546875
1696245592018,-0.05126953,-0.9902954,0.07928467,-0.203125,-0.15625,2.15625
1696245592058,-0.07299805,-0.9920044,0.08514404,1.65625,-0.84375,2.171875
1696245592097,-0.02758789,-1.0064087,0.07562256,0.71875,4.453125,1.890625
1696245592138,-0.064941406,-0.99542236,0.08905029,3.078125,3.421875,2.25
1696245592178,-0.04663086,-0.99176025,0.06317139,3.734375,2.28125,2.609375
1696245592217,-0.056640625,-0.97906494,0.054626465,-0.40625,4.65625,0.625
1696245592256,-0.05053711,-1.0178833,0.06854248,0.09375,7.5625,1.125
1696245592297,-0.053466797,-0.9951782,0.055358887,0.921875,8.515625,0.625
1696245592338,-0.05517578,-0.9819946,0.049987793,1.453125,7.40625,-0.46875
1696245592378,-0.05444336,-0.9758911,0.04119873,4.53125,6.953125,0.109375
1696245592416,-0.040771484,-0.9793091,0.031677246,3.765625,5.734375,0.015625
1696245592458,-0.045166016,-0.98443604,0.04046631,3.875,3.828125,-0.203125
1696245592497,-0.044677734,-0.9841919,0.025817871,2.609375,2.46875,-0.28125
1696245592538,-0.055419922,-0.98883057,0.028503418,1.25,1.5,-0.03125
1696245592578,-0.03491211,-0.9866333,0.016540527,1.578125,0.78125,-0.265625
1696245592620,-0.05883789,-0.97247314,0.045837402,2.625,-1.734375,-0.328125
1696245592657,-0.04272461,-0.9751587,-0.023986816,-2.15625,-0.125,-1.078125
1696245592698,-0.056640625,-0.95880127,0.025817871,1.921875,-1.640625,0.375
1696245592745,-0.047851562,-0.9834595,0.01727295,1.265625,-0.4375,0.765625
1696245592777,-0.041748047,-0.9898071,0.025817871,2.671875,-1.65625,-0.171875
1696245592818,-0.05444336,-0.95196533,-0.0020141602,0.546875,-5.828125,0.046875
1696245592837,-0.04663086,-0.9590454,-0.021057129,-1.453125,-8.234375,-0.328125
1696245592899,-0.045410156,-0.9714966,0.014099121,-4.640625,-12.796875,-3.0625
1696245592917,-0.072753906,-1.069397,0.074645996,3.59375,-5.3125,1.390625
1696245592958,-0.049804688,-1.0254517,-0.0012817383,-0.71875,-7.84375,-0.546875
1696245592996,-0.0390625,-0.9585571,-0.003479004,-0.640625,-6.0,-0.296875
1696245593060,-0.044189453,-0.9783325,0.028259277,-2.375,-6.796875,-0.21875
1696245593096,-0.0625,-0.9902954,0.027038574,-0.78125,-3.59375,0.1875
1696245593117,-0.028808594,-0.9885864,0.0065307617,0.375,-4.28125,-0.296875
1696245593160,-0.04321289,-0.9668579,0.04876709,-0.1875,-0.953125,0.296875
1696245593199,-0.06665039,-1.0271606,0.038757324,0.234375,-0.765625,1.46875
1696245593239,-0.061767578,-0.9783325,0.011169434,-0.65625,-0.171875,-0.0625
1696245593278,-0.06958008,-0.99835205,0.04119873,1.15625,0.625,1.453125
1696245593317,-0.052001953,-1.000061,0.030700684,-0.15625,0.578125,1.28125
1696245593382,-0.020507812,-1.0283813,0.06121826,0.90625,5.109375,2.390625
1696245593398,-0.063964844,-1.0095825,0.029724121,0.421875,3.8125,2.34375
1696245593439,-0.022705078,-0.9751587,0.018493652,-0.5,1.734375,1.25
1696245593499,-0.061523438,-0.99298096,0.04071045,-2.5,3.65625,1.0625
1696245593516,-0.049316406,-1.0120239,0.0067749023,-0.09375,7.109375,1.265625
1696245593560,-0.0075683594,-0.9795532,0.012634277,8.171875,10.625,1.28125
1696245593598,-0.034423828,-0.99713135,0.020446777,8.1875,8.28125,1.375
1696245593640,-0.057373047,-0.9795532,-0.0020141602,2.484375,3.59375,1.15625
1696245593684,-0.06274414,-0.97003174,-0.009094238,0.484375,0.5,-0.1875
1696245593719,-0.06665039,-0.98516846,0.0119018555,-1.5625,2.546875,0.015625
1696245593779,-0.02758789,-0.973938,-0.039123535,-1.203125,0.984375,0.296875
1696245593798,-0.029785156,-0.9846802,-0.0049438477,-2.015625,-0.03125,1.234375
1696245593859,-0.040039062,-0.9849243,0.0099487305,-1.140625,-2.171875,1.390625
1696245593878,-0.037597656,-0.98223877,0.0026245117,-2.734375,-1.21875,0.234375
1696245593920,-0.029541016,-0.9915161,0.012390137,-3.078125,0.0,0.453125
1696245593958,-0.030761719,-0.9795532,-0.0076293945,-1.40625,-2.640625,0.34375
1696245593998,-0.030761719,-0.95440674,-0.007873535,-1.71875,-4.046875,-0.25
1696245594038,-0.032714844,-0.9631958,4.272461E-4,-1.15625,-1.9375,0.3125
1696245594077,-0.025878906,-1.0037231,0.015563965,3.1875,-2.765625,-0.375
1696245594138,-0.026367188,-0.9614868,0.0028686523,-1.453125,-3.65625,-0.859375
1696245594157,-0.04663086,-0.991272,0.014587402,-2.9375,-5.28125,-0.953125
1696245594176,-0.041259766,-0.9819946,0.009216309,-6.859375,-9.171875,-2.75
1696245594217,-0.05517578,-1.0093384,0.047058105,-5.109375,-10.296875,-2.1875
1696245594258,-0.04663086,-1.0088501,0.062438965,-4.21875,-8.203125,-2.09375
1696245594297,-0.0234375,-0.987854,0.019714355,-4.515625,-4.0625,-1.03125
1696245594339,-0.060546875,-0.98101807,0.062194824,-0.234375,-4.25,-0.0625
1696245594376,-0.06274414,-0.9985962,0.051208496,4.84375,-2.609375,1.6875
1696245594417,-0.037109375,-0.9939575,0.04510498,3.109375,-0.46875,0.921875
1696245594461,-0.04272461,-0.98638916,0.035095215,0.828125,-0.53125,1.203125
1696245594500,-0.047607422,-0.9939575,0.05633545,-0.53125,-0.828125,1.421875
1696245594538,-0.04736328,-0.987854,0.0524292,-1.34375,-0.9375,0.953125
1696245594578,-0.043945312,-1.0039673,0.06585693,-1.453125,1.890625,0.359375
1696245594618,-0.05126953,-1.0127563,0.06756592,-1.734375,3.3125,0.59375
1696245594660,-0.032470703,-0.99346924,0.04827881,-2.0,2.5625,0.96875
1696245594699,-0.060546875,-0.9846802,0.070495605,-4.0625,2.5625,0.265625
1696245594737,-0.052978516,-0.99224854,0.059509277,-4.71875,4.484375,-0.921875
1696245594779,-0.03857422,-1.006897,0.08001709,-0.46875,6.15625,-0.265625
1696245594817,-0.05908203,-0.99542236,0.07611084,3.515625,6.71875,0.53125
1696245594858,-0.036865234,-0.9807739,0.021911621,-0.03125,6.234375,-0.515625
1696245594901,-0.057617188,-0.9795532,0.06414795,0.484375,4.796875,0.359375
1696245594938,-0.060302734,-1.0066528,0.06048584,1.03125,5.0625,1.125
1696245594978,-0.024658203,-0.97662354,0.04486084,-0.171875,3.53125,-0.28125
1696245595018,-0.048339844,-0.99176025,0.050476074,0.359375,2.078125,0.5
1696245595058,-0.03491211,-0.9824829,0.053894043,0.328125,2.234375,0.125
1696245595098,-0.036376953,-0.9800415,0.04046631,-0.34375,0.6875,-0.15625
1696245595138,-0.037841797,-0.9890747,0.041931152,0.328125,0.0,0.046875
1696245595178,-0.04248047,-0.9734497,0.047058105,1.28125,-0.3125,0.578125
1696245595220,-0.04321289,-0.9631958,0.039978027,2.140625,-0.25,0.59375
1696245595259,-0.04272461,-0.93927,0.026794434,4.484375,-1.828125,1.515625
1696245595298,-0.046142578,-0.98272705,0.028015137,5.125,0.859375,1.625
1696245595338,-0.046142578,-1.003479,0.012634277,3.140625,-0.078125,0.28125
1696245595379,-0.028808594,-0.95635986,0.03265381,1.828125,-4.578125,0.203125
1696245595418,-0.03466797,-0.9585571,-0.011779785,-7.484375,-6.515625,-2.515625
1696245595480,-0.052001953,-0.9968872,0.046569824,-8.296875,-9.75,-1.890625
1696245595497,-0.055908203,-1.0220337,0.05609131,-9.671875,-11.15625,-2.046875
1696245595518,-0.047607422,-0.9873657,0.06463623,-6.078125,-10.40625,-1.390625
1696245595581,-0.048339844,-1.0049438,0.07659912,-6.828125,-9.3125,-1.75
1696245595597,-0.06567383,-1.0193481,0.07928467,0.453125,-4.609375,-0.515625
1696245595656,-0.060302734,-1.0010376,0.08294678,0.5,-3.328125,-0.390625
1696245595700,-0.047851562,-0.9668579,0.06414795,2.71875,-1.75,-0.078125
1696245595717,-0.05908203,-0.99884033,0.08050537,2.734375,0.3125,1.015625
1696245595782,-0.05444336,-0.99053955,0.074645996,0.921875,-0.5,-0.09375
1696245595817,-0.067871094,-0.9956665,0.054382324,-0.421875,0.671875,-0.09375
1696245595836,-0.048095703,-0.9763794,0.090026855,0.53125,3.203125,-0.078125
1696245595878,-0.04736328,-1.0188599,0.070495605,0.328125,3.125,0.765625
1696245595920,-0.06738281,-0.98760986,0.09661865,4.90625,2.796875,0.84375
1696245595957,-0.044433594,-0.98638916,0.062927246,4.21875,4.0625,1.125
1696245595999,-0.049072266,-0.9849243,0.06390381,0.890625,2.3125,0.578125
1696245596036,-0.079833984,-1.0015259,0.05316162,-2.359375,2.546875,0.015625
1696245596099,-0.06518555,-1.0010376,0.049743652,-0.546875,5.515625,0.140625
1696245596117,-0.05053711,-0.9873657,0.05682373,0.578125,6.15625,0.203125
1696245596157,-0.061767578,-0.98931885,0.04095459,1.234375,4.15625,0.359375
1696245596219,-0.057861328,-0.9866333,0.047302246,0.65625,3.296875,0.046875
1696245596236,-0.060302734,-0.99053955,0.04852295,0.5,2.609375,0.8125
1696245596298,-0.06201172,-0.9932251,0.039489746,-0.3125,2.421875,0.796875
1696245596316,-0.052490234,-0.9795532,0.04510498,1.0,1.796875,0.171875
1696245596361,-0.048095703,-0.9963989,0.043151855,1.9375,1.21875,0.6875
1696245596398,-0.04638672,-0.9824829,0.038757324,1.28125,0.90625,0.359375
1696245596440,-0.052978516,-0.98321533,0.04827881,2.765625,0.015625,0.765625
1696245596478,-0.0546875,-0.9741821,0.03778076,1.96875,1.25,0.109375
1696245596540,-0.030273438,-0.975647,-0.0025024414,1.265625,-2.703125,0.34375
1696245596557,-0.05419922,-0.92266846,0.014587402,1.671875,-2.546875,1.40625
1696245596598,-0.027832031,-1.0247192,0.035095215,9.921875,1.09375,2.46875
1696245596641,-0.0546875,-0.9834595,0.0099487305,1.421875,-0.296875,0.3125
1696245596681,-0.03515625,-0.94000244,-0.014709473,-1.28125,-4.921875,0.15625
1696245596718,-0.06274414,-0.93756104,-0.008361816,-6.921875,-12.8125,-2.5625
1696245596824,-0.033935547,-1.0696411,0.074401855,-2.15625,-4.640625,0.265625
1696245596828,-0.06567383,-1.0083618,0.010925293,-8.046875,-6.109375,-0.828125
1696245596831,-0.06762695,-0.9824829,0.01751709,-4.96875,-8.921875,-1.53125
1696245596861,-0.06225586,-0.97491455,0.050231934,-0.515625,-8.171875,-0.796875
1696245596898,-0.042236328,-1.0125122,0.085876465,0.3125,-2.359375,0.375
1696245596941,-0.05517578,-1.0083618,0.054870605,0.078125,-1.890625,1.125
1696245596980,-0.057617188,-0.9639282,0.038024902,0.71875,-1.3125,1.671875
1696245597018,-0.033691406,-0.99102783,0.04046631,2.96875,1.125,3.171875
1696245597057,-0.043701172,-1.003479,0.0368042,1.75,1.078125,2.046875
1696245597097,-0.051757812,-0.9824829,0.05731201,3.109375,0.328125,2.078125
1696245597137,-0.032226562,-0.9780884,0.04437256,-1.203125,0.8125,0.9375
1696245597179,-0.05517578,-1.0291138,0.08026123,3.40625,4.4375,2.390625
1696245597218,-0.040039062,-1.0134888,0.041931152,2.625,3.53125,1.203125
1696245597259,-0.02368164,-0.98516846,0.057800293,4.78125,4.34375,1.40625
1696245597302,-0.030029297,-1.0020142,0.026794434,-1.921875,4.609375,1.046875
1696245597338,-0.048095703,-0.9951782,0.02142334,-3.5625,3.015625,-0.203125
1696245597379,-0.032958984,-0.9915161,0.03289795,-1.671875,5.28125,-0.234375
1696245597419,-0.043945312,-0.9956665,0.019470215,1.546875,5.578125,-0.453125
1696245597458,-0.040527344,-0.97247314,0.024841309,2.53125,5.140625,-0.015625
1696245597499,-0.032714844,-0.9837036,0.014343262,1.484375,2.078125,-0.390625
1696245597538,-0.04638672,-0.98272705,0.02142334,1.171875,1.953125,0.265625
1696245597577,-0.04272461,-0.9890747,0.02166748,0.484375,1.484375,0.09375
1696245597618,-0.037841797,-0.9883423,0.023376465,0.203125,1.203125,0.15625
1696245597659,-0.02734375,-0.9902954,0.007019043,0.46875,0.1875,0.640625
1696245597697,-0.041992188,-0.9898071,0.04876709,4.140625,-0.84375,0.625
1696245597740,-0.013916016,-0.98565674,-0.031066895,-2.953125,2.0625,-0.703125
1696245597780,-0.047851562,-0.9795532,0.039733887,0.265625,-0.53125,0.609375
1696245597819,-0.04736328,-0.975647,0.0045776367,0.921875,-2.28125,-0.203125
1696245597858,-0.033935547,-0.9458618,-0.008361816,0.875,-1.46875,0.203125
1696245597900,-0.033203125,-0.9800415,-0.006164551,3.703125,-0.171875,0.265625
1696245597939,-0.023925781,-0.99224854,0.0067749023,2.671875,-1.125,0.15625
1696245597980,-0.052246094,-0.96417236,-0.013977051,-1.921875,-1.78125,0.21875
1696245598018,-0.045654297,-0.94195557,-0.018127441,-6.84375,-9.78125,-0.890625
1696245598059,-0.04663086,-1.0066528,0.038024902,-8.0,-6.21875,1.296875
1696245598101,-0.035888672,-1.0303345,0.043884277,-6.78125,-4.46875,0.703125
1696245598117,-0.040527344,-1.0083618,0.038024902,-4.234375,-6.875,-0.109375
1696245598179,-0.041748047,-0.9834595,0.036071777,-1.078125,-7.1875,-0.4375
1696245598196,-0.026855469,-0.9636841,0.070495605,-0.9375,-2.28125,-0.390625
1696245598239,-0.0546875,-1.0134888,0.06317139,3.453125,-3.984375,1.015625
1696245598277,-0.038330078,-0.9937134,0.030700684,-0.40625,-2.203125,0.515625
1696245598317,-0.03466797,-1.00177,0.04852295,2.609375,-0.546875,1.671875
1696245598360,0.001953125,-0.98638916,0.003112793,0.875,0.140625,1.953125
1696245598398,-0.03881836,-0.97662354,0.051940918,3.265625,-0.203125,2.53125
1696245598460,-0.03515625,-0.9951782,0.05609131,2.078125,0.4375,2.046875
1696245598477,-0.012939453,-1.005188,0.06463623,1.515625,1.609375,2.109375
1696245598521,-0.022949219,-1.0227661,0.04486084,1.921875,3.3125,2.15625
1696245598557,-0.019042969,-0.97613525,0.051452637,2.6875,2.34375,1.625
1696245598599,-0.0075683594,-0.99468994,0.02142334,-4.25,1.734375,0.625
1696245598639,-0.037841797,-0.9885864,0.04119873,-5.234375,2.8125,-0.09375
1696245598698,-0.026855469,-0.9985962,0.047790527,-4.421875,4.171875,-1.34375
1696245598716,-0.023925781,-0.99591064,0.028015137,-1.828125,3.984375,-1.453125
1696245598778,-0.029541016,-0.9824829,0.03338623,1.296875,4.484375,0.078125
1696245598796,-0.038085938,-1.0010376,0.032165527,2.203125,4.4375,0.25
1696245598837,-0.0056152344,-0.9727173,0.023376465,1.359375,3.921875,0.796875
1696245598899,-0.033691406,-0.97369385,0.03289795,1.421875,1.953125,1.109375
1696245598917,-0.024902344,-0.98272705,0.03314209,0.25,1.359375,0.625
1696245598959,-0.0234375,-0.99005127,0.047790527,1.859375,-0.65625,0.453125
1696245599000,-0.009277344,-0.9734497,0.0048217773,-2.859375,1.375,0.03125
1696245599037,-0.01953125,-0.9837036,0.038513184,2.0625,0.515625,1.28125
1696245599078,-0.024414062,-0.9697876,0.012634277,1.875,-1.125,0.296875
1696245599119,-0.026611328,-0.95635986,0.021911621,1.328125,-1.390625,0.265625
1696245599160,-0.029785156,-0.960022,0.0138549805,4.859375,-3.453125,0.21875
1696245599199,-0.006591797,-0.9949341,0.016052246,7.578125,-2.5,0.5
1696245599237,-0.010498047,-0.9793091,-0.0068969727,3.28125,-2.578125,0.296875
1696245599278,-0.037841797,-0.9915161,0.010192871,5.890625,-0.984375,2.125
1696245599320,-0.03955078,-0.9968872,-0.010559082,5.828125,-5.125,0.1875
1696245599377,0.016113281,-0.9981079,-0.005432129,4.046875,-2.78125,0.109375
1696245599396,-0.01928711,-0.96661377,-0.042785645,2.96875,-2.703125,1.921875
1696245599417,-0.014892578,-0.9644165,-0.023986816,2.890625,-3.96875,0.421875
1696245599461,-0.014160156,-0.97491455,-0.022277832,1.53125,-2.09375,0.40625
1696245599499,-0.0234375,-1.0061646,-0.023498535,-0.953125,-2.828125,0.53125
1696245599541,-0.0075683594,-0.9661255,-0.054260254,-5.703125,-3.234375,-2.21875
1696245599578,-0.02368164,-0.9985962,0.02923584,0.28125,-1.40625,-1.390625
1696245599622,-0.0017089844,-1.005188,-0.038635254,-4.59375,-1.0,-0.796875
1696245599657,-0.02734375,-1.010315,0.039001465,1.984375,1.609375,0.9375
1696245599698,-0.023925781,-0.99298096,-0.02154541,-1.453125,0.03125,0.734375
1696245599740,0.0034179688,-0.9829712,9.1552734E-4,0.5,0.453125,0.9375
1696245599780,-0.0043945312,-0.99786377,-0.0064086914,-2.078125,-0.09375,0.375
1696245599820,-0.0063476562,-1.0064087,0.012878418,-2.453125,0.59375,-0.234375
1696245599857,-0.010986328,-0.9805298,0.00579834,-7.421875,-1.546875,-1.59375
1696245599899,-0.03515625,-0.98760986,0.0099487305,-8.359375,-1.71875,-2.140625
1696245599938,-0.038330078,-1.0020142,0.03387451,-6.796875,0.125,-2.28125
1696245599979,-0.033691406,-1.0054321,0.0368042,-5.265625,2.109375,-2.359375
1696245600017,-0.024658203,-0.9780884,0.03314209,-1.625,3.125,-1.234375
1696245600060,-0.02758789,-0.9937134,0.034362793,1.140625,3.40625,0.0
1696245600097,-0.029541016,-0.9866333,0.028259277,2.3125,2.15625,-0.15625
1696245600138,-0.03173828,-0.9812622,0.021911621,1.375,3.046875,-0.140625
1696245600177,-0.035888672,-0.9927368,0.029724121,3.453125,2.921875,0.8125
1696245600220,-0.025878906,-0.9859009,0.010681152,-0.28125,3.921875,0.3125
1696245600256,-0.044433594,-0.99346924,0.039245605,3.046875,2.0625,1.875
1696245600300,-0.03491211,-0.98321533,0.008972168,0.1875,1.046875,0.546875
1696245600337,-0.030273438,-0.97784424,0.021911621,-0.0625,1.34375,0.859375
1696245600380,-0.041015625,-0.98223877,0.029724121,1.40625,-0.8125,1.15625
1696245600418,-0.02758789,-0.9590454,0.0060424805,0.4375,-1.53125,0.71875
1696245600457,-0.0073242188,-0.9541626,-0.002746582,5.4375,-0.9375,1.546875
1696245600500,-0.030273438,-0.99468994,0.003112793,4.140625,1.390625,3.0
1696245600540,-0.015136719,-0.9902954,-0.006652832,1.734375,1.21875,2.734375
1696245600578,-0.020263672,-0.9717407,-6.1035156E-5,0.5625,-1.03125,1.765625
1696245600618,-0.016113281,-0.99786377,0.0099487305,-0.5625,-3.046875,1.296875
1696245600657,-0.016845703,-0.98760986,0.001159668,-2.96875,-3.90625,0.640625
1696245600699,-0.024902344,-0.973938,-0.0032348633,0.34375,-6.015625,-0.078125
1696245600739,-0.014160156,-0.9849243,0.00970459,-1.5,-5.484375,-0.15625
1696245600756,-0.009033203,-0.99298096,-0.013977051,-4.90625,-5.515625,-0.84375
1696245600796,-0.012207031,-0.97979736,0.008972168,-5.875,-7.546875,-1.671875
1696245600859,-0.022949219,-1.0003052,0.016052246,-4.1875,-4.96875,-2.015625
1696245600877,-0.0017089844,-0.9751587,0.03778076,-3.109375,-5.34375,-2.140625
1696245600939,-0.030029297,-1.0093384,0.047058105,-0.515625,-3.828125,-0.25
1696245600956,-0.033447266,-0.9968872,0.03338623,-0.59375,-3.265625,0.296875
1696245600997,-0.011230469,-0.9812622,0.04071045,-0.4375,-4.046875,0.390625
1696245601039,-0.022705078,-1.0064087,0.06048584,0.8125,-1.9375,1.234375
1696245601077,-0.022705078,-1.0076294,0.06121826,1.171875,0.28125,1.609375
1696245601117,-0.01171875,-0.9939575,0.031677246,0.53125,0.25,1.1875
1696245601159,-0.030517578,-0.99542236,0.047058105,1.59375,-1.265625,0.96875
1696245601198,-0.010253906,-0.987854,0.027282715,-2.078125,-0.765625,0.5
1696245601259,-0.045654297,-0.98687744,0.04486084,-3.4375,-1.3125,-0.5625
1696245601276,-0.020507812,-0.9902954,0.035583496,-4.8125,2.609375,-1.765625
1696245601317,-0.033447266,-0.99346924,0.04876709,-1.84375,3.65625,-1.078125
1696245601377,-0.018066406,-0.9812622,0.042419434,-2.640625,3.265625,-1.5
1696245601395,-0.037841797,-0.99591064,0.062194824,3.03125,3.1875,0.796875
1696245601459,-0.032226562,-0.9834595,0.035339355,1.3125,3.09375,-0.484375
1696245601478,-0.026123047,-0.98321533,0.04144287,1.046875,3.0,-0.171875
1696245601541,-0.026611328,-0.98931885,0.034118652,1.609375,3.109375,0.296875
1696245601556,-0.018798828,-0.9829712,0.038269043,2.609375,4.046875,0.609375
1696245601618,-0.0234375,-1.0027466,0.04144287,2.75,6.15625,0.046875
1696245601637,-0.034179688,-0.9927368,0.042419434,6.609375,8.78125,1.015625
1696245601680,-0.01171875,-0.98443604,0.004333496,7.0,7.046875,0.703125
1696245601717,-0.034423828,-0.96759033,-0.0022583008,5.734375,3.890625,1.484375
1696245601758,-0.028564453,-0.97369385,-0.007385254,3.21875,2.96875,1.109375
1696245601799,-0.026855469,-0.9661255,-0.0020141602,3.171875,-1.390625,1.140625
1696245601857,-0.019042969,-0.9619751,-0.006652832,1.09375,-1.359375,0.671875
1696245601877,-0.014160156,-0.97247314,-0.043273926,-0.671875,-4.734375,0.296875
1696245601919,0.001953125,-0.9570923,-0.012756348,5.34375,-3.109375,-0.34375
1696245601957,-0.018798828,-1.003479,-0.0071411133,0.609375,-3.125,0.609375
1696245601998,-0.023925781,-0.97247314,-0.016906738,-0.28125,-2.75,-0.078125
1696245602060,-0.01953125,-1.0003052,0.0060424805,-0.375,-3.96875,-0.609375
1696245602079,-0.03881836,-0.9859009,-0.02154541,-0.609375,-8.484375,0.03125
1696245602097,-0.0017089844,-0.9649048,-0.014709473,-3.421875,-12.765625,-1.046875
1696245602137,-0.01928711,-0.9915161,-0.008850098,-6.59375,-9.328125,-2.03125
1696245602179,-0.014404297,-1.0032349,0.008728027,-7.90625,-8.109375,-2.640625
1696245602217,-0.033935547,-0.99786377,0.025817871,-5.265625,-8.96875,-2.375
1696245602258,-0.024169922,-0.99786377,0.040222168,-2.5,-5.65625,-1.9375
1696245602298,-0.03564453,-0.98321533,0.019470215,-0.9375,-3.625,-0.578125
1696245602338,-0.03930664,-0.9976196,0.026794434,2.984375,-6.28125,-0.328125
1696245602381,-0.026611328,-0.98150635,0.047058105,1.0,-2.109375,-0.328125
1696245602419,-0.03173828,-1.0027466,0.03729248,1.875,-2.453125,0.84375
1696245602460,-0.036376953,-0.9939575,0.02532959,-0.578125,-1.03125,0.0625
1696245602497,-0.045654297,-1.0039673,0.04925537,0.59375,-0.90625,1.40625
1696245602537,-0.025390625,-0.9973755,0.06488037,3.109375,2.09375,1.328125
1696245602579,-0.025390625,-1.0281372,0.039733887,2.171875,4.828125,2.484375
1696245602624,-0.026367188,-0.9937134,0.0053100586,0.9375,3.359375,1.625
1696245602660,-0.03540039,-0.9690552,-0.009094238,-5.078125,1.9375,0.484375
1696245602698,-0.040771484,-0.99542236,0.016052246,-4.328125,3.234375,-1.71875
1696245602739,-0.032470703,-1.0112915,0.023376465,-4.8125,4.828125,-1.765625
1696245602778,-0.023925781,-0.98809814,0.023620605,-4.203125,4.09375,-1.984375
1696245602819,-0.030029297,-0.9783325,0.038269043,-1.78125,3.734375,-0.390625
1696245602858,-0.036132812,-0.98809814,0.030456543,-0.125,3.28125,0.09375
1696245602897,-0.03540039,-1.0007935,0.02947998,1.65625,3.96875,0.453125
1696245602937,-0.041015625,-0.9849243,0.051696777,4.4375,2.21875,0.625
1696245602979,-0.024658203,-0.98883057,-0.0064086914,-2.109375,6.25,-1.421875
1696245603019,-0.041259766,-0.9829712,0.039978027,2.046875,4.09375,0.078125
1696245603059,-0.033935547,-0.9937134,0.01727295,1.921875,1.765625,0.40625
1696245603098,-0.040283203,-0.97979736,0.010192871,0.40625,1.0,0.171875
1696245603138,-0.031982422,-0.9915161,0.03363037,-0.0625,-0.078125,0.703125
1696245603177,-0.03491211,-0.9793091,0.0045776367,-0.5,-0.953125,0.8125
1696245603217,-0.040527344,-0.96417236,0.018005371,-1.6875,-3.890625,0.703125
1696245603258,-0.026855469,-0.95562744,0.009216309,4.75,-4.6875,1.265625
1696245603297,-0.009521484,-0.9776001,-0.007873535,6.90625,-4.46875,0.859375
1696245603378,-0.032470703,-0.98565674,0.0048217773,1.640625,-3.78125,1.109375
1696245603381,-0.05078125,-0.986145,0.014099121,-1.375,-5.140625,0.140625
1696245603397,-0.052246094,-0.97003174,-3.0517578E-4,-6.296875,-9.25,-2.109375
1696245603438,-0.009521484,-0.98760986,0.009216309,-9.234375,-8.5625,-2.78125
1696245603478,-0.041503906,-1.0357056,0.058044434,-2.546875,-8.5625,-0.4375
1696245603518,-0.00390625,-1.00177,0.020690918,-4.25,-6.15625,-0.71875
1696245603559,-0.03173828,-0.98272705,0.045837402,4.5,-3.953125,1.5625
1696245603598,-0.025634766,-0.98883057,0.019226074,2.375,-3.5,1.796875
1696245603640,-0.036132812,-0.99957275,0.002380371,1.640625,-3.234375,1.234375
1696245603678,-0.037597656,-0.9849243,0.02142334,-2.953125,-2.265625,-0.3125
1696245603717,-0.040039062,-0.98223877,0.07220459,1.578125,-0.28125,0.296875
1696245603757,-0.04663086,-1.0093384,0.051452637,1.71875,-1.421875,1.234375
1696245603800,-0.03100586,-0.9807739,0.03265381,1.53125,-0.03125,1.84375
1696245603838,-0.0390625,-0.9920044,0.043884277,1.203125,-0.796875,0.75
1696245603881,-0.017333984,-0.9932251,0.038513184,1.578125,-2.0,0.203125
1696245603918,-0.009277344,-1.0061646,0.06097412,0.28125,-1.484375,-0.265625
1696245603959,-0.05053711,-0.99664307,0.049743652,-3.859375,-4.265625,-1.171875
1696245603998,-0.056640625,-0.97442627,0.040222168,-7.90625,-0.75,-1.796875
1696245604037,-0.03881836,-1.0276489,0.04168701,-4.171875,5.4375,-1.953125
1696245604078,-0.042236328,-1.015686,0.051452637,-4.8125,5.578125,-1.1875
1696245604118,-0.05810547,-1.005188,0.05999756,-0.515625,7.40625,0.875
1696245604159,-0.029541016,-0.97247314,0.02947998,-1.0625,7.46875,0.078125
1696245604199,-0.025390625,-0.9771118,0.051208496,0.828125,4.640625,0.453125
1696245604239,-0.034423828,-0.98687744,0.046325684,-0.265625,3.6875,-0.75
1696245604277,-0.026123047,-0.9890747,0.06365967,-0.8125,4.046875,-0.984375
1696245604321,-0.030517578,-0.9944458,0.06512451,0.421875,2.28125,-0.390625
1696245604360,-0.044433594,-0.98443604,0.043884277,1.53125,1.625,0.875
1696245604398,-0.05126953,-0.991272,0.046325684,2.90625,2.828125,0.78125
1696245604439,-0.057861328,-0.98565674,0.035339355,2.734375,3.59375,0.953125
1696245604480,-0.033203125,-0.9793091,0.042419434,2.125,3.171875,1.234375
1696245604519,-0.028076172,-0.9805298,0.016052246,-0.78125,1.1875,0.953125
1696245604566,-0.01928711,-0.97003174,0.011413574,1.1875,-3.421875,1.546875
1696245604598,-0.037353516,-0.9522095,0.008239746,-0.9375,-1.828125,1.359375
1696245604637,-0.009765625,-0.9854126,0.026062012,3.65625,-2.640625,0.5
1696245604679,-0.033935547,-0.9536743,0.0014038086,-4.671875,-11.296875,-1.671875
1696245604698,-0.061767578,-0.9373169,0.029724121,-9.765625,-13.84375,-1.140625
1696245604738,-0.052490234,-1.0361938,0.101745605,-2.09375,-11.15625,-1.859375
1696245604778,-0.014160156,-1.0391235,0.077819824,0.859375,-7.90625,0.46875
1696245604821,-0.033935547,-0.9873657,0.0289917,2.3125,-6.375,0.75
1696245604858,-0.03540039,-0.97540283,0.046569824,5.09375,-3.34375,1.0
1696245604898,-0.040283203,-0.9890747,0.046081543,4.84375,-0.703125,1.765625
1696245604938,-0.04272461,-0.9998169,0.04510498,1.6875,-0.3125,1.1875
1696245604979,-0.037597656,-0.9944458,0.027282715,-0.609375,-0.15625,1.125
1696245605017,-0.041503906,-0.99420166,0.04095459,-1.359375,0.078125,1.828125
1696245605072,-0.024169922,-0.9841919,0.058532715,-1.25,1.09375,1.0625
1696245605097,-0.030273438,-0.9932251,0.04534912,-1.34375,0.765625,0.84375
1696245605138,-0.03857422,-0.9849243,0.055358887,-0.71875,0.65625,0.046875
1696245605200,-0.04663086,-0.99884033,0.05706787,0.3125,0.0,0.828125
1696245605216,-0.033447266,-0.9866333,0.0524292,0.140625,0.265625,0.0
1696245605257,-0.032714844,-0.9944458,0.04949951,-0.234375,-1.375,0.03125
1696245605298,-0.025390625,-0.9920044,0.046813965,1.03125,-0.734375,0.21875
1696245605338,-0.022705078,-0.9846802,0.06512451,-0.1875,0.328125,0.59375
1696245605399,-0.028808594,-1.003479,0.05340576,-1.5625,2.40625,-0.375
1696245605417,-0.03125,-1.0076294,0.044128418,-1.796875,3.671875,-0.28125
1696245605459,-0.041259766,-0.99346924,0.06365967,-1.3125,5.9375,-0.859375
1696245605499,-0.0390625,-0.9968872,0.04901123,-0.71875,5.71875,-0.875
1696245605559,-0.035888672,-0.9841919,0.03289795,0.109375,5.09375,-0.625
1696245605578,-0.036376953,-0.9829712,0.028015137,-0.078125,5.09375,-0.59375
1696245605619,-0.04638672,-0.98516846,0.0368042,1.546875,2.421875,0.953125
1696245605680,-0.03100586,-0.98150635,0.032409668,-1.296875,4.578125,0.421875
1696245605698,-0.043701172,-0.9871216,0.058288574,1.15625,2.765625,1.28125
1696245605758,-0.041748047,-0.98687744,0.030456543,0.921875,3.0,-0.421875
1696245605779,-0.026611328,-0.9841919,0.04071045,1.6875,3.734375,0.015625
1696245605818,-0.02368164,-0.99468994,0.031433105,1.203125,2.421875,0.46875
1696245605857,-0.032714844,-0.989563,0.043395996,1.125,2.34375,0.5625
1696245605897,-0.03491211,-0.99224854,0.039489746,1.234375,2.5625,0.015625
1696245605942,-0.025634766,-0.9920044,0.023620605,2.890625,3.734375,0.40625
1696245605977,-0.018798828,-0.97491455,0.02142334,4.3125,3.0,0.765625
1696245605997,-0.037353516,-0.9656372,0.015075684,3.546875,0.640625,0.890625
1696245606039,-0.043701172,-0.9505005,-0.004211426,2.421875,-0.421875,0.859375
1696245606078,-0.013916016,-0.95147705,0.0021362305,1.578125,-2.5,1.234375
1696245606118,-0.0390625,-0.97491455,0.03265381,7.234375,-4.203125,1.140625
1696245606159,-0.013427734,-0.9920044,-0.026428223,-1.65625,-4.5,-0.515625
1696245606199,-0.028076172,-0.9390259,-0.0115356445,-3.875,-13.25,-0.671875
1696245606237,-0.050048828,-0.99053955,0.02142334,-3.8125,-14.890625,-0.78125
1696245606278,-0.017089844,-1.0195923,0.05340576,-8.3125,-8.421875,-2.921875
1696245606322,-0.017578125,-1.0435181,0.030944824,-4.21875,-6.03125,-2.046875
1696245606358,-0.06518555,-0.9981079,0.02532959,-0.90625,-6.15625,-0.890625
1696245606396,-0.030273438,-0.9680786,0.035339355,-0.265625,-3.84375,-0.125
1696245606437,-0.043701172,-0.9993286,0.04852295,0.90625,-1.921875,0.328125
1696245606477,-0.037353516,-0.9993286,0.039489746,-0.546875,-1.375,1.09375
1696245606520,-0.046875,-0.9920044,0.04852295,-1.53125,-1.515625,0.46875
1696245606557,-0.03173828,-0.9854126,0.04486084,-1.9375,0.234375,-0.21875
1696245606598,-0.023925781,-1.0015259,0.050231934,-1.078125,0.765625,-0.25
1696245606639,-0.041992188,-0.99420166,0.04486084,-1.28125,0.25,-0.484375
1696245606677,-0.028564453,-0.9973755,0.08294678,1.96875,2.453125,1.03125
1696245606719,-0.040527344,-1.0105591,0.03314209,-2.09375,3.875,-0.171875
1696245606759,-0.03881836,-0.9849243,0.05731201,0.375,1.65625,0.5625
1696245606798,-0.038085938,-0.9871216,0.040222168,-2.578125,2.125,0.0
1696245606839,-0.045410156,-0.9990845,0.047790527,-3.0,5.34375,0.21875
1696245606877,-0.041015625,-0.9993286,0.054382324,-0.65625,6.796875,0.6875
1696245606918,-0.036865234,-0.9932251,0.062927246,0.84375,6.375,0.265625
1696245606958,-0.037841797,-0.9714966,0.043395996,-0.90625,3.25,-0.375
1696245606998,-0.036132812,-0.9859009,0.06536865,1.984375,2.40625,0.84375
1696245607043,-0.040527344,-0.9859009,0.0368042,-0.0625,0.984375,0.921875
1696245607080,-0.040039062,-0.9817505,0.04095459,-0.109375,1.1875,0.3125
1696245607119,-0.032470703,-0.99420166,0.05316162,0.625,0.625,0.53125
1696245607158,-0.048095703,-0.9805298,0.062683105,1.234375,-0.40625,0.796875
1696245607200,-0.038085938,-0.97540283,0.04119873,-0.375,-0.296875,-0.3125
1696245607236,-0.025390625,-0.9812622,0.023132324,0.375,-0.375,0.6875
1696245607276,-0.043945312,-0.9529419,0.02923584,7.390625,-2.78125,1.34375
1696245607318,-0.016601562,-0.9590454,0.029724121,8.609375,-0.390625,2.125
1696245607359,-0.032958984,-0.9937134,0.034606934,6.75,1.3125,2.96875
1696245607376,-0.024414062,-0.99102783,0.0038452148,3.703125,1.46875,1.984375
1696245607440,-0.018066406,-0.97491455,-0.0032348633,4.3125,1.0625,3.078125
1696245607457,-0.0126953125,-0.9771118,0.009216309,3.234375,-3.546875,1.59375
1696245607498,-0.018066406,-0.97857666,-0.004211426,2.015625,-2.6875,1.15625
1696245607537,-0.021240234,-0.9819946,-0.0178833,1.3125,-3.828125,1.140625
1696245607577,-0.0073242188,-0.97247314,-0.043762207,-0.640625,-6.875,-0.03125
1696245607617,-0.017089844,-0.9949341,-0.007873535,-3.4375,-6.953125,-1.328125
1696245607659,-0.020019531,-0.99664307,0.0072631836,-5.359375,-6.90625,-2.078125
1696245607698,-0.02734375,-1.0144653,0.04071045,-2.125,-3.5,0.53125
1696245607761,-0.0026855469,-0.98809814,0.017028809,-5.953125,-2.1875,-0.6875
1696245607777,-0.011962891,-0.9776001,0.017028809,-1.5,-0.34375,1.28125
1696245607818,-0.02734375,-1.0005493,0.040222168,-1.234375,-2.265625,-0.28125
1696245607859,-0.023925781,-0.989563,0.045837402,0.203125,-0.515625,1.109375
1696245607899,-0.027832031,-0.9871216,0.050231934,0.40625,-0.171875,0.875
1696245607940,-0.008300781,-0.99957275,0.07098389,2.8125,2.734375,1.75
1696245607978,-0.0034179688,-1.0090942,0.018981934,0.59375,2.96875,1.265625
1696245608019,-0.0107421875,-0.97979736,0.039001465,2.21875,-0.078125,0.640625
1696245608079,0.001953125,-0.9949341,0.010681152,-3.75,0.078125,-0.296875
1696245608098,-0.03881836,-1.0015259,0.043395996,-5.578125,1.359375,-0.90625
1696245608160,-0.017333984,-1.0110474,0.03753662,-3.765625,4.875,-1.0625
1696245608177,-0.016845703,-0.9866333,0.038269043,-1.203125,6.140625,-0.8125
1696245608218,-0.016601562,-0.986145,0.020446777,0.796875,5.734375,-0.78125
1696245608260,-0.023925781,-0.97662354,0.01361084,1.1875,3.46875,-0.359375
1696245608298,-0.03149414,-0.9824829,0.053894043,4.09375,1.53125,0.171875
1696245608360,-0.01928711,-0.9807739,-0.0017700195,-1.75,3.609375,-1.875
1696245608376,-0.024414062,-0.9883423,0.05731201,0.765625,2.28125,0.015625
1696245608419,-0.020996094,-0.99957275,0.014831543,0.578125,0.90625,0.03125
1696245608480,-0.02758789,-0.9824829,0.030700684,0.484375,1.6875,-0.203125
1696245608518,-0.034423828,-0.98565674,0.03338623,0.6875,-0.203125,-0.21875
1696245608536,-0.031982422,-0.9834595,0.020690918,0.0625,1.03125,-0.03125
1696245608579,-0.030761719,-0.98443604,0.028015137,-1.09375,-0.59375,-0.296875
1696245608620,-0.024169922,-0.973938,0.023376465,-1.0,-1.671875,-0.125
1696245608637,-0.032470703,-0.9639282,0.020690918,1.0625,-2.578125,-0.0625
1696245608680,-0.012939453,-0.9651489,0.012145996,6.5625,-1.28125,0.578125
1696245608718,-0.037597656,-0.9697876,-0.0020141602,7.921875,0.09375,1.0
1696245608759,-0.033935547,-1.0081177,0.011657715,9.46875,1.109375,0.640625
1696245608798,-0.0078125,-0.9631958,-0.01763916,2.640625,1.46875,0.609375
1696245608849,-0.015380859,-0.9602661,-0.038635254,0.984375,-7.109375,0.765625
1696245608877,-0.017089844,-0.9668579,0.015319824,-2.359375,-8.34375,-1.6875
1696245608919,-0.036376953,-1.0476685,0.022399902,-0.046875,-3.140625,0.703125
1696245608958,-0.022949219,-0.99786377,-0.0256958,-3.953125,-5.625,-0.8125
1696245608998,-0.0146484375,-0.97052,-0.020080566,-4.53125,-7.125,-1.234375
1696245609038,-0.029052734,-0.99835205,0.0079956055,-4.453125,-7.0,-1.1875
1696245609078,-0.019042969,-1.0032349,-0.0076293945,-6.171875,-4.71875,-1.6875
1696245609119,-0.041259766,-0.99713135,0.02923584,-2.78125,-5.125,-1.609375
1696245609160,-0.02319336,-0.97198486,0.04046631,1.03125,-3.15625,1.296875
1696245609197,-0.029052734,-0.98687744,0.014343262,1.1875,-2.953125,1.171875
1696245609236,-0.03955078,-1.0005493,0.027526855,2.921875,-2.5,1.5625
1696245609276,-0.029541016,-0.98394775,0.022888184,0.703125,-1.1875,0.734375
1696245609316,-0.017333984,-0.9956665,0.036315918,1.578125,-0.640625,1.734375
1696245609357,-0.012939453,-1.0083618,0.06317139,4.59375,3.3125,2.125
1696245609397,-0.01928711,-1.0144653,0.026062012,2.390625,3.25,1.03125
1696245609439,-0.037597656,-0.9788208,0.026550293,-1.328125,2.375,0.078125
1696245609478,-0.03881836,-0.9973755,-0.012268066,-6.8125,2.0625,-0.703125
1696245609520,-0.036132812,-0.9951782,0.0138549805,-6.75,4.921875,-2.109375
1696245609560,-0.025878906,-1.0010376,0.039245605,-2.984375,5.296875,-1.484375
1696245609597,-0.03125,-0.99786377,0.027282715,-1.859375,4.734375,-1.171875
1696245609639,-0.034179688,-0.98150635,0.031433105,-2.9375,2.796875,-1.25
1696245609679,-0.03173828,-0.9758911,0.034851074,-1.609375,3.46875,-0.265625
1696245609718,-0.03881836,-0.99542236,0.031433105,-0.3125,1.25,-0.34375
1696245609758,-0.044433594,-0.9944458,0.04046631,-0.609375,2.21875,-0.390625
1696245609799,-0.037841797,-0.973938,0.03704834,-2.546875,2.078125,-0.421875
1696245609839,-0.055908203,-0.986145,0.05706787,-3.0625,-0.328125,-0.484375
1696245609878,-0.036132812,-0.9956665,0.06097412,0.28125,2.515625,-2.484375
1696245609918,-0.012207031,-0.9873657,6.713867E-4,-0.390625,-0.046875,-1.5625
1696245609958,-0.06982422,-0.9602661,0.054382324,0.6875,0.359375,0.703125
1696245610000,-0.057861328,-0.9824829,0.03265381,7.4375,-0.3125,1.21875
1696245610038,-0.018554688,-0.9314575,0.0028686523,9.609375,0.109375,1.125
1696245610060,-0.02319336,-0.9829712,-0.0020141602,10.6875,0.09375,2.109375
1696245610099,-0.025878906,-0.9746704,-0.0017700195,3.171875,-4.21875,1.859375
1696245610161,-0.030517578,-0.991272,0.009460449,2.453125,-1.109375,1.078125
1696245610176,-0.053710938,-0.9924927,0.0016479492,-1.71875,-4.0,0.34375
1696245610239,-0.046875,-0.98638916,-0.008361816,-2.5,-7.59375,-0.40625
1696245610266,-0.037597656,-0.96881104,-0.013000488,-3.859375,-8.171875,-2.34375
1696245610298,-0.01977539,-1.0073853,0.022399902,-3.8125,-7.640625,-1.40625
1696245610339,-0.044189453,-1.0056763,0.012634277,-2.546875,-7.375,-0.3125
1696245610378,-0.033691406,-0.9976196,0.009216309,-0.75,-4.984375,0.171875
1696245610418,-0.04321289,-0.97198486,0.03729248,-0.046875,-3.96875,0.453125
1696245610460,-0.028076172,-0.9841919,0.011413574,-3.390625,-2.09375,0.5625
1696245610520,-0.05102539,-1.0025024,0.05291748,0.515625,-2.234375,0.375
1696245610537,-0.061035156,-1.0020142,0.018249512,1.0,-1.65625,0.46875
1696245610581,-0.025878906,-0.99176025,0.035095215,0.328125,-0.625,-0.578125
1696245610619,-0.04321289,-0.99591064,0.04095459,-0.171875,-0.515625,0.359375
1696245610660,-0.01928711,-1.0222778,0.06781006,2.5,4.703125,0.921875
1696245610699,-0.048339844,-1.0169067,0.05340576,1.046875,0.734375,0.375
1696245610739,-0.033935547,-0.9714966,0.022644043,-3.484375,-1.1875,0.4375
1696245610801,-0.07128906,-0.9800415,0.02557373,-6.859375,0.71875,-0.59375
1696245610838,-0.060058594,-1.0098267,0.050964355,-5.703125,2.78125,-1.65625
1696245610858,-0.036865234,-1.0083618,0.03265381,-6.0625,3.421875,-1.828125
1696245610918,-0.030761719,-0.9866333,0.04486084,-4.234375,3.453125,-1.078125
1696245610939,-0.05810547,-0.9776001,0.058044434,-0.765625,0.3125,-0.265625
1696245611001,-0.052001953,-0.9829712,0.032409668,-3.640625,3.234375,-1.34375
1696245611015,-0.064697266,-0.9771118,0.0836792,-0.328125,1.15625,-0.03125
1696245611080,-0.0637207,-1.0039673,0.05731201,-0.875,1.515625,0.109375
1696245611098,-0.05908203,-0.9768677,0.050231934,-2.125,1.90625,-0.640625
1696245611160,-0.053710938,-0.9939575,0.08270264,1.71875,2.203125,0.578125
1696245611178,-0.045166016,-0.9937134,0.08074951,1.15625,4.640625,0.421875
1696245611218,-0.03491211,-0.9976196,0.0446167,-0.625,3.328125,-0.1875
1696245611284,-0.043945312,-0.97857666,0.057800293,3.578125,1.171875,0.46875
1696245611288,-0.059326172,-0.9780884,0.045837402,3.328125,0.5,0.890625
1696245611317,-0.0546875,-0.96954346,0.043151855,3.171875,-0.140625,0.859375
1696245611359,-0.040527344,-0.9663696,0.038269043,4.296875,-2.609375,1.328125
1696245611398,-0.032958984,-0.97076416,-0.0049438477,10.78125,-1.453125,1.921875
1696245611439,-0.029296875,-0.9819946,0.046813965,11.8125,-1.59375,2.453125
1696245611478,-0.031982422,-0.9788208,-0.028137207,-1.125,0.390625,-0.015625
1696245611517,-0.052001953,-0.9639282,-0.0115356445,-3.046875,-6.765625,-1.140625
1696245611558,-0.04711914,-0.9763794,0.023132324,-4.09375,-11.953125,-2.1875
1696245611599,-0.025390625,-0.99224854,0.047546387,-3.5,-10.03125,-2.09375
1696245611641,-0.029052734,-1.0213013,0.04486084,-3.046875,-6.71875,-1.578125
1696245611678,-0.07080078,-1.0039673,0.035095215,0.1875,-7.21875,1.203125
1696245611718,-0.05053711,-0.99053955,0.036315918,1.171875,-6.921875,1.484375
1696245611760,-0.059570312,-0.9883423,0.03387451,2.203125,-4.171875,1.84375
1696245611798,-0.03149414,-1.0029907,0.0033569336,2.1875,-3.8125,1.546875
1696245611840,-0.041503906,-0.9949341,0.011657715,1.359375,-3.625,1.4375
1696245611879,-0.043701172,-0.97052,0.0211792,-1.078125,-2.890625,0.703125
1696245611918,-0.059570312,-1.0078735,0.047058105,0.15625,-1.140625,0.390625
1696245611958,-0.043701172,-1.0005493,0.029968262,0.328125,1.453125,0.25
1696245612000,-0.025390625,-0.9885864,0.049743652,1.03125,4.015625,0.234375
1696245612040,-0.04711914,-1.010315,0.030212402,0.34375,4.0625,0.21875
1696245612081,-0.05053711,-1.0147095,0.050720215,2.015625,3.375,0.125
1696245612119,-0.028808594,-0.975647,0.006286621,-5.703125,2.15625,-0.90625
1696245612157,-0.07104492,-0.9985962,0.039978027,-5.453125,4.078125,-0.84375
1696245612199,-0.04321289,-1.0176392,0.034362793,-4.90625,7.546875,-1.53125
1696245612240,-0.0390625,-0.9890747,0.029724121,-3.140625,6.0,-1.03125
1696245612278,-0.056152344,-0.991272,0.047546387,-0.671875,5.203125,-0.25
1696245612319,-0.051513672,-0.9854126,0.038513184,-0.390625,4.34375,-0.375
1696245612359,-0.052734375,-0.98150635,0.051452637,-0.375,2.765625,-0.53125
1696245612398,-0.047607422,-0.9854126,0.031677246,-0.609375,1.1875,0.453125
1696245612439,-0.06298828,-0.9907837,0.041931152,0.75,1.1875,0.921875
1696245612487,-0.05053711,-0.9776001,0.0692749,2.15625,1.09375,1.171875
1696245612518,-0.033691406,-0.9800415,-0.00592041,-4.0,2.65625,0.265625
1696245612558,-0.0637207,-0.99468994,0.070739746,-0.328125,0.140625,1.296875
1696245612599,-0.072021484,-0.9885864,0.031433105,-0.625,-0.453125,-0.25
1696245612617,-0.048339844,-0.9639282,0.04437256,1.328125,2.78125,0.296875
1696245612659,-0.049804688,-0.97442627,0.055358887,2.328125,0.640625,0.875
1696245612720,-0.05078125,-0.9561157,0.02166748,3.46875,-1.21875,1.328125
1696245612759,-0.036376953,-0.9331665,0.0033569336,9.59375,-2.28125,1.078125
1696245612776,-0.032714844,-0.9590454,0.0026245117,9.90625,-2.140625,3.03125
1696245612841,-0.043701172,-0.9812622,-0.0071411133,4.5,-5.359375,2.84375
1696245612856,-0.02368164,-0.9915161,0.020935059,2.234375,-3.921875,1.265625
1696245612898,-0.061035156,-1.0110474,0.01361084,-1.1875,-5.3125,1.0625
1696245612937,-0.030029297,-0.9944458,-0.014221191,1.09375,-9.015625,-0.1875
1696245612981,-0.036376953,-0.9859009,-0.021057129,-0.515625,-10.0,-0.3125
1696245613039,-0.0107421875,-0.9976196,-0.012512207,-4.65625,-6.734375,-0.6875
1696245613057,-0.055419922,-1.0193481,0.01727295,-1.515625,-7.515625,0.078125
1696245613100,-0.039794922,-0.99053955,0.038024902,-0.765625,-3.9375,-0.015625
1696245613137,-0.03466797,-0.98394775,0.012145996,1.046875,-1.0625,0.21875
1696245613180,-0.028808594,-0.9885864,0.038269043,-0.09375,-1.5,0.1875
1696245613220,-0.03930664,-1.0007935,0.015075684,0.078125,0.015625,0.578125
1696245613258,-0.030273438,-0.9807739,0.004333496,-0.359375,0.015625,0.640625
1696245613299,-0.05053711,-0.99835205,0.027526855,0.8125,0.53125,1.421875
1696245613359,-0.032226562,-1.0125122,0.05267334,2.03125,4.71875,1.3125
1696245613400,-0.0234375,-1.0217896,0.04559326,1.546875,7.125,0.5625
1696245613416,-0.028320312,-1.0015259,0.040222168,2.5,4.953125,0.671875
1696245613479,-0.017089844,-1.003479,0.019714355,-2.84375,4.84375,0.375
1696245613496,-0.056152344,-0.99224854,0.008972168,-5.765625,4.171875,-2.03125
1696245613559,-0.030761719,-0.98809814,-0.00982666,-5.15625,5.5,-2.1875
1696245613577,-0.033935547,-0.97906494,0.024353027,-1.96875,4.171875,-0.453125
1696245613618,-0.06298828,-0.99957275,0.027526855,1.328125,4.234375,1.546875
1696245613657,-0.045410156,-0.9805298,0.015075684,-0.609375,3.59375,-0.0625
1696245613698,-0.04711914,-0.99053955,0.023864746,0.078125,2.3125,0.03125
1696245613740,-0.024169922,-0.99346924,0.011169434,-0.03125,2.21875,0.078125
1696245613798,-0.03955078,-0.99542236,0.014343262,-1.015625,1.65625,0.609375
1696245613817,-0.052246094,-0.97491455,0.010437012,0.4375,1.203125,0.265625
1696245613858,-0.037353516,-0.98565674,0.011657715,1.703125,2.765625,-0.03125
1696245613900,-0.022705078,-0.9717407,0.016784668,0.625,0.296875,-0.015625
1696245613918,-0.044189453,-0.96343994,-0.0051879883,1.71875,-2.578125,0.375
1696245613959,-0.017333984,-0.9529419,-0.016174316,5.4375,-2.53125,0.375
1696245614000,-0.03491211,-0.9920044,0.03338623,8.515625,-0.453125,1.53125
1696245614039,-0.025878906,-0.96881104,-0.050842285,0.4375,-2.28125,-0.21875
1696245614081,-0.06347656,-0.9507446,-0.0022583008,-0.1875,-6.46875,0.375
1696245614118,-0.037841797,-0.9902954,0.015808105,-0.734375,-6.671875,0.234375
1696245614157,-0.016845703,-1.0078735,-0.018859863,-2.828125,-6.4375,-0.703125
1696245614198,-0.041503906,-1.00177,-0.010803223,-2.09375,-8.53125,-0.625
1696245614240,-0.040039062,-0.9849243,0.010925293,-4.171875,-9.28125,-1.390625
1696245614278,-0.033691406,-0.98883057,9.1552734E-4,-3.453125,-7.21875,-0.9375
1696245614319,-0.032226562,-1.0078735,0.0211792,-0.5625,-4.34375,0.046875
1696245614358,-0.048828125,-0.99053955,0.022888184,-0.859375,-4.109375,0.625
1696245614399,-0.022705078,-1.0012817,0.009460449,0.625,-2.859375,0.4375
1696245614439,-0.045654297,-0.98150635,0.02508545,0.296875,-1.4375,0.921875
1696245614480,-0.041259766,-1.0056763,0.015563965,2.171875,-0.78125,1.4375
1696245614520,-0.03125,-0.98638916,0.019226074,1.234375,0.3125,0.9375
1696245614559,-0.03149414,-1.0005493,0.019958496,-0.515625,-0.09375,0.6875
1696245614597,-0.039794922,-0.9846802,0.038024902,-0.53125,-0.28125,0.046875
1696245614638,-0.026367188,-1.024231,0.066101074,1.96875,1.671875,1.328125
1696245614681,-0.049316406,-1.0042114,0.022155762,0.28125,1.0625,0.125
1696245614721,-0.021240234,-1.0044556,0.051940918,1.078125,3.71875,0.796875
1696245614758,-0.056396484,-0.99346924,-7.9345703E-4,-5.21875,3.015625,-1.03125
1696245614800,-0.041259766,-0.99005127,0.01751709,-5.3125,5.25,-2.515625
1696245614841,-0.043701172,-0.991272,0.024841309,-3.234375,5.890625,-1.65625
1696245614878,-0.041503906,-0.9949341,0.026306152,-1.734375,6.046875,-0.1875
1696245614926,-0.049560547,-0.9824829,0.01776123,-1.40625,3.53125,-0.6875
1696245614958,-0.04345703,-0.9812622,0.028503418,-0.59375,3.390625,-0.484375
1696245614999,-0.053466797,-0.9932251,0.035583496,1.484375,1.671875,-0.515625
1696245615038,-0.05419922,-0.9800415,0.059509277,1.703125,1.59375,-1.53125
1696245615079,-0.025634766,-0.9807739,-0.00982666,-2.796875,3.765625,-1.421875
1696245615119,-0.060791016,-0.97320557,0.046813965,0.9375,1.265625,1.265625
1696245615159,-0.05908203,-0.9981079,0.028747559,-0.484375,0.125,-0.578125
1696245615222,-0.05029297,-0.96539307,0.02508545,-0.078125,1.734375,-0.71875
1696245615237,-0.056396484,-0.97491455,0.0368042,2.296875,0.28125,0.703125
1696245615278,-0.06591797,-0.9758911,-0.0071411133,9.34375,-3.25,0.390625
1696245615297,-0.033691406,-0.9495239,0.022644043,8.3125,-2.34375,-0.0625
1696245615341,-0.0390625,-1.0025024,-0.024963379,11.5,0.203125,1.484375
1696245615400,-0.03491211,-0.9710083,-0.03375244,7.453125,-2.71875,0.984375
1696245615417,-0.03466797,-0.9505005,-0.046447754,6.484375,-3.515625,1.6875
1696245615456,-0.04321289,-0.97662354,-0.035949707,3.8125,-3.34375,1.375
1696245615502,-0.05419922,-0.99957275,-0.03765869,2.453125,-4.5625,1.0
1696245615540,-0.06689453,-0.98272705,-0.023010254,-2.015625,-7.328125,-0.28125
1696245615581,-0.025146484,-0.96221924,-0.054992676,-4.109375,-4.953125,-0.359375
1696245615640,-0.028076172,-0.99346924,-0.02178955,-3.59375,-6.171875,-0.25
1696245615678,-0.041992188,-1.0335083,-0.014465332,-1.859375,-5.203125,0.71875
1696245615698,-0.028076172,-0.99346924,-0.022766113,0.3125,-3.578125,1.828125
1696245615738,-0.02758789,-0.9890747,-0.020568848,0.0,-2.53125,2.265625
1696245615799,-0.045898438,-0.991272,-0.017150879,-0.578125,-1.71875,2.359375
1696245615819,-0.030517578,-0.98883057,-0.016174316,-1.609375,-1.125,1.546875
1696245615859,-0.03491211,-0.9998169,4.272461E-4,-1.640625,-0.703125,0.921875
1696245615898,-0.012207031,-1.0056763,0.010925293,-2.0625,2.6875,0.609375
1696245615939,-0.05126953,-1.031311,0.006286621,-1.359375,2.0625,0.359375
1696245615978,-0.021484375,-0.97540283,0.0099487305,-5.234375,3.171875,-0.109375
1696245616019,-0.048583984,-0.98883057,0.001159668,-7.1875,0.765625,-0.53125
1696245616079,-0.053466797,-1.000061,0.044128418,-7.0,3.421875,-2.875
1696245616121,-0.024658203,-1.0154419,0.016784668,-6.484375,4.921875,-1.828125
1696245616138,-0.04296875,-0.9807739,0.020935059,-5.109375,2.109375,-1.5
1696245616178,-0.055664062,-0.99176025,0.030456543,-0.640625,1.9375,0.609375
1696245616219,-0.053466797,-0.97613525,0.015563965,-2.6875,2.234375,-0.640625
1696245616258,-0.05029297,-0.98809814,0.03753662,-0.53125,2.546875,0.15625
1696245616321,-0.053710938,-0.9961548,0.0368042,-1.53125,1.1875,-0.140625
1696245616336,-0.03857422,-0.9866333,0.028503418,-1.71875,1.15625,0.265625
1696245616381,-0.053466797,-0.98272705,0.041931152,-0.296875,0.328125,0.640625
1696245616440,-0.038330078,-0.975647,0.026550293,-0.703125,-0.015625,0.328125
1696245616458,-0.041748047,-0.9793091,0.03265381,0.828125,0.578125,0.484375
1696245616542,-0.040283203,-0.96588135,0.030456543,2.984375,-1.09375,0.9375
1696245616547,-0.045898438,-0.93927,0.007507324,9.328125,-3.046875,0.921875
1696245616557,-0.038085938,-0.96466064,0.014343262,7.609375,-3.328125,1.15625
1696245616601,-0.017333984,-0.9883423,-0.012023926,1.671875,-3.0,0.5
1696245616639,-0.052001953,-0.97442627,-0.0037231445,-0.3125,-6.71875,-0.9375
1696245616679,-0.049072266,-1.0127563,0.051696777,0.53125,-5.5625,0.28125
1696245616718,-0.041992188,-0.9915161,0.00579834,-1.546875,-7.03125,-0.0625
1696245616758,-0.010009766,-0.99786377,0.007019043,-1.6875,-5.0,-0.53125
1696245616800,-0.03930664,-1.0020142,0.009460449,-0.734375,-4.578125,0.53125
1696245616839,-0.025390625,-0.99884033,0.026306152,-1.1875,-2.515625,0.53125
1696245616881,-0.03881836,-0.9788208,0.006286621,1.265625,-2.015625,1.71875
1696245616919,-0.041748047,-0.9795532,0.023620605,1.125,-1.25,2.265625
1696245616965,-0.021240234,-1.0088501,0.0053100586,0.578125,0.171875,2.28125
1696245616999,-0.028076172,-1.00177,0.026306152,0.15625,0.515625,1.71875
1696245617046,-0.036621094,-0.9871216,0.039001465,0.109375,0.375,1.390625
1696245617080,-0.0146484375,-1.0088501,0.035339355,0.0,5.375,0.703125
1696245617118,-0.03515625,-1.013977,0.044128418,2.484375,2.390625,1.15625
1696245617158,-0.006591797,-0.9717407,0.0028686523,-5.5625,1.859375,-0.765625
1696245617201,-0.05126953,-0.9963989,0.02557373,-5.296875,1.1875,-0.109375
1696245617241,-0.041503906,-1.0217896,0.036315918,-5.734375,4.75,-2.328125
1696245617277,-0.01928711,-0.9998169,0.023132324,-4.3125,4.265625,-2.34375
1696245617319,-0.02709961,-0.987854,0.0368042,-2.46875,3.828125,-1.234375
1696245617358,-0.036132812,-0.9883423,0.039489746,-1.546875,4.59375,-0.71875
1696245617399,-0.053466797,-0.98565674,0.035095215,0.015625,3.9375,-1.03125
1696245617439,-0.032226562,-0.975647,0.031921387,-0.328125,2.75,-0.25
1696245617477,-0.044189453,-0.9780884,0.026062012,0.15625,3.03125,0.21875
1696245617519,-0.041503906,-0.9819946,0.03753662,0.796875,0.84375,-0.03125
1696245617559,-0.04321289,-0.96954346,0.04046631,0.453125,0.765625,-0.171875
1696245617598,-0.03491211,-0.97247314,0.016052246,1.53125,0.78125,0.625
1696245617640,-0.033935547,-0.96417236,0.0048217773,9.9375,-3.53125,1.015625
1696245617677,-0.007080078,-0.96466064,0.018493652,6.78125,1.8125,1.171875
1696245617719,-0.04321289,-1.0164185,0.020202637,6.84375,2.375,2.84375
1696245617758,-0.011474609,-0.9727173,-0.0012817383,5.015625,0.25,2.21875
1696245617799,-0.041748047,-0.97491455,0.008728027,5.671875,0.015625,2.71875
1696245617837,-0.021728516,-0.99884033,-0.013977051,4.140625,-0.90625,2.015625
1696245617879,-0.02734375,-0.9631958,-0.04156494,2.296875,-6.90625,1.203125
1696245617920,-0.02319336,-1.0015259,-0.015930176,3.625,-2.6875,1.3125
1696245617936,-0.033935547,-1.003479,-0.042053223,-0.03125,-3.546875,1.109375
1696245617999,-0.023925781,-0.9702759,-0.027160645,-0.59375,-6.265625,0.234375
1696245618017,-0.016845703,-0.99005127,-3.0517578E-4,-0.640625,-4.96875,0.421875
1696245618058,-0.021484375,-1.0010376,-0.026916504,-1.703125,-3.90625,0.03125
1696245618099,-0.017578125,-0.9963989,-0.014221191,-2.421875,-4.859375,-0.59375
1696245618160,-0.0075683594,-0.9890747,0.0040893555,-2.203125,-2.5,-1.03125
1696245618199,2.4414062E-4,-0.99835205,-0.0015258789,-0.78125,-1.140625,-0.015625
1696245618217,-0.03173828,-1.0039673,0.019714355,-0.25,1.875,-0.515625
1696245618258,-0.030029297,-1.029602,0.005554199,-0.078125,2.671875,-0.0625
1696245618321,-0.017822266,-0.9846802,0.007751465,-1.0625,1.96875,-0.703125
1696245618337,-0.0056152344,-1.00177,0.007507324,-5.859375,3.671875,0.109375
1696245618377,-0.048339844,-0.9924927,9.1552734E-4,-7.875,3.28125,-1.203125
1696245618420,-0.032958984,-0.9859009,0.009216309,-6.5,2.296875,-1.6875
1696245618461,-0.02709961,-0.99542236,0.024108887,-2.71875,2.765625,-0.671875
1696245618521,-0.03955078,-0.9849243,0.0065307617,-3.796875,0.59375,-0.578125
1696245618537,-0.030273438,-0.98272705,0.026062012,-2.375,1.03125,-0.296875
1696245618579,-0.038085938,-0.9859009,0.029968262,-1.140625,0.625,-0.03125
1696245618622,-0.045898438,-0.98638916,0.050720215,-0.03125,1.03125,0.4375
1696245618677,-0.04345703,-0.9714966,0.020202637,-0.640625,1.96875,0.0
1696245618698,-0.015625,-0.98443604,0.00970459,1.171875,2.671875,0.53125
1696245618739,-0.036376953,-0.9771118,0.043395996,0.34375,1.0625,-0.03125
1696245618779,-0.040039062,-0.99420166,0.034362793,1.890625,0.515625,0.71875
1696245618819,-0.041992188,-0.96173096,0.017028809,1.875,0.453125,0.125
1696245618860,-0.037841797,-0.9673462,0.0053100586,4.59375,-1.328125,0.3125
1696245618899,-0.016601562,-0.96173096,-0.011047363,5.984375,-0.09375,0.953125
1696245618943,-0.020996094,-0.98394775,-0.002746582,5.421875,-0.40625,0.8125
1696245618998,-0.03564453,-0.95440674,-0.014953613,1.6875,-4.390625,0.1875
1696245619017,-0.030517578,-0.96466064,0.011169434,-0.34375,-6.015625,-0.796875
1696245619059,-0.035888672,-1.0239868,0.017028809,-0.390625,-5.34375,0.625
1696245619119,-0.032714844,-0.9829712,-0.01763916,-3.375,-8.5,-0.203125
1696245619139,-0.03125,-0.97735596,-0.028869629,-4.484375,-9.15625,-1.8125
1696245619161,-0.02319336,-0.9961548,0.008728027,-3.796875,-7.296875,-1.4375
1696245619198,-0.033447266,-1.0125122,0.0033569336,-1.46875,-7.046875,-0.953125
1696245619249,0.0029296875,-0.9763794,0.018737793,-2.234375,-4.6875,-0.921875
1696245619279,-0.084228516,-1.0147095,0.024597168,1.8125,-4.703125,1.0
1696245619318,-0.013427734,-0.9990845,0.027770996,0.71875,-2.859375,0.234375
1696245619359,-0.049804688,-0.9841919,0.022644043,1.546875,-2.484375,1.546875
1696245619399,-0.032958984,-0.986145,0.023864746,1.796875,-1.640625,1.046875
1696245619441,-0.01953125,-1.0003052,0.026550293,0.65625,-1.078125,1.40625
1696245619478,-0.03149414,-0.9951782,0.035827637,1.3125,0.15625,1.234375
1696245619518,-0.03173828,-1.0120239,0.034851074,1.609375,2.296875,1.265625
1696245619557,-0.033935547,-0.9883423,0.027282715,1.546875,1.265625,0.75
1696245619599,-0.015380859,-0.98028564,0.007751465,-2.46875,2.40625,0.375
1696245619639,-0.033935547,-1.00177,0.010681152,-5.515625,1.09375,-0.890625
1696245619680,-0.03881836,-1.006897,0.02557373,-4.015625,2.453125,-1.421875
1696245619719,-0.02319336,-0.991272,0.039245605,-0.46875,4.078125,-0.390625
1696245619759,-0.030029297,-0.9795532,0.0060424805,-2.0,5.46875,-0.921875
1696245619798,-0.04736328,-0.98223877,0.030456543,1.328125,3.625,0.171875
1696245619838,-0.046875,-0.9963989,0.026062012,1.5625,3.609375,0.625
1696245619880,-0.028808594,-0.98101807,0.014587402,-0.671875,3.609375,0.109375
1696245619923,-0.040527344,-0.98223877,0.025817871,-0.25,2.390625,0.34375
1696245619959,-0.032226562,-0.9939575,0.02166748,-0.921875,2.03125,0.25
1696245619998,-0.049072266,-0.98760986,0.0289917,-0.765625,1.15625,0.671875
1696245620040,-0.048095703,-0.99346924,0.045837402,-0.359375,0.3125,-0.015625
1696245620079,-0.034423828,-0.98321533,0.006286621,0.796875,1.703125,-1.140625
1696245620118,-0.02758789,-0.95880127,0.01776123,2.0,0.078125,-0.328125
1696245620158,-0.03955078,-0.960022,0.014343262,1.796875,-2.8125,0.8125
1696245620200,-0.018066406,-0.9812622,-0.0010375977,8.3125,-1.953125,1.078125
1696245620239,-0.021728516,-0.97784424,0.013122559,6.796875,-1.984375,0.609375
1696245620279,-0.021972656,-0.96051025,-0.051330566,1.671875,-2.640625,0.296875
1696245620320,-0.052001953,-0.9561157,6.713867E-4,-1.265625,-10.453125,-0.609375
1696245620360,-0.03857422,-0.9920044,0.014099121,-3.890625,-8.9375,-0.484375
1696245620400,-0.032714844,-1.0144653,0.012878418,-3.515625,-8.9375,-1.390625
1696245620440,-0.03881836,-0.9990845,0.032409668,-2.375,-9.296875,-0.546875
1696245620479,-0.033203125,-0.98443604,-0.0068969727,-0.625,-6.109375,-0.609375
1696245620497,-0.03564453,-0.9981079,0.017028809,1.0,-2.9375,0.03125
1696245620562,-0.03125,-0.9866333,0.007019043,1.359375,-2.046875,0.359375
1696245620577,-0.03173828,-1.0044556,0.015808105,1.296875,-0.65625,0.953125
1696245620619,-0.03149414,-0.98272705,0.019714355,0.59375,-1.4375,0.703125
1696245620660,-0.03881836,-0.9998169,0.015319824,0.15625,1.0625,1.0625
1696245620699,-0.039794922,-0.99664307,0.029968262,0.84375,0.34375,0.484375
1696245620760,-0.028564453,-1.000061,0.034118652,1.015625,6.671875,1.0
1696245620779,-0.03564453,-1.0120239,0.038513184,3.453125,5.296875,1.859375
1696245620818,-0.02368164,-0.97198486,0.005065918,-1.40625,5.21875,1.171875
1696245620861,-0.049072266,-1.0010376,0.012145996,-3.4375,4.71875,0.96875
1696245620898,-0.03125,-0.99786377,-0.0012817383,-6.046875,6.296875,-0.515625
1696245620960,-0.024658203,-0.99468994,0.01361084,-3.484375,5.15625,-1.046875
1696245620978,-0.033203125,-0.9846802,0.019470215,-1.703125,4.484375,-0.703125
1696245621018,-0.045654297,-0.97784424,0.012878418,-1.765625,4.265625,0.0
1696245621058,-0.026611328,-0.98101807,0.023376465,-1.140625,4.234375,0.40625
1696245621098,-0.032470703,-0.9932251,0.015808105,-1.546875,2.0,1.1875
1696245621140,-0.03515625,-0.9883423,0.028503418,-0.5625,0.515625,1.1875
1696245621182,-0.029052734,-0.9873657,0.023620605,-1.4375,0.546875,0.921875
1696245621218,-0.043945312,-0.99420166,0.041931152,-0.6875,-0.4375,1.359375
1696245621279,-0.037597656,-0.97491455,0.03265381,-0.65625,-0.4375,0.59375
1696245621298,-0.015625,-0.9780884,-0.0056762695,0.265625,-0.546875,0.625
1696245621359,-0.049072266,-0.9612427,0.035827637,2.4375,-2.640625,1.359375
1696245621378,-0.020507812,-0.9651489,0.0021362305,7.5,-1.78125,1.34375
1696245621419,-0.0126953125,-0.97125244,0.0014038086,7.421875,0.140625,1.40625
1696245621458,-0.010253906,-0.96881104,0.015075684,5.8125,0.15625,1.171875
1696245621498,-0.026123047,-1.0007935,0.0138549805,5.9375,0.671875,1.828125
1696245621538,-0.009765625,-0.9788208,-0.0068969727,1.53125,-2.203125,0.734375
1696245621580,-0.043945312,-0.96539307,-0.020568848,-0.21875,-6.15625,0.09375
1696245621618,-0.017333984,-0.9631958,-0.014953613,-5.875,-11.34375,-1.828125
1696245621662,-0.016113281,-1.0188599,0.00970459,-4.953125,-9.09375,-1.890625
1696245621699,-0.017333984,-1.0193481,0.022399902,-5.328125,-9.3125,-0.828125
1696245621739,-0.040283203,-0.9951782,0.021911621,-1.1875,-8.125,0.5625
1696245621799,-0.017578125,-0.97613525,0.004333496,-0.1875,-4.578125,0.5
1696245621817,-0.032470703,-0.99664307,0.014099121,1.671875,-3.796875,2.296875
1696245621838,-0.021972656,-0.989563,-0.00592041,0.484375,-3.15625,0.421875
1696245621880,-0.03149414,-0.9993286,0.041931152,1.875,-1.59375,1.0625
1696245621919,-0.027832031,-1.0049438,0.025817871,1.296875,-0.453125,0.890625
1696245621961,-0.024902344,-0.9883423,0.022155762,1.296875,2.390625,0.375
1696245621998,-0.005859375,-1.0425415,0.019714355,3.078125,6.59375,1.59375
1696245622039,-0.030761719,-1.0083618,0.02508545,4.84375,5.125,1.4375
1696245622081,-0.0075683594,-0.9800415,0.01727295,-1.5,3.5,0.0
1696245622123,-0.049072266,-0.9976196,-0.0015258789,-6.578125,5.59375,-0.171875
1696245622159,-0.030761719,-1.0164185,0.003112793,-5.859375,6.46875,-1.890625
1696245622198,0.028808594,-0.98443604,0.010437012,-4.1875,3.703125,-2.640625
1696245622239,-0.020996094,-0.9727173,0.016540527,-3.484375,2.359375,-0.984375
1696245622279,-0.061279297,-0.9729614,0.02508545,-4.734375,3.46875,-0.71875
1696245622320,-0.022216797,-0.99224854,0.0099487305,-0.234375,3.484375,-0.390625
1696245622361,0.015136719,-0.9627075,0.02166748,0.015625,1.59375,0.71875
1696245622397,-0.034179688,-1.0005493,0.030212402,1.625,0.0625,2.15625
1696245622438,-0.026855469,-0.98272705,0.026062012,-2.46875,0.21875,-0.25
1696245622478,-0.030273438,-0.9915161,0.030700684,-4.203125,-0.03125,0.53125
1696245622519,-0.025878906,-0.99298096,0.025817871,-0.78125,0.328125,1.015625
1696245622558,-0.03100586,-0.9846802,0.02142334,0.453125,-0.78125,0.265625
1696245622601,-0.01586914,-0.96343994,0.012878418,3.640625,-1.71875,1.234375
1696245622638,-0.021972656,-0.9458618,0.008483887,6.953125,-2.0,2.34375
1696245622678,-0.008056641,-0.973938,-0.004699707,8.15625,0.09375,1.546875
1696245622719,-0.010498047,-0.9939575,0.0065307617,7.171875,-0.140625,1.78125
1696245622759,-0.02368164,-0.9656372,-0.0025024414,4.34375,-1.625,0.96875
1696245622800,-0.027832031,-0.93414307,-0.02154541,-5.71875,-6.65625,-1.984375
1696245622838,-0.021972656,-1.0205688,0.023620605,-6.5,-7.203125,-1.921875
1696245622881,0.001953125,-1.013977,0.015075684,-7.46875,-10.984375,-2.1875
1696245622918,-0.022705078,-1.0254517,0.028015137,-3.453125,-8.609375,-0.078125
1696245622960,-0.026123047,-0.99468994,0.036315918,-1.734375,-6.640625,0.5
1696245622998,-0.014404297,-0.9924927,0.03314209,-1.625,-4.453125,0.3125
1696245623037,-0.018554688,-0.9883423,0.030212402,-0.953125,-3.59375,0.859375
1696245623102,-0.016357422,-1.0042114,0.047790527,-1.0,-2.53125,0.890625
1696245623117,-0.02709961,-0.99420166,0.0602417,0.5625,-0.34375,1.109375
1696245623138,-0.024902344,-1.0276489,0.06829834,2.375,5.5,1.875
1696245623179,-0.036621094,-1.010315,0.039978027,1.59375,3.125,1.609375
1696245623220,0.0043945312,-0.9661255,0.054382324,1.9375,4.171875,0.328125
1696245623259,-0.029541016,-1.0005493,0.038513184,-3.109375,1.359375,1.03125
1696245623298,-0.017578125,-0.9854126,0.024353027,-4.9375,3.390625,-0.703125
1696245623341,0.00390625,-0.98272705,0.026306152,-3.78125,3.28125,-0.78125
1696245623379,-0.025878906,-0.972229,0.03704834,-3.75,2.34375,-0.953125
1696245623421,-0.0390625,-1.0090942,0.06854248,-0.296875,2.484375,0.34375
1696245623481,-0.0146484375,-0.97735596,0.030456543,-2.65625,2.265625,-1.015625
1696245623502,-0.014160156,-0.960022,0.04119873,-0.234375,1.484375,0.25
