# Sensor type: Respeck
# Activity type: Shuffle walking
# Activity subtype: Normal
# Subject id: s2104454
# Notes: unprocessed
timestamp,accel_x,accel_y,accel_z,gyro_x,gyro_y,gyro_z
1696243114519,0.12402344,-1.1172485,-0.24957275,-4.015625,4.46875,3.234375
1696243114559,0.42919922,-0.71710205,-0.36187744,6.90625,11.796875,-3.234375
1696243114600,0.53100586,-0.6687622,-0.32037354,7.109375,10.53125,7.484375
1696243114639,0.49267578,-0.862854,-0.25445557,0.8125,-1.890625,2.765625
1696243114679,0.44213867,-0.96099854,-0.20684814,-3.6875,-8.265625,-3.046875
1696243114719,0.31298828,-0.89923096,-0.1885376,-6.125,-0.65625,-1.578125
1696243114759,0.31811523,-0.83551025,-0.26885986,-6.5,1.21875,-5.03125
1696243114800,0.45288086,-0.8567505,-0.2654419,-5.546875,0.0625,-0.671875
1696243114839,0.39160156,-0.9319458,-0.22442627,-5.265625,-0.59375,0.40625
1696243114879,0.34399414,-0.89678955,-0.20709229,-2.71875,-0.640625,-1.84375
1696243114899,0.3605957,-0.8464966,-0.18170166,-4.53125,-2.359375,-0.28125
1696243114940,0.32885742,-0.9011841,-0.18634033,-7.546875,-3.34375,-1.890625
1696243114979,0.33935547,-0.90338135,-0.1519165,-4.359375,-2.234375,-0.78125
1696243115020,0.35595703,-0.892395,-0.1663208,-5.75,-5.609375,-0.96875
1696243115081,0.3388672,-0.9319458,-0.16485596,-7.109375,-7.703125,-1.515625
1696243115099,0.31689453,-0.8960571,-0.11798096,-2.53125,-4.203125,-0.4375
1696243115161,0.33447266,-0.8496704,-0.11260986,-5.140625,-2.0,-0.953125
1696243115180,0.30664062,-0.85943604,-0.09576416,-2.0,-4.53125,-0.71875
1696243115243,0.30908203,-0.87457275,-0.12628174,-2.171875,-2.59375,-1.40625
1696243115259,0.33666992,-0.87213135,-0.08062744,0.90625,2.328125,0.0625
1696243115300,0.23779297,-0.83013916,-0.09307861,3.015625,4.78125,-1.46875
1696243115344,0.23779297,-0.80596924,-0.14703369,5.359375,8.921875,-2.84375
1696243115404,0.33276367,-0.90631104,-0.13458252,0.578125,11.28125,1.515625
1696243115420,0.24121094,-0.9783325,-0.26641846,1.40625,5.203125,-0.609375
1696243115462,0.4724121,-0.94488525,-0.3057251,14.1875,1.03125,4.4375
1696243115501,0.44970703,-0.881897,-0.22198486,19.609375,5.859375,19.171875
1696243115542,0.30444336,-0.79693604,-0.16973877,9.921875,-2.328125,2.203125
1696243115579,0.29907227,-0.93048096,-0.21954346,-3.640625,-2.890625,-0.71875
1696243115622,0.39526367,-0.94854736,-0.25128174,-2.15625,-0.984375,-2.46875
1696243115662,0.3774414,-0.9290161,-0.253479,0.5625,1.609375,-1.75
1696243115700,0.30786133,-0.88287354,-0.22613525,4.453125,-1.609375,-3.6875
1696243115740,0.33984375,-0.88360596,-0.20977783,0.453125,1.0,-4.3125
1696243115803,0.31420898,-0.89434814,-0.17901611,0.859375,-2.046875,-3.9375
1696243115819,0.25805664,-0.9085083,-0.20880127,-2.453125,-1.359375,-6.109375
1696243115860,0.2529297,-0.9182739,-0.20611572,-4.390625,1.046875,-7.890625
1696243115923,0.25146484,-0.9507446,-0.1638794,-4.890625,4.734375,-7.484375
1696243115960,0.23071289,-0.9163208,-0.27008057,-4.59375,-0.59375,-10.796875
1696243115999,0.22143555,-0.87872314,-0.28448486,-4.5,1.96875,-7.90625
1696243116020,0.20263672,-0.93292236,-0.23638916,-3.265625,1.1875,-8.625
1696243116060,0.21191406,-0.9414673,-0.21221924,-1.078125,3.46875,-4.90625
1696243116121,0.22241211,-0.925354,-0.2144165,-1.859375,3.0625,-3.9375
1696243116139,0.18945312,-0.9216919,-0.22540283,-2.578125,3.6875,-2.421875
1696243116199,0.18969727,-0.9246216,-0.22564697,-3.359375,7.21875,-0.546875
1696243116221,0.16503906,-0.92559814,-0.22125244,-1.3125,4.984375,-0.515625
1696243116243,0.15161133,-0.92266846,-0.24176025,-1.015625,4.296875,0.5625
1696243116281,0.19897461,-0.92510986,-0.20147705,-1.015625,5.0,3.0
1696243116321,0.14892578,-0.9175415,-0.24737549,-0.6875,-2.34375,4.828125
1696243116359,0.18481445,-0.8897095,-0.22027588,-5.703125,-5.28125,5.078125
1696243116399,0.22558594,-0.9055786,-0.23272705,-2.921875,-21.09375,7.84375
1696243116440,0.32958984,-0.881897,-0.25909424,-6.65625,-32.390625,6.65625
1696243116483,0.3515625,-0.9585571,-0.10650635,7.78125,-24.09375,9.734375
1696243116520,0.2109375,-1.0401001,0.073913574,13.78125,-4.296875,15.28125
1696243116560,0.1550293,-0.9871216,-0.21124268,-7.3125,-6.03125,11.265625
1696243116599,0.2722168,-0.82354736,-0.31427002,-4.53125,-0.484375,-4.078125
1696243116641,0.4309082,-0.70440674,-0.32989502,14.203125,6.5,6.46875
1696243116682,0.36743164,-0.8713989,-0.16558838,11.8125,4.890625,13.203125
1696243116720,0.38183594,-1.0505981,-0.16192627,-1.3125,-1.484375,0.8125
1696243116760,0.3828125,-0.8584595,-0.20513916,-5.25,0.484375,0.4375
1696243116800,0.34985352,-0.8521118,-0.17364502,-4.1875,-1.453125,2.984375
1696243116847,0.31884766,-0.9483032,-0.17755127,-3.890625,3.75,2.59375
1696243116879,0.40063477,-0.878479,-0.14215088,2.734375,8.125,0.96875
1696243116919,0.4020996,-0.8862915,-0.1716919,3.4375,5.234375,4.734375
1696243116960,0.41870117,-0.8753052,-0.13995361,-1.0,8.21875,2.609375
1696243117001,0.41552734,-0.88726807,-0.27178955,-0.421875,-0.234375,2.265625
1696243117039,0.45825195,-0.81866455,-0.20050049,5.265625,-1.96875,1.515625
1696243117080,0.33642578,-0.87872314,-0.19415283,2.984375,-4.09375,1.40625
1696243117123,0.38793945,-0.8357544,-0.20050049,3.375,-4.859375,-1.65625
1696243117162,0.3659668,-0.86846924,-0.19976807,3.96875,-5.234375,1.09375
1696243117201,0.36083984,-0.8604126,-0.18878174,6.78125,-7.28125,-0.953125
1696243117241,0.39916992,-0.8772583,-0.15167236,6.96875,-6.28125,0.53125
1696243117280,0.41064453,-0.8740845,-0.19561768,4.671875,-9.125,-0.078125
1696243117319,0.35620117,-0.8574829,-0.12017822,5.828125,-5.8125,-0.484375
1696243117359,0.23535156,-0.8069458,-0.14801025,4.125,-0.421875,-3.78125
1696243117402,0.3034668,-0.786438,-0.18267822,4.640625,6.109375,-4.203125
1696243117440,0.2854004,-0.8477173,-0.09893799,3.203125,18.765625,-0.375
1696243117483,0.11035156,-0.866272,-0.25811768,-3.65625,27.875,-10.53125
1696243117520,0.4831543,-0.9055786,-0.6170044,8.859375,2.203125,-12.203125
1696243117539,0.6176758,-1.0513306,-0.41607666,17.484375,5.28125,25.4375
1696243117600,0.36254883,-0.87823486,-0.24835205,11.703125,-9.078125,-0.859375
1696243117619,0.3059082,-0.8027954,-0.27764893,-0.03125,-6.15625,-4.46875
1696243117659,0.26489258,-0.8179321,-0.37554932,-6.359375,-3.546875,3.546875
1696243117700,0.35766602,-0.89971924,-0.33062744,-1.421875,5.296875,-5.109375
1696243117740,0.31640625,-0.88726807,-0.33233643,-8.109375,2.78125,-5.5
1696243117780,0.24780273,-0.8753052,-0.2798462,-0.21875,0.59375,-7.859375
1696243117821,0.27441406,-0.8479614,-0.28204346,2.65625,4.78125,-6.8125
1696243117864,0.31054688,-0.7905884,-0.2930298,3.71875,1.78125,-5.703125
1696243117904,0.28808594,-0.8115845,-0.33233643,5.296875,-2.125,-3.59375
1696243117962,0.24682617,-0.835022,-0.30426025,5.984375,0.96875,-2.421875
1696243117980,0.24658203,-0.880188,-0.35943604,4.671875,0.3125,-3.03125
1696243118046,0.29223633,-0.87677,-0.3567505,5.0625,0.15625,-2.109375
1696243118059,0.23071289,-0.89434814,-0.34942627,4.671875,-0.921875,-1.375
1696243118100,0.24389648,-0.911438,-0.3826294,2.609375,-0.015625,-1.828125
1696243118161,0.24291992,-0.8965454,-0.36602783,1.0625,3.015625,-0.5
1696243118180,0.24023438,-0.89727783,-0.37994385,-2.28125,2.125,-3.90625
1696243118246,0.21582031,-0.84381104,-0.39068604,-3.453125,2.546875,-4.703125
1696243118259,0.23657227,-0.86846924,-0.3748169,-4.03125,0.75,-2.578125
1696243118319,0.25097656,-0.8845825,-0.34503174,-5.5625,-1.90625,-0.359375
1696243118339,0.19873047,-0.8989868,-0.33624268,-6.171875,-2.140625,-0.25
1696243118384,0.19018555,-0.8867798,-0.33843994,-6.84375,1.1875,0.03125
1696243118420,0.18823242,-0.8862915,-0.34039307,-4.328125,2.5,2.125
1696243118466,0.22192383,-0.8796997,-0.33673096,-4.421875,2.109375,3.015625
1696243118500,0.22631836,-0.8718872,-0.3731079,-8.953125,1.0625,3.0
1696243118540,0.23779297,-0.8777466,-0.26080322,-4.1875,-4.671875,4.375
1696243118580,0.19067383,-0.927063,-0.30548096,-9.6875,-12.375,5.328125
1696243118642,0.2800293,-0.87213135,-0.28033447,-9.328125,-22.90625,4.421875
1696243118661,0.2927246,-0.81744385,-0.3665161,0.703125,-25.578125,11.421875
1696243118701,0.3864746,-0.86260986,0.047546387,17.5,3.3125,18.53125
1696243118762,0.29467773,-0.9859009,-0.23834229,-3.859375,-11.0625,17.109375
1696243118780,0.2548828,-0.79156494,-0.3665161,-4.765625,-0.734375,2.0625
1696243118842,0.49682617,-0.68878174,-0.37799072,8.03125,4.3125,6.828125
1696243118847,0.44458008,-0.8526001,-0.23297119,6.125,0.640625,14.890625
1696243118882,0.3881836,-1.0327759,-0.18829346,-0.328125,-5.15625,6.171875
1696243118920,0.38549805,-0.9019165,-0.23883057,-5.640625,-0.890625,-1.0625
1696243118960,0.36157227,-0.78790283,-0.28277588,-5.109375,2.0625,1.578125
1696243119002,0.39697266,-0.8272095,-0.27886963,-6.453125,3.015625,2.125
1696243119041,0.42651367,-0.9011841,-0.29156494,-7.390625,4.546875,-0.125
1696243119081,0.47314453,-0.85406494,-0.22491455,-6.34375,8.0,3.484375
1696243119121,0.4736328,-0.847229,-0.2131958,-6.53125,3.1875,2.5
1696243119160,0.43945312,-0.8711548,-0.17681885,-4.9375,0.953125,1.9375
1696243119200,0.44189453,-0.8430786,-0.20440674,-5.21875,-0.09375,1.140625
1696243119241,0.4597168,-0.8335571,-0.24615479,-9.765625,-2.71875,0.0
1696243119281,0.36206055,-0.83843994,-0.1807251,-2.75,-1.703125,-1.40625
1696243119321,0.3491211,-0.87701416,-0.19366455,-3.03125,0.765625,-2.296875
1696243119362,0.39770508,-0.84454346,-0.1831665,-3.5,1.453125,-3.390625
1696243119400,0.3869629,-0.8648071,-0.1716919,-4.234375,-0.71875,-4.15625
1696243119440,0.37451172,-0.85113525,-0.15582275,-3.46875,-1.5625,-3.6875
1696243119479,0.38208008,-0.8464966,-0.14141846,-0.734375,-2.046875,-3.5
1696243119519,0.38208008,-0.83721924,-0.16070557,-1.34375,-1.90625,-3.328125
1696243119560,0.38452148,-0.8521118,-0.12554932,1.984375,-1.34375,-2.234375
1696243119602,0.3251953,-0.8418579,-0.14190674,4.671875,-1.546875,-1.828125
1696243119640,0.32104492,-0.80426025,-0.15435791,6.78125,1.296875,-2.125
1696243119679,0.32739258,-0.83795166,-0.13238525,8.96875,5.5625,-3.3125
1696243119719,0.27807617,-0.84210205,-0.14727783,10.28125,10.5625,-5.421875
1696243119760,0.25170898,-0.8311157,-0.25079346,8.59375,15.34375,-6.78125
1696243119801,0.33911133,-0.9368286,-0.43902588,7.5,-2.984375,-9.671875
1696243119840,0.61743164,-1.0112915,-0.34942627,14.765625,-1.71875,10.84375
1696243119879,0.2956543,-0.9204712,-0.25860596,24.078125,-0.71875,9.140625
1696243119919,0.31811523,-0.7529907,-0.286438,20.296875,-7.9375,-6.5
1696243119961,0.41210938,-0.83599854,-0.35308838,2.90625,-14.15625,0.515625
1696243120000,0.35888672,-0.9336548,-0.3399048,0.203125,-9.109375,-2.359375
1696243120040,0.30493164,-0.9209595,-0.41778564,-5.6875,-2.265625,-6.71875
1696243120102,0.35302734,-0.8118286,-0.3213501,5.125,-2.546875,-4.78125
1696243120121,0.36645508,-0.83966064,-0.31158447,3.921875,-7.203125,-1.140625
1696243120140,0.3659668,-0.85040283,-0.28863525,0.75,-9.671875,-2.375
1696243120180,0.28881836,-0.87286377,-0.24102783,-3.0,-6.3125,-1.359375
1696243120222,0.24975586,-0.85479736,-0.2637329,-1.65625,-4.46875,-4.984375
1696243120260,0.30029297,-0.8272095,-0.23809814,-0.8125,2.09375,-3.390625
1696243120301,0.26049805,-0.87384033,-0.25494385,-2.1875,3.640625,-4.71875
1696243120342,0.28564453,-0.89923096,-0.3027954,-0.3125,4.703125,-5.75
1696243120380,0.28735352,-0.8723755,-0.31427002,1.6875,8.125,-4.875
1696243120419,0.25756836,-0.85821533,-0.33966064,1.90625,7.40625,-7.953125
1696243120460,0.27612305,-0.8855591,-0.3682251,0.796875,4.546875,-4.734375
1696243120500,0.23583984,-0.87335205,-0.34332275,1.46875,6.09375,-4.640625
1696243120540,0.20874023,-0.8652954,-0.35699463,1.3125,5.96875,-5.4375
1696243120585,0.22485352,-0.8911743,-0.38287354,-1.25,10.46875,-2.265625
1696243120623,0.2866211,-0.8726196,-0.38238525,-0.109375,8.515625,-3.140625
1696243120660,0.26245117,-0.8555298,-0.3496704,1.0625,1.921875,-0.828125
1696243120699,0.24804688,-0.8772583,-0.33135986,0.65625,-3.453125,-0.5
1696243120739,0.19165039,-0.87286377,-0.3274536,0.625,-6.078125,0.375
1696243120780,0.16259766,-0.87677,-0.31011963,-1.265625,-0.015625,0.015625
1696243120822,0.18603516,-0.8753052,-0.41851807,-7.40625,1.234375,0.859375
1696243120861,0.21020508,-0.8189087,-0.3526001,-1.453125,-0.5625,1.0
1696243120902,0.18334961,-0.88482666,-0.3423462,-2.078125,-4.25,2.0625
1696243120943,0.20776367,-0.8960571,-0.33087158,-6.125,-6.046875,1.9375
1696243120981,0.2019043,-0.8916626,-0.3250122,-7.0,-10.984375,3.03125
1696243121024,0.2368164,-0.86968994,-0.2979126,-6.859375,-16.265625,6.234375
1696243121062,0.28515625,-0.8735962,-0.29888916,-7.5,-26.6875,10.203125
1696243121101,0.32617188,-0.94732666,-0.41241455,-8.390625,-27.921875,12.84375
1696243121140,0.47680664,-0.9446411,0.11541748,10.0625,4.265625,23.9375
1696243121183,0.18920898,-0.96539307,-0.2456665,-5.171875,-13.875,13.125
1696243121221,0.22436523,-0.68927,-0.37335205,-6.53125,3.390625,0.75
1696243121261,0.5168457,-0.6748657,-0.34283447,5.03125,10.046875,10.125
1696243121300,0.42919922,-0.89678955,-0.2720337,2.953125,4.484375,9.453125
1696243121341,0.42456055,-0.97198486,-0.21832275,1.765625,5.578125,3.1875
1696243121383,0.40161133,-0.8389282,-0.25054932,-3.671875,5.28125,-2.6875
1696243121423,0.38452148,-0.79815674,-0.27838135,-5.09375,3.515625,2.953125
1696243121459,0.40771484,-0.85943604,-0.2637329,-5.78125,2.78125,3.171875
1696243121481,0.4111328,-0.9121704,-0.22930908,-4.0,7.390625,1.828125
1696243121522,0.41064453,-0.8411255,-0.24078369,-5.84375,5.390625,1.203125
1696243121559,0.40942383,-0.83721924,-0.23931885,-7.421875,4.453125,3.46875
1696243121601,0.3881836,-0.8394165,-0.29571533,-5.28125,-2.984375,1.171875
1696243121641,0.4807129,-0.8496704,-0.2234497,-1.34375,-0.9375,2.640625
1696243121683,0.45361328,-0.8960571,-0.22320557,1.625,-2.96875,7.640625
1696243121720,0.44726562,-0.8648071,-0.27764893,-3.8125,-3.625,2.265625
1696243121785,0.5168457,-0.78448486,-0.2432251,1.734375,-4.1875,3.484375
1696243121799,0.46044922,-0.83184814,-0.20953369,0.078125,-5.96875,3.578125
1696243121840,0.375,-0.8599243,-0.21929932,-4.140625,-7.671875,-1.1875
1696243121902,0.4177246,-0.8389282,-0.21295166,-3.59375,-2.78125,-1.625
1696243121941,0.41259766,-0.8311157,-0.17730713,0.125,-3.4375,-1.65625
1696243121961,0.43652344,-0.8677368,-0.17877197,-0.75,-6.046875,-3.03125
1696243122020,0.43798828,-0.8574829,-0.1519165,-0.484375,-7.875,-2.28125
1696243122044,0.42456055,-0.8377075,-0.12799072,-0.828125,-6.5625,-0.484375
1696243122082,0.40454102,-0.8386841,-0.12286377,0.21875,-5.765625,-2.0625
1696243122121,0.37060547,-0.833313,-0.13214111,0.96875,-3.1875,-2.4375
1696243122161,0.38085938,-0.81500244,-0.09429932,3.890625,3.625,-2.328125
1696243122201,0.30688477,-0.784729,-0.07208252,6.125,11.109375,-2.59375
1696243122241,0.25390625,-0.7595825,-0.105529785,3.984375,19.90625,-5.9375
1696243122281,0.2590332,-0.9175415,-0.3887329,-4.71875,17.890625,-11.71875
1696243122321,0.61083984,-1.022522,-0.4331665,-4.59375,-4.0,-11.046875
1696243122382,0.43286133,-0.96173096,-0.26104736,14.515625,12.96875,11.609375
1696243122421,0.28271484,-0.7283325,-0.23516846,23.265625,5.8125,-4.1875
1696243122439,0.39526367,-0.7803345,-0.23809814,10.859375,-0.203125,-0.671875
1696243122480,0.4506836,-0.8640747,-0.29156494,-4.296875,-10.03125,-0.640625
1696243122540,0.38427734,-0.97052,-0.29571533,-4.296875,-3.3125,-5.375
1696243122559,0.3203125,-0.8753052,-0.28985596,3.8125,-0.25,-5.171875
1696243122599,0.31958008,-0.86798096,-0.3032837,3.671875,-2.859375,-6.046875
1696243122640,0.3557129,-0.87506104,-0.2756958,3.3125,-4.09375,-5.171875
1696243122680,0.34472656,-0.8740845,-0.26812744,0.421875,-3.5,-6.6875
1696243122722,0.2932129,-0.895813,-0.2564087,-3.28125,-3.796875,-8.234375
1696243122782,0.25341797,-0.8977661,-0.2695923,-5.3125,-1.21875,-9.1875
1696243122787,0.22973633,-0.87628174,-0.28277588,-4.578125,0.953125,-10.09375
1696243122820,0.2163086,-0.87335205,-0.30499268,-4.0625,2.109375,-9.625
1696243122861,0.23144531,-0.87750244,-0.28692627,-2.25,3.46875,-8.8125
1696243122901,0.23999023,-0.88116455,-0.3477173,-0.671875,3.546875,-5.1875
1696243122940,0.22583008,-0.91192627,-0.36138916,-1.515625,2.375,-5.1875
1696243122982,0.1875,-0.9019165,-0.3008423,1.96875,2.953125,-4.5625
1696243123020,0.22631836,-0.90509033,-0.3201294,-3.9375,5.09375,-4.203125
1696243123059,0.20214844,-0.8904419,-0.25323486,1.296875,0.484375,-2.9375
1696243123103,0.17944336,-0.9170532,-0.29693604,-0.890625,-2.921875,-3.09375
1696243123141,0.1862793,-0.8814087,-0.2769165,-1.359375,-1.765625,-0.671875
1696243123182,0.12573242,-0.8862915,-0.30426025,-1.359375,-0.6875,-0.1875
1696243123222,0.16723633,-0.87750244,-0.3135376,-0.53125,0.25,1.171875
1696243123262,0.20288086,-0.850647,-0.30645752,1.40625,-1.53125,4.25
1696243123301,0.17700195,-0.87823486,-0.2925415,1.40625,-8.453125,4.75
1696243123340,0.14526367,-0.90411377,-0.31817627,0.46875,-10.84375,7.109375
1696243123381,0.24438477,-0.91656494,-0.30548096,-0.6875,-15.296875,8.296875
1696243123421,0.26098633,-0.928772,-0.34014893,-0.828125,-21.5625,9.875
1696243123460,0.28979492,-1.046936,-0.13555908,-2.0,-3.90625,11.953125
1696243123500,0.26464844,-0.9920044,-0.08477783,6.015625,-1.5,15.265625
1696243123542,0.13256836,-0.90802,-0.28546143,-2.328125,-1.390625,2.96875
1696243123583,0.35473633,-0.6716919,-0.38653564,5.71875,4.9375,2.828125
1696243123620,0.4284668,-0.73028564,-0.30621338,7.984375,4.484375,12.890625
1696243123663,0.32080078,-0.9163208,-0.25079346,12.328125,3.203125,14.359375
1696243123700,0.35913086,-0.90045166,-0.33966064,1.984375,4.625,4.5
1696243123739,0.45507812,-0.82891846,-0.3340454,3.265625,4.25,9.203125
1696243123778,0.39257812,-0.8230591,-0.2949829,1.28125,1.59375,8.25
1696243123818,0.32714844,-0.8430786,-0.29473877,-3.359375,4.1875,3.953125
1696243123859,0.4338379,-0.8657837,-0.31280518,-3.21875,7.453125,3.109375
1696243123898,0.49853516,-0.9194946,-0.27960205,-5.25,5.796875,2.875
1696243123938,0.43774414,-0.8442993,-0.31256104,-7.8125,-0.78125,0.25
1696243123978,0.4794922,-0.83184814,-0.28985596,-4.28125,-2.875,1.9375
1696243124018,0.4567871,-0.8513794,-0.25177002,-6.203125,-5.5,1.234375
1696243124058,0.42871094,-0.84088135,-0.23150635,-7.3125,-6.234375,-0.921875
1696243124098,0.37353516,-0.83673096,-0.24664307,-11.09375,-7.75,-2.984375
1696243124118,0.32421875,-0.84161377,-0.23150635,-10.28125,-3.296875,-6.421875
1696243124158,0.35961914,-0.8699341,-0.23101807,-8.515625,-0.203125,-3.875
1696243124199,0.42163086,-0.8616333,-0.19366455,-6.703125,-1.28125,-2.9375
1696243124239,0.40063477,-0.84259033,-0.17071533,-4.96875,-3.703125,-1.921875
1696243124279,0.37963867,-0.8621216,-0.14801025,-2.90625,-3.0,-1.859375
1696243124319,0.35131836,-0.84503174,-0.124572754,-2.84375,-3.421875,-2.921875
1696243124358,0.3828125,-0.84039307,-0.12994385,-6.203125,0.671875,-2.078125
1696243124399,0.29370117,-0.83013916,-0.07305908,1.703125,3.5,-1.359375
1696243124439,0.23706055,-0.82696533,-0.10089111,1.328125,13.671875,-4.6875
1696243124479,0.26000977,-0.82037354,-0.19439697,-1.125,17.65625,-8.8125
1696243124519,0.3244629,-0.91119385,-0.30426025,-5.4375,16.734375,-7.734375
1696243124580,0.47875977,-0.942688,-0.3640747,2.6875,-4.359375,-4.140625
1696243124598,0.51416016,-0.88897705,-0.26617432,23.40625,5.296875,19.296875
1696243124638,0.27294922,-0.74835205,-0.16192627,21.0,0.234375,6.359375
1696243124679,0.3017578,-0.89678955,-0.17388916,-0.09375,-8.546875,0.6875
1696243124718,0.35913086,-0.98516846,-0.2715454,-9.234375,-8.390625,1.171875
1696243124759,0.36938477,-0.9627075,-0.31695557,-0.796875,3.15625,-1.96875
1696243124825,0.3334961,-0.82525635,-0.26617432,6.328125,1.875,-3.03125
1696243124839,0.35742188,-0.8777466,-0.25543213,3.65625,-4.5,-1.390625
1696243124880,0.4033203,-0.9002075,-0.22076416,0.84375,-5.078125,-3.796875
1696243124920,0.3413086,-0.88946533,-0.18487549,-0.34375,-6.828125,-4.40625
1696243124962,0.27539062,-0.894104,-0.159729,-0.109375,-4.578125,-4.84375
1696243125001,0.2434082,-0.8726196,-0.21002197,-2.78125,-0.53125,-7.640625
1696243125040,0.2998047,-0.8555298,-0.30230713,-4.578125,2.484375,-5.0625
1696243125080,0.29541016,-0.8279419,-0.26275635,2.640625,2.4375,-3.734375
1696243125119,0.28393555,-0.91192627,-0.29742432,0.1875,1.453125,-2.375
1696243125159,0.2980957,-0.91070557,-0.29058838,0.484375,2.34375,-2.890625
1696243125200,0.25390625,-0.9053345,-0.30108643,2.953125,0.5,-3.625
1696243125262,0.24487305,-0.9146118,-0.30059814,2.46875,0.015625,-3.59375
1696243125279,0.24169922,-0.90631104,-0.32281494,2.09375,2.796875,-3.96875
1696243125342,0.2253418,-0.8452759,-0.32208252,4.078125,6.015625,-3.5
1696243125443,0.28588867,-0.8789673,-0.3430786,3.484375,3.6875,-1.234375
1696243125448,0.30810547,-0.925354,-0.31280518,2.09375,1.40625,-1.515625
1696243125451,0.25585938,-0.9067993,-0.28155518,-0.578125,-1.890625,-2.0
1696243125459,0.21484375,-0.9170532,-0.29180908,-2.828125,-5.078125,-2.765625
1696243125501,0.19360352,-0.89263916,-0.2925415,-2.234375,-1.78125,-2.625
1696243125539,0.21313477,-0.8740845,-0.3098755,-2.640625,-0.546875,-2.40625
1696243125580,0.20019531,-0.91534424,-0.3032837,-3.09375,-0.90625,-2.28125
1696243125621,0.20361328,-0.8989868,-0.2715454,-3.640625,0.28125,-2.03125
1696243125661,0.19311523,-0.89801025,-0.29644775,-9.8125,1.078125,-1.71875
1696243125700,0.18969727,-0.89190674,-0.23614502,-3.4375,-3.453125,0.375
1696243125739,0.1796875,-0.9092407,-0.26275635,-2.546875,-5.71875,2.75
1696243125781,0.21313477,-0.87091064,-0.24761963,-3.78125,-9.171875,3.515625
1696243125821,0.23632812,-0.84942627,-0.2678833,-1.5625,-15.8125,8.640625
1696243125860,0.26879883,-0.8779907,-0.35968018,-3.453125,-20.25,10.296875
1696243125899,0.39697266,-1.0176392,-0.006652832,11.28125,8.265625,19.578125
1696243125943,0.29174805,-0.9800415,-0.15631104,6.609375,-6.84375,15.859375
1696243125978,0.20214844,-0.7930298,-0.33062744,2.140625,-7.921875,1.875
1696243126018,0.4387207,-0.6746216,-0.37139893,10.0625,1.78125,9.390625
1696243126059,0.37573242,-0.9060669,-0.2588501,6.15625,-2.671875,12.328125
1696243126100,0.3100586,-1.0742798,-0.16485596,3.46875,-3.390625,8.296875
1696243126141,0.37280273,-0.866272,-0.24591064,1.25,1.5625,0.421875
1696243126182,0.38842773,-0.7727661,-0.25909424,1.171875,3.078125,3.859375
1696243126219,0.32495117,-0.8574829,-0.27496338,-1.046875,4.625,6.046875
1696243126261,0.36865234,-0.8755493,-0.28204346,0.5,2.53125,2.25
1696243126300,0.43164062,-0.8621216,-0.27764893,-2.359375,5.125,3.46875
1696243126341,0.39672852,-0.85235596,-0.23077393,1.34375,0.828125,5.0625
1696243126381,0.39160156,-0.88067627,-0.25030518,-1.484375,1.28125,3.8125
1696243126422,0.43676758,-0.8533325,-0.23980713,-2.8125,2.53125,4.59375
1696243126460,0.41357422,-0.80181885,-0.24005127,0.21875,6.546875,8.953125
1696243126501,0.4777832,-0.8081665,-0.3164673,-0.84375,-0.40625,7.84375
1696243126562,0.45776367,-0.85162354,-0.2539673,-0.046875,1.65625,4.4375
1696243126580,0.47509766,-0.8101196,-0.25128174,-0.328125,-1.3125,4.125
1696243126620,0.51538086,-0.772522,-0.25665283,-0.15625,-4.6875,3.234375
1696243126660,0.4206543,-0.82110596,-0.25982666,-1.921875,-4.40625,1.671875
1696243126721,0.45410156,-0.87628174,-0.23760986,-0.96875,-2.953125,-0.125
1696243126741,0.41064453,-0.8464966,-0.21270752,-1.9375,-0.6875,-0.34375
1696243126761,0.41992188,-0.80670166,-0.2210083,-1.75,-0.8125,-3.5625
1696243126801,0.46166992,-0.81817627,-0.19610596,-0.8125,-1.3125,-1.0
1696243126841,0.3852539,-0.84503174,-0.16021729,-0.515625,5.453125,-2.3125
1696243126880,0.32592773,-0.8069458,-0.1963501,-0.375,8.203125,-5.171875
1696243126920,0.40649414,-0.7683716,-0.1873169,3.515625,10.5625,-3.515625
1696243126961,0.36376953,-0.82110596,-0.1795044,9.375,14.3125,0.53125
1696243127043,0.25341797,-0.76763916,-0.22686768,4.703125,16.1875,-1.484375
1696243127047,0.33666992,-0.8147583,-0.41119385,3.5625,18.9375,-0.109375
1696243127080,0.5859375,-0.9192505,-0.49957275,7.109375,9.328125,2.71875
1696243127120,0.5031738,-0.9380493,-0.37042236,10.28125,3.15625,11.421875
1696243127162,0.31079102,-0.68292236,-0.2720337,3.890625,0.0625,-0.34375
1696243127202,0.3852539,-0.737854,-0.3423462,1.765625,-1.609375,-2.5625
1696243127242,0.43798828,-0.9158325,-0.427063,1.875,-2.078125,4.265625
1696243127283,0.38671875,-0.9348755,-0.36553955,-2.375,-2.0,-4.671875
1696243127320,0.36450195,-0.79107666,-0.3731079,-4.015625,-5.8125,-8.6875
1696243127362,0.40625,-0.7637329,-0.3591919,-0.6875,-8.25,-4.53125
1696243127402,0.4309082,-0.8213501,-0.32110596,-0.1875,-8.46875,-3.25
1696243127444,0.37158203,-0.8225708,-0.28131104,-0.234375,-8.78125,-3.109375
1696243127501,0.37109375,-0.8242798,-0.28033447,-3.96875,-5.84375,-5.6875
1696243127519,0.33496094,-0.8530884,-0.32574463,-6.484375,-2.4375,-6.609375
1696243127582,0.36401367,-0.81988525,-0.25860596,-0.1875,-1.9375,-5.828125
1696243127598,0.3251953,-0.85406494,-0.2942505,-0.40625,-1.890625,-5.03125
1696243127666,0.3251953,-0.8496704,-0.30181885,-2.546875,0.171875,-8.40625
1696243127682,0.31298828,-0.81036377,-0.33184814,-2.625,-0.25,-8.5625
1696243127721,0.30810547,-0.8374634,-0.3616333,-2.9375,0.109375,-6.09375
1696243127785,0.32128906,-0.8875122,-0.3555298,-2.09375,-2.203125,-5.171875
1696243127798,0.2783203,-0.92022705,-0.31134033,-0.453125,-1.703125,-4.6875
1696243127843,0.2602539,-0.90216064,-0.3352661,0.375,-2.375,-4.5
1696243127880,0.2841797,-0.84820557,-0.30889893,1.625,-0.421875,-4.515625
1696243127921,0.27490234,-0.8442993,-0.3213501,-0.828125,-1.640625,-4.0
1696243127962,0.25634766,-0.8880005,-0.33062744,-1.828125,-3.171875,-4.125
1696243128021,0.24536133,-0.89019775,-0.2883911,-0.078125,-3.0,-4.75
1696243128041,0.23828125,-0.87579346,-0.32061768,-2.359375,-5.234375,-4.09375
1696243128060,0.21948242,-0.8948364,-0.3032837,-2.78125,-2.953125,-1.34375
1696243128104,0.22485352,-0.8965454,-0.32354736,-0.515625,-4.421875,1.03125
1696243128142,0.26831055,-0.8682251,-0.30230713,-1.75,-3.46875,0.546875
1696243128182,0.21875,-0.87628174,-0.29571533,1.0625,-9.3125,2.53125
1696243128220,0.2512207,-0.8694458,-0.3164673,-3.09375,-9.546875,2.53125
1696243128264,0.25634766,-0.9089966,-0.28326416,-4.328125,-15.640625,3.15625
1696243128300,0.25610352,-0.93170166,-0.2539673,-3.9375,-17.6875,5.09375
1696243128340,0.2980957,-0.9138794,-0.28179932,-5.984375,-22.5,5.640625
1696243128382,0.3269043,-0.944397,-0.28668213,-2.015625,-20.546875,8.96875
1696243128419,0.38305664,-0.9180298,0.0119018555,13.96875,1.796875,16.34375
1696243128462,0.26660156,-0.85113525,-0.222229,0.65625,-9.296875,10.234375
1696243128501,0.30200195,-0.7090454,-0.33966064,-0.0625,-2.03125,2.078125
1696243128542,0.4741211,-0.7173462,-0.3040161,9.21875,5.59375,12.78125
1696243128584,0.4182129,-0.85601807,-0.2029419,8.203125,1.21875,15.296875
1696243128621,0.43115234,-0.92071533,-0.21026611,4.09375,2.109375,9.296875
1696243128661,0.3972168,-0.835022,-0.2678833,2.328125,6.921875,6.609375
1696243128701,0.40283203,-0.7764282,-0.2695923,1.109375,9.75,9.015625
1696243128742,0.43676758,-0.8340454,-0.30743408,3.34375,15.421875,5.59375
1696243128781,0.4567871,-0.88067627,-0.3015747,2.515625,12.21875,3.46875
1696243128821,0.47753906,-0.8320923,-0.29327393,1.171875,10.375,4.828125
1696243128861,0.46704102,-0.83013916,-0.30010986,-1.4375,6.765625,3.375
1696243128901,0.4350586,-0.83917236,-0.3135376,-2.359375,7.125,2.21875
1696243128942,0.47509766,-0.8101196,-0.33966064,-3.375,4.421875,1.859375
1696243128982,0.55908203,-0.7695923,-0.33551025,-0.359375,-0.0625,2.828125
1696243129021,0.56225586,-0.78692627,-0.28692627,0.265625,-0.234375,10.140625
1696243129062,0.4260254,-0.8274536,-0.29644775,-4.28125,-0.765625,4.234375
1696243129102,0.46826172,-0.739563,-0.30670166,-2.828125,1.21875,-0.796875
1696243129144,0.609375,-0.71343994,-0.31011963,-1.796875,-3.890625,4.390625
1696243129180,0.47216797,-0.80474854,-0.29400635,-1.359375,-6.203125,3.40625
1696243129222,0.42651367,-0.829895,-0.286438,-3.828125,-1.03125,-0.4375
1696243129281,0.48657227,-0.7901001,-0.27301025,-4.609375,1.328125,-1.0625
1696243129324,0.48486328,-0.78448486,-0.24298096,-5.4375,1.5,-0.328125
1696243129338,0.4362793,-0.788147,-0.23345947,-5.5,2.296875,-1.671875
1696243129361,0.43481445,-0.77593994,-0.20123291,-2.109375,3.28125,-1.265625
1696243129401,0.41845703,-0.7539673,-0.20123291,-4.40625,9.140625,-1.28125
1696243129440,0.36328125,-0.73565674,-0.17584229,1.84375,12.171875,-0.46875
1696243129480,0.3334961,-0.7839966,-0.22857666,0.15625,18.234375,-1.578125
1696243129520,0.39697266,-0.86505127,-0.31939697,-0.828125,22.296875,-5.796875
1696243129560,0.46899414,-0.9121704,-0.4072876,1.40625,17.265625,-2.90625
1696243129603,0.5407715,-0.8579712,-0.39923096,6.625,9.390625,1.8125
1696243129642,0.35791016,-0.7949829,-0.31817627,11.015625,9.25,6.953125
1696243129681,0.39208984,-0.69903564,-0.2756958,5.484375,6.078125,-4.21875
1696243129722,0.4567871,-0.8394165,-0.34576416,2.796875,1.265625,3.546875
1696243129759,0.4650879,-0.85723877,-0.40679932,2.65625,0.234375,0.96875
1696243129802,0.44873047,-0.7984009,-0.39678955,4.125,-1.140625,-2.59375
1696243129841,0.39233398,-0.75909424,-0.37530518,2.4375,-6.5,-2.1875
1696243129880,0.39160156,-0.8115845,-0.37091064,1.890625,-7.734375,-0.90625
1696243129920,0.37304688,-0.81622314,-0.3484497,2.078125,-5.59375,-2.59375
1696243129963,0.36328125,-0.8062134,-0.35162354,1.34375,-4.375,-3.375
1696243130002,0.3232422,-0.82525635,-0.34039307,0.71875,-1.75,-2.9375
1696243130039,0.3395996,-0.81256104,-0.35333252,-0.125,-0.421875,-5.921875
1696243130082,0.3881836,-0.8106079,-0.38604736,-3.6875,2.4375,-7.765625
1696243130119,0.37426758,-0.80181885,-0.3477173,3.84375,-3.4375,-9.84375
1696243130181,0.3395996,-0.8452759,-0.36724854,0.9375,-3.921875,-10.234375
1696243130200,0.3190918,-0.77838135,-0.38555908,-0.046875,-4.9375,-8.234375
1696243130240,0.3474121,-0.80914307,-0.4024048,-1.84375,-6.5,-5.328125
1696243130281,0.30371094,-0.84332275,-0.41192627,-2.828125,-8.21875,-4.671875
1696243130323,0.31469727,-0.86138916,-0.4085083,-2.21875,-5.71875,-3.6875
1696243130360,0.3112793,-0.8772583,-0.35772705,0.234375,-5.578125,-3.75
1696243130402,0.24780273,-0.8399048,-0.39630127,-0.515625,-4.59375,-4.4375
1696243130439,0.26245117,-0.80963135,-0.40118408,-0.1875,-2.0,-3.328125
1696243130484,0.31811523,-0.8320923,-0.39263916,-0.375,-1.875,-1.359375
1696243130521,0.30737305,-0.8674927,-0.38433838,-1.515625,-4.03125,-2.421875
1696243130562,0.28735352,-0.8689575,-0.3862915,-2.9375,-7.875,-3.609375
1696243130601,0.24780273,-0.87286377,-0.35235596,-4.125,-7.515625,-2.5
1696243130640,0.22924805,-0.8657837,-0.37408447,-4.84375,-5.640625,-1.921875
1696243130660,0.27246094,-0.8364868,-0.34674072,-2.859375,-5.28125,-0.21875
1696243130722,0.32421875,-0.8579712,-0.31744385,-5.6875,-6.984375,1.578125
1696243130760,0.27441406,-0.8635864,-0.39996338,-8.5625,-13.15625,2.015625
1696243130781,0.28466797,-0.7805786,-0.26031494,-5.484375,-17.40625,3.125
1696243130820,0.2536621,-0.8508911,-0.35333252,-10.875,-27.421875,6.546875
1696243130865,0.37524414,-0.92315674,-0.2835083,-3.109375,-17.640625,4.453125
1696243130902,0.38256836,-0.9951782,0.10760498,15.453125,6.984375,16.59375
1696243130940,0.15405273,-0.94195557,-0.28204346,-8.203125,-2.3125,7.484375
1696243130981,0.37573242,-0.6392212,-0.39093018,-4.890625,4.6875,-6.953125
1696243131021,0.56518555,-0.6304321,-0.32208252,11.0,4.09375,9.6875
1696243131061,0.4741211,-0.83380127,-0.26861572,12.265625,0.578125,20.890625
1696243131101,0.53100586,-0.96099854,-0.20855713,5.5625,-1.25,9.0
1696243131141,0.45629883,-0.84332275,-0.2876587,-4.59375,-0.015625,5.203125
1696243131203,0.5031738,-0.74298096,-0.26055908,-2.9375,4.375,8.015625
1696243131241,0.4802246,-0.79351807,-0.25909424,-1.3125,3.53125,6.578125
1696243131260,0.54052734,-0.8152466,-0.26055908,-1.375,5.046875,5.84375
1696243131299,0.5432129,-0.802063,-0.27056885,-2.421875,1.125,3.640625
1696243131359,0.51293945,-0.7949829,-0.25811768,-2.453125,-0.328125,2.28125
1696243131379,0.4909668,-0.8189087,-0.25543213,-5.578125,2.546875,1.421875
1696243131419,0.48266602,-0.8272095,-0.29693604,-7.625,1.71875,1.15625
1696243131460,0.5136719,-0.78326416,-0.24127197,-6.734375,0.9375,-0.703125
1696243131499,0.47705078,-0.84552,-0.21588135,-5.96875,-0.125,0.453125
1696243131539,0.4609375,-0.83673096,-0.23321533,-9.859375,0.125,-2.84375
1696243131579,0.44726562,-0.8374634,-0.22369385,-12.8125,1.109375,-2.71875
1696243131620,0.4560547,-0.84088135,-0.1819458,-11.78125,4.9375,-2.671875
1696243131659,0.45141602,-0.8230591,-0.19195557,-11.265625,4.71875,-4.375
1696243131700,0.46923828,-0.7930298,-0.18756104,-9.703125,4.234375,-2.921875
1696243131738,0.43652344,-0.8167114,-0.17730713,-7.375,4.65625,-2.421875
1696243131778,0.44580078,-0.8023071,-0.18804932,-6.71875,6.03125,-1.140625
1696243131839,0.4675293,-0.79766846,-0.16558838,-6.40625,5.421875,-0.046875
1696243131859,0.42504883,-0.8023071,-0.1819458,-4.734375,5.234375,0.53125
1696243131899,0.4477539,-0.8027954,-0.18536377,-3.8125,4.15625,1.421875
1696243131983,0.4350586,-0.847229,-0.15997314,-2.8125,5.75,2.796875
1696243131989,0.42211914,-0.85162354,-0.1362915,-1.828125,6.375,2.34375
1696243131999,0.40478516,-0.8237915,-0.13848877,0.671875,6.484375,1.828125
1696243132042,0.44921875,-0.8076782,-0.1428833,0.5,9.546875,2.3125
1696243132083,0.39941406,-0.82647705,-0.14556885,3.53125,7.234375,2.890625
1696243132120,0.38867188,-0.78985596,-0.15411377,4.25,11.796875,1.3125
1696243132160,0.3696289,-0.77911377,-0.16143799,9.015625,14.40625,2.359375
1696243132204,0.38891602,-0.7764282,-0.23516846,9.203125,15.15625,0.71875
1696243132240,0.45458984,-0.84820557,-0.33868408,9.75,9.3125,3.296875
1696243132285,0.52783203,-0.9180298,-0.36920166,13.53125,2.6875,7.96875
1696243132329,0.51342773,-0.82818604,-0.27764893,15.453125,7.96875,8.6875
1696243132359,0.41796875,-0.7554321,-0.25543213,9.953125,-0.453125,-1.625
1696243132402,0.4494629,-0.8621216,-0.3110962,5.9375,-3.65625,-0.28125
1696243132443,0.4814453,-0.8960571,-0.33868408,4.484375,-3.9375,-2.515625
1696243132483,0.45410156,-0.850647,-0.33599854,5.53125,-4.515625,-5.53125
1696243132520,0.42700195,-0.77301025,-0.32110596,4.390625,-5.921875,-6.09375
1696243132560,0.4428711,-0.7715454,-0.30523682,3.734375,-7.9375,-5.515625
1696243132624,0.41455078,-0.8057251,-0.28399658,2.390625,-8.9375,-5.125
1696243132642,0.36132812,-0.83477783,-0.29571533,-0.3125,-6.890625,-5.1875
1696243132683,0.40063477,-0.8320923,-0.34454346,-0.921875,-4.09375,-7.046875
1696243132724,0.39526367,-0.831604,-0.29986572,1.53125,-1.234375,-5.25
1696243132760,0.33813477,-0.8110962,-0.30352783,1.515625,-0.9375,-7.9375
1696243132802,0.34350586,-0.77349854,-0.39215088,-4.5625,2.46875,-9.484375
1696243132844,0.36132812,-0.803772,-0.40875244,0.546875,-0.78125,-7.65625
1696243132879,0.41455078,-0.9006958,-0.40411377,-0.234375,-3.1875,-7.671875
1696243132921,0.31176758,-0.9192505,-0.34527588,0.0625,-2.296875,-10.84375
1696243132961,0.27392578,-0.85943604,-0.35113525,-2.65625,-1.03125,-11.796875
1696243133000,0.2956543,-0.8081665,-0.35577393,-2.53125,0.71875,-8.0625
1696243133061,0.29956055,-0.8062134,-0.3821411,-3.671875,1.828125,-6.921875
1696243133080,0.34057617,-0.83551025,-0.3772583,-3.84375,-0.546875,-5.125
1696243133122,0.3100586,-0.8821411,-0.34381104,-3.515625,-1.015625,-3.234375
1696243133162,0.31958008,-0.895813,-0.33795166,-4.390625,-2.921875,-6.0625
1696243133204,0.2614746,-0.87994385,-0.30914307,-3.703125,-4.0625,-4.53125
1696243133243,0.21582031,-0.8755493,-0.29644775,-4.203125,-3.171875,-4.90625
1696243133282,0.19262695,-0.864563,-0.31549072,-3.796875,-0.3125,-4.234375
1696243133301,0.2265625,-0.82525635,-0.33624268,-3.15625,0.5,-1.96875
1696243133342,0.23999023,-0.8362427,-0.33184814,-2.953125,-2.953125,-0.3125
1696243133380,0.24584961,-0.89141846,-0.2835083,-2.890625,-4.96875,2.8125
1696243133441,0.22973633,-0.8858032,-0.2822876,-3.015625,-9.390625,3.5625
1696243133460,0.23339844,-0.8899536,-0.26837158,-5.953125,-8.5625,4.953125
1696243133525,0.2487793,-0.9146118,-0.2805786,-1.265625,-14.0,6.625
1696243133539,0.3100586,-0.99542236,-0.26226807,0.859375,-7.859375,8.953125
1696243133604,0.33251953,-0.9751587,-0.15704346,1.4375,-3.734375,11.890625
1696243133620,0.18774414,-0.87384033,-0.2937622,-2.90625,-7.890625,6.078125
1696243133681,0.3413086,-0.7637329,-0.32598877,1.828125,-0.828125,4.59375
1696243133701,0.45361328,-0.835022,-0.269104,3.015625,-1.9375,8.015625
1696243133743,0.42016602,-0.9133911,-0.19683838,1.875,-5.078125,6.734375
1696243133780,0.37304688,-0.84820557,-0.22979736,-0.3125,-2.78125,1.265625
1696243133822,0.4272461,-0.7835083,-0.24639893,0.234375,0.171875,4.515625
1696243133863,0.40722656,-0.8196411,-0.25494385,-1.0625,-2.078125,4.734375
1696243133907,0.4555664,-0.85821533,-0.2468872,2.28125,-2.453125,3.3125
1696243133941,0.48486328,-0.8352661,-0.23297119,2.46875,-2.796875,6.0625
1696243133981,0.47436523,-0.81915283,-0.21002197,0.40625,-4.046875,4.359375
1696243134021,0.4638672,-0.86431885,-0.1716919,-3.984375,-0.671875,3.734375
1696243134061,0.41577148,-0.85650635,-0.24761963,-6.046875,-1.6875,1.046875
1696243134122,0.44799805,-0.78082275,-0.21807861,-1.6875,-0.953125,-0.421875
1696243134161,0.42016602,-0.8357544,-0.2234497,0.359375,-2.5625,1.09375
1696243134179,0.42016602,-0.88482666,-0.20465088,-1.015625,-0.828125,-2.046875
1696243134221,0.4345703,-0.8652954,-0.19342041,-1.859375,-0.796875,-2.296875
1696243134281,0.42163086,-0.8569946,-0.20343018,-1.890625,-3.859375,-2.890625
1696243134301,0.44311523,-0.8303833,-0.20367432,-1.203125,-3.109375,-1.84375
1696243134343,0.4128418,-0.82818604,-0.18609619,-0.703125,-1.9375,-2.21875
1696243134382,0.39770508,-0.84747314,-0.19903564,-1.953125,-2.8125,-2.96875
1696243134423,0.40307617,-0.8657837,-0.17437744,-2.015625,-1.3125,-1.84375
1696243134460,0.38671875,-0.8665161,-0.1506958,-1.171875,-1.84375,-1.875
1696243134501,0.3630371,-0.85943604,-0.1482544,-0.359375,-1.453125,-1.25
1696243134542,0.3557129,-0.8591919,-0.16241455,-0.234375,1.28125,0.046875
1696243134602,0.3642578,-0.86431885,-0.17388916,-0.75,4.625,-1.203125
1696243134620,0.38305664,-0.86968994,-0.16851807,1.125,8.0,-0.53125
1696243134641,0.40161133,-0.86138916,-0.1404419,-0.859375,9.421875,-0.78125
1696243134681,0.36108398,-0.8430786,-0.1506958,-5.234375,15.234375,-1.875
1696243134721,0.2265625,-0.7920532,-0.10845947,-1.375,23.84375,-3.40625
1696243134760,0.29541016,-0.8779907,-0.32598877,-6.8125,24.921875,-6.453125
1696243134801,0.56396484,-0.9109497,-0.4505005,3.140625,3.703125,-3.40625
1696243134841,0.5095215,-0.93414307,-0.29083252,22.015625,10.09375,16.671875
1696243134881,0.23266602,-0.7407837,-0.21002197,8.28125,5.859375,4.5
1696243134922,0.36669922,-0.74591064,-0.20831299,0.703125,2.859375,-5.625
1696243134961,0.4638672,-0.92144775,-0.3147583,-2.09375,-2.875,7.96875
1696243135000,0.41601562,-0.989563,-0.33892822,5.5625,-0.34375,0.71875
1696243135042,0.31811523,-0.79571533,-0.29205322,4.0,-1.890625,-4.90625
1696243135081,0.38110352,-0.79937744,-0.27667236,2.59375,-4.328125,-0.234375
1696243135121,0.39379883,-0.9126587,-0.26153564,1.203125,-6.015625,-0.984375
1696243135161,0.3330078,-0.8989868,-0.26348877,0.09375,-5.34375,-5.34375
1696243135201,0.33154297,-0.8311157,-0.2617798,-0.90625,-5.515625,-5.328125
1696243135240,0.32202148,-0.8701782,-0.26153564,-1.359375,-2.890625,-3.6875
1696243135281,0.32910156,-0.87750244,-0.2420044,1.25,-3.5625,-2.75
1696243135341,0.30932617,-0.84088135,-0.2588501,-2.015625,-3.21875,-6.484375
1696243135359,0.2902832,-0.87286377,-0.2876587,1.875,-1.875,-4.421875
1696243135402,0.30200195,-0.8526001,-0.315979,1.9375,1.578125,-5.953125
1696243135441,0.30371094,-0.83917236,-0.33111572,2.46875,-1.0625,-5.0
1696243135480,0.31030273,-0.8760376,-0.33917236,1.3125,-0.40625,-3.234375
1696243135525,0.28466797,-0.8735962,-0.34869385,1.203125,0.421875,-2.15625
1696243135562,0.2944336,-0.8411255,-0.347229,0.28125,-1.8125,-3.96875
1696243135599,0.23754883,-0.8753052,-0.3274536,-0.359375,-0.671875,-3.53125
1696243135641,0.24926758,-0.87335205,-0.35064697,-5.09375,2.140625,-3.765625
1696243135679,0.3540039,-0.86309814,-0.35577393,0.796875,-0.078125,-2.5
1696243135721,0.30419922,-0.90826416,-0.3032837,0.015625,-3.796875,-1.453125
1696243135763,0.26220703,-0.909729,-0.28277588,-1.65625,-6.25,-2.1875
1696243135800,0.24023438,-0.90826416,-0.2835083,-4.203125,-4.984375,-3.0625
1696243135840,0.23999023,-0.8814087,-0.2901001,-4.109375,-3.890625,-3.171875
1696243135882,0.25195312,-0.8699341,-0.2695923,-3.234375,-1.53125,-2.171875
1696243135922,0.22045898,-0.9168091,-0.3201294,-7.9375,-2.28125,-1.34375
1696243135940,0.23168945,-0.8948364,-0.24713135,-2.734375,-4.078125,-2.578125
1696243135982,0.21411133,-0.8928833,-0.25079346,-3.28125,-7.1875,-0.421875
1696243136020,0.22753906,-0.8599243,-0.26861572,-6.3125,-9.96875,0.28125
1696243136061,0.2277832,-0.87628174,-0.28375244,-7.3125,-13.796875,1.765625
1696243136100,0.30688477,-0.9146118,-0.29180908,-7.703125,-17.546875,3.953125
1696243136162,0.3449707,-1.0186157,-0.09454346,3.578125,-0.265625,10.34375
1696243136179,0.2626953,-0.9805298,-0.042541504,7.46875,0.703125,11.96875
1696243136223,0.1003418,-0.8530884,-0.29864502,-7.1875,-5.234375,0.296875
1696243136260,0.34887695,-0.6675415,-0.38189697,2.4375,4.15625,1.53125
1696243136299,0.48461914,-0.7930298,-0.25958252,7.671875,2.375,9.3125
1696243136339,0.40356445,-1.0337524,-0.18536377,2.9375,-8.03125,10.328125
1696243136401,0.3527832,-0.96588135,-0.20098877,-1.515625,-8.4375,-0.078125
1696243136419,0.36376953,-0.7612915,-0.19073486,2.5625,-3.34375,-0.046875
1696243136484,0.35083008,-0.7798462,-0.2197876,-0.296875,0.046875,5.171875
1696243136499,0.39916992,-0.9048462,-0.27545166,-4.171875,-0.0625,3.0
1696243136542,0.47583008,-0.91363525,-0.19195557,-2.421875,-0.65625,0.984375
1696243136582,0.40966797,-0.86602783,-0.19708252,-0.90625,-4.09375,1.671875
1696243136621,0.3852539,-0.85601807,-0.18658447,-1.375,-2.421875,0.828125
1696243136660,0.3869629,-0.8621216,-0.1873169,-0.703125,-0.78125,2.015625
1696243136701,0.40722656,-0.84381104,-0.20245361,-0.765625,-3.0625,1.3125
1696243136741,0.421875,-0.84869385,-0.19732666,-1.453125,-2.0625,2.421875
1696243136781,0.4482422,-0.8550415,-0.2131958,0.953125,-5.1875,1.46875
1696243136821,0.47509766,-0.8755493,-0.16485596,1.84375,-5.171875,3.328125
1696243136862,0.34326172,-0.9006958,-0.16339111,-1.984375,-5.3125,-0.359375
1696243136900,0.32861328,-0.8699341,-0.20172119,-1.8125,-1.875,-2.21875
1696243136942,0.41381836,-0.8496704,-0.16217041,0.5,1.859375,-0.59375
1696243137002,0.3918457,-0.8945923,-0.16973877,-0.453125,-1.046875,-1.21875
1696243137018,0.41845703,-0.8779907,-0.14996338,0.4375,-1.734375,-0.4375
1696243137061,0.40576172,-0.8526001,-0.13043213,-1.171875,1.125,-0.203125
1696243137103,0.33422852,-0.85601807,-0.17584229,-3.171875,1.359375,-1.46875
1696243137142,0.3930664,-0.85040283,-0.11383057,-0.84375,3.578125,-0.859375
1696243137184,0.34716797,-0.93756104,-0.14508057,-1.140625,3.328125,0.59375
1696243137242,0.32763672,-0.88409424,-0.15264893,-3.265625,7.609375,-3.21875
1696243137248,0.3515625,-0.83843994,-0.15289307,-0.34375,10.328125,-1.53125
1696243137280,0.35791016,-0.83013916,-0.15167236,1.5625,10.8125,-0.109375
1696243137320,0.40649414,-0.8460083,-0.15289307,2.078125,8.390625,0.65625
1696243137361,0.37402344,-0.8491821,-0.15264893,4.765625,7.59375,2.09375
1696243137401,0.32299805,-0.82818604,-0.18267822,6.65625,10.21875,1.453125
1696243137441,0.35205078,-0.8279419,-0.27960205,5.375,9.078125,-0.40625
1696243137482,0.47827148,-0.8735962,-0.33233643,10.421875,3.75,3.40625
1696243137521,0.3935547,-0.9277954,-0.28326416,10.78125,1.265625,8.671875
1696243137562,0.29614258,-0.881897,-0.23248291,6.9375,0.3125,-2.25
1696243137601,0.39404297,-0.86724854,-0.26593018,7.1875,0.296875,-0.921875
1696243137641,0.4633789,-0.88531494,-0.30523682,3.09375,-1.34375,2.140625
1696243137681,0.3618164,-0.8899536,-0.30474854,2.78125,-3.890625,-2.3125
1696243137721,0.3449707,-0.81085205,-0.30352783,1.046875,-2.859375,-4.5625
1696243137760,0.3972168,-0.8323364,-0.2888794,3.03125,-4.59375,-1.328125
1696243137801,0.35107422,-0.8413696,-0.2769165,-0.296875,-2.953125,-1.75
1696243137841,0.30859375,-0.8609009,-0.29083252,-1.171875,-1.28125,-3.390625
1696243137881,0.35864258,-0.85650635,-0.2925415,-1.140625,0.4375,-2.28125
1696243137921,0.35986328,-0.8533325,-0.27764893,0.90625,-1.1875,-2.453125
1696243137962,0.34326172,-0.8389282,-0.27398682,0.546875,-0.609375,-2.78125
1696243138002,0.3623047,-0.87750244,-0.26739502,-0.5,-1.09375,-3.890625
1696243138040,0.32421875,-0.91241455,-0.25982666,-3.171875,1.328125,-3.421875
1696243138083,0.27270508,-0.85040283,-0.32647705,-0.140625,1.359375,-8.65625
1696243138120,0.2763672,-0.8237915,-0.33795166,-0.15625,3.75,-6.03125
1696243138161,0.28515625,-0.8723755,-0.3357544,-0.6875,0.5,-4.046875
1696243138203,0.30078125,-0.8753052,-0.32696533,-1.125,0.390625,-4.0
1696243138241,0.2902832,-0.88067627,-0.31671143,-2.015625,0.9375,-2.75
1696243138281,0.2607422,-0.9089966,-0.32574463,-1.84375,-1.171875,-2.703125
1696243138322,0.25805664,-0.8389282,-0.31256104,-1.484375,1.625,-3.859375
1696243138362,0.23608398,-0.89801025,-0.30963135,-0.453125,-0.6875,-2.671875
1696243138402,0.2854004,-0.92437744,-0.302063,-1.890625,-2.46875,-4.109375
1696243138441,0.28173828,-0.8994751,-0.26934814,-1.40625,-7.59375,-4.375
1696243138481,0.19384766,-0.8909302,-0.27349854,-2.703125,-10.359375,-4.078125
1696243138522,0.20898438,-0.9163208,-0.28179932,-6.765625,-9.015625,-3.671875
1696243138541,0.25219727,-0.91534424,-0.2720337,-5.4375,-8.40625,-3.6875
1696243138604,0.22729492,-0.88360596,-0.2666626,-3.390625,-12.109375,-3.4375
1696243138619,0.19750977,-0.8753052,-0.2522583,-3.265625,-13.546875,-1.984375
1696243138662,0.22583008,-0.9031372,-0.24420166,-4.984375,-14.234375,0.140625
1696243138723,0.24243164,-0.90411377,-0.25250244,-4.140625,-18.46875,1.640625
1696243138741,0.26879883,-0.9507446,-0.23980713,0.15625,-15.78125,5.09375
1696243138804,0.29516602,-0.9573364,-0.020080566,9.78125,-0.125,11.0625
1696243138819,0.19555664,-0.90338135,-0.20269775,-1.078125,-5.453125,9.390625
1696243138864,0.2541504,-0.8123169,-0.33868408,-2.21875,-2.234375,3.78125
1696243138900,0.3840332,-0.81573486,-0.24737549,7.828125,1.671875,9.109375
1696243138942,0.33422852,-0.9351196,-0.20733643,4.5,-3.53125,11.96875
1696243138983,0.36572266,-0.9378052,-0.19927979,0.109375,-2.359375,7.0625
1696243139025,0.3955078,-0.8508911,-0.23345947,-0.09375,-2.03125,4.421875
1696243139064,0.45166016,-0.8184204,-0.22271729,0.65625,-4.703125,8.71875
1696243139123,0.43945312,-0.8587036,-0.22393799,-1.203125,-3.53125,7.765625
1696243139140,0.4465332,-0.8584595,-0.2288208,0.546875,-4.140625,4.21875
1696243139182,0.47583008,-0.86016846,-0.21490479,0.4375,-5.484375,5.609375
1696243139242,0.44262695,-0.8821411,-0.19073486,-1.96875,-5.484375,4.734375
1696243139263,0.43579102,-0.8657837,-0.18927002,-2.046875,-4.9375,3.21875
1696243139304,0.43920898,-0.79644775,-0.18389893,-1.953125,-2.171875,2.640625
1696243139362,0.44213867,-0.81085205,-0.21490479,-0.296875,-4.984375,4.171875
1696243139381,0.43359375,-0.881897,-0.12017822,-1.84375,1.671875,7.96875
1696243139441,0.36743164,-0.8674927,-0.1560669,-5.796875,3.796875,-0.90625
1696243139460,0.5031738,-0.8064575,-0.22442627,-5.75,6.8125,-0.34375
1696243139500,0.5007324,-0.78204346,-0.14239502,-0.9375,3.375,1.203125
1696243139541,0.3828125,-0.89508057,-0.13800049,-2.03125,5.046875,0.453125
1696243139582,0.39526367,-0.8821411,-0.15240479,-5.125,8.421875,-3.203125
1696243139623,0.43310547,-0.8718872,-0.15338135,-4.03125,8.359375,-2.078125
1696243139661,0.4013672,-0.87335205,-0.13165283,-4.28125,8.375,-2.375
1696243139704,0.35742188,-0.8599243,-0.1296997,-5.953125,11.53125,-5.0625
1696243139740,0.40478516,-0.8562622,-0.120666504,-4.953125,12.625,-4.265625
1696243139783,0.37719727,-0.86724854,-0.10723877,-3.515625,12.03125,-3.75
1696243139822,0.3178711,-0.82232666,-0.08306885,1.234375,19.0625,-3.46875
1696243139862,0.27612305,-0.77178955,-0.105041504,1.890625,21.046875,-4.734375
1696243139878,0.30664062,-0.815979,-0.21124268,1.234375,21.21875,-5.265625
1696243139921,0.41748047,-0.97369385,-0.33721924,1.34375,14.609375,-0.828125
1696243139961,0.5095215,-0.973938,-0.37823486,17.9375,6.078125,5.375
1696243140008,0.3322754,-0.8579712,-0.28009033,15.875,10.140625,10.359375
1696243140040,0.3635254,-0.6970825,-0.24151611,7.09375,2.109375,-1.5625
1696243140082,0.45898438,-0.85772705,-0.2539673,0.90625,-4.796875,7.859375
1696243140122,0.41552734,-0.9451294,-0.3279419,4.75,-5.140625,5.09375
1696243140161,0.3618164,-0.85406494,-0.32354736,4.78125,-1.75,-1.578125
1696243140201,0.3540039,-0.7893677,-0.31622314,3.515625,-3.203125,0.453125
1696243140241,0.4008789,-0.86676025,-0.331604,2.65625,-4.984375,1.65625
1696243140283,0.38916016,-0.8352661,-0.31134033,3.546875,-5.953125,0.34375
1696243140320,0.37646484,-0.8115845,-0.28155518,3.546875,-6.203125,-1.203125
1696243140361,0.3659668,-0.85894775,-0.27105713,3.578125,-5.953125,0.25
1696243140402,0.3371582,-0.8604126,-0.2883911,0.4375,-4.484375,-2.09375
1696243140443,0.3486328,-0.84820557,-0.31402588,2.984375,-2.84375,-3.65625
1696243140481,0.3479004,-0.8357544,-0.30792236,3.046875,-0.546875,-3.28125
1696243140521,0.34594727,-0.8652954,-0.33013916,2.28125,-0.171875,-3.25
1696243140560,0.33154297,-0.8411255,-0.3772583,2.25,-0.515625,-4.5
1696243140603,0.34887695,-0.84332275,-0.36846924,2.671875,-1.125,-2.84375
1696243140640,0.34350586,-0.8530884,-0.35162354,2.953125,-5.34375,-3.65625
1696243140680,0.33422852,-0.8657837,-0.3652954,-0.953125,-1.65625,-2.859375
1696243140718,0.32373047,-0.83062744,-0.33770752,1.796875,-2.5625,-2.640625
1696243140758,0.28930664,-0.86016846,-0.34991455,-0.84375,-1.484375,-3.09375
1696243140798,0.31518555,-0.8518677,-0.3501587,-3.3125,-1.5625,-4.859375
1696243140838,0.3178711,-0.85601807,-0.32818604,-3.75,-3.765625,-4.25
1696243140878,0.26000977,-0.8550415,-0.32818604,-3.828125,-4.171875,-3.21875
1696243140919,0.28564453,-0.8616333,-0.32037354,-3.625,-1.9375,-2.59375
1696243140958,0.27661133,-0.8760376,-0.3032837,-3.46875,-0.859375,-0.828125
1696243140999,0.23339844,-0.8821411,-0.33111572,-3.84375,1.40625,0.15625
1696243141039,0.31030273,-0.86187744,-0.33184814,-1.90625,1.421875,1.3125
1696243141081,0.2927246,-0.8579712,-0.30792236,-1.25,-2.546875,2.34375
1696243141120,0.31054688,-0.8591919,-0.3069458,-3.59375,-8.328125,2.1875
1696243141181,0.2709961,-0.88238525,-0.28375244,-5.03125,-12.90625,3.46875
1696243141185,0.29345703,-0.9143677,-0.29718018,-9.890625,-16.390625,2.0625
1696243141220,0.33764648,-0.87042236,-0.27252197,-11.390625,-20.1875,1.796875
1696243141301,0.40014648,-0.88775635,-0.3262329,-10.046875,-23.75,3.265625
1696243141304,0.43701172,-0.9710083,0.058532715,6.609375,13.59375,12.265625
1696243141339,0.20727539,-0.89678955,-0.18780518,-0.546875,-7.984375,4.375
1696243141400,0.25561523,-0.7476196,-0.35455322,-4.921875,-2.125,-3.203125
1696243141439,0.5786133,-0.67266846,-0.31134033,9.828125,4.125,9.125
1696243141459,0.4506836,-0.82818604,-0.16925049,7.140625,-5.953125,12.34375
1696243141501,0.41992188,-0.9612427,-0.14996338,0.75,-5.25,9.125
1696243141540,0.46679688,-0.881897,-0.21392822,-5.796875,1.640625,1.0
1696243141580,0.46704102,-0.788147,-0.19342041,-5.296875,3.859375,5.984375
1696243141619,0.4404297,-0.866272,-0.20904541,-2.828125,2.046875,4.015625
1696243141678,0.49804688,-0.8821411,-0.20245361,-1.28125,4.125,1.3125
1696243141699,0.5241699,-0.8255005,-0.18560791,0.390625,4.25,2.578125
1696243141740,0.5073242,-0.84259033,-0.1951294,-1.296875,-1.078125,1.0
1696243141780,0.46606445,-0.83843994,-0.17584229,-1.90625,-0.828125,-0.234375
1696243141819,0.44360352,-0.8311157,-0.19561768,-3.921875,0.03125,-0.390625
1696243141860,0.453125,-0.8452759,-0.18536377,-3.8125,-0.359375,-1.671875
1696243141900,0.4333496,-0.848938,-0.15655518,-4.265625,3.46875,-1.578125
1696243141942,0.42626953,-0.8569946,-0.18951416,-8.515625,4.578125,-2.828125
1696243141981,0.42578125,-0.8225708,-0.13995361,-4.078125,2.8125,-1.84375
1696243142022,0.4182129,-0.862854,-0.14263916,-3.34375,2.515625,-0.625
1696243142062,0.3984375,-0.83966064,-0.13433838,-3.03125,5.765625,-1.171875
1696243142124,0.3869629,-0.84503174,-0.1453247,-4.625,6.796875,-1.171875
1696243142143,0.40673828,-0.85479736,-0.1572876,-3.875,6.734375,-0.328125
1696243142181,0.4099121,-0.85284424,-0.14459229,-2.5,10.296875,0.296875
1696243142222,0.36547852,-0.83306885,-0.12579346,-1.3125,12.734375,-0.3125
1696243142262,0.35717773,-0.80841064,-0.14996338,0.09375,13.59375,0.484375
1696243142325,0.41064453,-0.80963135,-0.17022705,1.953125,15.890625,2.984375
1696243142341,0.3491211,-0.8201294,-0.112854004,3.453125,23.5,5.03125
1696243142381,0.2722168,-0.84332275,-0.31549072,-4.71875,22.578125,-1.46875
1696243142422,0.5727539,-0.92315674,-0.43292236,1.03125,4.546875,-1.53125
1696243142460,0.6044922,-0.9949341,-0.26739502,18.5,12.859375,18.03125
1696243142480,0.25219727,-0.7476196,-0.21270752,10.53125,5.625,1.0625
1696243142520,0.3388672,-0.6939087,-0.2756958,-0.578125,4.875,-9.125
1696243142562,0.5144043,-0.9192505,-0.35040283,-3.8125,0.265625,9.234375
1696243142601,0.4934082,-0.93292236,-0.31793213,3.40625,0.890625,-3.140625
1696243142641,0.34570312,-0.7608032,-0.2774048,6.578125,-4.4375,-4.296875
1696243142682,0.37231445,-0.76446533,-0.29351807,4.359375,-5.921875,-1.4375
1696243142721,0.40356445,-0.8440552,-0.30596924,8.15625,-4.46875,-0.09375
1696243142760,0.37646484,-0.86676025,-0.31695557,5.78125,-4.8125,-1.90625
1696243142801,0.38745117,-0.8386841,-0.27593994,4.625,-4.765625,-3.4375
1696243142841,0.34472656,-0.85943604,-0.28204346,2.1875,-4.609375,-5.125
1696243142880,0.3474121,-0.8711548,-0.28448486,2.25,-2.21875,-6.375
1696243142921,0.3725586,-0.8501587,-0.28253174,0.96875,-1.5,-8.0625
1696243142959,0.32666016,-0.87335205,-0.3196411,-2.1875,-1.171875,-9.71875
1696243143001,0.30932617,-0.88287354,-0.3262329,-3.984375,1.203125,-10.78125
1696243143043,0.28808594,-0.8911743,-0.33892822,-4.90625,1.359375,-11.375
1696243143082,0.3034668,-0.8687134,-0.32305908,-3.90625,-0.609375,-11.890625
1696243143122,0.29174805,-0.8726196,-0.29058838,-2.15625,-0.671875,-7.4375
1696243143161,0.2397461,-0.8682251,-0.32598877,-2.125,-1.421875,-7.65625
1696243143202,0.2446289,-0.833313,-0.33111572,0.09375,2.015625,-4.640625
1696243143242,0.30981445,-0.8569946,-0.36749268,-2.75,5.015625,-2.546875
1696243143282,0.28051758,-0.89263916,-0.2901001,4.296875,-1.140625,-2.40625
1696243143321,0.22729492,-0.89630127,-0.28814697,0.6875,-5.625,-3.21875
1696243143361,0.24633789,-0.8928833,-0.30255127,-1.9375,-8.875,-2.5
1696243143402,0.18188477,-0.9006958,-0.28863525,-4.03125,-10.515625,-2.328125
1696243143441,0.19042969,-0.9109497,-0.2991333,-4.921875,-9.109375,-2.015625
1696243143480,0.23925781,-0.8821411,-0.2913208,-5.3125,-10.375,-0.390625
1696243143522,0.22729492,-0.9006958,-0.24102783,-5.28125,-14.359375,-0.34375
1696243143562,0.22290039,-0.9204712,-0.27008057,-6.640625,-20.984375,-0.6875
1696243143601,0.25,-0.8899536,-0.25372314,-9.328125,-25.546875,0.015625
1696243143646,0.27001953,-0.9849243,-0.2390747,-6.0,-16.375,7.25
1696243143681,0.3623047,-0.9612427,0.049743652,12.609375,-1.40625,14.625
1696243143722,0.16699219,-0.8960571,-0.2197876,-2.5625,-8.671875,4.875
1696243143763,0.24902344,-0.7053833,-0.34405518,-4.375,1.25,-1.1875
1696243143801,0.4416504,-0.7581177,-0.28814697,7.765625,4.734375,12.125
1696243143822,0.29614258,-0.9812622,-0.17803955,4.234375,1.0625,14.671875
1696243143879,0.32836914,-0.973938,-0.23516846,-0.234375,-0.40625,2.40625
1696243143921,0.3947754,-0.835022,-0.24761963,-2.5625,3.265625,1.46875
1696243143941,0.4243164,-0.83673096,-0.20831299,0.21875,0.03125,9.21875
1696243143979,0.38061523,-0.88531494,-0.21002197,-1.96875,1.0,4.890625
1696243144021,0.390625,-0.89019775,-0.20050049,-1.96875,3.328125,0.765625
1696243144061,0.4350586,-0.862854,-0.2078247,-2.625,3.09375,1.5625
1696243144100,0.4411621,-0.87286377,-0.21539307,-2.859375,0.828125,0.796875
1696243144141,0.40771484,-0.84698486,-0.2276001,-2.0625,-0.390625,0.78125
1696243144182,0.43530273,-0.85479736,-0.2185669,-1.640625,-2.671875,1.34375
1696243144219,0.43969727,-0.881897,-0.1975708,-2.578125,-1.578125,2.15625
1696243144281,0.4338379,-0.8604126,-0.2000122,-3.234375,-3.21875,1.78125
1696243144302,0.40698242,-0.8635864,-0.18585205,-3.9375,-3.375,1.515625
1696243144362,0.45776367,-0.8623657,-0.16461182,-2.40625,-3.09375,1.9375
1696243144380,0.41796875,-0.8477173,-0.15899658,-0.890625,-3.34375,1.203125
1696243144443,0.41552734,-0.84576416,-0.1687622,-1.75,-4.109375,-0.234375
1696243144485,0.42578125,-0.8694458,-0.16802979,-3.15625,-0.53125,0.546875
1696243144501,0.37231445,-0.87506104,-0.17584229,-4.46875,-0.4375,-1.625
1696243144541,0.4296875,-0.8621216,-0.1572876,-5.703125,-0.125,-3.25
1696243144608,0.40112305,-0.9014282,-0.12701416,-2.53125,-2.125,-1.078125
1696243144620,0.38867188,-0.89312744,-0.12188721,-2.4375,-0.640625,-1.703125
1696243144661,0.37719727,-0.8464966,-0.097717285,-1.265625,0.171875,-2.390625
1696243144702,0.36865234,-0.83428955,-0.09844971,-1.046875,0.859375,-1.265625
1696243144742,0.3696289,-0.86187744,-0.12213135,-2.515625,1.5625,-1.671875
1696243144781,0.3564453,-0.8814087,-0.10308838,-3.09375,5.640625,-1.765625
1696243144823,0.32495117,-0.87628174,-0.094055176,-1.5,8.828125,-3.125
1696243144861,0.3503418,-0.8574829,-0.10235596,-0.234375,9.609375,-4.15625
1696243144922,0.35498047,-0.85113525,-0.08331299,3.140625,10.0,-3.546875
1696243144941,0.29907227,-0.8567505,-0.093566895,4.796875,11.609375,-4.078125
1696243145001,0.23217773,-0.83477783,-0.11846924,5.78125,19.140625,-5.1875
1696243145044,0.22509766,-0.9578247,-0.3435669,-1.203125,14.171875,-10.671875
1696243145059,0.63720703,-0.9702759,-0.3826294,15.765625,4.3125,0.234375
1696243145121,0.3461914,-0.9273071,-0.2625122,18.84375,12.75,15.484375
1696243145140,0.2890625,-0.6531372,-0.22784424,9.96875,-6.015625,-13.0
1696243145160,0.39111328,-0.9155884,-0.25665283,-6.046875,-6.21875,5.15625
1696243145200,0.36108398,-1.081604,-0.3081665,3.140625,-6.28125,4.984375
1696243145240,0.31225586,-0.88287354,-0.2786255,3.5625,0.78125,-5.75
1696243145282,0.35302734,-0.74053955,-0.25567627,4.015625,-5.359375,0.234375
1696243145320,0.33691406,-0.8987427,-0.24468994,2.375,-7.59375,1.890625
1696243145361,0.2902832,-0.92633057,-0.23834229,-0.4375,-3.078125,0.109375
1696243145401,0.29223633,-0.8706665,-0.25543213,-0.21875,-1.9375,-2.28125
1696243145441,0.3017578,-0.8569946,-0.24908447,2.625,-2.03125,-1.40625
1696243145482,0.31567383,-0.8897095,-0.2263794,2.375,-0.21875,-1.390625
1696243145522,0.31469727,-0.90753174,-0.20928955,3.1875,0.90625,-1.765625
1696243145562,0.2709961,-0.8694458,-0.22857666,5.078125,3.5,-4.125
1696243145600,0.26293945,-0.85406494,-0.28912354,4.0,4.9375,-6.203125
1696243145641,0.26513672,-0.8413696,-0.33673096,4.765625,7.953125,-4.34375
1696243145681,0.3088379,-0.86138916,-0.36968994,4.328125,3.40625,-3.078125
1696243145720,0.30981445,-0.9146118,-0.31817627,5.203125,2.015625,-2.171875
1696243145761,0.2614746,-0.880188,-0.3665161,0.515625,-0.03125,-3.796875
1696243145800,0.26098633,-0.8377075,-0.3189087,2.546875,-0.40625,-2.53125
1696243145841,0.22875977,-0.8880005,-0.34381104,1.296875,2.046875,-0.109375
1696243145883,0.27612305,-0.92437744,-0.3526001,-1.140625,2.84375,-1.9375
1696243145920,0.26708984,-0.8862915,-0.30059814,-0.203125,-1.140625,-1.265625
1696243145960,0.2355957,-0.88897705,-0.3274536,-1.0625,-4.796875,-2.5
1696243146000,0.22802734,-0.8948364,-0.317688,-1.0,-4.15625,-1.0625
1696243146043,0.17773438,-0.89630127,-0.3274536,-1.578125,-3.703125,-1.78125
1696243146081,0.22192383,-0.8845825,-0.32354736,-3.421875,-1.828125,-0.71875
1696243146121,0.2097168,-0.8699341,-0.3106079,-3.8125,-2.125,-0.03125
1696243146162,0.18896484,-0.8677368,-0.31427002,-3.9375,-4.40625,1.265625
1696243146204,0.25146484,-0.8789673,-0.28155518,-4.53125,-9.875,2.453125
1696243146243,0.2175293,-0.9290161,-0.28326416,-7.8125,-13.75,3.65625
1696243146280,0.20751953,-0.8999634,-0.2546997,-8.828125,-17.21875,3.1875
1696243146321,0.30126953,-0.91485596,-0.3045044,-11.484375,-22.875,5.359375
1696243146362,0.33544922,-0.9968872,-0.12530518,-4.3125,-6.875,11.015625
1696243146442,0.25341797,-0.9295044,-0.09259033,2.984375,-3.390625,10.515625
1696243146446,0.21533203,-0.8609009,-0.26812744,-2.0,-5.109375,5.125
1696243146459,0.39916992,-0.7114868,-0.30010986,1.671875,1.515625,6.421875
1696243146520,0.42114258,-0.81329346,-0.24835205,3.015625,-1.421875,10.65625
1696243146539,0.3774414,-0.9612427,-0.17803955,2.0,-2.109375,10.9375
1696243146605,0.38452148,-0.9024048,-0.22467041,-2.640625,1.421875,2.8125
1696243146619,0.44140625,-0.80352783,-0.22735596,-3.171875,2.84375,4.296875
1696243146661,0.43847656,-0.82403564,-0.19854736,-2.25,1.1875,8.296875
1696243146721,0.44726562,-0.87579346,-0.21295166,-2.6875,0.5,4.34375
1696243146740,0.48388672,-0.8723755,-0.1975708,-2.265625,1.15625,3.484375
1696243146782,0.44750977,-0.8440552,-0.21490479,-3.15625,-0.734375,2.796875
1696243146844,0.4716797,-0.8389282,-0.20513916,-2.734375,-0.65625,2.390625
1696243146860,0.47338867,-0.8530884,-0.1765747,-1.015625,-2.53125,2.28125
1696243146903,0.4038086,-0.8735962,-0.1675415,-6.0,-0.875,0.5
1696243146943,0.41845703,-0.87701416,-0.2354126,-10.640625,-0.09375,-0.546875
1696243146983,0.43310547,-0.85601807,-0.13580322,-2.875,0.0,-0.46875
1696243147024,0.40356445,-0.8789673,-0.17022705,-4.765625,-1.078125,-0.515625
1696243147084,0.4411621,-0.8609009,-0.16827393,-5.921875,-0.046875,-1.515625
1696243147122,0.42504883,-0.87042236,-0.1453247,-4.296875,0.359375,-1.265625
1696243147140,0.39624023,-0.8623657,-0.14361572,-3.828125,0.375,-2.03125
1696243147182,0.39770508,-0.85772705,-0.14263916,-5.3125,2.671875,-2.703125
1696243147220,0.37646484,-0.84698486,-0.12896729,-3.75,4.765625,-1.90625
1696243147259,0.3701172,-0.8550415,-0.1482544,-3.46875,4.546875,-1.84375
1696243147300,0.40527344,-0.87384033,-0.13092041,-3.71875,6.5625,-0.078125
1696243147341,0.39013672,-0.90216064,-0.113586426,-4.375,7.671875,-0.46875
1696243147403,0.39331055,-0.8735962,-0.12554932,-1.90625,7.65625,-1.984375
1696243147421,0.3972168,-0.8518677,-0.1104126,0.953125,6.71875,0.09375
1696243147482,0.3996582,-0.8591919,-0.109191895,0.0625,5.984375,-0.828125
1696243147500,0.3959961,-0.86846924,-0.1519165,1.6875,4.109375,-0.5
1696243147541,0.42651367,-0.84161377,-0.1260376,2.703125,2.875,-0.78125
1696243147584,0.35766602,-0.88653564,-0.11065674,6.15625,1.265625,0.375
1696243147627,0.33325195,-0.85821533,-0.12945557,5.625,5.625,-0.046875
1696243147660,0.36035156,-0.8257446,-0.14556885,5.796875,6.25,-0.265625
1696243147701,0.35327148,-0.84991455,-0.12994385,7.84375,8.421875,1.296875
1696243147741,0.3227539,-0.85528564,-0.18096924,6.453125,9.765625,0.90625
1696243147761,0.36694336,-0.8858032,-0.2539673,6.46875,7.671875,2.125
1696243147801,0.43164062,-0.91290283,-0.28936768,11.1875,7.1875,3.9375
1696243147841,0.36157227,-0.8477173,-0.3106079,10.71875,2.015625,1.484375
1696243147883,0.3330078,-0.84942627,-0.29400635,8.03125,2.75,-0.015625
1696243147921,0.3955078,-0.9085083,-0.284729,4.71875,1.234375,-0.046875
1696243147964,0.39257812,-0.92755127,-0.3225708,3.390625,-0.328125,-2.890625
1696243148001,0.3659668,-0.84161377,-0.3106079,2.890625,0.71875,-3.875
1696243148041,0.35668945,-0.80133057,-0.3040161,3.828125,-4.09375,-6.0625
1696243148081,0.37841797,-0.86260986,-0.32159424,0.15625,-0.578125,-4.390625
1696243148121,0.35058594,-0.8501587,-0.2852173,3.359375,-5.09375,-6.0
1696243148159,0.32666016,-0.8543091,-0.31207275,0.46875,-4.296875,-6.765625
1696243148201,0.34692383,-0.86724854,-0.27423096,-0.234375,-4.234375,-6.0
1696243148240,0.30541992,-0.8892212,-0.27789307,-1.0625,-4.625,-6.5
1696243148282,0.2475586,-0.8665161,-0.30255127,-2.453125,-2.984375,-8.9375
1696243148321,0.23461914,-0.8364868,-0.34381104,-1.765625,0.96875,-7.90625
1696243148361,0.28125,-0.86724854,-0.33843994,-0.140625,-0.140625,-4.390625
1696243148401,0.2824707,-0.9126587,-0.3423462,1.09375,-2.078125,-3.859375
1696243148441,0.28100586,-0.9036255,-0.30523682,2.28125,-3.984375,-3.984375
1696243148483,0.21459961,-0.8882446,-0.32525635,2.4375,-2.078125,-3.640625
1696243148520,0.25073242,-0.87042236,-0.33062744,0.71875,0.625,-3.015625
1696243148562,0.23828125,-0.9006958,-0.29473877,2.5625,-1.4375,-1.828125
1696243148600,0.24658203,-0.89630127,-0.27301025,0.765625,-3.390625,-4.796875
1696243148640,0.24707031,-0.90826416,-0.32574463,-3.203125,-6.953125,-3.71875
1696243148681,0.18139648,-0.8855591,-0.2774048,-1.203125,-8.109375,-3.484375
1696243148722,0.18896484,-0.9060669,-0.28424072,-1.53125,-6.859375,-3.859375
1696243148761,0.22338867,-0.8875122,-0.28570557,-4.046875,-8.109375,-2.9375
1696243148801,0.19213867,-0.87213135,-0.29205322,-3.875,-12.03125,-2.09375
1696243148841,0.17504883,-0.88409424,-0.2798462,-3.109375,-14.71875,0.125
1696243148880,0.22998047,-0.8999634,-0.30059814,-5.96875,-19.40625,1.265625
1696243148921,0.2409668,-0.99713135,-0.21417236,-5.53125,-7.28125,6.375
1696243148961,0.33007812,-0.9949341,-0.05718994,4.375,-4.90625,8.953125
1696243149002,0.16259766,-0.90582275,-0.22271729,-3.484375,-4.8125,2.265625
1696243149042,0.23876953,-0.7258911,-0.3196411,-3.359375,0.109375,-1.65625
1696243149060,0.34716797,-0.8442993,-0.2678833,1.421875,1.015625,9.28125
1696243149104,0.36132812,-0.93634033,-0.18218994,4.71875,-2.921875,10.8125
1696243149145,0.36743164,-0.92193604,-0.20025635,0.4375,-3.453125,1.875
1696243149182,0.36791992,-0.847229,-0.2041626,-3.28125,1.765625,3.453125
1696243149221,0.34643555,-0.8792114,-0.24371338,-6.15625,2.65625,5.59375
1696243149265,0.37695312,-0.86968994,-0.21026611,-2.03125,4.375,2.5
1696243149327,0.40112305,-0.8928833,-0.21636963,-1.03125,3.03125,3.046875
1696243149340,0.4243164,-0.8731079,-0.20733643,-2.8125,2.859375,2.3125
1696243149399,0.41870117,-0.86383057,-0.20343018,-1.515625,-1.0,2.3125
1696243149419,0.42138672,-0.8677368,-0.20635986,-0.5,-3.6875,2.375
1696243149483,0.4020996,-0.8460083,-0.2078247,-1.515625,-4.84375,1.265625
1696243149500,0.3635254,-0.86431885,-0.19927979,-0.09375,-4.96875,1.71875
1696243149542,0.36035156,-0.894104,-0.20269775,-1.140625,-4.1875,2.140625
1696243149581,0.3395996,-0.9065552,-0.19122314,-2.078125,-0.59375,0.875
1696243149622,0.38330078,-0.8965454,-0.17681885,-3.0,-0.078125,1.078125
1696243149661,0.35229492,-0.89849854,-0.15679932,-4.296875,-1.875,-0.484375
1696243149701,0.33862305,-0.8989868,-0.16607666,-4.125,-1.4375,-0.421875
1696243149762,0.36450195,-0.88775635,-0.15802002,-1.375,-2.578125,-0.109375
1696243149780,0.35791016,-0.89556885,-0.124572754,-4.125,0.859375,-0.234375
1696243149821,0.33740234,-0.8911743,-0.18145752,-7.125,-0.484375,-2.28125
1696243149862,0.3623047,-0.8740845,-0.11968994,-3.59375,-0.484375,-2.203125
1696243149901,0.3486328,-0.8909302,-0.13067627,-3.109375,0.96875,-1.3125
1696243149942,0.35180664,-0.8657837,-0.13555908,-4.375,1.953125,-3.875
1696243149982,0.36328125,-0.8723755,-0.10284424,-1.765625,3.296875,-2.984375
1696243150022,0.30810547,-0.90216064,-0.074279785,-1.046875,6.953125,-4.734375
1696243150061,0.24902344,-0.8789673,-0.10333252,-2.578125,10.734375,-8.578125
1696243150101,0.24291992,-0.8826294,-0.10675049,-2.921875,12.75,-8.75
1696243150161,0.25927734,-0.9295044,-0.10308838,1.640625,13.390625,-5.953125
1696243150201,0.21923828,-0.92755127,-0.07330322,3.671875,17.984375,-6.40625
1696243150219,0.1928711,-0.8928833,-0.10308838,4.4375,20.40625,-6.734375
1696243150261,0.2849121,-0.9680786,-0.28424072,0.25,8.9375,-4.609375
1696243150322,0.5373535,-0.97076416,-0.28399658,19.046875,2.0625,6.421875
1696243150340,0.18457031,-0.92266846,-0.18658447,14.625,5.921875,13.3125
1696243150405,0.19848633,-0.7192993,-0.16998291,4.859375,0.5625,-6.375
1696243150409,0.3935547,-0.92388916,-0.24786377,-4.9375,-3.046875,10.3125
1696243150442,0.3803711,-1.0322876,-0.2564087,1.8125,-3.0,7.890625
1696243150484,0.16723633,-0.8882446,-0.2871704,6.84375,0.515625,-3.0625
1696243150525,0.26733398,-0.73272705,-0.31988525,6.828125,2.578125,3.875
1696243150561,0.34301758,-0.8291626,-0.34942627,6.828125,1.265625,10.3125
1696243150602,0.328125,-0.86260986,-0.36627197,7.515625,1.671875,7.015625
1696243150641,0.32983398,-0.86505127,-0.36138916,7.984375,0.796875,9.484375
1696243150686,0.30639648,-0.86968994,-0.32720947,5.453125,3.265625,8.015625
1696243150743,0.29516602,-0.909729,-0.30963135,1.765625,3.9375,6.390625
1696243150760,0.28466797,-0.9187622,-0.32354736,-0.3125,6.578125,3.484375
1696243150802,0.3569336,-0.8897095,-0.33502197,0.15625,5.59375,1.84375
1696243150842,0.3161621,-0.87286377,-0.31329346,-0.21875,5.546875,1.515625
1696243150881,0.29516602,-0.87384033,-0.34161377,-3.109375,6.3125,-1.53125
1696243150923,0.35058594,-0.8574829,-0.35333252,-3.703125,6.28125,-1.84375
1696243150962,0.3203125,-0.85894775,-0.32843018,-3.1875,4.03125,-1.734375
1696243151001,0.30737305,-0.85528564,-0.3110962,-3.203125,0.359375,-2.90625
1696243151041,0.29882812,-0.85479736,-0.34283447,-6.671875,3.015625,-1.9375
1696243151081,0.29663086,-0.86676025,-0.29937744,-1.28125,0.96875,-3.3125
1696243151121,0.26782227,-0.8713989,-0.31793213,-2.21875,1.6875,-2.09375
1696243151161,0.2861328,-0.8501587,-0.3032837,-2.90625,0.6875,-2.4375
1696243151201,0.25146484,-0.8753052,-0.30963135,-3.796875,-0.578125,-1.65625
1696243151242,0.26953125,-0.8875122,-0.31158447,-3.59375,-1.140625,-1.90625
1696243151282,0.25708008,-0.88360596,-0.29473877,-3.328125,-0.484375,-1.09375
1696243151323,0.26000977,-0.8899536,-0.28155518,-3.953125,-0.15625,-0.78125
1696243151382,0.23779297,-0.9043579,-0.28375244,-3.25,-1.625,-0.71875
1696243151400,0.23657227,-0.87872314,-0.2930298,-3.78125,-1.328125,-1.015625
1696243151441,0.27001953,-0.87872314,-0.27227783,-2.71875,-3.21875,0.5
1696243151482,0.21777344,-0.91656494,-0.25299072,-3.6875,-5.078125,0.78125
1696243151522,0.23779297,-0.925354,-0.25811768,-5.28125,-6.390625,0.265625
1696243151564,0.24487305,-0.92633057,-0.24029541,-7.109375,-8.78125,0.421875
1696243151601,0.24609375,-0.89678955,-0.22027588,-10.453125,-16.484375,-1.203125
1696243151644,0.25317383,-0.89434814,-0.30645752,-14.703125,-23.875,0.859375
1696243151680,0.3317871,-1.0166626,-0.09234619,-11.46875,-5.625,7.265625
1696243151702,0.32861328,-0.9204712,0.020446777,4.09375,-1.09375,12.609375
1696243151764,0.2097168,-0.86187744,-0.19024658,-4.53125,-9.296875,1.859375
1696243151780,0.32666016,-0.73760986,-0.30426025,-3.0,-0.125,0.265625
1696243151845,0.3815918,-0.8533325,-0.23199463,1.0,2.3125,10.5625
1696243151880,0.34326172,-0.9961548,-0.121398926,0.828125,0.84375,10.640625
1696243151902,0.38012695,-0.91900635,-0.19146729,-3.8125,-4.140625,0.375
1696243151944,0.4194336,-0.82696533,-0.17877197,-3.796875,3.109375,3.796875
1696243151981,0.41210938,-0.8579712,-0.14630127,-4.65625,6.609375,7.515625
1696243152024,0.3798828,-0.91290283,-0.15924072,-7.734375,5.6875,1.328125
1696243152062,0.42944336,-0.90509033,-0.15167236,-8.28125,10.75,0.90625
1696243152102,0.390625,-0.90289307,-0.1506958,-10.140625,13.125,1.65625
1696243152142,0.34155273,-0.9199829,-0.14434814,-11.671875,18.71875,1.25
1696243152182,0.3491211,-0.91290283,-0.12652588,-14.171875,22.3125,0.78125
1696243152223,0.37060547,-0.9175415,-0.09161377,-17.0,27.875,0.46875
1696243152282,0.30004883,-0.93096924,-0.08843994,-21.375,32.09375,-0.34375
1696243152300,0.25219727,-0.9780884,-0.06939697,-23.84375,39.25,-2.65625
1696243152364,0.2368164,-0.97247314,-0.14923096,-24.40625,40.21875,-4.59375
1696243152380,0.29467773,-0.9651489,-0.061828613,-21.390625,47.34375,-4.203125
1696243152422,0.21923828,-0.99053955,-0.11016846,-24.125,42.34375,-5.84375
1696243152466,0.27441406,-0.94976807,-0.09210205,-24.15625,47.4375,-6.828125
1696243152522,0.32763672,-0.94854736,-0.035949707,-19.5625,45.46875,-8.0625
1696243152543,0.23828125,-0.92510986,-0.031066895,-22.125,39.15625,-10.9375
1696243152605,0.22167969,-0.9060669,-0.044006348,-20.46875,36.28125,-14.125
1696243152619,0.29125977,-0.897522,-0.089660645,-17.796875,28.796875,-15.328125
1696243152664,0.3149414,-0.9336548,-0.054992676,-12.8125,19.828125,-11.09375
1696243152704,0.24731445,-0.95880127,-0.038391113,-9.578125,9.046875,-9.3125
1696243152745,0.122802734,-0.9102173,-0.0064086914,-6.84375,17.796875,-6.984375
1696243152782,0.04736328,-0.85479736,0.012390137,-8.53125,21.234375,-10.484375
1696243152822,0.055908203,-0.98028564,-0.03375244,-9.65625,27.265625,-10.96875
1696243152863,0.10546875,-1.0574341,-0.02130127,-7.0625,30.078125,-10.0625
1696243152901,0.008544922,-0.9927368,-0.058166504,-1.5625,33.96875,-9.953125
1696243152962,-0.0036621094,-0.9089966,-0.05279541,0.109375,34.484375,-9.203125
1696243152980,-0.016845703,-0.958313,-0.07989502,-0.578125,35.578125,-6.40625
1696243153001,-0.053955078,-0.97247314,-0.14190674,-6.0625,40.921875,-6.265625
1696243153041,-0.04296875,-1.0410767,-0.08795166,-2.75,47.671875,-3.78125
1696243153082,-0.13623047,-1.0269165,-0.06500244,-6.8125,52.375,-5.21875
1696243153123,-0.06713867,-0.94732666,-0.112854004,-12.453125,52.5,-6.0625
1696243153159,0.0061035156,-0.99420166,-0.11407471,-11.5,53.671875,-4.046875
1696243153201,0.10424805,-1.0735474,-0.022766113,-10.078125,48.328125,-3.28125
1696243153242,0.044433594,-1.0122681,0.036315918,-2.296875,43.8125,-7.75
1696243153282,0.03491211,-0.8323364,0.0040893555,11.484375,44.75,-2.3125
1696243153321,-0.05102539,-0.95513916,0.12786865,-2.859375,48.296875,-0.21875
1696243153361,-0.053466797,-1.2595825,0.055847168,-1.90625,50.28125,-1.875
1696243153423,0.09667969,-1.085022,0.034851074,2.625,52.703125,0.859375
1696243153440,0.087646484,-0.8899536,0.066345215,1.203125,46.625,4.734375
1696243153484,-0.037841797,-0.8340454,0.055114746,0.21875,44.796875,2.890625
1696243153522,-0.02734375,-0.86798096,0.010925293,6.390625,52.59375,5.25
1696243153562,0.087646484,-0.99664307,0.04827881,7.03125,55.421875,7.75
1696243153604,0.09399414,-1.036438,0.039733887,0.890625,47.65625,1.875
1696243153645,0.033691406,-0.9776001,0.025817871,0.5625,45.984375,0.90625
1696243153681,0.015380859,-1.0471802,-0.014465332,-1.34375,39.078125,-2.078125
1696243153721,0.09643555,-1.0718384,-0.03326416,1.734375,33.21875,-0.875
1696243153761,0.099853516,-0.93927,-0.013000488,1.703125,29.546875,4.96875
1696243153803,0.05883789,-0.8880005,0.029724121,-1.234375,23.484375,0.015625
1696243153843,0.020263672,-1.0039673,-0.020324707,-1.25,19.03125,0.484375
1696243153881,0.07714844,-1.024231,-0.019104004,0.875,17.265625,1.265625
1696243153924,0.0107421875,-0.9741821,0.002380371,1.890625,13.8125,1.484375
1696243153961,-0.013916016,-0.97247314,-0.10455322,3.453125,7.96875,2.0
1696243154001,-0.0056152344,-1.0293579,-0.0015258789,-3.5625,10.078125,0.28125
1696243154041,-0.16381836,-1.0354614,-0.058166504,-4.59375,11.71875,-2.40625
1696243154083,-0.18139648,-0.9265747,-0.034973145,-4.25,15.65625,-6.96875
1696243154121,-0.10522461,-0.9439087,-0.0010375977,-9.578125,19.53125,-3.59375
1696243154162,-0.05126953,-0.9717407,-0.05645752,-12.03125,13.796875,-5.484375
1696243154204,0.0041503906,-1.0130005,-0.041809082,-6.453125,14.015625,-1.21875
1696243154242,0.12011719,-1.1187134,0.12664795,-2.03125,23.109375,3.03125
1696243154281,-0.024169922,-0.98028564,0.054626465,-6.375,10.484375,0.90625
1696243154323,-0.03564453,-0.87091064,0.026794434,0.71875,10.296875,-0.546875
1696243154340,0.03466797,-0.9807739,0.06951904,3.609375,8.515625,4.25
1696243154382,0.0087890625,-1.0588989,0.07879639,-3.796875,3.734375,1.234375
1696243154420,-0.040527344,-0.9937134,0.0836792,-7.171875,-0.734375,-1.8125
1696243154463,-0.021728516,-0.9505005,0.055603027,-1.953125,0.5,-0.90625
1696243154503,-7.324219E-4,-0.96295166,0.04949951,-0.203125,1.0,1.390625
1696243154542,-0.033691406,-1.005188,0.06854248,-1.4375,-1.296875,0.421875
1696243154603,-0.026855469,-0.9981079,0.077819824,-1.328125,-2.296875,-0.203125
1696243154619,-0.0068359375,-0.9841919,0.06903076,-0.265625,-2.125,0.4375
1696243154662,-0.024169922,-0.9907837,0.08099365,0.703125,-1.984375,0.921875
1696243154701,-0.03515625,-0.9854126,0.081970215,-0.578125,-1.4375,0.65625
1696243154761,-0.036132812,-0.9800415,0.07342529,-1.578125,-0.3125,-0.171875
1696243154780,-0.018310547,-0.9973755,0.08050537,-0.96875,1.453125,0.421875
1696243154841,-0.014160156,-0.9898071,0.08099365,1.078125,0.890625,0.53125
1696243154862,-0.015625,-0.9805298,0.093444824,0.859375,1.140625,0.78125
1696243154903,-0.0041503906,-0.98809814,0.059265137,-6.09375,2.265625,-0.578125
1696243154943,-0.02734375,-0.99298096,0.11077881,-0.109375,0.828125,0.3125
1696243154982,-0.011962891,-0.99957275,0.07537842,-1.25,0.734375,-0.140625
1696243155022,-0.0041503906,-0.9727173,0.08343506,-2.84375,1.46875,0.109375
1696243155062,-0.025634766,-0.98760986,0.09320068,-0.984375,1.0625,0.328125
1696243155103,-0.020019531,-0.98809814,0.08074951,0.203125,0.578125,0.625
1696243155141,-0.01953125,-0.9866333,0.07904053,-0.578125,0.25,-0.171875
1696243155181,-0.03149414,-0.9907837,0.08074951,0.28125,0.0,0.265625
1696243155222,-0.020263672,-0.98321533,0.07977295,1.078125,0.328125,0.171875
1696243155284,-0.022216797,-0.991272,0.09320068,0.859375,0.140625,0.25
1696243155300,-0.038085938,-0.99224854,0.08074951,0.203125,-0.46875,-0.03125
1696243155363,-0.02758789,-0.9924927,0.085632324,0.359375,0.5,-0.265625
1696243155380,-0.028564453,-0.9817505,0.078552246,0.296875,-0.28125,-0.25
1696243155443,-0.02758789,-0.9890747,0.08685303,2.640625,-0.1875,0.140625
1696243155480,-0.009521484,-0.9710083,0.077819824,4.453125,-1.59375,-0.21875
1696243155500,-0.009765625,-0.9939575,0.049743652,2.0,-0.484375,-0.546875
1696243155541,-0.075927734,-0.9866333,0.10760498,2.6875,2.578125,0.265625
1696243155581,-0.12695312,-1.0132446,0.113220215,3.9375,0.921875,-0.546875
1696243155622,-0.12402344,-0.95147705,0.098083496,7.5625,10.3125,-0.375
1696243155640,-0.068603516,-0.9019165,0.0038452148,7.75,13.90625,2.5
1696243155682,-0.040527344,-0.9234009,-0.06085205,15.171875,15.984375,8.5625
1696243155722,-0.04345703,-0.9468384,-0.10333252,19.296875,16.90625,11.71875
1696243155761,0.02734375,-0.94488525,-0.159729,22.90625,19.921875,17.21875
1696243155801,0.13500977,-0.93927,-0.097229004,22.234375,17.75,25.109375
1696243155840,0.045166016,-0.98760986,-0.042053223,16.390625,13.796875,27.796875
1696243155885,0.014160156,-0.9812622,-0.120910645,14.578125,6.59375,25.375
1696243155921,0.19604492,-0.8945923,-0.17730713,20.84375,-1.125,29.21875
1696243155963,0.36254883,-0.8948364,-0.14483643,20.78125,-4.328125,35.203125
1696243156001,0.3227539,-0.93218994,0.008483887,19.015625,-3.40625,36.25
1696243156041,0.13305664,-0.9495239,-0.09112549,14.265625,-5.5,23.203125
1696243156082,0.28320312,-0.9483032,-0.24542236,13.421875,1.265625,18.734375
1696243156122,0.55200195,-0.9104614,-0.27374268,15.171875,2.84375,21.953125
1696243156163,0.39135742,-0.9920044,-0.15826416,16.390625,0.875,21.828125
1696243156203,0.1616211,-0.95196533,-0.2078247,7.328125,5.65625,9.265625
1696243156244,0.29907227,-0.8267212,-0.21295166,2.34375,17.203125,2.765625
1696243156282,0.4050293,-0.9187622,-0.44000244,-0.390625,9.859375,-0.328125
1696243156326,0.59716797,-0.9963989,-0.30181885,5.53125,7.265625,-1.390625
1696243156362,0.35961914,-0.92437744,-0.22174072,5.484375,4.1875,9.15625
1696243156401,0.22802734,-0.70318604,-0.26763916,-2.625,0.828125,-12.578125
1696243156442,0.34228516,-0.76153564,-0.27886963,-4.84375,6.78125,-2.40625
1696243156483,0.4128418,-0.8960571,-0.3081665,-3.3125,6.3125,0.4375
1696243156522,0.2529297,-0.94781494,-0.2949829,-3.390625,10.140625,-6.765625
1696243156562,0.203125,-0.8479614,-0.3796997,-2.765625,14.3125,-8.703125
1696243156601,0.28857422,-0.84454346,-0.3460083,-0.03125,15.25,-4.0
1696243156640,0.2709961,-0.88409424,-0.28131104,1.984375,10.15625,-4.203125
1696243156682,0.24316406,-0.8989868,-0.36383057,-4.15625,3.15625,-5.359375
1696243156721,0.24291992,-0.90826416,-0.30010986,-1.859375,2.921875,-3.96875
1696243156760,0.1796875,-0.88531494,-0.34088135,0.578125,4.984375,-4.25
1696243156803,0.21704102,-0.83599854,-0.3587036,-2.59375,7.765625,-2.0
1696243156840,0.2548828,-0.8496704,-0.33428955,-4.609375,3.296875,0.546875
1696243156882,0.12231445,-0.9338989,-0.3423462,-8.28125,-0.234375,-2.234375
1696243156923,0.21313477,-0.9380493,-0.2930298,-11.1875,0.796875,-4.109375
1696243156939,0.24633789,-0.9324341,-0.269104,-10.75,-0.890625,0.515625
1696243157005,0.18798828,-0.89019775,-0.27911377,-14.328125,-11.765625,-1.421875
1696243157021,0.2019043,-0.79693604,-0.31671143,-15.9375,-19.5625,3.96875
1696243157062,0.3203125,-0.9343872,-0.35186768,-5.328125,-24.15625,9.484375
1696243157103,0.47680664,-1.0425415,0.13153076,23.75,16.203125,25.15625
1696243157140,-0.014404297,-0.92852783,-0.28375244,-7.25,-9.171875,7.1875
1696243157184,0.08227539,-0.6235962,-0.4656372,-7.265625,11.734375,-3.890625
1696243157224,0.638916,-0.6392212,-0.38726807,9.96875,17.859375,19.234375
1696243157262,0.47680664,-1.0115356,-0.24151611,6.484375,-3.1875,24.046875
1696243157301,0.30273438,-1.1550903,-0.14971924,0.5625,-9.0625,3.4375
1696243157342,0.30639648,-0.84552,-0.25006104,-4.171875,2.171875,1.53125
1696243157383,0.36572266,-0.74102783,-0.2678833,-6.671875,3.140625,5.0625
1696243157422,0.34936523,-0.88604736,-0.26934814,-5.40625,2.125,3.265625
1696243157462,0.40820312,-0.940979,-0.27618408,-1.84375,1.671875,-0.984375
1696243157501,0.45288086,-0.89263916,-0.222229,-3.25,4.296875,0.6875
1696243157542,0.3840332,-0.84039307,-0.24346924,-3.265625,-1.9375,1.84375
1696243157584,0.40673828,-0.861145,-0.25274658,-4.84375,-2.640625,2.265625
1696243157645,0.42016602,-0.88604736,-0.24151611,-4.203125,-3.828125,0.328125
1696243157682,0.40722656,-0.8584595,-0.22833252,-3.140625,-3.21875,-0.59375
1696243157700,0.4567871,-0.85357666,-0.2197876,-3.078125,-6.984375,0.109375
1696243157741,0.41748047,-0.8670044,-0.15631104,-2.53125,-6.734375,-0.421875
1696243157781,0.35009766,-0.88165283,-0.16534424,-7.5625,-4.15625,-4.75
1696243157822,0.38085938,-0.86602783,-0.21295166,-8.71875,-4.484375,-5.984375
1696243157861,0.34838867,-0.850647,-0.14019775,-2.125,-2.421875,-6.84375
1696243157903,0.37060547,-0.8845825,-0.14874268,0.125,-2.359375,-5.015625
1696243157940,0.33422852,-0.83599854,-0.12384033,-2.328125,0.328125,-4.796875
1696243157981,0.27246094,-0.7962036,-0.05230713,1.8125,5.640625,-4.96875
1696243158022,0.21777344,-0.77716064,-0.07525635,2.328125,8.015625,-5.046875
1696243158061,0.2487793,-0.84161377,-0.08673096,1.640625,12.328125,-6.9375
1696243158101,0.20507812,-0.89263916,-0.15142822,4.375,20.21875,-6.921875
1696243158143,0.3076172,-1.0918579,-0.4060669,-0.671875,1.984375,-11.796875
1696243158184,0.5053711,-0.9590454,-0.3086548,10.3125,3.5,10.171875
1696243158223,0.24438477,-0.7859497,-0.30670166,20.0,9.828125,15.171875
1696243158260,0.34936523,-0.784729,-0.16192627,16.046875,2.109375,-3.359375
1696243158280,0.453125,-1.0252075,-0.1897583,0.09375,-10.796875,9.875
1696243158323,0.32055664,-0.94732666,-0.27301025,-5.515625,-7.015625,-1.203125
1696243158360,0.25048828,-0.8677368,-0.41070557,0.1875,-1.8125,-2.296875
1696243158405,0.30029297,-0.8296509,-0.26470947,10.5,-0.015625,0.3125
1696243158442,0.37060547,-0.90460205,-0.26690674,6.390625,-4.859375,3.046875
1696243158482,0.34545898,-0.9038696,-0.23565674,2.46875,-3.34375,-0.84375
1696243158521,0.2512207,-0.9180298,-0.24249268,1.28125,-2.8125,-4.1875
1696243158563,0.25976562,-0.88531494,-0.25054932,2.8125,1.046875,-5.953125
1696243158602,0.26342773,-0.88897705,-0.29864502,0.96875,5.6875,-7.0
1696243158641,0.23730469,-0.89508057,-0.31207275,-0.921875,5.25,-10.40625
1696243158682,0.24169922,-0.8945923,-0.30963135,-1.296875,5.53125,-9.453125
1696243158722,0.2529297,-0.8838501,-0.3369751,-2.953125,2.1875,-10.9375
1696243158761,0.22241211,-0.86016846,-0.33184814,-2.375,2.578125,-7.640625
1696243158801,0.18896484,-0.8557739,-0.34161377,-1.859375,2.8125,-6.296875
1696243158843,0.2019043,-0.9014282,-0.3562622,-0.875,5.6875,-4.859375
1696243158881,0.23168945,-0.89630127,-0.29351807,4.25,6.4375,-3.8125
1696243158922,0.20092773,-0.9055786,-0.34869385,-4.078125,3.9375,-2.953125
1696243158963,0.15283203,-0.94244385,-0.27593994,-2.21875,2.234375,-2.703125
1696243159002,0.15649414,-0.9151001,-0.31085205,-3.71875,-0.296875,-3.0
1696243159041,0.15917969,-0.8821411,-0.28204346,0.703125,-1.15625,-0.421875
1696243159081,0.13476562,-0.8550415,-0.32867432,-2.03125,-3.5,0.75
1696243159125,0.14892578,-0.8814087,-0.26446533,2.6875,0.84375,4.125
1696243159163,0.12915039,-0.9026489,-0.35479736,-1.0,1.4375,3.8125
1696243159202,0.16186523,-0.80914307,-0.3352661,-0.625,-3.875,5.875
1696243159242,0.1862793,-0.8464966,-0.3250122,2.703125,-8.125,6.8125
1696243159281,0.2175293,-0.82818604,-0.3665161,-0.015625,-15.828125,8.015625
1696243159324,0.2619629,-0.89263916,-0.3743286,2.71875,-19.5,12.140625
1696243159361,0.3552246,-1.0559692,-0.08868408,6.59375,-3.453125,19.078125
1696243159402,0.14160156,-0.973938,-0.2197876,-1.625,-11.0,16.078125
1696243159442,0.2331543,-0.79278564,-0.28570557,-7.609375,-3.78125,5.4375
1696243159482,0.35058594,-0.7817993,-0.41949463,1.4375,0.71875,7.890625
1696243159522,0.32910156,-0.9170532,-0.25787354,4.890625,5.65625,9.984375
1696243159560,0.3798828,-0.9324341,-0.22515869,-1.671875,4.671875,8.09375
1696243159579,0.39160156,-0.82110596,-0.27252197,-6.765625,3.375,3.921875
1696243159622,0.37670898,-0.8357544,-0.28302002,-6.171875,2.28125,6.5625
1696243159704,0.4255371,-0.86968994,-0.23468018,-2.046875,5.15625,7.421875
1696243159709,0.42822266,-0.8701782,-0.27398682,-3.453125,3.46875,5.109375
1696243159745,0.44750977,-0.84503174,-0.2559204,-3.765625,2.3125,5.921875
1696243159801,0.4267578,-0.8648071,-0.21514893,2.90625,3.953125,8.421875
1696243159820,0.45043945,-0.835022,-0.31793213,0.90625,-3.578125,5.078125
1696243159864,0.4609375,-0.7974243,-0.27593994,3.40625,-4.109375,4.828125
1696243159903,0.44091797,-0.8052368,-0.25177002,1.859375,-4.125,3.34375
1696243159965,0.4416504,-0.8936157,-0.222229,-2.171875,-5.8125,2.609375
1696243159979,0.37426758,-0.93341064,-0.20953369,-7.59375,-2.375,-1.984375
1696243160024,0.40039062,-0.8804321,-0.22857666,-4.875,-1.453125,-3.234375
1696243160065,0.43798828,-0.8098755,-0.16583252,-1.203125,-4.375,-2.0
1696243160101,0.42163086,-0.85162354,-0.21270752,-6.0,-5.765625,-3.4375
1696243160143,0.38354492,-0.8530884,-0.14434814,0.328125,-3.515625,-3.03125
1696243160180,0.35351562,-0.81427,-0.13287354,-0.59375,1.875,-3.5625
1696243160222,0.33520508,-0.80841064,-0.16363525,-4.953125,1.875,-6.578125
1696243160262,0.33911133,-0.8460083,-0.16485596,-2.578125,6.3125,-5.40625
1696243160325,0.30444336,-0.8237915,-0.10089111,3.921875,14.234375,-3.859375
1696243160341,0.18945312,-0.7761841,-0.13824463,4.0625,21.609375,-6.296875
1696243160382,0.2705078,-0.8682251,-0.39752197,-6.1875,17.8125,-9.921875
1696243160445,0.6472168,-1.0628052,-0.4570923,-1.1875,-19.203125,-3.765625
1696243160462,0.44506836,-1.0811157,-0.3735962,27.140625,17.9375,26.875
1696243160502,0.23339844,-0.5425415,-0.23052979,23.625,4.328125,-8.46875
1696243160563,0.4194336,-0.66778564,-0.25616455,5.609375,-7.78125,4.40625
1696243160603,0.4831543,-0.9295044,-0.31158447,-13.171875,-22.078125,13.078125
1696243160620,0.36523438,-1.0684204,-0.37945557,0.46875,-1.421875,-1.8125
1696243160664,0.36767578,-0.7666626,-0.35455322,7.515625,0.078125,-2.109375
1696243160703,0.41967773,-0.72076416,-0.33428955,8.265625,-10.4375,0.578125
1696243160744,0.40161133,-0.86602783,-0.30474854,3.453125,-12.765625,3.3125
1696243160782,0.3720703,-0.8977661,-0.28033447,0.453125,-8.3125,0.46875
1696243160825,0.34643555,-0.8587036,-0.30645752,0.0,-7.28125,-3.890625
1696243160882,0.32104492,-0.8484497,-0.2901001,-0.078125,0.265625,-4.296875
1696243160901,0.3137207,-0.8418579,-0.2798462,1.390625,1.390625,-4.71875
1696243160922,0.38110352,-0.8442993,-0.25079346,2.75,2.53125,-4.46875
1696243160963,0.36132812,-0.8533325,-0.286438,-0.234375,3.265625,-4.015625
1696243161002,0.34399414,-0.8345337,-0.2522583,2.328125,1.671875,-6.203125
1696243161041,0.31811523,-0.87213135,-0.30792236,-1.546875,1.859375,-5.59375
1696243161081,0.31762695,-0.8530884,-0.3118286,-1.1875,6.21875,-5.953125
1696243161124,0.30664062,-0.86383057,-0.3657837,-2.25,3.375,-5.046875
1696243161161,0.3317871,-0.8765259,-0.32452393,-0.625,5.078125,-2.875
1696243161201,0.2890625,-0.88946533,-0.3652954,-0.8125,2.203125,-1.640625
1696243161242,0.2841797,-0.8369751,-0.3731079,-0.375,6.015625,-0.875
1696243161283,0.3166504,-0.80133057,-0.32086182,0.875,7.734375,-1.1875
1696243161322,0.2932129,-0.8772583,-0.34259033,2.3125,4.90625,-2.78125
1696243161362,0.29345703,-0.89019775,-0.33013916,2.5625,2.5625,-2.78125
1696243161403,0.24902344,-0.8916626,-0.35064697,1.875,-1.578125,-3.71875
1696243161442,0.21948242,-0.87042236,-0.3513794,2.4375,-0.03125,-2.75
1696243161485,0.21166992,-0.864563,-0.35455322,2.640625,3.015625,-1.9375
1696243161523,0.2331543,-0.85235596,-0.37139893,1.671875,2.203125,-1.90625
1696243161563,0.24633789,-0.8386841,-0.3875122,0.84375,0.453125,-0.40625
1696243161600,0.22924805,-0.83062744,-0.3880005,1.484375,-2.90625,0.265625
1696243161641,0.22949219,-0.84503174,-0.36236572,0.671875,-5.65625,4.03125
1696243161681,0.24658203,-0.8574829,-0.364563,-2.484375,-9.765625,4.359375
1696243161722,0.23779297,-0.85479736,-0.38189697,-0.53125,-14.25,5.40625
1696243161762,0.27319336,-0.8899536,-0.3164673,0.15625,-10.84375,9.28125
1696243161801,0.32910156,-0.9492798,-0.2942505,-3.421875,-5.328125,9.484375
1696243161842,0.28759766,-0.8386841,-0.25933838,6.703125,-0.328125,8.6875
1696243161882,0.28833008,-0.7251587,-0.35992432,2.921875,2.3125,2.765625
1696243161923,0.43774414,-0.76763916,-0.4151001,2.578125,-2.125,2.984375
1696243161960,0.42993164,-0.9348755,-0.34869385,5.46875,-0.75,12.875
1696243162004,0.32495117,-0.85943604,-0.33380127,1.109375,-1.21875,3.265625
1696243162041,0.33691406,-0.7649536,-0.34820557,-3.671875,1.4375,2.828125
1696243162081,0.41503906,-0.81451416,-0.33917236,-6.203125,1.875,6.28125
1696243162122,0.40429688,-0.85894775,-0.29742432,-5.125,2.5625,2.5625
1696243162164,0.39819336,-0.8345337,-0.31280518,-3.640625,-0.03125,1.421875
1696243162202,0.42578125,-0.84161377,-0.30645752,-6.984375,-3.203125,4.515625
1696243162221,0.3894043,-0.8201294,-0.31085205,-5.125,-7.546875,4.09375
1696243162262,0.4104004,-0.8286743,-0.33624268,-4.984375,-8.46875,4.390625
1696243162301,0.45483398,-0.85406494,-0.28179932,-4.359375,-5.6875,6.625
1696243162346,0.4272461,-0.87945557,-0.24298096,-6.125,0.28125,6.671875
1696243162380,0.41845703,-0.8323364,-0.26397705,-5.015625,-2.046875,4.328125
1696243162421,0.45947266,-0.8208618,-0.2456665,-6.0,-2.09375,6.53125
1696243162462,0.43896484,-0.835022,-0.26031494,-5.28125,-2.953125,2.0625
1696243162502,0.5048828,-0.7908325,-0.24810791,-2.546875,-5.71875,2.40625
1696243162562,0.545166,-0.7944946,-0.22076416,-4.890625,-6.421875,3.828125
1696243162580,0.4375,-0.86309814,-0.22515869,-9.65625,-7.6875,-0.03125
1696243162642,0.39453125,-0.847229,-0.15533447,-6.71875,-3.09375,-1.984375
1696243162683,0.43408203,-0.8308716,-0.1531372,-5.734375,-1.53125,-1.0
1696243162701,0.47998047,-0.82525635,-0.12310791,-7.453125,-0.796875,-3.859375
1696243162742,0.4404297,-0.8340454,-0.10772705,-5.5,-2.09375,-3.546875
1696243162801,0.39990234,-0.8128052,-0.105041504,-2.625,0.046875,-5.015625
1696243162821,0.3659668,-0.83428955,-0.11065674,-0.609375,0.484375,-6.265625
1696243162861,0.37158203,-0.8855591,-0.10870361,-1.1875,5.546875,-5.0625
1696243162903,0.27075195,-0.82891846,-0.02960205,4.1875,17.625,-5.28125
1696243162941,0.18701172,-0.7546997,-0.19146729,2.625,23.265625,-7.421875
1696243162981,0.46875,-1.0046997,-0.50250244,-2.09375,-6.953125,-6.40625
1696243163025,0.7609863,-0.9741821,-0.23931885,20.296875,14.4375,20.140625
1696243163062,0.16845703,-0.7642212,-0.31695557,19.578125,6.09375,18.328125
1696243163104,0.2722168,-0.3904419,-0.3201294,14.734375,4.953125,-8.234375
1696243163163,0.67089844,-0.6995239,-0.31817627,-0.453125,-10.625,21.6875
1696243163180,0.6320801,-1.0923462,-0.35577393,3.203125,-11.625,17.796875
1696243163243,0.34692383,-0.95635986,-0.35333252,8.9375,0.515625,-1.578125
1696243163260,0.4489746,-0.6021118,-0.36016846,8.109375,-1.609375,0.0
1696243163301,0.5510254,-0.7752075,-0.33258057,10.390625,-10.1875,4.984375
1696243163364,0.4309082,-0.8970337,-0.3189087,1.796875,-7.09375,0.859375
1696243163403,0.4248047,-0.86846924,-0.29986572,4.15625,-4.03125,-4.46875
1696243163420,0.43188477,-0.76031494,-0.32183838,3.21875,-1.984375,-5.171875
1696243163463,0.37402344,-0.7576294,-0.25836182,4.4375,0.875,-5.1875
1696243163522,0.40283203,-0.88531494,-0.30255127,3.125,0.625,-4.421875
1696243163541,0.4609375,-0.9182739,-0.24810791,3.03125,7.703125,-6.71875
1696243163562,0.40771484,-0.79473877,-0.26324463,0.375,1.125,-11.890625
1696243163603,0.37402344,-0.7522583,-0.36846924,0.125,-2.09375,-13.609375
1696243163643,0.46777344,-0.7476196,-0.39337158,2.140625,1.875,-5.09375
1696243163683,0.41748047,-0.8237915,-0.38433838,3.25,-2.296875,-6.75
1696243163721,0.4189453,-0.8694458,-0.38165283,4.234375,-0.71875,-7.1875
1696243163761,0.38061523,-0.81622314,-0.39361572,4.453125,2.703125,-4.53125
1696243163801,0.3474121,-0.7901001,-0.3953247,4.109375,4.953125,-4.5625
1696243163842,0.36083984,-0.78375244,-0.4216919,2.40625,7.46875,-2.828125
1696243163884,0.38745117,-0.8135376,-0.40899658,1.359375,9.03125,-1.328125
1696243163923,0.30908203,-0.85821533,-0.41607666,0.1875,1.421875,-3.5
1696243163961,0.2775879,-0.8479614,-0.36309814,2.09375,2.1875,-5.5625
1696243164002,0.2722168,-0.7925415,-0.42218018,-1.546875,4.5625,-1.875
1696243164044,0.2746582,-0.7710571,-0.378479,1.375,4.890625,2.53125
1696243164082,0.26367188,-0.847229,-0.41363525,-1.75,3.828125,1.765625
1696243164122,0.3334961,-0.83258057,-0.4187622,-3.078125,1.734375,1.171875
1696243164161,0.27490234,-0.78009033,-0.38458252,-2.5625,-5.1875,2.859375
1696243164202,0.25146484,-0.83917236,-0.37091064,-6.125,-10.125,3.59375
1696243164241,0.28857422,-0.88238525,-0.38653564,-9.1875,-16.8125,2.03125
1696243164284,0.3803711,-0.8362427,-0.37530518,-8.1875,-21.34375,3.015625
1696243164322,0.40161133,-0.84161377,-0.33770752,-6.0,-18.578125,5.703125
1696243164365,0.35107422,-0.9175415,-0.07159424,4.59375,1.90625,13.3125
1696243164401,0.3161621,-0.8652954,-0.33258057,-5.859375,-6.375,6.0625
1696243164442,0.36914062,-0.6338501,-0.43121338,-5.15625,2.859375,1.828125
1696243164483,0.49316406,-0.66656494,-0.3953247,6.796875,0.953125,10.78125
1696243164521,0.39892578,-0.9146118,-0.27667236,3.859375,-1.9375,12.609375
1696243164562,0.42822266,-0.9168091,-0.2876587,-3.953125,3.046875,6.546875
1696243164605,0.47558594,-0.76226807,-0.34576416,-6.5,5.359375,0.75
1696243164641,0.4831543,-0.74542236,-0.31817627,-4.28125,1.71875,7.109375
1696243164682,0.4724121,-0.80548096,-0.32061768,-7.828125,2.921875,5.171875
1696243164722,0.48779297,-0.84210205,-0.27593994,-3.84375,3.75,2.78125
1696243164762,0.53149414,-0.8218384,-0.30670166,-6.90625,2.84375,3.484375
1696243164801,0.5004883,-0.78497314,-0.26812744,-4.265625,2.609375,3.765625
1696243164821,0.52490234,-0.76153564,-0.26861572,-4.84375,-0.46875,4.640625
1696243164861,0.51171875,-0.7815552,-0.25250244,-4.875,-2.0,4.578125
1696243164924,0.47998047,-0.80670166,-0.24664307,-6.71875,1.03125,3.59375
1696243164962,0.47094727,-0.7827759,-0.25323486,-4.75,1.5,2.34375
1696243164981,0.5185547,-0.7810669,-0.26153564,-2.6875,-1.1875,2.546875
1696243165024,0.54296875,-0.76275635,-0.25689697,-1.046875,-2.234375,1.828125
1696243165061,0.54125977,-0.77423096,-0.25299072,-0.375,-5.171875,1.9375
1696243165104,0.47607422,-0.81817627,-0.22149658,-2.046875,-3.59375,-0.25
1696243165144,0.44799805,-0.81744385,-0.23077393,-2.53125,-0.453125,-3.8125
1696243165185,0.5119629,-0.7930298,-0.23150635,-1.796875,-1.5,-3.90625
1696243165222,0.5222168,-0.83258057,-0.21148682,-3.421875,-1.921875,-3.28125
1696243165262,0.45043945,-0.8545532,-0.2210083,-3.484375,-3.421875,-5.921875
1696243165302,0.47631836,-0.788147,-0.17584229,-2.875,0.78125,-6.90625
1696243165342,0.44482422,-0.78448486,-0.15753174,0.1875,-0.828125,-6.296875
1696243165406,0.41503906,-0.83551025,-0.16070557,-2.234375,2.09375,-8.1875
1696243165421,0.37475586,-0.8394165,-0.10992432,-0.09375,8.328125,-8.65625
1696243165461,0.29248047,-0.7752075,-0.08477783,3.078125,16.515625,-9.9375
1696243165504,0.20141602,-0.7234497,-0.14971924,3.765625,23.890625,-10.234375
1696243165541,0.33691406,-0.87506104,-0.50982666,-3.609375,12.15625,-10.15625
1696243165584,0.8190918,-1.0093384,-0.39898682,15.609375,-4.9375,5.15625
1696243165622,0.29296875,-1.02594,-0.3237915,26.03125,7.265625,20.5
1696243165661,0.27514648,-0.48980713,-0.24249268,16.078125,-0.625,-16.53125
1696243165701,0.48217773,-0.67266846,-0.28985596,1.15625,-10.640625,10.859375
1696243165742,0.47998047,-0.9199829,-0.38336182,-2.578125,-14.203125,15.75
1696243165804,0.33251953,-1.0195923,-0.40777588,6.625,6.484375,-5.34375
1696243165842,0.43310547,-0.66778564,-0.36090088,10.8125,0.671875,-0.703125
1696243165861,0.45751953,-0.68829346,-0.3345337,13.171875,-8.921875,5.484375
1696243165902,0.41503906,-0.8279419,-0.38287354,7.609375,-12.421875,2.9375
1696243165942,0.39672852,-0.8093872,-0.36138916,9.59375,-5.46875,3.765625
1696243165985,0.41308594,-0.79937744,-0.39093018,7.875,-3.703125,1.03125
1696243166022,0.41064453,-0.81866455,-0.3880005,4.25,-0.109375,1.28125
