# Sensor type: Respeck
# Activity type: Sitting
# Activity subtype: Normal
# Subject id: s2104454
# Notes: unprocessed
timestamp,accel_x,accel_y,accel_z,gyro_x,gyro_y,gyro_z
1696242786329,-0.092041016,-0.98321533,0.14666748,0.390625,-0.53125,0.296875
1696242786369,-0.099609375,-0.98809814,0.14129639,0.34375,-0.453125,0.265625
1696242786409,-0.095214844,-0.9805298,0.14227295,0.28125,-0.453125,0.203125
1696242786450,-0.10180664,-0.98150635,0.14154053,0.875,-0.328125,0.28125
1696242786488,-0.091552734,-0.98028564,0.14154053,0.28125,-0.421875,0.328125
1696242786529,-0.09692383,-0.9837036,0.13885498,0.25,-0.46875,0.171875
1696242786569,-0.09643555,-0.98760986,0.13421631,0.015625,-0.53125,0.140625
1696242786608,-0.095703125,-0.98809814,0.14886475,0.1875,-0.421875,0.25
1696242786670,-0.095458984,-0.9763794,0.13909912,0.015625,-0.40625,0.359375
1696242786691,-0.09350586,-0.98516846,0.13665771,-0.828125,0.328125,0.21875
1696242786729,-0.10131836,-0.98443604,0.14788818,0.140625,-0.671875,0.328125
1696242786770,-0.08544922,-0.9824829,0.12762451,-0.703125,0.234375,-0.125
1696242786811,-0.1015625,-0.9819946,0.14544678,0.703125,-0.328125,0.375
1696242786851,-0.10229492,-0.98809814,0.13861084,0.1875,-0.640625,0.375
1696242786890,-0.10058594,-0.98223877,0.13861084,0.28125,-0.4375,0.15625
1696242786930,-0.103027344,-0.9837036,0.14422607,0.21875,-0.4375,0.296875
1696242786971,-0.095214844,-0.98516846,0.13616943,-0.203125,-0.4375,0.15625
1696242787015,-0.095947266,-0.98809814,0.14349365,0.265625,-0.859375,0.296875
1696242787050,-0.091308594,-0.9849243,0.1317749,-0.515625,-0.65625,0.078125
1696242787093,-0.10180664,-0.9768677,0.14666748,-0.125,-0.640625,0.25
1696242787131,-0.09716797,-0.99005127,0.14129639,-0.40625,-1.109375,0.328125
1696242787173,-0.09741211,-0.9795532,0.13739014,-0.890625,-0.890625,0.09375
1696242787210,-0.091308594,-0.9812622,0.14202881,-0.734375,-0.84375,0.359375
1696242787250,-0.0925293,-0.9859009,0.13885498,-0.8125,-0.609375,0.453125
1696242787291,-0.09716797,-0.98223877,0.14178467,-0.90625,-0.203125,0.34375
1696242787331,-0.10229492,-0.9817505,0.14569092,-0.734375,-0.53125,0.1875
1696242787372,-0.09716797,-0.9771118,0.14276123,-0.328125,-0.59375,0.328125
1696242787410,-0.09814453,-0.9800415,0.14886475,-0.34375,-0.5625,0.359375
1696242787451,-0.09106445,-0.9817505,0.15203857,-0.5,-0.515625,0.0625
1696242787489,-0.08984375,-0.9805298,0.13519287,-1.4375,-0.515625,0.09375
1696242787554,-0.09326172,-0.9819946,0.14398193,-0.078125,-0.78125,0.328125
1696242787569,-0.09448242,-0.9771118,0.16204834,-0.265625,-0.65625,0.0625
1696242787590,-0.0871582,-0.9746704,0.12322998,-2.296875,-0.078125,0.09375
1696242787638,-0.09887695,-0.9819946,0.1605835,-0.421875,-0.046875,0.0625
1696242787674,-0.095947266,-0.99542236,0.1515503,-0.96875,-0.140625,0.46875
1696242787710,-0.099853516,-0.97076416,0.14276123,-1.28125,-0.09375,-0.21875
1696242787751,-0.1015625,-0.9807739,0.15887451,-0.796875,-0.40625,-0.03125
1696242787791,-0.09887695,-0.98565674,0.1461792,-0.890625,-0.21875,0.125
1696242787829,-0.10083008,-0.9795532,0.17962646,-0.1875,-0.03125,0.390625
1696242787870,-0.09716797,-0.972229,0.1515503,-1.625,-0.28125,0.40625
1696242787913,-0.09814453,-0.97320557,0.16204834,-1.046875,-0.3125,0.15625
1696242787952,-0.099609375,-0.9937134,0.16693115,-0.828125,-0.359375,0.28125
1696242787991,-0.09643555,-0.97857666,0.15496826,-0.90625,-0.5,0.140625
1696242788030,-0.091552734,-0.9783325,0.17059326,-0.40625,-0.53125,0.296875
1696242788075,-0.0949707,-0.97906494,0.16766357,-0.46875,-0.6875,0.234375
1696242788109,-0.09350586,-0.98223877,0.16619873,-0.421875,-0.4375,0.015625
1696242788150,-0.09716797,-0.9800415,0.1642456,-0.421875,-0.453125,0.421875
1696242788190,-0.088378906,-0.97613525,0.16107178,-0.21875,-0.609375,0.28125
1696242788230,-0.09643555,-0.97979736,0.16937256,0.46875,-0.8125,0.375
1696242788272,-0.095703125,-0.97784424,0.16864014,0.859375,-0.890625,0.453125
1696242788312,-0.095214844,-0.98516846,0.15472412,-0.390625,-0.28125,0.453125
1696242788350,-0.08911133,-0.97247314,0.16497803,1.75,-0.84375,0.34375
1696242788391,-0.091552734,-0.98223877,0.14886475,-0.046875,-0.359375,0.203125
1696242788432,-0.10473633,-0.987854,0.16912842,0.671875,-0.375,0.65625
1696242788471,-0.09301758,-0.98272705,0.15496826,0.9375,-0.703125,0.375
1696242788512,-0.09765625,-0.97247314,0.15203857,0.453125,-0.953125,-0.015625
1696242788551,-0.10644531,-0.98321533,0.16351318,1.03125,-0.984375,0.21875
1696242788591,-0.10058594,-0.9902954,0.14935303,-0.09375,-1.0,-0.015625
1696242788633,-0.10229492,-0.9776001,0.16033936,0.78125,-1.234375,0.1875
1696242788670,-0.08935547,-0.97491455,0.15765381,-0.0625,-0.578125,0.0625
1696242788710,-0.10473633,-0.9776001,0.16644287,0.453125,-0.4375,0.265625
1696242788749,-0.095458984,-0.98931885,0.15667725,0.3125,-0.890625,0.15625
1696242788789,-0.0949707,-0.9771118,0.15863037,0.21875,-0.46875,0.03125
1696242788830,-0.099365234,-0.98883057,0.15887451,1.0625,-1.109375,0.21875
1696242788870,-0.09838867,-0.9837036,0.14447021,0.640625,-0.828125,-0.21875
1696242788892,-0.092041016,-0.9768677,0.1539917,1.03125,-0.765625,-0.140625
1696242788952,-0.10644531,-0.989563,0.16156006,1.0625,-0.6875,0.1875
1696242788970,-0.10424805,-0.9663696,0.15081787,0.921875,-1.0625,-0.375
1696242789010,-0.08959961,-0.9937134,0.14691162,0.046875,0.421875,-0.078125
1696242789050,-0.0925293,-0.9812622,0.15863037,1.234375,-0.84375,0.0
1696242789089,-0.08935547,-0.98565674,0.12957764,-0.46875,0.40625,-0.03125
1696242789132,-0.10107422,-0.9680786,0.15496826,1.3125,-0.21875,-0.328125
1696242789169,-0.10229492,-0.9939575,0.14593506,1.03125,-0.234375,0.453125
1696242789212,-0.099853516,-0.9771118,0.14031982,0.671875,-0.234375,-0.125
1696242789253,-0.106933594,-0.9846802,0.14202881,0.53125,-0.125,0.265625
1696242789293,-0.1027832,-0.9771118,0.14154053,0.078125,-0.34375,-0.171875
1696242789330,-0.10473633,-0.9859009,0.15008545,0.671875,-0.34375,0.09375
1696242789371,-0.08886719,-0.9871216,0.1239624,-1.140625,-1.03125,0.375
1696242789410,-0.111572266,-0.972229,0.15887451,0.6875,1.484375,-0.671875
1696242789449,-0.10620117,-1.0027466,0.13665771,-0.8125,-1.015625,0.90625
1696242789490,-0.10449219,-0.9702759,0.13739014,0.515625,-0.109375,-0.65625
1696242789530,-0.099853516,-1.000061,0.15301514,1.25,0.34375,0.84375
1696242789570,-0.11035156,-0.9702759,0.13909912,-0.671875,-0.875,-0.890625
1696242789634,-0.100097656,-0.99102783,0.14202881,0.875,-0.203125,1.296875
1696242789649,-0.10668945,-0.973938,0.14349365,0.125,-0.40625,-0.5625
1696242789690,-0.100097656,-0.99591064,0.14788818,0.703125,0.09375,0.9375
1696242789732,-0.103759766,-0.9763794,0.13397217,-0.0625,-0.6875,-0.0625
1696242789774,-0.103027344,-0.99053955,0.13787842,-0.3125,0.03125,0.5625
1696242789834,-0.09741211,-0.98272705,0.15765381,0.609375,-0.65625,0.40625
1696242789851,-0.10107422,-0.9873657,0.11859131,-0.828125,0.015625,0.25
1696242789890,-0.10205078,-0.97784424,0.14178467,0.59375,-0.234375,-0.0625
1696242789931,-0.1027832,-0.9885864,0.14129639,0.109375,-0.359375,0.4375
1696242789970,-0.10131836,-0.9783325,0.14178467,0.0625,-0.1875,0.09375
1696242790010,-0.107177734,-0.9939575,0.13519287,-0.1875,-0.4375,0.21875
1696242790048,-0.10180664,-0.9849243,0.13397217,0.0,-0.484375,0.171875
1696242790091,-0.09765625,-0.9890747,0.14447021,0.71875,-0.109375,0.125
1696242790130,-0.103271484,-0.9800415,0.13812256,-0.515625,-0.625,0.28125
1696242790171,-0.107666016,-0.9812622,0.14202881,0.1875,-0.421875,0.328125
1696242790190,-0.09863281,-0.98638916,0.14959717,0.390625,-0.46875,0.453125
1696242790231,-0.103515625,-0.9788208,0.12786865,-0.109375,-1.3125,0.359375
1696242790271,-0.09472656,-0.98150635,0.14910889,0.28125,-0.65625,0.609375
1696242790311,-0.10644531,-0.98272705,0.1408081,-0.421875,-1.46875,0.09375
1696242790351,-0.10107422,-0.98101807,0.13543701,-0.671875,-1.015625,0.265625
1696242790390,-0.100097656,-0.9768677,0.14129639,-0.34375,-1.28125,0.28125
1696242790431,-0.09838867,-0.98272705,0.13763428,-0.703125,-0.96875,0.421875
1696242790471,-0.10083008,-0.98443604,0.1395874,-0.859375,-0.671875,0.234375
1696242790510,-0.09838867,-0.98394775,0.1359253,-0.984375,-0.671875,0.15625
1696242790549,-0.1027832,-0.9807739,0.14520264,-0.671875,-0.625,0.1875
1696242790591,-0.10229492,-0.98638916,0.14129639,-0.875,-0.890625,0.65625
1696242790630,-0.09887695,-0.96173096,0.15594482,0.703125,-1.046875,-0.015625
1696242790670,-0.08276367,-0.989563,0.14276123,-0.53125,0.359375,0.53125
1696242790712,-0.09008789,-0.9729614,0.12786865,-0.828125,-1.203125,0.390625
1696242790751,-0.10058594,-0.9854126,0.14959717,-0.828125,0.3125,0.28125
1696242790792,-0.11010742,-0.9812622,0.16668701,-0.40625,-0.140625,0.234375
1696242790831,-0.09887695,-0.9837036,0.14422607,-1.234375,0.03125,0.078125
1696242790872,-0.10107422,-0.96881104,0.14569092,-0.890625,-0.75,0.03125
1696242790914,-0.10498047,-0.9968872,0.15301514,-1.140625,-0.109375,0.03125
1696242790952,-0.0925293,-0.9741821,0.15447998,-0.765625,-0.4375,-0.015625
1696242790993,-0.10620117,-0.986145,0.14984131,-1.484375,-0.53125,0.25
1696242791030,-0.104003906,-0.96881104,0.15814209,-0.828125,-0.234375,0.046875
1696242791070,-0.10522461,-0.9837036,0.1671753,-0.546875,0.0,0.3125
1696242791110,-0.08935547,-0.9871216,0.15692139,-1.078125,-0.171875,0.40625
1696242791151,-0.09887695,-0.973938,0.16497803,-0.6875,-0.296875,0.171875
1696242791190,-0.1015625,-0.9734497,0.16351318,-0.765625,-0.484375,0.421875
1696242791232,-0.09716797,-0.98223877,0.1618042,-0.78125,-0.375,0.25
1696242791272,-0.1027832,-0.9805298,0.1642456,-0.6875,-0.453125,0.265625
1696242791309,-0.09765625,-0.97662354,0.1618042,-1.0625,-0.796875,0.046875
1696242791349,-0.1015625,-0.9758911,0.15814209,-1.484375,-0.765625,0.15625
1696242791390,-0.10253906,-0.97369385,0.16351318,-1.203125,-0.890625,0.109375
1696242791431,-0.099853516,-0.9780884,0.17547607,-0.375,-0.625,0.390625
1696242791470,-0.09082031,-0.9783325,0.17108154,-0.59375,-0.875,0.234375
1696242791511,-0.09765625,-0.9768677,0.15960693,-0.296875,-1.40625,0.578125
1696242791530,-0.095214844,-0.9702759,0.18426514,1.609375,-0.921875,0.296875
1696242791572,-0.099365234,-0.9812622,0.1486206,-0.5,-0.21875,0.28125
1696242791632,-0.10986328,-0.9846802,0.18084717,0.296875,-0.40625,0.5625
1696242791649,-0.099853516,-0.97979736,0.17108154,0.359375,-0.34375,0.296875
1696242791690,-0.09375,-0.9661255,0.15911865,-0.1875,-0.4375,0.21875
1696242791730,-0.10595703,-0.9795532,0.17449951,0.3125,-0.203125,0.390625
1696242791814,-0.10180664,-0.98394775,0.16375732,0.234375,-0.53125,0.15625
1696242791818,-0.09448242,-0.9776001,0.18548584,1.671875,-0.15625,0.375
1696242791850,-0.09350586,-0.9714966,0.15692139,0.328125,-0.109375,0.34375
1696242791893,-0.103759766,-0.97247314,0.16619873,0.640625,-0.484375,-0.15625
1696242791931,-0.10131836,-0.98883057,0.17669678,1.21875,-0.546875,0.40625
1696242791971,-0.095458984,-0.9807739,0.152771,0.78125,-0.796875,-0.015625
1696242792013,-0.095703125,-0.97369385,0.15911865,1.3125,-0.625,0.28125
1696242792050,-0.099853516,-0.98443604,0.16351318,1.015625,-0.59375,0.265625
1696242792093,-0.087402344,-0.97613525,0.16033936,0.640625,-0.25,0.140625
1696242792131,-0.10131836,-0.97979736,0.16278076,0.578125,-0.40625,0.171875
1696242792171,-0.1015625,-0.9873657,0.15740967,0.703125,-0.203125,0.265625
1696242792211,-0.095458984,-0.97491455,0.15545654,0.765625,-0.28125,0.15625
1696242792251,-0.10180664,-0.9783325,0.15618896,0.703125,-0.515625,0.296875
1696242792292,-0.10253906,-0.97369385,0.16107178,0.703125,-0.328125,0.359375
1696242792333,-0.10522461,-0.9841919,0.16400146,1.015625,-0.390625,0.296875
1696242792369,-0.10205078,-0.97735596,0.14447021,0.40625,-0.96875,0.09375
1696242792411,-0.10083008,-0.98321533,0.14031982,0.53125,-0.515625,0.453125
1696242792451,-0.091552734,-0.9758911,0.16546631,2.1875,-0.640625,0.28125
1696242792491,-0.09033203,-0.987854,0.1305542,-0.921875,0.09375,0.1875
1696242792531,-0.10131836,-0.97540283,0.14666748,0.796875,-0.34375,-0.34375
1696242792570,-0.10131836,-0.987854,0.15081787,0.75,-0.046875,0.5
1696242792610,-0.0949707,-0.97052,0.14471436,0.53125,-0.34375,-0.078125
1696242792649,-0.1081543,-0.9837036,0.14764404,0.40625,-0.28125,0.15625
1696242792689,-0.1003418,-0.9812622,0.14276123,0.25,-0.375,-0.1875
1696242792731,-0.099609375,-0.9819946,0.16009521,0.625,-0.28125,0.15625
1696242792772,-0.096191406,-0.97979736,0.13739014,-0.609375,-0.5625,-0.046875
1696242792811,-0.1027832,-0.9697876,0.14007568,0.015625,0.015625,-0.140625
1696242792829,-0.100097656,-0.9924927,0.15350342,0.359375,-0.75,0.3125
1696242792871,-0.106933594,-0.96661377,0.13861084,0.3125,-0.515625,-0.234375
1696242792911,-0.100097656,-0.9819946,0.1461792,0.40625,-0.390625,0.53125
1696242792951,-0.099609375,-0.9817505,0.14129639,0.140625,-0.703125,0.203125
1696242792992,-0.09692383,-0.9890747,0.13983154,0.21875,0.078125,0.453125
1696242793032,-0.10424805,-0.97613525,0.1461792,0.046875,-0.671875,-0.015625
1696242793071,-0.103759766,-0.98931885,0.14031982,0.28125,-0.296875,0.515625
1696242793112,-0.10449219,-0.9771118,0.13616943,0.125,-0.53125,0.125
1696242793152,-0.103515625,-0.98443604,0.14105225,0.3125,-0.28125,0.375
1696242793214,-0.09716797,-0.9819946,0.14178467,-0.0625,-0.28125,0.25
1696242793230,-0.104003906,-0.9824829,0.1437378,-0.015625,-0.125,0.234375
1696242793271,-0.09814453,-0.98150635,0.14154053,0.125,-0.421875,0.328125
1696242793311,-0.09448242,-0.98394775,0.1359253,-0.28125,-0.21875,0.34375
1696242793352,-0.10180664,-0.9885864,0.14422607,0.890625,-0.546875,0.65625
1696242793409,-0.09106445,-0.97735596,0.15374756,1.078125,-0.234375,0.15625
1696242793430,-0.10131836,-0.98638916,0.13519287,-0.421875,-0.703125,0.40625
1696242793470,-0.091308594,-0.97491455,0.13128662,-0.34375,0.046875,-0.0625
1696242793533,-0.104003906,-0.98809814,0.14935303,0.984375,-0.046875,0.671875
1696242793549,-0.09301758,-0.98321533,0.13250732,-0.140625,-0.1875,0.203125
1696242793589,-0.09814453,-0.9780884,0.14105225,0.234375,-0.171875,0.140625
1696242793631,-0.10229492,-0.9812622,0.13983154,-0.359375,-0.4375,0.375
1696242793677,-0.09423828,-0.9805298,0.13372803,-0.171875,-0.28125,0.03125
1696242793711,-0.09863281,-0.98931885,0.13690186,-0.46875,-0.546875,0.078125
1696242793752,-0.09887695,-0.97735596,0.13470459,-0.265625,-0.390625,-0.0625
1696242793790,-0.10131836,-0.9793091,0.14788818,0.328125,-0.4375,0.25
1696242793832,-0.09399414,-0.99053955,0.14666748,0.203125,-0.703125,0.234375
1696242793869,-0.09277344,-0.9819946,0.137146,0.21875,-0.734375,0.078125
1696242793911,-0.10205078,-0.98272705,0.1437378,0.15625,-1.09375,0.328125
1696242793950,-0.09741211,-0.98809814,0.14398193,0.15625,-1.15625,0.234375
1696242793990,-0.10131836,-0.9837036,0.1408081,-0.15625,-1.265625,0.09375
1696242794030,-0.09838867,-0.98760986,0.13665771,-0.703125,-1.46875,-0.015625
1696242794094,-0.09399414,-0.975647,0.13763428,-0.546875,-1.09375,0.28125
1696242794154,-0.09716797,-0.98760986,0.14422607,-0.734375,-0.671875,0.125
1696242794160,-0.099853516,-0.9829712,0.13641357,-0.46875,-0.6875,0.3125
1696242794169,-0.09863281,-0.97784424,0.14764404,-0.203125,-0.390625,0.15625
1696242794211,-0.103027344,-0.9793091,0.14324951,-0.453125,-0.84375,0.234375
1696242794252,-0.10107422,-0.9795532,0.14324951,-0.6875,-0.875,-0.015625
1696242794291,-0.103515625,-0.98028564,0.14276123,-0.90625,-0.59375,-0.015625
1696242794333,-0.09472656,-0.98687744,0.14007568,-1.484375,-0.140625,0.125
1696242794370,-0.09643555,-0.9924927,0.16033936,-0.21875,-0.453125,0.375
1696242794410,-0.091308594,-0.972229,0.12640381,-2.421875,0.359375,-0.140625
1696242794452,-0.11401367,-0.9846802,0.16229248,-0.046875,-0.03125,0.359375
1696242794491,-0.09350586,-0.9885864,0.1437378,-1.234375,-0.0625,0.203125
1696242794532,-0.09326172,-0.97369385,0.14520264,-1.328125,-0.0625,0.15625
1696242794571,-0.10131836,-0.9859009,0.1552124,-0.828125,-0.25,0.265625
1696242794613,-0.10131836,-0.991272,0.15106201,-1.171875,-0.125,0.171875
1696242794651,-0.09472656,-0.98272705,0.1642456,-0.328125,-0.171875,0.3125
1696242794691,-0.09765625,-0.97369385,0.15130615,-1.765625,-0.140625,0.546875
1696242794731,-0.107910156,-0.9751587,0.16595459,-0.765625,-0.03125,0.4375
1696242794771,-0.09765625,-0.9873657,0.15985107,-0.875,-0.3125,0.484375
1696242794811,-0.100097656,-0.97662354,0.15545654,-0.921875,-0.234375,0.375
1696242794852,-0.09716797,-0.9795532,0.16107178,-0.703125,-0.40625,0.40625
1696242794891,-0.10180664,-0.986145,0.16693115,-0.6875,-0.296875,0.40625
1696242794932,-0.099853516,-0.97784424,0.15740967,-0.875,-0.390625,0.296875
1696242794972,-0.09838867,-0.9795532,0.16253662,-0.5,-0.25,0.46875
1696242795011,-0.095458984,-0.97540283,0.16448975,-0.203125,-0.59375,0.328125
1696242795051,-0.095703125,-0.9771118,0.15838623,0.109375,-0.875,0.640625
1696242795090,-0.092041016,-0.9788208,0.15985107,0.453125,-0.859375,0.359375
1696242795131,-0.0925293,-0.9817505,0.16473389,0.890625,-0.546875,0.359375
1696242795171,-0.09643555,-0.9800415,0.16253662,0.3125,-0.53125,0.515625
1696242795210,-0.10253906,-0.98223877,0.16204834,-0.046875,-1.03125,0.375
1696242795251,-0.08666992,-0.9780884,0.18157959,1.6875,-1.125,0.21875
1696242795291,-0.08935547,-0.97979736,0.13934326,-0.8125,-0.484375,-0.015625
1696242795330,-0.10498047,-0.98760986,0.17474365,0.78125,-0.25,0.53125
1696242795372,-0.09741211,-0.9824829,0.16253662,0.171875,-0.65625,0.25
1696242795410,-0.08935547,-0.9714966,0.15496826,0.296875,-0.65625,0.078125
1696242795451,-0.10253906,-0.98150635,0.16693115,0.859375,-0.734375,0.234375
1696242795469,-0.0949707,-0.98321533,0.15570068,-0.171875,-0.765625,0.0625
1696242795531,-0.09692383,-0.9817505,0.16595459,0.96875,-0.8125,0.125
1696242795550,-0.09301758,-0.98223877,0.15960693,-0.28125,-0.65625,0.0625
1696242795613,-0.10522461,-0.97613525,0.15740967,0.28125,-0.296875,0.0
1696242795631,-0.1027832,-0.99053955,0.16351318,0.78125,-0.765625,0.296875
1696242795672,-0.09765625,-0.97735596,0.14959717,0.453125,-0.59375,0.15625
1696242795711,-0.0949707,-0.9812622,0.15692139,1.09375,-0.546875,0.40625
1696242795751,-0.1003418,-0.98394775,0.1515503,0.796875,-0.546875,0.25
1696242795791,-0.10058594,-0.97906494,0.15350342,0.625,-0.421875,-0.03125
1696242795832,-0.099365234,-0.9819946,0.1564331,0.65625,-0.703125,0.265625
1696242795871,-0.095703125,-0.98028564,0.14715576,0.5,-0.78125,0.15625
1696242795912,-0.09716797,-0.97857666,0.14910889,0.53125,-0.546875,0.4375
1696242795952,-0.09765625,-0.9795532,0.15545654,0.765625,-0.65625,0.21875
1696242795990,-0.10180664,-0.9849243,0.14105225,0.09375,-0.421875,0.234375
1696242796032,-0.103759766,-0.987854,0.14056396,0.609375,-0.65625,0.125
1696242796075,-0.10107422,-0.98272705,0.16815186,2.0,-0.609375,0.546875
1696242796113,-0.08935547,-0.98394775,0.124694824,-0.84375,0.15625,-0.03125
1696242796174,-0.09326172,-0.9800415,0.14593506,0.71875,-0.171875,0.0625
1696242796190,-0.109375,-0.99224854,0.14447021,0.78125,-0.375,0.53125
1696242796253,-0.095458984,-0.97320557,0.1437378,0.546875,-0.09375,0.234375
1696242796269,-0.10424805,-0.9771118,0.15032959,0.53125,-0.1875,0.21875
1696242796311,-0.099853516,-0.98809814,0.14593506,-0.140625,-0.328125,0.171875
1696242796352,-0.099121094,-0.97979736,0.15618896,0.8125,-0.640625,-0.015625
1696242796392,-0.10424805,-0.98565674,0.14251709,-0.5625,-0.046875,0.34375
1696242796430,-0.099853516,-0.97906494,0.137146,-0.03125,0.09375,-0.109375
1696242796499,-0.106933594,-0.986145,0.15374756,0.578125,-0.34375,0.515625
1696242796509,-0.10205078,-0.9883423,0.14007568,-0.203125,-0.5,0.28125
1696242796552,-0.087646484,-0.97857666,0.14959717,0.640625,-1.109375,0.140625
1696242796593,-0.103027344,-0.9807739,0.1395874,0.1875,-0.8125,0.09375
1696242796632,-0.1027832,-0.9866333,0.13543701,-0.078125,-0.28125,0.34375
1696242796673,-0.10595703,-0.9800415,0.14227295,0.03125,-0.46875,0.1875
1696242796710,-0.09716797,-0.97784424,0.14398193,0.203125,-0.46875,0.46875
1696242796774,-0.10107422,-0.9824829,0.14202881,-0.015625,-0.1875,0.515625
1696242796790,-0.09716797,-0.9817505,0.13568115,-0.28125,-0.1875,0.375
1696242796811,-0.10913086,-0.9805298,0.14984131,1.015625,-0.703125,0.640625
1696242796896,-0.092041016,-0.9717407,0.15228271,0.625,-0.109375,0.34375
1696242796900,-0.095703125,-0.98443604,0.1317749,-0.390625,-0.546875,0.453125
1696242796930,-0.08935547,-0.9746704,0.13494873,-0.3125,0.265625,-0.046875
1696242796973,-0.10131836,-0.98565674,0.14642334,0.734375,-0.234375,0.390625
1696242797013,-0.09106445,-0.9846802,0.14227295,-0.015625,-0.5,0.046875
1696242797051,-0.10058594,-0.97369385,0.13885498,0.046875,-0.21875,0.21875
1696242797090,-0.10839844,-0.9866333,0.14447021,-0.0625,-0.5,0.234375
1696242797128,-0.103515625,-0.9846802,0.1461792,-0.3125,-0.546875,0.15625
1696242797172,-0.1015625,-0.9837036,0.14154053,-0.6875,-1.0,0.3125
1696242797212,-0.10083008,-0.98028564,0.14227295,-1.0625,-0.9375,-0.203125
1696242797250,-0.09790039,-0.98272705,0.15594482,-0.734375,-1.203125,-0.03125
1696242797291,-0.096191406,-0.9866333,0.14813232,-0.859375,-1.203125,0.171875
1696242797331,-0.09082031,-0.9805298,0.14520264,-1.03125,-0.703125,0.1875
1696242797371,-0.1015625,-0.9834595,0.1473999,-0.96875,-0.65625,0.171875
1696242797410,-0.103271484,-0.98809814,0.14544678,-1.09375,-0.6875,0.09375
1696242797451,-0.109375,-0.98272705,0.14910889,-0.984375,-0.578125,0.125
1696242797490,-0.0949707,-0.98443604,0.15179443,-1.046875,-0.421875,0.03125
1696242797532,-0.095214844,-0.97735596,0.15350342,-0.96875,-0.546875,0.109375
1696242797570,-0.09643555,-0.9780884,0.15179443,-0.984375,-0.359375,0.40625
1696242797613,-0.09667969,-0.97857666,0.16741943,0.265625,-0.609375,0.34375
1696242797652,-0.08862305,-0.98443604,0.14764404,-1.296875,0.0625,0.234375
1696242797690,-0.09448242,-0.97198486,0.1461792,-0.453125,-0.484375,0.390625
1696242797733,-0.087646484,-0.97491455,0.1515503,-0.875,0.046875,-0.15625
1696242797771,-0.10229492,-0.9927368,0.17913818,0.03125,0.078125,0.8125
1696242797813,-0.08886719,-0.97735596,0.1473999,-1.0625,-0.25,0.140625
1696242797851,-0.099853516,-0.97247314,0.15594482,-0.75,-0.34375,0.125
1696242797889,-0.107666016,-0.99346924,0.16253662,-0.859375,-0.046875,0.328125
1696242797933,-0.09887695,-0.97979736,0.16497803,-0.875,-0.265625,0.078125
1696242797973,-0.09423828,-0.9771118,0.15350342,-1.28125,-0.421875,0.375
1696242798013,-0.09106445,-0.975647,0.16351318,-0.921875,-0.0625,-0.015625
1696242798074,-0.103759766,-0.98150635,0.17425537,-0.109375,-0.265625,0.546875
1696242798111,-0.096191406,-0.98150635,0.15911865,-0.421875,-0.4375,0.265625
1696242798114,-0.09350586,-0.9746704,0.17474365,-0.1875,-0.078125,0.359375
1696242798149,-0.09008789,-0.9783325,0.16986084,-0.453125,-0.265625,0.5
1696242798193,-0.09667969,-0.9807739,0.16668701,-0.203125,-0.59375,0.5
1696242798231,-0.0925293,-0.9812622,0.16156006,0.015625,-0.84375,0.375
1696242798271,-0.091796875,-0.98028564,0.15692139,0.4375,-0.59375,0.515625
1696242798334,-0.09472656,-0.97198486,0.17327881,1.25,-0.625,0.515625
1696242798351,-0.09350586,-0.9939575,0.15960693,-0.375,-0.28125,0.609375
1696242798411,-0.09277344,-0.97491455,0.16644287,1.234375,-0.71875,0.265625
1696242798431,-0.08862305,-0.9800415,0.15106201,-0.359375,-0.28125,-0.109375
1696242798473,-0.107910156,-0.98760986,0.17132568,0.28125,-0.484375,0.453125
1696242798533,-0.08618164,-0.9824829,0.16033936,0.1875,-0.625,0.140625
1696242798549,-0.099365234,-0.9714966,0.16326904,0.59375,-0.765625,0.140625
1696242798611,-0.09716797,-0.9871216,0.1618042,0.515625,-0.78125,0.15625
1696242798630,-0.0949707,-0.9846802,0.15618896,-0.265625,-0.859375,-0.078125
1696242798692,-0.10253906,-0.9776001,0.1564331,0.140625,-1.609375,0.078125
1696242798709,-0.09057617,-0.9727173,0.15301514,-0.234375,-0.671875,-0.078125
1696242798752,-0.106933594,-0.9817505,0.16937256,0.671875,-0.9375,0.1875
1696242798791,-0.09838867,-0.9812622,0.1539917,0.875,-1.140625,0.21875
1696242798832,-0.09423828,-0.9783325,0.1605835,0.671875,-0.6875,0.125
1696242798871,-0.09326172,-0.98394775,0.16497803,1.328125,-0.5625,0.296875
1696242798913,-0.103027344,-0.9871216,0.15594482,0.328125,-0.8125,0.125
1696242798952,-0.1027832,-0.98687744,0.1473999,0.046875,-0.640625,0.09375
1696242798991,-0.09643555,-0.9807739,0.16033936,0.328125,-0.5,0.125
1696242799032,-0.10620117,-0.9741821,0.15252686,0.40625,-1.0,0.0625
1696242799071,-0.099121094,-0.99176025,0.14031982,0.046875,-0.03125,0.25
1696242799110,-0.10131836,-0.9793091,0.16522217,2.03125,-0.40625,0.390625
1696242799171,-0.095947266,-0.97247314,0.13201904,-0.796875,0.25,-0.203125
1696242799189,-0.09448242,-0.9837036,0.15814209,1.046875,-0.125,0.296875
1696242799254,-0.100097656,-0.9834595,0.16082764,0.859375,-0.0625,0.484375
1696242799293,-0.088134766,-0.9807739,0.14447021,0.90625,0.0,0.078125
1696242799309,-0.099609375,-0.98223877,0.15032959,0.78125,-0.25,0.265625
1696242799371,-0.10424805,-0.9824829,0.1461792,0.65625,-0.265625,0.265625
1696242799411,-0.09057617,-0.98760986,0.14837646,0.734375,-0.40625,0.421875
1696242799414,-0.099609375,-0.97906494,0.13983154,-0.15625,-0.3125,-0.0625
1696242799450,-0.10058594,-0.97491455,0.14788818,0.515625,-0.1875,0.171875
1696242799491,-0.10644531,-0.986145,0.14691162,0.484375,-0.578125,0.4375
1696242799532,-0.08691406,-0.98150635,0.13616943,1.515625,-0.734375,-0.109375
1696242799570,-0.099121094,-0.98150635,0.14569092,0.96875,-0.71875,0.46875
1696242799612,-0.109375,-0.989563,0.13763428,0.265625,-0.28125,0.15625
1696242799651,-0.0925293,-0.97979736,0.14324951,-0.1875,-0.359375,-0.03125
1696242799690,-0.09423828,-0.9834595,0.13397217,-0.125,-0.21875,0.28125
1696242799730,-0.103759766,-0.98638916,0.13763428,0.078125,-0.3125,0.296875
1696242799773,-0.100097656,-0.98150635,0.14031982,-0.03125,-0.5,0.328125
1696242799814,-0.10107422,-0.9871216,0.1473999,0.125,-0.25,0.34375
1696242799853,-0.09838867,-0.9793091,0.14056396,0.21875,-0.15625,0.3125
1696242799892,-0.09667969,-0.97784424,0.14227295,0.15625,-0.296875,0.328125
1696242799933,-0.09741211,-0.98931885,0.12884521,-1.015625,0.3125,0.15625
1696242799971,-0.10131836,-0.98516846,0.15057373,-0.109375,-0.609375,0.484375
1696242800012,-0.092041016,-0.98028564,0.12445068,-0.984375,0.265625,-0.046875
1696242800050,-0.099121094,-0.9758911,0.14691162,0.546875,-0.015625,0.3125
1696242800091,-0.09667969,-0.9817505,0.1408081,-0.328125,-0.46875,0.234375
1696242800132,-0.099853516,-0.9771118,0.14251709,0.296875,-0.265625,0.140625
1696242800171,-0.10131836,-0.98394775,0.13665771,-0.09375,-0.46875,0.171875
1696242800210,-0.09814453,-0.98565674,0.14422607,0.125,-0.6875,0.125
1696242800252,-0.095458984,-0.9846802,0.14422607,0.40625,-0.421875,0.34375
1696242800291,-0.10180664,-0.9837036,0.1359253,-1.09375,-0.53125,0.203125
1696242800331,-0.09863281,-0.9746704,0.15130615,-0.796875,-0.421875,0.125
1696242800371,-0.09667969,-0.99102783,0.1539917,-0.828125,-0.640625,0.65625
1696242800412,-0.092285156,-0.9817505,0.14056396,-0.84375,-1.0,0.21875
1696242800451,-0.09667969,-0.9751587,0.14202881,-0.65625,-0.421875,0.234375
1696242800513,-0.099853516,-0.9807739,0.14471436,-0.71875,-0.65625,0.46875
1696242800530,-0.099121094,-0.98028564,0.14764404,-1.046875,-0.484375,0.265625
1696242800572,-0.09277344,-0.98394775,0.15228271,-1.0,-0.578125,0.28125
1696242800615,-0.09667969,-0.9800415,0.15057373,-0.859375,-0.453125,0.3125
1696242800650,-0.09423828,-0.97857666,0.1486206,-0.90625,-0.203125,0.3125
1696242800734,-0.09472656,-0.97320557,0.15057373,-0.859375,-0.40625,0.0625
1696242800738,-0.103515625,-0.9768677,0.15594482,-0.84375,-0.484375,0.25
1696242800749,-0.08618164,-0.9771118,0.1461792,-1.078125,-0.1875,0.125
1696242800791,-0.10058594,-0.9834595,0.15838623,-0.390625,-0.765625,0.21875
1696242800854,-0.09716797,-0.9771118,0.1642456,0.046875,-0.703125,0.171875
1696242800893,-0.09765625,-0.9751587,0.1305542,-2.28125,-0.125,0.09375
1696242800910,-0.10229492,-0.98565674,0.17474365,-0.15625,-0.15625,0.15625
1696242800953,-0.095703125,-0.9866333,0.16229248,-1.09375,-0.3125,0.328125
1696242800992,-0.0949707,-0.9673462,0.16156006,-1.34375,-0.046875,-0.1875
1696242801030,-0.10839844,-0.9812622,0.16253662,-0.875,-0.28125,0.15625
1696242801072,-0.095214844,-0.98638916,0.15887451,-1.03125,-0.265625,0.203125
1696242801114,-0.09765625,-0.9800415,0.18475342,0.0625,-0.390625,0.25
1696242801151,-0.09082031,-0.97735596,0.1593628,-1.328125,-0.265625,0.421875
1696242801191,-0.09399414,-0.97613525,0.16668701,-0.53125,-0.421875,0.234375
1696242801231,-0.09375,-0.98760986,0.17474365,-0.609375,-0.515625,0.4375
1696242801289,-0.09057617,-0.97857666,0.16229248,-0.40625,-0.484375,0.34375
1696242801310,-0.092285156,-0.9746704,0.17132568,-0.265625,-0.59375,0.296875
1696242801351,-0.10424805,-0.9846802,0.17059326,-0.3125,-0.6875,0.421875
1696242801390,-0.09448242,-0.975647,0.16546631,-0.40625,-0.46875,0.125
1696242801432,-0.09106445,-0.97540283,0.17010498,-0.21875,-0.34375,0.484375
1696242801489,-0.09277344,-0.98101807,0.16571045,-0.21875,-0.25,0.3125
1696242801511,-0.091552734,-0.9768677,0.17327881,0.265625,-0.5625,0.328125
1696242801573,-0.095458984,-0.98272705,0.17449951,0.171875,-0.421875,0.3125
1696242801589,-0.09741211,-0.97540283,0.16571045,-0.046875,-0.390625,0.34375
1696242801632,-0.09692383,-0.97906494,0.16156006,0.453125,-0.875,0.359375
1696242801674,-0.091796875,-0.9692993,0.1864624,0.953125,-0.609375,0.171875
1696242801713,-0.095703125,-0.9812622,0.14447021,0.109375,-0.359375,0.4375
1696242801752,-0.09399414,-0.97662354,0.17572021,1.03125,-0.546875,0.484375
1696242801792,-0.09790039,-0.9805298,0.17034912,0.515625,-0.65625,0.5
1696242801833,-0.09106445,-0.9714966,0.16448975,0.234375,-0.703125,0.0625
1696242801874,-0.09790039,-0.9849243,0.17376709,0.546875,-0.609375,-0.015625
1696242801933,-0.095947266,-0.9898071,0.16448975,-0.140625,-0.6875,0.078125
1696242801972,-0.099609375,-0.97125244,0.18426514,1.1875,-0.609375,0.1875
1696242801990,-0.09423828,-0.97491455,0.1593628,0.375,-0.46875,0.546875
1696242802036,-0.09423828,-0.9763794,0.16082764,0.296875,-0.765625,0.15625
1696242802050,-0.10205078,-0.9902954,0.17230225,0.90625,-0.921875,0.078125
1696242802092,-0.091552734,-0.9795532,0.15716553,0.75,-1.109375,0.03125
1696242802132,-0.08911133,-0.975647,0.16204834,1.15625,-1.140625,0.171875
1696242802172,-0.09838867,-0.98394775,0.1539917,0.84375,-0.9375,0.328125
1696242802210,-0.09838867,-0.9795532,0.1515503,0.578125,-0.484375,-0.03125
1696242802253,-0.099121094,-0.9829712,0.16497803,1.03125,-0.90625,0.359375
1696242802310,-0.10083008,-0.9837036,0.1552124,0.984375,-0.703125,0.015625
1696242802332,-0.103271484,-0.9849243,0.152771,0.90625,-0.46875,0.25
1696242802372,-0.099609375,-0.9837036,0.15838623,1.0625,-0.265625,0.328125
1696242802411,-0.09838867,-0.9793091,0.15594482,1.125,-0.1875,0.53125
1696242802451,-0.095947266,-0.975647,0.14471436,0.75,-0.46875,0.359375
1696242802491,-0.099609375,-0.9859009,0.14276123,1.0625,-0.609375,0.25
1696242802533,-0.10107422,-0.9837036,0.16326904,2.0,-0.625,0.265625
1696242802571,-0.08959961,-0.98516846,0.12786865,-0.734375,-0.03125,-0.015625
1696242802612,-0.09008789,-0.97735596,0.1395874,0.28125,-0.1875,-0.265625
1696242802651,-0.099121094,-0.9902954,0.14642334,0.21875,-0.140625,0.53125
1696242802691,-0.09350586,-0.98565674,0.1473999,-0.015625,0.28125,0.125
1696242802732,-0.09838867,-0.9800415,0.15203857,-0.25,-0.140625,-0.078125
1696242802771,-0.10058594,-0.986145,0.14202881,-0.484375,-0.5625,-0.140625
1696242802811,-0.09375,-0.9800415,0.15863037,0.390625,-0.75,0.046875
1696242802851,-0.09790039,-0.97662354,0.14422607,-0.5,-0.234375,0.078125
1696242802892,-0.09667969,-0.97442627,0.14178467,-0.046875,-0.40625,-0.140625
1696242802933,-0.10424805,-0.9859009,0.15325928,0.25,-0.5625,0.078125
1696242802969,-0.09472656,-0.9859009,0.14593506,0.09375,-0.515625,0.28125
1696242803013,-0.09033203,-0.98565674,0.14154053,0.046875,-0.5625,0.171875
1696242803051,-0.1003418,-0.97979736,0.14886475,0.203125,-0.734375,0.234375
1696242803092,-0.1003418,-0.9837036,0.14202881,0.0,-0.5,0.234375
1696242803131,-0.10522461,-0.98394775,0.1473999,0.140625,-0.46875,0.125
1696242803171,-0.09741211,-0.9783325,0.14642334,-0.0625,-0.640625,0.25
1696242803209,-0.09692383,-0.9819946,0.14251709,0.046875,-0.609375,0.265625
1696242803250,-0.09423828,-0.9819946,0.1473999,-0.171875,-0.25,0.359375
1696242803290,-0.09887695,-0.97857666,0.1437378,-0.046875,-0.65625,0.15625
1696242803331,-0.100097656,-0.9812622,0.15032959,0.203125,-0.4375,0.25
1696242803350,-0.09448242,-0.9854126,0.13372803,-0.5,-0.625,0.34375
1696242803411,-0.10107422,-0.98638916,0.14398193,-0.03125,-0.828125,0.078125
1696242803430,-0.095214844,-0.97369385,0.15325928,1.40625,-0.71875,0.28125
1696242803471,-0.09887695,-0.98883057,0.13641357,-0.5625,-0.4375,0.125
1696242803510,-0.09863281,-0.9829712,0.1395874,0.125,0.0,0.21875
1696242803551,-0.10229492,-0.9898071,0.14715576,0.359375,-0.25,0.4375
1696242803591,-0.09301758,-0.98223877,0.14202881,0.15625,-0.234375,0.203125
1696242803653,-0.09448242,-0.986145,0.15496826,-0.078125,-0.203125,0.375
1696242803670,-0.10229492,-0.9866333,0.14788818,-0.53125,-0.875,0.4375
1696242803710,-0.10205078,-0.97979736,0.15545654,0.0,-0.640625,0.203125
1696242803773,-0.099853516,-0.98272705,0.14031982,-0.8125,-0.90625,0.3125
1696242803789,-0.099853516,-0.9729614,0.1437378,-0.984375,-0.578125,0.0
1696242803832,-0.1027832,-0.98321533,0.14935303,-0.5,-0.875,0.328125
1696242803872,-0.099853516,-0.99298096,0.14691162,-0.4375,-0.890625,0.34375
1696242803911,-0.083496094,-0.9746704,0.14642334,-0.78125,-0.796875,0.1875
1696242803951,-0.09741211,-0.98272705,0.14398193,-0.90625,-0.703125,0.3125
1696242803992,-0.09716797,-0.9837036,0.1461792,-0.8125,-0.59375,0.25
1696242804031,-0.09838867,-0.98516846,0.14910889,-1.03125,-0.171875,0.5
1696242804072,-0.09057617,-0.9800415,0.14886475,-0.65625,-0.515625,0.125
1696242804110,-0.10180664,-0.98223877,0.15252686,-0.984375,-0.265625,0.359375
1696242804151,-0.09692383,-0.9812622,0.15447998,-0.984375,-0.4375,0.359375
1696242804214,-0.09692383,-0.9812622,0.15423584,-1.09375,-0.328125,0.15625
1696242804231,-0.0925293,-0.9780884,0.16278076,-0.734375,-0.28125,0.34375
1696242804293,-0.09106445,-0.9793091,0.1539917,-1.125,-0.140625,0.1875
1696242804310,-0.09887695,-0.9859009,0.16009521,-0.140625,-0.8125,0.421875
1696242804354,-0.08666992,-0.97662354,0.17352295,-1.21875,-0.34375,0.15625
1696242804391,-0.091796875,-0.98150635,0.13494873,-1.921875,-0.25,0.1875
1696242804452,-0.09667969,-0.9741821,0.1762085,-0.203125,-0.078125,0.0625
1696242804471,-0.099121094,-0.98565674,0.16986084,-0.640625,-0.421875,0.46875
1696242804512,-0.09277344,-0.9788208,0.15667725,-1.078125,-0.140625,-0.015625
1696242804553,-0.095947266,-0.9768677,0.1671753,-0.625,-0.359375,0.21875
1696242804592,-0.103027344,-0.9915161,0.16986084,-1.484375,-0.34375,0.21875
1696242804653,-0.1003418,-0.9763794,0.18328857,-1.0625,-0.171875,-0.21875
1696242804670,-0.09399414,-0.973938,0.16229248,-1.3125,-0.359375,0.34375
1696242804690,-0.092041016,-0.9729614,0.17010498,-0.984375,-0.265625,0.0625
1696242804731,-0.103515625,-0.9924927,0.17913818,-0.265625,-0.796875,0.296875
1696242804771,-0.08935547,-0.9741821,0.16864014,0.1875,-0.84375,0.421875
1696242804810,-0.08642578,-0.97003174,0.17230225,0.65625,-0.671875,0.234375
1696242804851,-0.095214844,-0.9795532,0.16668701,0.953125,-0.921875,0.328125
1696242804891,-0.09814453,-0.97735596,0.1593628,0.8125,-0.671875,0.59375
1696242804933,-0.10107422,-0.98272705,0.16815186,0.796875,-0.671875,0.53125
1696242804972,-0.095458984,-0.9817505,0.16766357,0.265625,-0.734375,0.46875
1696242805011,-0.09448242,-0.97442627,0.17010498,0.046875,-0.859375,0.234375
1696242805052,-0.09399414,-0.9763794,0.16937256,0.1875,-0.453125,0.21875
1696242805092,-0.09643555,-0.9758911,0.17059326,0.59375,-0.796875,0.3125
1696242805131,-0.09326172,-0.9829712,0.16156006,-0.109375,-0.40625,0.3125
1696242805171,-0.08642578,-0.972229,0.17645264,2.109375,-0.734375,0.140625
1696242805211,-0.09301758,-0.9788208,0.15374756,-0.125,-0.03125,0.0
1696242805252,-0.103515625,-0.9883423,0.17449951,0.421875,-0.59375,0.359375
1696242805292,-0.09399414,-0.98150635,0.16448975,0.21875,-0.46875,0.21875
1696242805331,-0.0949707,-0.97662354,0.16009521,0.09375,-0.375,0.109375
1696242805373,-0.099365234,-0.9866333,0.16351318,0.296875,-0.53125,0.03125
1696242805411,-0.095214844,-0.98028564,0.1605835,0.21875,-0.5625,-0.125
1696242805452,-0.09472656,-0.9793091,0.17327881,1.21875,-0.84375,0.296875
1696242805492,-0.09008789,-0.97906494,0.15325928,0.28125,-0.359375,0.125
1696242805532,-0.09814453,-0.97784424,0.16522217,0.375,-0.21875,0.125
1696242805575,-0.099853516,-0.9859009,0.16571045,0.578125,-0.890625,0.328125
1696242805612,-0.095703125,-0.9805298,0.15570068,0.34375,-0.71875,0.109375
1696242805651,-0.09326172,-0.9812622,0.16278076,0.703125,-1.109375,0.265625
1696242805693,-0.091552734,-0.9819946,0.14959717,0.359375,-1.046875,0.203125
1696242805730,-0.096191406,-0.9819946,0.14959717,-0.21875,-0.765625,0.046875
1696242805773,-0.099121094,-0.98321533,0.15618896,-0.21875,-0.6875,0.0
1696242805811,-0.095458984,-0.9883423,0.1552124,-0.15625,-0.796875,0.0625
1696242805852,-0.099121094,-0.9834595,0.15911865,0.296875,-0.4375,0.21875
1696242805891,-0.099121094,-0.97857666,0.15374756,0.5625,-0.34375,0.203125
1696242805932,-0.100097656,-0.98931885,0.14593506,-0.421875,0.125,0.4375
1696242805971,-0.10229492,-0.986145,0.16448975,1.40625,-0.28125,0.390625
1696242805990,-0.08520508,-0.97662354,0.1383667,-1.09375,0.484375,0.03125
1696242806032,-0.1003418,-0.9807739,0.16448975,0.890625,-0.046875,0.203125
1696242806073,-0.09472656,-0.9915161,0.15618896,0.46875,-0.09375,0.421875
1696242806113,-0.09887695,-0.97491455,0.15057373,0.53125,0.0,0.15625
1696242806152,-0.10546875,-0.9829712,0.15716553,0.625,-0.3125,0.296875
1696242806191,-0.10205078,-0.98809814,0.14837646,0.109375,-0.09375,0.34375
1696242806232,-0.09790039,-0.98516846,0.15594482,0.734375,0.1875,0.015625
1696242806270,-0.092285156,-0.9793091,0.1461792,-0.9375,0.421875,0.03125
1696242806313,-0.095458984,-0.98443604,0.15545654,-0.25,0.25,-0.046875
1696242806372,-0.099609375,-0.98687744,0.16156006,-0.09375,-0.09375,0.046875
1696242806389,-0.09790039,-0.97784424,0.1486206,-0.03125,-0.0625,0.015625
1696242806430,-0.100097656,-0.975647,0.16107178,0.359375,-0.203125,0.25
1696242806492,-0.1027832,-0.98883057,0.1552124,0.53125,-0.28125,0.21875
1696242806533,-0.09863281,-0.9817505,0.15130615,0.015625,-0.25,0.03125
1696242806549,-0.09814453,-0.9807739,0.1515503,0.28125,-0.421875,0.109375
1696242806592,-0.091796875,-0.98443604,0.15301514,0.171875,-0.515625,0.140625
1696242806632,-0.095947266,-0.98394775,0.14959717,-0.25,-0.421875,0.140625
1696242806671,-0.10546875,-0.99224854,0.1515503,0.703125,-0.953125,0.328125
1696242806710,-0.09301758,-0.9812622,0.16107178,1.171875,-0.71875,0.03125
1696242806751,-0.09716797,-0.9849243,0.14251709,0.125,-0.84375,0.328125
1696242806791,-0.092285156,-0.9788208,0.13983154,-0.21875,0.046875,0.15625
1696242806832,-0.10913086,-0.98638916,0.15911865,0.9375,-0.4375,0.234375
1696242806872,-0.09814453,-0.9800415,0.14764404,0.15625,-0.328125,0.0
1696242806914,-0.10229492,-0.9819946,0.15032959,0.375,-0.625,0.171875
1696242806950,-0.103027344,-0.98223877,0.14642334,0.09375,-0.640625,0.234375
1696242806993,-0.099609375,-0.97784424,0.14788818,0.15625,-0.75,0.078125
1696242807030,-0.099365234,-0.9866333,0.14837646,-0.53125,-0.796875,0.21875
1696242807071,-0.09814453,-0.97662354,0.14813232,-0.625,-0.75,0.0625
1696242807112,-0.100097656,-0.9871216,0.15740967,0.09375,-0.953125,0.453125
1696242807151,-0.103027344,-0.9890747,0.15350342,-0.6875,-1.296875,0.359375
1696242807213,-0.09448242,-0.98150635,0.14447021,-0.671875,-1.046875,0.046875
1696242807229,-0.10229492,-0.9800415,0.15008545,-0.6875,-1.046875,0.578125
1696242807272,-0.103271484,-0.98809814,0.14300537,-0.640625,-0.78125,0.421875
1696242807289,-0.09643555,-0.9807739,0.15325928,-0.796875,-0.921875,0.296875
1696242807332,-0.10131836,-0.9841919,0.15081787,-1.015625,-0.75,0.296875
1696242807371,-0.09814453,-0.98150635,0.15472412,-0.90625,-0.671875,0.21875
1696242807413,-0.09106445,-0.98516846,0.15179443,-1.296875,-0.484375,0.3125
1696242807453,-0.10522461,-0.9841919,0.15911865,0.078125,-0.78125,0.46875
1696242807491,-0.09790039,-0.9812622,0.16571045,-0.171875,-0.765625,0.328125
1696242807532,-0.10107422,-0.9727173,0.14105225,-1.5,-0.6875,0.296875
1696242807573,-0.09765625,-0.9824829,0.16595459,-0.71875,-0.078125,-0.234375
1696242807615,-0.103759766,-0.9985962,0.17156982,-0.625,-0.21875,0.609375
1696242807651,-0.092285156,-0.97052,0.15252686,-1.375,-0.203125,0.0
1696242807692,-0.099853516,-0.97857666,0.16693115,-0.71875,-0.390625,0.40625
1696242807731,-0.107666016,-0.989563,0.1708374,-0.984375,-0.09375,0.125
1696242807770,-0.10473633,-0.9751587,0.17913818,-0.8125,-0.34375,0.171875
1696242807813,-0.10229492,-0.97979736,0.16448975,-1.328125,-0.453125,0.234375
1696242807853,-0.103271484,-0.97320557,0.16546631,-0.59375,-0.265625,0.03125
1696242807891,-0.09838867,-0.9846802,0.17279053,-0.234375,-0.515625,0.421875
1696242807931,-0.10473633,-0.9793091,0.16815186,-0.140625,-0.515625,0.421875
1696242807970,-0.092041016,-0.9793091,0.1720581,0.078125,-0.296875,0.46875
1696242808011,-0.09399414,-0.9824829,0.17034912,0.078125,-0.453125,0.328125
1696242808051,-0.095703125,-0.9788208,0.16082764,-0.09375,-0.578125,0.421875
1696242808093,-0.1015625,-0.98516846,0.16375732,0.125,-0.65625,0.359375
1696242808132,-0.09472656,-0.973938,0.16229248,0.15625,-0.59375,0.34375
1696242808170,-0.095458984,-0.97491455,0.16375732,0.265625,-0.578125,0.21875
1696242808212,-0.10522461,-0.9819946,0.17913818,1.234375,-0.703125,0.609375
1696242808253,-0.09350586,-0.9824829,0.16253662,-1.046875,-0.140625,0.0625
1696242808292,-0.09667969,-0.9788208,0.15374756,-0.25,-0.546875,0.328125
1696242808332,-0.09643555,-0.97735596,0.168396,0.078125,-0.03125,0.109375
1696242808369,-0.09887695,-0.9859009,0.1720581,-0.15625,-0.59375,0.359375
1696242808412,-0.087890625,-0.9702759,0.16131592,-0.234375,-0.421875,0.0625
1696242808452,-0.09887695,-0.9776001,0.17034912,0.390625,-0.390625,0.109375
1696242808491,-0.099609375,-0.9824829,0.1671753,0.421875,-0.65625,0.375
1696242808530,-0.1015625,-0.9768677,0.1720581,0.46875,-0.71875,0.0625
1696242808572,-0.10131836,-0.9768677,0.15985107,-0.203125,-0.953125,0.453125
1696242808590,-0.09643555,-0.973938,0.15618896,-0.25,-0.390625,0.015625
1696242808632,-0.107666016,-0.9859009,0.17596436,0.734375,-0.765625,0.3125
1696242808673,-0.09326172,-0.975647,0.16326904,0.671875,-0.859375,0.171875
1696242808712,-0.091308594,-0.96954346,0.16497803,0.828125,-0.703125,0.359375
1696242808754,-0.09667969,-0.9805298,0.16766357,0.796875,-0.890625,0.34375
1696242808812,-0.095458984,-0.9800415,0.15765381,0.640625,-0.578125,0.125
1696242808830,-0.09448242,-0.9776001,0.16009521,0.6875,-0.703125,0.21875
1696242808872,-0.10083008,-0.9805298,0.16326904,0.46875,-0.59375,0.28125
1696242808912,-0.09838867,-0.98101807,0.15667725,0.3125,-0.828125,0.328125
1696242808954,-0.10229492,-0.97662354,0.16522217,0.40625,-0.78125,0.28125
1696242808991,-0.096191406,-0.9795532,0.14910889,0.3125,-0.8125,0.265625
1696242809031,-0.10083008,-0.9807739,0.15496826,1.125,-1.125,0.390625
1696242809071,-0.09863281,-0.9768677,0.17547607,2.0,-1.046875,0.265625
1696242809111,-0.08666992,-0.9854126,0.13568115,-0.515625,-0.15625,0.28125
1696242809151,-0.0925293,-0.97125244,0.15692139,0.75,-0.203125,0.140625
1696242809192,-0.10449219,-0.99176025,0.16107178,0.78125,-0.453125,0.3125
1696242809232,-0.092285156,-0.9824829,0.14935303,0.40625,0.265625,0.171875
1696242809271,-0.10131836,-0.9837036,0.1515503,0.421875,-0.28125,0.09375
1696242809309,-0.09863281,-0.9873657,0.14959717,0.09375,-0.296875,0.078125
1696242809351,-0.100097656,-0.98028564,0.1552124,0.578125,-0.421875,0.125
1696242809390,-0.10498047,-0.9846802,0.14324951,-0.40625,-0.390625,0.328125
1696242809430,-0.09301758,-0.96832275,0.14959717,-0.0625,-0.25,0.03125
1696242809472,-0.10668945,-0.98565674,0.16009521,0.453125,-0.4375,0.15625
1696242809512,-0.1003418,-0.9859009,0.15350342,0.359375,-0.640625,0.171875
1696242809552,-0.09667969,-0.9788208,0.14593506,0.046875,-0.203125,0.234375
1696242809592,-0.09399414,-0.97784424,0.15032959,0.375,-0.609375,0.3125
1696242809629,-0.09741211,-0.9915161,0.14569092,0.125,-0.3125,0.296875
1696242809672,-0.103027344,-0.9776001,0.14788818,0.09375,-0.328125,0.125
1696242809711,-0.1015625,-0.973938,0.14520264,0.453125,-0.21875,0.171875
1696242809751,-0.09667969,-0.98101807,0.14837646,0.203125,-0.4375,0.296875
1696242809791,-0.10107422,-0.98516846,0.14642334,0.296875,-0.34375,0.0625
1696242809832,-0.099853516,-0.98321533,0.14715576,0.15625,-0.34375,0.34375
1696242809871,-0.09448242,-0.9849243,0.14642334,-0.171875,-0.03125,0.5
1696242809910,-0.09716797,-0.9812622,0.1473999,1.953125,-1.0625,0.359375
1696242809953,-0.096191406,-0.97662354,0.15203857,1.234375,-0.140625,0.25
1696242809970,-0.09863281,-0.98565674,0.13739014,0.03125,-0.734375,0.421875
1696242810013,-0.09326172,-0.97857666,0.13397217,-0.53125,0.140625,-0.046875
1696242810051,-0.10620117,-0.9819946,0.1539917,0.875,-0.390625,0.609375
1696242810092,-0.09399414,-0.9883423,0.1395874,0.03125,-0.234375,0.09375
1696242810132,-0.10058594,-0.9824829,0.14959717,-0.046875,0.09375,0.234375
1696242810172,-0.10498047,-0.98565674,0.1359253,-0.015625,-0.34375,0.21875
1696242810233,-0.09643555,-0.9883423,0.1408081,-0.125,-0.390625,0.09375
1696242810251,-0.091796875,-0.9885864,0.14276123,-0.546875,-0.484375,0.125
1696242810315,-0.095703125,-0.97735596,0.137146,-0.640625,-0.203125,0.0625
1696242810330,-0.095214844,-0.98516846,0.15179443,0.21875,-0.5,0.3125
1696242810373,-0.09887695,-0.99005127,0.14691162,-0.109375,-0.59375,0.28125
1696242810411,-0.0925293,-0.98223877,0.14105225,0.078125,-0.640625,0.1875
1696242810452,-0.09765625,-0.9780884,0.14544678,-0.046875,-0.6875,0.203125
1696242810490,-0.09667969,-0.98809814,0.14202881,0.015625,-0.328125,0.1875
1696242810530,-0.096191406,-0.9873657,0.1437378,-0.09375,-0.46875,0.34375
1696242810572,-0.10253906,-0.9859009,0.14642334,-0.1875,-0.640625,0.296875
1696242810611,-0.09838867,-0.98150635,0.1449585,-0.140625,-0.53125,0.171875
1696242810649,-0.09863281,-0.98516846,0.14984131,0.1875,-0.703125,0.171875
1696242810690,-0.09667969,-0.9849243,0.14251709,0.0,-0.78125,0.1875
1696242810754,-0.099365234,-0.9817505,0.1473999,0.0,-1.015625,0.171875
1696242810791,-0.099121094,-0.9788208,0.14666748,-0.5,-1.21875,0.015625
1696242810812,-0.09423828,-0.9841919,0.14227295,-0.8125,-0.953125,0.234375
1696242810851,-0.10253906,-0.98394775,0.16107178,0.25,-1.203125,0.1875
1696242810912,-0.08911133,-0.9793091,0.14105225,-1.515625,-0.125,0.078125
1696242810929,-0.103515625,-0.98028564,0.14398193,-1.109375,-0.609375,0.296875
1696242810971,-0.091308594,-0.97735596,0.1305542,-1.671875,-0.09375,-0.25
1696242811011,-0.10888672,-0.9902954,0.16766357,-0.09375,-0.265625,0.453125
1696242811052,-0.0925293,-0.9898071,0.14471436,-1.484375,-0.1875,0.140625
1696242811110,-0.09863281,-0.9729614,0.14544678,-1.234375,-0.265625,0.171875
1696242811130,-0.10107422,-0.9834595,0.15570068,-1.28125,-0.6875,-0.1875
1696242811177,-0.10205078,-0.9805298,0.15887451,-1.609375,-0.59375,-0.109375
1696242811232,-0.099609375,-0.9846802,0.15740967,-1.46875,-0.859375,0.015625
1696242811250,-0.1015625,-0.96832275,0.1552124,-1.546875,-0.515625,-0.109375
1696242811272,-0.099365234,-0.9793091,0.17327881,-0.75,-0.734375,0.125
1696242811354,-0.09741211,-0.9915161,0.16278076,-0.625,-0.46875,0.28125
1696242811358,-0.1027832,-0.9741821,0.15911865,-0.40625,-0.421875,0.375
1696242811392,-0.095214844,-0.98443604,0.1671753,-0.421875,-0.5625,0.359375
1696242811452,-0.10058594,-0.9776001,0.1605835,-0.421875,-0.5625,0.40625
1696242811470,-0.09814453,-0.98150635,0.16326904,-0.328125,-0.234375,0.28125
1696242811511,-0.1003418,-0.9768677,0.16278076,-0.421875,-0.203125,0.546875
1696242811551,-0.09790039,-0.9834595,0.15960693,-0.75,-0.296875,0.296875
1696242811594,-0.103759766,-0.9817505,0.17034912,-0.59375,-0.15625,0.15625
1696242811631,-0.10131836,-0.9783325,0.1708374,-0.6875,-0.21875,0.328125
1696242811672,-0.095703125,-0.9780884,0.16986084,-0.4375,-0.046875,0.234375
1696242811711,-0.09399414,-0.9807739,0.16473389,-0.234375,-0.390625,0.34375
1696242811750,-0.09863281,-0.98516846,0.17303467,0.0,-1.078125,0.5625
1696242811791,-0.08666992,-0.9680786,0.1749878,1.65625,-0.875,0.359375
1696242811831,-0.09082031,-0.9819946,0.1515503,-0.53125,-0.1875,0.5
1696242811873,-0.10546875,-0.9944458,0.17962646,0.234375,-0.203125,0.5625
1696242811911,-0.0949707,-0.98272705,0.16473389,-0.53125,-0.34375,0.203125
1696242811954,-0.088134766,-0.9644165,0.15911865,-0.34375,-0.46875,0.1875
1696242811994,-0.103271484,-0.9746704,0.16571045,0.5625,-0.421875,0.328125
1696242812031,-0.095458984,-0.9883423,0.16400146,-0.03125,-0.625,0.359375
1696242812072,-0.09716797,-0.98272705,0.18304443,0.890625,-0.4375,0.265625
1696242812113,-0.09399414,-0.97540283,0.16741943,-0.265625,-0.625,0.1875
1696242812152,-0.10229492,-0.9758911,0.16546631,0.109375,-0.78125,0.1875
1696242812194,-0.09765625,-0.98809814,0.16375732,0.703125,-0.640625,0.296875
1696242812231,-0.095947266,-0.9805298,0.1671753,0.8125,-0.578125,0.140625
1696242812272,-0.09667969,-0.97906494,0.16741943,1.125,-0.796875,0.359375
1696242812312,-0.09667969,-0.9819946,0.15911865,0.59375,-0.796875,0.09375
1696242812355,-0.095458984,-0.9871216,0.16522217,0.65625,-0.484375,0.21875
1696242812392,-0.095947266,-0.9807739,0.16473389,0.609375,-0.5625,0.125
1696242812431,-0.096191406,-0.98028564,0.16082764,0.828125,-0.875,0.25
1696242812470,-0.09301758,-0.98101807,0.16033936,0.609375,-0.71875,0.203125
1696242812510,-0.099853516,-0.98150635,0.15838623,0.640625,-0.578125,0.203125
1696242812530,-0.095947266,-0.98272705,0.16229248,0.75,-0.46875,0.265625
1696242812571,-0.09667969,-0.97857666,0.16204834,0.96875,-0.515625,0.25
1696242812611,-0.095458984,-0.98443604,0.14593506,0.390625,-0.234375,0.515625
1696242812651,-0.099609375,-0.98150635,0.16693115,2.09375,-0.5625,0.515625
1696242812692,-0.09790039,-0.9746704,0.13934326,-0.671875,0.265625,0.03125
1696242812732,-0.10180664,-0.9800415,0.16229248,1.21875,-0.28125,0.3125
1696242812771,-0.09716797,-0.98931885,0.15081787,0.765625,-0.453125,0.609375
1696242812811,-0.09448242,-0.9788208,0.14520264,0.8125,-0.015625,0.1875
1696242812874,-0.10058594,-0.9776001,0.1449585,0.96875,-0.234375,0.125
1696242812893,-0.095458984,-0.9846802,0.14544678,0.453125,-0.421875,0.203125
1696242812932,-0.10229492,-0.98516846,0.1618042,1.5,-0.171875,0.171875
1696242812972,-0.095703125,-0.9819946,0.14251709,-0.25,-0.34375,0.234375
1696242813033,-0.099853516,-0.973938,0.14593506,0.484375,-0.296875,0.125
1696242813052,-0.103271484,-0.98809814,0.15106201,0.375,-0.578125,0.234375
1696242813114,-0.10205078,-0.9854126,0.13763428,0.328125,-0.546875,0.296875
1696242813129,-0.10131836,-0.9846802,0.1486206,0.796875,-0.359375,0.421875
1696242813176,-0.10595703,-0.98931885,0.14154053,0.421875,-0.578125,0.53125
1696242813214,-0.096191406,-0.98565674,0.1437378,0.265625,-0.3125,0.390625
1696242813253,-0.09790039,-0.98687744,0.14324951,0.234375,-0.34375,0.171875
1696242813291,-0.09790039,-0.9776001,0.14349365,0.140625,-0.421875,0.21875
1696242813331,-0.09716797,-0.9812622,0.1395874,0.0625,-0.328125,0.265625
1696242813373,-0.095458984,-0.9807739,0.14520264,-0.234375,-0.296875,0.203125
1696242813412,-0.095947266,-0.97906494,0.14251709,0.046875,-0.265625,0.484375
1696242813452,-0.09765625,-0.9837036,0.1359253,-0.421875,-0.40625,0.296875
1696242813492,-0.10180664,-0.98150635,0.13934326,-0.234375,-0.671875,0.109375
1696242813534,-0.09643555,-0.9841919,0.16448975,1.359375,-0.796875,0.296875
1696242813591,-0.09082031,-0.98150635,0.1317749,-0.640625,-0.265625,0.203125
1696242813635,-0.09838867,-0.98101807,0.14178467,0.28125,0.078125,0.15625
1696242813650,-0.099121094,-0.991272,0.152771,0.125,-0.515625,0.25
1696242813712,-0.100097656,-0.97613525,0.13885498,-0.03125,-0.109375,0.046875
1696242813730,-0.09033203,-0.9841919,0.14544678,-0.078125,-0.21875,0.015625
1696242813773,-0.09643555,-0.98321533,0.14007568,-0.1875,-0.46875,0.171875
1696242813834,-0.095703125,-0.9812622,0.14788818,0.21875,-0.265625,0.0625
1696242813850,-0.095947266,-0.9837036,0.13909912,-0.765625,-0.5625,0.125
1696242813870,-0.09887695,-0.9768677,0.14129639,-0.140625,-0.359375,0.046875
1696242813912,-0.10205078,-0.9871216,0.1552124,0.125,-0.453125,0.328125
1696242813952,-0.09814453,-0.9834595,0.14105225,0.078125,-0.53125,0.21875
1696242813992,-0.09472656,-0.98223877,0.14031982,0.03125,-0.5625,0.421875
1696242814033,-0.0949707,-0.9824829,0.14422607,-0.046875,-0.421875,0.203125
1696242814071,-0.09448242,-0.99053955,0.14276123,0.09375,-0.34375,0.34375
1696242814112,-0.09863281,-0.98565674,0.14398193,0.015625,-0.609375,0.234375
1696242814151,-0.10253906,-0.9854126,0.14544678,0.09375,-0.640625,0.125
1696242814191,-0.09887695,-0.9854126,0.152771,0.140625,-0.796875,0.296875
1696242814231,-0.091552734,-0.9800415,0.14691162,-0.15625,-0.734375,0.203125
1696242814273,-0.099121094,-0.97979736,0.1437378,-0.40625,-0.875,0.15625
1696242814312,-0.09790039,-0.98516846,0.14447021,-0.828125,-1.046875,0.21875
1696242814372,-0.10571289,-0.9788208,0.15594482,0.09375,-1.234375,0.078125
1696242814390,-0.0925293,-0.97784424,0.1395874,-1.453125,-0.5,-0.078125
1696242814431,-0.09741211,-0.9817505,0.13739014,-1.234375,-0.609375,0.3125
1696242814474,-0.0871582,-0.9795532,0.13543701,-1.515625,-0.03125,-0.375
1696242814532,-0.106933594,-0.99591064,0.16571045,-0.015625,-0.28125,0.4375
1696242814573,-0.09350586,-0.9788208,0.14691162,-1.3125,-0.078125,0.0
1696242814590,-0.09790039,-0.97442627,0.1473999,-1.171875,-0.21875,0.015625
1696242814651,-0.10546875,-0.9907837,0.15447998,-1.28125,-0.578125,0.0625
1696242814671,-0.10253906,-0.987854,0.15814209,-1.21875,-0.265625,0.03125
1696242814736,-0.099121094,-0.9805298,0.14202881,-1.171875,-0.765625,0.265625
1696242814751,-0.09790039,-0.972229,0.1630249,-1.21875,-0.25,0.28125
1696242814794,-0.10913086,-0.9883423,0.16937256,-1.078125,-0.46875,0.34375
1696242814832,-0.099853516,-0.9890747,0.16278076,-1.359375,-0.171875,0.234375
1696242814871,-0.09741211,-0.9780884,0.16619873,-0.734375,-0.28125,0.203125
1696242814911,-0.10083008,-0.97857666,0.16571045,-0.78125,-0.484375,0.3125
1696242814949,-0.09838867,-0.9837036,0.16473389,-0.703125,-0.265625,0.234375
1696242814992,-0.103027344,-0.9805298,0.16229248,-0.875,-0.25,0.203125
1696242815032,-0.09716797,-0.98101807,0.16790771,-0.90625,-0.0625,0.453125
1696242815074,-0.10083008,-0.97906494,0.16497803,-1.171875,-0.015625,0.21875
1696242815111,-0.1003418,-0.9824829,0.17034912,-1.0625,-0.328125,0.109375
1696242815173,-0.1003418,-0.9788208,0.17279053,-0.53125,-0.296875,0.453125
1696242815190,-0.103271484,-0.9776001,0.17352295,-0.21875,-0.671875,0.390625
1696242815210,-0.1003418,-0.9834595,0.1749878,-0.0625,-0.765625,0.328125
1696242815251,-0.08984375,-0.9751587,0.17840576,1.359375,-0.90625,0.15625
1696242815293,-0.09448242,-0.9763794,0.14544678,-0.75,-0.3125,0.15625
1696242815332,-0.10083008,-0.9849243,0.184021,0.21875,-0.171875,0.46875
1696242815371,-0.09106445,-0.9763794,0.17303467,-0.078125,-0.421875,0.296875
1696242815413,-0.09716797,-0.96661377,0.16400146,0.109375,-0.3125,0.015625
1696242815449,-0.10058594,-0.98638916,0.17913818,0.53125,-0.375,0.34375
1696242815493,-0.099121094,-0.986145,0.16375732,-0.03125,-0.671875,0.28125
1696242815532,-0.1003418,-0.97369385,0.17156982,0.6875,-1.09375,0.34375
1696242815571,-0.092041016,-0.97540283,0.16644287,0.78125,-0.6875,0.234375
1696242815612,-0.09887695,-0.9783325,0.17108154,0.625,-0.59375,0.28125
1696242815650,-0.09643555,-0.9866333,0.16400146,0.578125,-0.921875,0.375
1696242815692,-0.095214844,-0.98150635,0.16400146,0.71875,-0.75,0.28125
1696242815733,-0.092285156,-0.9800415,0.1696167,0.875,-0.921875,0.328125
1696242815772,-0.09472656,-0.9776001,0.16278076,0.703125,-0.46875,0.328125
1696242815810,-0.09667969,-0.9817505,0.1552124,0.109375,-0.109375,0.171875
1696242815850,-0.09716797,-0.9805298,0.1630249,0.5625,-0.21875,0.1875
1696242815892,-0.09692383,-0.98223877,0.16644287,0.828125,-0.625,0.046875
1696242815932,-0.10229492,-0.9817505,0.15814209,0.671875,-0.6875,0.15625
1696242815972,-0.09692383,-0.9812622,0.16815186,0.75,-1.046875,0.0625
1696242816012,-0.09423828,-0.987854,0.14886475,0.046875,-0.265625,0.234375
1696242816050,-0.09863281,-0.9866333,0.16522217,1.21875,-1.0,0.265625
1696242816091,-0.09399414,-0.97320557,0.13519287,-1.3125,-0.21875,-0.390625
1696242816133,-0.107910156,-0.9800415,0.1671753,0.328125,-0.6875,0.25
1696242816173,-0.09106445,-0.98883057,0.15496826,0.5,-0.671875,0.078125
1696242816211,-0.09741211,-0.9768677,0.15814209,0.625,-0.34375,0.046875
1696242816249,-0.099609375,-0.98516846,0.16033936,1.359375,-0.765625,0.421875
1696242816293,-0.09887695,-0.9824829,0.15130615,0.578125,-0.5,0.140625
1696242816331,-0.09741211,-0.9817505,0.15667725,1.359375,-0.40625,0.328125
1696242816372,-0.09423828,-0.98150635,0.15325928,-0.03125,-0.46875,0.21875
1696242816412,-0.10205078,-0.9734497,0.15447998,0.484375,-0.359375,0.046875
1696242816475,-0.104003906,-0.9949341,0.1539917,0.84375,-0.59375,0.375
1696242816490,-0.09301758,-0.97906494,0.14959717,0.359375,-0.25,0.28125
1696242816510,-0.10058594,-0.9807739,0.15252686,0.984375,-0.46875,0.3125
1696242816572,-0.09863281,-0.98443604,0.1473999,1.171875,-0.125,0.328125
1696242816614,-0.095703125,-0.98272705,0.14569092,0.421875,-0.28125,0.328125
1696242816632,-0.10083008,-0.97491455,0.14349365,0.453125,-0.1875,0.140625
1696242816671,-0.095458984,-0.9819946,0.14447021,0.171875,-0.59375,0.28125
1696242816714,-0.0925293,-0.98760986,0.14227295,-0.015625,-0.28125,0.34375
1696242816773,-0.107177734,-0.9866333,0.1564331,1.234375,-0.6875,0.421875
1696242816789,-0.08862305,-0.97979736,0.14276123,-0.1875,0.15625,0.15625
1696242816831,-0.09448242,-0.9846802,0.14251709,0.125,-0.671875,0.625
1696242816874,-0.091308594,-0.97540283,0.12982178,-0.828125,0.171875,-0.015625
1696242816911,-0.10058594,-0.98272705,0.15325928,0.921875,-0.078125,0.390625
1696242816953,-0.09838867,-0.98883057,0.1486206,0.09375,-0.34375,0.078125
1696242816991,-0.095458984,-0.9783325,0.14837646,0.15625,-0.15625,0.125
1696242817035,-0.10229492,-0.9846802,0.14202881,-0.1875,-0.640625,0.15625
1696242817073,-0.100097656,-0.9854126,0.14593506,0.09375,-0.640625,0.125
1696242817114,-0.095947266,-0.987854,0.14666748,-0.125,-0.625,0.203125
1696242817151,-0.09008789,-0.972229,0.14031982,-0.140625,-0.5625,-0.09375
1696242817194,-0.1027832,-0.9812622,0.1486206,0.21875,-0.59375,0.203125
1696242817233,-0.10083008,-0.98443604,0.14935303,0.265625,-0.734375,0.34375
1696242817291,-0.09057617,-0.98028564,0.13983154,0.09375,-0.421875,0.28125
1696242817311,-0.09814453,-0.9763794,0.14276123,0.109375,-0.6875,0.265625
1696242817372,-0.095458984,-0.98638916,0.14129639,0.265625,-0.359375,0.328125
1696242817390,-0.09326172,-0.9807739,0.14129639,0.109375,-0.453125,0.171875
1696242817434,-0.09790039,-0.98638916,0.14471436,0.15625,-0.53125,0.34375
1696242817473,-0.10180664,-0.9829712,0.14202881,-0.03125,-0.625,0.109375
1696242817533,-0.09082031,-0.98150635,0.14031982,-0.171875,-0.53125,0.15625
1696242817550,-0.10546875,-0.987854,0.14691162,0.65625,-1.109375,0.328125
1696242817590,-0.095214844,-0.9758911,0.15960693,1.296875,-0.796875,0.359375
1696242817633,-0.10205078,-0.9751587,0.13470459,-0.234375,-0.859375,0.421875
1696242817673,-0.091796875,-0.9780884,0.14520264,-0.625,-0.28125,-0.140625
1696242817713,-0.1105957,-0.99298096,0.14910889,-0.28125,-0.796875,0.578125
1696242817751,-0.09472656,-0.98394775,0.14178467,-1.125,-0.34375,-0.109375
1696242817792,-0.10205078,-0.9746704,0.14251709,-1.09375,-0.453125,0.0
1696242817811,-0.10107422,-0.9854126,0.1408081,-0.9375,-0.65625,0.140625
1696242817852,-0.096191406,-0.9854126,0.1630249,-0.71875,-0.59375,-0.09375
1696242817892,-0.0949707,-0.97906494,0.1395874,-1.640625,-0.4375,0.078125
1696242817934,-0.100097656,-0.97320557,0.15496826,-0.703125,-0.21875,-0.09375
1696242817971,-0.107421875,-0.9871216,0.15716553,-0.609375,-0.5625,0.359375
1696242818010,-0.09838867,-0.9819946,0.14691162,-1.046875,-0.328125,0.171875
1696242818052,-0.09887695,-0.97735596,0.15057373,-0.84375,-0.5625,0.0625
1696242818112,-0.1105957,-0.97442627,0.152771,-0.9375,-0.90625,0.15625
1696242818130,-0.104003906,-0.9829712,0.1539917,-1.109375,-0.671875,0.28125
1696242818173,-0.09667969,-0.98443604,0.15447998,-1.375,-0.34375,0.125
1696242818212,-0.09667969,-0.97906494,0.15618896,-1.296875,-0.4375,0.09375
1696242818253,-0.10107422,-0.97442627,0.16082764,-1.140625,-0.484375,0.4375
1696242818292,-0.09863281,-0.97613525,0.15716553,-1.09375,-0.390625,0.421875
1696242818333,-0.10498047,-0.9819946,0.16082764,-0.453125,-0.828125,0.515625
1696242818373,-0.09423828,-0.97662354,0.17889404,-0.328125,-0.359375,0.40625
1696242818413,-0.099121094,-0.98321533,0.14422607,-1.75,0.09375,0.25
1696242818453,-0.1015625,-0.98883057,0.17889404,-0.09375,0.09375,0.546875
1696242818490,-0.09863281,-0.9885864,0.16400146,-1.1875,-0.078125,0.296875
1696242818533,-0.091552734,-0.975647,0.16156006,-0.90625,-0.046875,0.078125
1696242818571,-0.10546875,-0.98028564,0.16815186,-0.25,-0.609375,0.296875
1696242818612,-0.091796875,-0.9834595,0.16473389,-0.65625,-0.5,0.125
1696242818652,-0.0925293,-0.9783325,0.17645264,0.828125,-0.421875,0.3125
1696242818716,-0.09423828,-0.973938,0.1642456,0.0625,-0.34375,0.359375
1696242818731,-0.09643555,-0.96881104,0.17791748,0.40625,-0.28125,0.375
1696242818772,-0.092285156,-0.9873657,0.17279053,0.671875,-0.71875,0.359375
1696242818812,-0.09326172,-0.9702759,0.16912842,0.6875,-0.859375,0.328125
1696242818853,-0.09863281,-0.9776001,0.1671753,0.9375,-0.6875,0.59375
1696242818891,-0.10083008,-0.98150635,0.16082764,0.484375,-0.84375,0.171875
1696242818932,-0.1003418,-0.9805298,0.16473389,0.515625,-0.546875,0.25
1696242818972,-0.09863281,-0.9800415,0.16351318,0.578125,-0.484375,0.203125
1696242819011,-0.099121094,-0.97784424,0.15814209,0.453125,-0.59375,0.296875
1696242819051,-0.103759766,-0.98028564,0.17352295,1.0,-0.890625,0.15625
1696242819115,-0.091552734,-0.9846802,0.15594482,-0.203125,-0.40625,0.21875
1696242819130,-0.09448242,-0.9817505,0.17401123,1.421875,-0.96875,0.21875
1696242819151,-0.09375,-0.9763794,0.14642334,-0.515625,0.09375,-0.0625
1696242819191,-0.107666016,-0.9805298,0.17230225,0.515625,-0.765625,0.421875
1696242819232,-0.091552734,-0.98223877,0.15472412,0.265625,-0.5,0.203125
1696242819292,-0.100097656,-0.9780884,0.16253662,0.671875,-0.375,0.015625
1696242819311,-0.10913086,-0.98028564,0.15887451,0.78125,-0.4375,0.109375
1696242819350,-0.100097656,-0.98638916,0.15032959,0.546875,-0.578125,-0.0625
1696242819392,-0.1015625,-0.98101807,0.1605835,0.71875,-0.75,0.3125
1696242819433,-0.09448242,-0.9819946,0.14666748,-0.1875,-0.421875,-0.09375
1696242819472,-0.10253906,-0.97784424,0.16278076,0.609375,-0.515625,0.171875
1696242819511,-0.10449219,-0.9854126,0.15814209,0.453125,-0.875,0.328125
1696242819575,-0.09667969,-0.9819946,0.15374756,0.296875,-0.4375,0.03125
1696242819593,-0.09326172,-0.98443604,0.15570068,0.8125,-0.78125,0.390625
1696242819633,-0.09887695,-0.9824829,0.15594482,0.609375,-0.421875,0.34375
1696242819673,-0.103027344,-0.98223877,0.15032959,0.390625,-0.484375,0.296875
1696242819732,-0.095947266,-0.9805298,0.14837646,0.5625,-0.453125,0.1875
1696242819772,-0.09765625,-0.986145,0.14959717,0.515625,-0.40625,0.234375
1696242819791,-0.09790039,-0.9768677,0.14569092,0.234375,-0.578125,0.125
1696242819833,-0.09814453,-0.9780884,0.15081787,0.546875,-0.609375,0.375
1696242819871,-0.09863281,-0.9812622,0.14935303,0.203125,-0.375,0.328125
1696242819912,-0.10058594,-0.9788208,0.15887451,1.671875,-0.796875,0.484375
1696242819953,-0.09350586,-0.9780884,0.14520264,0.53125,-0.0625,0.171875
1696242819992,-0.092041016,-0.98101807,0.13861084,0.21875,-0.4375,0.53125
1696242820033,-0.08935547,-0.97662354,0.13275146,-0.328125,0.078125,0.015625
1696242820071,-0.107666016,-0.99102783,0.15325928,1.21875,-0.53125,0.484375
1696242820113,-0.092285156,-0.9871216,0.1408081,0.140625,-0.09375,0.203125
1696242820154,-0.09741211,-0.97735596,0.14178467,0.25,-0.21875,0.09375
1696242820193,-0.10668945,-0.9807739,0.13909912,0.078125,-0.421875,0.1875
1696242820231,-0.09863281,-0.9854126,0.14324951,0.125,-0.390625,0.078125
1696242820271,-0.10083008,-0.98809814,0.13885498,-0.125,-0.53125,0.3125
1696242820311,-0.099853516,-0.9746704,0.13983154,-0.484375,-0.359375,0.0
1696242820353,-0.092041016,-0.9805298,0.14666748,0.296875,-0.59375,0.25
1696242820392,-0.10131836,-0.98394775,0.1473999,0.15625,-0.40625,0.265625
1696242820431,-0.09448242,-0.98443604,0.14398193,0.0,-0.296875,0.203125
1696242820450,-0.10058594,-0.97857666,0.14471436,0.125,-0.703125,0.34375
1696242820492,-0.10107422,-0.9890747,0.14544678,0.21875,-0.515625,0.40625
1696242820531,-0.095214844,-0.9854126,0.14105225,0.046875,-0.453125,0.171875
1696242820572,-0.0949707,-0.9763794,0.14154053,-0.015625,-0.421875,0.390625
1696242820611,-0.103271484,-0.98223877,0.14520264,0.234375,-0.453125,0.34375
1696242820651,-0.09716797,-0.98101807,0.14544678,-0.015625,-0.4375,0.28125
1696242820692,-0.099853516,-0.9849243,0.13861084,-0.09375,-0.59375,0.234375
1696242820730,-0.1027832,-0.98150635,0.14471436,0.09375,-0.3125,0.0625
1696242820772,-0.10058594,-0.9807739,0.13348389,-0.328125,-0.46875,0.21875
1696242820812,-0.095947266,-0.98443604,0.14569092,0.015625,-1.0625,0.296875
1696242820853,-0.092285156,-0.9807739,0.15838623,1.28125,-0.875,0.234375
1696242820892,-0.09838867,-0.986145,0.12982178,-0.453125,-0.5625,0.171875
1696242820933,-0.095703125,-0.97979736,0.14544678,0.078125,-0.046875,0.109375
1696242820973,-0.10546875,-0.99176025,0.14471436,0.125,-0.75,0.328125
1696242821011,-0.09741211,-0.97857666,0.14422607,-0.5,-0.265625,-0.015625
1696242821073,-0.099853516,-0.9793091,0.1437378,-0.515625,-0.65625,0.125
1696242821090,-0.10620117,-0.98760986,0.14349365,-0.953125,-0.65625,-0.046875
1696242821154,-0.10229492,-0.98394775,0.15838623,-0.5625,-0.53125,0.03125
1696242821170,-0.09375,-0.9780884,0.13616943,-1.625,-0.515625,0.1875
1696242821212,-0.09765625,-0.9651489,0.14349365,-0.796875,-0.265625,0.25
1696242821255,-0.099121094,-0.986145,0.15203857,-0.40625,-0.46875,0.390625
1696242821293,-0.09448242,-0.98565674,0.13983154,-0.78125,-0.53125,0.234375
1696242821331,-0.095458984,-0.97125244,0.14666748,-0.71875,-0.25,0.21875
1696242821374,-0.10229492,-0.98150635,0.15130615,-0.765625,-0.5,0.265625
1696242821411,-0.10253906,-0.9854126,0.15179443,-0.953125,-0.171875,0.390625
1696242821452,-0.099121094,-0.9805298,0.15252686,-0.890625,-0.5,0.078125
1696242821492,-0.09887695,-0.9788208,0.15423584,-0.703125,-0.53125,0.28125
1696242821532,-0.1003418,-0.97906494,0.15447998,-0.890625,-0.5625,0.203125
1696242821571,-0.09741211,-0.98394775,0.15374756,-1.03125,-0.296875,0.140625
1696242821611,-0.09863281,-0.975647,0.15765381,-0.8125,-0.453125,0.046875
1696242821674,-0.09741211,-0.97906494,0.15887451,-0.453125,-0.546875,0.125
1696242821690,-0.09667969,-0.9800415,0.15203857,-0.96875,-0.453125,0.328125
1696242821733,-0.10522461,-0.9795532,0.16448975,0.390625,-0.828125,0.359375
1696242821752,-0.09301758,-0.97613525,0.16668701,-0.6875,-0.53125,0.203125
1696242821813,-0.099609375,-0.97784424,0.13616943,-1.046875,-0.5,0.359375
1696242821831,-0.09692383,-0.9812622,0.17352295,0.15625,-0.015625,0.15625
1696242821874,-0.099121094,-0.9873657,0.16497803,-0.25,-0.46875,0.546875
1696242821912,-0.08666992,-0.96710205,0.15228271,-0.28125,-0.375,0.015625
1696242821954,-0.09863281,-0.97198486,0.15716553,0.265625,-0.40625,0.265625
1696242821991,-0.095703125,-0.9907837,0.15618896,0.03125,-0.328125,0.265625
1696242822054,-0.103027344,-0.9727173,0.17791748,0.421875,-0.546875,0.109375
1696242822071,-0.096191406,-0.9824829,0.15325928,-0.546875,-0.46875,0.390625
1696242822113,-0.103027344,-0.975647,0.15594482,-0.578125,-0.46875,0.046875
1696242822153,-0.107421875,-0.98565674,0.1720581,0.375,-0.609375,0.375
1696242822190,-0.10083008,-0.9692993,0.15618896,0.34375,-0.765625,0.140625
1696242822231,-0.095703125,-0.9783325,0.1642456,0.421875,-0.515625,0.34375
1696242822273,-0.1003418,-0.98321533,0.1605835,0.21875,-0.8125,0.21875
1696242822313,-0.103759766,-0.9788208,0.15667725,0.453125,-0.765625,0.3125
1696242822352,-0.099365234,-0.98443604,0.15985107,0.15625,-0.296875,0.171875
1696242822392,-0.099609375,-0.9807739,0.16033936,0.0,-0.671875,0.390625
1696242822432,-0.09887695,-0.986145,0.16204834,0.0625,-0.46875,0.359375
1696242822472,-0.10839844,-0.98028564,0.15374756,-0.03125,-0.515625,0.5625
1696242822511,-0.092285156,-0.9819946,0.15740967,0.421875,-0.546875,0.515625
1696242822553,-0.092285156,-0.98443604,0.16107178,0.328125,-0.5,0.421875
1696242822593,-0.08642578,-0.9746704,0.15179443,-0.125,-0.4375,0.125
1696242822630,-0.09716797,-0.98443604,0.15203857,-0.21875,-0.78125,0.0625
1696242822672,-0.099609375,-0.98101807,0.17669678,1.515625,-1.03125,0.125
1696242822711,-0.08862305,-0.975647,0.13421631,-1.40625,0.1875,-0.3125
1696242822753,-0.10620117,-0.98394775,0.17474365,0.53125,-0.234375,-0.125
1696242822793,-0.09790039,-0.9817505,0.15911865,0.3125,-0.390625,0.078125
1696242822834,-0.09863281,-0.97857666,0.14910889,0.140625,-0.1875,0.0625
1696242822872,-0.10644531,-0.98028564,0.15789795,0.453125,-0.65625,0.21875
1696242822911,-0.099365234,-0.9854126,0.14984131,0.046875,-0.515625,0.125
1696242822953,-0.10620117,-0.97979736,0.168396,1.140625,-0.5,0.328125
1696242822991,-0.10180664,-0.9807739,0.14886475,-0.390625,-0.328125,0.296875
1696242823074,-0.096191406,-0.97442627,0.15765381,0.171875,-0.1875,0.125
1696242823078,-0.103271484,-0.9932251,0.16351318,0.375,-0.5625,0.21875
1696242823090,-0.09863281,-0.9819946,0.15350342,0.125,-0.5,0.359375
1696242823151,-0.0949707,-0.9727173,0.15618896,0.34375,-0.53125,0.265625
1696242823193,-0.103271484,-0.9817505,0.15838623,0.328125,-0.78125,0.453125
1696242823210,-0.09765625,-0.9819946,0.15130615,0.078125,-0.359375,0.1875
1696242823274,-0.1015625,-0.97369385,0.14886475,0.328125,-0.484375,0.234375
1696242823291,-0.099853516,-0.9849243,0.15081787,0.375,-0.390625,0.328125
1696242823331,-0.1027832,-0.9834595,0.1515503,0.21875,-0.421875,0.21875
1696242823373,-0.10131836,-0.98321533,0.15057373,0.171875,-0.328125,0.125
1696242823411,-0.099121094,-0.9817505,0.14984131,0.265625,-0.46875,0.09375
1696242823451,-0.09741211,-0.9812622,0.15960693,0.28125,-0.25,0.484375
1696242823492,-0.1003418,-0.9807739,0.14251709,-0.140625,-0.359375,0.265625
1696242823536,-0.09887695,-0.98883057,0.14569092,0.5,-0.796875,0.171875
1696242823573,-0.09326172,-0.97784424,0.16741943,1.609375,-0.75,0.3125
1696242823613,-0.092041016,-0.9859009,0.13006592,-0.59375,-0.375,0.21875
1696242823652,-0.09472656,-0.97979736,0.1461792,0.5,0.015625,0.171875
1696242823691,-0.104003906,-0.9937134,0.15594482,0.71875,-0.625,0.46875
1696242823732,-0.0949707,-0.9793091,0.14251709,0.390625,-0.3125,0.03125
1696242823793,-0.09790039,-0.98638916,0.15081787,0.5,-0.34375,0.125
1696242823810,-0.104003906,-0.987854,0.14837646,0.0625,-0.5,0.15625
1696242823873,-0.095703125,-0.9817505,0.15887451,0.59375,-0.515625,0.078125
1696242823890,-0.09716797,-0.9920044,0.14910889,-0.421875,-0.4375,0.171875
1696242823932,-0.10058594,-0.9788208,0.14398193,-0.03125,-0.40625,0.03125
1696242823996,-0.10253906,-0.9837036,0.15301514,0.484375,-0.40625,0.5
1696242824012,-0.1015625,-0.98809814,0.14422607,0.21875,-0.34375,0.34375
1696242824074,-0.095703125,-0.9829712,0.14031982,0.078125,-0.34375,0.1875
1696242824089,-0.103515625,-0.9817505,0.14105225,0.25,-0.5,0.140625
1696242824135,-0.10083008,-0.9807739,0.14935303,0.1875,-0.34375,0.296875
1696242824171,-0.096191406,-0.97857666,0.14813232,0.171875,-0.296875,0.296875
1696242824214,-0.09838867,-0.9807739,0.1486206,0.046875,-0.671875,0.1875
1696242824252,-0.099609375,-0.98394775,0.1437378,0.125,-0.484375,0.453125
1696242824294,-0.09692383,-0.9829712,0.14691162,0.0,-0.390625,0.140625
1696242824333,-0.095703125,-0.9859009,0.14520264,-0.21875,-0.796875,0.21875
1696242824372,-0.103271484,-0.9834595,0.15179443,0.0,-0.671875,0.28125
1696242824391,-0.09790039,-0.9819946,0.14666748,-0.5625,-0.78125,-0.046875
1696242824434,-0.1003418,-0.9883423,0.13665771,-0.734375,-1.0,0.328125
1696242824471,-0.09814453,-0.9837036,0.15887451,0.359375,-1.234375,0.296875
1696242824514,-0.09326172,-0.98223877,0.12786865,-1.96875,-0.484375,-0.140625
1696242824552,-0.10571289,-0.9768677,0.15496826,-0.265625,-0.1875,0.015625
1696242824592,-0.1081543,-0.9915161,0.15032959,-0.828125,-0.8125,0.28125
1696242824632,-0.095947266,-0.97247314,0.14520264,-0.984375,-0.390625,-0.046875
1696242824673,-0.107177734,-0.9783325,0.15667725,-0.546875,-0.484375,0.046875
1696242824712,-0.099853516,-0.9866333,0.14691162,-0.828125,-0.71875,0.015625
1696242824754,-0.10205078,-0.98394775,0.16595459,0.140625,-0.640625,0.21875
1696242824791,-0.099609375,-0.9727173,0.14910889,-1.40625,-0.453125,0.140625
1696242824831,-0.1027832,-0.9729614,0.15789795,-0.59375,-0.5,0.1875
1696242824870,-0.1027832,-0.9873657,0.15887451,-0.546875,-0.40625,0.34375
1696242824912,-0.099121094,-0.97247314,0.15130615,-0.59375,-0.59375,0.140625
1696242824952,-0.095703125,-0.9795532,0.15594482,-0.3125,-0.4375,0.4375
1696242824992,-0.10229492,-0.9871216,0.15203857,-0.671875,-0.515625,0.21875
1696242825033,-0.10620117,-0.9824829,0.15618896,-0.6875,-0.40625,0.1875
1696242825071,-0.09887695,-0.9817505,0.16009521,-0.828125,-0.3125,0.328125
1696242825112,-0.09863281,-0.98101807,0.15472412,-0.75,-0.421875,0.1875
1696242825153,-0.09667969,-0.9780884,0.15570068,-0.796875,-0.296875,0.296875
1696242825193,-0.10449219,-0.98028564,0.16571045,-0.453125,-0.484375,0.46875
1696242825231,-0.09790039,-0.9788208,0.168396,-0.515625,-0.46875,0.234375
1696242825271,-0.10253906,-0.9793091,0.15985107,-0.859375,-0.359375,0.140625
1696242825311,-0.10229492,-0.9819946,0.1630249,-0.78125,-0.703125,0.296875
1696242825351,-0.0949707,-0.97613525,0.18035889,-0.046875,-0.59375,0.125
1696242825392,-0.095214844,-0.98101807,0.13641357,-1.578125,-0.140625,0.3125
1696242825432,-0.10522461,-0.98443604,0.18011475,0.046875,0.046875,0.421875
1696242825491,-0.09741211,-0.9824829,0.1605835,-0.59375,-0.25,0.21875
1696242825511,-0.09326172,-0.9678345,0.15960693,-0.4375,-0.71875,0.015625
1696242825550,-0.10107422,-0.98321533,0.16766357,0.09375,-0.46875,0.265625
1696242825591,-0.095947266,-0.98516846,0.16278076,0.1875,-0.46875,0.234375
1696242825632,-0.10131836,-0.9837036,0.1774292,1.34375,-0.4375,0.5
1696242825670,-0.095214844,-0.9807739,0.1618042,-0.078125,-0.28125,0.3125
1696242825691,-0.095703125,-0.97442627,0.16693115,0.171875,-0.4375,0.125
1696242825732,-0.10229492,-0.991272,0.16815186,0.375,-0.609375,0.296875
1696242825772,-0.09863281,-0.97613525,0.1642456,0.59375,-0.8125,0.21875
1696242825811,-0.09716797,-0.9807739,0.16571045,0.640625,-0.890625,0.46875
1696242825853,-0.09838867,-0.97784424,0.15863037,0.40625,-1.265625,0.3125
1696242825891,-0.09692383,-0.98931885,0.16351318,0.578125,-0.78125,0.171875
1696242825932,-0.10131836,-0.98516846,0.15618896,0.09375,-0.75,0.140625
1696242825974,-0.103759766,-0.97735596,0.15863037,0.140625,-0.796875,0.15625
1696242826012,-0.10083008,-0.98565674,0.16107178,0.5,-0.71875,0.234375
1696242826052,-0.09716797,-0.97784424,0.1630249,0.65625,-0.546875,0.234375
1696242826093,-0.099609375,-0.975647,0.15960693,0.40625,-0.421875,0.140625
1696242826154,-0.10839844,-0.9902954,0.1593628,0.828125,-0.875,0.3125
1696242826191,-0.09887695,-0.9824829,0.18353271,2.078125,-0.78125,0.34375
1696242826210,-0.1003418,-0.9841919,0.13616943,-0.953125,0.109375,0.15625
1696242826253,-0.09399414,-0.98150635,0.1618042,0.96875,0.015625,0.046875
1696242826290,-0.103515625,-0.99176025,0.16107178,0.75,-0.46875,0.453125
1696242826355,-0.09472656,-0.97491455,0.15081787,0.59375,-0.296875,0.21875
1696242826370,-0.103027344,-0.9795532,0.15618896,0.921875,-0.25,0.40625
1696242826412,-0.100097656,-0.98809814,0.14935303,0.25,-0.171875,0.0625
1696242826451,-0.10107422,-0.97784424,0.16009521,1.296875,-0.375,0.015625
1696242826492,-0.099609375,-0.9890747,0.15374756,-0.15625,-0.234375,0.28125
1696242826531,-0.10253906,-0.97125244,0.14910889,0.078125,-0.21875,-0.03125
1696242826571,-0.103515625,-0.986145,0.1605835,0.328125,-0.484375,0.390625
1696242826612,-0.103027344,-0.98516846,0.14984131,0.09375,-0.6875,0.28125
1696242826654,-0.10058594,-0.9763794,0.15350342,0.375,-0.375,0.28125
1696242826693,-0.10449219,-0.9800415,0.14691162,0.359375,-0.46875,0.140625
1696242826754,-0.09350586,-0.98223877,0.14910889,0.40625,-0.109375,0.1875
1696242826794,-0.10229492,-0.97979736,0.15130615,0.390625,-0.421875,0.21875
1696242826810,-0.0949707,-0.98760986,0.14910889,0.421875,-0.46875,0.234375
1696242826874,-0.09863281,-0.98101807,0.15057373,0.140625,-0.484375,0.21875
1696242826890,-0.10131836,-0.9793091,0.14959717,0.15625,-0.578125,0.46875
1696242826931,-0.1003418,-0.98272705,0.14227295,-0.09375,-0.5625,0.359375
1696242826970,-0.10229492,-0.9866333,0.14056396,0.8125,-0.828125,0.40625
1696242826990,-0.09814453,-0.97491455,0.16473389,1.15625,-0.453125,0.265625
1696242827031,-0.095703125,-0.9824829,0.13861084,-0.390625,-0.578125,0.359375
1696242827072,-0.09326172,-0.98150635,0.1408081,-0.109375,0.0,0.125
1696242827112,-0.103515625,-0.989563,0.15203857,0.53125,-0.46875,0.46875
1696242827152,-0.09472656,-0.9783325,0.1449585,0.34375,-0.171875,0.265625
1696242827192,-0.103271484,-0.97540283,0.15179443,0.03125,-0.28125,0.3125
1696242827232,-0.099609375,-0.98565674,0.14178467,-0.140625,-0.484375,-0.03125
1696242827269,-0.09887695,-0.9849243,0.14764404,0.3125,-0.59375,0.09375
