,timestamp,accel_x,accel_y,accel_z,gyro_x,gyro_y,gyro_z,ind
0,1696246828119,0.54052734,0.055603027,-0.81866455,4.9375,-4.21875,1.609375,0
1,1696246828159,0.52734375,0.07342529,-0.77056885,10.296875,-5.0,3.734375,1
2,1696246828199,0.5422363,0.10296631,-0.788147,7.828125,-4.78125,2.71875,2
3,1696246828239,0.5510254,0.10638428,-0.79156494,6.34375,-4.8125,1.5,3
4,1696246828279,0.5498047,0.12322998,-0.7661743,5.59375,-3.0,1.4375,4
5,1696246828319,0.56591797,0.11883545,-0.7827759,3.015625,-2.140625,0.890625,5
6,1696246828359,0.5437012,0.12176514,-0.75982666,2.515625,0.0,0.859375,6
7,1696246828399,0.5678711,0.13934326,-0.80181885,-0.171875,3.078125,0.171875,7
8,1696246828439,0.642334,0.15106201,-0.80841064,-3.25,8.1875,-1.078125,8
9,1696246828479,0.4338379,0.08319092,-0.69659424,-0.1875,9.5625,1.640625,9
10,1696246828519,0.49023438,0.113220215,-0.78253174,-1.734375,8.265625,0.34375,10
11,1696246828559,0.48461914,0.09490967,-0.75567627,-1.828125,6.03125,0.40625,11
12,1696246828599,0.48095703,0.11151123,-0.78863525,-1.71875,5.03125,0.53125,12
13,1696246828639,0.48535156,0.109802246,-0.8015747,-1.484375,-0.8125,-0.515625,13
14,1696246828679,0.49682617,0.11029053,-0.81915283,-0.734375,-2.375,-0.46875,14
15,1696246828719,0.52783203,0.11273193,-0.85601807,-0.03125,-2.484375,-0.625,15
16,1696246828759,0.50878906,0.11468506,-0.8040161,2.6875,-1.21875,0.28125,16
17,1696246828799,0.51342773,0.12860107,-0.8460083,4.296875,2.234375,0.734375,17
18,1696246828839,0.54174805,0.11981201,-0.7908325,3.421875,8.078125,1.40625,18
19,1696246828879,0.4428711,0.10736084,-0.70758057,2.828125,5.28125,1.640625,19
20,1696246828919,0.44433594,0.1227417,-0.75445557,-0.71875,3.59375,0.359375,20
21,1696246828959,0.45751953,0.116882324,-0.8076782,-1.328125,1.140625,-0.125,21
22,1696246828999,0.44311523,0.13079834,-0.7962036,-0.859375,-1.046875,-0.171875,22
23,1696246829039,0.48486328,0.1293335,-0.8550415,-1.703125,-1.640625,-1.0,23
24,1696246829079,0.49902344,0.13275146,-0.8538208,-0.28125,-3.984375,-0.59375,24
25,1696246829119,0.49243164,0.13275146,-0.8447876,1.625,-1.359375,0.4375,25
26,1696246829159,0.5036621,0.13787842,-0.8596802,1.8125,-0.109375,0.6875,26
27,1696246829199,0.49389648,0.13470459,-0.8435669,1.15625,0.65625,0.515625,27
28,1696246829239,0.5168457,0.13446045,-0.88604736,-2.203125,2.828125,-0.015625,28
29,1696246829279,0.40722656,0.11907959,-0.7637329,0.9375,5.6875,1.421875,29
30,1696246829319,0.40112305,0.11932373,-0.6880493,-1.609375,1.0625,0.015625,30
31,1696246829359,0.44482422,0.1227417,-0.7647095,-2.890625,-0.15625,-1.203125,31
32,1696246829399,0.44628906,0.113464355,-0.77178955,-3.90625,-2.984375,-1.5,32
33,1696246829439,0.4609375,0.11077881,-0.78326416,-7.1875,-0.078125,-1.3125,33
34,1696246829479,0.4831543,0.10296631,-0.86846924,-8.296875,-0.875,-1.34375,34
35,1696246829519,0.50634766,0.105651855,-0.9085083,-4.953125,-3.8125,-0.828125,35
36,1696246829559,0.49853516,0.09881592,-0.87091064,-2.34375,-4.765625,-0.546875,36
37,1696246829599,0.4946289,0.08831787,-0.83843994,-0.578125,-3.890625,0.015625,37
38,1696246829639,0.48339844,0.086364746,-0.8098755,-1.109375,-2.5625,0.046875,38
39,1696246829679,0.48364258,0.08856201,-0.7959595,-2.71875,-2.0,-0.59375,39
40,1696246829719,0.47753906,0.08538818,-0.7798462,-3.171875,-1.5625,-0.71875,40
41,1696246829759,0.5046387,0.085632324,-0.82525635,2.453125,-3.140625,0.796875,41
42,1696246829799,0.5175781,0.09173584,-0.85528564,5.046875,-2.5625,1.71875,42
43,1696246829839,0.4711914,0.09173584,-0.7835083,6.953125,-1.890625,2.28125,43
44,1696246829879,0.49731445,0.105407715,-0.80474854,5.515625,-1.765625,1.328125,44
45,1696246829919,0.47827148,0.1071167,-0.7817993,3.0625,-0.71875,0.6875,45
46,1696246829959,0.49804688,0.11932373,-0.8032837,2.46875,-0.9375,0.609375,46
47,1696246829999,0.49291992,0.1359253,-0.8130493,2.640625,-0.5,0.609375,47
48,1696246830039,0.5124512,0.10687256,-0.7498169,2.703125,5.875,1.65625,48
49,1696246830079,0.45263672,0.12640381,-0.73760986,0.953125,1.34375,0.296875,49
50,1696246830119,0.45996094,0.11004639,-0.7600708,-2.84375,0.0,-1.28125,50
51,1696246830159,0.48266602,0.11004639,-0.7971802,-2.640625,0.171875,-0.59375,51
52,1696246830199,0.48364258,0.11248779,-0.80914307,-0.796875,-0.03125,-0.359375,52
53,1696246830239,0.49853516,0.11639404,-0.8401489,-0.328125,-0.859375,-0.296875,53
54,1696246830279,0.49243164,0.116882324,-0.8389282,0.15625,-0.859375,-0.03125,54
55,1696246830319,0.5029297,0.117370605,-0.8230591,0.734375,-1.21875,0.390625,55
56,1696246830359,0.4831543,0.12030029,-0.8086548,0.765625,-0.390625,0.28125,56
57,1696246830399,0.48828125,0.1161499,-0.80352783,0.8125,0.203125,0.5,57
58,1696246830439,0.48583984,0.117614746,-0.815979,0.453125,0.109375,0.265625,58
59,1696246830479,0.4873047,0.11907959,-0.80426025,0.515625,-0.203125,-0.03125,59
60,1696246830519,0.4855957,0.11859131,-0.8154907,0.125,-0.5,0.03125,60
61,1696246830559,0.4909668,0.1161499,-0.8130493,0.421875,0.0,0.25,61
62,1696246830599,0.49902344,0.1227417,-0.82940674,-0.359375,0.625,0.140625,62
63,1696246830639,0.4802246,0.12249756,-0.8110962,-0.328125,1.203125,0.171875,63
64,1696246830679,0.48901367,0.12005615,-0.8189087,0.34375,0.59375,0.390625,64
65,1696246830719,0.48168945,0.121032715,-0.8167114,-0.71875,1.296875,0.03125,65
66,1696246830759,0.5217285,0.12030029,-0.8777466,-2.5625,2.578125,-0.328125,66
67,1696246830799,0.4296875,0.10369873,-0.7678833,0.328125,5.25,1.03125,67
68,1696246830839,0.4489746,0.11468506,-0.7710571,-0.4375,1.734375,0.609375,68
69,1696246830879,0.44848633,0.12005615,-0.77667236,-1.53125,0.09375,-0.46875,69
70,1696246830919,0.43969727,0.11224365,-0.76275635,-3.3125,-2.15625,-1.0,70
71,1696246830959,0.453125,0.09661865,-0.7949829,-3.875,-0.21875,-0.453125,71
72,1696246830999,0.46557617,0.101989746,-0.8428345,-4.34375,-3.1875,-0.53125,72
73,1696246831039,0.5095215,0.10369873,-0.89263916,-3.390625,-4.796875,-0.765625,73
74,1696246831079,0.50756836,0.101257324,-0.878479,-1.234375,-4.09375,-0.3125,74
75,1696246831119,0.5078125,0.10760498,-0.84210205,-0.203125,-3.359375,0.015625,75
76,1696246831159,0.49072266,0.09295654,-0.82232666,-0.625,-1.65625,0.1875,76
77,1696246831199,0.46826172,0.09539795,-0.78497314,-1.984375,-0.9375,-0.3125,77
78,1696246831239,0.47631836,0.081726074,-0.8154907,-2.234375,-0.75,-0.40625,78
79,1696246831279,0.50146484,0.1005249,-0.8237915,1.953125,-1.734375,0.546875,79
80,1696246831319,0.5119629,0.08441162,-0.8760376,2.9375,-0.0625,1.125,80
81,1696246831359,0.47045898,0.10028076,-0.77349854,5.859375,-1.1875,2.15625,81
82,1696246831399,0.5148926,0.10443115,-0.8657837,2.265625,-0.515625,0.03125,82
83,1696246831439,0.48706055,0.10467529,-0.8008423,2.484375,0.0,0.265625,83
84,1696246831479,0.49194336,0.11883545,-0.82232666,3.921875,-1.375,1.21875,84
85,1696246831519,0.48242188,0.1227417,-0.81744385,3.3125,-0.75,1.28125,85
86,1696246831559,0.47753906,0.13201904,-0.80010986,2.796875,0.421875,1.03125,86
87,1696246831599,0.4794922,0.12030029,-0.78863525,0.75,0.328125,-0.0625,87
88,1696246831639,0.4892578,0.11883545,-0.8088989,0.296875,1.046875,-0.015625,88
89,1696246831679,0.48217773,0.12615967,-0.80474854,-0.125,1.484375,0.5,89
90,1696246831719,0.5336914,0.1383667,-0.91485596,-1.75,2.78125,-0.03125,90
91,1696246831759,0.46118164,0.11590576,-0.81329346,1.046875,5.34375,1.234375,91
92,1696246831799,0.43066406,0.1161499,-0.73760986,-0.140625,2.0625,0.15625,92
93,1696246831839,0.4338379,0.11590576,-0.7498169,-2.5625,0.9375,-0.609375,93
94,1696246831879,0.4489746,0.12054443,-0.78009033,-2.5625,1.65625,-0.609375,94
95,1696246831919,0.45874023,0.12200928,-0.81378174,-1.046875,0.46875,-0.1875,95
96,1696246831959,0.47924805,0.1149292,-0.8604126,-0.84375,-1.109375,-0.21875,96
97,1696246831999,0.49804688,0.1239624,-0.86383057,0.8125,-2.359375,0.359375,97
98,1696246832039,0.49072266,0.12982178,-0.8464966,1.015625,-1.1875,0.375,98
99,1696246832079,0.47485352,0.124694824,-0.83843994,1.265625,-0.328125,0.53125,99
100,1696246832119,0.4663086,0.12689209,-0.8218384,0.90625,-0.21875,0.359375,100
101,1696246832159,0.45117188,0.12371826,-0.7979126,1.171875,0.6875,0.796875,101
102,1696246832199,0.50146484,0.1437378,-0.90802,4.484375,2.84375,1.4375,102
103,1696246832239,0.48461914,0.14007568,-0.819397,3.1875,1.125,1.546875,103
104,1696246832279,0.46728516,0.14300537,-0.82476807,-1.140625,0.453125,0.359375,104
105,1696246832319,0.5024414,0.152771,-0.894104,-2.0,2.625,0.28125,105
106,1696246832359,0.40405273,0.11785889,-0.7373657,-0.875,3.21875,0.625,106
107,1696246832399,0.42773438,0.13787842,-0.8208618,-0.28125,4.078125,0.484375,107
108,1696246832439,0.42626953,0.12762451,-0.815979,0.375,3.703125,0.875,108
109,1696246832479,0.4189453,0.13323975,-0.81036377,-1.046875,0.734375,0.09375,109
110,1696246832519,0.43408203,0.13616943,-0.8340454,-2.109375,-0.71875,-0.859375,110
111,1696246832559,0.44873047,0.12908936,-0.84991455,-1.84375,-2.53125,-0.859375,111
112,1696246832599,0.45629883,0.13104248,-0.8687134,-0.984375,-2.53125,-0.53125,112
113,1696246832639,0.46362305,0.124694824,-0.8648071,-0.234375,-3.5,-0.5,113
114,1696246832679,0.45874023,0.13104248,-0.84088135,0.921875,-2.9375,0.125,114
115,1696246832719,0.45043945,0.13153076,-0.81988525,1.671875,-2.03125,0.359375,115
116,1696246832759,0.45996094,0.13104248,-0.8218384,2.15625,-2.9375,0.578125,116
117,1696246832799,0.45654297,0.1408081,-0.83184814,1.375,-1.890625,0.5,117
118,1696246832839,0.47021484,0.13690186,-0.8423462,-1.078125,-0.765625,-0.078125,118
119,1696246832879,0.46801758,0.13494873,-0.84088135,-1.390625,-0.484375,-0.25,119
120,1696246832919,0.49145508,0.13543701,-0.87213135,-1.9375,1.78125,-0.09375,120
121,1696246832959,0.40429688,0.11077881,-0.7637329,-0.53125,2.796875,0.484375,121
122,1696246832999,0.41870117,0.109069824,-0.8086548,1.0625,3.328125,1.171875,122
123,1696246833039,0.4230957,0.12542725,-0.7805786,-0.46875,1.765625,-0.0625,123
124,1696246833079,0.39111328,0.117126465,-0.7258911,-2.078125,-0.78125,-1.09375,124
125,1696246833119,0.4008789,0.11859131,-0.7503052,-6.84375,-3.21875,-1.328125,125
126,1696246833159,0.49926758,0.12640381,-0.9151001,-2.46875,-5.609375,-0.625,126
127,1696246833199,0.4946289,0.12762451,-0.9067993,-0.953125,-6.671875,-0.4375,127
128,1696246833239,0.5024414,0.12298584,-0.892395,-1.25,-3.75,-0.546875,128
129,1696246833279,0.4831543,0.11785889,-0.8533325,-0.703125,-3.484375,-0.203125,129
130,1696246833319,0.4897461,0.11663818,-0.8423462,0.734375,-3.15625,0.015625,130
131,1696246833359,0.46704102,0.11444092,-0.8023071,-0.078125,-2.609375,0.109375,131
132,1696246833399,0.46777344,0.11102295,-0.79815674,-0.546875,-1.546875,0.09375,132
133,1696246833439,0.49145508,0.11639404,-0.80548096,0.53125,-0.46875,-0.203125,133
134,1696246833479,0.4716797,0.109558105,-0.81744385,1.984375,0.03125,0.609375,134
135,1696246833519,0.47314453,0.12347412,-0.7991333,1.578125,-0.03125,0.734375,135
136,1696246833559,0.47802734,0.12664795,-0.83306885,1.140625,-0.96875,0.265625,136
137,1696246833599,0.48706055,0.1281128,-0.8477173,1.765625,-0.40625,0.859375,137
138,1696246833639,0.4790039,0.12445068,-0.8237915,2.015625,-1.109375,0.625,138
139,1696246833679,0.47143555,0.124694824,-0.7962036,2.765625,-1.46875,0.875,139
140,1696246833719,0.49267578,0.1395874,-0.83673096,1.359375,-0.578125,0.265625,140
141,1696246833759,0.48291016,0.12860107,-0.8164673,-0.546875,0.546875,-0.109375,141
142,1696246833799,0.51293945,0.1359253,-0.90338135,-2.46875,2.6875,-0.421875,142
143,1696246833839,0.44555664,0.12689209,-0.83966064,0.53125,5.1875,1.078125,143
144,1696246833879,0.42456055,0.1149292,-0.7427368,-0.703125,3.359375,0.359375,144
145,1696246833919,0.43164062,0.12640381,-0.77838135,-0.125,2.546875,0.328125,145
146,1696246833959,0.41845703,0.1161499,-0.7620239,-1.15625,0.28125,-0.03125,146
147,1696246833999,0.4501953,0.13128662,-0.83428955,-2.40625,-0.03125,-0.625,147
148,1696246834039,0.4711914,0.12615967,-0.8652954,-1.546875,-0.78125,-0.296875,148
149,1696246834079,0.46875,0.12884521,-0.86968994,-0.25,-1.71875,0.15625,149
150,1696246834119,0.48828125,0.13446045,-0.87872314,0.125,-1.59375,-0.0625,150
151,1696246834159,0.4711914,0.12884521,-0.83306885,0.71875,-1.71875,0.328125,151
152,1696246834199,0.45581055,0.12615967,-0.8086548,-0.078125,-1.65625,0.234375,152
153,1696246834239,0.4560547,0.12030029,-0.8093872,0.109375,-1.078125,0.328125,153
154,1696246834279,0.45703125,0.12371826,-0.80010986,-1.03125,-0.265625,0.15625,154
155,1696246834319,0.46826172,0.12249756,-0.8284302,-2.0,-0.125,-0.6875,155
156,1696246834359,0.48779297,0.1239624,-0.85821533,-1.171875,1.546875,0.1875,156
157,1696246834399,0.55371094,0.13885498,-0.95758057,-2.421875,3.28125,-0.390625,157
158,1696246834439,0.43652344,0.11151123,-0.79351807,0.359375,1.9375,0.15625,158
159,1696246834479,0.4152832,0.11517334,-0.77960205,1.265625,1.703125,0.609375,159
160,1696246834519,0.41870117,0.11053467,-0.7776489,-0.515625,1.84375,-0.0625,160
161,1696246834559,0.41137695,0.10491943,-0.7744751,0.234375,-0.09375,0.59375,161
162,1696246834599,0.42895508,0.12322998,-0.7937622,-0.890625,-1.703125,0.015625,162
163,1696246834639,0.46606445,0.11834717,-0.87579346,-0.8125,-1.546875,-0.375,163
164,1696246834679,0.47485352,0.120788574,-0.86431885,-0.90625,-2.6875,-0.46875,164
165,1696246834719,0.48388672,0.1227417,-0.8804321,-0.890625,-2.328125,-0.46875,165
166,1696246834759,0.48120117,0.12298584,-0.85723877,-0.203125,-1.671875,0.0,166
167,1696246834799,0.44335938,0.113220215,-0.8218384,0.828125,-1.28125,0.609375,167
168,1696246834839,0.44873047,0.12176514,-0.80963135,1.890625,-0.34375,0.75,168
169,1696246834879,0.43115234,0.11224365,-0.76641846,0.859375,-0.09375,0.6875,169
170,1696246834919,0.46118164,0.13397217,-0.8423462,-1.328125,0.3125,-0.015625,170
171,1696246834959,0.4897461,0.12689209,-0.894104,-2.046875,0.140625,-0.53125,171
172,1696246834999,0.42700195,0.11981201,-0.784729,0.453125,1.21875,0.265625,172
173,1696246835039,0.43823242,0.1071167,-0.8357544,-0.265625,-0.03125,0.171875,173
174,1696246835079,0.4416504,0.10687256,-0.77838135,-0.875,-0.96875,-0.375,174
175,1696246835119,0.4165039,0.109558105,-0.7456665,-2.765625,-1.734375,-0.328125,175
176,1696246835159,0.41430664,0.089538574,-0.7786255,-3.53125,-3.484375,0.484375,176
177,1696246835199,0.46679688,0.10369873,-0.8713989,-2.015625,-7.3125,0.296875,177
178,1696246835239,0.501709,0.11151123,-0.87091064,-0.109375,-7.328125,-0.0625,178
179,1696246835279,0.51049805,0.113708496,-0.87994385,-0.046875,-3.40625,-0.328125,179
180,1696246835319,0.49243164,0.11224365,-0.8567505,-0.671875,-2.671875,-0.25,180
181,1696246835359,0.48095703,0.109802246,-0.8140259,-0.515625,-1.703125,0.171875,181
182,1696246835399,0.4873047,0.10491943,-0.8189087,-1.46875,-0.984375,-0.1875,182
183,1696246835439,0.47192383,0.09857178,-0.7896118,-1.734375,-0.75,-0.484375,183
184,1696246835479,0.4765625,0.097351074,-0.80548096,-2.328125,-0.484375,-0.640625,184
185,1696246835519,0.5041504,0.10247803,-0.8584595,-1.109375,-0.046875,-0.125,185
186,1696246835559,0.49536133,0.09832764,-0.84747314,2.5,0.5,0.90625,186
187,1696246835599,0.46533203,0.10394287,-0.7905884,3.4375,-1.703125,1.25,187
188,1696246835639,0.47998047,0.09979248,-0.82818604,1.375,-0.9375,0.453125,188
189,1696246835679,0.48461914,0.10296631,-0.82525635,1.453125,-1.546875,-0.015625,189
190,1696246835719,0.4831543,0.10858154,-0.8201294,2.015625,-2.15625,0.265625,190
191,1696246835759,0.47924805,0.11517334,-0.8057251,2.578125,-1.453125,0.609375,191
192,1696246835799,0.48632812,0.12030029,-0.8233032,1.515625,-1.6875,0.125,192
193,1696246835839,0.4958496,0.124694824,-0.8340454,-0.375,-0.203125,-0.75,193
194,1696246835879,0.548584,0.13006592,-0.9026489,-2.765625,-0.25,-1.734375,194
195,1696246835919,0.42333984,0.093688965,-0.75738525,0.234375,2.453125,0.21875,195
196,1696246835959,0.4645996,0.10418701,-0.78131104,-1.609375,2.203125,0.015625,196
197,1696246835999,0.47509766,0.10858154,-0.8167114,-2.84375,3.0,-0.453125,197
198,1696246836039,0.45776367,0.09222412,-0.7949829,-2.5,1.859375,-0.421875,198
199,1696246836079,0.4736328,0.10687256,-0.8345337,-1.5,1.984375,-0.34375,199
200,1696246836119,0.45654297,0.10101318,-0.819397,-0.109375,1.046875,0.078125,200
201,1696246836159,0.4729004,0.10272217,-0.8557739,0.03125,-0.875,0.109375,201
202,1696246836199,0.46923828,0.105163574,-0.83184814,0.640625,-1.5,0.15625,202
203,1696246836239,0.47558594,0.10223389,-0.8328247,0.640625,-1.359375,0.28125,203
204,1696246836279,0.46728516,0.10247803,-0.82598877,0.546875,-1.53125,0.140625,204
205,1696246836319,0.46264648,0.09320068,-0.81085205,0.28125,-1.296875,0.0625,205
206,1696246836359,0.47827148,0.11077881,-0.8308716,-1.3125,-0.671875,-0.6875,206
207,1696246836399,0.4650879,0.1005249,-0.8296509,-0.734375,0.65625,-0.546875,207
208,1696246836439,0.47338867,0.112976074,-0.81378174,-0.59375,1.078125,0.0625,208
209,1696246836479,0.5473633,0.116882324,-0.9031372,-0.828125,2.25,-0.078125,209
210,1696246836519,0.42407227,0.08538818,-0.7654419,2.640625,-1.21875,1.578125,210
211,1696246836559,0.42944336,0.09613037,-0.7720337,0.625,1.296875,0.8125,211
212,1696246836599,0.43115234,0.09515381,-0.77716064,-0.40625,1.734375,0.484375,212
213,1696246836639,0.42944336,0.09442139,-0.78448486,-3.96875,-0.328125,-0.296875,213
214,1696246836679,0.45629883,0.09100342,-0.82159424,-3.4375,-0.875,-0.703125,214
215,1696246836719,0.48486328,0.097351074,-0.8965454,-1.078125,-1.203125,-0.46875,215
216,1696246836759,0.48242188,0.09295654,-0.8831177,0.359375,-3.40625,-0.109375,216
217,1696246836799,0.4790039,0.09857178,-0.8665161,1.765625,-2.03125,0.609375,217
218,1696246836839,0.47485352,0.09881592,-0.8296509,1.90625,-1.109375,0.6875,218
219,1696246836879,0.4638672,0.09442139,-0.82110596,2.46875,0.3125,1.0625,219
220,1696246836919,0.4482422,0.10736084,-0.8230591,1.5,0.03125,1.078125,220
221,1696246836959,0.4675293,0.10858154,-0.7715454,1.109375,2.265625,0.8125,221
222,1696246836999,0.41796875,0.09564209,-0.7805786,-0.09375,0.359375,0.875,222
223,1696246837039,0.4597168,0.11004639,-0.8562622,-0.734375,1.15625,0.34375,223
224,1696246837079,0.45458984,0.105651855,-0.81427,-2.46875,0.515625,-0.328125,224
225,1696246837119,0.43945312,0.09197998,-0.802063,-3.59375,0.265625,-0.46875,225
226,1696246837159,0.42285156,0.08929443,-0.8140259,-4.96875,-3.328125,-0.171875,226
227,1696246837199,0.45092773,0.0914917,-0.8308716,-2.140625,-6.015625,-0.203125,227
228,1696246837239,0.49023438,0.08758545,-0.86431885,-0.671875,-6.15625,-0.390625,228
229,1696246837279,0.4794922,0.08782959,-0.833313,1.296875,-4.296875,0.375,229
230,1696246837319,0.4868164,0.093688965,-0.84332275,1.359375,-3.03125,0.375,230
231,1696246837359,0.4794922,0.08929443,-0.81866455,0.734375,-1.203125,0.390625,231
232,1696246837399,0.47314453,0.09661865,-0.8147583,-1.390625,-0.359375,-0.125,232
233,1696246837439,0.48046875,0.08465576,-0.81329346,-2.390625,0.546875,-0.203125,233
234,1696246837479,0.4658203,0.08807373,-0.83184814,-2.953125,0.03125,-0.390625,234
235,1696246837519,0.48999023,0.08416748,-0.8335571,-0.859375,-0.65625,0.234375,235
236,1696246837559,0.50268555,0.09539795,-0.8674927,3.265625,0.546875,1.0625,236
237,1696246837599,0.4794922,0.10076904,-0.815979,7.703125,-1.015625,2.171875,237
238,1696246837639,0.4572754,0.09124756,-0.78985596,4.90625,-2.328125,1.078125,238
239,1696246837679,0.46435547,0.11029053,-0.81500244,2.78125,-1.5625,-0.078125,239
240,1696246837719,0.47314453,0.11126709,-0.81573486,1.796875,-1.375,0.328125,240
241,1696246837759,0.47558594,0.11444092,-0.8286743,2.390625,-1.21875,0.75,241
242,1696246837799,0.49902344,0.11932373,-0.82037354,1.0,-0.015625,0.59375,242
243,1696246837839,0.47680664,0.12030029,-0.7908325,-0.875,0.640625,-0.109375,243
244,1696246837879,0.47998047,0.1071167,-0.8296509,-0.984375,1.046875,-0.109375,244
245,1696246837919,0.45825195,0.10687256,-0.78375244,0.265625,-0.34375,0.40625,245
246,1696246837959,0.48657227,0.11199951,-0.8584595,-0.578125,1.34375,0.0,246
247,1696246837999,0.4387207,0.11248779,-0.8184204,0.9375,3.125,0.875,247
248,1696246838039,0.4399414,0.1149292,-0.78741455,-0.4375,1.015625,0.078125,248
249,1696246838079,0.47216797,0.12591553,-0.8242798,-2.125,-0.03125,-0.6875,249
250,1696246838119,0.45922852,0.11541748,-0.80059814,-3.609375,0.34375,-0.640625,250
251,1696246838159,0.4807129,0.109313965,-0.861145,-0.75,-0.265625,-0.046875,251
252,1696246838199,0.47070312,0.10662842,-0.8518677,-0.25,-1.390625,-0.109375,252
253,1696246838239,0.47827148,0.109069824,-0.8291626,0.46875,-1.71875,-0.15625,253
254,1696246838279,0.4921875,0.11053467,-0.8430786,0.6875,-1.59375,0.15625,254
255,1696246838319,0.4633789,0.10467529,-0.80963135,1.28125,-1.109375,0.34375,255
256,1696246838359,0.4650879,0.109313965,-0.8101196,0.65625,-0.140625,0.296875,256
257,1696246838399,0.4663086,0.10638428,-0.82159424,0.765625,-0.453125,0.359375,257
258,1696246838439,0.47924805,0.11859131,-0.8430786,0.671875,0.953125,0.71875,258
259,1696246838479,0.49731445,0.10687256,-0.86798096,1.109375,0.96875,0.890625,259
260,1696246838519,0.43603516,0.09857178,-0.78082275,1.28125,-0.125,0.84375,260
261,1696246838559,0.45410156,0.11639404,-0.81256104,-1.484375,0.578125,-0.296875,261
262,1696246838599,0.45629883,0.10784912,-0.80059814,-2.234375,-0.21875,-0.953125,262
263,1696246838639,0.45751953,0.113708496,-0.8218384,-1.328125,-0.953125,-0.171875,263
264,1696246838679,0.46484375,0.109313965,-0.8513794,-0.421875,-0.484375,0.0,264
265,1696246838719,0.47192383,0.11907959,-0.8477173,0.171875,-0.859375,0.203125,265
266,1696246838759,0.47680664,0.121276855,-0.8401489,-0.03125,-0.84375,0.0,266
267,1696246838799,0.47875977,0.1083374,-0.8447876,0.59375,-0.75,0.25,267
268,1696246838839,0.4597168,0.11590576,-0.8093872,0.703125,-0.734375,0.53125,268
269,1696246838879,0.45288086,0.11395264,-0.82232666,0.78125,-0.5,0.3125,269
270,1696246838919,0.46972656,0.11273193,-0.829895,-0.109375,0.015625,0.203125,270
271,1696246838959,0.47094727,0.113464355,-0.83380127,-0.734375,2.078125,0.4375,271
272,1696246838999,0.46655273,0.11859131,-0.8237915,0.265625,1.28125,0.640625,272
273,1696246839039,0.4572754,0.1083374,-0.8196411,-0.875,1.203125,-0.15625,273
274,1696246839079,0.44921875,0.117370605,-0.8311157,0.0625,0.765625,0.484375,274
275,1696246839119,0.45043945,0.113708496,-0.819397,-0.796875,0.015625,-0.046875,275
276,1696246839159,0.44458008,0.10687256,-0.80670166,-1.15625,-0.4375,0.078125,276
277,1696246839199,0.43408203,0.10247803,-0.79522705,-1.84375,-1.171875,0.515625,277
278,1696246839239,0.43798828,0.11053467,-0.82159424,-2.6875,-3.21875,0.453125,278
279,1696246839279,0.46704102,0.10858154,-0.8467407,-0.6875,-6.0,-0.25,279
280,1696246839319,0.484375,0.11248779,-0.8555298,0.53125,-4.53125,-0.234375,280
281,1696246839359,0.47875977,0.109313965,-0.8435669,1.015625,-3.15625,0.0625,281
282,1696246839399,0.48266602,0.11517334,-0.8171997,1.375,-1.765625,0.34375,282
283,1696246839439,0.48217773,0.10784912,-0.81817627,-0.53125,-0.578125,-0.015625,283
284,1696246839479,0.45825195,0.10638428,-0.80596924,-2.109375,0.5625,-0.25,284
285,1696246839519,0.4807129,0.10101318,-0.866272,-4.453125,-0.046875,-0.84375,285
286,1696246839559,0.46679688,0.09906006,-0.79351807,-2.4375,-1.296875,-0.453125,286
287,1696246839599,0.4885254,0.10003662,-0.83843994,0.90625,-1.859375,0.78125,287
288,1696246839639,0.5053711,0.11004639,-0.8777466,3.78125,-1.234375,1.140625,288
289,1696246839679,0.45239258,0.10491943,-0.7788696,9.328125,-2.25,2.796875,289
290,1696246839719,0.4645996,0.12054443,-0.7815552,4.109375,-2.8125,0.921875,290
291,1696246839759,0.47143555,0.1281128,-0.80474854,1.53125,-2.28125,-0.34375,291
292,1696246839799,0.48950195,0.1251831,-0.81915283,1.15625,-2.71875,0.0,292
293,1696246839839,0.4951172,0.14300537,-0.83428955,1.671875,-1.359375,0.5,293
294,1696246839879,0.5004883,0.13812256,-0.8374634,0.109375,-0.15625,-0.265625,294
295,1696246839919,0.48950195,0.12249756,-0.81329346,0.421875,0.640625,-0.03125,295
296,1696246839959,0.47094727,0.12713623,-0.7984009,-0.296875,0.703125,0.015625,296
297,1696246839999,0.48120117,0.12884521,-0.81207275,-0.265625,1.25,-0.140625,297
298,1696246840039,0.49682617,0.12786865,-0.8291626,-0.921875,0.65625,-0.375,298
299,1696246840079,0.4477539,0.11151123,-0.80426025,-0.5,3.1875,0.640625,299
300,1696246840119,0.46484375,0.11151123,-0.78009033,-1.78125,0.28125,-0.4375,300
301,1696246840159,0.47021484,0.11590576,-0.7996216,-1.640625,1.03125,-0.671875,301
302,1696246840199,0.45947266,0.120788574,-0.8064575,-1.640625,1.8125,0.046875,302
303,1696246840239,0.46044922,0.11834717,-0.81573486,-2.34375,-0.125,-0.421875,303
304,1696246840279,0.4873047,0.121520996,-0.87213135,-1.0,1.296875,-0.328125,304
305,1696246840319,0.47583008,0.117126465,-0.8386841,0.234375,-1.0625,0.109375,305
306,1696246840359,0.48632812,0.11810303,-0.8377075,0.359375,-0.984375,0.25,306
307,1696246840399,0.46923828,0.12298584,-0.8286743,0.375,-1.0,0.28125,307
308,1696246840439,0.46728516,0.11956787,-0.81207275,0.859375,-0.84375,0.375,308
309,1696246840479,0.4633789,0.120788574,-0.8049927,0.34375,-0.578125,0.203125,309
310,1696246840519,0.4729004,0.12567139,-0.8308716,0.546875,0.1875,0.328125,310
311,1696246840559,0.46728516,0.12542725,-0.8208618,-0.921875,-0.375,0.046875,311
312,1696246840599,0.4814453,0.12176514,-0.8831177,-0.71875,0.375,-0.296875,312
313,1696246840639,0.4645996,0.121276855,-0.82769775,-0.25,1.625,0.71875,313
314,1696246840679,0.49658203,0.12054443,-0.84381104,-2.03125,2.671875,-0.65625,314
315,1696246840719,0.42285156,0.11151123,-0.76519775,-0.015625,0.875,0.65625,315
316,1696246840759,0.43603516,0.11639404,-0.80181885,-0.578125,-0.125,-0.125,316
317,1696246840799,0.4345703,0.11053467,-0.7822876,-2.796875,0.109375,-0.984375,317
318,1696246840839,0.46240234,0.113464355,-0.84869385,-2.484375,-0.1875,-0.25,318
319,1696246840879,0.47338867,0.11273193,-0.85821533,-0.171875,0.09375,0.09375,319
320,1696246840919,0.46362305,0.11541748,-0.8609009,0.1875,-1.53125,0.0625,320
321,1696246840959,0.47021484,0.11956787,-0.84698486,0.5625,-1.484375,0.0625,321
322,1696246840999,0.46606445,0.1161499,-0.8237915,0.6875,-1.390625,0.390625,322
323,1696246841039,0.4597168,0.109802246,-0.8189087,0.8125,-1.28125,0.328125,323
324,1696246841079,0.4404297,0.11566162,-0.8123169,0.859375,-0.46875,0.640625,324
325,1696246841119,0.46166992,0.120788574,-0.83062744,-0.109375,-0.5625,0.390625,325
326,1696246841159,0.46923828,0.11663818,-0.8718872,-0.421875,0.28125,0.375,326
327,1696246841199,0.49169922,0.12982178,-0.84625244,-0.34375,1.109375,0.03125,327
328,1696246841239,0.42504883,0.10614014,-0.75494385,0.96875,0.796875,0.78125,328
329,1696246841279,0.44970703,0.12371826,-0.8389282,-0.734375,0.3125,-0.078125,329
330,1696246841319,0.42919922,0.09832764,-0.7810669,-2.640625,0.453125,-0.96875,330
331,1696246841359,0.43286133,0.10223389,-0.78082275,-3.328125,-0.34375,-0.703125,331
332,1696246841399,0.42382812,0.098083496,-0.79522705,-3.421875,-2.015625,0.296875,332
333,1696246841439,0.46972656,0.105651855,-0.87164307,-3.0625,-4.015625,-0.109375,333
334,1696246841479,0.49780273,0.105163574,-0.8960571,-1.6875,-4.6875,-0.578125,334
335,1696246841519,0.48266602,0.10028076,-0.8526001,0.046875,-2.890625,-0.171875,335
336,1696246841559,0.4753418,0.10321045,-0.8291626,0.4375,-1.578125,0.453125,336
337,1696246841599,0.4753418,0.094177246,-0.8201294,-0.859375,-0.71875,-0.109375,337
338,1696246841639,0.45214844,0.09588623,-0.7842407,-0.953125,-0.65625,-0.140625,338
339,1696246841679,0.4650879,0.09515381,-0.8098755,-2.703125,-0.171875,-0.578125,339
340,1696246841719,0.4711914,0.09197998,-0.85406494,-2.9375,-0.125,-0.578125,340
341,1696246841759,0.48901367,0.0914917,-0.8428345,0.46875,-0.90625,0.3125,341
342,1696246841799,0.48583984,0.09246826,-0.86065674,1.65625,0.25,0.796875,342
343,1696246841839,0.46875,0.09637451,-0.80792236,3.84375,-1.171875,1.53125,343
344,1696246841879,0.4506836,0.086364746,-0.8140259,1.71875,-2.0,0.40625,344
345,1696246841919,0.46875,0.10272217,-0.81695557,0.6875,-1.828125,0.0625,345
346,1696246841959,0.4609375,0.10662842,-0.81134033,1.34375,-2.515625,0.28125,346
347,1696246841999,0.4802246,0.10296631,-0.833313,2.265625,-1.453125,0.78125,347
348,1696246842039,0.4970703,0.113708496,-0.83599854,1.796875,-0.875,0.671875,348
349,1696246842079,0.46801758,0.11541748,-0.81256104,1.171875,0.203125,0.4375,349
350,1696246842119,0.47216797,0.10321045,-0.8135376,0.421875,0.046875,0.453125,350
351,1696246842159,0.46264648,0.11907959,-0.80670166,-0.171875,-0.296875,0.34375,351
352,1696246842199,0.4645996,0.1083374,-0.8098755,-0.84375,-0.515625,-0.03125,352
353,1696246842239,0.48339844,0.11053467,-0.8274536,-0.390625,-0.9375,0.078125,353
354,1696246842279,0.47973633,0.11102295,-0.83306885,-0.25,-1.34375,0.0625,354
355,1696246842319,0.4885254,0.11639404,-0.84552,0.125,-0.59375,0.078125,355
356,1696246842359,0.47753906,0.1161499,-0.8233032,0.734375,-1.0625,0.28125,356
357,1696246842399,0.4753418,0.1149292,-0.8245239,1.78125,-0.1875,0.5,357
358,1696246842439,0.50634766,0.10858154,-0.8394165,-0.1875,3.375,-0.296875,358
359,1696246842479,0.45825195,0.11248779,-0.7710571,0.015625,1.0,0.203125,359
360,1696246842519,0.453125,0.10662842,-0.8110962,-1.390625,2.625,-0.140625,360
361,1696246842559,0.45361328,0.105163574,-0.8064575,-2.1875,2.09375,-0.328125,361
362,1696246842599,0.45263672,0.10296631,-0.8237915,-1.953125,1.453125,-0.34375,362
363,1696246842639,0.45703125,0.101257324,-0.8345337,-0.890625,0.609375,0.046875,363
364,1696246842679,0.46264648,0.10223389,-0.83184814,-0.640625,-0.40625,0.0625,364
365,1696246842719,0.4699707,0.10760498,-0.8477173,0.4375,-1.453125,0.21875,365
366,1696246842759,0.46044922,0.10784912,-0.8357544,0.46875,-1.65625,0.21875,366
367,1696246842799,0.4645996,0.109558105,-0.8381958,1.40625,-0.921875,0.625,367
368,1696246842839,0.4638672,0.1149292,-0.83843994,1.203125,-0.4375,0.453125,368
369,1696246842879,0.4777832,0.11151123,-0.8635864,1.328125,0.328125,0.4375,369
370,1696246842919,0.49267578,0.11541748,-0.9067993,-1.0625,2.421875,-0.671875,370
371,1696246842959,0.42871094,0.09979248,-0.77911377,-0.1875,6.03125,0.546875,371
372,1696246842999,0.44677734,0.109313965,-0.8062134,-2.09375,3.625,0.375,372
373,1696246843039,0.42578125,0.105895996,-0.7817993,-3.734375,2.296875,-0.796875,373
374,1696246843079,0.40551758,0.08660889,-0.7859497,-3.28125,1.359375,-0.609375,374
375,1696246843119,0.42773438,0.09710693,-0.82891846,-2.609375,0.203125,-0.515625,375
376,1696246843159,0.43530273,0.0927124,-0.8621216,-1.125,-1.484375,0.03125,376
377,1696246843199,0.46044922,0.09637451,-0.8821411,0.171875,-2.734375,0.140625,377
378,1696246843239,0.4663086,0.097839355,-0.88165283,1.15625,-2.5625,0.375,378
379,1696246843279,0.46166992,0.10369873,-0.8701782,1.921875,-1.6875,0.46875,379
380,1696246843319,0.45507812,0.10076904,-0.8467407,1.609375,-1.09375,0.578125,380
381,1696246843359,0.45825195,0.113220215,-0.86676025,0.765625,0.03125,0.4375,381
382,1696246843399,0.43823242,0.08758545,-0.8225708,-1.296875,1.109375,-0.234375,382
383,1696246843439,0.42382812,0.090026855,-0.7756958,-0.59375,0.671875,0.46875,383
384,1696246843479,0.42651367,0.10101318,-0.80181885,-1.796875,1.015625,-0.03125,384
385,1696246843519,0.4140625,0.09051514,-0.7991333,-3.953125,1.0625,-0.546875,385
386,1696246843559,0.4140625,0.07928467,-0.8208618,-5.234375,-1.21875,-0.421875,386
387,1696246843599,0.44750977,0.081726074,-0.86016846,-4.015625,-2.734375,-0.59375,387
388,1696246843639,0.44677734,0.090026855,-0.8648071,-0.703125,-3.5,0.28125,388
389,1696246843679,0.4729004,0.07733154,-0.861145,0.078125,-2.921875,0.1875,389
390,1696246843719,0.4658203,0.08416748,-0.8789673,-0.3125,-3.3125,0.234375,390
391,1696246843759,0.46313477,0.0836792,-0.83258057,-0.890625,-2.34375,-0.15625,391
392,1696246843799,0.45629883,0.081970215,-0.8233032,-0.796875,-0.578125,0.171875,392
393,1696246843839,0.45996094,0.07562256,-0.829895,-1.65625,-0.484375,-0.234375,393
394,1696246843879,0.4597168,0.07171631,-0.83721924,-0.015625,-0.421875,0.078125,394
395,1696246843919,0.4519043,0.08001709,-0.8208618,1.234375,0.203125,0.65625,395
396,1696246843959,0.45092773,0.074645996,-0.8311157,1.03125,-0.3125,0.53125,396
397,1696246843999,0.4560547,0.081970215,-0.8377075,1.21875,-0.46875,0.640625,397
398,1696246844039,0.45751953,0.08514404,-0.8464966,0.625,-1.21875,0.328125,398
399,1696246844079,0.45581055,0.0836792,-0.8352661,0.9375,-1.796875,0.28125,399
400,1696246844119,0.45239258,0.0914917,-0.8399048,1.578125,-1.90625,0.5625,400
401,1696246844159,0.4633789,0.08465576,-0.83477783,0.703125,-1.859375,0.3125,401
402,1696246844199,0.46069336,0.08758545,-0.8255005,0.640625,-1.40625,0.375,402
403,1696246844239,0.45654297,0.089538574,-0.8257446,0.703125,-0.703125,0.234375,403
404,1696246844279,0.45922852,0.0927124,-0.8220825,0.375,-0.15625,0.328125,404
405,1696246844319,0.45751953,0.09466553,-0.82232666,0.140625,-0.640625,0.171875,405
406,1696246844359,0.4572754,0.08856201,-0.83135986,1.0625,-0.84375,0.796875,406
407,1696246844399,0.46655273,0.09124756,-0.84454346,0.359375,-0.6875,0.375,407
408,1696246844439,0.46362305,0.09906006,-0.83380127,0.546875,-0.296875,0.609375,408
409,1696246844479,0.48388672,0.09832764,-0.86309814,0.3125,0.8125,0.46875,409
410,1696246844519,0.4794922,0.10614014,-0.8731079,-0.78125,1.171875,-0.578125,410
411,1696246844559,0.44750977,0.086364746,-0.8596802,0.875,3.875,0.53125,411
412,1696246844599,0.44995117,0.09979248,-0.81695557,-1.375,3.71875,-0.46875,412
413,1696246844639,0.40649414,0.0836792,-0.7398071,-3.75,1.703125,-0.828125,413
414,1696246844679,0.4326172,0.08392334,-0.82598877,-1.703125,0.140625,0.015625,414
415,1696246844719,0.43139648,0.094177246,-0.8230591,-1.6875,-0.8125,0.015625,415
416,1696246844759,0.44628906,0.081726074,-0.8460083,-1.046875,-1.390625,0.25,416
417,1696246844799,0.4663086,0.09124756,-0.87164307,0.546875,-2.640625,0.375,417
418,1696246844839,0.46704102,0.08831787,-0.8743286,0.9375,-1.84375,0.328125,418
419,1696246844879,0.47021484,0.09124756,-0.84088135,1.828125,-1.625,0.78125,419
420,1696246844919,0.453125,0.090270996,-0.8460083,1.625,-1.140625,0.625,420
421,1696246844959,0.45898438,0.09246826,-0.83721924,1.96875,-1.421875,0.515625,421
422,1696246844999,0.50927734,0.11395264,-0.9326782,8.3125,0.984375,1.265625,422
423,1696246845039,0.40112305,0.10418701,-0.784729,7.90625,2.203125,2.0,423
424,1696246845079,0.38500977,0.11444092,-0.7305298,-0.953125,2.5625,0.625,424
425,1696246845119,0.43554688,0.112976074,-0.8460083,-1.328125,2.640625,0.171875,425
426,1696246845159,0.4260254,0.10467529,-0.8296509,-2.515625,-0.375,-0.546875,426
427,1696246845199,0.42138672,0.1083374,-0.83062744,-0.984375,-0.890625,-0.171875,427
428,1696246845239,0.43896484,0.11004639,-0.8430786,-0.90625,-1.6875,0.078125,428
429,1696246845279,0.44750977,0.1083374,-0.8394165,-1.8125,-2.75,0.0,429
430,1696246845319,0.45581055,0.1083374,-0.88848877,-1.3125,-2.90625,-0.1875,430
431,1696246845359,0.45166016,0.097839355,-0.8418579,-0.0625,-1.25,-0.09375,431
432,1696246845399,0.45385742,0.11151123,-0.8411255,0.984375,-0.875,0.453125,432
433,1696246845439,0.4597168,0.10394287,-0.87457275,0.921875,-0.171875,0.25,433
434,1696246845479,0.46289062,0.11981201,-0.8579712,-0.53125,-0.875,-0.1875,434
435,1696246845519,0.42382812,0.08905029,-0.7839966,-1.609375,0.9375,-0.421875,435
436,1696246845559,0.43579102,0.10687256,-0.8255005,-0.546875,1.953125,0.53125,436
437,1696246845599,0.43286133,0.09295654,-0.8171997,-1.65625,0.421875,-0.328125,437
438,1696246845639,0.42211914,0.090270996,-0.80670166,-1.84375,-0.8125,-0.328125,438
439,1696246845679,0.42797852,0.09466553,-0.8196411,-3.5,-2.4375,0.125,439
440,1696246845719,0.45581055,0.09539795,-0.84576416,-3.96875,-4.171875,-0.53125,440
441,1696246845759,0.4609375,0.08880615,-0.87823486,-3.515625,-3.296875,-0.828125,441
442,1696246845799,0.46801758,0.08270264,-0.8484497,-1.46875,-2.21875,-0.09375,442
443,1696246845839,0.4633789,0.08294678,-0.84210205,-0.5,-0.84375,0.328125,443
444,1696246845879,0.45092773,0.08441162,-0.8130493,-0.625,-0.640625,0.40625,444
445,1696246845919,0.4465332,0.074645996,-0.82525635,-1.375,-0.703125,0.21875,445
446,1696246845959,0.4501953,0.07757568,-0.833313,-2.0,-0.9375,0.078125,446
447,1696246845999,0.4560547,0.08099365,-0.8377075,-1.0625,-1.765625,0.125,447
448,1696246846039,0.46240234,0.07879639,-0.8428345,-0.015625,-2.03125,0.390625,448
449,1696246846079,0.46435547,0.08099365,-0.85357666,0.21875,-1.625,0.25,449
450,1696246846119,0.4675293,0.078308105,-0.848938,1.28125,-1.609375,0.546875,450
451,1696246846159,0.4650879,0.07537842,-0.8345337,2.609375,-2.09375,1.125,451
452,1696246846199,0.4584961,0.08026123,-0.8213501,3.203125,-3.0,0.703125,452
453,1696246846239,0.46069336,0.08709717,-0.8135376,2.328125,-2.3125,0.671875,453
454,1696246846279,0.48583984,0.090270996,-0.819397,2.71875,-0.96875,0.546875,454
455,1696246846319,0.47094727,0.093933105,-0.84088135,4.921875,1.53125,1.390625,455
456,1696246846359,0.54541016,0.13616943,-0.96832275,5.25,5.90625,1.96875,456
457,1696246846399,0.39868164,0.11273193,-0.77471924,2.296875,1.53125,0.21875,457
458,1696246846439,0.4477539,0.10003662,-0.7876587,-3.296875,1.125,-1.015625,458
459,1696246846479,0.42407227,0.10101318,-0.75982666,-2.234375,1.375,-0.875,459
460,1696246846519,0.40454102,0.09173584,-0.77911377,-1.515625,0.046875,-0.515625,460
461,1696246846559,0.42993164,0.10003662,-0.81866455,-1.046875,-0.046875,0.03125,461
462,1696246846599,0.45092773,0.09832764,-0.850647,-1.265625,-0.1875,0.1875,462
463,1696246846639,0.4675293,0.105895996,-0.8855591,-0.390625,-1.1875,0.1875,463
464,1696246846679,0.47338867,0.10394287,-0.8760376,-0.4375,-1.796875,-0.15625,464
465,1696246846719,0.45874023,0.10443115,-0.85162354,0.5,-1.96875,0.40625,465
466,1696246846759,0.4477539,0.093933105,-0.81988525,1.09375,-0.515625,0.734375,466
467,1696246846799,0.4399414,0.10345459,-0.7959595,1.515625,-0.90625,0.6875,467
468,1696246846839,0.44360352,0.09954834,-0.8284302,1.125,-1.234375,0.390625,468
469,1696246846879,0.46240234,0.10614014,-0.8464966,1.84375,-1.359375,0.421875,469
470,1696246846919,0.47998047,0.109313965,-0.88360596,0.734375,-1.1875,0.53125,470
471,1696246846959,0.42163086,0.11273193,-0.85479736,0.71875,1.03125,-0.015625,471
472,1696246846999,0.47802734,0.11517334,-0.8609009,-0.859375,1.734375,0.15625,472
473,1696246847039,0.4296875,0.10321045,-0.7971802,-2.609375,0.71875,-0.71875,473
474,1696246847079,0.42114258,0.0993042,-0.79351807,-3.765625,-1.1875,-1.046875,474
475,1696246847119,0.44702148,0.09295654,-0.83013916,-3.828125,-1.0625,-0.921875,475
476,1696246847159,0.44995117,0.08782959,-0.85601807,-2.5625,-1.0625,-0.515625,476
477,1696246847199,0.47216797,0.08709717,-0.8880005,-1.703125,-1.375,-0.4375,477
478,1696246847239,0.46533203,0.08416748,-0.8533325,0.09375,-1.09375,0.046875,478
479,1696246847279,0.46264648,0.085876465,-0.8518677,0.8125,-0.671875,0.484375,479
480,1696246847319,0.45825195,0.08660889,-0.8179321,1.0625,-0.125,0.703125,480
481,1696246847359,0.46240234,0.097595215,-0.85943604,0.8125,-1.03125,0.53125,481
482,1696246847399,0.47070312,0.10003662,-0.87457275,0.015625,-0.171875,0.40625,482
483,1696246847439,0.47680664,0.08294678,-0.8069458,-0.953125,0.6875,-0.78125,483
484,1696246847479,0.43432617,0.08685303,-0.78009033,-0.09375,1.28125,0.53125,484
485,1696246847519,0.4506836,0.09564209,-0.8250122,-1.953125,1.109375,-0.359375,485
486,1696246847559,0.42260742,0.078063965,-0.77960205,-2.640625,1.71875,-0.53125,486
487,1696246847599,0.4140625,0.07269287,-0.78497314,-3.921875,1.015625,0.453125,487
488,1696246847639,0.44262695,0.07537842,-0.8682251,-2.28125,-3.875,0.046875,488
489,1696246847679,0.46850586,0.0914917,-0.8557739,0.234375,-5.171875,-0.140625,489
490,1696246847719,0.46606445,0.08074951,-0.84576416,0.125,-4.6875,0.21875,490
491,1696246847759,0.4819336,0.0848999,-0.8635864,0.1875,-1.484375,0.078125,491
492,1696246847799,0.4716797,0.07611084,-0.83795166,-0.125,-1.09375,0.28125,492
493,1696246847839,0.4423828,0.07904053,-0.8076782,-1.328125,-0.453125,0.375,493
494,1696246847879,0.4477539,0.07122803,-0.7998657,-1.421875,-0.9375,0.171875,494
495,1696246847919,0.4555664,0.077819824,-0.83258057,-1.203125,-1.703125,0.140625,495
496,1696246847959,0.4580078,0.07489014,-0.8286743,-0.546875,-2.1875,0.28125,496
497,1696246847999,0.47973633,0.08758545,-0.8648071,1.125,-2.515625,0.453125,497
498,1696246848039,0.4958496,0.09100342,-0.88409424,0.671875,-0.71875,0.34375,498
499,1696246848079,0.46679688,0.074401855,-0.83135986,5.46875,-3.6875,1.515625,499
500,1696246848119,0.4741211,0.093933105,-0.8237915,2.8125,-2.578125,0.59375,500
501,1696246848159,0.4638672,0.09075928,-0.8027954,1.65625,-2.359375,0.109375,501
502,1696246848199,0.47070312,0.08758545,-0.8064575,4.015625,-3.015625,1.203125,502
503,1696246848239,0.46557617,0.10467529,-0.80426025,1.4375,-1.25,0.890625,503
504,1696246848279,0.4724121,0.089538574,-0.80059814,-0.1875,-0.859375,0.125,504
505,1696246848319,0.47875977,0.10369873,-0.8123169,0.34375,-0.8125,0.203125,505
506,1696246848359,0.47314453,0.101745605,-0.8208618,-0.546875,-0.421875,-0.0625,506
507,1696246848399,0.47387695,0.10028076,-0.8320923,-0.03125,-1.15625,0.25,507
508,1696246848439,0.4831543,0.10028076,-0.8213501,-0.140625,-1.109375,0.171875,508
509,1696246848479,0.48217773,0.09906006,-0.815979,0.484375,-0.890625,0.234375,509
510,1696246848519,0.4814453,0.10272217,-0.8225708,-0.078125,-1.015625,-0.015625,510
511,1696246848559,0.5019531,0.11468506,-0.8423462,0.296875,-1.484375,0.078125,511
512,1696246848599,0.47436523,0.10223389,-0.80548096,0.890625,2.71875,0.5625,512
513,1696246848639,0.48413086,0.10369873,-0.8335571,-1.25,2.328125,0.203125,513
514,1696246848679,0.46533203,0.10028076,-0.8064575,-2.5625,2.21875,-0.53125,514
515,1696246848719,0.46679688,0.089782715,-0.829895,-1.75,1.375,-0.359375,515
516,1696246848759,0.46020508,0.10003662,-0.8352661,-0.59375,0.484375,-0.0625,516
517,1696246848799,0.46044922,0.085876465,-0.8086548,-0.109375,-0.828125,0.234375,517
518,1696246848839,0.47705078,0.10369873,-0.84942627,-0.078125,-0.515625,0.125,518
519,1696246848879,0.47338867,0.097351074,-0.8513794,-0.28125,-0.875,-0.015625,519
520,1696246848919,0.47680664,0.09515381,-0.83966064,-0.078125,-0.890625,0.0,520
521,1696246848959,0.4777832,0.10223389,-0.84552,0.09375,0.265625,-0.015625,521
522,1696246848999,0.47875977,0.09124756,-0.84747314,0.59375,-0.15625,0.015625,522
523,1696246849039,0.47143555,0.09613037,-0.8233032,-2.234375,-0.125,-0.6875,523
524,1696246849079,0.48754883,0.09906006,-0.8399048,-3.203125,1.0,-1.171875,524
525,1696246849119,0.42456055,0.08734131,-0.7542114,-0.390625,2.28125,0.15625,525
526,1696246849159,0.4284668,0.078552246,-0.79034424,-0.078125,0.625,0.5,526
527,1696246849199,0.45288086,0.090026855,-0.8179321,-0.65625,0.09375,0.03125,527
528,1696246849239,0.4584961,0.082458496,-0.83013916,-1.671875,0.125,0.078125,528
529,1696246849279,0.4621582,0.08148193,-0.862854,-0.84375,-1.296875,0.015625,529
530,1696246849319,0.46948242,0.08148193,-0.86505127,-0.265625,-1.71875,0.09375,530
531,1696246849359,0.4675293,0.089538574,-0.83477783,0.890625,-1.5,0.484375,531
532,1696246849399,0.47460938,0.08294678,-0.83428955,1.65625,-0.28125,0.90625,532
533,1696246849439,0.4741211,0.101745605,-0.8530884,0.9375,0.390625,0.421875,533
534,1696246849479,0.47192383,0.081726074,-0.85284424,0.015625,0.109375,-0.171875,534
535,1696246849519,0.50561523,0.10369873,-0.79351807,-0.703125,0.53125,0.28125,741
536,1696246849559,0.5058594,0.10003662,-0.7937622,-0.4375,0.859375,0.09375,742
537,1696246849599,0.4970703,0.09588623,-0.79888916,-0.890625,0.75,-0.125,743
538,1696246849639,0.5012207,0.09564209,-0.80426025,-0.765625,0.09375,-0.125,744
539,1696246849679,0.5036621,0.10076904,-0.8196411,-1.828125,1.015625,-0.359375,745
540,1696246849719,0.49414062,0.10369873,-0.8069458,-1.03125,0.390625,-0.296875,746
541,1696246849759,0.50878906,0.1005249,-0.8291626,-1.953125,0.171875,-0.640625,747
542,1696246849799,0.50097656,0.09246826,-0.8027954,-0.734375,-0.40625,-0.484375,748
543,1696246849839,0.51220703,0.093933105,-0.80596924,1.25,-1.0625,0.171875,749
544,1696246849879,0.49829102,0.08465576,-0.8045044,7.828125,-3.328125,2.578125,750
545,1696246849919,0.49536133,0.113708496,-0.8242798,7.15625,-2.96875,3.125,751
546,1696246849959,0.5109863,0.11956787,-0.80548096,4.0625,-3.171875,0.375,752
547,1696246849999,0.51293945,0.12835693,-0.80670166,5.65625,-3.25,0.75,753
548,1696246850039,0.5053711,0.13568115,-0.7854614,4.9375,-3.0,0.59375,754
549,1696246850079,0.51464844,0.14105225,-0.8088989,5.734375,-1.71875,1.078125,755
550,1696246850119,0.5148926,0.14959717,-0.784729,5.734375,-0.203125,1.359375,756
551,1696246850159,0.50805664,0.15472412,-0.7637329,4.484375,-0.640625,0.640625,757
552,1696246850199,0.51464844,0.15228271,-0.79229736,1.765625,0.796875,-0.078125,758
553,1696246850239,0.57250977,0.17181396,-0.87457275,0.796875,1.703125,-0.625,759
554,1696246850279,0.453125,0.14715576,-0.74102783,1.3125,10.3125,1.65625,760
555,1696246850319,0.4609375,0.14813232,-0.7437134,-2.109375,3.546875,-0.03125,761
556,1696246850359,0.47583008,0.152771,-0.7756958,-3.640625,3.328125,-1.0625,762
557,1696246850399,0.48754883,0.14007568,-0.8286743,-1.875,3.25,-0.125,763
558,1696246850439,0.4465332,0.14691162,-0.79278564,-0.9375,-0.40625,-0.28125,764
559,1696246850479,0.49316406,0.14935303,-0.8311157,-1.390625,-1.78125,-0.734375,765
560,1696246850519,0.5036621,0.15472412,-0.84869385,-0.0625,-2.046875,-0.015625,766
561,1696246850559,0.5024414,0.15618896,-0.8401489,1.46875,-1.640625,0.046875,767
562,1696246850599,0.49853516,0.15594482,-0.83477783,2.140625,-0.0625,0.59375,768
563,1696246850639,0.54174805,0.15496826,-0.8948364,2.25,3.171875,1.015625,769
564,1696246850679,0.48583984,0.14910889,-0.82403564,-2.015625,6.4375,0.375,770
565,1696246850719,0.45263672,0.11517334,-0.7949829,-1.078125,9.765625,1.75,771
566,1696246850759,0.4194336,0.1251831,-0.65582275,-2.96875,2.40625,-0.234375,772
567,1696246850799,0.43139648,0.13909912,-0.7481079,-1.90625,5.296875,-0.46875,773
568,1696246850839,0.4074707,0.1293335,-0.7283325,-1.453125,3.25,-0.140625,774
569,1696246850879,0.42773438,0.13153076,-0.78448486,-2.859375,1.0625,-0.828125,775
570,1696246850919,0.45385742,0.13421631,-0.8682251,-3.34375,-1.890625,-1.125,776
571,1696246850959,0.49121094,0.15374756,-0.9155884,-0.953125,-3.0625,-0.875,777
572,1696246850999,0.48901367,0.15252686,-0.90289307,0.5,-3.140625,-0.375,778
573,1696246851039,0.49853516,0.152771,-0.8833618,1.171875,-2.328125,-0.09375,779
574,1696246851079,0.4855957,0.15228271,-0.8447876,0.265625,0.171875,-0.140625,780
575,1696246851119,0.50024414,0.13519287,-0.83428955,0.546875,4.09375,1.5,781
576,1696246851159,0.36523438,0.10028076,-0.803772,1.125,3.734375,2.125,782
577,1696246851199,0.3935547,0.13812256,-0.7659302,-0.71875,3.21875,0.3125,783
578,1696246851239,0.39990234,0.1281128,-0.7268677,-2.5,2.046875,-0.796875,784
579,1696246851279,0.37719727,0.117614746,-0.68707275,-5.21875,2.15625,-1.578125,785
580,1696246851319,0.39526367,0.11981201,-0.7605591,-5.859375,-1.65625,-0.40625,786
581,1696246851359,0.43701172,0.121276855,-0.90411377,-3.390625,-6.21875,-0.171875,787
582,1696246851399,0.5058594,0.13323975,-0.9614868,0.9375,-11.5625,-0.921875,788
583,1696246851439,0.5292969,0.1293335,-0.94610596,0.28125,-7.921875,-0.5625,789
584,1696246851479,0.50024414,0.13153076,-0.85943604,0.984375,-4.703125,0.28125,790
585,1696246851519,0.4873047,0.12957764,-0.8381958,-0.96875,-2.546875,0.21875,791
586,1696246851559,0.46240234,0.11517334,-0.80255127,-2.8125,-1.59375,-0.34375,792
587,1696246851599,0.45507812,0.117614746,-0.7893677,-3.890625,-0.828125,-1.0,793
588,1696246851639,0.45947266,0.10784912,-0.8052368,-3.34375,-0.078125,-0.796875,794
589,1696246851679,0.5048828,0.10760498,-0.8621216,2.75,0.625,0.328125,795
590,1696246851719,0.48608398,0.11883545,-0.8740845,7.1875,-0.25,1.875,796
591,1696246851759,0.484375,0.1329956,-0.82647705,6.1875,0.859375,1.28125,797
592,1696246851799,0.47143555,0.1329956,-0.8140259,3.046875,0.5625,0.40625,798
593,1696246851839,0.46313477,0.14398193,-0.8250122,1.40625,-0.015625,-0.015625,799
594,1696246851879,0.4711914,0.15350342,-0.8467407,0.984375,0.640625,-0.203125,800
595,1696246851919,0.46777344,0.14349365,-0.83795166,1.171875,1.234375,0.40625,801
596,1696246851959,0.5114746,0.16278076,-0.8831177,-1.734375,5.140625,-0.28125,802
597,1696246851999,0.47070312,0.11468506,-0.84747314,2.40625,11.28125,2.359375,803
598,1696246852039,0.3774414,0.13006592,-0.7073364,-0.734375,4.921875,1.59375,804
599,1696246852079,0.40771484,0.14520264,-0.7349243,-1.125,4.953125,0.421875,805
600,1696246852119,0.38598633,0.1305542,-0.74298096,-1.15625,3.296875,0.671875,806
601,1696246852159,0.39257812,0.12982178,-0.8045044,-2.65625,-2.09375,-0.0625,807
602,1696246852199,0.44067383,0.13763428,-0.8591919,-3.421875,-4.265625,-1.109375,808
603,1696246852239,0.4663086,0.1449585,-0.8921509,-1.4375,-3.953125,-1.0,809
604,1696246852279,0.48120117,0.15252686,-0.90167236,0.671875,-4.46875,-0.375,810
605,1696246852319,0.49780273,0.15081787,-0.94000244,2.28125,-2.640625,0.34375,811
606,1696246852359,0.47558594,0.14227295,-0.86846924,3.015625,-1.40625,1.0,812
607,1696246852399,0.49926758,0.15081787,-0.94415283,2.03125,3.84375,1.265625,813
608,1696246852439,0.36743164,0.11029053,-0.7324829,0.65625,1.765625,0.625,814
609,1696246852479,0.40527344,0.12713623,-0.77130127,-0.671875,1.09375,-0.15625,815
610,1696246852519,0.38964844,0.12225342,-0.74542236,-2.671875,1.34375,-0.8125,816
611,1696246852559,0.41259766,0.12738037,-0.7769165,-2.171875,0.359375,0.015625,817
612,1696246852599,0.4482422,0.14471436,-0.86846924,-1.796875,-0.484375,0.0,818
613,1696246852639,0.47558594,0.14178467,-0.9265747,-0.015625,-2.75,0.0625,819
614,1696246852679,0.4658203,0.14886475,-0.913147,0.984375,-1.90625,0.203125,820
615,1696246852719,0.4584961,0.1461792,-0.8677368,1.5625,-0.96875,0.328125,821
616,1696246852759,0.46240234,0.14593506,-0.8755493,1.828125,0.078125,0.53125,822
617,1696246852799,0.42407227,0.13519287,-0.798645,-0.078125,-0.25,0.234375,823
618,1696246852839,0.4519043,0.13690186,-0.8921509,-1.0,2.21875,0.109375,824
619,1696246852879,0.35668945,0.10247803,-0.76568604,0.328125,3.296875,0.609375,825
620,1696246852919,0.4333496,0.14007568,-0.8418579,-2.90625,3.046875,-0.625,826
621,1696246852959,0.37646484,0.109313965,-0.74591064,-3.96875,1.65625,-0.953125,827
622,1696246852999,0.39697266,0.11785889,-0.77423096,-0.625,0.140625,0.765625,828
623,1696246853039,0.41748047,0.1305542,-0.8233032,0.265625,-4.453125,0.953125,829
624,1696246853079,0.43139648,0.1251831,-0.8279419,-2.65625,-5.65625,0.03125,830
625,1696246853119,0.46777344,0.13323975,-0.8936157,-3.796875,-7.765625,-0.78125,831
626,1696246853159,0.4777832,0.124694824,-0.88726807,-1.765625,-7.75,-0.6875,832
627,1696246853199,0.47607422,0.121032715,-0.8579712,-1.53125,-7.296875,-0.671875,833
628,1696246853239,0.47729492,0.117370605,-0.8399048,-1.0,-4.265625,-0.09375,834
629,1696246853279,0.45166016,0.11981201,-0.8106079,-2.0,-1.4375,-0.203125,835
630,1696246853319,0.45922852,0.10760498,-0.8184204,-3.515625,0.328125,-0.546875,836
631,1696246853359,0.45507812,0.10321045,-0.81134033,-4.515625,0.359375,-0.765625,837
632,1696246853399,0.46411133,0.101257324,-0.82525635,-3.015625,-0.078125,-0.546875,838
633,1696246853439,0.5065918,0.11395264,-0.89849854,3.421875,-0.640625,0.671875,839
634,1696246853479,0.47436523,0.101501465,-0.8723755,7.296875,0.890625,1.84375,840
635,1696246853519,0.4645996,0.12030029,-0.82281494,7.90625,-0.671875,1.625,841
636,1696246853559,0.4724121,0.120788574,-0.81988525,4.359375,0.5,0.078125,842
637,1696246853599,0.43823242,0.11956787,-0.78302,2.03125,-0.546875,0.234375,843
638,1696246853639,0.46435547,0.14227295,-0.82159424,0.90625,-0.578125,0.390625,844
639,1696246853679,0.48046875,0.12420654,-0.829895,1.3125,-0.96875,1.28125,845
640,1696246853719,0.46777344,0.13226318,-0.8562622,1.59375,1.734375,1.875,846
641,1696246853759,0.48876953,0.15765381,-0.833313,0.71875,5.625,0.84375,847
642,1696246853799,0.42358398,0.1239624,-0.77789307,1.25,2.515625,0.625,848
643,1696246853839,0.43798828,0.13470459,-0.8308716,-0.5625,2.34375,-0.015625,849
644,1696246853879,0.40161133,0.12200928,-0.7744751,-1.734375,2.125,0.0,850
645,1696246853919,0.40795898,0.12957764,-0.7761841,-4.5,0.359375,-0.828125,851
646,1696246853959,0.40942383,0.12200928,-0.7827759,-4.328125,-1.515625,-0.671875,852
647,1696246853999,0.46557617,0.1408081,-0.88165283,-1.40625,-2.15625,-0.15625,853
648,1696246854039,0.46435547,0.13153076,-0.89141846,-0.921875,-3.25,-0.40625,854
649,1696246854079,0.47338867,0.13226318,-0.8875122,1.0625,-2.140625,0.046875,855
650,1696246854119,0.46044922,0.13690186,-0.89801025,2.125,-1.796875,0.25,856
651,1696246854159,0.45703125,0.12542725,-0.82696533,3.953125,-1.734375,0.796875,857
652,1696246854199,0.48364258,0.14959717,-0.8772583,6.46875,3.1875,2.59375,858
653,1696246854239,0.47143555,0.15960693,-0.85894775,0.8125,3.828125,0.953125,859
654,1696246854279,0.37548828,0.11468506,-0.7698364,0.8125,4.21875,0.90625,860
655,1696246854319,0.37353516,0.12860107,-0.74005127,-1.09375,1.6875,-0.359375,861
656,1696246854359,0.39697266,0.1293335,-0.79766846,-0.640625,0.765625,0.21875,862
657,1696246854399,0.38793945,0.12738037,-0.7710571,-2.5625,-1.546875,-0.53125,863
658,1696246854439,0.41235352,0.14031982,-0.80841064,-4.15625,-4.65625,-1.0625,864
659,1696246854479,0.45507812,0.14227295,-0.89630127,-2.015625,-1.65625,-0.265625,865
660,1696246854519,0.47192383,0.14154053,-0.9155884,-0.4375,-4.15625,-0.453125,866
661,1696246854559,0.4741211,0.13861084,-0.89801025,0.484375,-3.640625,-0.28125,867
662,1696246854599,0.47265625,0.13494873,-0.88116455,1.46875,-1.53125,0.421875,868
663,1696246854639,0.4736328,0.14837646,-0.8723755,2.4375,0.921875,1.0625,869
664,1696246854679,0.4338379,0.14154053,-0.81500244,-0.234375,2.015625,0.359375,870
665,1696246854719,0.4597168,0.13519287,-0.8179321,-1.390625,5.640625,0.140625,871
666,1696246854759,0.41259766,0.1239624,-0.77789307,-1.40625,3.453125,0.03125,872
667,1696246854799,0.39697266,0.11834717,-0.7749634,0.4375,3.390625,0.21875,873
668,1696246854839,0.3713379,0.11468506,-0.75616455,-1.40625,-0.84375,-0.015625,874
669,1696246854879,0.39233398,0.12786865,-0.77008057,-3.5625,-3.484375,-0.875,875
670,1696246854919,0.40673828,0.12030029,-0.79766846,-6.59375,-5.0,-1.15625,876
671,1696246854959,0.44067383,0.105651855,-0.8772583,-5.875,-5.5,-0.203125,877
672,1696246854999,0.4645996,0.11419678,-0.9060669,-2.453125,-8.3125,0.046875,878
673,1696246855039,0.4909668,0.1239624,-0.91241455,-0.609375,-7.6875,-0.234375,879
674,1696246855079,0.4892578,0.11785889,-0.88238525,0.25,-6.21875,-0.140625,880
675,1696246855119,0.47973633,0.11029053,-0.8208618,-0.125,-3.703125,-0.09375,881
676,1696246855159,0.4645996,0.10809326,-0.8032837,-1.046875,-1.78125,-0.125,882
677,1696246855199,0.45507812,0.101745605,-0.79937744,-2.28125,0.65625,-0.640625,883
678,1696246855239,0.4638672,0.10076904,-0.83380127,-3.53125,0.625,-0.8125,884
679,1696246855279,0.4663086,0.10638428,-0.84942627,-0.96875,-0.3125,-0.0625,885
680,1696246855319,0.49023438,0.11224365,-0.8792114,2.5,0.875,0.6875,886
681,1696246855359,0.47143555,0.10638428,-0.83795166,7.578125,0.265625,2.0625,887
682,1696246855399,0.46362305,0.12030029,-0.802063,4.59375,-0.4375,0.625,888
683,1696246855439,0.46704102,0.120788574,-0.85772705,3.953125,1.53125,0.296875,889
684,1696246855479,0.4477539,0.12347412,-0.86260986,5.0625,2.34375,0.75,890
685,1696246855519,0.45043945,0.13323975,-0.84454346,0.390625,2.015625,0.203125,891
686,1696246855559,0.4230957,0.1305542,-0.78326416,-0.78125,1.578125,0.25,892
687,1696246855599,0.46264648,0.13201904,-0.8189087,-1.25,2.625,-0.015625,893
688,1696246855639,0.40234375,0.10784912,-0.7490845,-0.421875,1.3125,0.5625,894
689,1696246855679,0.3864746,0.116882324,-0.76397705,-0.546875,0.421875,-0.015625,895
690,1696246855719,0.4104004,0.113464355,-0.8062134,-0.71875,0.890625,-0.375,896
691,1696246855759,0.41210938,0.12371826,-0.7883911,-2.328125,-0.5,-0.09375,897
692,1696246855799,0.4428711,0.12713623,-0.86553955,-1.421875,-2.46875,-0.1875,898
693,1696246855839,0.4675293,0.11981201,-0.880188,-0.625,-4.640625,-0.171875,899
694,1696246855879,0.4753418,0.13861084,-0.92974854,0.59375,-3.609375,0.046875,900
695,1696246855919,0.47631836,0.12567139,-0.892395,0.65625,-1.09375,0.09375,901
696,1696246855959,0.47338867,0.12713623,-0.8621216,1.859375,-0.890625,0.515625,902
697,1696246855999,0.47436523,0.13446045,-0.86846924,2.71875,1.15625,0.921875,903
698,1696246856039,0.4580078,0.13372803,-0.85284424,1.625,2.796875,1.265625,904
699,1696246856079,0.46362305,0.13153076,-0.83135986,-0.390625,5.046875,0.296875,905
700,1696246856119,0.4350586,0.12347412,-0.8377075,-1.75,1.375,-0.484375,906
701,1696246856159,0.4020996,0.11248779,-0.7876587,-1.125,1.34375,-0.390625,907
702,1696246856199,0.3972168,0.11785889,-0.79473877,-1.390625,0.21875,0.1875,908
703,1696246856239,0.4194336,0.12176514,-0.8237915,-0.953125,-0.578125,-0.15625,909
704,1696246856279,0.43432617,0.12762451,-0.85772705,-1.328125,-0.859375,-0.15625,910
705,1696246856319,0.45458984,0.13006592,-0.897522,-0.25,-2.4375,0.109375,911
706,1696246856359,0.45751953,0.12860107,-0.8779907,0.859375,-2.046875,0.109375,912
707,1696246856399,0.4724121,0.12689209,-0.90997314,5.828125,-1.421875,0.953125,913
708,1696246856439,0.43725586,0.13201904,-0.8335571,3.859375,0.53125,1.703125,914
709,1696246856479,0.45629883,0.15423584,-0.8579712,1.9375,2.96875,1.25,915
710,1696246856519,0.4350586,0.1473999,-0.8633423,-2.078125,4.734375,0.328125,916
711,1696246856559,0.421875,0.12713623,-0.82403564,-3.3125,5.109375,-0.625,917
712,1696246856599,0.4086914,0.12591553,-0.8196411,-0.671875,3.703125,0.53125,918
713,1696246856639,0.37231445,0.11175537,-0.75006104,-1.1875,1.578125,-0.046875,919
714,1696246856679,0.38305664,0.12176514,-0.7871704,-2.984375,0.84375,-0.65625,920
715,1696246856719,0.39160156,0.116882324,-0.8045044,-4.828125,-2.40625,-1.328125,921
716,1696246856759,0.39770508,0.11151123,-0.79156494,-7.5625,-4.125,-1.1875,922
717,1696246856799,0.42626953,0.105895996,-0.8674927,-5.875,-7.515625,-0.375,923
718,1696246856839,0.46020508,0.10687256,-0.9014282,-2.03125,-9.796875,-0.046875,924
719,1696246856879,0.48364258,0.11590576,-0.91241455,-0.71875,-10.640625,-0.203125,925
720,1696246856919,0.47851562,0.109069824,-0.8711548,0.375,-7.109375,-0.140625,926
721,1696246856959,0.46704102,0.10028076,-0.8262329,0.046875,-3.828125,-0.046875,927
722,1696246856999,0.44970703,0.09442139,-0.7866821,-0.921875,-0.921875,-0.078125,928
723,1696246857039,0.45214844,0.09857178,-0.8237915,-2.03125,0.140625,-0.4375,929
724,1696246857079,0.45483398,0.09979248,-0.833313,-3.46875,0.5,-0.640625,930
725,1696246857119,0.46875,0.10467529,-0.8496704,-2.96875,0.375,-0.546875,931
726,1696246857159,0.48461914,0.093933105,-0.88067627,1.875,0.0,0.484375,932
727,1696246857199,0.47485352,0.101989746,-0.88116455,6.171875,-0.609375,1.484375,933
728,1696246857239,0.46118164,0.109802246,-0.82110596,6.421875,0.234375,1.28125,934
729,1696246857279,0.44262695,0.10272217,-0.81744385,4.296875,-0.09375,0.515625,935
730,1696246857319,0.44335938,0.11199951,-0.7959595,1.25,-0.71875,0.578125,936
731,1696246857359,0.43969727,0.11663818,-0.8130493,0.515625,0.015625,0.859375,937
732,1696246857399,0.44677734,0.12054443,-0.82940674,0.921875,-0.765625,0.484375,938
733,1696246857439,0.45947266,0.121032715,-0.81378174,-0.171875,-1.328125,-0.296875,939
734,1696246857479,0.47998047,0.1395874,-0.85357666,0.765625,-2.390625,-0.21875,940
735,1696246857519,0.43286133,0.11517334,-0.798645,1.765625,1.375,0.5625,941
736,1696246857559,0.45385742,0.113464355,-0.8201294,-0.171875,0.9375,0.171875,942
737,1696246857599,0.45947266,0.11468506,-0.8401489,-1.359375,1.71875,-0.5,943
738,1696246857639,0.4477539,0.12713623,-0.82818604,-0.921875,1.015625,-0.03125,944
739,1696246857679,0.45410156,0.11785889,-0.84991455,-0.84375,-0.546875,0.1875,945
740,1696246857719,0.45483398,0.11444092,-0.8369751,-0.5625,-1.28125,0.078125,946
741,1696246857759,0.4506836,0.11541748,-0.83135986,0.0,-1.109375,0.078125,947
742,1696246857799,0.45458984,0.120788574,-0.8250122,0.328125,-1.25,0.03125,948
743,1696246857839,0.45874023,0.12298584,-0.84381104,0.875,-0.546875,0.25,949
744,1696246857879,0.5029297,0.1317749,-0.9175415,2.3125,4.03125,1.453125,950
745,1696246857919,0.4892578,0.13079834,-0.9158325,0.8125,4.984375,-0.15625,951
746,1696246857959,0.4362793,0.13348389,-0.8328247,0.65625,1.71875,0.234375,952
747,1696246857999,0.4128418,0.10858154,-0.8274536,0.734375,4.265625,0.578125,953
748,1696246858039,0.4194336,0.13275146,-0.84259033,-0.4375,2.546875,0.75,954
749,1696246858079,0.35766602,0.10076904,-0.74102783,0.5,1.078125,0.765625,955
750,1696246858119,0.3713379,0.11981201,-0.75738525,-1.734375,-0.546875,-0.375,956
751,1696246858159,0.41479492,0.11907959,-0.8069458,-2.3125,-0.65625,-0.875,957
752,1696246858199,0.44189453,0.124694824,-0.8821411,-1.34375,-0.875,-0.234375,958
753,1696246858239,0.4506836,0.12860107,-0.9121704,-1.140625,-2.765625,-0.015625,959
754,1696246858279,0.47314453,0.12835693,-0.91607666,0.671875,-2.1875,0.125,960
755,1696246858319,0.45874023,0.12615967,-0.89312744,1.4375,-1.84375,0.625,961
756,1696246858359,0.43139648,0.12957764,-0.8179321,2.0,-1.09375,1.046875,962
757,1696246858399,0.41992188,0.12567139,-0.8062134,1.109375,-0.03125,0.6875,963
758,1696246858439,0.43286133,0.13568115,-0.79278564,0.0,0.921875,0.4375,964
759,1696246858479,0.45751953,0.1359253,-0.8740845,-3.03125,1.8125,-1.265625,965
