,timestamp,accel_x,accel_y,accel_z,gyro_x,gyro_y,gyro_z,ind
0,1696248160004,-0.7077637,-0.039855957,0.82611084,-0.59375,0.90625,0.296875,0
1,1696248160044,-0.7006836,-0.045959473,0.80926514,-1.890625,0.984375,-0.015625,1
2,1696248160084,-0.6940918,-0.05255127,0.8119507,-1.78125,0.9375,-0.75,2
3,1696248160124,-0.7011719,-0.05596924,0.8175659,-1.4375,0.875,-0.671875,3
4,1696248160164,-0.6804199,-0.04498291,0.8175659,-3.140625,0.671875,-0.5625,4
5,1696248160204,-0.66137695,0.00091552734,0.78704834,0.859375,-2.1875,-0.890625,5
6,1696248160244,-0.6982422,-0.04815674,0.7758179,5.0,-4.96875,-0.515625,6
7,1696248160284,-0.65405273,0.016296387,0.73309326,1.046875,-2.796875,-2.328125,7
8,1696248160324,-0.6413574,0.031433105,0.7296753,3.328125,-1.25,-4.140625,8
9,1696248160364,-0.70214844,-0.045715332,0.82977295,10.328125,2.703125,-1.75,9
10,1696248160404,-0.68603516,-0.128479,0.9113159,9.0625,4.8125,2.140625,10
11,1696248160444,-0.65722656,-0.20806885,0.7628784,-5.703125,0.859375,2.3125,11
12,1696248160484,-0.73461914,-0.0010375977,0.7904663,-5.390625,1.21875,-6.328125,12
13,1696248160524,-0.6738281,-0.012512207,0.8776245,3.921875,8.796875,-1.359375,13
14,1696248160564,-0.6999512,0.02142334,0.8666382,6.46875,3.546875,-0.953125,14
15,1696248160604,-0.65600586,-0.17730713,0.93304443,4.28125,-1.0625,4.21875,15
16,1696248160644,-0.7199707,-0.08013916,0.71990967,-3.203125,-3.359375,1.140625,16
17,1696248160684,-0.66503906,-0.039611816,0.7719116,2.953125,5.9375,-3.625,17
18,1696248160724,-0.65625,-0.039611816,0.90448,4.03125,2.359375,-1.203125,18
19,1696248160764,-0.7507324,-0.13287354,0.8805542,-2.609375,-6.34375,1.828125,19
20,1696248160804,-0.64282227,-0.054016113,0.83807373,-1.125,1.15625,-0.953125,20
21,1696248160844,-0.6945801,-0.047668457,0.82318115,4.703125,7.0625,-0.5,21
22,1696248160884,-0.69091797,-0.09820557,0.9291382,-1.46875,-3.484375,-2.671875,22
23,1696248160924,-0.63061523,-0.039855957,0.73846436,-2.46875,-1.0,1.65625,23
24,1696248160964,-0.6608887,-0.058166504,0.8265991,-2.234375,1.109375,0.3125,24
25,1696248161004,-0.64624023,-0.082092285,0.8903198,0.125,0.671875,-2.234375,25
26,1696248161044,-0.69799805,-0.059387207,0.80340576,-5.296875,-1.6875,-1.453125,26
27,1696248161084,-0.66918945,-0.02911377,0.84490967,-0.328125,-0.34375,0.0,27
28,1696248161124,-0.68115234,-0.09283447,0.8004761,1.109375,0.578125,-0.546875,28
29,1696248161164,-0.6520996,-0.045959473,0.87323,-0.640625,0.078125,-0.015625,29
30,1696248161204,-0.65893555,-0.028869629,0.8048706,0.5625,-1.640625,-0.578125,30
31,1696248161244,-0.68603516,-0.054504395,0.8407593,0.203125,-0.75,0.578125,31
32,1696248161284,-0.6503906,-0.06817627,0.80145264,0.171875,-0.03125,0.34375,32
33,1696248161324,-0.65234375,-0.047424316,0.8744507,0.921875,-0.734375,-0.578125,33
34,1696248161364,-0.7163086,-0.054260254,0.8251343,-0.09375,-1.71875,-0.3125,34
35,1696248161404,-0.6586914,-0.04522705,0.8434448,-0.40625,0.890625,1.921875,35
36,1696248161444,-0.6640625,-0.061584473,0.7992554,0.5,1.359375,-0.234375,36
37,1696248161484,-0.69189453,-0.07574463,0.91693115,-1.375,-0.359375,-1.796875,37
38,1696248161524,-0.6254883,0.0021362305,0.7692261,-1.265625,-0.921875,0.6875,38
39,1696248161564,-0.7011719,-0.09063721,0.8685913,0.40625,0.609375,0.5,39
40,1696248161604,-0.6520996,-0.06011963,0.8082886,-0.15625,5.203125,0.890625,40
41,1696248161644,-0.6582031,-0.054504395,0.9398804,-3.203125,-1.171875,1.40625,41
42,1696248161684,-0.69189453,-0.038146973,0.7941284,0.59375,-2.828125,0.203125,42
43,1696248161724,-0.6464844,-0.08258057,0.80584717,-2.65625,-0.296875,-0.09375,43
44,1696248161764,-0.65844727,-0.05206299,0.8348999,-0.328125,-0.953125,-0.421875,44
45,1696248161804,-0.6508789,-0.05206299,0.87249756,0.1875,0.6875,0.4375,45
46,1696248161844,-0.6623535,-0.021057129,0.83099365,-2.9375,-4.46875,1.09375,46
47,1696248161884,-0.6791992,-0.058898926,0.793396,3.078125,-5.09375,1.078125,47
48,1696248161924,-0.6801758,-0.0791626,0.77386475,1.671875,1.15625,0.4375,48
49,1696248161964,-0.6269531,-0.04058838,0.8414917,2.53125,1.59375,-0.96875,49
50,1696248162004,-0.7285156,-0.0413208,0.88568115,0.765625,-1.21875,0.4375,50
51,1696248162044,-0.6723633,-0.054748535,0.8488159,0.0625,-2.328125,1.671875,51
52,1696248162084,-0.7102051,-0.073791504,0.82562256,0.828125,-1.78125,0.953125,52
53,1696248162124,-0.65844727,-0.07183838,0.81951904,2.375,-0.296875,-0.84375,53
54,1696248162164,-0.62939453,-0.06866455,0.8114624,2.0,1.03125,1.09375,54
55,1696248162204,-0.68603516,-0.03253174,0.8529663,-1.234375,-0.46875,-0.671875,55
56,1696248162244,-0.6875,-0.1194458,0.86932373,-0.375,-3.328125,3.109375,56
57,1696248162284,-0.7126465,-0.085754395,0.8890991,-8.359375,-1.9375,1.46875,57
58,1696248162324,-0.62524414,0.023376465,0.7362671,-3.578125,-2.765625,-2.03125,58
59,1696248162364,-0.67456055,-0.020568848,0.7728882,2.34375,-3.6875,-1.125,59
60,1696248162404,-0.6699219,-0.05987549,0.69207764,4.671875,1.703125,-0.375,60
61,1696248162444,-0.68408203,-0.082092285,0.8812866,1.953125,1.078125,-0.515625,61
62,1696248162484,-0.69970703,-0.065979004,0.95111084,1.15625,-2.3125,3.28125,62
63,1696248162524,-0.7224121,-0.109436035,0.8278198,-1.625,-4.234375,1.578125,63
64,1696248162564,-0.6838379,-0.00079345703,0.7391968,-2.703125,1.515625,-2.828125,64
65,1696248162604,-0.64501953,-0.0022583008,0.73236084,4.0,-0.453125,-0.609375,65
66,1696248162644,-0.6767578,-0.09136963,0.8673706,6.078125,-0.71875,-2.375,66
67,1696248162684,-0.71533203,-0.097961426,0.9298706,0.4375,-0.421875,2.390625,67
68,1696248162724,-0.69262695,-0.10870361,0.7704468,-2.234375,-4.09375,3.859375,68
69,1696248162764,-0.69970703,-0.06817627,0.8324585,-6.8125,-2.8125,-4.265625,69
70,1696248162804,-0.70947266,0.015075684,0.805603,-0.265625,-6.84375,-4.71875,70
71,1696248162844,-0.6340332,0.005554199,0.6757202,3.21875,-1.421875,1.40625,71
72,1696248162884,-0.62841797,-0.028625488,0.711853,9.09375,1.265625,0.4375,72
73,1696248162924,-0.68115234,-0.05303955,0.73480225,6.640625,10.53125,-1.515625,73
74,1696248162964,-0.6682129,-0.15167236,0.9059448,4.015625,1.015625,3.421875,74
75,1696248163004,-0.70166016,-0.18707275,0.8563843,-5.71875,-2.140625,4.859375,75
76,1696248163044,-0.72558594,-0.018859863,0.8036499,-4.140625,-0.203125,-1.890625,76
77,1696248163084,-0.7155762,0.012878418,0.8468628,-0.71875,2.4375,-1.84375,77
78,1696248163124,-0.63720703,-0.06866455,0.87298584,-0.890625,6.015625,-3.734375,78
79,1696248163164,-0.7133789,-0.12335205,0.9401245,-1.21875,-2.171875,-0.03125,79
80,1696248163204,-0.6586914,-0.10015869,0.78289795,-3.046875,-2.8125,0.734375,80
81,1696248163244,-0.6923828,-0.074523926,0.80511475,-2.203125,1.71875,1.453125,81
82,1696248163284,-0.6201172,-0.042785645,0.78704834,-0.0625,3.21875,-1.703125,82
83,1696248163324,-0.70288086,-0.011291504,0.87249756,-0.875,-1.625,0.609375,83
84,1696248163364,-0.6074219,-0.047424316,0.8119507,1.09375,-0.078125,-0.21875,84
85,1696248163404,-0.7207031,-0.05645752,0.82196045,-0.640625,1.828125,0.71875,85
86,1696248163444,-0.69506836,-0.07354736,0.8300171,0.484375,-3.75,0.03125,86
87,1696248163484,-0.62841797,-0.039367676,0.78533936,-1.203125,0.84375,0.25,87
88,1696248163524,-0.68725586,-0.018615723,0.80999756,0.4375,-0.296875,0.484375,88
89,1696248163564,-0.6826172,-0.089416504,0.8563843,-0.6875,2.109375,1.125,89
90,1696248163604,-0.6982422,-0.061584473,0.87298584,-2.953125,-0.484375,-0.46875,90
91,1696248163644,-0.6286621,-0.015197754,0.8007202,1.640625,0.125,1.828125,91
92,1696248163684,-0.7072754,-0.054504395,0.84661865,-0.59375,0.59375,0.4375,92
93,1696248163724,-0.66064453,-0.062805176,0.90301514,-0.875,-2.4375,0.03125,93
94,1696248163764,-0.67626953,-0.039855957,0.80023193,-0.078125,-0.09375,0.890625,94
95,1696248163804,-0.6298828,-0.027648926,0.8529663,0.453125,-0.296875,0.546875,95
96,1696248163844,-0.70874023,-0.07867432,0.8383179,-0.40625,-2.390625,0.03125,96
97,1696248163884,-0.6640625,-0.043273926,0.8324585,-0.53125,-0.875,0.375,97
98,1696248163924,-0.6826172,-0.05718994,0.8746948,-0.78125,-3.65625,-0.296875,98
99,1696248163964,-0.6503906,-0.035949707,0.81243896,-3.296875,-10.203125,-0.578125,99
100,1696248164004,-0.6635742,-0.057434082,0.77508545,-0.25,-2.609375,2.125,100
101,1696248164044,-0.6672363,-0.03253174,0.8192749,-0.75,-0.78125,-0.359375,101
102,1696248164084,-0.70458984,-0.054504395,0.8217163,-1.328125,-0.921875,0.203125,102
103,1696248164124,-0.67407227,-0.022277832,0.81829834,0.828125,-1.046875,0.90625,103
104,1696248164164,-0.6906738,-0.06695557,0.7704468,-0.265625,1.828125,0.75,104
105,1696248164204,-0.6796875,-0.043029785,0.8373413,-0.515625,1.0625,0.1875,105
106,1696248164244,-0.7006836,-0.04058838,0.85736084,0.453125,-3.09375,1.453125,106
107,1696248164284,-0.7133789,-0.1104126,0.92181396,-1.078125,-3.546875,2.421875,107
108,1696248164324,-0.6723633,-0.039123535,0.822937,-12.640625,4.5,2.421875,108
109,1696248164364,-0.67456055,0.00091552734,0.7579956,-2.96875,-0.765625,-0.609375,109
110,1696248164404,-0.6489258,-0.016906738,0.7875366,1.484375,-1.90625,-0.5,110
111,1696248164444,-0.63378906,-0.030090332,0.6798706,1.578125,-0.0625,-0.046875,111
112,1696248164484,-0.65063477,-0.04522705,0.8908081,5.53125,-1.015625,-0.53125,112
113,1696248164524,-0.7675781,-0.07305908,0.8981323,0.453125,-1.984375,1.875,113
114,1696248164564,-0.7182617,-0.08795166,0.7982788,-1.5,-4.3125,2.046875,114
115,1696248164604,-0.70947266,-0.0071411133,0.78240967,-1.84375,0.34375,-1.171875,115
116,1696248164644,-0.6850586,-0.010314941,0.7428589,1.390625,1.34375,-0.8125,116
117,1696248164684,-0.6262207,-0.024230957,0.82318115,1.3125,1.171875,-0.984375,117
118,1696248164724,-0.74194336,-0.043029785,0.9130249,0.703125,-0.03125,1.328125,118
119,1696248164764,-0.6916504,-0.11895752,0.8187866,0.15625,-5.171875,2.9375,119
120,1696248164804,-0.6809082,-0.044006348,0.84539795,-6.59375,0.53125,-1.59375,120
121,1696248164844,-0.69506836,0.0138549805,0.7201538,2.671875,-1.71875,-0.171875,121
122,1696248164884,-0.62646484,-0.006164551,0.7106323,1.09375,-0.421875,-1.359375,122
123,1696248164924,-0.68310547,-0.069885254,0.8666382,4.625,-2.453125,0.09375,123
124,1696248164964,-0.74194336,-0.054260254,0.9335327,-0.078125,-1.28125,0.765625,124
125,1696248165004,-0.736084,-0.0803833,0.763855,-1.78125,-4.90625,1.78125,125
126,1696248165044,-0.6940918,0.026306152,0.7731323,-0.953125,2.390625,-1.671875,126
127,1696248165084,-0.66015625,-0.0154418945,0.74505615,2.765625,-0.359375,-1.03125,127
128,1696248165124,-0.6804199,-0.07745361,0.8522339,3.1875,-0.890625,-0.09375,128
129,1696248165164,-0.72680664,-0.10357666,0.9232788,-0.625,-0.09375,3.328125,129
130,1696248165204,-0.75878906,-0.07305908,0.8251343,-3.171875,-2.875,0.28125,130
131,1696248165244,-0.6904297,0.0028686523,0.79437256,-1.1875,1.125,-0.375,131
132,1696248165284,-0.67871094,0.021911621,0.7272339,7.4375,-3.59375,0.765625,132
133,1696248165324,-0.6958008,-0.07647705,0.81658936,5.359375,6.53125,-2.15625,133
134,1696248165364,-0.6999512,-0.08721924,0.9845581,2.78125,-0.015625,4.078125,134
135,1696248165404,-0.72558594,-0.14898682,0.7584839,-2.75,-4.453125,3.046875,135
136,1696248165444,-0.7128906,-0.02130127,0.83758545,-7.734375,1.671875,-3.703125,136
137,1696248165484,-0.7043457,0.04559326,0.77264404,2.375,-2.140625,-0.65625,137
138,1696248165524,-0.6418457,-0.032043457,0.7123413,0.75,1.03125,-0.5,138
139,1696248165564,-0.6669922,-0.06890869,0.7758179,3.5,5.578125,0.28125,139
140,1696248165604,-0.6418457,-0.05987549,0.8175659,4.59375,6.75,0.875,140
141,1696248165644,-0.6821289,-0.16119385,0.8444214,1.453125,-1.828125,5.75,141
142,1696248165684,-0.7541504,-0.08453369,0.8065796,-3.796875,6.625,0.796875,142
143,1696248165724,-0.71777344,-0.014953613,0.9191284,-0.359375,0.96875,-2.109375,143
144,1696248165764,-0.68408203,-0.053527832,0.8744507,-3.15625,-1.796875,-1.015625,144
145,1696248165804,-0.71728516,-0.039611816,0.81658936,-0.5,-0.1875,1.15625,145
146,1696248165844,-0.6496582,-0.034484863,0.7728882,-0.90625,1.46875,-1.484375,146
147,1696248165884,-0.63549805,-0.10357666,0.8473511,-1.46875,-1.53125,-0.96875,147
148,1696248165924,-0.70092773,-0.077697754,0.77386475,-1.1875,-1.484375,0.875,148
149,1696248165964,-0.6311035,-0.038879395,0.82489014,-0.96875,1.296875,0.03125,149
150,1696248166004,-0.7102051,-0.07159424,0.8373413,0.09375,-1.453125,-0.375,150
151,1696248166044,-0.6357422,-0.018371582,0.87957764,1.015625,-0.21875,-1.046875,151
152,1696248166084,-0.6940918,-0.046936035,0.8341675,1.40625,-1.375,1.390625,152
153,1696248166124,-0.6621094,-0.05670166,0.83148193,-0.390625,0.5,-0.109375,153
154,1696248166164,-0.6665039,-0.03643799,0.7850952,-1.875,0.921875,-0.359375,154
155,1696248166204,-0.6833496,-0.046936035,0.82318115,0.1875,-1.390625,0.765625,155
156,1696248166244,-0.6479492,-0.055725098,0.7821655,0.359375,-0.921875,1.640625,156
157,1696248166284,-0.6933594,-0.058898926,0.8192749,0.734375,-0.078125,0.734375,157
158,1696248166324,-0.6555176,-0.043029785,0.7460327,-0.078125,3.796875,-0.453125,158
159,1696248166364,-0.6928711,-0.038391113,0.92767334,2.03125,5.34375,0.375,159
160,1696248166404,-0.69873047,-0.051330566,0.90740967,-1.796875,-4.03125,0.8125,160
161,1696248166444,-0.65844727,-0.08746338,0.81829834,1.109375,0.078125,1.171875,161
162,1696248166484,-0.67456055,-0.035217285,0.83880615,-1.046875,1.03125,-0.578125,162
163,1696248166524,-0.592041,-0.043273926,0.81048584,2.140625,3.453125,-2.453125,163
164,1696248166564,-0.6323242,-0.0012817383,0.8510132,-0.515625,-0.375,-0.25,164
165,1696248166604,-0.6323242,-0.06890869,0.79803467,0.21875,0.125,1.5,165
166,1696248166644,-0.72631836,-0.09844971,0.9039917,0.421875,0.203125,1.40625,166
167,1696248166684,-0.6152344,-0.058410645,0.8456421,-0.109375,3.34375,-1.875,167
168,1696248166724,-0.7336426,-0.044006348,0.9291382,0.546875,-5.25,-0.046875,168
169,1696248166764,-0.6269531,-0.06085205,0.80584717,-0.09375,-1.734375,-1.03125,169
170,1696248166804,-0.69628906,-0.08428955,0.9039917,1.0625,-0.0625,1.96875,170
171,1696248166844,-0.62597656,-0.070129395,0.7819214,-0.9375,1.578125,-1.859375,171
172,1696248166884,-0.70410156,-0.003967285,0.9110718,-0.34375,-2.953125,0.53125,172
173,1696248166924,-0.5996094,-0.06060791,0.8041382,1.21875,-0.3125,0.484375,173
174,1696248166964,-0.7429199,-0.090148926,0.8637085,0.265625,-0.015625,1.53125,174
175,1696248167004,-0.5866699,-0.04034424,0.8217163,-0.3125,0.75,-1.90625,175
176,1696248167044,-0.70288086,-0.031066895,0.8444214,0.5,-1.484375,0.28125,176
177,1696248167084,-0.61987305,-0.05303955,0.84832764,1.1875,0.015625,0.125,177
178,1696248167124,-0.7060547,-0.07354736,0.83465576,0.078125,-0.34375,0.671875,178
179,1696248167164,-0.62890625,-0.055480957,0.8060913,-0.09375,0.484375,-0.4375,179
180,1696248167204,-0.6254883,-0.055725098,0.87908936,1.671875,0.09375,0.296875,180
181,1696248167244,-0.6665039,-0.054016113,0.80755615,-0.71875,-1.375,0.1875,181
182,1696248167284,-0.65405273,-0.07281494,0.854187,0.78125,0.015625,0.5625,182
183,1696248167324,-0.64941406,-0.054504395,0.8410034,-0.578125,-0.53125,-0.34375,183
184,1696248167364,-0.6464844,-0.04522705,0.8685913,1.140625,0.0,1.046875,184
185,1696248167404,-0.65527344,-0.081848145,0.822937,0.5,-0.921875,0.109375,185
186,1696248167444,-0.6616211,-0.03741455,0.8168335,0.0625,-3.546875,1.390625,186
187,1696248167484,-0.6652832,-0.06817627,0.81414795,0.375,-1.546875,1.078125,187
188,1696248167524,-0.6452637,-0.06817627,0.84661865,-0.890625,-1.5,-0.75,188
189,1696248167564,-0.67163086,-0.046203613,0.84906006,-1.390625,-1.46875,0.640625,189
190,1696248167604,-0.6748047,-0.08404541,0.9105835,-1.5,-2.640625,2.703125,190
191,1696248167644,-0.66503906,-0.00592041,0.7665405,-1.984375,-5.40625,0.578125,191
192,1696248167684,-0.6489258,-0.04449463,0.8168335,0.6875,-2.359375,-0.203125,192
193,1696248167724,-0.6647949,-0.06890869,0.80096436,0.515625,-1.265625,0.015625,193
194,1696248167764,-0.6616211,-0.06011963,0.8300171,0.109375,0.796875,-1.421875,194
195,1696248167804,-0.70288086,-0.049865723,0.86053467,-0.328125,-0.78125,1.140625,195
196,1696248167844,-0.6672363,-0.07476807,0.81048584,0.984375,-1.328125,1.171875,196
197,1696248167884,-0.66796875,-0.06427002,0.81829834,-0.375,-1.046875,-0.234375,197
198,1696248167924,-0.6442871,-0.04864502,0.77264404,1.28125,1.8125,-0.78125,198
199,1696248167964,-0.67944336,-0.02545166,0.8805542,-0.265625,1.296875,-0.859375,199
200,1696248168004,-0.6567383,-0.074279785,0.8883667,-1.390625,-1.15625,1.125,200
201,1696248168044,-0.6904297,-0.09234619,0.821228,-1.875,-1.71875,1.21875,201
202,1696248168084,-0.65771484,-0.020324707,0.81048584,-1.828125,-1.78125,-0.90625,202
203,1696248168124,-0.6381836,-0.03692627,0.7831421,0.96875,0.078125,-0.234375,203
204,1696248168164,-0.62768555,-0.05303955,0.8180542,0.796875,-2.484375,-0.96875,204
205,1696248168204,-0.67749023,-0.05718994,0.85028076,0.765625,-2.15625,2.0625,205
206,1696248168244,-0.7158203,-0.097717285,0.83709717,-1.4375,-4.109375,3.09375,206
207,1696248168284,-0.66674805,0.0072631836,0.7992554,-6.859375,-0.703125,-0.6875,207
208,1696248168324,-0.7023926,-0.028137207,0.81463623,-1.953125,-3.953125,-0.609375,208
209,1696248168364,-0.68603516,-0.07989502,0.7977905,1.859375,1.859375,-0.359375,209
210,1696248168404,-0.6994629,-0.058898926,0.89520264,1.4375,-0.125,-0.34375,210
211,1696248168444,-0.6845703,-0.05255127,0.8085327,-1.078125,-3.09375,1.625,211
212,1696248168484,-0.6921387,-0.046203613,0.8163452,-1.4375,-0.640625,0.484375,212
213,1696248168524,-0.6555176,-0.034240723,0.79119873,0.296875,-0.53125,-0.46875,213
214,1696248168564,-0.66967773,-0.038635254,0.8102417,1.640625,2.84375,-0.15625,214
215,1696248168604,-0.66796875,-0.038635254,0.8427124,1.9375,2.328125,0.0625,215
216,1696248168644,-0.6850586,-0.074523926,0.88446045,0.734375,-0.03125,1.421875,216
217,1696248168684,-0.69140625,-0.08135986,0.7965698,-1.3125,-2.328125,0.796875,217
218,1696248168724,-0.67407227,-0.024230957,0.81463623,-0.625,-0.78125,-0.59375,218
219,1696248168764,-0.67333984,-0.01373291,0.822937,0.5625,-1.15625,-0.59375,219
220,1696248168804,-0.68115234,-0.04156494,0.8522339,0.15625,-1.6875,0.15625,220
221,1696248168844,-0.70166016,-0.07476807,0.82366943,-1.328125,-1.578125,1.09375,221
222,1696248168884,-0.6804199,-0.06011963,0.81048584,-1.6875,-0.390625,0.46875,222
223,1696248168924,-0.65844727,-0.040100098,0.77923584,0.703125,0.109375,-0.140625,223
224,1696248168964,-0.66259766,-0.04840088,0.82366943,1.828125,0.5,-0.609375,224
225,1696248169004,-0.70214844,-0.023986816,0.8895874,-0.015625,1.40625,-0.171875,225
226,1696248169044,-0.68603516,-0.08404541,0.81121826,0.0625,-3.859375,2.5,226
227,1696248169084,-0.704834,-0.055480957,0.91693115,-5.96875,-1.390625,-1.59375,227
228,1696248169124,-0.6594238,-6.1035156e-05,0.6815796,1.734375,-2.890625,0.453125,228
229,1696248169164,-0.66259766,-0.031799316,0.79681396,2.875,-1.4375,-0.125,229
230,1696248169204,-0.6789551,-0.093811035,0.8114624,1.765625,-2.421875,-0.71875,230
231,1696248169244,-0.6750488,-0.0335083,0.838562,0.078125,0.625,0.09375,231
232,1696248169284,-0.70458984,-0.05303955,0.80511475,1.046875,-2.859375,1.59375,232
233,1696248169324,-0.69873047,-0.038146973,0.8029175,0.71875,-0.78125,0.359375,233
234,1696248169364,-0.6796875,-0.020080566,0.821228,1.390625,1.03125,-0.6875,234
235,1696248169404,-0.73291016,-0.0635376,0.87957764,1.28125,0.28125,0.46875,235
236,1696248169444,-0.68652344,-0.13067627,0.8239136,-0.609375,-2.1875,1.703125,236
237,1696248169484,-0.6899414,-0.05328369,0.8505249,-6.734375,0.703125,-0.609375,237
238,1696248169524,-0.7167969,0.020690918,0.7821655,0.0,-5.84375,0.265625,238
239,1696248169564,-0.5854492,-0.0178833,0.6967163,1.984375,-1.90625,-0.3125,239
240,1696248169604,-0.6586914,-0.04449463,0.6901245,5.0,1.46875,0.8125,240
241,1696248169644,-0.7285156,-0.085998535,0.8600464,7.875,3.234375,1.15625,241
242,1696248169684,-0.69140625,-0.094055176,0.9122925,3.875,2.359375,2.21875,242
243,1696248169724,-0.7043457,-0.105285645,0.8029175,-2.46875,-1.765625,2.390625,243
244,1696248169764,-0.7192383,-0.012268066,0.840271,-1.640625,-0.375,-1.609375,244
245,1696248169804,-0.72875977,-0.014953613,0.7872925,-0.6875,1.78125,-0.8125,245
246,1696248169844,-0.68603516,-0.022766113,0.91156006,2.03125,8.421875,-2.53125,246
247,1696248169884,-0.6308594,-0.11968994,0.91986084,1.203125,4.25,0.453125,247
248,1696248169924,-0.72680664,-0.128479,0.8341675,-3.359375,-2.671875,3.9375,248
249,1696248169964,-0.6376953,-0.07281494,0.8319702,-1.03125,0.453125,-0.296875,249
250,1696248170004,-0.703125,-0.050109863,0.78948975,-1.875,0.328125,-1.984375,250
251,1696248170044,-0.58813477,-0.008605957,0.7868042,0.609375,4.953125,-1.484375,251
252,1696248170084,-0.7734375,-0.08306885,0.9689331,-3.453125,-5.265625,0.140625,252
253,1696248170124,-0.6164551,-0.06695557,0.8410034,-1.046875,-0.609375,-0.625,253
254,1696248170164,-0.751709,-0.061828613,0.88812256,-0.046875,1.265625,0.6875,254
255,1696248170204,-0.6201172,-0.08843994,0.8114624,0.28125,-0.515625,-1.375,255
256,1696248170244,-0.6940918,-0.018615723,0.77459717,0.625,-0.578125,1.15625,256
257,1696248170284,-0.6027832,-0.06085205,0.8209839,1.46875,0.0,-1.140625,257
258,1696248170324,-0.69262695,-0.057678223,0.8554077,-0.34375,-0.453125,1.453125,258
259,1696248170364,-0.68896484,-0.038635254,0.83465576,-0.09375,-1.0625,-0.1875,259
260,1696248170404,-0.6694336,-0.051574707,0.8497925,-0.3125,-0.828125,0.390625,260
261,1696248170444,-0.6809082,-0.06719971,0.854187,-0.28125,-2.5,0.671875,261
262,1696248170484,-0.6533203,-0.085998535,0.78656006,-1.21875,-0.25,-0.09375,262
263,1696248170524,-0.67089844,-0.050598145,0.8251343,-0.703125,-0.71875,-0.078125,263
264,1696248170564,-0.6682129,-0.0491333,0.84295654,-0.03125,-0.875,0.3125,264
265,1696248170604,-0.6796875,-0.04083252,0.82684326,0.453125,-0.921875,0.984375,265
266,1696248170644,-0.67749023,-0.06329346,0.81951904,-0.046875,-2.390625,1.046875,266
267,1696248170684,-0.66674805,-0.05621338,0.83514404,-0.46875,-2.015625,0.015625,267
268,1696248170724,-0.67626953,-0.062072754,0.82440186,0.796875,-0.53125,0.484375,268
269,1696248170764,-0.67163086,-0.054748535,0.81073,-0.265625,-0.390625,-0.328125,269
270,1696248170804,-0.67407227,-0.057678223,0.84246826,0.1875,0.4375,-0.109375,270
271,1696248170844,-0.69555664,-0.051330566,0.8649292,-0.5625,-0.984375,0.3125,271
272,1696248170884,-0.7006836,-0.0869751,0.8468628,0.484375,-3.0,2.0625,272
273,1696248170924,-0.6291504,-0.07989502,0.9086304,-6.484375,1.625,-0.25,273
274,1696248170964,-0.7265625,-0.0134887695,0.855896,-7.015625,-6.09375,1.453125,274
275,1696248171004,-0.69384766,-0.0725708,0.70428467,7.796875,-7.828125,1.125,275
276,1696248171044,-0.6503906,-0.0154418945,0.78167725,-0.484375,0.171875,-1.34375,276
277,1696248171084,-0.67700195,-0.028381348,0.72283936,4.671875,-2.140625,1.1875,277
278,1696248171124,-0.6772461,-0.10211182,0.80999756,6.6875,-3.28125,2.140625,278
279,1696248171164,-0.67211914,-0.062072754,0.91033936,1.890625,3.421875,0.296875,279
280,1696248171204,-0.72802734,-0.11016846,0.7880249,0.09375,-5.015625,3.015625,280
281,1696248171244,-0.72143555,-0.035949707,0.82977295,-3.921875,1.671875,-1.828125,281
282,1696248171284,-0.7001953,0.01361084,0.8012085,0.328125,-0.03125,0.65625,282
283,1696248171324,-0.67871094,-0.08795166,0.8278198,1.03125,0.78125,-1.203125,283
284,1696248171364,-0.7109375,-0.109436035,0.8722534,0.625,2.5625,1.875,284
285,1696248171404,-0.66748047,-0.09234619,0.7797241,-1.21875,-0.046875,0.125,285
286,1696248171444,-0.6555176,-0.05255127,0.8126831,-0.703125,2.875,-0.578125,286
287,1696248171484,-0.6760254,-0.024230957,0.7518921,-1.453125,2.734375,-0.296875,287
288,1696248171524,-0.6340332,-0.01739502,0.85321045,1.75,8.140625,-0.9375,288
289,1696248171564,-0.71313477,-0.11431885,0.96380615,1.609375,-1.40625,3.828125,289
290,1696248171604,-0.7084961,-0.08648682,0.7772827,-3.46875,-0.3125,0.6875,290
291,1696248171644,-0.67822266,-0.034973145,0.87127686,-0.953125,1.953125,-0.9375,291
292,1696248171684,-0.6574707,-0.05596924,0.8222046,0.359375,1.609375,-2.484375,292
293,1696248171724,-0.67211914,-0.06549072,0.8649292,-2.1875,-2.5,0.515625,293
294,1696248171764,-0.6118164,-0.050842285,0.79852295,0.9375,-1.953125,-0.171875,294
295,1696248171804,-0.70043945,-0.09259033,0.8463745,0.625,0.3125,0.5,295
296,1696248171844,-0.67700195,-0.06109619,0.84295654,-1.0625,-2.375,0.25,296
297,1696248171884,-0.7224121,-0.07183838,0.8759155,-4.71875,-4.796875,0.625,297
298,1696248171924,-0.6542969,-0.0044555664,0.7872925,0.078125,-5.328125,-0.203125,298
299,1696248171964,-0.6640625,-0.05596924,0.80755615,0.9375,-1.96875,0.453125,299
300,1696248172004,-0.7104492,-0.062561035,0.8070679,0.671875,-2.015625,-0.21875,300
301,1696248172044,-0.66064453,-0.059143066,0.79315186,-0.21875,-0.203125,-0.375,301
302,1696248172084,-0.66967773,-0.04547119,0.8161011,0.40625,-1.5625,0.234375,302
303,1696248172124,-0.70532227,-0.0569458,0.8317261,1.046875,-0.828125,1.53125,303
304,1696248172164,-0.70654297,-0.054260254,0.8173218,0.875,-1.953125,0.703125,304
305,1696248172204,-0.6933594,-0.054992676,0.83587646,-0.125,-1.328125,-0.03125,305
306,1696248172244,-0.69506836,-0.08428955,0.8493042,0.578125,-2.171875,0.03125,306
307,1696248172284,-0.7116699,-0.09625244,0.88616943,-0.65625,-1.59375,1.3125,307
308,1696248172324,-0.7026367,-0.06549072,0.86102295,-9.53125,4.625,1.546875,308
309,1696248172364,-0.70458984,-0.0064086914,0.7731323,-6.96875,-0.375,-0.109375,309
310,1696248172404,-0.5966797,-0.039855957,0.7255249,-0.765625,-0.015625,-1.5625,310
311,1696248172444,-0.64208984,-0.0154418945,0.71429443,0.40625,-1.171875,0.359375,311
312,1696248172484,-0.69799805,-0.07501221,0.83099365,4.34375,-1.5,0.28125,312
313,1696248172524,-0.7312012,-0.11383057,0.883728,1.859375,-0.609375,1.328125,313
314,1696248172564,-0.6875,-0.0635376,0.7797241,-1.6875,-0.59375,1.625,314
315,1696248172604,-0.7285156,-0.014709473,0.8200073,0.375,-2.078125,0.0,315
316,1696248172644,-0.6936035,-0.029846191,0.82684326,1.140625,-0.5,-0.796875,316
317,1696248172684,-0.64404297,-0.054504395,0.81170654,0.53125,-1.828125,-1.03125,317
318,1696248172724,-0.69189453,-0.07159424,0.8810425,0.875,-0.15625,0.671875,318
319,1696248172764,-0.7277832,-0.144104,0.8287964,0.125,-2.3125,3.5,319
320,1696248172804,-0.6765137,-0.06060791,0.8134155,-4.328125,3.25,0.953125,320
321,1696248172844,-0.66918945,0.02532959,0.7445679,-0.375,-3.453125,-0.390625,321
322,1696248172884,-0.654541,0.032409668,0.7538452,4.0625,-1.765625,-0.421875,322
323,1696248172924,-0.6862793,-0.0635376,0.78045654,7.328125,-1.453125,2.046875,323
324,1696248172964,-0.6965332,-0.13189697,0.8341675,3.578125,-3.140625,2.203125,324
325,1696248173004,-0.6906738,-0.1026001,0.8720093,-2.421875,1.328125,0.515625,325
326,1696248173044,-0.74975586,-0.09503174,0.76312256,1.5625,-4.5625,4.046875,326
327,1696248173084,-0.7121582,-0.03643799,0.86151123,-3.59375,0.328125,-2.703125,327
328,1696248173124,-0.6442871,0.059265137,0.7340698,-0.328125,1.640625,-1.578125,328
329,1696248173164,-0.6604004,-0.024719238,0.73065186,4.734375,-3.484375,0.03125,329
330,1696248173204,-0.6843262,-0.10601807,0.8329468,3.890625,3.109375,-0.578125,330
331,1696248173244,-0.71191406,-0.13970947,0.8734741,2.328125,3.296875,1.625,331
332,1696248173284,-0.68896484,-0.14068604,0.7987671,-0.484375,-0.046875,3.234375,332
333,1696248173324,-0.6779785,-0.018615723,0.7597046,-3.265625,6.328125,2.390625,333
334,1696248173364,-0.66552734,-0.034729004,0.86590576,0.40625,3.3125,-0.765625,334
335,1696248173404,-0.7458496,-0.081848145,0.8773804,-1.40625,0.921875,-1.0,335
336,1696248173444,-0.6816406,-0.06085205,0.7831421,-0.71875,1.203125,0.765625,336
337,1696248173484,-0.720459,-0.09503174,0.868103,-2.078125,0.125,-1.65625,337
338,1696248173524,-0.6567383,-0.08282471,0.8283081,-0.65625,0.234375,-0.09375,338
339,1696248173564,-0.64404297,-0.08331299,0.81707764,-0.8125,-2.71875,0.140625,339
340,1696248173604,-0.671875,-0.04840088,0.8644409,-3.59375,-4.671875,-0.75,340
341,1696248173644,-0.6821289,-0.054748535,0.79730225,0.984375,-6.921875,1.28125,341
342,1696248173684,-0.6936035,-0.04058838,0.7770386,1.828125,-5.765625,0.1875,342
343,1696248173724,-0.7067871,-0.109191895,0.88031006,1.640625,-4.703125,0.203125,343
344,1696248173764,-0.717041,-0.11505127,0.82440186,-4.296875,0.734375,-0.109375,344
345,1696248173804,-0.75146484,-0.05718994,0.78948975,-8.234375,3.078125,-1.0625,345
346,1696248173844,-0.65356445,0.0060424805,0.743103,-1.578125,0.03125,-2.734375,346
347,1696248173884,-0.6413574,0.018249512,0.7316284,2.90625,-0.015625,-0.421875,347
348,1696248173924,-0.68774414,-0.06011963,0.7782593,8.90625,-2.984375,1.0625,348
349,1696248173964,-0.67578125,-0.10797119,0.8546753,3.5,0.046875,0.75,349
350,1696248174004,-0.7348633,-0.11505127,0.91448975,-1.09375,-0.125,2.390625,350
351,1696248174044,-0.7277832,-0.09039307,0.8119507,-2.328125,-1.875,1.359375,351
352,1696248174084,-0.7102051,-0.0071411133,0.8522339,-5.21875,1.171875,-1.6875,352
353,1696248174124,-0.7092285,-0.005432129,0.76556396,-0.6875,-0.53125,-0.53125,353
354,1696248174164,-0.671875,-0.05718994,0.77508545,2.53125,-2.6875,0.640625,354
355,1696248174204,-0.69311523,-0.09429932,0.78826904,3.640625,-4.25,1.28125,355
356,1696248174244,-0.6984863,-0.10015869,0.80218506,2.328125,-2.3125,0.78125,356
357,1696248174284,-0.68774414,-0.07525635,0.84295654,-0.859375,3.515625,1.15625,357
358,1696248174324,-0.72436523,-0.06964111,0.85858154,-0.890625,1.265625,1.484375,358
359,1696248174364,-0.6994629,-0.047424316,0.8373413,-5.15625,3.234375,-0.734375,359
360,1696248174404,-0.76904297,-0.06768799,0.7731323,1.484375,-3.40625,-0.359375,360
361,1696248174444,-0.60180664,-0.006164551,0.7411499,3.203125,-2.234375,-1.984375,361
362,1696248174484,-0.68115234,-0.051086426,0.66156006,8.75,1.09375,0.78125,362
363,1696248174524,-0.6821289,-0.08673096,0.8890991,5.984375,4.1875,-1.90625,363
364,1696248174564,-0.66796875,-0.14434814,0.86590576,3.03125,4.4375,2.046875,364
365,1696248174604,-0.67944336,-0.13043213,0.7584839,-4.734375,1.15625,1.71875,365
366,1696248174644,-0.7182617,-0.024719238,0.85028076,-3.625,-1.421875,-0.109375,366
367,1696248174684,-0.7199707,-0.047668457,0.85321045,-1.0,-2.078125,-0.5625,367
368,1696248174724,-0.6906738,-0.058410645,0.8185425,-2.96875,-0.46875,-1.1875,368
369,1696248174764,-0.6352539,-0.078430176,0.84173584,-2.171875,1.828125,-0.171875,369
370,1696248174804,-0.64501953,-0.108947754,0.74871826,-1.53125,-1.078125,4.0625,370
371,1696248174844,-0.71850586,-0.05596924,0.81121826,-1.5,-0.578125,1.40625,371
372,1696248174884,-0.6633301,-0.046936035,0.7247925,0.6875,1.34375,-0.3125,372
373,1696248174924,-0.6516113,-0.039611816,0.8258667,2.015625,4.15625,-1.5625,373
374,1696248174964,-0.7324219,-0.13555908,0.8822632,1.28125,1.4375,2.15625,374
375,1696248175004,-0.7092285,-0.05621338,0.79803467,-0.78125,0.671875,-0.21875,375
376,1696248175044,-0.7182617,-0.061584473,0.871521,0.078125,2.6875,-0.375,376
377,1696248175084,-0.63671875,-0.055236816,0.791687,-1.46875,3.828125,-1.609375,377
378,1696248175124,-0.6711426,-0.08770752,0.93182373,0.265625,3.09375,1.25,378
379,1696248175164,-0.640625,-0.049865723,0.7296753,-3.609375,-2.234375,-1.359375,379
380,1696248175204,-0.6467285,-0.05645752,0.8629761,1.21875,1.109375,0.6875,380
381,1696248175244,-0.6977539,-0.09283447,0.8300171,-0.71875,-1.546875,-0.640625,381
382,1696248175284,-0.62768555,-0.057922363,0.8156128,-0.859375,1.859375,-0.640625,382
383,1696248175324,-0.6867676,-0.04937744,0.8607788,0.3125,0.53125,0.0625,383
384,1696248175364,-0.70288086,-0.07598877,0.8668823,-1.328125,-2.828125,-0.65625,384
385,1696248175404,-0.64404297,-0.06549072,0.80267334,-0.515625,-0.421875,-0.09375,385
386,1696248175444,-0.64575195,-0.07354736,0.83587646,0.015625,-1.390625,0.1875,386
387,1696248175484,-0.65356445,-0.054504395,0.83270264,0.890625,-3.25,1.21875,387
388,1696248175524,-0.69091797,-0.074035645,0.8629761,1.71875,-7.234375,1.65625,388
389,1696248175564,-0.6765137,-0.047912598,0.80389404,-0.484375,-5.65625,-0.75,389
390,1696248175604,-0.67993164,-0.078186035,0.8041382,1.015625,-0.71875,-0.28125,390
391,1696248175644,-0.6567383,-0.04522705,0.80511475,-0.4375,-0.59375,-1.234375,391
392,1696248175684,-0.69311523,-0.070373535,0.8361206,1.125,0.1875,0.578125,392
393,1696248175724,-0.6855469,-0.066467285,0.8143921,0.578125,-0.796875,0.71875,393
394,1696248175764,-0.6833496,-0.07159424,0.8348999,0.234375,1.8125,0.453125,394
395,1696248175804,-0.67285156,-0.058410645,0.8085327,-0.671875,1.515625,0.09375,395
396,1696248175844,-0.66796875,-0.07305908,0.8312378,-0.328125,2.8125,-0.125,396
397,1696248175884,-0.68725586,-0.06500244,0.7770386,-1.9375,3.796875,0.828125,397
398,1696248175924,-0.5957031,-0.07086182,0.8734741,-2.71875,7.75,-2.984375,398
399,1696248175964,-0.73413086,-0.038635254,0.92645264,-1.25,-3.078125,1.234375,399
400,1696248176004,-0.63256836,-0.039123535,0.80804443,0.4375,-0.328125,0.5625,400
401,1696248176044,-0.7036133,-0.09210205,0.8361206,0.03125,0.53125,0.265625,401
402,1696248176084,-0.64282227,-0.04107666,0.84490967,-0.53125,0.390625,-0.796875,402
403,1696248176124,-0.65356445,-0.05987549,0.79559326,0.34375,0.359375,1.609375,403
404,1696248176164,-0.6154785,-0.050354004,0.868103,0.390625,2.625,-0.59375,404
405,1696248176204,-0.7180176,-0.07598877,0.8829956,-0.6875,-2.046875,-0.046875,405
406,1696248176244,-0.5852051,-0.062561035,0.79852295,0.3125,0.78125,0.53125,406
407,1696248176284,-0.7480469,-0.07891846,0.83587646,0.0625,-1.1875,1.28125,407
408,1696248176324,-0.5554199,-0.057922363,0.8317261,-0.71875,0.40625,-2.140625,408
409,1696248176364,-0.7211914,-0.04425049,0.9232788,0.578125,-3.640625,1.171875,409
410,1696248176404,-0.6274414,-0.051330566,0.8283081,0.328125,-0.734375,0.515625,410
411,1696248176444,-0.71240234,-0.06964111,0.8768921,0.625,0.140625,0.0,411
412,1696248176484,-0.6152344,-0.06890869,0.8324585,0.21875,-1.40625,0.1875,412
413,1696248176524,-0.685791,-0.050109863,0.83807373,-0.21875,-3.390625,0.640625,413
414,1696248176564,-0.64624023,-0.059143066,0.8739624,0.453125,-3.640625,-0.375,414
415,1696248176604,-0.67626953,-0.05328369,0.8200073,-1.203125,-6.28125,0.265625,415
416,1696248176644,-0.67333984,-0.043518066,0.7929077,0.28125,-0.46875,0.171875,416
417,1696248176684,-0.6633301,-0.03692627,0.8241577,0.96875,-1.53125,-0.390625,417
418,1696248176724,-0.66064453,-0.06842041,0.8187866,0.765625,-2.0,1.015625,418
419,1696248176764,-0.68896484,-0.06402588,0.86102295,0.703125,-1.078125,1.28125,419
420,1696248176804,-0.70410156,-0.066711426,0.824646,-1.125,-2.53125,0.0,420
421,1696248176844,-0.6711426,-0.06768799,0.84661865,0.359375,-1.78125,0.734375,421
422,1696248176884,-0.6994629,-0.06500244,0.8529663,-0.671875,-2.0,1.359375,422
423,1696248176924,-0.6713867,-0.08892822,0.8602905,0.125,-2.78125,1.953125,423
424,1696248176964,-0.68408203,-0.082336426,0.83270264,-0.484375,-4.625,3.46875,424
425,1696248177004,-0.6738281,-0.06573486,0.75115967,-2.390625,-2.28125,1.640625,425
426,1696248177044,-0.65112305,-0.012023926,0.7711792,-2.453125,-0.5,-1.109375,426
427,1696248177084,-0.7175293,-0.06890869,0.80926514,1.53125,-1.71875,1.078125,427
428,1696248177124,-0.6765137,-0.081848145,0.7785034,0.640625,-1.8125,0.359375,428
429,1696248177164,-0.7097168,-0.062561035,0.795105,5.375,-1.4375,1.0,429
430,1696248177204,-0.72021484,-0.07696533,0.8331909,5.125,0.0,1.859375,430
431,1696248177244,-0.7167969,-0.08306885,0.84246826,2.84375,2.859375,1.96875,431
432,1696248177284,-0.6923828,-0.09234619,0.77142334,-2.46875,5.921875,-0.75,432
433,1696248177324,-0.60595703,-0.0713501,0.8786011,-1.234375,6.46875,-1.9375,433
434,1696248177364,-0.7121582,-0.07891846,0.8607788,-1.046875,-1.25,0.328125,434
435,1696248177404,-0.6657715,-0.097473145,0.7963257,-0.703125,-1.75,0.0,435
436,1696248177444,-0.6677246,-0.07598877,0.8444214,0.15625,-4.875,-1.765625,436
437,1696248177484,-0.6882324,-0.06524658,0.7850952,-1.375,-5.53125,-0.40625,437
438,1696248177524,-0.67211914,-0.06549072,0.78460693,1.4375,-4.578125,0.546875,438
439,1696248177564,-0.69433594,-0.09088135,0.7860718,0.25,-0.078125,-0.9375,439
440,1696248177604,-0.68115234,-0.062805176,0.7628784,0.90625,4.4375,0.3125,440
441,1696248177644,-0.6765137,-0.06793213,0.83221436,-0.15625,3.078125,-0.75,441
442,1696248177684,-0.6916504,-0.10064697,0.8690796,-0.65625,3.078125,-0.25,442
443,1696248177724,-0.71533203,-0.054016113,0.8685913,-0.96875,-0.3125,0.96875,443
444,1696248177764,-0.6723633,-0.07623291,0.840271,0.171875,-2.328125,0.84375,444
445,1696248177804,-0.6945801,-0.085754395,0.9135132,-3.1875,-3.046875,-0.28125,445
446,1696248177844,-0.68408203,-0.050598145,0.8344116,-7.0,-6.28125,0.984375,446
447,1696248177884,-0.670166,-0.057434082,0.77264404,-4.703125,-5.421875,0.796875,447
448,1696248177924,-0.6904297,-0.07647705,0.7609253,-4.28125,-1.828125,-0.265625,448
449,1696248177964,-0.7050781,-0.045959473,0.7640991,-4.40625,1.375,-0.828125,449
450,1696248178004,-0.673584,0.0040893555,0.75946045,-0.78125,-0.21875,-1.546875,450
451,1696248178044,-0.65844727,0.0006713867,0.76678467,3.65625,-2.1875,-0.328125,451
452,1696248178084,-0.7363281,-0.06500244,0.7807007,11.171875,-5.0,2.59375,452
453,1696248178124,-0.68652344,-0.09698486,0.8451538,8.40625,-2.65625,1.25,453
454,1696248178164,-0.7062988,-0.09454346,0.7887573,1.84375,4.46875,-0.75,454
455,1696248178204,-0.6586914,-0.031799316,0.8632202,0.71875,4.546875,-1.375,455
456,1696248178244,-0.7150879,-0.074279785,0.871521,-0.671875,-3.578125,1.109375,456
457,1696248178284,-0.7102051,-0.08770752,0.7953491,-3.3125,0.515625,1.015625,457
458,1696248178324,-0.70996094,-0.06719971,0.80096436,-1.15625,-2.078125,-0.625,458
459,1696248178364,-0.6879883,-0.050109863,0.79315186,1.171875,-1.40625,-0.890625,459
460,1696248178404,-0.67944336,-0.06964111,0.7575073,1.15625,-2.375,-0.125,460
461,1696248178444,-0.689209,-0.06500244,0.8119507,-0.03125,3.140625,-0.46875,461
462,1696248178484,-0.70043945,-0.06866455,0.83880615,0.484375,2.46875,0.015625,462
463,1696248178524,-0.6904297,-0.10699463,0.82977295,-2.046875,-0.609375,2.34375,463
464,1696248178564,-0.72265625,-0.105773926,0.885437,-1.859375,-0.3125,1.5625,464
465,1696248178604,-0.70410156,-0.039611816,0.8629761,-6.234375,-0.515625,-0.265625,465
466,1696248178644,-0.71484375,-0.065979004,0.8258667,-3.6875,-2.40625,2.421875,466
467,1696248178684,-0.71850586,-0.08087158,0.7399292,-3.796875,-1.4375,1.3125,467
468,1696248178724,-0.66430664,-0.006652832,0.70355225,-0.9375,0.375,-0.078125,468
469,1696248178764,-0.64697266,-0.03375244,0.74432373,3.578125,-2.546875,-1.703125,469
470,1696248178804,-0.6804199,-0.078186035,0.72528076,8.96875,-3.90625,0.9375,470
471,1696248178844,-0.7207031,-0.07965088,0.838562,7.59375,-3.390625,1.421875,471
472,1696248178884,-0.72509766,-0.094055176,0.8226929,1.234375,4.796875,-2.015625,472
473,1696248178924,-0.7038574,-0.053527832,0.88079834,0.0625,4.828125,-0.46875,473
474,1696248178964,-0.72875977,-0.10211182,0.88983154,-2.1875,-0.859375,-0.140625,474
475,1696248179004,-0.65649414,-0.12677002,0.8217163,-2.328125,3.1875,0.765625,475
476,1696248179044,-0.7128906,-0.109680176,0.84173584,-3.265625,-2.765625,0.875,476
477,1696248179084,-0.6906738,-0.054992676,0.83026123,-6.40625,-2.703125,-1.234375,477
478,1696248179124,-0.7145996,-0.07574463,0.76116943,-4.875,-1.421875,2.34375,478
479,1696248179164,-0.70532227,-0.05255127,0.72772217,-4.8125,-0.484375,0.71875,479
480,1696248179204,-0.6801758,0.003112793,0.7567749,1.765625,-1.65625,-0.4375,480
481,1696248179244,-0.66967773,0.0045776367,0.78778076,5.625,-2.53125,-1.171875,481
482,1696248179284,-0.7385254,-0.07623291,0.7716675,11.375,-5.21875,0.921875,482
483,1696248179324,-0.7294922,-0.12335205,0.76434326,6.328125,0.96875,0.5,483
484,1696248179364,-0.5830078,-0.085754395,0.8776245,0.796875,10.15625,-5.4375,484
485,1696248179404,-0.7434082,-0.07672119,0.8710327,1.5625,-1.265625,1.578125,485
486,1696248179444,-0.66552734,-0.04840088,0.7885132,-2.65625,1.125,-0.109375,486
487,1696248179484,-0.7182617,-0.06939697,0.80218506,-2.25,4.53125,0.3125,487
488,1696248179524,-0.65527344,-0.08526611,0.8578491,-3.546875,1.765625,-2.3125,488
489,1696248179564,-0.7573242,-0.101867676,0.8607788,-7.828125,-0.984375,-0.796875,489
490,1696248179604,-0.5854492,-0.043518066,0.74554443,-1.984375,4.1875,0.09375,490
491,1696248179644,-0.7421875,-0.0335083,0.82366943,-0.5,4.21875,1.421875,491
492,1696248179684,-0.6394043,-0.06085205,0.78778076,0.609375,2.90625,-1.078125,492
493,1696248179724,-0.72631836,-0.10064697,0.91082764,0.390625,0.84375,1.4375,493
494,1696248179764,-0.59936523,-0.011047363,0.69818115,-0.703125,1.0625,-2.25,494
495,1696248179804,-0.75,-0.06451416,0.9515991,1.375,2.46875,2.609375,495
496,1696248179844,-0.63549805,-0.09039307,0.7711792,-0.171875,-0.078125,-0.859375,496
497,1696248179884,-0.66748047,-0.042297363,0.8209839,-0.96875,1.953125,0.875,497
498,1696248179924,-0.6359863,-0.04522705,0.86151123,0.046875,-2.171875,-0.859375,498
499,1696248179964,-0.68774414,-0.05279541,0.8151245,-0.09375,-1.4375,0.90625,499
500,1696248180004,-0.6635742,-0.09063721,0.82440186,0.375,-3.078125,0.390625,571
501,1696248180044,-0.68481445,-0.09844971,0.8473511,-1.921875,-4.734375,0.625,572
502,1696248180084,-0.6743164,-0.10089111,0.82147217,-4.34375,-5.0625,-0.53125,573
503,1696248180124,-0.6999512,-0.053771973,0.8300171,-2.875,-5.453125,0.078125,574
504,1696248180164,-0.71850586,-0.07891846,0.8139038,-1.25,-2.59375,0.625,575
505,1696248180204,-0.61206055,-0.049621582,0.7863159,1.890625,-1.1875,-0.390625,576
506,1696248180244,-0.67407227,-0.08868408,0.7538452,3.6875,-0.703125,-0.109375,577
507,1696248180284,-0.6894531,-0.086242676,0.774353,7.359375,1.421875,1.484375,578
508,1696248180324,-0.66015625,-0.117248535,0.82684326,1.28125,3.203125,-1.28125,579
509,1696248180364,-0.70751953,-0.055725098,0.8644409,0.25,5.578125,-0.234375,580
510,1696248180404,-0.7055664,-0.109680176,0.90448,0.75,0.421875,0.078125,581
511,1696248180444,-0.66552734,-0.10406494,0.83514404,-3.4375,-1.125,0.734375,582
512,1696248180484,-0.6789551,-0.07159424,0.8119507,-1.03125,-1.921875,0.21875,583
513,1696248180524,-0.6616211,-0.09259033,0.83465576,-0.015625,-0.921875,-0.5,584
514,1696248180564,-0.66259766,-0.085998535,0.8109741,0.546875,-1.203125,0.375,585
515,1696248180604,-0.6738281,-0.08648682,0.81170654,0.375,-2.484375,0.1875,586
516,1696248180644,-0.6845703,-0.09869385,0.8331909,0.59375,-1.234375,1.0625,587
517,1696248180684,-0.6972656,-0.10040283,0.8253784,-1.21875,-0.6875,1.25,588
518,1696248180724,-0.70288086,-0.090148926,0.85687256,-3.359375,-0.21875,0.828125,589
519,1696248180764,-0.68408203,-0.101135254,0.85272217,-2.734375,-1.5,0.296875,590
520,1696248180804,-0.7272949,-0.0869751,0.85443115,-1.875,-2.765625,0.53125,591
521,1696248180844,-0.6594238,-0.086242676,0.7338257,-0.84375,-1.75,-0.984375,592
522,1696248180884,-0.6154785,-0.012756348,0.7711792,1.234375,0.984375,-0.96875,593
523,1696248180924,-0.68115234,-0.07696533,0.74823,5.640625,-1.578125,0.546875,594
524,1696248180964,-0.6633301,-0.08648682,0.7741089,5.65625,0.125,1.328125,595
525,1696248181004,-0.6464844,-0.10723877,0.8554077,-0.890625,6.1875,-2.453125,596
526,1696248181044,-0.73999023,-0.105773926,0.89886475,0.671875,0.6875,0.640625,597
527,1696248181084,-0.6621094,-0.0803833,0.8444214,-1.375,0.046875,1.15625,598
528,1696248181124,-0.69384766,-0.11090088,0.8336792,-0.46875,-1.8125,0.234375,599
529,1696248181164,-0.6542969,-0.07745361,0.8036499,-0.453125,-0.8125,-0.484375,600
530,1696248181204,-0.67333984,-0.0869751,0.8265991,0.453125,-2.421875,-0.296875,601
531,1696248181244,-0.64282227,-0.09259033,0.8007202,-0.578125,-0.609375,-0.03125,602
532,1696248181284,-0.64819336,-0.08428955,0.8121948,-1.03125,1.375,0.96875,603
533,1696248181324,-0.7175293,-0.11016846,0.82489014,-0.421875,-1.21875,2.578125,604
534,1696248181364,-0.704834,-0.13336182,0.89178467,-2.765625,-0.21875,0.15625,605
535,1696248181404,-0.7294922,-0.08355713,0.8571167,-4.234375,-3.03125,-1.046875,606
536,1696248181444,-0.68359375,-0.05206299,0.7843628,-1.875,-0.1875,0.28125,607
537,1696248181484,-0.6191406,-0.013244629,0.7741089,1.40625,-0.453125,-0.125,608
538,1696248181524,-0.6777344,-0.11090088,0.7785034,1.890625,-1.21875,-0.4375,609
539,1696248181564,-0.6608887,-0.09136963,0.80340576,2.296875,-1.71875,0.4375,610
540,1696248181604,-0.65527344,-0.089416504,0.83709717,-0.03125,-0.671875,0.109375,611
541,1696248181644,-0.72216797,-0.12677002,0.84539795,0.75,-0.921875,2.875,612
542,1696248181684,-0.70947266,-0.09307861,0.8473511,-3.140625,-0.75,0.109375,613
543,1696248181724,-0.67089844,-0.026428223,0.7868042,-1.078125,0.375,-0.59375,614
544,1696248181764,-0.67700195,-0.06109619,0.8053589,2.5,-2.28125,0.71875,615
545,1696248181804,-0.66503906,-0.12432861,0.75457764,2.25,-0.546875,0.1875,616
546,1696248181844,-0.63964844,-0.10235596,0.82244873,1.96875,1.5,-0.765625,617
547,1696248181884,-0.68310547,-0.07086182,0.7748413,1.765625,2.015625,0.5625,618
548,1696248181924,-0.6713867,-0.081848145,0.8583374,2.65625,1.484375,1.40625,619
549,1696248181964,-0.6977539,-0.117004395,0.85491943,0.65625,1.234375,0.65625,620
550,1696248182004,-0.70532227,-0.081848145,0.836853,0.265625,1.765625,0.921875,621
551,1696248182044,-0.67700195,-0.07281494,0.83709717,-2.53125,5.109375,-1.59375,622
552,1696248182084,-0.6633301,-0.10723877,0.8764038,0.34375,2.3125,0.359375,623
553,1696248182124,-0.64331055,-0.1116333,0.84539795,-2.171875,-1.59375,0.515625,624
554,1696248182164,-0.6501465,-0.09625244,0.7953491,0.34375,-2.28125,1.015625,625
555,1696248182204,-0.6286621,-0.07550049,0.7938843,0.21875,-0.25,-0.015625,626
556,1696248182244,-0.63623047,-0.06378174,0.8366089,-1.9375,3.078125,-0.703125,627
557,1696248182284,-0.7019043,-0.077697754,0.8690796,-0.828125,0.421875,1.671875,628
558,1696248182324,-0.69189453,-0.11260986,0.8410034,-0.03125,-0.90625,0.984375,629
559,1696248182364,-0.67333984,-0.11602783,0.8703003,-0.0625,-0.796875,-0.015625,630
560,1696248182404,-0.6616211,-0.09869385,0.82855225,-0.875,-0.875,0.671875,631
561,1696248182444,-0.65771484,-0.089660645,0.8209839,-0.765625,-2.109375,0.984375,632
562,1696248182484,-0.6633301,-0.093322754,0.88031006,-2.140625,-5.90625,0.96875,633
563,1696248182524,-0.6875,-0.085998535,0.8341675,-4.1875,-6.375,-0.125,634
564,1696248182564,-0.76538086,-0.10308838,0.83099365,-2.09375,-4.25,-0.703125,635
565,1696248182604,-0.6608887,-0.08673096,0.8383179,-3.203125,0.1875,-2.046875,636
566,1696248182644,-0.62402344,-0.05645752,0.7987671,-0.96875,-3.28125,-1.953125,637
567,1696248182684,-0.66796875,-0.06329346,0.8222046,0.453125,-5.65625,-1.25,638
568,1696248182724,-0.6491699,-0.050598145,0.7567749,0.625,-1.109375,0.609375,639
569,1696248182764,-0.6875,-0.051330566,0.7706909,1.6875,-1.15625,1.890625,640
570,1696248182804,-0.6965332,-0.039855957,0.7572632,2.9375,2.75,1.734375,641
571,1696248182844,-0.6245117,-0.08062744,0.8378296,1.703125,5.625,-1.15625,642
572,1696248182884,-0.704834,-0.10064697,0.8649292,2.34375,1.375,0.625,643
573,1696248182924,-0.7089844,-0.11920166,0.8036499,0.265625,2.84375,-0.046875,644
574,1696248182964,-0.6567383,-0.055480957,0.8546753,-2.84375,7.265625,-0.96875,645
575,1696248183004,-0.66796875,-0.07647705,0.901062,1.234375,0.578125,-0.25,646
576,1696248183044,-0.67456055,-0.108947754,0.7741089,0.671875,0.859375,1.9375,647
577,1696248183084,-0.63305664,-0.07281494,0.8197632,-1.125,3.140625,-0.46875,648
578,1696248183124,-0.6447754,-0.08770752,0.8851929,1.0625,2.5625,0.296875,649
579,1696248183164,-0.6972656,-0.13140869,0.8463745,-2.125,-4.078125,0.765625,650
580,1696248183204,-0.6262207,-0.07672119,0.8036499,0.421875,3.171875,0.21875,651
581,1696248183244,-0.6657715,-0.077941895,0.8109741,-1.921875,5.5,0.65625,652
582,1696248183284,-0.6875,-0.12261963,0.92767334,-0.34375,-1.5625,0.0625,653
583,1696248183324,-0.5385742,-0.08282471,0.7670288,-0.75,0.609375,-0.875,654
584,1696248183364,-0.70703125,-0.061584473,0.9315796,-1.609375,0.203125,1.265625,655
585,1696248183404,-0.60913086,-0.09039307,0.83270264,0.4375,2.890625,-1.203125,656
586,1696248183444,-0.6940918,-0.06304932,0.9022827,-1.375,-4.671875,1.03125,657
587,1696248183484,-0.64038086,-0.08868408,0.8473511,0.6875,-0.703125,0.640625,658
588,1696248183524,-0.6970215,-0.09844971,0.9003296,-0.140625,0.71875,0.703125,659
589,1696248183564,-0.5949707,-0.065979004,0.82366943,-0.671875,-0.546875,-1.53125,660
590,1696248183604,-0.7167969,-0.08770752,0.8722534,0.203125,-1.140625,1.34375,661
591,1696248183644,-0.576416,-0.07574463,0.8131714,0.453125,0.875,-0.625,662
592,1696248183684,-0.6633301,-0.08917236,0.8275757,1.453125,0.890625,-0.125,663
593,1696248183724,-0.65527344,-0.074279785,0.87542725,-0.765625,-1.296875,-0.203125,664
594,1696248183764,-0.6699219,-0.0869751,0.8612671,-1.671875,-2.765625,1.453125,665
595,1696248183804,-0.6894531,-0.07867432,0.84295654,-1.6875,-4.265625,-0.0625,666
596,1696248183844,-0.6333008,-0.08331299,0.8317261,-1.625,-0.296875,0.171875,667
597,1696248183884,-0.6328125,-0.054748535,0.83465576,-0.96875,-1.375,-0.828125,668
598,1696248183924,-0.6491699,-0.07086182,0.83758545,-0.875,-1.875,-0.25,669
599,1696248183964,-0.6899414,-0.0725708,0.8475952,-1.0625,-2.765625,0.09375,670
600,1696248184004,-0.66308594,-0.082092285,0.8703003,-1.6875,-2.578125,0.921875,671
601,1696248184044,-0.67749023,-0.06304932,0.836853,-2.265625,-2.703125,2.046875,672
602,1696248184084,-0.67089844,-0.06329346,0.7860718,0.734375,-1.53125,1.125,673
603,1696248184124,-0.63720703,-0.08062744,0.8226929,1.296875,-2.359375,0.03125,674
604,1696248184164,-0.6635742,-0.078186035,0.8290405,1.875,-1.484375,-0.015625,675
605,1696248184204,-0.6621094,-0.06890869,0.80633545,2.671875,-0.03125,-0.09375,676
606,1696248184244,-0.6706543,-0.057922363,0.8048706,3.21875,0.15625,0.375,677
607,1696248184284,-0.67626953,-0.089904785,0.8156128,2.15625,1.015625,1.453125,678
608,1696248184324,-0.5966797,-0.074035645,0.8654175,-1.953125,3.78125,-1.359375,679
609,1696248184364,-0.7373047,-0.07598877,0.83392334,-0.484375,-1.796875,1.203125,680
610,1696248184404,-0.6672363,-0.10357666,0.8588257,0.515625,0.640625,0.1875,681
611,1696248184444,-0.70532227,-0.089416504,0.79119873,-1.03125,1.734375,0.234375,682
612,1696248184484,-0.58496094,-0.061584473,0.83807373,-0.4375,2.921875,-0.3125,683
613,1696248184524,-0.7297363,-0.089660645,0.8578491,-1.8125,-4.046875,1.640625,684
614,1696248184564,-0.61450195,-0.105285645,0.8410034,0.640625,1.140625,-0.578125,685
615,1696248184604,-0.72509766,-0.07354736,0.86883545,-0.9375,-1.5625,-0.234375,686
616,1696248184644,-0.5998535,-0.06573486,0.84002686,-0.109375,-0.3125,-0.046875,687
617,1696248184684,-0.67578125,-0.074523926,0.8512573,-0.625,-1.390625,1.3125,688
618,1696248184724,-0.6513672,-0.10650635,0.8722534,-1.296875,-4.046875,-0.296875,689
619,1696248184764,-0.70214844,-0.07208252,0.7863159,-2.59375,-6.125,-0.59375,690
620,1696248184804,-0.6594238,-0.050109863,0.80804443,0.5625,-2.359375,-0.03125,691
621,1696248184844,-0.6928711,-0.08477783,0.8395386,-0.4375,-3.046875,0.40625,692
622,1696248184884,-0.640625,-0.07110596,0.8270874,-2.96875,-2.25,-0.046875,693
623,1696248184924,-0.6777344,-0.06500244,0.86102295,-2.53125,-5.0,1.625,694
624,1696248184964,-0.7163086,-0.074279785,0.83221436,-4.46875,-3.703125,0.171875,695
625,1696248185004,-0.7141113,-0.066711426,0.84490967,-2.6875,-1.75,0.984375,696
626,1696248185044,-0.70043945,-0.070617676,0.8353882,0.421875,-4.53125,0.875,697
627,1696248185084,-0.64086914,-0.06890869,0.75946045,-0.921875,-1.078125,-0.875,698
628,1696248185124,-0.6520996,-0.030578613,0.7909546,1.515625,-0.09375,0.265625,699
629,1696248185164,-0.67944336,-0.05645752,0.76068115,4.828125,-1.703125,0.78125,700
630,1696248185204,-0.70581055,-0.06378174,0.8082886,2.796875,-1.453125,-0.03125,701
631,1696248185244,-0.7019043,-0.08087158,0.8312378,3.1875,-0.453125,0.96875,702
632,1696248185284,-0.69384766,-0.085998535,0.8612671,-0.71875,1.265625,0.671875,703
633,1696248185324,-0.7312012,-0.11529541,0.82855225,-0.84375,-2.453125,1.328125,704
634,1696248185364,-0.69750977,-0.101623535,0.83636475,-5.40625,1.4375,-1.109375,705
635,1696248185404,-0.70581055,-0.06402588,0.8678589,-3.21875,-0.421875,-1.703125,706
636,1696248185444,-0.7019043,-0.061584473,0.774353,-1.21875,-3.21875,-0.875,707
637,1696248185484,-0.66137695,-0.014953613,0.7601929,0.3125,-2.78125,-0.421875,708
638,1696248185524,-0.6140137,-0.017150879,0.7411499,2.921875,-2.09375,0.515625,709
639,1696248185564,-0.6923828,-0.08258057,0.72039795,6.671875,-0.5,0.765625,811
640,1696248185604,-0.67529297,-0.005432129,0.8463745,5.1875,1.953125,-0.578125,812
641,1696248185644,-0.685791,-0.059387207,0.78118896,-1.25,-0.109375,-1.546875,813
642,1696248185684,-0.65527344,-0.0960083,0.90008545,-1.484375,4.71875,-2.15625,814
643,1696248185724,-0.75341797,-0.16363525,0.81658936,-1.671875,0.0,-0.015625,815
644,1696248185764,-0.6870117,-0.015930176,0.7753296,-0.828125,3.984375,-2.40625,816
645,1696248185804,-0.7128906,-0.02154541,0.79608154,1.5625,6.203125,1.328125,817
646,1696248185844,-0.64990234,-0.10699463,0.8764038,0.6875,1.390625,0.921875,818
647,1696248185884,-0.6713867,-0.02178955,0.7284546,-2.390625,-1.1875,-0.828125,819
648,1696248185924,-0.6616211,-0.0134887695,0.8788452,1.34375,2.3125,0.546875,820
649,1696248185964,-0.6760254,-0.0791626,0.84710693,2.421875,1.328125,-0.6875,821
650,1696248186004,-0.7207031,-0.117492676,0.9003296,-1.28125,-0.828125,0.90625,822
651,1696248186044,-0.62890625,-0.026672363,0.8168335,-0.203125,1.125,0.296875,823
652,1696248186084,-0.69140625,-0.055725098,0.8121948,0.234375,4.015625,0.6875,824
653,1696248186124,-0.67944336,-0.081604004,0.8998413,-0.71875,-2.171875,-0.328125,825
654,1696248186164,-0.6057129,-0.02178955,0.7213745,-1.171875,-0.203125,-0.078125,826
655,1696248186204,-0.68847656,-0.047912598,0.87176514,1.703125,-0.078125,1.359375,827
656,1696248186244,-0.6513672,-0.08111572,0.78240967,0.46875,1.359375,-0.921875,828
657,1696248186284,-0.68115234,-0.06744385,0.949646,-1.390625,-1.921875,0.78125,829
658,1696248186324,-0.63061523,-0.027160645,0.7694702,-0.21875,0.578125,-0.828125,830
659,1696248186364,-0.70458984,-0.073791504,0.86639404,-0.53125,1.390625,1.5,831
660,1696248186404,-0.6599121,-0.06427002,0.8114624,-0.09375,-0.703125,-0.78125,832
661,1696248186444,-0.6604004,-0.035705566,0.8192749,-0.640625,-1.390625,0.4375,833
662,1696248186484,-0.6550293,-0.0569458,0.84588623,0.859375,-1.75,-0.09375,834
663,1696248186524,-0.67456055,-0.08013916,0.8209839,-0.234375,-0.34375,0.359375,835
664,1696248186564,-0.6677246,-0.043273926,0.8361206,-0.03125,-1.765625,-1.265625,836
665,1696248186604,-0.6657715,-0.03302002,0.8329468,3.21875,-2.421875,2.21875,837
666,1696248186644,-0.67529297,-0.07208252,0.8258667,0.171875,-0.296875,0.4375,838
667,1696248186684,-0.7302246,-0.09527588,0.8336792,-1.359375,-1.515625,-0.25,839
668,1696248186724,-0.60302734,-0.03668213,0.8270874,0.59375,-0.5625,0.828125,840
669,1696248186764,-0.7277832,-0.0881958,0.822937,-1.640625,1.265625,-0.296875,841
670,1696248186804,-0.6364746,-0.055725098,0.8390503,-0.140625,-0.359375,0.09375,842
671,1696248186844,-0.66064453,-0.04058838,0.7965698,-0.09375,0.40625,0.5,843
672,1696248186884,-0.6743164,-0.06304932,0.871521,0.6875,0.078125,0.8125,844
673,1696248186924,-0.6730957,-0.10699463,0.83465576,-0.5625,1.546875,-1.375,845
674,1696248186964,-0.6875,-0.03643799,0.84368896,-2.171875,-2.265625,0.25,846
675,1696248187004,-0.63012695,-0.054016113,0.83270264,1.203125,0.015625,0.453125,847
676,1696248187044,-0.7192383,-0.08477783,0.822937,-0.25,-1.4375,0.328125,848
677,1696248187084,-0.64501953,-0.042785645,0.840271,-0.375,-1.359375,-1.265625,849
678,1696248187124,-0.6855469,-0.0647583,0.8590698,-1.6875,-4.953125,-0.765625,850
679,1696248187164,-0.6982422,-0.022766113,0.78460693,-1.09375,-5.96875,-2.140625,851
680,1696248187204,-0.6591797,-0.06085205,0.8151245,1.015625,-2.5,0.75,852
681,1696248187244,-0.6875,-0.059631348,0.8031616,0.421875,-2.828125,-0.28125,853
682,1696248187284,-0.6647949,-0.06793213,0.855896,1.1875,-0.96875,0.4375,854
683,1696248187324,-0.67700195,-0.037902832,0.80511475,-0.625,-1.203125,0.328125,855
684,1696248187364,-0.69555664,-0.043273926,0.8239136,-0.125,-1.4375,0.296875,856
685,1696248187404,-0.67333984,-0.057434082,0.8239136,-0.203125,-1.890625,0.234375,857
686,1696248187444,-0.6936035,-0.057922363,0.81243896,-0.671875,-1.71875,0.65625,858
687,1696248187484,-0.703125,-0.05621338,0.8373413,-0.3125,-1.3125,1.03125,859
688,1696248187524,-0.71875,-0.085510254,0.86761475,1.25,-1.421875,2.15625,860
689,1696248187564,-0.70092773,-0.06768799,0.74749756,-0.65625,-1.578125,3.1875,861
690,1696248187604,-0.689209,-0.021057129,0.7958374,1.671875,-2.296875,0.9375,862
691,1696248187644,-0.65356445,-0.04815674,0.7782593,0.328125,-0.171875,-1.203125,863
692,1696248187684,-0.67333984,-0.06549072,0.7868042,0.6875,-0.53125,-0.078125,864
693,1696248187724,-0.6982422,-0.042785645,0.8204956,1.75,-1.65625,0.859375,865
694,1696248187764,-0.7314453,-0.09698486,0.85491943,2.109375,-2.671875,0.828125,866
695,1696248187804,-0.6933594,-0.09649658,0.83636475,0.734375,-0.65625,0.515625,867
696,1696248187844,-0.6982422,-0.050354004,0.8324585,-2.109375,1.859375,0.8125,868
697,1696248187884,-0.67822266,-0.027404785,0.7694702,-1.296875,0.390625,0.34375,869
698,1696248187924,-0.701416,-0.054748535,0.7926636,2.140625,-2.796875,-1.015625,870
699,1696248187964,-0.65112305,-0.06524658,0.72088623,0.8125,-0.984375,-1.8125,871
700,1696248188004,-0.68188477,-0.07696533,0.75457764,3.0,2.484375,0.421875,872
701,1696248188044,-0.6845703,-0.050598145,0.8505249,0.359375,8.390625,0.375,873
702,1696248188084,-0.7163086,-0.08746338,0.86395264,1.8125,1.546875,1.1875,874
703,1696248188124,-0.6916504,-0.05621338,0.776062,-4.109375,5.984375,-0.46875,875
704,1696248188164,-0.69628906,-0.039611816,0.86932373,-1.3125,4.921875,1.0625,876
705,1696248188204,-0.6496582,-0.09185791,0.857605,-1.703125,1.15625,-1.90625,877
706,1696248188244,-0.66918945,-0.06915283,0.7826538,0.96875,-0.6875,0.09375,878
707,1696248188284,-0.65722656,-0.07354736,0.83343506,0.640625,0.53125,-0.40625,879
708,1696248188324,-0.6640625,-0.065979004,0.8222046,-0.03125,-1.28125,0.71875,880
709,1696248188364,-0.65966797,-0.055480957,0.8414917,0.046875,-2.40625,0.296875,881
710,1696248188404,-0.6904297,-0.06378174,0.85687256,-3.4375,-6.125,-0.125,882
711,1696248188444,-0.70703125,-0.06451416,0.8012085,1.609375,-5.359375,0.96875,883
712,1696248188484,-0.68896484,-0.07476807,0.77630615,-0.21875,-4.109375,0.53125,884
713,1696248188524,-0.6604004,-0.047668457,0.7941284,0.546875,-2.265625,-0.28125,885
714,1696248188564,-0.69799805,-0.089904785,0.8432007,2.828125,-3.1875,0.25,886
715,1696248188604,-0.69091797,-0.09283447,0.840271,-0.609375,-1.375,0.234375,887
716,1696248188644,-0.6882324,-0.047668457,0.7789917,-3.265625,1.578125,1.1875,888
717,1696248188684,-0.6879883,-0.034973145,0.78460693,2.515625,-2.640625,0.828125,889
718,1696248188724,-0.69873047,-0.08502197,0.8085327,-0.234375,-0.6875,-0.296875,890
719,1696248188764,-0.6789551,-0.06695557,0.79730225,-0.015625,-1.578125,-0.140625,891
720,1696248188804,-0.7145996,-0.07330322,0.855896,0.84375,-1.328125,0.390625,892
721,1696248188844,-0.70581055,-0.0947876,0.82611084,-0.046875,-0.921875,1.3125,893
722,1696248188884,-0.6748047,-0.07598877,0.8510132,-4.125,0.78125,0.34375,894
723,1696248188924,-0.70288086,-0.036193848,0.80218506,-5.921875,1.71875,1.015625,895
724,1696248188964,-0.70092773,-0.027893066,0.7814331,0.53125,-1.421875,1.21875,896
725,1696248189004,-0.6694336,-0.04937744,0.7628784,0.734375,-1.71875,0.078125,897
726,1696248189044,-0.67285156,-0.07476807,0.77093506,4.375,-2.34375,0.328125,898
727,1696248189084,-0.7182617,-0.09136963,0.85565186,4.875,0.125,0.671875,899
728,1696248189124,-0.70947266,-0.06768799,0.8395386,-0.953125,6.6875,-1.03125,900
729,1696248189164,-0.7233887,-0.11627197,0.87908936,-1.484375,-2.640625,2.375,901
730,1696248189204,-0.71972656,-0.07208252,0.7665405,-3.671875,-0.359375,-0.140625,902
731,1696248189244,-0.6982422,-0.0071411133,0.81658936,-0.6875,0.65625,-0.953125,903
732,1696248189284,-0.6594238,-0.05328369,0.74993896,1.84375,-1.09375,-0.53125,904
733,1696248189324,-0.657959,-0.108947754,0.82366943,-0.09375,2.40625,-1.0,905
734,1696248189364,-0.7163086,-0.07720947,0.9303589,0.609375,-0.109375,1.71875,906
735,1696248189404,-0.7116699,-0.13287354,0.78411865,-1.765625,-3.6875,1.265625,907
736,1696248189444,-0.69433594,-0.02178955,0.8168335,-3.453125,1.96875,-0.921875,908
737,1696248189484,-0.6669922,0.0099487305,0.7728882,1.125,-1.296875,0.640625,909
738,1696248189524,-0.6726074,-0.04937744,0.81829834,3.5625,-4.15625,-0.546875,910
739,1696248189564,-0.7348633,-0.12286377,0.83026123,1.484375,0.3125,1.0,911
740,1696248189604,-0.70092773,-0.09942627,0.79901123,-0.6875,-0.953125,1.390625,912
741,1696248189644,-0.70336914,-0.05206299,0.80926514,-0.0625,-1.40625,0.8125,913
742,1696248189684,-0.6977539,-0.0413208,0.7909546,-0.390625,1.734375,-1.015625,914
743,1696248189724,-0.703125,-0.07525635,0.89349365,0.421875,3.3125,0.390625,915
744,1696248189764,-0.7001953,-0.11993408,0.7723999,-1.59375,-4.921875,1.296875,916
745,1696248189804,-0.72387695,-0.028381348,0.8173218,-6.671875,3.078125,-2.125,917
746,1696248189844,-0.69873047,-0.020568848,0.82025146,-1.640625,-0.5,-0.734375,918
747,1696248189884,-0.63500977,-0.04815674,0.758728,1.625,-1.765625,-0.921875,919
748,1696248189924,-0.64697266,-0.07232666,0.8722534,6.46875,-2.15625,1.6875,920
749,1696248189964,-0.7038574,-0.124572754,0.8134155,-0.34375,-3.5,2.421875,921
750,1696248190004,-0.704834,-0.039123535,0.7584839,-3.25,-1.28125,0.203125,922
751,1696248190044,-0.7272949,-0.014221191,0.824646,1.359375,0.171875,0.21875,923
752,1696248190084,-0.7114258,-0.04083252,0.8241577,1.453125,-1.6875,-0.515625,924
753,1696248190124,-0.72558594,-0.12188721,0.8768921,-0.34375,-0.328125,1.171875,925
754,1696248190164,-0.7001953,-0.08526611,0.7785034,-3.921875,0.125,-0.25,926
755,1696248190204,-0.7109375,-0.047424316,0.79730225,-3.5,3.015625,-1.0,927
756,1696248190244,-0.6477051,-0.027648926,0.7645874,2.953125,-3.171875,0.296875,928
757,1696248190284,-0.6777344,-0.062805176,0.8204956,3.78125,-1.71875,1.1875,929
758,1696248190324,-0.6970215,-0.10235596,0.8378296,0.859375,-0.859375,1.625,930
759,1696248190364,-0.71533203,-0.07891846,0.7765503,1.328125,-1.984375,1.5,931
