,timestamp,accel_x,accel_y,accel_z,gyro_x,gyro_y,gyro_z,ind
0,1696245667358,-0.65356445,-0.093811035,-0.73272705,1.578125,-1.0,-0.34375,0
1,1696245667398,-0.66064453,-0.09991455,-0.7420044,1.8125,-1.5625,-0.171875,1
2,1696245667438,-0.6608887,-0.09063721,-0.7461548,1.671875,-1.40625,0.109375,2
3,1696245667478,-0.64575195,-0.08380127,-0.74468994,1.296875,-1.28125,0.0625,3
4,1696245667518,-0.638916,-0.08111572,-0.7407837,0.53125,-0.375,0.09375,4
5,1696245667558,-0.6489258,-0.08843994,-0.74176025,0.21875,-0.453125,-0.109375,5
6,1696245667598,-0.6479492,-0.086242676,-0.73028564,0.15625,0.0625,0.0625,6
7,1696245667638,-0.65234375,-0.08770752,-0.7415161,0.515625,-1.15625,-0.328125,7
8,1696245667678,-0.6574707,-0.08526611,-0.75006104,0.484375,-1.234375,-0.203125,8
9,1696245667718,-0.6586914,-0.0791626,-0.74346924,0.71875,-1.875,0.109375,9
10,1696245667758,-0.6574707,-0.08453369,-0.7546997,0.765625,-2.6875,0.203125,10
11,1696245667798,-0.64453125,-0.08404541,-0.74542236,0.921875,-2.5625,0.25,11
12,1696245667838,-0.6254883,-0.08453369,-0.73150635,1.375,-1.484375,-0.03125,12
13,1696245667878,-0.63916016,-0.077697754,-0.753479,0.34375,-0.734375,0.109375,13
14,1696245667918,-0.6364746,-0.077941895,-0.7493286,-0.78125,-0.140625,0.453125,14
15,1696245667958,-0.63793945,-0.08453369,-0.73809814,-1.0625,0.078125,0.4375,15
16,1696245667998,-0.6455078,-0.08355713,-0.74176025,-0.921875,0.078125,0.421875,16
17,1696245668038,-0.65112305,-0.08087158,-0.75177,-1.4375,0.5,0.375,17
18,1696245668078,-0.657959,-0.0869751,-0.75567627,-1.671875,0.578125,0.484375,18
19,1696245668118,-0.65844727,-0.08770752,-0.76568604,-2.1875,1.0625,0.5625,19
20,1696245668158,-0.64453125,-0.08428955,-0.71417236,-1.859375,1.59375,0.53125,20
21,1696245668198,-0.6452637,-0.09234619,-0.7527466,-2.609375,2.203125,0.4375,21
22,1696245668238,-0.6425781,-0.09625244,-0.7161255,-1.296875,1.21875,0.359375,22
23,1696245668278,-0.64501953,-0.09283447,-0.7349243,-0.359375,0.0,0.140625,23
24,1696245668318,-0.65356445,-0.08795166,-0.72979736,-0.3125,-0.015625,0.25,24
25,1696245668358,-0.65063477,-0.09063721,-0.7359009,-0.09375,-0.046875,0.015625,25
26,1696245668398,-0.6604004,-0.09820557,-0.74102783,-0.25,-0.09375,-0.015625,26
27,1696245668438,-0.65893555,-0.093566895,-0.7300415,1.203125,-1.4375,-0.140625,27
28,1696245668478,-0.6635742,-0.09527588,-0.74884033,0.5625,-0.90625,0.15625,28
29,1696245668518,-0.65234375,-0.0960083,-0.7197876,1.546875,-1.890625,0.0625,29
30,1696245668558,-0.6374512,-0.09136963,-0.72857666,1.96875,-2.171875,-0.0625,30
31,1696245668598,-0.64575195,-0.085998535,-0.7390747,2.125,-1.890625,-0.078125,31
32,1696245668638,-0.6455078,-0.085754395,-0.7371216,1.53125,-1.234375,-0.25,32
33,1696245668678,-0.65185547,-0.08648682,-0.7420044,0.671875,-0.296875,0.0625,33
34,1696245668718,-0.64941406,-0.0881958,-0.74420166,0.96875,-0.796875,-0.125,34
35,1696245668758,-0.65234375,-0.082336426,-0.7515259,0.25,-0.84375,0.0,35
36,1696245668798,-0.65966797,-0.08404541,-0.76348877,-0.078125,-1.25,-0.1875,36
37,1696245668838,-0.64575195,-0.0803833,-0.73223877,-0.125,-0.390625,0.171875,37
38,1696245668878,-0.65063477,-0.082092285,-0.74102783,1.28125,-2.234375,-0.125,38
39,1696245668918,-0.64282227,-0.07647705,-0.74713135,1.0625,-3.125,0.234375,39
40,1696245668958,-0.6333008,-0.07598877,-0.7424927,1.015625,-2.28125,0.40625,40
41,1696245668998,-0.63183594,-0.0725708,-0.74176025,2.234375,-1.6875,0.03125,41
42,1696245669038,-0.65185547,-0.07525635,-0.76934814,1.1875,-1.3125,0.1875,42
43,1696245669078,-0.6459961,-0.07550049,-0.7625122,-0.234375,-1.140625,0.46875,43
44,1696245669118,-0.63964844,-0.07330322,-0.75860596,-1.765625,-0.140625,0.671875,44
45,1696245669158,-0.63305664,-0.077697754,-0.7461548,-1.515625,-0.046875,0.53125,45
46,1696245669198,-0.63916016,-0.07891846,-0.75128174,-1.296875,0.25,0.328125,46
47,1696245669238,-0.64331055,-0.0725708,-0.7576294,-1.1875,0.203125,0.21875,47
48,1696245669278,-0.6411133,-0.08453369,-0.753479,-2.015625,0.8125,0.546875,48
49,1696245669318,-0.63720703,-0.086242676,-0.75616455,-1.734375,0.625,0.515625,49
50,1696245669358,-0.63793945,-0.09283447,-0.74420166,-1.78125,0.78125,0.453125,50
51,1696245669398,-0.63183594,-0.08795166,-0.7720337,-1.015625,0.578125,0.15625,51
52,1696245669438,-0.6442871,-0.0791626,-0.7605591,-1.21875,1.265625,-0.125,52
53,1696245669478,-0.6442871,-0.090148926,-0.7398071,-2.375,2.921875,-0.015625,53
54,1696245669518,-0.64624023,-0.09429932,-0.73394775,-1.296875,1.515625,0.171875,54
55,1696245669558,-0.65063477,-0.09820557,-0.73638916,-1.015625,0.984375,0.234375,55
56,1696245669598,-0.65356445,-0.0960083,-0.73809814,-0.71875,0.40625,0.28125,56
57,1696245669638,-0.65063477,-0.09649658,-0.7366333,-0.21875,-0.125,0.015625,57
58,1696245669678,-0.6623535,-0.10308838,-0.7451782,-0.015625,-0.609375,0.078125,58
59,1696245669718,-0.65356445,-0.09234619,-0.7473755,0.671875,-1.59375,-0.03125,59
60,1696245669758,-0.6533203,-0.09234619,-0.7415161,1.0625,-1.265625,-0.046875,60
61,1696245669798,-0.6437988,-0.09844971,-0.72735596,1.296875,-1.4375,0.03125,61
62,1696245669838,-0.6513672,-0.09234619,-0.74664307,1.890625,-1.75,-0.015625,62
63,1696245669878,-0.6491699,-0.08892822,-0.7456665,1.765625,-1.203125,-0.015625,63
64,1696245669918,-0.6464844,-0.08306885,-0.73760986,1.640625,-0.84375,-0.0625,64
65,1696245669958,-0.6477051,-0.0803833,-0.7439575,1.328125,-0.453125,-0.15625,65
66,1696245669998,-0.64501953,-0.08331299,-0.73883057,0.546875,0.046875,0.0625,66
67,1696245670038,-0.65112305,-0.081848145,-0.7476196,0.71875,-0.4375,-0.203125,67
68,1696245670078,-0.6574707,-0.08282471,-0.7505493,0.21875,0.234375,-0.015625,68
69,1696245670118,-0.65478516,-0.077941895,-0.7476196,0.65625,-0.671875,0.09375,69
70,1696245670158,-0.64941406,-0.085510254,-0.7337036,0.390625,-0.015625,-0.09375,70
71,1696245670198,-0.6484375,-0.08258057,-0.7493286,0.71875,-1.078125,-0.140625,71
72,1696245670238,-0.64941406,-0.07965088,-0.7319946,0.984375,-1.65625,-0.109375,72
73,1696245670278,-0.6472168,-0.077697754,-0.74664307,1.90625,-3.59375,0.03125,73
74,1696245670318,-0.63183594,-0.08087158,-0.739563,1.9375,-2.59375,0.078125,74
75,1696245670358,-0.6352539,-0.07232666,-0.75079346,1.6875,-2.109375,0.078125,75
76,1696245670398,-0.6347656,-0.0725708,-0.7617798,1.015625,-2.203125,0.15625,76
77,1696245670438,-0.6398926,-0.06939697,-0.7595825,-0.609375,-0.40625,0.390625,77
78,1696245670478,-0.6394043,-0.07330322,-0.74420166,-0.5625,-0.296875,0.421875,78
79,1696245670518,-0.64086914,-0.06402588,-0.7588501,-0.859375,-0.265625,0.390625,79
80,1696245670558,-0.6381836,-0.069885254,-0.75372314,-1.1875,-0.265625,0.421875,80
81,1696245670598,-0.63964844,-0.07696533,-0.7529907,-1.359375,-0.03125,0.421875,81
82,1696245670638,-0.6374512,-0.07720947,-0.7559204,-1.375,0.234375,0.34375,82
83,1696245670678,-0.63964844,-0.08258057,-0.7542114,-2.3125,0.8125,0.640625,83
84,1696245670718,-0.638916,-0.085754395,-0.74468994,-2.03125,1.21875,0.453125,84
85,1696245670758,-0.63305664,-0.09063721,-0.7173462,-1.875,1.515625,0.546875,85
86,1696245670798,-0.6459961,-0.08258057,-0.75372314,-1.65625,0.9375,0.421875,86
87,1696245670838,-0.64331055,-0.094055176,-0.7461548,-1.234375,1.03125,-0.046875,87
88,1696245670878,-0.64990234,-0.085510254,-0.7415161,-0.234375,0.265625,-0.1875,88
89,1696245670918,-0.6503906,-0.085510254,-0.73760986,0.046875,-0.359375,0.0,89
90,1696245670958,-0.6447754,-0.085754395,-0.73028564,0.40625,-0.359375,0.078125,90
91,1696245670998,-0.63916016,-0.08526611,-0.7349243,2.109375,-1.875,-0.234375,91
92,1696245671038,-0.65405273,-0.086242676,-0.75250244,2.4375,-2.25,-0.203125,92
93,1696245671078,-0.64746094,-0.07867432,-0.7505493,1.328125,-0.75,0.09375,93
94,1696245671118,-0.6425781,-0.078186035,-0.7329712,2.109375,-1.203125,-0.09375,94
95,1696245671158,-0.6425781,-0.08087158,-0.7605591,2.09375,-1.296875,-0.171875,95
96,1696245671198,-0.6286621,-0.07354736,-0.7420044,0.984375,-0.34375,-0.109375,96
97,1696245671238,-0.6286621,-0.07232666,-0.74005127,1.234375,-0.515625,-0.390625,97
98,1696245671278,-0.6452637,-0.07525635,-0.756897,0.203125,-0.296875,0.1875,98
99,1696245671318,-0.6442871,-0.07281494,-0.7608032,-0.765625,-0.03125,0.203125,99
100,1696245671358,-0.6435547,-0.07745361,-0.75201416,-0.828125,-0.328125,0.171875,100
101,1696245671398,-0.6472168,-0.0725708,-0.7546997,-0.453125,-0.40625,0.25,101
102,1696245671438,-0.6489258,-0.074279785,-0.7559204,-0.109375,-0.9375,-0.078125,102
103,1696245671478,-0.64697266,-0.06890869,-0.75909424,-0.234375,-1.15625,-0.203125,103
104,1696245671518,-0.64624023,-0.07672119,-0.7515259,-0.984375,-0.5625,0.21875,104
105,1696245671558,-0.6340332,-0.07647705,-0.74102783,-0.71875,-0.765625,0.171875,105
106,1696245671598,-0.638916,-0.07867432,-0.7583618,-1.734375,-0.984375,0.234375,106
107,1696245671638,-0.64208984,-0.07696533,-0.7456665,-0.8125,-0.984375,0.171875,107
108,1696245671678,-0.64453125,-0.07989502,-0.7415161,1.25,-2.1875,-0.125,108
109,1696245671718,-0.6413574,-0.07720947,-0.76397705,2.5625,-2.203125,-0.140625,109
110,1696245671758,-0.6286621,-0.074523926,-0.76568604,2.15625,-2.21875,0.09375,110
111,1696245671798,-0.6303711,-0.078186035,-0.77227783,-0.546875,-0.6875,0.421875,111
112,1696245671838,-0.62597656,-0.06866455,-0.7390747,0.375,-0.078125,0.234375,112
113,1696245671878,-0.63842773,-0.073791504,-0.7437134,0.28125,0.078125,0.125,113
114,1696245671918,-0.642334,-0.06500244,-0.755188,0.15625,-0.171875,0.109375,114
115,1696245671958,-0.6430664,-0.069885254,-0.75982666,-0.28125,0.328125,0.28125,115
116,1696245671998,-0.64453125,-0.07525635,-0.76446533,-0.828125,0.1875,0.34375,116
117,1696245672038,-0.6357422,-0.08331299,-0.7600708,-1.015625,0.390625,0.375,117
118,1696245672078,-0.6333008,-0.08087158,-0.7527466,-1.09375,0.53125,0.234375,118
119,1696245672118,-0.626709,-0.07330322,-0.74884033,-1.28125,1.3125,0.234375,119
120,1696245672158,-0.6311035,-0.078430176,-0.7341919,-1.03125,0.359375,0.53125,120
121,1696245672198,-0.64208984,-0.0791626,-0.76153564,-3.640625,2.21875,0.65625,121
122,1696245672238,-0.64160156,-0.086242676,-0.74005127,-1.25,1.109375,0.03125,122
123,1696245672278,-0.6496582,-0.08795166,-0.7546997,-1.109375,1.3125,0.015625,123
124,1696245672318,-0.65112305,-0.07720947,-0.7337036,-0.84375,1.15625,0.015625,124
125,1696245672358,-0.65112305,-0.085754395,-0.741272,-0.3125,0.15625,-0.015625,125
126,1696245672398,-0.6538086,-0.08453369,-0.737854,-0.1875,0.046875,-0.015625,126
127,1696245672438,-0.6550293,-0.086242676,-0.74176025,0.3125,-0.171875,0.09375,127
128,1696245672478,-0.6555176,-0.08404541,-0.73931885,0.0625,-0.09375,0.046875,128
129,1696245672518,-0.6459961,-0.08355713,-0.7227173,0.921875,-0.59375,0.046875,129
130,1696245672558,-0.64868164,-0.08453369,-0.7468872,1.046875,-0.84375,0.28125,130
131,1696245672598,-0.6496582,-0.085510254,-0.7390747,0.953125,-1.046875,0.078125,131
132,1696245672638,-0.6459961,-0.07745361,-0.74468994,0.765625,-0.40625,-0.171875,132
133,1696245672678,-0.6459961,-0.08258057,-0.7371216,0.6875,-0.078125,0.09375,133
134,1696245672718,-0.6491699,-0.08111572,-0.74005127,0.703125,-0.171875,0.109375,134
135,1696245672758,-0.6455078,-0.07672119,-0.7300415,1.78125,-0.8125,-0.078125,135
136,1696245672798,-0.6555176,-0.070617676,-0.753479,1.984375,-1.359375,-0.296875,136
137,1696245672838,-0.6501465,-0.07867432,-0.74957275,1.53125,-1.078125,-0.234375,137
138,1696245672878,-0.64746094,-0.06378174,-0.74591064,1.015625,-0.640625,-0.0625,138
139,1696245672918,-0.6525879,-0.07159424,-0.74786377,0.65625,-1.046875,-0.078125,139
140,1696245672958,-0.6398926,-0.074035645,-0.7283325,-0.59375,-0.640625,0.3125,140
141,1696245672998,-0.65112305,-0.07183838,-0.7463989,-0.53125,-0.375,0.078125,141
142,1696245673038,-0.64086914,-0.07525635,-0.7288208,0.09375,-0.828125,-0.015625,142
143,1696245673078,-0.6455078,-0.06573486,-0.75665283,0.5625,-1.34375,-0.015625,143
144,1696245673118,-0.6459961,-0.07232666,-0.7398071,1.421875,-2.09375,0.03125,144
145,1696245673158,-0.6491699,-0.06768799,-0.7510376,1.625,-2.578125,0.03125,145
146,1696245673198,-0.6398926,-0.066467285,-0.753479,1.078125,-1.65625,0.0625,146
147,1696245673238,-0.6442871,-0.06011963,-0.75250244,-0.40625,-0.890625,0.3125,147
148,1696245673278,-0.6315918,-0.06329346,-0.7542114,-0.84375,-1.015625,0.546875,148
149,1696245673318,-0.64453125,-0.06695557,-0.7485962,-1.65625,-0.203125,0.578125,149
150,1696245673358,-0.6418457,-0.06719971,-0.7571411,-1.359375,-0.859375,0.46875,150
151,1696245673398,-0.64160156,-0.06890869,-0.7559204,-0.890625,-0.359375,0.40625,151
152,1696245673438,-0.63427734,-0.074523926,-0.75982666,-0.625,-0.5,0.34375,152
153,1696245673478,-0.638916,-0.07330322,-0.753479,-0.90625,0.078125,0.359375,153
154,1696245673518,-0.63378906,-0.07183838,-0.7481079,-0.875,0.5,0.5,154
155,1696245673558,-0.6369629,-0.06719971,-0.7505493,-0.78125,0.40625,0.3125,155
156,1696245673598,-0.6369629,-0.07550049,-0.7490845,-1.1875,0.890625,0.546875,156
157,1696245673638,-0.64331055,-0.0791626,-0.75079346,-1.515625,1.21875,0.625,157
158,1696245673678,-0.65063477,-0.07696533,-0.75665283,-2.703125,2.203125,0.53125,158
159,1696245673718,-0.6501465,-0.08453369,-0.75250244,-1.40625,0.59375,0.375,159
160,1696245673758,-0.6472168,-0.08795166,-0.7505493,-2.359375,1.78125,0.546875,160
161,1696245673798,-0.6459961,-0.08892822,-0.7300415,-0.625,0.34375,0.359375,161
162,1696245673838,-0.6459961,-0.08795166,-0.7295532,0.0625,-0.296875,0.125,162
163,1696245673878,-0.642334,-0.08721924,-0.73101807,0.15625,-0.078125,0.078125,163
164,1696245673918,-0.65844727,-0.07525635,-0.7481079,0.265625,0.0,-0.1875,164
165,1696245673958,-0.6567383,-0.07598877,-0.74591064,0.140625,0.171875,-0.03125,165
166,1696245673998,-0.6699219,-0.07672119,-0.75787354,0.40625,-0.125,0.015625,166
167,1696245674038,-0.654541,-0.08282471,-0.7415161,0.5625,-0.359375,0.0,167
168,1696245674078,-0.64990234,-0.085510254,-0.7319946,0.734375,-0.546875,0.125,168
169,1696245674118,-0.6508789,-0.08013916,-0.7390747,0.828125,-0.859375,-0.078125,169
170,1696245674158,-0.6501465,-0.077941895,-0.7324829,1.0,-0.875,0.015625,170
171,1696245674198,-0.64868164,-0.078186035,-0.7385864,0.53125,-0.34375,-0.015625,171
172,1696245674238,-0.6455078,-0.08013916,-0.7317505,0.78125,-0.375,-0.046875,172
173,1696245674278,-0.64990234,-0.07525635,-0.7424927,0.78125,-0.765625,-0.234375,173
174,1696245674318,-0.6628418,-0.07720947,-0.75665283,-0.5,-0.9375,0.15625,174
175,1696245674358,-0.65527344,-0.08404541,-0.7456665,-0.203125,-0.375,0.109375,175
176,1696245674398,-0.65283203,-0.074035645,-0.74176025,-0.296875,-0.609375,0.015625,176
177,1696245674438,-0.6513672,-0.07696533,-0.7407837,-0.171875,-0.9375,0.171875,177
178,1696245674478,-0.6467285,-0.0791626,-0.7398071,0.390625,-1.4375,0.171875,178
179,1696245674518,-0.6472168,-0.07623291,-0.73028564,1.28125,-2.703125,0.28125,179
180,1696245674558,-0.6425781,-0.07672119,-0.737854,2.046875,-2.703125,0.15625,180
181,1696245674598,-0.63964844,-0.077941895,-0.7337036,1.96875,-1.578125,-0.125,181
182,1696245674638,-0.6442871,-0.065979004,-0.77227783,0.9375,-1.6875,0.078125,182
183,1696245674678,-0.6477051,-0.0647583,-0.7581177,-0.375,-0.8125,0.34375,183
184,1696245674718,-0.63671875,-0.07305908,-0.7373657,-0.5625,0.015625,0.3125,184
185,1696245674758,-0.64941406,-0.069885254,-0.7539673,-0.5,-0.796875,0.1875,185
186,1696245674798,-0.6418457,-0.06573486,-0.75445557,-0.796875,-0.5625,0.453125,186
187,1696245674838,-0.638916,-0.06793213,-0.7407837,-0.875,-0.578125,0.484375,187
188,1696245674878,-0.63964844,-0.07965088,-0.75128174,-1.4375,0.0,0.640625,188
189,1696245674918,-0.6364746,-0.07501221,-0.7390747,-1.25,0.375,0.515625,189
190,1696245674958,-0.6335449,-0.07574463,-0.75079346,-1.140625,0.328125,0.359375,190
191,1696245674998,-0.64038086,-0.07574463,-0.7564087,-1.0625,0.375,0.296875,191
192,1696245675038,-0.64331055,-0.0791626,-0.7420044,-0.96875,0.46875,0.078125,192
193,1696245675078,-0.6503906,-0.08306885,-0.755188,-0.8125,0.46875,0.09375,193
194,1696245675118,-0.6459961,-0.07940674,-0.741272,-0.484375,0.328125,0.1875,194
195,1696245675158,-0.64160156,-0.08795166,-0.74884033,-0.75,0.0,0.1875,195
196,1696245675198,-0.6398926,-0.08282471,-0.73101807,-0.625,0.421875,0.25,196
197,1696245675238,-0.6430664,-0.08380127,-0.7383423,0.046875,0.078125,-0.109375,197
198,1696245675278,-0.6530762,-0.082092285,-0.75250244,-0.34375,-0.015625,0.125,198
199,1696245675318,-0.6538086,-0.077941895,-0.75250244,-0.125,-0.1875,0.03125,199
200,1696245675358,-0.6459961,-0.08673096,-0.7366333,0.0625,-0.15625,0.0,200
201,1696245675398,-0.64697266,-0.08282471,-0.74786377,1.109375,-1.046875,-0.03125,201
202,1696245675438,-0.6386719,-0.07696533,-0.7346802,1.859375,-1.390625,-0.078125,202
203,1696245675478,-0.6484375,-0.077697754,-0.74713135,1.09375,-1.359375,-0.015625,203
204,1696245675518,-0.6479492,-0.06793213,-0.75177,0.796875,-0.765625,0.078125,204
205,1696245675558,-0.6374512,-0.074523926,-0.74053955,1.046875,-0.453125,0.015625,205
206,1696245675598,-0.6459961,-0.07720947,-0.7715454,0.21875,-0.71875,-0.03125,206
207,1696245675638,-0.64819336,-0.07476807,-0.7427368,0.28125,-0.34375,-0.171875,207
208,1696245675678,-0.6472168,-0.07672119,-0.739563,0.65625,-1.15625,-0.109375,208
209,1696245675718,-0.6418457,-0.07183838,-0.7527466,-0.203125,-0.78125,-0.078125,209
210,1696245675758,-0.64746094,-0.07086182,-0.75787354,-0.578125,-1.28125,0.09375,210
211,1696245675798,-0.6435547,-0.06793213,-0.7449341,0.140625,-1.484375,0.09375,211
212,1696245675838,-0.6477051,-0.07110596,-0.7432251,1.0,-2.34375,-0.03125,212
213,1696245675878,-0.64086914,-0.06695557,-0.7612915,2.28125,-2.796875,0.125,213
214,1696245675918,-0.62841797,-0.066467285,-0.7476196,2.5625,-2.046875,-0.140625,214
215,1696245675958,-0.6298828,-0.06744385,-0.7593384,1.796875,-1.5625,0.109375,215
216,1696245675998,-0.62402344,-0.058166504,-0.75909424,-0.359375,-0.421875,0.265625,216
217,1696245676038,-0.63134766,-0.0647583,-0.7490845,-0.390625,-0.109375,0.375,217
218,1696245676078,-0.64624023,-0.06402588,-0.7737427,-1.484375,1.078125,0.40625,218
219,1696245676118,-0.64331055,-0.06890869,-0.7522583,-0.953125,0.234375,0.3125,219
220,1696245676158,-0.6442871,-0.06427002,-0.76519775,-1.09375,0.140625,0.359375,220
221,1696245676198,-0.6340332,-0.070129395,-0.7539673,-1.671875,0.390625,0.5,221
222,1696245676238,-0.638916,-0.07647705,-0.7444458,-1.671875,0.40625,0.28125,222
223,1696245676278,-0.63183594,-0.074523926,-0.7463989,-1.703125,1.015625,0.640625,223
224,1696245676318,-0.6340332,-0.07672119,-0.7588501,-1.40625,0.84375,0.40625,224
225,1696245676358,-0.6398926,-0.07989502,-0.75201416,-2.015625,2.3125,0.390625,225
226,1696245676398,-0.6413574,-0.07672119,-0.7463989,-1.46875,1.921875,0.296875,226
227,1696245676438,-0.64819336,-0.07110596,-0.7437134,-0.671875,1.15625,0.203125,227
228,1696245676478,-0.65405273,-0.07989502,-0.7468872,-0.0625,0.1875,0.140625,228
229,1696245676518,-0.6464844,-0.08453369,-0.74346924,-0.359375,0.375,0.15625,229
230,1696245676558,-0.64941406,-0.082092285,-0.74591064,-0.109375,0.28125,0.078125,230
231,1696245676598,-0.6430664,-0.078430176,-0.73687744,0.40625,-0.1875,0.046875,231
232,1696245676638,-0.654541,-0.073791504,-0.75372314,0.171875,-0.6875,0.078125,232
233,1696245676678,-0.64331055,-0.08087158,-0.73883057,0.53125,-0.140625,-0.078125,233
234,1696245676718,-0.65966797,-0.08087158,-0.75665283,0.515625,-0.3125,0.125,234
235,1696245676758,-0.6501465,-0.07476807,-0.74053955,0.15625,0.078125,0.328125,235
236,1696245676798,-0.65234375,-0.07281494,-0.74957275,0.65625,-0.953125,0.171875,236
237,1696245676838,-0.6464844,-0.07550049,-0.72979736,0.75,-0.34375,-0.046875,237
238,1696245676878,-0.6530762,-0.073791504,-0.75006104,1.3125,-0.90625,-0.296875,238
239,1696245676918,-0.6501465,-0.066711426,-0.73883057,0.734375,-0.546875,-0.078125,239
240,1696245676958,-0.65112305,-0.070617676,-0.73883057,0.328125,-0.90625,-0.03125,240
241,1696245676998,-0.6516113,-0.07696533,-0.7515259,-0.171875,-1.015625,0.140625,241
242,1696245677038,-0.64453125,-0.07232666,-0.74420166,-0.328125,-0.734375,0.296875,242
243,1696245677078,-0.6520996,-0.073791504,-0.7498169,-0.5625,-0.90625,0.140625,243
244,1696245677118,-0.6538086,-0.073791504,-0.7542114,-0.984375,-0.515625,0.203125,244
245,1696245677158,-0.6411133,-0.07086182,-0.74005127,0.140625,-0.875,0.015625,245
246,1696245677198,-0.6411133,-0.06768799,-0.7371216,1.0625,-1.9375,0.078125,246
247,1696245677238,-0.6467285,-0.06915283,-0.75079346,2.65625,-3.25,0.0,247
248,1696245677278,-0.63623047,-0.06939697,-0.7415161,2.53125,-1.984375,0.078125,248
249,1696245677318,-0.6262207,-0.0725708,-0.7571411,1.65625,-1.140625,-0.109375,249
250,1696245677358,-0.640625,-0.058410645,-0.7595825,0.046875,-0.53125,0.28125,250
251,1696245677398,-0.64331055,-0.06329346,-0.7546997,-0.609375,-0.234375,0.375,251
252,1696245677438,-0.6411133,-0.0647583,-0.74957275,-1.453125,-0.171875,0.390625,252
253,1696245677478,-0.63720703,-0.06402588,-0.75982666,-1.0625,-0.765625,0.421875,253
254,1696245677518,-0.6425781,-0.06768799,-0.7720337,-2.4375,0.390625,0.515625,254
255,1696245677558,-0.64208984,-0.078430176,-0.7427368,-2.125,0.703125,0.734375,255
256,1696245677598,-0.6352539,-0.077697754,-0.7341919,-1.140625,-0.140625,0.421875,256
257,1696245677638,-0.63964844,-0.074523926,-0.7503052,-1.203125,-0.078125,0.234375,257
258,1696245677678,-0.6352539,-0.08013916,-0.74468994,-1.546875,0.171875,0.484375,258
259,1696245677718,-0.6435547,-0.07940674,-0.75860596,-2.234375,0.671875,0.53125,259
260,1696245677758,-0.63671875,-0.09039307,-0.7449341,-2.671875,1.34375,0.546875,260
261,1696245677798,-0.6513672,-0.08795166,-0.7608032,-2.828125,2.15625,0.359375,261
262,1696245677838,-0.64453125,-0.08258057,-0.72857666,-1.578125,1.5625,0.25,262
263,1696245677878,-0.64624023,-0.101135254,-0.74298096,-0.484375,0.34375,0.0625,263
264,1696245677918,-0.6413574,-0.0869751,-0.7354126,-0.25,0.3125,0.078125,264
265,1696245677958,-0.64404297,-0.08795166,-0.73150635,0.015625,-0.0625,0.15625,265
266,1696245677998,-0.6430664,-0.08746338,-0.73809814,0.203125,-0.171875,-0.140625,266
267,1696245678038,-0.65063477,-0.082092285,-0.7437134,0.765625,-0.96875,-0.171875,267
268,1696245678078,-0.65234375,-0.081848145,-0.736145,0.9375,-1.15625,-0.109375,268
269,1696245678118,-0.64819336,-0.086242676,-0.74102783,1.4375,-1.65625,-0.15625,269
270,1696245678158,-0.6557617,-0.08306885,-0.74786377,1.265625,-1.765625,-0.0625,270
271,1696245678198,-0.6447754,-0.07965088,-0.74713135,0.71875,-0.625,0.0625,271
272,1696245678238,-0.65063477,-0.077941895,-0.7385864,0.75,0.171875,-0.046875,272
273,1696245678278,-0.6479492,-0.08258057,-0.73028564,0.546875,-0.265625,0.015625,273
274,1696245678318,-0.6508789,-0.081604004,-0.75250244,0.28125,-0.078125,-0.046875,274
275,1696245678358,-0.65283203,-0.07891846,-0.7234497,0.578125,-0.265625,-0.171875,275
276,1696245678398,-0.65063477,-0.06964111,-0.75372314,0.828125,-0.609375,-0.21875,276
277,1696245678438,-0.6459961,-0.07476807,-0.73150635,0.328125,-0.140625,-0.234375,277
278,1696245678478,-0.64819336,-0.07598877,-0.7444458,-0.046875,-0.828125,-0.078125,278
279,1696245678518,-0.6594238,-0.0725708,-0.74420166,-0.265625,-0.515625,0.15625,279
280,1696245678558,-0.6479492,-0.07672119,-0.7371216,-0.03125,-0.703125,0.0625,280
281,1696245678598,-0.6435547,-0.07330322,-0.74957275,0.296875,-1.359375,0.15625,281
282,1696245678638,-0.64746094,-0.07891846,-0.73809814,0.234375,-1.328125,0.109375,282
283,1696245678678,-0.64453125,-0.0725708,-0.75372314,1.46875,-2.046875,0.140625,283
284,1696245678718,-0.63671875,-0.07159424,-0.7324829,2.265625,-1.96875,0.046875,284
285,1696245678758,-0.64086914,-0.06842041,-0.73516846,1.96875,-2.25,0.203125,285
286,1696245678798,-0.64331055,-0.06866455,-0.76031494,-0.125,-1.046875,0.25,286
287,1696245678838,-0.6401367,-0.06939697,-0.7612915,-0.8125,-0.328125,0.359375,287
288,1696245678878,-0.64453125,-0.07183838,-0.74786377,-1.0,0.078125,0.375,288
289,1696245678918,-0.64624023,-0.07110596,-0.7612915,-0.875,-0.25,0.4375,289
290,1696245678958,-0.6455078,-0.07232666,-0.75909424,-1.09375,0.03125,0.375,290
291,1696245678998,-0.64404297,-0.07501221,-0.7444458,-1.625,0.890625,0.625,291
292,1696245679038,-0.6386719,-0.07720947,-0.7559204,-1.03125,0.234375,0.375,292
293,1696245679078,-0.6425781,-0.07574463,-0.75128174,-2.140625,1.421875,0.5625,293
294,1696245679118,-0.6413574,-0.08453369,-0.7398071,-2.078125,1.59375,0.40625,294
295,1696245679158,-0.6491699,-0.08355713,-0.73638916,-2.734375,2.0625,0.5,295
296,1696245679198,-0.6520996,-0.08428955,-0.74298096,-2.40625,1.640625,0.40625,296
297,1696245679238,-0.6503906,-0.089416504,-0.739563,-1.671875,1.4375,0.15625,297
298,1696245679278,-0.6557617,-0.093322754,-0.7383423,-0.53125,0.328125,0.078125,298
299,1696245679318,-0.65771484,-0.094055176,-0.7461548,0.015625,-0.734375,0.125,299
300,1696245679358,-0.6550293,-0.08746338,-0.73760986,0.4375,0.0,-0.09375,300
301,1696245679398,-0.66259766,-0.085998535,-0.7476196,1.546875,-1.625,-0.265625,301
302,1696245679438,-0.6550293,-0.08428955,-0.7354126,1.15625,-0.6875,0.0,302
303,1696245679478,-0.65600586,-0.08721924,-0.73272705,1.171875,-1.234375,0.109375,303
304,1696245679518,-0.65405273,-0.0791626,-0.7476196,0.40625,-0.90625,0.28125,304
305,1696245679558,-0.640625,-0.08917236,-0.7373657,-0.09375,-0.453125,0.3125,305
306,1696245679598,-0.6477051,-0.08477783,-0.72979736,0.984375,-0.4375,-0.359375,306
307,1696245679638,-0.6503906,-0.085754395,-0.7456665,0.921875,-0.296875,-0.328125,307
308,1696245679678,-0.6594238,-0.08087158,-0.7385864,0.640625,-0.1875,-0.234375,308
309,1696245679718,-0.6591797,-0.08502197,-0.74664307,1.03125,-0.578125,-0.109375,309
310,1696245679758,-0.66064453,-0.07525635,-0.7407837,0.59375,-0.140625,-0.140625,310
311,1696245679798,-0.6569824,-0.07720947,-0.7490845,0.703125,-0.390625,-0.171875,311
312,1696245679838,-0.6491699,-0.07159424,-0.736145,0.765625,-0.359375,-0.015625,312
313,1696245679878,-0.6491699,-0.074035645,-0.73272705,0.375,0.125,-0.09375,313
314,1696245679918,-0.65600586,-0.07696533,-0.74884033,0.46875,-0.65625,0.03125,314
315,1696245679958,-0.6508789,-0.07501221,-0.7300415,0.046875,-0.390625,0.09375,315
316,1696245679998,-0.6557617,-0.078186035,-0.75006104,0.484375,-0.78125,0.015625,316
317,1696245680038,-0.65722656,-0.07159424,-0.7427368,0.71875,-0.796875,0.1875,317
318,1696245680078,-0.6604004,-0.073791504,-0.7373657,1.859375,-1.953125,0.078125,318
319,1696245680118,-0.6538086,-0.06719971,-0.7581177,2.25,-2.890625,0.09375,319
320,1696245680158,-0.64501953,-0.06719971,-0.7498169,0.640625,-2.140625,0.265625,320
321,1696245680198,-0.6323242,-0.06036377,-0.7437134,0.109375,-1.609375,0.1875,321
322,1696245680238,-0.642334,-0.065979004,-0.75201416,-0.546875,-0.03125,0.15625,322
323,1696245680278,-0.6557617,-0.065979004,-0.7468872,-0.8125,0.015625,0.484375,323
324,1696245680318,-0.64868164,-0.06890869,-0.7390747,-0.609375,-0.453125,0.390625,324
325,1696245680358,-0.64990234,-0.074279785,-0.7522583,-0.765625,-0.84375,0.328125,325
326,1696245680398,-0.64453125,-0.0725708,-0.7671509,-1.171875,-0.578125,0.53125,326
327,1696245680438,-0.64453125,-0.06817627,-0.7485962,-1.46875,-0.453125,0.546875,327
328,1696245680478,-0.63623047,-0.0791626,-0.7451782,-1.953125,0.171875,0.5625,328
329,1696245680518,-0.63964844,-0.07501221,-0.7468872,-1.921875,0.53125,0.6875,329
330,1696245680558,-0.64208984,-0.07672119,-0.7359009,-1.90625,0.875,0.453125,330
331,1696245680598,-0.6425781,-0.08526611,-0.737854,-1.328125,0.484375,0.484375,331
332,1696245680638,-0.65234375,-0.089416504,-0.72857666,-1.984375,1.0,0.609375,332
333,1696245680678,-0.65478516,-0.07989502,-0.7595825,-1.3125,0.296875,0.359375,333
334,1696245680718,-0.65405273,-0.089660645,-0.7280884,-0.984375,1.078125,0.203125,334
335,1696245680758,-0.6533203,-0.081604004,-0.7407837,-0.046875,-0.3125,0.125,335
336,1696245680798,-0.6489258,-0.08746338,-0.73931885,0.0625,-0.4375,0.09375,336
337,1696245680838,-0.6472168,-0.08306885,-0.74102783,0.375,-0.65625,0.0625,337
338,1696245680878,-0.6542969,-0.081848145,-0.73687744,0.703125,-0.03125,-0.109375,338
339,1696245680918,-0.6530762,-0.08428955,-0.7402954,0.0,-0.390625,0.28125,339
340,1696245680958,-0.6542969,-0.082092285,-0.7473755,0.640625,-0.84375,0.234375,340
341,1696245680998,-0.65112305,-0.08746338,-0.7349243,0.765625,-0.53125,-0.15625,341
342,1696245681038,-0.6472168,-0.08380127,-0.7258911,1.515625,0.109375,-0.328125,342
343,1696245681078,-0.6489258,-0.08062744,-0.73272705,2.046875,-0.375,-0.5,343
344,1696245681118,-0.6557617,-0.06939697,-0.7451782,1.390625,-1.203125,-0.203125,344
345,1696245681158,-0.6574707,-0.07110596,-0.7503052,0.90625,-0.75,-0.078125,345
346,1696245681198,-0.6533203,-0.07647705,-0.74102783,0.265625,-0.28125,0.0625,346
347,1696245681238,-0.64624023,-0.070129395,-0.7407837,-0.125,-0.46875,0.140625,347
348,1696245681278,-0.6489258,-0.0725708,-0.7510376,-0.75,-0.28125,0.109375,348
349,1696245681318,-0.6489258,-0.07208252,-0.73809814,-1.046875,-0.3125,0.09375,349
350,1696245681358,-0.6496582,-0.082092285,-0.7398071,-1.34375,-0.296875,0.21875,350
351,1696245681398,-0.64941406,-0.08013916,-0.7385864,-0.875,-0.4375,0.234375,351
352,1696245681438,-0.6555176,-0.08477783,-0.7437134,0.03125,-1.609375,0.03125,352
353,1696245681478,-0.65405273,-0.08013916,-0.7385864,0.796875,-2.046875,0.125,353
354,1696245681518,-0.6516113,-0.074035645,-0.7498169,2.0625,-2.921875,-0.125,354
355,1696245681558,-0.6394043,-0.06573486,-0.739563,2.765625,-2.125,-0.140625,355
356,1696245681598,-0.63305664,-0.074523926,-0.7461548,1.03125,-2.125,0.25,356
357,1696245681638,-0.63427734,-0.07110596,-0.75787354,-0.125,-1.46875,0.328125,357
358,1696245681678,-0.6437988,-0.06524658,-0.7554321,-0.515625,-0.171875,0.4375,358
359,1696245681718,-0.64941406,-0.06109619,-0.7637329,-0.578125,-0.140625,0.46875,359
360,1696245681758,-0.64453125,-0.0713501,-0.76348877,-1.09375,0.4375,0.25,360
361,1696245681798,-0.6477051,-0.078430176,-0.7576294,-1.453125,0.59375,0.4375,361
362,1696245681838,-0.63964844,-0.07940674,-0.7407837,-1.359375,1.234375,0.609375,362
363,1696245681878,-0.6401367,-0.078186035,-0.73760986,-0.171875,1.265625,0.265625,363
364,1696245681918,-0.64282227,-0.073791504,-0.7522583,-0.5625,1.359375,0.25,364
365,1696245681958,-0.6484375,-0.07476807,-0.74884033,-0.09375,1.703125,0.09375,365
366,1696245681998,-0.64501953,-0.07696533,-0.74664307,-0.671875,1.1875,0.265625,366
367,1696245682038,-0.6513672,-0.077941895,-0.74884033,-1.171875,1.375,0.328125,367
368,1696245682078,-0.6611328,-0.07867432,-0.73443604,-1.109375,1.28125,0.390625,368
369,1696245682118,-0.6567383,-0.08258057,-0.7539673,-0.921875,0.453125,0.25,369
370,1696245682158,-0.65356445,-0.08477783,-0.73565674,-0.046875,-0.828125,0.015625,370
371,1696245682198,-0.6567383,-0.082336426,-0.7481079,-1.09375,-0.09375,0.46875,371
372,1696245682238,-0.6477051,-0.08502197,-0.725647,0.15625,-0.53125,0.1875,372
373,1696245682278,-0.6503906,-0.077941895,-0.73028564,0.25,-0.546875,0.09375,373
374,1696245682318,-0.65722656,-0.07940674,-0.7546997,0.265625,-0.8125,-0.125,374
375,1696245682358,-0.6574707,-0.08135986,-0.7312622,1.015625,-0.46875,-0.109375,375
376,1696245682398,-0.6713867,-0.07525635,-0.74713135,1.25,-1.40625,-0.09375,376
377,1696245682438,-0.6538086,-0.07696533,-0.72540283,1.0,-1.546875,0.15625,377
378,1696245682478,-0.65405273,-0.073791504,-0.7490845,-0.015625,-1.0,0.328125,378
379,1696245682518,-0.64331055,-0.08868408,-0.7329712,0.03125,-0.234375,0.140625,379
380,1696245682558,-0.6459961,-0.08087158,-0.7366333,0.5625,-0.140625,-0.15625,380
381,1696245682598,-0.65478516,-0.07745361,-0.7373657,0.21875,-0.578125,-0.15625,381
382,1696245682638,-0.6628418,-0.074523926,-0.7515259,-1.1875,-0.671875,0.09375,382
383,1696245682678,-0.6665039,-0.074035645,-0.74420166,-0.296875,-0.671875,0.140625,383
384,1696245682718,-0.65356445,-0.07598877,-0.72784424,1.109375,-1.296875,-0.125,384
385,1696245682758,-0.6567383,-0.077941895,-0.7595825,0.234375,-2.265625,-0.09375,385
386,1696245682798,-0.65771484,-0.07989502,-0.75860596,-0.8125,-1.640625,0.390625,386
387,1696245682838,-0.6491699,-0.07891846,-0.7407837,-0.359375,-1.59375,0.28125,387
388,1696245682878,-0.63964844,-0.07525635,-0.7258911,-0.4375,-1.359375,0.015625,388
389,1696245682918,-0.64697266,-0.08087158,-0.7608032,-0.890625,-1.34375,0.125,389
390,1696245682958,-0.6464844,-0.081604004,-0.73638916,-0.21875,-1.109375,0.125,390
391,1696245682998,-0.6489258,-0.081848145,-0.75006104,0.90625,-2.171875,-0.140625,391
392,1696245683038,-0.65185547,-0.074279785,-0.7451782,3.53125,-2.140625,-0.28125,392
393,1696245683078,-0.6401367,-0.078186035,-0.75665283,3.578125,-1.75,-0.28125,393
394,1696245683118,-0.6425781,-0.06915283,-0.7620239,1.453125,-1.671875,0.171875,394
395,1696245683158,-0.6333008,-0.06890869,-0.7605591,-1.21875,-0.75,0.640625,395
396,1696245683198,-0.6374512,-0.07281494,-0.74591064,-1.53125,-0.328125,0.65625,396
397,1696245683238,-0.64331055,-0.0713501,-0.7498169,-1.890625,0.53125,0.484375,397
398,1696245683278,-0.6477051,-0.074523926,-0.7461548,-0.859375,-0.28125,0.375,398
399,1696245683318,-0.6442871,-0.069885254,-0.76104736,-0.765625,-0.375,0.296875,399
400,1696245683358,-0.64990234,-0.07745361,-0.7642212,-0.921875,-0.40625,0.390625,400
401,1696245683398,-0.6459961,-0.0803833,-0.7415161,-1.515625,1.078125,0.453125,401
402,1696245683438,-0.6340332,-0.082092285,-0.74176025,-0.984375,0.578125,0.265625,402
403,1696245683478,-0.6347656,-0.08428955,-0.7456665,-1.125,0.578125,0.21875,403
404,1696245683518,-0.6381836,-0.078186035,-0.7468872,-1.0,0.59375,0.265625,404
405,1696245683558,-0.6401367,-0.08306885,-0.7571411,-1.640625,1.1875,0.421875,405
406,1696245683598,-0.6452637,-0.07965088,-0.74224854,-0.34375,0.0625,0.109375,406
407,1696245683638,-0.6503906,-0.082092285,-0.7505493,-1.296875,1.4375,0.421875,407
408,1696245683678,-0.64990234,-0.086242676,-0.7432251,0.375,0.46875,0.203125,408
409,1696245683718,-0.6503906,-0.085754395,-0.75372314,0.203125,0.8125,0.078125,409
410,1696245683758,-0.65063477,-0.08526611,-0.7373657,-0.0625,0.703125,0.09375,410
411,1696245683798,-0.6516113,-0.08087158,-0.73687744,0.0625,-0.421875,0.15625,411
412,1696245683838,-0.6496582,-0.08380127,-0.7366333,0.328125,-0.734375,0.0,412
413,1696245683878,-0.64819336,-0.07867432,-0.7276001,0.671875,-1.171875,-0.03125,413
414,1696245683918,-0.65234375,-0.082336426,-0.74713135,0.0625,-0.625,0.015625,414
415,1696245683958,-0.6520996,-0.08111572,-0.7444458,0.390625,-1.328125,0.03125,415
416,1696245683998,-0.64941406,-0.08453369,-0.7510376,0.90625,-0.65625,0.140625,416
417,1696245684038,-0.654541,-0.08282471,-0.73883057,2.171875,-0.578125,-0.15625,417
418,1696245684078,-0.66064453,-0.07598877,-0.7583618,1.9375,-1.265625,-0.0625,418
419,1696245684118,-0.642334,-0.070129395,-0.74005127,1.65625,-1.34375,0.09375,419
420,1696245684158,-0.6479492,-0.07281494,-0.7420044,1.703125,-1.359375,-0.171875,420
421,1696245684198,-0.64038086,-0.07281494,-0.7415161,1.09375,-1.0625,-0.21875,421
422,1696245684238,-0.6459961,-0.06744385,-0.7366333,0.96875,-0.78125,-0.296875,422
423,1696245684278,-0.6477051,-0.07208252,-0.7539673,0.40625,-1.140625,0.0625,423
424,1696245684318,-0.64160156,-0.0635376,-0.74176025,0.171875,-0.78125,0.0625,424
425,1696245684358,-0.65625,-0.06500244,-0.76690674,-0.25,-0.375,-0.03125,425
426,1696245684398,-0.6508789,-0.07183838,-0.7490845,-0.140625,-0.84375,0.046875,426
427,1696245684438,-0.64746094,-0.06817627,-0.7632446,-0.234375,-0.9375,0.125,427
428,1696245684478,-0.640625,-0.06695557,-0.74420166,0.03125,-0.875,0.234375,428
429,1696245684518,-0.64160156,-0.06549072,-0.737854,0.3125,-1.75,0.25,429
430,1696245684558,-0.6376953,-0.06500244,-0.75128174,1.421875,-2.671875,0.21875,430
431,1696245684598,-0.6315918,-0.0725708,-0.75006104,1.734375,-1.84375,0.3125,431
432,1696245684638,-0.62890625,-0.0713501,-0.75787354,1.046875,-2.140625,0.359375,432
433,1696245684678,-0.63500977,-0.06549072,-0.7632446,-1.171875,-0.71875,0.390625,433
434,1696245684718,-0.6357422,-0.06768799,-0.7581177,-1.453125,-0.5,0.375,434
435,1696245684758,-0.64746094,-0.062561035,-0.7642212,-1.625,-0.734375,0.5625,435
436,1696245684798,-0.6394043,-0.066467285,-0.75567627,-1.609375,-0.890625,0.484375,436
437,1696245684838,-0.6328125,-0.0647583,-0.7522583,-1.9375,-0.328125,0.453125,437
438,1696245684878,-0.63549805,-0.07525635,-0.7554321,-1.765625,0.046875,0.484375,438
439,1696245684918,-0.6323242,-0.07745361,-0.7559204,-1.3125,0.1875,0.375,439
440,1696245684958,-0.6328125,-0.085754395,-0.75787354,-0.5625,0.03125,0.234375,440
441,1696245684998,-0.6298828,-0.0725708,-0.73638916,-1.484375,0.9375,0.359375,441
442,1696245685038,-0.63500977,-0.07720947,-0.7822876,-2.09375,1.171875,0.46875,442
443,1696245685078,-0.63916016,-0.07672119,-0.74542236,-2.5625,1.90625,0.375,443
444,1696245685118,-0.63671875,-0.08111572,-0.75006104,-1.875,1.140625,0.328125,444
445,1696245685158,-0.6425781,-0.08673096,-0.74835205,-2.1875,1.03125,0.40625,445
446,1696245685198,-0.6491699,-0.08892822,-0.7468872,-2.328125,0.765625,0.375,446
447,1696245685238,-0.6508789,-0.093566895,-0.74420166,-1.78125,0.4375,0.375,447
448,1696245685278,-0.6430664,-0.09283447,-0.74005127,-0.828125,-0.328125,0.265625,448
449,1696245685318,-0.63549805,-0.09454346,-0.7385864,0.3125,-0.578125,0.015625,449
450,1696245685358,-0.6484375,-0.08843994,-0.7510376,0.90625,-0.46875,-0.21875,450
451,1696245685398,-0.6459961,-0.08648682,-0.74664307,1.21875,-0.96875,-0.0625,451
452,1696245685438,-0.6491699,-0.09136963,-0.7468872,1.46875,-1.328125,-0.078125,452
453,1696245685478,-0.6369629,-0.08868408,-0.7402954,2.0625,-2.25,0.203125,453
454,1696245685518,-0.64575195,-0.08673096,-0.74884033,2.34375,-1.890625,-0.015625,454
455,1696245685558,-0.6435547,-0.0791626,-0.7608032,1.625,-1.453125,-0.015625,455
456,1696245685598,-0.6323242,-0.07745361,-0.76153564,1.046875,-0.734375,0.03125,456
457,1696245685638,-0.6411133,-0.077941895,-0.7529907,1.09375,-0.234375,-0.140625,457
458,1696245685678,-0.6467285,-0.07305908,-0.7498169,0.96875,-0.484375,-0.1875,458
459,1696245685718,-0.63671875,-0.066223145,-0.7461548,0.984375,-0.203125,-0.09375,459
460,1696245685758,-0.6513672,-0.07305908,-0.7749634,0.875,-0.421875,-0.09375,460
461,1696245685798,-0.6516113,-0.07598877,-0.74420166,0.03125,1.765625,-0.25,461
462,1696245685838,-0.64990234,-0.07623291,-0.7666626,0.3125,0.78125,0.046875,462
463,1696245685878,-0.6477051,-0.07305908,-0.74224854,-0.09375,0.796875,0.03125,463
464,1696245685918,-0.642334,-0.074523926,-0.74298096,0.046875,-0.328125,-0.0625,464
465,1696245685958,-0.64160156,-0.06573486,-0.73809814,0.28125,-0.546875,-0.046875,465
466,1696245685998,-0.6398926,-0.07305908,-0.74176025,0.71875,-1.125,0.015625,466
467,1696245686038,-0.6394043,-0.06842041,-0.7437134,1.71875,-1.6875,-0.046875,467
468,1696245686078,-0.638916,-0.074279785,-0.7503052,2.234375,-1.625,-0.046875,468
469,1696245686118,-0.6401367,-0.06573486,-0.74224854,2.96875,-1.03125,-0.359375,469
470,1696245686158,-0.64038086,-0.058654785,-0.7583618,0.8125,-1.109375,0.15625,470
471,1696245686198,-0.6357422,-0.06036377,-0.7498169,-0.5625,-0.390625,0.25,471
472,1696245686238,-0.6386719,-0.059631348,-0.75079346,-1.03125,-0.046875,0.15625,472
473,1696245686278,-0.6447754,-0.058166504,-0.75982666,-1.640625,-0.265625,0.671875,473
474,1696245686318,-0.64086914,-0.06719971,-0.74835205,-1.75,-0.6875,0.6875,474
475,1696245686358,-0.64697266,-0.077697754,-0.7527466,-1.0,-0.875,0.390625,475
476,1696245686398,-0.6394043,-0.074279785,-0.77423096,-1.984375,-0.296875,0.390625,476
477,1696245686438,-0.63183594,-0.07086182,-0.7473755,-1.515625,-0.640625,0.421875,477
478,1696245686478,-0.6298828,-0.07354736,-0.74420166,-2.828125,1.3125,0.453125,478
479,1696245686518,-0.6328125,-0.074035645,-0.75738525,-0.9375,1.53125,0.0,479
480,1696245686558,-0.64404297,-0.07696533,-0.7515259,-1.40625,2.40625,0.296875,480
481,1696245686598,-0.6472168,-0.08380127,-0.74468994,-1.703125,1.265625,0.359375,481
482,1696245686638,-0.6525879,-0.08087158,-0.75250244,-1.734375,0.453125,0.28125,482
483,1696245686678,-0.6496582,-0.08428955,-0.7515259,-1.6875,0.8125,0.3125,483
484,1696245686718,-0.6538086,-0.07940674,-0.74298096,-0.9375,-0.140625,0.25,484
485,1696245686758,-0.64990234,-0.08917236,-0.7366333,-1.09375,-0.1875,0.390625,485
486,1696245686798,-0.63916016,-0.08795166,-0.7324829,0.109375,-0.296875,-0.015625,486
487,1696245686838,-0.6520996,-0.08306885,-0.7371216,0.859375,-0.609375,-0.140625,487
488,1696245686878,-0.6489258,-0.08477783,-0.73687744,1.359375,-0.578125,-0.078125,488
489,1696245686918,-0.6542969,-0.08062744,-0.73809814,2.25,-1.125,-0.125,489
490,1696245686958,-0.64990234,-0.07476807,-0.753479,2.28125,-1.5,0.078125,490
491,1696245686998,-0.6530762,-0.07305908,-0.75006104,2.171875,-0.59375,-0.171875,491
492,1696245687038,-0.6479492,-0.07354736,-0.7485962,1.765625,-0.546875,-0.21875,492
493,1696245687078,-0.6442871,-0.07086182,-0.739563,1.5625,-0.40625,-0.1875,493
494,1696245687118,-0.6435547,-0.066467285,-0.7456665,1.0,-0.28125,0.0,494
495,1696245687158,-0.64575195,-0.06817627,-0.7529907,0.703125,-0.828125,-0.125,495
496,1696245687198,-0.64282227,-0.06890869,-0.7385864,0.484375,0.453125,-0.078125,496
497,1696245687238,-0.6479492,-0.07696533,-0.74298096,0.84375,-0.359375,-0.1875,497
498,1696245687278,-0.65893555,-0.061340332,-0.75006104,0.640625,-0.40625,-0.109375,498
499,1696245687318,-0.6530762,-0.06402588,-0.73516846,0.921875,-0.421875,-0.171875,499
500,1696245687358,-0.66137695,-0.061828613,-0.7505493,0.890625,-0.46875,-0.296875,500
501,1696245687398,-0.65527344,-0.061828613,-0.755188,-0.1875,-0.453125,0.375,501
502,1696245687438,-0.6435547,-0.054992676,-0.7324829,-0.234375,-0.625,0.09375,502
503,1696245687478,-0.6477051,-0.06500244,-0.74298096,-0.328125,-0.78125,0.1875,503
504,1696245687518,-0.64453125,-0.06036377,-0.7337036,0.390625,-1.46875,0.03125,504
505,1696245687558,-0.6452637,-0.061828613,-0.7510376,2.109375,-2.984375,0.125,505
506,1696245687598,-0.6425781,-0.06304932,-0.74468994,2.390625,-1.515625,-0.03125,506
507,1696245687638,-0.6491699,-0.06011963,-0.76397705,1.921875,-1.5625,-0.09375,507
508,1696245687678,-0.6442871,-0.05621338,-0.7686157,-0.140625,-1.53125,0.359375,508
509,1696245687718,-0.640625,-0.05621338,-0.75445557,-1.671875,-0.609375,0.53125,509
510,1696245687758,-0.6357422,-0.058654785,-0.7346802,-1.40625,-0.96875,0.5,510
511,1696245687798,-0.64086914,-0.058654785,-0.7576294,-2.015625,-0.578125,0.34375,511
512,1696245687838,-0.6291504,-0.06085205,-0.75738525,-0.59375,-1.5,0.125,512
513,1696245687878,-0.6401367,-0.065979004,-0.75128174,-1.78125,-0.046875,0.59375,513
514,1696245687918,-0.6401367,-0.06964111,-0.75250244,-1.265625,0.125,0.578125,514
515,1696245687958,-0.63623047,-0.06939697,-0.7581177,-1.578125,-0.046875,0.46875,515
516,1696245687998,-0.6357422,-0.06427002,-0.7539673,-2.0625,0.609375,0.515625,516
517,1696245688038,-0.6411133,-0.07305908,-0.75006104,-2.578125,0.296875,0.640625,517
518,1696245688078,-0.638916,-0.06793213,-0.75201416,-2.671875,0.5,0.515625,518
519,1696245688118,-0.6418457,-0.07867432,-0.75787354,-1.46875,-0.484375,0.109375,519
520,1696245688158,-0.6398926,-0.0803833,-0.741272,-1.625,0.28125,0.34375,520
521,1696245688198,-0.6359863,-0.08380127,-0.74005127,-0.796875,0.046875,0.1875,521
522,1696245688238,-0.64697266,-0.08673096,-0.7559204,-0.296875,-0.40625,0.28125,522
523,1696245688278,-0.6479492,-0.08673096,-0.7449341,0.15625,-0.125,0.078125,523
524,1696245688318,-0.6401367,-0.08428955,-0.7444458,0.609375,0.203125,-0.140625,524
525,1696245688358,-0.66137695,-0.07940674,-0.7564087,0.78125,-0.359375,-0.109375,525
526,1696245688398,-0.63964844,-0.07647705,-0.7432251,0.71875,-0.796875,0.015625,526
527,1696245688438,-0.6442871,-0.078430176,-0.74346924,1.375,-0.90625,-0.03125,527
528,1696245688478,-0.63720703,-0.07745361,-0.7371216,1.890625,-1.296875,-0.0625,528
529,1696245688518,-0.64086914,-0.07940674,-0.73272705,1.25,-0.71875,-0.0625,529
530,1696245688558,-0.6477051,-0.070617676,-0.77178955,0.921875,-0.6875,-0.0625,530
531,1696245688598,-0.6345215,-0.07354736,-0.7300415,0.859375,0.15625,0.046875,531
532,1696245688638,-0.64160156,-0.06964111,-0.756897,1.8125,-0.578125,-0.234375,532
533,1696245688678,-0.6430664,-0.06964111,-0.7498169,1.953125,-0.4375,-0.25,533
534,1696245688718,-0.64819336,-0.062316895,-0.7510376,2.109375,-1.109375,-0.25,534
535,1696245688758,-0.64282227,-0.06060791,-0.76348877,1.546875,-1.625,-0.046875,535
536,1696245688798,-0.6413574,-0.058654785,-0.7456665,0.9375,-1.453125,0.078125,536
537,1696245688838,-0.6374512,-0.058166504,-0.7554321,0.375,-1.6875,0.09375,537
538,1696245688878,-0.6376953,-0.05987549,-0.7515259,-1.734375,-0.796875,0.328125,538
539,1696245688918,-0.63378906,-0.06451416,-0.75177,-0.84375,-1.078125,0.28125,539
540,1696245688958,-0.64038086,-0.05670166,-0.7498169,-0.34375,-0.640625,0.203125,540
541,1696245688998,-0.63964844,-0.06524658,-0.755188,0.21875,-0.828125,0.140625,541
542,1696245689038,-0.6386719,-0.062805176,-0.75787354,-0.28125,-0.84375,0.3125,542
543,1696245689078,-0.64331055,-0.06915283,-0.7576294,0.484375,-0.765625,0.078125,543
544,1696245689118,-0.63793945,-0.06500244,-0.7542114,0.921875,-1.203125,-0.140625,544
545,1696245689158,-0.62939453,-0.05670166,-0.7554321,2.21875,-1.484375,-0.171875,545
546,1696245689198,-0.6364746,-0.061584473,-0.7593384,2.78125,-1.890625,-0.296875,546
547,1696245689238,-0.6298828,-0.04937744,-0.7671509,0.1875,-0.1875,0.21875,547
548,1696245689278,-0.6281738,-0.054504395,-0.75860596,-0.53125,-0.203125,0.078125,548
549,1696245689318,-0.64575195,-0.050842285,-0.7732544,-1.21875,0.609375,0.515625,549
550,1696245689358,-0.6472168,-0.05596924,-0.7637329,-1.5,0.171875,0.59375,550
551,1696245689398,-0.6425781,-0.059631348,-0.7529907,-2.109375,-1.125,0.671875,551
552,1696245689438,-0.6328125,-0.06036377,-0.75445557,-1.53125,-1.328125,0.625,552
553,1696245689478,-0.6262207,-0.06793213,-0.7498169,-0.84375,-1.234375,0.234375,553
554,1696245689518,-0.62280273,-0.066711426,-0.76104736,-1.203125,-0.546875,0.28125,554
555,1696245689558,-0.63964844,-0.07525635,-0.74005127,2.53125,-3.3125,-0.1875,571
556,1696245689598,-0.63671875,-0.07623291,-0.7385864,2.4375,-2.859375,-0.265625,572
557,1696245689638,-0.6345215,-0.0713501,-0.75787354,1.578125,-1.625,-0.203125,573
558,1696245689678,-0.63623047,-0.066467285,-0.7476196,1.5625,-0.859375,-0.046875,574
559,1696245689718,-0.6459961,-0.06524658,-0.75177,1.09375,-0.53125,0.078125,575
560,1696245689758,-0.6533203,-0.066467285,-0.7617798,1.09375,-0.9375,-0.109375,576
561,1696245689798,-0.6484375,-0.062805176,-0.7485962,0.921875,-0.734375,-0.0625,577
562,1696245689838,-0.6437988,-0.05718994,-0.7481079,1.09375,-0.671875,-0.234375,578
563,1696245689878,-0.6442871,-0.061828613,-0.7671509,0.734375,-1.078125,0.015625,579
564,1696245689918,-0.62939453,-0.061828613,-0.7293091,0.5,-0.84375,-0.140625,580
565,1696245689958,-0.6364746,-0.06329346,-0.7515259,-0.625,0.171875,0.0625,581
566,1696245689998,-0.6381836,-0.06915283,-0.7510376,-0.28125,-0.28125,0.0625,582
567,1696245690038,-0.65112305,-0.061340332,-0.75616455,-0.265625,-0.5,0.03125,583
568,1696245690078,-0.6435547,-0.055236816,-0.7493286,0.40625,-0.953125,0.015625,584
569,1696245690118,-0.6520996,-0.05621338,-0.76031494,1.859375,-2.28125,-0.1875,585
570,1696245690158,-0.63793945,-0.06011963,-0.7583618,1.59375,-1.78125,-0.109375,586
571,1696245690198,-0.62109375,-0.05596924,-0.7390747,1.046875,-1.203125,0.0625,587
572,1696245690238,-0.625,-0.0569458,-0.75128174,0.0,-0.59375,0.125,588
573,1696245690278,-0.63964844,-0.0569458,-0.7505493,-0.375,0.0625,0.234375,589
574,1696245690318,-0.6357422,-0.055480957,-0.753479,-0.65625,0.078125,0.3125,590
575,1696245690358,-0.63671875,-0.053771973,-0.7600708,-1.265625,-0.0625,0.390625,591
576,1696245690398,-0.6447754,-0.061340332,-0.772522,-2.4375,-0.21875,0.578125,592
577,1696245690438,-0.6376953,-0.062316895,-0.7546997,-2.796875,0.546875,0.65625,593
578,1696245690478,-0.6369629,-0.07110596,-0.7595825,-2.421875,0.75,0.578125,594
579,1696245690518,-0.6364746,-0.070373535,-0.7527466,-1.984375,0.234375,0.46875,595
580,1696245690558,-0.63183594,-0.06744385,-0.75738525,-1.984375,0.796875,0.4375,596
581,1696245690598,-0.63671875,-0.07354736,-0.7522583,-0.96875,-0.078125,0.140625,597
582,1696245690638,-0.64282227,-0.07965088,-0.75323486,-2.296875,1.453125,0.140625,598
583,1696245690678,-0.6411133,-0.07550049,-0.7317505,0.0625,0.28125,-0.09375,599
584,1696245690718,-0.6477051,-0.074035645,-0.7612915,-0.3125,0.109375,-0.09375,600
585,1696245690758,-0.6513672,-0.07525635,-0.74298096,-0.1875,0.140625,-0.015625,601
586,1696245690798,-0.6508789,-0.0713501,-0.75006104,0.1875,-0.3125,0.125,602
587,1696245690838,-0.6477051,-0.074035645,-0.7451782,0.28125,-0.625,0.03125,603
588,1696245690878,-0.6435547,-0.07745361,-0.75738525,0.65625,-1.328125,0.1875,604
589,1696245690918,-0.6442871,-0.06964111,-0.7407837,0.703125,-0.59375,0.03125,605
590,1696245690958,-0.6437988,-0.070373535,-0.7354126,1.125,-0.75,-0.15625,606
591,1696245690998,-0.64404297,-0.06817627,-0.74298096,1.171875,-0.734375,-0.078125,607
592,1696245691038,-0.64331055,-0.06964111,-0.7385864,1.234375,-0.71875,-0.1875,608
593,1696245691078,-0.6464844,-0.06939697,-0.7468872,1.203125,-0.671875,-0.1875,609
594,1696245691118,-0.6459961,-0.06793213,-0.755188,1.0625,-0.671875,-0.171875,610
595,1696245691158,-0.642334,-0.06329346,-0.7546997,0.546875,-0.546875,-0.015625,611
596,1696245691198,-0.6425781,-0.06500244,-0.7498169,0.625,-0.46875,-0.078125,612
597,1696245691238,-0.6467285,-0.062561035,-0.75982666,0.3125,-0.65625,0.203125,613
598,1696245691278,-0.638916,-0.049621582,-0.72052,0.609375,-0.546875,0.15625,614
599,1696245691318,-0.6464844,-0.06329346,-0.75372314,-0.734375,0.15625,0.140625,615
600,1696245691358,-0.63964844,-0.061828613,-0.74176025,-0.65625,-0.28125,0.109375,616
601,1696245691398,-0.6447754,-0.062072754,-0.7564087,-0.984375,-0.484375,0.078125,617
602,1696245691438,-0.6437988,-0.070373535,-0.73931885,-0.71875,-0.53125,0.25,618
603,1696245691478,-0.64404297,-0.06427002,-0.7559204,-0.875,-1.53125,0.0625,619
604,1696245691518,-0.6447754,-0.06719971,-0.7468872,0.265625,-1.171875,0.015625,620
605,1696245691558,-0.63842773,-0.065979004,-0.74298096,1.828125,-1.671875,0.0,621
606,1696245691598,-0.6401367,-0.06427002,-0.76031494,1.28125,-1.046875,0.0,622
607,1696245691638,-0.63378906,-0.062561035,-0.74835205,1.375,-0.609375,-0.015625,623
608,1696245691678,-0.6369629,-0.062805176,-0.7625122,1.640625,-0.5,0.171875,624
609,1696245691718,-0.640625,-0.061340332,-0.7427368,1.28125,-0.828125,0.03125,625
610,1696245691758,-0.63427734,-0.061584473,-0.75909424,0.546875,-1.15625,0.234375,626
611,1696245691798,-0.6401367,-0.05328369,-0.7571411,-0.671875,-0.625,0.34375,627
612,1696245691838,-0.6308594,-0.057922363,-0.7647095,-0.734375,-0.421875,0.359375,628
613,1696245691878,-0.63842773,-0.0635376,-0.7515259,-0.890625,-0.078125,0.25,629
614,1696245691918,-0.6413574,-0.059631348,-0.75738525,-1.671875,0.296875,0.53125,630
615,1696245691958,-0.6357422,-0.059143066,-0.767395,-1.5,-0.5625,0.515625,631
616,1696245691998,-0.6364746,-0.06793213,-0.7407837,-1.640625,0.21875,0.578125,632
617,1696245692038,-0.63916016,-0.05987549,-0.7473755,-1.03125,-0.0625,0.484375,633
618,1696245692078,-0.6364746,-0.066711426,-0.75201416,-1.125,-0.171875,0.265625,634
619,1696245692118,-0.64575195,-0.06817627,-0.7571411,-1.484375,0.25,0.46875,635
620,1696245692158,-0.6347656,-0.066467285,-0.7617798,-0.359375,1.234375,0.140625,636
621,1696245692198,-0.6442871,-0.06842041,-0.7559204,-0.53125,2.546875,0.484375,637
622,1696245692238,-0.6472168,-0.07305908,-0.7503052,-0.375,1.375,0.34375,638
623,1696245692278,-0.64453125,-0.07672119,-0.74176025,-0.75,2.21875,0.296875,639
624,1696245692318,-0.6489258,-0.074035645,-0.7319946,-0.015625,0.296875,0.1875,640
625,1696245692358,-0.65356445,-0.07305908,-0.7415161,0.203125,0.03125,-0.109375,641
626,1696245692398,-0.6452637,-0.06378174,-0.73809814,0.6875,-0.625,0.046875,642
627,1696245692438,-0.65722656,-0.06744385,-0.74835205,0.234375,-0.859375,0.09375,643
628,1696245692478,-0.6513672,-0.07305908,-0.7468872,-0.234375,-1.375,0.40625,644
629,1696245692518,-0.64819336,-0.06817627,-0.7373657,1.078125,-1.78125,-0.015625,645
630,1696245692558,-0.6542969,-0.07232666,-0.7542114,1.078125,-1.484375,-0.09375,646
631,1696245692598,-0.6425781,-0.07086182,-0.74542236,0.140625,-0.75,0.265625,647
632,1696245692638,-0.63134766,-0.066467285,-0.75445557,0.046875,-0.640625,-0.015625,648
633,1696245692678,-0.63671875,-0.0647583,-0.7271118,0.640625,-0.09375,-0.15625,649
634,1696245692718,-0.64282227,-0.06500244,-0.7583618,0.421875,-0.859375,-0.0625,650
635,1696245692758,-0.6503906,-0.06304932,-0.7444458,0.5625,-0.625,-0.046875,651
636,1696245692798,-0.65185547,-0.070617676,-0.7529907,0.75,-1.625,-0.203125,652
637,1696245692838,-0.65185547,-0.06451416,-0.76031494,0.59375,-1.21875,-0.015625,653
638,1696245692878,-0.64086914,-0.06768799,-0.74957275,0.25,-0.6875,0.078125,654
639,1696245692918,-0.638916,-0.061584473,-0.75494385,-0.09375,-0.671875,0.109375,655
640,1696245692958,-0.640625,-0.06060791,-0.7451782,-0.328125,-0.546875,0.171875,656
641,1696245692998,-0.64038086,-0.058654785,-0.7498169,-0.109375,-0.609375,0.21875,657
642,1696245693038,-0.6374512,-0.058654785,-0.74102783,0.109375,-0.71875,0.203125,658
643,1696245693078,-0.6479492,-0.062072754,-0.74957275,1.328125,-1.625,0.0,659
644,1696245693118,-0.6352539,-0.06011963,-0.7522583,1.765625,-0.84375,-0.015625,660
645,1696245693158,-0.64038086,-0.0569458,-0.7617798,2.03125,-0.984375,-0.015625,661
646,1696245693198,-0.63793945,-0.057678223,-0.76348877,0.890625,-0.390625,0.109375,662
647,1696245693238,-0.6413574,-0.055480957,-0.75494385,-0.109375,0.40625,0.203125,663
648,1696245693278,-0.6359863,-0.049865723,-0.75616455,-0.15625,-0.265625,-0.015625,664
649,1696245693318,-0.64404297,-0.0569458,-0.7522583,-1.703125,0.15625,0.625,665
650,1696245693358,-0.62768555,-0.055236816,-0.75201416,-1.125,-1.078125,0.65625,666
651,1696245693398,-0.63623047,-0.057922363,-0.7542114,-2.109375,-0.65625,0.5625,667
652,1696245693438,-0.63061523,-0.058166504,-0.73687744,-1.203125,-0.65625,0.40625,668
653,1696245693478,-0.638916,-0.06744385,-0.76446533,-1.109375,-0.84375,0.46875,669
654,1696245693518,-0.63916016,-0.066711426,-0.7710571,-2.328125,-0.203125,0.53125,670
655,1696245693558,-0.63500977,-0.06549072,-0.75006104,-1.359375,-0.359375,0.46875,671
656,1696245693598,-0.6401367,-0.07550049,-0.7649536,-1.65625,0.390625,0.375,672
657,1696245693638,-0.6296387,-0.06719971,-0.74884033,-1.28125,0.296875,0.1875,673
658,1696245693678,-0.63916016,-0.07476807,-0.7539673,-0.984375,0.125,0.25,674
659,1696245693718,-0.6359863,-0.07354736,-0.74713135,-0.703125,0.15625,0.0625,675
660,1696245693758,-0.63720703,-0.07305908,-0.7576294,-0.859375,0.453125,0.3125,676
661,1696245693798,-0.6442871,-0.07623291,-0.7505493,-0.8125,0.328125,0.328125,677
662,1696245693838,-0.6452637,-0.078430176,-0.7493286,-0.4375,0.0,0.046875,678
663,1696245693878,-0.6459961,-0.081848145,-0.74298096,0.15625,0.046875,0.0625,679
664,1696245693918,-0.6430664,-0.070617676,-0.7312622,0.328125,0.0,0.125,680
665,1696245693958,-0.6484375,-0.07354736,-0.7659302,-0.046875,0.09375,0.015625,681
666,1696245693998,-0.6467285,-0.06866455,-0.7383423,0.65625,-0.453125,0.03125,682
667,1696245694038,-0.6347656,-0.074035645,-0.75006104,1.0625,-0.5,-0.015625,683
668,1696245694078,-0.64086914,-0.07354736,-0.7371216,1.8125,-0.078125,-0.1875,684
669,1696245694118,-0.64404297,-0.06768799,-0.7449341,1.71875,-0.59375,-0.28125,685
670,1696245694158,-0.64575195,-0.06524658,-0.75177,1.375,-0.421875,0.03125,686
671,1696245694198,-0.64208984,-0.06378174,-0.75616455,0.953125,-0.703125,0.0,687
672,1696245694238,-0.642334,-0.070129395,-0.75177,0.765625,-0.4375,-0.015625,688
673,1696245694278,-0.64575195,-0.066467285,-0.74542236,0.59375,-0.25,0.015625,689
674,1696245694318,-0.64453125,-0.059387207,-0.74957275,0.8125,-0.875,-0.203125,690
675,1696245694358,-0.64404297,-0.057922363,-0.7539673,0.1875,-0.578125,0.125,691
676,1696245694398,-0.6411133,-0.054748535,-0.75982666,-0.25,-0.8125,0.109375,692
677,1696245694438,-0.64160156,-0.057922363,-0.7510376,-0.515625,-0.421875,0.234375,693
678,1696245694478,-0.6418457,-0.06011963,-0.75665283,-0.671875,-0.671875,0.25,694
679,1696245694518,-0.64941406,-0.06109619,-0.75494385,-0.953125,-1.078125,0.15625,695
680,1696245694558,-0.642334,-0.062316895,-0.7476196,-0.15625,-1.234375,0.171875,696
681,1696245694598,-0.64160156,-0.06402588,-0.7647095,0.953125,-2.09375,0.09375,697
682,1696245694638,-0.63183594,-0.06524658,-0.7451782,2.390625,-2.359375,-0.046875,698
683,1696245694678,-0.62719727,-0.058166504,-0.7510376,1.546875,-2.359375,0.0,699
684,1696245694718,-0.61621094,-0.0569458,-0.7529907,-0.90625,-1.0,0.328125,700
685,1696245694758,-0.6286621,-0.05206299,-0.76641846,-1.5,-0.625,0.484375,701
686,1696245694798,-0.6347656,-0.058166504,-0.75250244,-1.625,0.265625,0.609375,702
687,1696245694838,-0.6381836,-0.061828613,-0.7600708,-1.75,0.4375,0.375,703
688,1696245694878,-0.63916016,-0.06744385,-0.76812744,-1.6875,0.328125,0.71875,704
689,1696245694918,-0.640625,-0.070129395,-0.7752075,-2.84375,0.9375,0.53125,705
690,1696245694958,-0.63500977,-0.06719971,-0.7390747,-1.65625,1.046875,0.625,706
691,1696245694998,-0.6374512,-0.0725708,-0.75079346,-1.359375,0.296875,0.265625,707
692,1696245695038,-0.6298828,-0.07183838,-0.7437134,-1.1875,0.296875,0.375,708
693,1696245695078,-0.6333008,-0.07159424,-0.7432251,-1.21875,0.234375,0.21875,709
694,1696245695118,-0.6347656,-0.07720947,-0.74468994,-0.828125,0.34375,0.15625,710
695,1696245695158,-0.64282227,-0.07891846,-0.7529907,-0.4375,-0.09375,0.203125,711
696,1696245695198,-0.63793945,-0.08062744,-0.7593384,-0.125,-0.625,0.09375,712
697,1696245695238,-0.6467285,-0.0791626,-0.76275635,0.640625,-0.734375,0.09375,713
698,1696245695278,-0.6530762,-0.073791504,-0.7666626,-0.40625,0.1875,0.21875,714
699,1696245695318,-0.6374512,-0.07965088,-0.7427368,0.34375,-0.1875,0.0625,715
700,1696245695358,-0.6369629,-0.070129395,-0.7476196,0.171875,-0.515625,0.203125,716
701,1696245695398,-0.6376953,-0.07623291,-0.74053955,0.03125,-0.40625,0.34375,717
702,1696245695438,-0.6315918,-0.07354736,-0.73931885,0.875,-0.59375,0.0625,718
703,1696245695478,-0.64404297,-0.074523926,-0.75445557,0.453125,-0.546875,0.0625,719
704,1696245695518,-0.6401367,-0.07940674,-0.7427368,0.453125,-0.71875,0.0,720
705,1696245695558,-0.64331055,-0.07232666,-0.7498169,0.5,-0.015625,0.0,721
706,1696245695598,-0.6442871,-0.066467285,-0.7456665,0.640625,-0.25,-0.265625,722
707,1696245695638,-0.65356445,-0.07086182,-0.76348877,0.3125,-0.578125,0.078125,723
708,1696245695678,-0.6386719,-0.06719971,-0.7463989,0.421875,-0.59375,0.078125,724
709,1696245695718,-0.64404297,-0.06842041,-0.755188,0.234375,-0.75,0.140625,725
710,1696245695758,-0.6340332,-0.070617676,-0.7432251,-0.140625,-0.578125,0.1875,726
711,1696245695798,-0.63305664,-0.07110596,-0.74420166,-0.203125,-0.734375,0.21875,727
712,1696245695838,-0.6364746,-0.07232666,-0.7449341,-0.390625,-0.578125,0.078125,728
713,1696245695878,-0.6394043,-0.0791626,-0.73760986,-0.703125,-0.546875,0.328125,729
714,1696245695918,-0.6442871,-0.07672119,-0.7683716,-1.34375,-0.078125,0.265625,730
715,1696245695958,-0.6394043,-0.0791626,-0.73931885,-0.96875,-0.53125,0.203125,731
716,1696245695998,-0.64208984,-0.0791626,-0.756897,-1.125,-0.9375,0.15625,732
717,1696245696038,-0.6394043,-0.0725708,-0.74542236,-0.390625,-0.75,0.09375,733
718,1696245696078,-0.63793945,-0.07720947,-0.7432251,0.40625,-1.203125,0.0,734
719,1696245696118,-0.6335449,-0.07623291,-0.75006104,1.453125,-1.03125,-0.21875,735
720,1696245696158,-0.62768555,-0.070617676,-0.73272705,1.8125,-0.921875,-0.015625,736
721,1696245696198,-0.6303711,-0.06964111,-0.7564087,2.984375,-1.171875,-0.25,737
722,1696245696238,-0.62890625,-0.0725708,-0.75494385,1.921875,-0.890625,-0.046875,738
723,1696245696278,-0.63964844,-0.06085205,-0.7671509,1.09375,-0.9375,-0.015625,739
724,1696245696318,-0.64746094,-0.06915283,-0.7449341,0.28125,-0.46875,-0.0625,761
725,1696245696358,-0.6411133,-0.06573486,-0.77008057,0.375,-0.609375,0.0,762
726,1696245696398,-0.63964844,-0.06793213,-0.72906494,0.453125,0.359375,0.0,763
727,1696245696438,-0.6501465,-0.065979004,-0.75982666,0.359375,-0.828125,0.015625,764
728,1696245696478,-0.6489258,-0.066223145,-0.7476196,0.0625,-0.34375,0.1875,765
729,1696245696518,-0.6513672,-0.06915283,-0.75201416,0.265625,-1.0,0.015625,766
730,1696245696558,-0.6477051,-0.066223145,-0.7564087,-0.453125,-0.84375,0.234375,767
731,1696245696598,-0.6437988,-0.06939697,-0.7498169,-0.5625,-1.171875,-0.015625,768
732,1696245696638,-0.6340332,-0.069885254,-0.75177,-0.171875,-1.421875,0.0,769
733,1696245696678,-0.6394043,-0.070373535,-0.7485962,0.03125,-1.265625,0.0,770
734,1696245696718,-0.6381836,-0.06524658,-0.75909424,0.140625,-1.328125,0.015625,771
735,1696245696758,-0.64331055,-0.07281494,-0.7559204,0.265625,-0.6875,0.03125,772
736,1696245696798,-0.64404297,-0.06842041,-0.75006104,1.03125,-0.875,-0.03125,773
737,1696245696838,-0.6435547,-0.06109619,-0.7505493,2.546875,-1.59375,-0.28125,774
738,1696245696878,-0.6376953,-0.062316895,-0.7485962,3.5,-0.90625,-0.1875,775
739,1696245696918,-0.6333008,-0.05255127,-0.75201416,2.953125,-1.390625,-0.25,776
740,1696245696958,-0.62646484,-0.054748535,-0.74005127,0.328125,-0.4375,0.1875,777
741,1696245696998,-0.63793945,-0.055480957,-0.76690674,-0.796875,0.28125,0.25,778
742,1696245697038,-0.6430664,-0.05645752,-0.75177,-1.40625,-0.03125,0.515625,779
743,1696245697078,-0.64819336,-0.055725098,-0.76641846,-1.703125,-0.453125,0.46875,780
744,1696245697118,-0.6376953,-0.057922363,-0.753479,-1.59375,-0.40625,0.453125,781
745,1696245697158,-0.6386719,-0.06304932,-0.75665283,-1.875,-0.578125,0.421875,782
746,1696245697198,-0.6376953,-0.06842041,-0.75323486,-1.765625,-0.25,0.5625,783
747,1696245697238,-0.6274414,-0.0713501,-0.7402954,-1.546875,-0.140625,0.578125,784
748,1696245697278,-0.6308594,-0.06866455,-0.76104736,-2.34375,0.359375,0.421875,785
749,1696245697318,-0.6340332,-0.078186035,-0.7427368,-3.140625,1.609375,0.734375,786
750,1696245697358,-0.63378906,-0.082336426,-0.74420166,-1.46875,0.40625,0.390625,787
751,1696245697398,-0.64038086,-0.07745361,-0.75860596,-1.328125,0.375,0.15625,788
752,1696245697438,-0.64404297,-0.08404541,-0.76275635,-1.40625,0.828125,0.25,789
753,1696245697478,-0.6455078,-0.08355713,-0.7485962,-1.359375,0.515625,0.28125,790
754,1696245697518,-0.6503906,-0.07598877,-0.74346924,-0.46875,0.140625,0.140625,791
755,1696245697558,-0.6352539,-0.08526611,-0.72369385,0.421875,-0.03125,-0.03125,792
756,1696245697598,-0.6464844,-0.07672119,-0.741272,0.5,-0.25,0.03125,793
757,1696245697638,-0.6413574,-0.07647705,-0.7649536,0.015625,-0.4375,0.203125,794
758,1696245697678,-0.6347656,-0.07965088,-0.72003174,1.0625,-0.234375,0.1875,795
759,1696245697718,-0.63842773,-0.08062744,-0.7612915,1.515625,-1.640625,0.078125,796
