,timestamp,accel_x,accel_y,accel_z,gyro_x,gyro_y,gyro_z,ind
0,1696248108925,0.64941406,0.015563965,0.8571167,3.34375,4.453125,2.078125,31
1,1696248108965,0.65600586,0.016052246,0.8383179,0.609375,-1.140625,-2.484375,32
2,1696248109005,0.6413574,0.018249512,0.7592163,1.0625,-1.65625,-2.078125,33
3,1696248109045,0.6257324,0.015075684,0.7640991,1.21875,-0.375,0.921875,34
4,1696248109085,0.63256836,-0.011291504,0.84002686,0.671875,-0.28125,1.109375,35
5,1696248109125,0.6069336,0.01776123,0.79241943,-0.203125,-1.828125,0.578125,36
6,1696248109165,0.6777344,-0.0017700195,0.81463623,-1.484375,-1.53125,0.921875,37
7,1696248109205,0.6176758,-0.008361816,0.8432007,-4.40625,-3.25,0.296875,38
8,1696248109245,0.64819336,0.03704834,0.77923584,-3.625,-4.25,-1.015625,39
9,1696248109285,0.62231445,0.023864746,0.8217163,1.234375,-1.546875,-1.0,40
10,1696248109325,0.625,-0.0037231445,0.7938843,-0.796875,-0.5625,-0.140625,41
11,1696248109365,0.61035156,0.02532959,0.86151123,-0.875,-1.234375,0.96875,42
12,1696248109405,0.58691406,0.03265381,0.84246826,-1.21875,-0.953125,0.609375,43
13,1696248109445,0.6098633,-0.00030517578,0.8019409,-0.6875,-2.015625,0.171875,44
14,1696248109485,0.62841797,0.014587402,0.77996826,0.765625,-1.46875,0.5,45
15,1696248109525,0.6245117,0.026306152,0.86834717,0.78125,0.828125,0.515625,46
16,1696248109565,0.5769043,0.027770996,0.85565186,-1.796875,-1.890625,1.109375,47
17,1696248109605,0.63964844,-0.023010254,0.85198975,-3.28125,3.15625,-1.328125,48
18,1696248109645,0.5925293,0.04095459,0.7819214,0.75,-1.125,-0.640625,49
19,1696248109685,0.6225586,0.034606934,0.7965698,1.765625,-2.21875,-2.59375,50
20,1696248109725,0.64868164,0.0018920898,0.72821045,2.1875,1.140625,-0.890625,51
21,1696248109765,0.6516113,0.03387451,0.8876343,2.78125,3.734375,1.4375,52
22,1696248109805,0.6010742,0.022888184,0.8329468,0.015625,-0.171875,1.296875,53
23,1696248109845,0.6218262,-0.013000488,0.8007202,0.65625,-1.90625,0.203125,54
24,1696248109885,0.64404297,-0.004699707,0.78338623,0.984375,-0.671875,-0.109375,55
25,1696248109925,0.6003418,0.020690918,0.8866577,0.28125,-0.4375,0.734375,56
26,1696248109965,0.62353516,0.004333496,0.8329468,-3.15625,-4.015625,0.125,57
27,1696248110005,0.63061523,-0.0071411133,0.8434448,-8.140625,-1.078125,-0.78125,58
28,1696248110045,0.59228516,0.03656006,0.8209839,-2.390625,0.765625,-2.984375,59
29,1696248110085,0.6464844,0.06341553,0.7189331,-1.890625,-1.75,-4.515625,60
30,1696248110125,0.6621094,0.05340576,0.7316284,1.21875,-1.984375,0.546875,61
31,1696248110165,0.6586914,-0.04473877,0.7999878,2.890625,-0.625,0.65625,62
32,1696248110205,0.6442871,0.0006713867,0.98846436,1.28125,1.28125,2.3125,63
33,1696248110245,0.4885254,-0.06793213,0.86151123,-0.6875,-8.9375,3.453125,64
34,1696248110285,0.579834,0.054382324,0.76849365,-3.0,3.671875,-1.234375,65
35,1696248110325,0.6809082,0.09857178,0.69940186,1.03125,-0.28125,-0.890625,66
36,1696248110365,0.67163086,0.011413574,0.8029175,4.171875,-2.203125,1.375,67
37,1696248110405,0.5854492,0.024108887,0.9476929,3.953125,2.234375,0.8125,68
38,1696248110445,0.6296387,-0.013977051,0.7938843,-3.3125,-6.671875,1.265625,69
39,1696248110485,0.5817871,-0.003479004,0.7848511,-2.03125,1.546875,-1.25,70
40,1696248110525,0.66186523,0.07318115,0.6766968,2.5625,0.609375,0.34375,71
41,1696248110565,0.6623535,0.008483887,0.77874756,2.03125,4.078125,2.1875,72
42,1696248110605,0.5576172,0.023132324,0.8866577,4.953125,6.890625,4.421875,73
43,1696248110645,0.67871094,0.00018310547,0.84588623,0.515625,1.03125,1.75,74
44,1696248110685,0.57910156,0.0038452148,0.6659546,4.296875,0.203125,2.28125,75
45,1696248110725,0.67163086,0.023376465,0.9537964,3.890625,2.765625,3.375,76
46,1696248110765,0.56347656,-0.0044555664,0.840271,-3.359375,-3.75,0.828125,77
47,1696248110805,0.68115234,0.0045776367,0.7460327,0.03125,-2.609375,-5.125,78
48,1696248110845,0.67578125,0.01776123,0.84002686,1.171875,3.921875,0.859375,79
49,1696248110885,0.57714844,0.004333496,0.8475952,-4.25,0.5625,-0.140625,80
50,1696248110925,0.65112305,0.043151855,0.75164795,0.59375,-3.140625,-5.375,81
51,1696248110965,0.6760254,-0.010070801,0.80682373,-0.984375,1.8125,1.734375,82
52,1696248111005,0.54711914,0.00018310547,0.852478,-0.40625,-0.734375,1.390625,83
53,1696248111045,0.6357422,0.032165527,0.77264404,0.296875,-0.875,-3.53125,84
54,1696248111085,0.67211914,-0.0049438477,0.8200073,-1.125,0.28125,0.984375,85
55,1696248111125,0.62475586,-0.025939941,0.8151245,-1.328125,-1.0,1.125,86
56,1696248111165,0.6437988,0.030212402,0.79241943,-0.703125,-1.078125,-2.53125,87
57,1696248111205,0.6320801,0.016296387,0.79852295,-3.21875,-2.109375,-0.359375,88
58,1696248111245,0.6359863,-0.0005493164,0.83465576,-4.953125,-2.578125,-0.78125,89
59,1696248111285,0.65063477,0.023132324,0.8290405,-5.5,-3.171875,-1.296875,90
60,1696248111325,0.57714844,-0.0017700195,0.7531128,-1.609375,-6.046875,0.09375,91
61,1696248111365,0.63793945,0.030212402,0.7880249,-1.640625,-1.890625,-0.109375,92
62,1696248111405,0.62402344,0.032409668,0.8168335,-1.125,0.359375,1.140625,93
63,1696248111445,0.6425781,0.046813965,0.901062,-0.40625,0.703125,1.1875,94
64,1696248111485,0.58813477,0.020446777,0.8251343,-0.5,-1.421875,1.234375,95
65,1696248111525,0.6230469,0.04095459,0.79437256,0.109375,-1.703125,0.046875,96
66,1696248111565,0.62280273,0.029968262,0.776062,2.1875,-1.4375,-0.390625,97
67,1696248111605,0.64501953,0.016540527,0.8512573,1.15625,-0.859375,-0.359375,98
68,1696248111645,0.58325195,0.03387451,0.8602905,-1.21875,-1.84375,0.890625,99
69,1696248111685,0.6689453,-0.018127441,0.7992554,0.609375,3.296875,-1.1875,100
70,1696248111725,0.576416,0.059509277,0.7719116,7.46875,0.421875,-0.140625,101
71,1696248111765,0.6118164,0.04559326,0.8217163,2.6875,-0.046875,-1.984375,102
72,1696248111805,0.6472168,0.01751709,0.75775146,6.984375,1.640625,0.46875,103
73,1696248111845,0.6906738,-0.010803223,0.9616089,4.109375,2.5625,2.296875,104
74,1696248111885,0.5305176,0.030212402,0.7736206,-0.234375,-3.984375,2.75,105
75,1696248111925,0.6989746,-0.018371582,0.82928467,-1.59375,4.203125,0.03125,106
76,1696248111965,0.55249023,-0.026672363,0.89349365,-0.53125,0.4375,4.125,107
77,1696248112005,0.6320801,0.010437012,0.7653198,-1.625,0.796875,-4.078125,108
78,1696248112045,0.6538086,0.034362793,0.80682373,-0.515625,-2.09375,-1.0,109
79,1696248112085,0.5864258,0.0040893555,0.822937,-1.734375,-0.921875,1.46875,110
80,1696248112125,0.6533203,0.042419434,0.80877686,0.75,-2.390625,-1.4375,111
81,1696248112165,0.63964844,-0.0022583008,0.84051514,-0.1875,-0.28125,0.171875,112
82,1696248112205,0.6027832,-0.00079345703,0.8307495,-0.09375,-1.171875,0.890625,113
83,1696248112245,0.65234375,-0.00079345703,0.7579956,-1.171875,-0.875,-1.1875,114
84,1696248112285,0.64208984,0.036071777,0.84002686,-0.34375,2.515625,1.921875,115
85,1696248112325,0.60717773,-0.0029907227,0.8571167,0.59375,2.46875,1.625,116
86,1696248112365,0.6140137,0.031433105,0.8278198,-1.296875,-1.671875,-0.953125,117
87,1696248112405,0.62841797,-0.009094238,0.8209839,-0.421875,-2.3125,0.5625,118
88,1696248112445,0.5769043,0.018249512,0.76068115,1.78125,0.6875,0.15625,119
89,1696248112485,0.7211914,0.04510498,0.8612671,1.625,3.859375,0.09375,120
90,1696248112525,0.5991211,0.010437012,0.90448,-5.421875,-2.671875,2.0625,121
91,1696248112565,0.6052246,-0.009338379,0.8139038,-0.6875,-0.25,-1.453125,122
92,1696248112605,0.6713867,0.022644043,0.86151123,-0.125,-0.921875,0.34375,123
93,1696248112645,0.5202637,-0.0256958,0.77142334,-2.359375,-1.4375,-1.640625,124
94,1696248112685,0.69555664,0.043884277,0.8324585,-2.109375,2.171875,-5.015625,125
95,1696248112725,0.60253906,-0.013977051,0.8043823,-5.21875,5.328125,-1.296875,126
96,1696248112765,0.7180176,0.029724121,0.84588623,-5.09375,1.34375,-0.71875,127
97,1696248112805,0.6020508,0.00091552734,0.82196045,-1.125,-1.953125,-0.140625,128
98,1696248112845,0.65649414,-0.0095825195,0.81121826,-2.734375,-1.34375,1.109375,129
99,1696248112885,0.60375977,0.018249512,0.80877686,0.40625,-3.390625,1.640625,130
100,1696248112925,0.6542969,0.011657715,0.7633667,-2.046875,-1.25,-0.640625,131
101,1696248112965,0.6303711,0.06756592,0.86053467,-0.765625,3.21875,1.859375,132
102,1696248113005,0.6296387,0.018737793,0.82489014,-5.9375,-2.546875,-2.25,133
103,1696248113045,0.6594238,0.043884277,0.82073975,-2.9375,-6.125,-1.65625,134
104,1696248113085,0.6081543,0.04071045,0.8331909,-3.140625,-4.859375,0.171875,135
105,1696248113125,0.5942383,-0.0017700195,0.7614136,0.84375,-2.25,-0.984375,136
106,1696248113165,0.6472168,0.047302246,0.7609253,0.75,2.046875,-0.59375,137
107,1696248113205,0.6418457,0.039489746,0.8739624,0.359375,1.375,1.65625,138
108,1696248113245,0.5859375,0.049743652,0.8395386,-0.9375,-0.421875,1.09375,139
109,1696248113285,0.6809082,0.0138549805,0.8102417,0.140625,-1.25,0.375,140
110,1696248113325,0.59521484,0.039489746,0.8148804,1.296875,-1.796875,0.765625,141
111,1696248113365,0.6357422,0.04559326,0.7938843,-0.8125,0.390625,-0.171875,142
112,1696248113405,0.61328125,0.05218506,0.8505249,0.78125,0.78125,0.78125,143
113,1696248113445,0.6269531,0.03314209,0.8139038,-0.640625,-1.59375,0.15625,144
114,1696248113485,0.657959,0.0099487305,0.84588623,0.234375,-1.109375,0.359375,145
115,1696248113525,0.58203125,0.022888184,0.80096436,0.828125,-1.875,1.796875,146
116,1696248113565,0.6501465,0.034851074,0.8168335,-0.453125,0.40625,-0.53125,147
117,1696248113605,0.57714844,0.04046631,0.85272217,-0.046875,-0.015625,1.234375,148
118,1696248113645,0.64086914,0.034362793,0.81585693,-0.375,-1.671875,-1.234375,149
119,1696248113685,0.6027832,0.020202637,0.82440186,-0.109375,-2.15625,0.40625,150
120,1696248113725,0.6113281,0.028503418,0.7953491,-0.78125,-1.453125,0.046875,151
121,1696248113765,0.61035156,0.039001465,0.83343506,0.0625,1.15625,0.984375,152
122,1696248113805,0.60009766,0.034606934,0.86834717,-0.171875,-0.640625,0.5,153
123,1696248113845,0.63012695,0.016540527,0.8383179,0.25,-3.8125,0.5625,154
124,1696248113885,0.6057129,0.0072631836,0.88323975,-4.25,-0.796875,0.265625,155
125,1696248113925,0.61572266,0.07537842,0.68255615,-0.84375,-2.453125,-0.640625,156
126,1696248113965,0.6347656,0.07171631,0.82733154,1.796875,-3.0625,1.375,157
127,1696248114005,0.55200195,0.019226074,0.743103,2.546875,-0.015625,2.03125,158
128,1696248114045,0.66430664,0.020202637,0.8590698,4.21875,4.109375,0.15625,159
129,1696248114085,0.5703125,0.05218506,0.9484253,3.84375,0.9375,0.453125,160
130,1696248114125,0.6333008,-0.03253174,0.78826904,-1.953125,-8.359375,0.65625,161
131,1696248114165,0.59887695,0.035095215,0.8102417,-1.578125,-0.6875,0.609375,162
132,1696248114205,0.6105957,0.07977295,0.75335693,-0.8125,-0.6875,-1.09375,163
133,1696248114245,0.6291504,0.054138184,0.89471436,2.140625,0.8125,-0.25,164
134,1696248114285,0.5666504,0.06097412,0.9035034,0.703125,1.296875,1.03125,165
135,1696248114325,0.65722656,-0.013244629,0.8329468,0.3125,-5.953125,-0.1875,166
136,1696248114365,0.58496094,-0.0056762695,0.8427124,-1.484375,-0.5,0.765625,167
137,1696248114405,0.5983887,0.081726074,0.7494507,0.0,-0.265625,-0.359375,168
138,1696248114445,0.64868164,0.049987793,0.7670288,2.796875,-2.828125,1.578125,169
139,1696248114485,0.6459961,-0.0029907227,0.8185425,4.75,5.84375,4.140625,170
140,1696248114525,0.58935547,0.02532959,0.8890991,3.375,7.0625,1.53125,171
141,1696248114565,0.6123047,0.01361084,0.89520264,0.359375,-0.359375,2.609375,172
142,1696248114605,0.58691406,-0.004211426,0.8329468,-0.28125,-4.3125,1.03125,173
143,1696248114645,0.6142578,0.04144287,0.7653198,-1.09375,-0.875,-0.546875,174
144,1696248114685,0.63549805,0.07879639,0.7826538,2.203125,2.046875,-0.171875,175
145,1696248114725,0.62475586,0.07952881,0.8546753,3.203125,8.375,1.125,176
146,1696248114765,0.62158203,0.031921387,0.8973999,0.984375,3.484375,0.796875,177
147,1696248114805,0.6491699,-0.020080566,0.857605,1.078125,-1.78125,-0.953125,178
148,1696248114845,0.61499023,-0.018371582,0.7977905,-0.34375,-3.203125,0.8125,179
149,1696248114885,0.5905762,0.034851074,0.78778076,0.28125,-1.34375,0.390625,180
150,1696248114925,0.6452637,0.023132324,0.81951904,-2.0,1.609375,-0.859375,181
151,1696248114965,0.61499023,0.043151855,0.8097534,-1.515625,2.390625,0.96875,182
152,1696248115005,0.64282227,0.042907715,0.81073,-2.40625,3.140625,-1.40625,183
153,1696248115045,0.6340332,0.02532959,0.8637085,1.078125,-0.546875,-0.34375,184
154,1696248115085,0.6140137,0.018737793,0.81781006,-0.625,-2.953125,-0.109375,185
155,1696248115125,0.63061523,0.047790527,0.8114624,-0.890625,-3.1875,-0.6875,186
156,1696248115165,0.6171875,-0.012756348,0.80267334,-0.875,-2.796875,-0.140625,187
157,1696248115205,0.6479492,0.012634277,0.80096436,-2.046875,0.71875,0.125,188
158,1696248115245,0.6213379,0.04095459,0.8390503,-1.71875,-0.953125,0.65625,189
159,1696248115285,0.6176758,0.03363037,0.83807373,-4.28125,-1.203125,-0.265625,190
160,1696248115325,0.5854492,0.02166748,0.8163452,1.109375,-4.84375,0.390625,191
161,1696248115365,0.6064453,0.023132324,0.79852295,-1.9375,-4.265625,-1.75,192
162,1696248115405,0.66918945,0.024353027,0.81121826,-1.28125,-1.296875,-0.71875,193
163,1696248115445,0.61816406,0.03314209,0.8932495,1.390625,-2.40625,0.578125,194
164,1696248115485,0.58032227,0.016052246,0.84173584,-0.953125,-2.21875,1.421875,195
165,1696248115525,0.63793945,0.00970459,0.8551636,-4.8125,0.171875,-1.4375,196
166,1696248115565,0.5463867,0.04876709,0.8534546,-2.875,-9.5625,-1.28125,197
167,1696248115605,0.5529785,0.055603027,0.7843628,-3.453125,-5.75,-4.15625,198
168,1696248115645,0.6472168,0.10247803,0.7177124,-3.15625,3.21875,-2.328125,199
169,1696248115685,0.6159668,0.035827637,0.71209717,11.125,0.234375,2.3125,200
170,1696248115725,0.6628418,0.042663574,0.90130615,9.828125,15.125,1.859375,201
171,1696248115765,0.5439453,-0.018371582,0.95648193,4.53125,4.890625,5.953125,202
172,1696248115805,0.7302246,-0.05328369,0.79241943,-2.703125,-4.671875,-0.703125,203
173,1696248115845,0.546875,-0.013000488,0.7887573,0.5625,-3.671875,3.4375,204
174,1696248115885,0.6281738,0.078552246,0.81048584,-2.46875,-0.0625,-0.109375,205
175,1696248115925,0.5900879,0.06463623,0.7826538,3.953125,6.21875,0.375,206
176,1696248115965,0.6660156,0.053894043,0.9435425,3.765625,5.09375,1.140625,207
177,1696248116005,0.59521484,-0.0029907227,0.78118896,-0.71875,-0.65625,0.28125,208
178,1696248116045,0.6875,-0.030578613,0.77679443,0.28125,1.515625,0.234375,209
179,1696248116085,0.5883789,0.008239746,0.84002686,2.890625,2.25,3.734375,210
180,1696248116125,0.62060547,0.035827637,0.90130615,-5.015625,-1.328125,-2.71875,211
181,1696248116165,0.6472168,0.006286621,0.7394409,0.46875,-0.5,-2.125,212
182,1696248116205,0.6682129,0.020202637,0.81292725,-1.3125,-0.609375,2.859375,213
183,1696248116245,0.59936523,0.02557373,0.85980225,-2.296875,-1.703125,-0.84375,214
184,1696248116285,0.6303711,0.042419434,0.7579956,0.015625,-1.9375,-2.734375,215
185,1696248116325,0.6669922,0.018737793,0.8187866,-0.96875,-1.203125,1.015625,216
186,1696248116365,0.5793457,0.025817871,0.8095093,1.03125,-1.3125,1.109375,217
187,1696248116405,0.6699219,0.028259277,0.8707886,-0.625,-3.328125,-0.234375,218
188,1696248116445,0.60546875,0.013366699,0.7626343,-0.328125,-2.0625,0.109375,219
189,1696248116485,0.6188965,0.015075684,0.81951904,1.109375,-1.4375,-0.171875,220
190,1696248116525,0.66748047,0.004333496,0.8241577,-0.390625,-1.78125,-0.234375,221
191,1696248116565,0.5854492,0.029724121,0.83392334,1.3125,-2.046875,0.140625,222
192,1696248116605,0.64941406,0.039245605,0.79486084,0.0625,-1.828125,-0.84375,223
193,1696248116645,0.5979004,-0.012512207,0.8488159,0.671875,0.0,0.953125,224
194,1696248116685,0.6225586,-0.004211426,0.8461304,-0.484375,0.390625,-0.859375,225
195,1696248116725,0.6179199,0.032165527,0.8307495,-0.953125,-1.3125,-0.75,226
196,1696248116765,0.6154785,-0.002746582,0.8410034,-2.609375,-0.46875,-0.703125,227
197,1696248116805,0.59936523,0.012390137,0.8451538,-2.375,-0.15625,-0.75,228
198,1696248116845,0.59106445,0.012145996,0.78900146,0.78125,-1.28125,-0.390625,229
199,1696248116885,0.5812988,0.019226074,0.84051514,0.609375,0.421875,1.8125,230
200,1696248116925,0.60595703,0.015563965,0.7821655,-1.421875,1.625,1.15625,231
201,1696248116965,0.6550293,0.04168701,0.8707886,1.15625,1.5625,0.8125,232
202,1696248117005,0.6098633,0.018005371,0.8222046,-1.125,1.125,0.625,233
203,1696248117045,0.62768555,0.027526855,0.8356323,-0.328125,0.453125,-0.390625,234
204,1696248117085,0.6335449,0.03338623,0.78167725,-0.96875,-0.703125,-0.734375,235
205,1696248117125,0.61499023,0.0211792,0.81170654,-0.9375,0.734375,-0.515625,236
206,1696248117165,0.64453125,0.016540527,0.8126831,-1.84375,0.46875,-0.15625,237
207,1696248117205,0.6311035,0.03656006,0.86468506,0.09375,-0.4375,1.46875,238
208,1696248117245,0.6550293,-0.03277588,0.8690796,0.375,4.765625,1.546875,239
209,1696248117285,0.6491699,0.001159668,0.87615967,-8.5,5.515625,-0.078125,240
210,1696248117325,0.5593262,0.12884521,0.8097534,-6.4375,-6.5,-1.546875,241
211,1696248117365,0.67529297,0.008483887,0.6691284,2.703125,-4.8125,-3.859375,242
212,1696248117405,0.5949707,0.04534912,0.64715576,5.984375,-5.578125,0.34375,243
213,1696248117445,0.5883789,-0.042297363,0.8185425,5.6875,2.46875,-0.390625,244
214,1696248117485,0.6123047,0.020202637,1.0331421,6.15625,0.203125,1.765625,245
215,1696248117525,0.626709,-0.059143066,0.94696045,-1.671875,-2.21875,-0.640625,246
216,1696248117565,0.6164551,-0.016174316,0.762146,-1.546875,-2.34375,-0.46875,247
217,1696248117605,0.64038086,0.042175293,0.81463623,-0.234375,-2.03125,0.78125,248
218,1696248117645,0.5671387,0.051696777,0.8007202,3.1875,2.359375,1.390625,249
219,1696248117685,0.6855469,0.019714355,0.902771,-0.203125,4.578125,-0.59375,250
220,1696248117725,0.5710449,0.04852295,0.81073,-0.90625,-1.953125,0.625,251
221,1696248117765,0.6882324,-0.010803223,0.82147217,-0.125,0.875,-0.171875,252
222,1696248117805,0.64282227,-0.009094238,0.79730225,0.46875,-0.59375,-0.234375,253
223,1696248117845,0.64160156,0.019226074,0.7987671,0.734375,1.46875,-0.546875,254
224,1696248117885,0.5751953,0.017028809,0.8258667,1.1875,-2.71875,0.78125,255
225,1696248117925,0.6699219,-0.033996582,0.7706909,-1.109375,-3.78125,1.015625,256
226,1696248117965,0.68310547,0.0099487305,0.87835693,2.90625,-1.359375,3.15625,257
227,1696248118005,0.61035156,0.02166748,0.8744507,-4.875,-3.015625,-1.9375,258
228,1696248118045,0.638916,0.005554199,0.7850952,-0.28125,-4.46875,-2.046875,259
229,1696248118085,0.6623535,0.0026245117,0.8595581,-2.453125,-4.359375,-0.828125,260
230,1696248118125,0.56640625,0.012390137,0.8175659,-1.4375,-3.203125,-1.0,261
231,1696248118165,0.60839844,0.02532959,0.8488159,-2.703125,-2.390625,-2.109375,262
232,1696248118205,0.60253906,0.025817871,0.8356323,-3.75,-4.453125,-0.90625,263
233,1696248118245,0.59277344,0.0036010742,0.7885132,-4.15625,-5.03125,-0.6875,264
234,1696248118285,0.5839844,0.027526855,0.85980225,-0.953125,-2.75,-0.09375,265
235,1696248118325,0.61376953,0.022888184,0.8588257,-2.765625,-4.09375,-1.078125,266
236,1696248118365,0.58691406,0.020446777,0.83270264,-2.953125,-3.09375,0.015625,267
237,1696248118405,0.59228516,0.059265137,0.8114624,-2.671875,-2.84375,-1.765625,268
238,1696248118445,0.60375977,0.047546387,0.79681396,-0.09375,-1.78125,-1.40625,269
239,1696248118485,0.5734863,0.03265381,0.8734741,2.390625,0.5,0.796875,270
240,1696248118525,0.5595703,0.029724121,0.87664795,0.484375,-0.390625,-0.078125,271
241,1696248118565,0.57836914,0.0004272461,0.8456421,-0.390625,-3.203125,1.390625,272
242,1696248118605,0.5554199,0.011657715,0.88812256,-0.546875,-1.171875,1.59375,273
243,1696248118645,0.5812988,-0.0012817383,0.81536865,-0.828125,-1.09375,0.46875,274
244,1696248118685,0.6105957,0.043151855,0.8673706,1.71875,4.234375,0.171875,275
245,1696248118725,0.5847168,0.028747559,0.86639404,0.1875,3.21875,1.015625,276
246,1696248118765,0.5810547,0.043640137,0.8776245,1.46875,1.046875,1.359375,277
247,1696248118805,0.5812988,0.024353027,0.85858154,1.125,1.625,1.75,278
248,1696248118845,0.57666016,-0.0032348633,0.8060913,-0.59375,1.09375,1.40625,279
249,1696248118885,0.5991211,0.0138549805,0.7821655,2.21875,3.859375,0.734375,280
250,1696248118925,0.61499023,0.031921387,0.77459717,5.65625,5.171875,1.984375,281
251,1696248118965,0.6789551,0.055358887,0.93255615,2.125,7.640625,0.59375,282
252,1696248119005,0.61694336,0.001159668,0.8161011,0.203125,-2.015625,2.0625,283
253,1696248119045,0.6730957,-0.038391113,0.9208374,-2.703125,5.375,-0.03125,284
254,1696248119085,0.58740234,0.03338623,0.8407593,-4.0,-4.15625,-1.734375,285
255,1696248119125,0.58813477,0.074401855,0.58270264,-4.0625,-1.65625,-0.640625,286
256,1696248119165,0.6591797,0.0079956055,0.729187,-0.0625,1.53125,-2.3125,287
257,1696248119205,0.6003418,0.0138549805,0.7665405,3.4375,0.8125,-1.46875,288
258,1696248119245,0.7121582,0.06414795,0.963562,7.015625,-2.21875,-2.125,289
259,1696248119285,0.58325195,-0.03717041,0.8082886,-1.828125,-8.484375,3.359375,290
260,1696248119325,0.5756836,0.011169434,0.86102295,-3.78125,-2.65625,2.5625,291
261,1696248119365,0.60131836,0.054138184,0.77020264,3.515625,-3.703125,0.4375,292
262,1696248119405,0.60546875,0.04559326,0.805603,3.4375,0.640625,-1.921875,293
263,1696248119445,0.6135254,-0.04107666,0.96380615,6.375,-4.09375,0.984375,294
264,1696248119485,0.62768555,-0.06036377,0.8829956,5.34375,0.71875,1.359375,295
265,1696248119525,0.6516113,0.008483887,0.8793335,-2.484375,1.84375,3.171875,296
266,1696248119565,0.50561523,0.07318115,0.7496948,0.0,-8.3125,5.421875,297
267,1696248119605,0.6196289,-0.02520752,0.71868896,1.90625,1.796875,-1.859375,298
268,1696248119645,0.6010742,0.02557373,0.65667725,8.015625,-3.09375,-1.265625,299
269,1696248119685,0.6035156,0.081970215,0.7994995,5.78125,12.234375,-3.609375,300
270,1696248119725,0.6047363,-0.07623291,1.0626831,2.796875,-7.9375,2.40625,301
271,1696248119765,0.5979004,-0.12554932,0.9081421,-5.390625,-1.265625,-0.140625,302
272,1696248119805,0.6921387,0.058532715,0.7406616,-0.734375,-1.875,-0.65625,303
273,1696248119845,0.5769043,-0.0017700195,0.8331909,0.40625,-0.84375,0.65625,304
274,1696248119885,0.6230469,-0.038391113,0.8217163,-3.0625,1.859375,-0.078125,305
275,1696248119925,0.6694336,0.022888184,0.9891968,0.515625,1.734375,0.421875,306
276,1696248119965,0.60595703,-0.006164551,0.7711792,-0.03125,-0.65625,0.375,307
277,1696248120005,0.59350586,-0.04473877,0.7855835,-0.234375,-1.03125,0.6875,308
278,1696248120045,0.5905762,0.008239746,0.84198,-0.46875,0.75,-0.09375,309
279,1696248120085,0.6074219,-0.032043457,0.7994995,0.375,-1.34375,-0.640625,310
280,1696248120125,0.6286621,-0.034973145,0.83099365,-2.890625,-2.515625,1.53125,311
281,1696248120165,0.6015625,0.019958496,0.8578491,-3.640625,-2.609375,1.34375,312
282,1696248120205,0.6123047,-0.0025024414,0.8168335,-0.234375,-1.640625,0.015625,313
283,1696248120245,0.6479492,0.015563965,0.8168335,0.234375,-1.734375,-0.046875,314
284,1696248120285,0.5859375,0.038269043,0.81781006,1.59375,-0.71875,0.578125,315
285,1696248120325,0.62597656,0.003112793,0.8554077,-0.296875,1.125,-0.40625,316
286,1696248120365,0.56689453,-0.016906738,0.8961792,0.6875,-1.25,2.453125,317
287,1696248120405,0.59375,-0.0015258789,0.80340576,-1.0,-1.484375,-0.03125,318
288,1696248120445,0.6047363,-0.0029907227,0.8078003,-0.359375,-2.1875,-0.6875,319
289,1696248120485,0.60131836,-0.016662598,0.82611084,-1.234375,-0.078125,-0.59375,320
290,1696248120525,0.6569824,0.015563965,0.84661865,-0.59375,-0.4375,-0.21875,321
291,1696248120565,0.5905762,0.0006713867,0.9125366,1.0,-0.5625,1.53125,322
292,1696248120605,0.59155273,-0.023010254,0.8654175,0.5,1.15625,0.65625,323
293,1696248120645,0.5871582,0.023864746,0.76361084,1.015625,1.3125,0.25,324
294,1696248120685,0.6184082,0.010192871,0.7868042,2.984375,1.484375,-0.078125,325
295,1696248120725,0.609375,-0.006164551,0.8505249,1.03125,5.921875,1.578125,326
296,1696248120765,0.60253906,0.03778076,0.91937256,0.3125,2.28125,0.984375,327
297,1696248120805,0.62475586,-0.046691895,0.74823,2.390625,-3.28125,1.40625,328
298,1696248120845,0.607666,-0.0017700195,0.838562,1.78125,0.296875,0.796875,329
299,1696248120885,0.58813477,-0.019592285,0.74993896,0.4375,0.34375,0.0625,330
300,1696248120925,0.6862793,0.047058105,0.8500366,0.796875,6.390625,3.375,331
301,1696248120965,0.611084,0.004333496,0.8969116,-2.09375,3.125,4.5,332
302,1696248121005,0.61279297,-0.028869629,0.8209839,1.15625,-2.84375,-1.21875,333
303,1696248121045,0.63256836,-0.01739502,0.7821655,0.65625,-3.953125,0.0625,334
304,1696248121085,0.5710449,0.012390137,0.83929443,1.0,-1.359375,0.109375,335
305,1696248121125,0.65356445,-0.004699707,0.7526245,-1.421875,0.96875,-1.3125,336
306,1696248121165,0.6286621,0.049743652,0.9071655,0.625,4.625,2.59375,337
307,1696248121205,0.5788574,0.0036010742,0.8331909,-1.765625,-1.046875,0.453125,338
308,1696248121245,0.69262695,-0.013977051,0.85369873,0.921875,-1.421875,-2.1875,339
309,1696248121285,0.6159668,-0.011291504,0.80999756,1.515625,-2.484375,0.96875,340
310,1696248121325,0.61328125,0.0065307617,0.8012085,-0.6875,-0.15625,0.59375,341
311,1696248121365,0.63623047,0.00579834,0.79974365,-1.6875,4.8125,2.015625,342
312,1696248121405,0.5761719,0.0006713867,0.82806396,-0.4375,1.8125,3.21875,343
313,1696248121445,0.6213379,-0.0044555664,0.8397827,0.59375,-2.125,0.375,344
314,1696248121485,0.63183594,-0.017150879,0.79681396,0.109375,-0.296875,-0.125,345
315,1696248121525,0.58325195,0.0048217773,0.8456421,0.5625,-1.296875,0.703125,346
316,1696248121565,0.6628418,0.009460449,0.7201538,0.0625,4.78125,-0.921875,347
317,1696248121605,0.6789551,0.0446167,0.83270264,0.796875,3.765625,1.046875,348
318,1696248121645,0.60668945,0.02166748,0.807312,-2.125,-2.5,0.46875,349
319,1696248121685,0.64404297,-0.043518066,0.8109741,0.90625,-0.4375,2.4375,350
320,1696248121725,0.6154785,0.007751465,0.83270264,0.546875,-2.015625,-0.78125,351
321,1696248121765,0.6477051,-0.017150879,0.776062,0.859375,3.921875,-0.484375,352
322,1696248121805,0.63623047,0.07147217,0.8004761,0.046875,1.84375,0.015625,353
323,1696248121845,0.6555176,0.00018310547,0.83636475,-1.125,-4.484375,1.640625,354
324,1696248121885,0.62768555,-0.05303955,0.7509155,-2.078125,-1.6875,1.15625,355
325,1696248121925,0.6381836,0.012145996,0.8500366,-0.96875,-2.203125,-1.515625,356
326,1696248121965,0.6513672,0.0079956055,0.7855835,-1.34375,0.671875,-0.265625,357
327,1696248122005,0.5888672,0.053649902,0.8510132,0.90625,-2.234375,0.234375,358
328,1696248122045,0.6767578,-0.020324707,0.83026123,-0.171875,-1.328125,0.5625,359
329,1696248122085,0.62768555,-0.014953613,0.744812,-1.46875,-2.34375,-1.1875,360
330,1696248122125,0.607666,0.00970459,0.8324585,-2.953125,0.421875,-0.078125,361
331,1696248122165,0.5944824,-0.00079345703,0.8163452,-3.65625,-0.4375,1.5625,362
332,1696248122205,0.6628418,0.020690918,0.76727295,-0.359375,0.953125,-1.140625,363
333,1696248122245,0.59716797,0.034118652,0.8278198,1.46875,-0.265625,1.265625,364
334,1696248122285,0.6333008,-0.012512207,0.82855225,-0.578125,0.21875,-0.109375,365
335,1696248122325,0.64404297,0.026550293,0.8148804,-0.25,-1.40625,-0.296875,366
336,1696248122365,0.6279297,0.007019043,0.79730225,-1.875,-0.40625,-0.265625,367
337,1696248122405,0.6425781,0.009460449,0.809021,0.203125,-0.421875,-0.125,368
338,1696248122445,0.61816406,0.02508545,0.7328491,2.53125,0.421875,-0.640625,369
339,1696248122485,0.6726074,0.019714355,0.8746948,2.015625,0.015625,0.65625,370
340,1696248122525,0.5905762,0.0060424805,0.86468506,-0.703125,-5.59375,1.71875,371
341,1696248122565,0.6538086,-0.06817627,0.9057007,-0.609375,1.4375,0.640625,372
342,1696248122605,0.6113281,0.002380371,0.8456421,-6.03125,-6.34375,-1.875,373
343,1696248122645,0.5830078,0.038513184,0.69403076,1.4375,-2.484375,-3.328125,374
344,1696248122685,0.62939453,0.03289795,0.8065796,-0.875,-0.0625,-1.3125,375
345,1696248122725,0.5957031,0.022644043,0.7494507,-0.78125,-0.171875,-0.078125,376
346,1696248122765,0.63134766,0.014099121,0.7406616,5.71875,-0.75,-0.390625,377
347,1696248122805,0.6479492,-0.010070801,0.9389038,5.109375,2.15625,1.6875,378
348,1696248122845,0.57373047,-0.008361816,0.7831421,-0.1875,-2.75,2.390625,379
349,1696248122885,0.65527344,-0.023498535,0.77093506,0.890625,-1.78125,0.78125,380
350,1696248122925,0.6359863,0.022888184,0.88568115,3.109375,0.953125,4.484375,381
351,1696248122965,0.6374512,0.029968262,0.8822632,-2.25,-0.09375,-1.28125,382
352,1696248123005,0.6496582,-0.034973145,0.74505615,-0.515625,-0.203125,0.21875,383
353,1696248123045,0.611084,0.023864746,0.8295288,2.984375,1.375,0.96875,384
354,1696248123085,0.6164551,-0.00982666,0.80926514,0.421875,1.25,0.296875,385
355,1696248123125,0.6201172,-0.0029907227,0.8121948,0.328125,-1.96875,0.125,386
356,1696248123165,0.654541,-0.04888916,0.8029175,-1.75,0.59375,0.15625,387
357,1696248123205,0.6230469,-0.024719238,0.8666382,-1.34375,-0.75,1.515625,388
358,1696248123245,0.6298828,-0.0051879883,0.8121948,-4.703125,-2.46875,-1.546875,389
359,1696248123285,0.564209,0.062194824,0.76678467,-0.984375,-2.875,-0.265625,390
360,1696248123325,0.657959,0.034118652,0.8336792,-1.4375,1.15625,-0.78125,391
361,1696248123365,0.64575195,0.0119018555,0.7741089,-0.671875,0.421875,0.25,392
362,1696248123405,0.6442871,-0.010803223,0.82318115,-1.796875,1.03125,0.890625,393
363,1696248123445,0.59375,0.03387451,0.82806396,-0.96875,0.921875,0.40625,394
364,1696248123485,0.62353516,0.003112793,0.7860718,-1.734375,-1.4375,-0.984375,395
365,1696248123525,0.63793945,0.007019043,0.81048584,-0.140625,0.015625,0.1875,396
366,1696248123565,0.6689453,0.028503418,0.7885132,-0.1875,-2.0,-0.734375,397
367,1696248123605,0.69091797,-0.0154418945,0.85150146,2.453125,-3.609375,0.03125,398
368,1696248123645,0.5632324,0.04168701,0.79803467,2.625,-5.1875,1.375,399
369,1696248123685,0.6501465,0.008972168,0.8185425,3.703125,-2.71875,0.234375,400
370,1696248123725,0.62060547,-0.026672363,0.81414795,4.328125,-2.578125,2.3125,401
371,1696248123765,0.56811523,0.050231934,0.7367554,3.5,-4.640625,1.703125,402
372,1696248123805,0.67822266,0.027526855,0.91937256,3.09375,4.203125,1.34375,403
373,1696248123845,0.5522461,-0.022033691,0.85687256,-1.578125,-0.46875,1.21875,404
374,1696248123885,0.60717773,-0.007385254,0.85980225,0.796875,-0.875,0.0,405
375,1696248123925,0.6386719,-0.07476807,0.8348999,-1.890625,-1.328125,0.265625,406
376,1696248123965,0.5500488,-0.002746582,0.7999878,-5.109375,-0.5,-1.578125,407
377,1696248124005,0.6003418,0.03289795,0.855896,-4.75,-1.984375,-0.3125,408
378,1696248124045,0.65966797,-0.024230957,0.7963257,-6.03125,-0.625,0.265625,409
379,1696248124085,0.6489258,0.015319824,0.83148193,-2.578125,-1.671875,-2.078125,410
380,1696248124125,0.6081543,0.012390137,0.8475952,-1.609375,-4.953125,0.359375,411
381,1696248124165,0.65527344,-0.00592041,0.83807373,-3.859375,-1.0,-1.71875,412
382,1696248124205,0.5883789,0.027526855,0.84124756,-4.046875,-1.890625,-2.078125,413
383,1696248124245,0.61157227,0.03289795,0.7328491,-2.890625,0.421875,-1.390625,414
384,1696248124285,0.5998535,0.085876465,0.8082886,0.703125,2.40625,-0.90625,415
385,1696248124325,0.58935547,0.038024902,0.8126831,0.609375,-1.25,1.09375,416
386,1696248124365,0.68481445,-0.009094238,0.7785034,4.390625,0.1875,0.015625,417
387,1696248124405,0.58984375,-0.008850098,0.8991089,5.46875,-0.796875,1.71875,418
388,1696248124445,0.57299805,0.0016479492,0.9105835,-0.703125,-0.828125,1.265625,419
389,1696248124485,0.6381836,-0.038146973,0.869812,-0.921875,-3.8125,0.0625,420
390,1696248124525,0.58569336,0.04949951,0.79852295,-0.71875,-1.21875,-0.1875,421
391,1696248124565,0.6459961,0.11029053,0.79803467,-1.28125,2.3125,-1.328125,422
392,1696248124605,0.6064453,0.022888184,0.80462646,3.65625,-0.734375,0.5625,423
393,1696248124645,0.6171875,-0.020324707,0.7003784,8.921875,0.171875,0.390625,424
394,1696248124685,0.6022949,0.04071045,0.7953491,11.71875,6.609375,1.921875,425
395,1696248124725,0.5847168,-0.05303955,0.9286499,1.65625,0.0,5.0625,426
396,1696248124765,0.6442871,-0.022766113,0.91693115,-1.515625,0.1875,1.34375,427
397,1696248124805,0.61499023,-0.02178955,0.7247925,-1.09375,0.859375,3.078125,428
398,1696248124845,0.62524414,0.036315918,0.90130615,2.9375,6.078125,2.796875,429
399,1696248124885,0.61499023,0.028259277,0.8422241,-2.71875,4.65625,0.703125,430
400,1696248124925,0.6777344,0.0368042,0.84002686,2.71875,0.890625,-1.453125,431
401,1696248124965,0.63427734,-0.0413208,0.7352905,-0.046875,-0.03125,1.53125,432
402,1696248125005,0.61694336,-0.02911377,0.8866577,0.71875,-1.140625,-0.203125,433
403,1696248125045,0.6088867,-0.01373291,0.7243042,-1.984375,-2.5625,-2.359375,434
404,1696248125085,0.6738281,-0.02545166,0.8397827,0.6875,-1.046875,1.796875,435
405,1696248125125,0.5625,-0.008850098,0.7650757,-0.453125,-5.0,0.0625,436
406,1696248125165,0.66748047,0.0040893555,0.84954834,0.328125,2.71875,0.96875,437
407,1696248125205,0.5834961,0.039245605,0.8414917,0.1875,-0.015625,0.71875,438
408,1696248125245,0.6669922,0.0065307617,0.81707764,-0.859375,-2.1875,-1.09375,439
409,1696248125285,0.6425781,-0.02935791,0.8060913,0.78125,-2.1875,1.09375,440
410,1696248125325,0.6191406,0.0018920898,0.7965698,-0.546875,2.078125,-0.34375,441
411,1696248125365,0.59594727,0.028259277,0.8607788,0.28125,1.421875,1.421875,442
412,1696248125405,0.626709,-0.015930176,0.77630615,-0.5625,1.296875,0.8125,443
413,1696248125445,0.62475586,-0.018371582,0.86102295,-1.484375,1.40625,1.453125,444
414,1696248125485,0.64624023,-0.0095825195,0.79803467,-1.828125,-2.703125,-0.484375,445
415,1696248125525,0.6179199,-0.013000488,0.76361084,-2.3125,0.703125,-0.9375,446
416,1696248125565,0.592041,0.058044434,0.8312378,-1.640625,2.8125,0.890625,447
417,1696248125605,0.6921387,-0.0037231445,0.8222046,0.109375,1.1875,1.84375,448
418,1696248125645,0.6230469,0.018005371,0.8012085,2.390625,0.515625,0.875,449
419,1696248125685,0.6279297,0.058532715,0.8571167,2.109375,-0.71875,0.78125,450
420,1696248125725,0.6520996,-0.0037231445,0.73724365,1.46875,1.078125,-0.03125,451
421,1696248125765,0.623291,0.028015137,0.8566284,2.984375,-1.90625,0.71875,452
422,1696248125805,0.626709,-0.0068969727,0.67352295,1.96875,-0.671875,1.671875,453
423,1696248125845,0.67529297,0.012390137,0.90838623,5.34375,6.4375,2.21875,454
424,1696248125885,0.5324707,0.009216309,0.8373413,-1.5,-1.640625,-0.578125,455
425,1696248125925,0.6652832,-0.039611816,0.80682373,0.390625,-2.234375,0.4375,456
426,1696248125965,0.6184082,-0.059387207,0.79364014,-1.75,-4.1875,1.046875,457
427,1696248126005,0.61816406,0.010681152,0.77093506,-0.25,-0.40625,-1.84375,458
428,1696248126045,0.66748047,0.046813965,0.91571045,3.3125,3.28125,0.6875,459
429,1696248126085,0.6418457,0.01776123,0.79364014,-4.40625,-0.578125,0.421875,460
430,1696248126125,0.6340332,-0.0413208,0.82611084,0.390625,-1.84375,1.953125,461
431,1696248126165,0.6435547,-0.009338379,0.8180542,-1.171875,-1.65625,-0.265625,462
432,1696248126205,0.6118164,0.022155762,0.7592163,0.8125,-2.0625,-1.421875,463
433,1696248126245,0.6455078,0.030456543,0.8234253,-0.375,-0.84375,1.265625,464
434,1696248126285,0.66503906,-0.003479004,0.79681396,-0.40625,-1.625,-0.40625,465
435,1696248126325,0.64501953,-0.040100098,0.80633545,-1.703125,0.9375,1.625,466
436,1696248126365,0.67163086,0.06756592,0.8043823,-2.984375,-0.796875,-1.953125,467
437,1696248126405,0.64404297,-0.024719238,0.81414795,-0.390625,-1.578125,-1.71875,468
438,1696248126445,0.58691406,0.019714355,0.79193115,-1.765625,1.0,1.734375,469
439,1696248126485,0.66259766,0.01776123,0.80804443,-1.171875,-0.859375,-0.453125,470
440,1696248126525,0.6513672,-0.025939941,0.80389404,0.375,-0.484375,-0.25,471
441,1696248126565,0.5871582,0.008483887,0.79974365,-1.515625,1.328125,-0.765625,472
442,1696248126605,0.62353516,0.024108887,0.8290405,-0.875,1.671875,-0.9375,473
443,1696248126645,0.68237305,0.020935059,0.78289795,0.5625,1.640625,-0.640625,474
444,1696248126685,0.64160156,0.043395996,0.8209839,1.671875,1.078125,1.46875,475
445,1696248126725,0.6503906,-0.0010375977,0.8253784,1.0625,0.03125,2.125,476
446,1696248126765,0.64819336,0.016296387,0.7987671,1.078125,-0.453125,0.1875,477
447,1696248126805,0.64746094,-0.034729004,0.8361206,-1.3125,-2.109375,1.125,478
448,1696248126845,0.67626953,-0.024963379,0.87835693,-3.1875,0.71875,-2.171875,479
449,1696248126885,0.5852051,0.026550293,0.8143921,-6.734375,-10.484375,-3.6875,480
450,1696248126925,0.6225586,0.039489746,0.7116089,-11.375,-4.46875,-6.125,481
451,1696248126965,0.68847656,0.03363037,0.7284546,-6.46875,2.71875,-0.890625,482
452,1696248127005,0.5852051,0.050476074,0.7428589,1.5,-1.96875,0.234375,483
453,1696248127045,0.70532227,0.00970459,0.7782593,7.171875,1.109375,-0.03125,484
454,1696248127085,0.6311035,-0.026916504,1.0079956,6.984375,-1.984375,5.0,485
455,1696248127125,0.5812988,-0.02178955,0.80023193,-1.375,-6.484375,0.578125,486
456,1696248127165,0.6386719,0.0079956055,0.7855835,-3.75,-2.171875,0.28125,487
457,1696248127205,0.607666,0.061706543,0.80023193,-0.984375,-2.296875,1.15625,488
458,1696248127245,0.6218262,0.054870605,0.762146,-0.796875,-2.421875,-0.640625,489
459,1696248127285,0.6159668,0.019226074,0.84051514,3.875,0.203125,1.4375,490
460,1696248127325,0.6574707,-0.006164551,0.94329834,2.546875,0.59375,0.671875,491
461,1696248127365,0.6184082,-0.07525635,0.826355,0.375,-3.40625,0.0,492
462,1696248127405,0.6269531,-0.03765869,0.8468628,-6.078125,1.828125,-0.125,493
463,1696248127445,0.56347656,0.12738037,0.7675171,-1.546875,-3.796875,0.796875,494
464,1696248127485,0.6699219,0.06561279,0.7028198,3.671875,-1.359375,0.375,495
465,1696248127525,0.60009766,0.045837402,0.7640991,5.953125,0.359375,1.65625,496
466,1696248127565,0.6311035,-0.014221191,0.77752686,7.96875,-1.65625,-1.625,497
467,1696248127605,0.6279297,-0.018615723,1.024353,4.5,0.65625,0.171875,498
468,1696248127645,0.55615234,-0.074523926,0.8173218,-5.453125,-6.234375,-0.75,499
469,1696248127685,0.6530762,-0.018859863,0.8036499,-8.65625,-2.15625,-3.5,500
470,1696248127725,0.6303711,0.097595215,0.8566284,-4.34375,-3.421875,0.765625,501
471,1696248127765,0.5620117,0.03778076,0.79974365,4.53125,-5.5,1.5625,502
472,1696248127805,0.5949707,0.002380371,0.9515991,1.140625,4.125,0.40625,503
473,1696248127845,0.65600586,0.008239746,0.7653198,-1.328125,-4.203125,-1.1875,504
474,1696248127885,0.60009766,-0.00030517578,0.8539429,-1.953125,1.640625,0.546875,505
475,1696248127925,0.58618164,0.08514404,0.77801514,3.078125,-0.734375,0.84375,506
476,1696248127965,0.595459,-0.005432129,0.80682373,7.15625,-0.203125,0.453125,507
477,1696248128005,0.6413574,-0.0020141602,0.9738159,-0.234375,4.140625,0.828125,508
478,1696248128045,0.5812988,-0.05279541,0.78704834,-0.28125,-4.96875,0.15625,509
479,1696248128085,0.60595703,0.03656006,0.8373413,-0.984375,-0.875,-0.40625,510
480,1696248128125,0.6164551,0.08709717,0.7704468,0.71875,-0.9375,-0.5625,511
481,1696248128165,0.59814453,0.019958496,0.7999878,5.15625,-1.59375,0.140625,512
482,1696248128205,0.61499023,-0.0134887695,0.776062,3.59375,3.828125,0.3125,513
483,1696248128245,0.5891113,0.0018920898,0.8685913,9.34375,4.59375,1.296875,514
484,1696248128285,0.64575195,-0.038391113,0.9069214,-2.03125,0.953125,2.015625,515
485,1696248128325,0.5732422,-0.034240723,0.79901123,-1.453125,-2.28125,3.640625,516
486,1696248128365,0.625,0.039978027,0.8468628,-1.78125,2.484375,0.125,517
487,1696248128405,0.6125488,0.050720215,0.8217163,0.171875,-0.1875,1.453125,518
488,1696248128445,0.5739746,0.008728027,0.6859741,7.296875,8.453125,0.71875,519
489,1696248128485,0.6635742,0.06048584,0.82073975,6.0,6.5,-0.21875,520
490,1696248128525,0.670166,-0.02154541,0.85614014,5.5,8.078125,1.828125,521
491,1696248128565,0.7211914,-0.08453369,0.93133545,2.671875,5.515625,0.453125,522
492,1696248128605,0.6254883,-0.0713501,0.7838745,-0.140625,0.453125,2.046875,523
493,1696248128645,0.5842285,-0.028625488,0.776062,-1.703125,-0.546875,0.015625,524
494,1696248128685,0.69677734,0.0099487305,0.7885132,-1.5625,0.03125,-0.828125,525
495,1696248128725,0.6176758,0.008483887,0.76068115,-1.5625,1.25,-0.34375,526
496,1696248128765,0.6489258,0.0119018555,0.84417725,-1.390625,0.75,-0.3125,527
497,1696248128805,0.6813965,-0.049865723,0.82562256,-6.421875,-4.3125,-1.234375,528
498,1696248128845,0.576416,0.010925293,0.78289795,-2.84375,-4.09375,-0.515625,529
499,1696248128885,0.6867676,0.029968262,0.76776123,-2.953125,-1.65625,-3.34375,530
500,1696248128925,0.68408203,-0.018615723,0.78900146,-0.71875,-2.890625,-0.984375,531
501,1696248128965,0.6364746,-0.012268066,0.8317261,-1.0625,-3.28125,1.09375,532
502,1696248129005,0.6311035,-0.018371582,0.84588623,-4.640625,-7.4375,-0.640625,533
503,1696248129045,0.6386719,-0.02130127,0.8554077,-6.109375,-2.71875,-0.75,534
504,1696248129085,0.51416016,-0.00592041,0.8600464,0.234375,-3.0625,0.625,535
505,1696248129125,0.6843262,0.04949951,0.65740967,0.453125,-1.546875,-2.65625,536
506,1696248129165,0.6599121,0.050476074,0.7616577,7.671875,2.03125,0.734375,537
507,1696248129205,0.64038086,-0.020324707,0.7514038,9.421875,-2.046875,2.65625,538
508,1696248129245,0.6496582,-0.031555176,0.8829956,4.484375,4.109375,2.5625,539
509,1696248129285,0.6464844,-0.026672363,0.82318115,-1.125,2.453125,2.171875,540
510,1696248129325,0.63549805,-0.07574463,0.77801514,1.328125,0.734375,2.234375,541
511,1696248129365,0.6274414,-0.007385254,0.7863159,-2.515625,1.546875,-0.4375,542
512,1696248129405,0.6281738,0.018005371,0.8397827,-1.515625,0.3125,0.0,543
513,1696248129445,0.6425781,-0.04083252,0.7887573,-1.15625,-3.1875,-0.65625,544
514,1696248129485,0.64282227,0.025817871,0.7994995,-0.421875,-0.671875,-2.875,545
515,1696248129525,0.63720703,0.012145996,0.7850952,1.046875,-1.40625,-0.34375,546
516,1696248129565,0.6582031,-0.022521973,0.7404175,1.984375,-1.953125,-0.34375,547
517,1696248129605,0.6347656,-0.043762207,0.8461304,3.46875,-0.28125,0.828125,548
518,1696248129645,0.6459961,-0.024963379,0.87127686,-2.59375,-0.5,0.890625,549
519,1696248129685,0.6352539,-0.093811035,0.84051514,-3.6875,-0.859375,-1.515625,550
520,1696248129725,0.6262207,0.017028809,0.8517456,-2.609375,-1.375,-1.203125,551
521,1696248129765,0.5900879,0.039245605,0.7682495,-2.5625,-2.625,-1.546875,552
522,1696248129805,0.7307129,0.039489746,0.6959839,-0.921875,0.390625,-0.71875,553
523,1696248129845,0.60839844,0.0053100586,0.7838745,6.09375,-0.375,2.75,554
524,1696248129885,0.65112305,-0.062072754,0.75897217,5.21875,0.375,0.546875,555
525,1696248129925,0.6472168,-0.010070801,0.81829834,3.3125,5.9375,2.125,556
526,1696248129965,0.5773926,-0.059143066,0.91864014,-0.109375,2.4375,3.203125,557
527,1696248130005,0.5358887,-0.046447754,0.789978,0.421875,1.78125,-0.578125,558
528,1696248130045,0.7116699,-0.009094238,0.79437256,-1.671875,2.453125,-2.296875,559
529,1696248130085,0.6999512,0.053649902,0.77923584,0.0625,-0.375,0.703125,560
530,1696248130125,0.6542969,-0.02545166,0.73846436,-5.015625,4.5,-0.5625,561
531,1696248130165,0.73535156,0.03753662,0.8954468,2.578125,6.078125,2.59375,562
532,1696248130205,0.6203613,-0.053771973,0.8468628,-1.140625,-0.40625,0.078125,563
533,1696248130245,0.65356445,-0.09893799,0.7301636,0.828125,-0.390625,1.6875,564
534,1696248130285,0.64453125,-0.003967285,0.7572632,0.765625,-0.390625,0.328125,565
535,1696248130325,0.6401367,-0.0015258789,0.71502686,-1.453125,0.640625,-0.109375,566
536,1696248130365,0.6574707,-0.0015258789,0.7975464,-3.875,-0.328125,1.859375,567
537,1696248130405,0.60595703,0.014831543,0.80096436,-2.46875,-0.515625,-0.234375,568
538,1696248130445,0.74560547,-0.030334473,0.77874756,0.40625,-1.734375,-1.296875,569
539,1696248130485,0.68603516,-0.013244629,0.8239136,0.171875,-2.1875,0.84375,570
540,1696248130525,0.60913086,-0.017150879,0.75335693,-1.75,-1.375,0.171875,571
541,1696248130565,0.73999023,0.04876709,0.8258667,-3.625,2.78125,-0.46875,572
542,1696248130605,0.64208984,-0.018615723,0.80023193,1.890625,-0.25,1.71875,573
543,1696248130645,0.6491699,-0.03302002,0.78900146,-1.359375,-1.265625,-0.328125,574
544,1696248130685,0.6140137,0.008972168,0.7579956,-0.328125,1.8125,-0.203125,575
545,1696248130725,0.67163086,-0.0015258789,0.746521,-3.0,3.40625,-2.40625,576
546,1696248130765,0.66674805,-0.0071411133,0.7523804,-3.453125,-1.0,-1.796875,577
547,1696248130805,0.69018555,0.0021362305,0.78582764,-2.75,-0.03125,0.484375,578
548,1696248130845,0.68725586,0.010925293,0.7958374,-1.296875,-1.671875,0.125,579
549,1696248130885,0.6682129,-0.013244629,0.78948975,0.046875,-1.8125,-0.71875,580
550,1696248130925,0.66967773,0.0079956055,0.776062,-0.25,-2.484375,0.28125,581
551,1696248130965,0.64453125,0.0119018555,0.81243896,-1.359375,-4.015625,0.65625,582
552,1696248131005,0.62646484,-0.0029907227,0.8336792,-3.71875,-4.78125,-0.28125,583
553,1696248131045,0.6669922,0.0026245117,0.836853,-7.640625,1.703125,-0.953125,584
554,1696248131085,0.64208984,0.02166748,0.7970581,-1.5,2.515625,-0.828125,585
555,1696248131125,0.6345215,-0.0020141602,0.7160034,-3.59375,1.8125,-3.390625,586
556,1696248131165,0.72509766,0.08392334,0.7235718,-3.640625,5.609375,-1.921875,587
557,1696248131205,0.63061523,0.026062012,0.75994873,3.34375,-1.25,1.75,588
558,1696248131245,0.69018555,-0.027160645,0.7579956,3.375,-0.90625,1.03125,589
559,1696248131285,0.6694336,-0.018127441,0.82733154,6.328125,-5.609375,1.171875,590
560,1696248131325,0.67089844,-0.030822754,0.8366089,-2.9375,-0.375,-0.296875,591
561,1696248131365,0.6826172,-0.016906738,0.758728,-4.0,0.0625,-0.15625,592
562,1696248131405,0.65283203,0.081726074,0.7543335,-2.234375,1.84375,0.109375,593
563,1696248131445,0.6779785,0.07952881,0.71990967,-0.25,-0.625,-0.546875,594
564,1696248131485,0.6772461,0.020935059,0.7067261,5.859375,-1.046875,0.671875,595
565,1696248131525,0.70214844,-0.022766113,0.6659546,6.953125,-4.015625,-0.140625,596
566,1696248131565,0.65063477,0.009460449,0.8949585,10.140625,0.875,3.8125,597
567,1696248131605,0.63427734,-0.07159424,0.83880615,-1.328125,-1.84375,2.171875,598
568,1696248131645,0.6765137,-0.07305908,0.7340698,1.171875,-0.546875,2.09375,599
569,1696248131685,0.66967773,0.03778076,0.7855835,0.109375,-1.1875,0.71875,600
570,1696248131725,0.6201172,0.038269043,0.63739014,-1.15625,-1.921875,0.21875,601
571,1696248131765,0.7541504,0.055603027,0.89471436,1.5625,3.921875,2.078125,602
572,1696248131805,0.60839844,-0.030334473,0.89715576,-0.40625,1.84375,2.265625,603
573,1696248131845,0.6730957,0.00018310547,0.76849365,-0.09375,3.90625,-3.8125,604
574,1696248131885,0.7282715,-0.033996582,0.8007202,0.765625,0.625,2.515625,605
575,1696248131925,0.58154297,0.001159668,0.7665405,-1.453125,2.6875,0.828125,606
576,1696248131965,0.6982422,0.008239746,0.7789917,-0.984375,1.703125,-1.484375,607
577,1696248132005,0.66625977,-0.00982666,0.8102417,-3.1875,-4.015625,1.109375,608
578,1696248132045,0.62939453,0.04144287,0.74383545,-1.9375,-4.515625,-1.8125,609
579,1696248132085,0.6801758,-0.018127441,0.7394409,0.953125,-2.390625,-1.515625,610
580,1696248132125,0.70410156,0.003112793,0.7416382,-4.765625,-0.796875,-1.890625,611
581,1696248132165,0.6772461,0.020446777,0.7809448,-2.59375,-2.078125,-1.3125,612
582,1696248132205,0.6669922,0.032165527,0.7819214,-2.09375,-2.859375,-0.140625,613
583,1696248132245,0.6977539,-0.0056762695,0.77996826,-0.78125,-2.796875,0.875,614
584,1696248132285,0.6472168,-0.0064086914,0.8204956,1.140625,-2.796875,0.625,615
585,1696248132325,0.6257324,0.008728027,0.7843628,-2.859375,-3.015625,0.171875,616
586,1696248132365,0.6784668,-0.0051879883,0.79364014,-3.015625,-6.625,0.75,617
587,1696248132405,0.654541,-0.014709473,0.8185425,-3.1875,-1.984375,0.3125,618
588,1696248132445,0.53344727,0.010925293,0.80267334,-6.609375,1.0,-0.390625,619
589,1696248132485,0.74560547,0.08734131,0.7416382,-3.171875,3.0625,-5.875,620
590,1696248132525,0.6809082,0.059265137,0.77508545,1.828125,0.0,0.828125,621
591,1696248132565,0.6369629,0.016296387,0.77948,3.140625,-1.21875,1.6875,622
592,1696248132605,0.68530273,-0.006652832,0.7694702,2.15625,-1.6875,0.296875,623
593,1696248132645,0.6237793,-0.0010375977,0.9035034,3.3125,-4.296875,2.5,624
594,1696248132685,0.5957031,-0.046447754,0.81170654,-1.625,-1.453125,1.46875,625
595,1696248132725,0.69873047,0.014831543,0.8151245,-3.53125,2.609375,-1.15625,626
596,1696248132765,0.63427734,0.074401855,0.7391968,0.78125,0.234375,2.109375,627
597,1696248132805,0.66967773,0.08538818,0.730896,1.3125,-1.4375,-0.625,628
598,1696248132845,0.66381836,-0.0022583008,0.7279663,6.015625,-1.15625,0.984375,629
599,1696248132885,0.6838379,-0.013244629,0.73773193,8.8125,-3.3125,1.09375,630
600,1696248132925,0.7380371,0.034118652,0.92840576,8.15625,8.65625,1.484375,631
601,1696248132965,0.5107422,-0.093811035,0.86468506,0.03125,-5.59375,4.234375,632
602,1696248133005,0.6491699,-0.03277588,0.8114624,-3.90625,1.3125,-1.234375,633
603,1696248133045,0.6713867,0.0119018555,0.7958374,-2.21875,-2.265625,2.125,634
604,1696248133085,0.66503906,0.041931152,0.7457886,-3.3125,0.03125,-1.953125,635
605,1696248133125,0.69018555,0.066345215,0.75946045,-1.421875,-2.46875,-3.328125,636
606,1696248133165,0.6430664,-0.0032348633,0.8163452,-1.546875,-2.46875,0.078125,637
607,1696248133205,0.6726074,-0.020324707,0.80584717,-3.8125,-1.484375,-1.140625,638
608,1696248133245,0.6279297,0.0018920898,0.8036499,-0.109375,0.390625,0.203125,639
609,1696248133285,0.6286621,0.016052246,0.7645874,0.453125,-1.171875,0.3125,640
610,1696248133325,0.63500977,0.0072631836,0.78778076,2.28125,-2.203125,0.828125,641
611,1696248133365,0.64575195,-0.004699707,0.8534546,2.40625,-2.703125,1.0625,642
612,1696248133405,0.6418457,-0.0064086914,0.838562,0.015625,0.125,0.6875,643
613,1696248133445,0.67626953,-0.002746582,0.82489014,-2.96875,2.78125,0.609375,644
614,1696248133485,0.6298828,0.06903076,0.8131714,-1.03125,-2.421875,0.40625,645
615,1696248133525,0.6437988,0.005554199,0.70355225,1.3125,-1.71875,-0.890625,646
616,1696248133565,0.68774414,0.034362793,0.68548584,3.453125,1.828125,-1.140625,647
617,1696248133605,0.6413574,0.053649902,0.74871826,8.828125,7.53125,3.84375,648
618,1696248133645,0.6621094,-0.055725098,0.80145264,5.90625,2.8125,5.25,649
619,1696248133685,0.7128906,-0.08135986,0.9503784,0.453125,0.921875,0.65625,650
620,1696248133725,0.52685547,-0.06524658,0.70770264,0.109375,-0.96875,2.953125,651
621,1696248133765,0.70092773,0.039978027,0.81414795,-1.234375,-0.421875,1.296875,652
622,1696248133805,0.6269531,0.008239746,0.7543335,-2.296875,-0.390625,0.109375,653
623,1696248133845,0.69750977,0.023620605,0.8197632,-2.15625,1.546875,-2.265625,654
624,1696248133885,0.6867676,0.023620605,0.78411865,-3.203125,-0.765625,-0.203125,655
625,1696248133925,0.66308594,0.0060424805,0.762146,-0.96875,-0.78125,-0.578125,656
626,1696248133965,0.6398926,0.0099487305,0.78289795,0.828125,-1.921875,-0.65625,657
627,1696248134005,0.6513672,-0.028137207,0.7584839,-1.421875,0.1875,0.296875,658
628,1696248134045,0.6447754,0.011657715,0.7897339,-1.703125,2.28125,1.640625,659
629,1696248134085,0.66064453,0.016784668,0.836853,-1.421875,-0.796875,2.484375,660
630,1696248134125,0.6694336,-0.07672119,0.85491943,-4.0,2.640625,1.046875,661
631,1696248134165,0.7265625,0.036315918,0.85809326,-14.171875,2.796875,-1.078125,662
632,1696248134205,0.57006836,0.046325684,0.6913452,0.203125,-4.859375,-0.609375,663
633,1696248134245,0.654541,0.07196045,0.6708374,-2.796875,2.921875,-3.03125,664
634,1696248134285,0.717041,0.07513428,0.6937866,1.109375,-0.03125,-2.15625,665
635,1696248134325,0.6623535,0.012145996,0.78900146,6.375,-5.59375,2.484375,666
636,1696248134365,0.6125488,-0.039367676,0.8673706,2.265625,-6.671875,0.703125,667
637,1696248134405,0.6386719,-0.047424316,0.8312378,-0.34375,-2.53125,1.109375,668
638,1696248134445,0.6694336,0.014343262,0.8007202,-4.015625,-2.046875,-0.78125,669
639,1696248134485,0.63134766,0.10736084,0.72454834,0.15625,-3.109375,2.078125,670
640,1696248134525,0.69140625,0.07611084,0.7055054,1.75,-0.921875,-1.34375,671
641,1696248134565,0.68310547,0.058532715,0.6647339,12.046875,-4.96875,0.265625,672
642,1696248134605,0.6933594,0.043151855,0.8016968,11.328125,7.84375,1.328125,673
643,1696248134645,0.6645508,-0.04888916,0.9862671,4.0625,-2.875,4.5,674
644,1696248134685,0.5366211,-0.124572754,0.87005615,1.828125,-0.96875,0.09375,675
645,1696248134725,0.65478516,-0.0012817383,0.74505615,-0.4375,-0.109375,1.890625,676
646,1696248134765,0.6274414,-0.03741455,0.8446655,-1.3125,0.765625,2.234375,677
647,1696248134805,0.6118164,0.020690918,0.7423706,-5.15625,5.234375,-3.6875,678
648,1696248134845,0.732666,0.05731201,0.8180542,-2.421875,-4.640625,-3.71875,679
649,1696248134885,0.61206055,0.005065918,0.7965698,-0.9375,-2.84375,-2.5,680
650,1696248134925,0.73095703,-0.034240723,0.7826538,-1.328125,3.59375,-2.5,681
651,1696248134965,0.6660156,-0.0015258789,0.80096436,-1.140625,0.21875,1.25,682
652,1696248135005,0.6218262,-0.035217285,0.8085327,-2.390625,-0.125,1.71875,683
653,1696248135045,0.66015625,-0.0413208,0.80096436,-4.640625,1.640625,0.859375,684
654,1696248135085,0.6730957,0.034362793,0.73480225,-5.03125,2.203125,1.203125,685
655,1696248135125,0.68652344,0.050476074,0.74871826,-2.28125,-2.0625,-1.109375,686
656,1696248135165,0.6777344,0.03265381,0.7418823,0.453125,-1.75,0.515625,687
657,1696248135205,0.66381836,0.015563965,0.8407593,1.6875,-2.359375,0.984375,688
658,1696248135245,0.60546875,0.028747559,0.8485718,1.53125,-1.984375,0.25,689
659,1696248135285,0.66430664,-0.018859863,0.7680054,0.875,-0.421875,1.28125,690
660,1696248135325,0.63549805,0.010192871,0.82489014,0.84375,-0.421875,1.109375,691
661,1696248135365,0.62890625,-0.024475098,0.80145264,1.40625,0.0625,0.5,692
662,1696248135405,0.6503906,0.070739746,0.6898804,6.34375,-3.546875,2.0625,693
663,1696248135445,0.73950195,0.02947998,0.8812866,2.921875,5.890625,4.0,694
664,1696248135485,0.58569336,0.034362793,0.822937,-2.390625,2.375,-1.90625,695
665,1696248135525,0.67529297,-0.036193848,0.75897217,-0.453125,-0.875,2.15625,696
666,1696248135565,0.6196289,-0.0051879883,0.822937,1.28125,1.328125,1.4375,697
667,1696248135605,0.6464844,0.02923584,0.7404175,-1.328125,0.640625,-1.71875,698
668,1696248135645,0.70288086,0.078063965,0.8539429,1.03125,3.703125,2.703125,699
669,1696248135685,0.58862305,-0.002746582,0.81121826,-4.515625,-1.84375,1.359375,700
670,1696248135725,0.685791,-0.04034424,0.69281006,-3.046875,0.359375,-3.53125,701
671,1696248135765,0.7351074,0.017028809,0.81536865,-0.15625,-2.640625,-0.125,702
672,1696248135805,0.63183594,-0.009094238,0.7843628,-0.46875,-1.734375,0.421875,703
673,1696248135845,0.65063477,0.066345215,0.7562866,-0.15625,0.15625,-1.328125,704
674,1696248135885,0.6821289,0.023864746,0.8151245,2.484375,1.609375,2.515625,705
675,1696248135925,0.6411133,0.029968262,0.8512573,1.59375,-2.375,0.0625,706
676,1696248135965,0.59106445,-0.0051879883,0.74993896,0.515625,-1.8125,1.40625,707
677,1696248136005,0.7216797,-0.024963379,0.8200073,-1.078125,0.109375,0.59375,708
678,1696248136045,0.61206055,0.032165527,0.7601929,0.171875,-0.125,-0.4375,709
679,1696248136085,0.6796875,0.02557373,0.7670288,2.5,3.578125,0.328125,710
680,1696248136125,0.6772461,0.05999756,0.8446655,0.25,0.8125,1.546875,711
681,1696248136165,0.62231445,-0.039611816,0.7609253,0.5625,-1.6875,1.34375,712
682,1696248136205,0.6501465,-0.014709473,0.7831421,-1.015625,-2.421875,-0.109375,713
683,1696248136245,0.65112305,-0.0049438477,0.7601929,-0.109375,-0.3125,-1.671875,714
684,1696248136285,0.7072754,0.034118652,0.8163452,4.90625,2.734375,0.234375,715
685,1696248136325,0.62890625,0.057556152,0.82684326,-2.8125,-3.046875,-0.046875,716
686,1696248136365,0.6828613,-0.08282471,0.7687378,-0.390625,-1.390625,2.78125,717
687,1696248136405,0.68115234,0.03289795,0.79022217,1.5625,-2.875,-0.359375,718
688,1696248136445,0.67456055,0.008483887,0.75531006,-0.953125,-2.15625,-2.0,719
689,1696248136485,0.63671875,0.038513184,0.73968506,1.046875,-0.90625,1.53125,720
690,1696248136525,0.657959,0.055358887,0.7946167,0.171875,-3.65625,-0.859375,721
691,1696248136565,0.68847656,-0.061828613,0.7892456,-2.40625,-0.359375,1.609375,722
692,1696248136605,0.6081543,0.014587402,0.8065796,-6.484375,2.234375,-0.921875,723
693,1696248136645,0.6821289,-0.011779785,0.73846436,-4.890625,1.71875,-2.890625,724
694,1696248136685,0.6738281,-0.003479004,0.77630615,-1.40625,1.203125,0.90625,725
695,1696248136725,0.611084,0.03387451,0.7711792,-2.578125,1.15625,0.875,726
696,1696248136765,0.72802734,0.035339355,0.76116943,-0.296875,1.703125,-0.125,727
697,1696248136805,0.69873047,0.00018310547,0.8187866,-0.796875,-0.171875,0.9375,728
698,1696248136845,0.63623047,0.04071045,0.7391968,0.140625,-0.390625,-0.6875,729
699,1696248136885,0.66845703,0.058044434,0.8012085,0.65625,-0.96875,-0.0625,730
700,1696248136925,0.6657715,0.018981934,0.72039795,-0.703125,0.375,-0.296875,731
701,1696248136965,0.69506836,0.04901123,0.80877686,2.21875,0.25,0.234375,732
702,1696248137005,0.6359863,-0.00079345703,0.7352905,3.015625,-0.4375,1.6875,733
703,1696248137045,0.67749023,0.039001465,0.80096436,5.0,-0.59375,1.265625,734
704,1696248137085,0.6726074,0.019958496,0.80633545,-1.171875,1.890625,0.65625,735
705,1696248137125,0.68603516,-0.0256958,0.7999878,-1.125,-1.65625,-0.28125,736
706,1696248137165,0.6689453,-0.012512207,0.8131714,-4.015625,-2.65625,-0.53125,737
707,1696248137205,0.6999512,0.027038574,0.8986206,-8.453125,-4.28125,-3.34375,738
708,1696248137245,0.63671875,0.035339355,0.74212646,-10.90625,-1.796875,-1.546875,739
709,1696248137285,0.6176758,0.07147217,0.6557007,-10.71875,9.09375,-1.5,740
710,1696248137325,0.704834,0.078552246,0.74676514,-0.28125,1.234375,-2.25,741
711,1696248137365,0.6586914,0.06951904,0.7033081,2.9375,-0.359375,0.921875,742
712,1696248137405,0.7248535,0.016296387,0.8395386,7.015625,-3.734375,2.578125,743
713,1696248137445,0.6254883,0.03778076,0.88079834,5.078125,-5.75,1.453125,744
714,1696248137485,0.6677246,-0.018615723,0.8641968,-0.890625,-1.65625,0.75,745
715,1696248137525,0.7043457,0.014099121,0.7941284,-5.1875,-0.265625,-0.4375,746
716,1696248137565,0.62719727,0.11248779,0.6703491,-6.8125,3.046875,-0.734375,747
717,1696248137605,0.6862793,0.053894043,0.696228,0.453125,-0.65625,-1.4375,748
718,1696248137645,0.6291504,0.050231934,0.76483154,3.0625,-1.40625,0.046875,749
719,1696248137685,0.6882324,0.012145996,0.7970581,5.546875,-3.4375,-1.015625,750
720,1696248137725,0.62890625,-0.035217285,0.90374756,1.03125,-4.96875,1.1875,751
721,1696248137765,0.6291504,-0.058898926,0.8036499,-0.5,-2.46875,1.328125,752
722,1696248137805,0.66186523,0.08660889,0.7086792,-5.234375,-1.296875,1.09375,753
723,1696248137845,0.65600586,0.13470459,0.7435913,0.609375,-0.078125,2.375,754
724,1696248137885,0.6911621,0.07757568,0.76068115,3.734375,-2.90625,-1.984375,755
725,1696248137925,0.6713867,0.026794434,0.7579956,10.46875,-2.71875,-1.953125,756
726,1696248137965,0.6538086,0.028747559,0.8720093,5.578125,-1.734375,-0.03125,757
727,1696248138005,0.5817871,-0.062561035,0.87054443,1.0625,-1.28125,2.21875,758
728,1696248138045,0.67529297,-0.00982666,0.8151245,-5.515625,-3.796875,-0.578125,759
729,1696248138085,0.6101074,0.032165527,0.77752686,-6.859375,-0.78125,0.78125,760
730,1696248138125,0.6308594,0.09661865,0.7509155,-3.0,-1.765625,-1.28125,761
731,1696248138165,0.6743164,0.014587402,0.69866943,4.640625,-2.109375,-0.609375,762
732,1696248138205,0.67041016,0.0770874,0.8825073,6.03125,6.328125,0.328125,763
733,1696248138245,0.68725586,-0.0032348633,0.8312378,4.234375,2.59375,0.40625,764
734,1696248138285,0.6459961,-0.055725098,0.8410034,2.3125,-2.53125,2.828125,765
735,1696248138325,0.5891113,-0.004211426,0.75775146,1.6875,1.46875,3.15625,766
736,1696248138365,0.6977539,0.08392334,0.8629761,3.125,0.765625,1.078125,767
737,1696248138405,0.54711914,-0.012756348,0.7982788,-1.25,-0.65625,0.109375,768
738,1696248138445,0.7036133,-0.015686035,0.7872925,-1.71875,2.703125,0.234375,769
739,1696248138485,0.66015625,0.007019043,0.8156128,-3.65625,0.109375,-0.796875,770
740,1696248138525,0.6550293,0.028015137,0.75042725,-3.3125,-0.75,-2.046875,771
741,1696248138565,0.66064453,0.04168701,0.7711792,-4.140625,-1.421875,-0.75,772
742,1696248138605,0.6843262,0.027526855,0.7719116,-1.78125,-1.828125,-0.375,773
743,1696248138645,0.6711426,0.024841309,0.8287964,1.453125,-2.640625,1.34375,774
744,1696248138685,0.6464844,0.003112793,0.87542725,1.84375,0.625,1.421875,775
745,1696248138725,0.69140625,0.0065307617,0.8031616,-6.875,6.21875,0.171875,776
746,1696248138765,0.5505371,0.051940918,0.76068115,-4.875,-0.078125,1.859375,777
747,1696248138805,0.67333984,0.07171631,0.7250366,-5.796875,2.0,-4.3125,778
748,1696248138845,0.6933594,0.074401855,0.7213745,1.65625,-0.671875,-0.453125,779
749,1696248138885,0.6582031,0.023376465,0.7970581,4.65625,-3.796875,-0.09375,780
750,1696248138925,0.6611328,0.007019043,0.83880615,3.4375,-4.46875,0.078125,781
751,1696248138965,0.6657715,-0.022521973,0.9059448,-1.234375,-1.03125,0.796875,782
752,1696248139005,0.6621094,-0.0154418945,0.83758545,-8.40625,2.296875,0.421875,783
753,1696248139045,0.58740234,0.09637451,0.7128296,-6.765625,-2.578125,1.890625,784
754,1696248139085,0.71435547,0.1293335,0.69818115,-4.71875,4.859375,0.953125,785
755,1696248139125,0.5998535,0.112976074,0.71673584,7.203125,-4.3125,0.6875,786
756,1696248139165,0.6311035,-0.038879395,0.71990967,15.0,-9.15625,2.28125,787
757,1696248139205,0.7121582,0.059509277,0.9425659,10.8125,2.5625,-0.1875,788
758,1696248139245,0.6142578,-0.07696533,0.85272217,-0.96875,-5.640625,1.75,789
759,1696248139285,0.63183594,-0.085754395,0.7994995,-5.015625,-1.8125,1.59375,790
