,timestamp,accel_x,accel_y,accel_z,gyro_x,gyro_y,gyro_z,mag_x,mag_y,mag_z,ind
0,1696243003730,0.025390625,-0.057617188,1.0078125,0.59375,0.15625,-0.125,0.0,0.0,0.0,31
1,1696243003770,0.021484375,-0.049804688,1.0078125,0.15625,0.09375,0.0625,0.0,0.0,0.0,32
2,1696243003810,0.018554688,-0.052734375,1.0048828,-0.28125,0.03125,0.0625,0.0,0.0,0.0,33
3,1696243003850,0.025390625,-0.05859375,1.0205078,-0.375,0.03125,0.25,0.0,0.0,0.0,34
4,1696243003890,0.0146484375,-0.064453125,1.0146484,-0.6875,0.21875,0.25,-57.0,2.875,-23.0,35
5,1696243003930,0.025390625,-0.06347656,1.0097656,-0.625,-0.125,-0.3125,0.0,0.0,0.0,36
6,1696243003970,0.013671875,-0.05859375,1.0048828,-0.5,-0.03125,0.125,0.0,0.0,0.0,37
7,1696243004010,0.0107421875,-0.06640625,1.0009766,-0.09375,0.40625,0.3125,0.0,0.0,0.0,38
8,1696243004050,0.016601562,-0.076171875,1.0195312,-0.21875,0.46875,0.125,0.0,0.0,0.0,39
9,1696243004090,0.01171875,-0.06933594,1.0205078,-0.5,-0.375,0.0,0.0,0.0,0.0,40
10,1696243004130,0.024414062,-0.0625,1.0195312,-0.4375,-0.375,0.0625,0.0,0.0,0.0,41
11,1696243004170,0.020507812,-0.07324219,1.0058594,-0.28125,0.03125,0.3125,0.0,0.0,0.0,42
12,1696243004210,0.022460938,-0.060546875,1.0117188,-0.09375,0.15625,0.375,0.0,0.0,0.0,43
13,1696243004250,0.022460938,-0.064453125,1.0039062,-0.625,-0.09375,0.0625,0.0,0.0,0.0,44
14,1696243004290,0.015625,-0.06347656,1.0078125,-0.5625,-0.1875,0.0625,0.0,0.0,0.0,45
15,1696243004330,0.030273438,-0.05859375,1.0136719,-0.4375,-0.25,0.25,0.0,0.0,0.0,46
16,1696243004370,0.02734375,-0.072265625,1.0107422,-0.375,0.03125,0.0625,0.0,0.0,0.0,47
17,1696243004410,0.01171875,-0.06640625,1.0087891,-0.15625,0.15625,-0.125,-56.25,4.375,-22.5625,48
18,1696243004450,0.025390625,-0.068359375,1.015625,-0.03125,0.15625,-0.0625,0.0,0.0,0.0,49
19,1696243004490,0.015625,-0.068359375,1.0234375,0.15625,0.09375,-0.0625,0.0,0.0,0.0,50
20,1696243004530,0.016601562,-0.05859375,0.9980469,-0.4375,-0.03125,0.3125,0.0,0.0,0.0,51
21,1696243004570,0.017578125,-0.0625,1.0009766,-0.28125,0.03125,0.1875,0.0,0.0,0.0,52
22,1696243004610,0.0234375,-0.0625,1.0078125,-0.5625,-0.25,-0.0625,0.0,0.0,0.0,53
23,1696243004650,0.013671875,-0.07519531,1.0068359,-0.34375,0.03125,0.1875,0.0,0.0,0.0,54
24,1696243004690,0.016601562,-0.06542969,1.0087891,0.15625,0.53125,0.1875,0.0,0.0,0.0,55
25,1696243004730,0.013671875,-0.068359375,1.0068359,-0.21875,0.15625,0.0,0.0,0.0,0.0,56
26,1696243004770,0.032226562,-0.06640625,1.0097656,-0.625,-0.25,0.0625,0.0,0.0,0.0,57
27,1696243004810,0.034179688,-0.068359375,1.0078125,-0.34375,-0.1875,0.1875,0.0,0.0,0.0,58
28,1696243004850,0.0234375,-0.051757812,1.0166016,-0.15625,0.09375,0.0625,0.0,0.0,0.0,59
29,1696243004890,0.017578125,-0.056640625,1.0146484,-0.375,0.09375,-0.3125,-56.5625,4.0625,-24.0625,60
30,1696243004930,0.01171875,-0.064453125,1.0009766,-0.28125,-0.03125,-0.125,0.0,0.0,0.0,61
31,1696243004970,0.022460938,-0.068359375,1.0273438,-0.375,-0.375,-0.1875,0.0,0.0,0.0,62
32,1696243005010,0.024414062,-0.076171875,0.99316406,-0.28125,-0.25,-0.125,0.0,0.0,0.0,63
33,1696243005050,0.028320312,-0.0703125,1.0195312,-0.09375,0.03125,-0.25,0.0,0.0,0.0,64
34,1696243005090,0.0234375,-0.060546875,1.0166016,-0.09375,0.03125,-0.125,0.0,0.0,0.0,65
35,1696243005130,0.022460938,-0.06347656,1.0175781,0.15625,0.09375,0.0,0.0,0.0,0.0,66
36,1696243005170,0.016601562,-0.06640625,1.0078125,-0.21875,-0.125,0.0625,0.0,0.0,0.0,67
37,1696243005210,0.020507812,-0.06542969,1.0068359,-0.21875,-0.09375,-0.1875,0.0,0.0,0.0,68
38,1696243005250,0.013671875,-0.064453125,0.9951172,-0.28125,-0.1875,-0.1875,0.0,0.0,0.0,69
39,1696243005290,0.0146484375,-0.068359375,1.0009766,-0.34375,-0.1875,-0.1875,0.0,0.0,0.0,70
40,1696243005330,0.021484375,-0.07421875,1.0136719,-0.09375,0.21875,0.1875,0.0,0.0,0.0,71
41,1696243005370,0.024414062,-0.072265625,1.0039062,-0.21875,0.59375,-0.1875,0.0,0.0,0.0,72
42,1696243005410,0.018554688,-0.0703125,1.0058594,-0.6875,-0.4375,-0.1875,-57.625,3.5,-22.4375,73
43,1696243005450,0.0234375,-0.06738281,0.9980469,-0.34375,-0.5,-0.125,0.0,0.0,0.0,74
44,1696243005490,0.0146484375,-0.053710938,0.9951172,-0.09375,0.09375,0.125,0.0,0.0,0.0,75
45,1696243005530,0.020507812,-0.064453125,1.0039062,-0.03125,0.28125,-0.0625,0.0,0.0,0.0,76
46,1696243005570,0.018554688,-0.057617188,1.0166016,-0.15625,-0.03125,-0.3125,0.0,0.0,0.0,77
47,1696243005610,0.0234375,-0.056640625,1.0078125,-0.34375,-0.375,-0.0625,0.0,0.0,0.0,78
48,1696243005650,0.029296875,-0.06542969,1.0097656,-0.21875,-0.3125,0.0625,0.0,0.0,0.0,79
49,1696243005690,0.022460938,-0.07421875,1.0019531,-0.34375,-0.03125,0.0,0.0,0.0,0.0,80
50,1696243005730,0.0234375,-0.06933594,1.0117188,-0.21875,-0.03125,-0.0625,0.0,0.0,0.0,81
51,1696243005770,0.016601562,-0.07128906,1.0126953,-0.09375,0.09375,-0.125,0.0,0.0,0.0,82
52,1696243005810,0.021484375,-0.06640625,1.0175781,-0.15625,-0.03125,-0.125,0.0,0.0,0.0,83
53,1696243005850,0.021484375,-0.060546875,1.0,-0.21875,-0.1875,-0.0625,0.0,0.0,0.0,84
54,1696243005890,0.0087890625,-0.060546875,1.0126953,-0.21875,-0.03125,-0.125,-56.5625,2.3125,-23.3125,85
55,1696243005930,0.016601562,-0.06738281,1.0087891,-0.09375,0.03125,-0.0625,0.0,0.0,0.0,86
56,1696243005970,0.018554688,-0.060546875,1.0107422,-0.09375,-0.1875,-0.1875,0.0,0.0,0.0,87
57,1696243006010,0.016601562,-0.059570312,1.0068359,-0.09375,0.15625,0.125,0.0,0.0,0.0,88
58,1696243006050,0.018554688,-0.068359375,1.0039062,-0.09375,0.46875,0.0,0.0,0.0,0.0,89
59,1696243006090,0.016601562,-0.0625,1.0078125,-0.6875,-0.25,-0.0625,0.0,0.0,0.0,90
60,1696243006130,0.024414062,-0.068359375,1.0048828,-0.5,-0.375,0.0,0.0,0.0,0.0,91
61,1696243006170,0.026367188,-0.055664062,1.0078125,-0.5625,-0.125,0.0,0.0,0.0,0.0,92
62,1696243006210,0.015625,-0.06347656,0.99316406,-0.28125,0.15625,-0.0625,0.0,0.0,0.0,93
63,1696243006250,0.021484375,-0.068359375,1.0175781,-0.34375,-0.09375,-0.0625,0.0,0.0,0.0,94
64,1696243006290,0.0234375,-0.064453125,1.0087891,-0.15625,-0.125,-0.0625,0.0,0.0,0.0,95
65,1696243006330,0.021484375,-0.068359375,1.0214844,0.15625,-0.125,-0.0625,0.0,0.0,0.0,96
66,1696243006370,0.022460938,-0.061523438,1.0048828,0.21875,0.15625,-0.0625,0.0,0.0,0.0,97
67,1696243006410,0.029296875,-0.068359375,1.0126953,0.03125,0.15625,0.0,-55.9375,2.5625,-23.625,98
68,1696243006450,0.01171875,-0.06347656,1.0019531,-0.375,-0.03125,-0.125,0.0,0.0,0.0,99
69,1696243006490,0.015625,-0.06738281,1.0078125,-0.625,-0.3125,-0.125,0.0,0.0,0.0,100
70,1696243006530,0.021484375,-0.06542969,1.0058594,-0.75,-0.125,0.0,0.0,0.0,0.0,101
71,1696243006570,0.016601562,-0.072265625,1.0058594,-0.28125,-0.1875,-0.0625,0.0,0.0,0.0,102
72,1696243006610,0.024414062,-0.06640625,1.0048828,-0.03125,-0.03125,0.0,0.0,0.0,0.0,103
73,1696243006650,0.01171875,-0.059570312,1.0058594,0.28125,0.34375,0.0,0.0,0.0,0.0,104
74,1696243006690,0.01953125,-0.056640625,1.0136719,0.09375,-0.03125,-0.125,0.0,0.0,0.0,105
75,1696243006730,0.0107421875,-0.053710938,1.0078125,-0.28125,0.03125,0.25,0.0,0.0,0.0,106
76,1696243006770,0.018554688,-0.060546875,1.0107422,-0.28125,0.46875,0.1875,0.0,0.0,0.0,107
77,1696243006810,0.022460938,-0.0625,1.0039062,-0.8125,-0.03125,-0.1875,0.0,0.0,0.0,108
78,1696243006850,0.024414062,-0.06640625,1.0078125,-0.6875,-0.3125,0.0,0.0,0.0,0.0,109
79,1696243006890,0.013671875,-0.0703125,1.0117188,-0.5625,-0.125,0.25,-57.125,3.5,-23.4375,110
80,1696243006930,0.02734375,-0.064453125,1.015625,-0.34375,0.15625,-0.0625,0.0,0.0,0.0,111
81,1696243006970,0.020507812,-0.072265625,1.0117188,-0.15625,0.15625,0.0,0.0,0.0,0.0,112
82,1696243007010,0.0126953125,-0.064453125,1.0058594,-0.21875,-0.1875,0.0625,0.0,0.0,0.0,113
83,1696243007050,0.025390625,-0.06542969,1.0048828,-0.03125,-0.125,-0.0625,0.0,0.0,0.0,114
84,1696243007090,0.025390625,-0.0703125,1.0039062,-0.03125,0.15625,0.0,0.0,0.0,0.0,115
85,1696243007130,0.0146484375,-0.059570312,1.0205078,-0.09375,0.15625,0.0,0.0,0.0,0.0,116
86,1696243007170,0.02734375,-0.060546875,1.0029297,-0.375,-0.09375,0.1875,0.0,0.0,0.0,117
87,1696243007210,0.017578125,-0.06933594,1.0214844,-0.34375,-0.1875,0.0625,0.0,0.0,0.0,118
88,1696243007250,0.017578125,-0.06542969,1.0117188,-0.375,-0.03125,0.125,0.0,0.0,0.0,119
89,1696243007290,0.01953125,-0.06542969,1.0039062,-0.4375,-0.03125,0.0625,0.0,0.0,0.0,120
90,1696243007330,0.020507812,-0.068359375,1.0166016,-0.21875,0.09375,0.0625,0.0,0.0,0.0,121
91,1696243007370,0.015625,-0.06542969,1.0107422,-0.21875,0.03125,0.125,0.0,0.0,0.0,122
92,1696243007410,0.026367188,-0.068359375,1.0175781,-0.34375,-0.125,-0.0625,-54.4375,2.3125,-22.5625,123
93,1696243007450,0.009765625,-0.061523438,1.0234375,-0.15625,0.15625,0.375,0.0,0.0,0.0,124
94,1696243007490,0.03125,-0.05859375,1.0224609,-0.09375,0.46875,0.0625,0.0,0.0,0.0,125
95,1696243007530,0.0146484375,-0.06542969,1.0117188,-0.5,-0.125,-0.0625,0.0,0.0,0.0,126
96,1696243007570,0.028320312,-0.051757812,1.0029297,-0.5625,-0.09375,-0.1875,0.0,0.0,0.0,127
97,1696243007610,0.022460938,-0.05859375,1.015625,-0.34375,0.09375,0.1875,0.0,0.0,0.0,128
98,1696243007650,0.018554688,-0.068359375,1.0146484,-0.21875,0.40625,0.3125,0.0,0.0,0.0,129
99,1696243007690,0.01171875,-0.056640625,1.0195312,-0.375,0.09375,0.0,0.0,0.0,0.0,130
100,1696243007730,0.0087890625,-0.061523438,0.99902344,-0.5625,-0.25,-0.0625,0.0,0.0,0.0,131
101,1696243007770,0.024414062,-0.064453125,1.0146484,-0.21875,-0.1875,0.125,0.0,0.0,0.0,132
102,1696243007810,0.021484375,-0.07421875,1.0058594,-0.21875,0.15625,-0.0625,0.0,0.0,0.0,133
103,1696243007850,0.018554688,-0.07714844,1.0058594,-0.03125,0.21875,0.0,0.0,0.0,0.0,134
104,1696243007890,0.017578125,-0.061523438,1.0126953,-0.34375,-0.03125,0.125,-56.5625,2.5625,-23.625,135
105,1696243007930,0.016601562,-0.055664062,1.0048828,-0.21875,-0.09375,0.3125,0.0,0.0,0.0,136
106,1696243007970,0.017578125,-0.0625,1.0107422,0.09375,0.03125,0.0,0.0,0.0,0.0,137
107,1696243008010,0.021484375,-0.055664062,1.0019531,-0.15625,0.03125,0.0,0.0,0.0,0.0,138
108,1696243008050,0.015625,-0.061523438,1.0136719,-0.34375,0.03125,-0.0625,0.0,0.0,0.0,139
109,1696243008090,0.0107421875,-0.06933594,1.0097656,-0.34375,-0.25,0.0625,0.0,0.0,0.0,140
110,1696243008130,0.02734375,-0.064453125,0.99902344,-0.625,-0.25,-0.0625,0.0,0.0,0.0,141
111,1696243008170,0.021484375,-0.07714844,1.0087891,-0.09375,0.09375,0.125,0.0,0.0,0.0,142
112,1696243008210,0.01953125,-0.06738281,1.0117188,-0.03125,0.40625,-0.25,0.0,0.0,0.0,143
113,1696243008250,0.0126953125,-0.055664062,1.0117188,-0.21875,-0.25,-0.25,0.0,0.0,0.0,144
114,1696243008290,0.021484375,-0.059570312,0.99609375,-0.15625,-0.3125,-0.1875,0.0,0.0,0.0,145
115,1696243008330,0.024414062,-0.06640625,1.0136719,0.03125,0.03125,0.0625,0.0,0.0,0.0,146
116,1696243008370,0.01953125,-0.059570312,1.015625,-0.09375,0.09375,-0.125,0.0,0.0,0.0,147
117,1696243008410,0.016601562,-0.07714844,1.0126953,-0.4375,-0.125,-0.375,-55.5,4.375,-23.0,148
118,1696243008450,0.016601562,-0.064453125,1.0166016,-0.4375,-0.375,-0.125,0.0,0.0,0.0,149
119,1696243008490,0.026367188,-0.07421875,1.0078125,-0.15625,-0.25,0.125,0.0,0.0,0.0,150
120,1696243008530,0.021484375,-0.072265625,0.9941406,-0.09375,0.03125,-0.1875,0.0,0.0,0.0,151
121,1696243008570,0.015625,-0.07421875,1.0107422,0.15625,0.09375,-0.3125,0.0,0.0,0.0,152
122,1696243008610,0.02734375,-0.06347656,1.0195312,-0.03125,-0.09375,-0.125,0.0,0.0,0.0,153
123,1696243008650,0.01953125,-0.056640625,1.0126953,-0.15625,-0.03125,-0.1875,0.0,0.0,0.0,154
124,1696243008690,0.0234375,-0.0625,0.99902344,-0.21875,-0.03125,0.0625,0.0,0.0,0.0,155
125,1696243008730,0.024414062,-0.06640625,1.0185547,-0.375,-0.03125,-0.0625,0.0,0.0,0.0,156
126,1696243008770,0.015625,-0.068359375,0.99902344,-0.4375,-0.125,-0.1875,0.0,0.0,0.0,157
127,1696243008810,0.02734375,-0.072265625,1.0205078,-0.15625,-0.09375,-0.125,0.0,0.0,0.0,158
128,1696243008850,0.02734375,-0.064453125,1.0126953,-0.21875,-0.25,-0.375,0.0,0.0,0.0,159
129,1696243008890,0.0146484375,-0.06542969,1.0048828,-0.15625,-0.03125,0.0625,-56.375,2.0,-22.4375,160
130,1696243008930,0.02734375,-0.064453125,1.0234375,0.03125,0.34375,-0.125,0.0,0.0,0.0,161
131,1696243008970,0.017578125,-0.061523438,1.0078125,-0.4375,-0.03125,-0.0625,0.0,0.0,0.0,162
132,1696243009010,0.016601562,-0.057617188,1.0068359,-0.4375,-0.1875,-0.1875,0.0,0.0,0.0,163
133,1696243009050,0.02734375,-0.061523438,1.0107422,-0.34375,-0.1875,0.0,0.0,0.0,0.0,164
134,1696243009090,0.0234375,-0.0625,1.0146484,-0.21875,0.15625,0.0,0.0,0.0,0.0,165
135,1696243009130,0.018554688,-0.07128906,1.0107422,-0.34375,-0.03125,0.0625,0.0,0.0,0.0,166
136,1696243009170,0.01171875,-0.057617188,1.0146484,-0.375,-0.1875,-0.125,0.0,0.0,0.0,167
137,1696243009210,0.032226562,-0.059570312,1.0136719,-0.09375,-0.25,0.0625,0.0,0.0,0.0,168
138,1696243009250,0.017578125,-0.061523438,1.0126953,-0.15625,-0.03125,0.0,0.0,0.0,0.0,169
139,1696243009290,0.013671875,-0.06347656,1.0175781,0.03125,0.21875,0.0,0.0,0.0,0.0,170
140,1696243009330,0.020507812,-0.06640625,1.0009766,-0.03125,-0.03125,0.0,0.0,0.0,0.0,171
141,1696243009370,0.026367188,-0.060546875,1.0068359,-0.34375,-0.1875,0.0,0.0,0.0,0.0,172
142,1696243009410,0.0234375,-0.06738281,1.0224609,-0.21875,-0.09375,0.0,-56.125,2.0,-23.4375,173
143,1696243009450,0.013671875,-0.0625,1.0029297,-0.21875,0.03125,0.0,0.0,0.0,0.0,174
144,1696243009490,0.022460938,-0.06347656,1.0058594,-0.5,-0.09375,-0.125,0.0,0.0,0.0,175
145,1696243009530,0.022460938,-0.06542969,1.015625,-0.15625,-0.03125,0.0,0.0,0.0,0.0,176
146,1696243009570,0.017578125,-0.0703125,1.0126953,-0.15625,-0.03125,0.125,0.0,0.0,0.0,177
147,1696243009610,0.01953125,-0.0625,1.0039062,-0.09375,0.03125,0.0,0.0,0.0,0.0,178
148,1696243009650,0.024414062,-0.059570312,0.99902344,-0.15625,-0.125,-0.0625,0.0,0.0,0.0,179
149,1696243009690,0.021484375,-0.064453125,1.0117188,-0.09375,0.09375,0.0,0.0,0.0,0.0,180
150,1696243009730,0.028320312,-0.064453125,0.9980469,-0.28125,-0.1875,-0.125,0.0,0.0,0.0,181
151,1696243009770,0.021484375,-0.059570312,1.0205078,-0.34375,0.09375,0.125,0.0,0.0,0.0,182
152,1696243009810,0.017578125,-0.07128906,1.0263672,-0.21875,0.34375,0.0625,0.0,0.0,0.0,183
153,1696243009850,0.020507812,-0.056640625,1.0126953,-0.375,0.03125,-0.125,0.0,0.0,0.0,184
154,1696243009890,0.01953125,-0.060546875,1.0068359,-0.5625,-0.3125,-0.0625,-55.9375,1.8125,-23.3125,185
155,1696243009930,0.025390625,-0.0625,1.0068359,-0.28125,-0.1875,0.0625,0.0,0.0,0.0,186
156,1696243009970,0.0146484375,-0.057617188,1.0,-0.21875,0.21875,0.125,0.0,0.0,0.0,187
157,1696243010010,0.021484375,-0.061523438,1.0087891,-0.21875,0.15625,-0.0625,0.0,0.0,0.0,188
158,1696243010050,0.0146484375,-0.060546875,1.0107422,-0.28125,-0.1875,-0.0625,0.0,0.0,0.0,189
159,1696243010090,0.029296875,-0.0625,1.0,-0.28125,-0.25,0.0,0.0,0.0,0.0,190
160,1696243010130,0.028320312,-0.06933594,1.0087891,-0.15625,-0.125,0.125,0.0,0.0,0.0,191
161,1696243010170,0.02734375,-0.059570312,1.0126953,-0.09375,0.09375,-0.0625,0.0,0.0,0.0,192
162,1696243010210,0.0078125,-0.06347656,1.0126953,-0.15625,0.15625,0.0,0.0,0.0,0.0,193
163,1696243010250,0.013671875,-0.059570312,1.0078125,-0.34375,-0.09375,0.125,0.0,0.0,0.0,194
164,1696243010290,0.020507812,-0.0625,1.0068359,-0.28125,-0.09375,0.0625,0.0,0.0,0.0,195
165,1696243010330,0.01171875,-0.06933594,1.0185547,-0.21875,-0.09375,0.1875,0.0,0.0,0.0,196
166,1696243010370,0.0146484375,-0.06347656,1.0214844,0.0,0.0625,-0.03125,0.0,0.0,0.0,197
167,1696243010410,0.022460938,-0.064453125,1.0146484,0.0,0.0,-0.09375,-57.875,3.5,-23.4375,198
168,1696243010450,0.015625,-0.06347656,1.0126953,0.0625,0.0625,0.03125,0.0,0.0,0.0,199
169,1696243010490,0.022460938,-0.064453125,1.0058594,-0.1875,0.0,-0.09375,0.0,0.0,0.0,200
170,1696243010530,0.021484375,-0.055664062,1.0,0.0625,0.0625,0.15625,0.0,0.0,0.0,201
171,1696243010570,0.01953125,-0.059570312,1.0136719,-0.125,-0.0625,0.09375,0.0,0.0,0.0,202
172,1696243010610,0.017578125,-0.06542969,1.0107422,0.0,0.0625,0.09375,0.0,0.0,0.0,203
173,1696243010650,0.028320312,-0.064453125,1.0048828,0.0625,-0.0625,-0.09375,0.0,0.0,0.0,204
174,1696243010690,0.013671875,-0.07324219,1.0039062,-0.125,0.0,0.03125,0.0,0.0,0.0,205
175,1696243010730,0.01171875,-0.07128906,1.0214844,0.25,0.25,0.15625,0.0,0.0,0.0,206
176,1696243010770,0.017578125,-0.06933594,1.0078125,-0.1875,0.25,-0.09375,0.0,0.0,0.0,207
177,1696243010810,0.016601562,-0.0625,1.0136719,-0.375,-0.1875,-0.09375,0.0,0.0,0.0,208
178,1696243010850,0.016601562,-0.064453125,1.0039062,-0.25,-0.125,0.15625,0.0,0.0,0.0,209
179,1696243010890,0.0146484375,-0.0703125,1.0039062,-0.125,0.1875,0.21875,-56.375,3.5,-22.6875,210
180,1696243010930,0.0126953125,-0.0625,1.0029297,-0.25,0.0625,-0.15625,0.0,0.0,0.0,211
181,1696243010970,0.01953125,-0.064453125,1.0136719,-0.25,-0.1875,-0.03125,0.0,0.0,0.0,212
182,1696243011010,0.015625,-0.06933594,1.0087891,-0.0625,-0.25,0.03125,0.0,0.0,0.0,213
183,1696243011050,0.021484375,-0.055664062,1.0029297,0.25,0.125,0.03125,0.0,0.0,0.0,214
184,1696243011090,0.025390625,-0.068359375,1.0039062,0.125,0.3125,-0.15625,0.0,0.0,0.0,215
185,1696243011130,0.021484375,-0.06347656,1.0117188,0.0625,0.0625,0.09375,0.0,0.0,0.0,216
186,1696243011170,0.018554688,-0.055664062,1.0009766,-0.25,0.0,0.15625,0.0,0.0,0.0,217
187,1696243011210,0.0146484375,-0.05859375,1.0107422,-0.1875,-0.0625,0.15625,0.0,0.0,0.0,218
188,1696243011250,0.022460938,-0.068359375,1.0078125,-0.1875,0.0625,0.03125,0.0,0.0,0.0,219
189,1696243011290,0.020507812,-0.061523438,1.0048828,-0.125,0.0625,0.03125,0.0,0.0,0.0,220
190,1696243011330,0.0126953125,-0.068359375,1.0048828,0.1875,0.0625,-0.15625,0.0,0.0,0.0,221
191,1696243011370,0.025390625,-0.06542969,1.0166016,0.0,0.125,0.15625,0.0,0.0,0.0,222
192,1696243011410,0.016601562,-0.07421875,1.015625,-0.0625,0.0,-0.03125,-56.375,2.4375,-22.4375,223
193,1696243011450,0.0234375,-0.05859375,1.0214844,0.0,-0.0625,0.09375,0.0,0.0,0.0,224
194,1696243011490,0.01953125,-0.064453125,1.0175781,-0.25,-0.125,-0.09375,0.0,0.0,0.0,225
195,1696243011530,0.00390625,-0.06542969,1.0097656,-0.125,0.3125,0.28125,0.0,0.0,0.0,226
196,1696243011570,0.030273438,-0.06738281,1.0234375,0.0625,0.375,-0.09375,0.0,0.0,0.0,227
197,1696243011610,0.015625,-0.06347656,1.0107422,-0.3125,-0.0625,-0.15625,0.0,0.0,0.0,228
198,1696243011650,0.028320312,-0.06347656,0.9951172,-0.25,-0.1875,-0.15625,0.0,0.0,0.0,229
199,1696243011690,0.015625,-0.060546875,1.0068359,-0.3125,-0.125,0.28125,0.0,0.0,0.0,230
200,1696243011730,0.01953125,-0.060546875,1.0097656,-0.25,0.1875,0.15625,0.0,0.0,0.0,231
201,1696243011770,0.016601562,-0.0625,1.0029297,-0.25,0.375,0.09375,0.0,0.0,0.0,232
202,1696243011810,0.017578125,-0.0625,1.0058594,-0.125,-0.1875,0.03125,0.0,0.0,0.0,233
203,1696243011850,0.02734375,-0.06542969,1.0166016,0.0625,-0.0625,0.03125,0.0,0.0,0.0,234
204,1696243011890,0.029296875,-0.0625,0.9970703,0.0625,0.0,0.09375,-55.5,3.625,-22.25,235
205,1696243011930,0.018554688,-0.068359375,1.0185547,0.125,0.1875,-0.15625,0.0,0.0,0.0,236
206,1696243011970,0.024414062,-0.06347656,1.0068359,-0.1875,-0.0625,0.03125,0.0,0.0,0.0,237
207,1696243012010,0.021484375,-0.068359375,1.0166016,-0.0625,-0.0625,-0.03125,0.0,0.0,0.0,238
208,1696243012050,0.01953125,-0.06640625,1.0136719,-0.1875,-0.1875,-0.15625,0.0,0.0,0.0,239
209,1696243012090,0.02734375,-0.06933594,0.9980469,-0.1875,-0.125,-0.28125,0.0,0.0,0.0,240
210,1696243012130,0.0234375,-0.072265625,1.0126953,0.0,-0.0625,-0.09375,0.0,0.0,0.0,241
211,1696243012170,0.022460938,-0.0625,1.0029297,0.0625,0.0,-0.28125,0.0,0.0,0.0,242
212,1696243012210,0.03125,-0.068359375,1.0136719,0.0,-0.1875,-0.28125,0.0,0.0,0.0,243
213,1696243012250,0.0107421875,-0.07324219,1.0234375,0.1875,0.125,-0.03125,0.0,0.0,0.0,244
214,1696243012290,0.018554688,-0.06640625,1.0019531,0.1875,0.0625,-0.03125,0.0,0.0,0.0,245
215,1696243012330,0.016601562,-0.064453125,1.0175781,-0.125,0.0625,-0.34375,0.0,0.0,0.0,246
216,1696243012370,0.026367188,-0.056640625,1.0107422,-0.3125,-0.1875,-0.28125,0.0,0.0,0.0,247
217,1696243012410,0.017578125,-0.06933594,1.0175781,-0.25,-0.3125,-0.03125,-55.375,1.6875,-23.9375,248
218,1696243012450,0.01953125,-0.06640625,1.0068359,0.0625,0.1875,-0.03125,0.0,0.0,0.0,249
219,1696243012490,0.016601562,-0.060546875,1.0087891,-0.25,-0.0625,-0.28125,0.0,0.0,0.0,250
220,1696243012530,0.015625,-0.072265625,1.0087891,0.0,-0.3125,-0.28125,0.0,0.0,0.0,251
221,1696243012570,0.017578125,-0.06542969,1.0146484,0.1875,-0.1875,-0.09375,0.0,0.0,0.0,252
222,1696243012610,0.024414062,-0.060546875,1.0068359,0.375,0.125,-0.21875,0.0,0.0,0.0,253
223,1696243012650,0.01171875,-0.060546875,1.0234375,0.375,0.1875,-0.15625,0.0,0.0,0.0,254
224,1696243012690,0.017578125,-0.057617188,1.0,0.0,-0.0625,-0.15625,0.0,0.0,0.0,255
225,1696243012730,0.01953125,-0.0625,0.9970703,-0.3125,0.0,0.09375,0.0,0.0,0.0,256
226,1696243012770,0.021484375,-0.05859375,1.0,-0.1875,-0.0625,0.09375,0.0,0.0,0.0,257
227,1696243012810,0.0146484375,-0.06640625,1.0048828,-0.375,0.0625,-0.15625,0.0,0.0,0.0,258
228,1696243012850,0.018554688,-0.06738281,1.0146484,0.0,0.0,-0.03125,0.0,0.0,0.0,259
229,1696243012890,0.0234375,-0.06738281,1.0029297,0.0625,-0.0625,-0.15625,-56.875,3.9375,-23.1875,260
230,1696243012930,0.017578125,-0.061523438,1.0009766,0.0625,-0.0625,-0.15625,0.0,0.0,0.0,261
231,1696243012970,0.016601562,-0.05859375,1.0205078,0.125,0.0,-0.09375,0.0,0.0,0.0,262
232,1696243013010,0.020507812,-0.064453125,1.0068359,0.0,-0.0625,0.03125,0.0,0.0,0.0,263
233,1696243013050,0.026367188,-0.059570312,1.015625,0.125,0.4375,-0.03125,0.0,0.0,0.0,264
234,1696243013090,0.024414062,-0.06347656,1.0087891,-0.125,0.0,-0.21875,0.0,0.0,0.0,265
235,1696243013130,0.022460938,-0.0546875,1.0078125,-0.125,-0.25,-0.21875,0.0,0.0,0.0,266
236,1696243013170,0.016601562,-0.06933594,1.0175781,-0.1875,-0.125,0.09375,0.0,0.0,0.0,267
237,1696243013210,0.022460938,-0.06640625,1.0136719,0.125,0.0625,-0.09375,0.0,0.0,0.0,268
238,1696243013250,0.022460938,-0.06542969,1.0166016,0.0625,-0.125,-0.09375,0.0,0.0,0.0,269
239,1696243013290,0.015625,-0.06542969,1.0195312,0.0625,-0.25,-0.28125,0.0,0.0,0.0,270
240,1696243013330,0.0234375,-0.064453125,1.0048828,0.375,-0.3125,0.03125,0.0,0.0,0.0,271
241,1696243013370,0.021484375,-0.072265625,0.9951172,0.375,0.0,-0.03125,0.0,0.0,0.0,272
242,1696243013410,0.026367188,-0.05859375,1.0097656,0.125,0.0625,-0.21875,-56.25,2.5625,-23.0,273
243,1696243013450,0.016601562,-0.05859375,1.0029297,0.0,-0.125,-0.03125,0.0,0.0,0.0,274
244,1696243013490,0.025390625,-0.057617188,0.9970703,0.0,-0.25,0.03125,0.0,0.0,0.0,275
245,1696243013530,0.01171875,-0.068359375,1.0117188,0.0625,-0.125,0.03125,0.0,0.0,0.0,276
246,1696243013570,0.020507812,-0.06347656,1.0058594,0.1875,-0.0625,-0.03125,0.0,0.0,0.0,277
247,1696243013610,0.022460938,-0.06347656,0.99902344,0.0625,-0.0625,-0.03125,0.0,0.0,0.0,278
248,1696243013650,0.029296875,-0.059570312,1.0117188,0.125,0.0625,-0.15625,0.0,0.0,0.0,279
249,1696243013690,0.020507812,-0.06347656,1.0078125,0.1875,0.0625,0.09375,0.0,0.0,0.0,280
250,1696243013730,0.024414062,-0.06738281,1.015625,0.1875,0.0,0.03125,0.0,0.0,0.0,281
251,1696243013770,0.022460938,-0.052734375,1.0126953,0.25,0.0,-0.09375,0.0,0.0,0.0,282
252,1696243013810,0.025390625,-0.061523438,1.0087891,0.0,-0.25,0.03125,0.0,0.0,0.0,283
253,1696243013850,0.024414062,-0.061523438,1.0009766,0.0625,-0.0625,-0.03125,0.0,0.0,0.0,284
254,1696243013890,0.013671875,-0.05859375,1.0068359,0.1875,0.0625,0.09375,-55.625,2.4375,-23.1875,285
255,1696243013930,0.021484375,-0.0703125,1.0126953,0.0625,-0.25,-0.15625,0.0,0.0,0.0,286
256,1696243013970,0.024414062,-0.072265625,1.0097656,0.0625,-0.1875,0.15625,0.0,0.0,0.0,287
257,1696243014010,0.020507812,-0.0625,1.0205078,0.125,0.59375,0.09375,0.0,0.0,0.0,288
258,1696243014050,0.01953125,-0.060546875,1.0078125,-0.25,0.0,-0.09375,0.0,0.0,0.0,289
259,1696243014090,0.022460938,-0.055664062,1.0107422,-0.25,-0.375,-0.09375,0.0,0.0,0.0,290
260,1696243014130,0.0234375,-0.064453125,0.99902344,-0.1875,-0.25,0.28125,0.0,0.0,0.0,291
261,1696243014170,0.0126953125,-0.057617188,0.9980469,0.125,0.1875,0.15625,0.0,0.0,0.0,292
262,1696243014210,0.018554688,-0.07421875,1.0039062,-0.125,0.1875,-0.09375,0.0,0.0,0.0,293
263,1696243014250,0.0107421875,-0.060546875,1.0214844,0.0625,-0.1875,0.03125,0.0,0.0,0.0,294
264,1696243014290,0.01953125,-0.06640625,1.0068359,0.0625,-0.1875,0.03125,0.0,0.0,0.0,295
265,1696243014330,0.02734375,-0.06542969,1.0058594,0.0625,-0.0625,0.09375,0.0,0.0,0.0,296
266,1696243014370,0.022460938,-0.07421875,1.0039062,0.125,0.125,0.09375,0.0,0.0,0.0,297
267,1696243014410,0.021484375,-0.0546875,1.0136719,0.125,0.125,-0.03125,-56.875,3.9375,-23.1875,298
268,1696243014450,0.017578125,-0.052734375,1.015625,0.0625,-0.0625,0.21875,0.0,0.0,0.0,299
269,1696243014490,0.020507812,-0.06933594,1.0175781,0.0,-0.125,0.15625,0.0,0.0,0.0,300
270,1696243014530,0.028320312,-0.064453125,1.0107422,0.0625,-0.125,0.09375,0.0,0.0,0.0,301
271,1696243014570,0.020507812,-0.061523438,1.0126953,0.0,-0.0625,-0.09375,0.0,0.0,0.0,302
272,1696243014610,0.024414062,-0.060546875,1.0126953,0.125,0.0625,0.03125,0.0,0.0,0.0,303
273,1696243014650,0.020507812,-0.064453125,1.0009766,0.1875,0.125,0.15625,0.0,0.0,0.0,304
274,1696243014690,0.018554688,-0.072265625,1.0126953,-0.0625,0.0,0.09375,0.0,0.0,0.0,305
275,1696243014730,0.020507812,-0.06933594,1.015625,0.0,-0.0625,0.09375,0.0,0.0,0.0,306
276,1696243014770,0.01953125,-0.06347656,1.0048828,0.0625,-0.125,0.09375,0.0,0.0,0.0,307
277,1696243014810,0.01953125,-0.059570312,1.0078125,0.0625,-0.25,0.03125,0.0,0.0,0.0,308
278,1696243014850,0.013671875,-0.0703125,1.0097656,0.0625,0.125,0.34375,0.0,0.0,0.0,309
279,1696243014890,0.0234375,-0.061523438,1.015625,0.125,0.25,-0.03125,-54.75,2.3125,-22.5625,310
280,1696243014930,0.020507812,-0.0625,1.0068359,-0.0625,-0.1875,-0.15625,0.0,0.0,0.0,311
281,1696243014970,0.026367188,-0.060546875,1.0029297,-0.375,-0.375,-0.03125,0.0,0.0,0.0,312
282,1696243015010,0.017578125,-0.05859375,1.0126953,-0.0625,-0.0625,0.03125,0.0,0.0,0.0,313
283,1696243015050,0.015625,-0.06347656,1.0126953,0.1875,0.125,0.03125,0.0,0.0,0.0,314
284,1696243015090,0.021484375,-0.059570312,1.0126953,0.0,0.0625,-0.09375,0.0,0.0,0.0,315
285,1696243015130,0.015625,-0.064453125,1.0136719,-0.1875,-0.25,0.09375,0.0,0.0,0.0,316
286,1696243015170,0.026367188,-0.06933594,1.0029297,0.0,-0.1875,0.21875,0.0,0.0,0.0,317
287,1696243015210,0.018554688,-0.06347656,0.9970703,0.1875,0.0,-0.03125,0.0,0.0,0.0,318
288,1696243015250,0.018554688,-0.05859375,1.0029297,0.1875,0.1875,-0.15625,0.0,0.0,0.0,319
289,1696243015290,0.026367188,-0.06347656,1.0205078,0.0,0.0,-0.03125,0.0,0.0,0.0,320
290,1696243015330,0.017578125,-0.052734375,1.0039062,-0.0625,-0.0625,0.28125,0.0,0.0,0.0,321
291,1696243015370,0.009765625,-0.06933594,1.0117188,-0.3125,-0.0625,0.03125,0.0,0.0,0.0,322
292,1696243015410,0.020507812,-0.064453125,1.0068359,-0.125,0.0,0.03125,-56.125,2.4375,-22.4375,323
293,1696243015450,0.018554688,-0.064453125,1.0058594,0.0625,0.0,-0.03125,0.0,0.0,0.0,324
294,1696243015490,0.020507812,-0.061523438,1.0078125,0.375,0.125,-0.09375,0.0,0.0,0.0,325
295,1696243015530,0.022460938,-0.06347656,1.0058594,0.1875,-0.125,0.09375,0.0,0.0,0.0,326
296,1696243015570,0.015625,-0.0625,1.0029297,0.0625,-0.09375,-0.34375,0.0,0.0,0.0,327
297,1696243015610,0.021484375,-0.05078125,0.9951172,0.0,-0.34375,-0.28125,0.0,0.0,0.0,328
298,1696243015650,0.009765625,-0.07519531,1.0,0.0,0.0,0.15625,0.0,0.0,0.0,329
299,1696243015690,0.02734375,-0.059570312,1.0087891,0.4375,0.375,-0.15625,0.0,0.0,0.0,330
300,1696243015730,0.0234375,-0.064453125,1.0107422,-0.0625,0.0625,-0.375,0.0,0.0,0.0,331
301,1696243015770,0.017578125,-0.06347656,1.0146484,0.0,-0.21875,-0.28125,0.0,0.0,0.0,332
302,1696243015810,0.01953125,-0.06542969,1.0107422,-0.1875,-0.28125,0.09375,0.0,0.0,0.0,333
303,1696243015850,0.013671875,-0.072265625,1.0078125,-0.0625,-0.03125,-0.03125,0.0,0.0,0.0,334
304,1696243015890,0.017578125,-0.07421875,1.0048828,0.0,0.0,-0.34375,-56.5625,3.3125,-23.0,335
305,1696243015930,0.0146484375,-0.06542969,1.0195312,0.1875,-0.09375,-0.34375,0.0,0.0,0.0,336
306,1696243015970,0.0234375,-0.06347656,1.0087891,0.0625,-0.21875,-0.15625,0.0,0.0,0.0,337
307,1696243016010,0.026367188,-0.05859375,1.0136719,0.25,0.0,-0.15625,0.0,0.0,0.0,338
308,1696243016050,0.017578125,-0.059570312,1.0175781,0.1875,0.0,-0.375,0.0,0.0,0.0,339
309,1696243016090,0.022460938,-0.064453125,1.0136719,0.0,-0.03125,-0.15625,0.0,0.0,0.0,340
310,1696243016130,0.024414062,-0.0625,1.0058594,0.0,-0.09375,-0.09375,0.0,0.0,0.0,341
311,1696243016170,0.022460938,-0.0703125,1.0146484,0.0625,-0.03125,-0.03125,0.0,0.0,0.0,342
312,1696243016210,0.016601562,-0.07128906,1.0058594,0.0,-0.03125,-0.28125,0.0,0.0,0.0,343
313,1696243016250,0.013671875,-0.060546875,0.99121094,0.0,-0.15625,-0.15625,0.0,0.0,0.0,344
314,1696243016290,0.018554688,-0.056640625,1.0048828,0.0625,-0.03125,-0.28125,0.0,0.0,0.0,345
315,1696243016330,0.013671875,-0.06640625,1.0107422,0.125,0.0,-0.03125,0.0,0.0,0.0,346
316,1696243016370,0.033203125,-0.0625,1.0019531,0.0625,-0.15625,-0.28125,0.0,0.0,0.0,347
317,1696243016410,0.022460938,-0.056640625,1.0048828,0.0625,0.0,-0.09375,-56.5625,1.8125,-22.5625,348
318,1696243016450,0.015625,-0.06738281,1.0185547,0.0625,0.3125,-0.15625,0.0,0.0,0.0,349
319,1696243016490,0.016601562,-0.06542969,1.0019531,-0.46875,-0.15625,-0.28125,0.0,0.0,0.0,350
320,1696243016530,0.016601562,-0.06933594,1.0078125,-0.28125,-0.21875,-0.28125,0.0,0.0,0.0,351
321,1696243016570,0.02734375,-0.061523438,1.0078125,-0.125,-0.21875,-0.15625,0.0,0.0,0.0,352
322,1696243016610,0.0146484375,-0.06738281,1.0234375,0.125,0.0625,0.03125,0.0,0.0,0.0,353
323,1696243016650,0.018554688,-0.05859375,1.0126953,0.0,0.0,-0.15625,0.0,0.0,0.0,354
324,1696243016690,0.020507812,-0.05859375,1.015625,0.0,-0.28125,-0.09375,0.0,0.0,0.0,355
325,1696243016730,0.01171875,-0.0703125,1.0039062,0.1875,-0.09375,-0.09375,0.0,0.0,0.0,356
326,1696243016770,0.018554688,-0.064453125,1.0078125,0.1875,0.0,-0.03125,0.0,0.0,0.0,357
327,1696243016810,0.028320312,-0.0625,1.0029297,0.1875,0.0,-0.15625,0.0,0.0,0.0,358
328,1696243016850,0.026367188,-0.060546875,1.0107422,0.0,-0.15625,-0.15625,0.0,0.0,0.0,359
329,1696243016890,0.016601562,-0.068359375,0.99902344,0.0,-0.15625,-0.03125,-55.1875,4.0625,-23.625,360
330,1696243016930,0.022460938,-0.06640625,1.0097656,0.0,-0.09375,-0.03125,0.0,0.0,0.0,361
331,1696243016970,0.022460938,-0.07324219,1.0214844,0.125,-0.03125,-0.15625,0.0,0.0,0.0,362
332,1696243017010,0.0234375,-0.060546875,1.0097656,0.0,0.0,-0.15625,0.0,0.0,0.0,363
333,1696243017050,0.02734375,-0.06542969,1.0097656,0.0,-0.03125,-0.21875,0.0,0.0,0.0,364
334,1696243017090,0.024414062,-0.05859375,1.0126953,0.0,-0.09375,0.09375,0.0,0.0,0.0,365
335,1696243017130,0.021484375,-0.06933594,1.0107422,0.0,0.0,-0.03125,0.0,0.0,0.0,366
336,1696243017170,0.020507812,-0.07128906,1.0068359,0.125,-0.09375,-0.21875,0.0,0.0,0.0,367
337,1696243017210,0.01953125,-0.0546875,1.0205078,-0.0625,-0.15625,-0.09375,0.0,0.0,0.0,368
338,1696243017250,0.017578125,-0.0625,1.0087891,0.125,0.0625,-0.09375,0.0,0.0,0.0,369
339,1696243017290,0.016601562,-0.06542969,1.0126953,0.0,-0.09375,-0.34375,0.0,0.0,0.0,370
340,1696243017330,0.0146484375,-0.05859375,1.0097656,-0.125,-0.09375,-0.28125,0.0,0.0,0.0,371
341,1696243017370,0.01953125,-0.06347656,1.0166016,0.0,-0.03125,0.09375,0.0,0.0,0.0,372
342,1696243017410,0.020507812,-0.06347656,1.0097656,0.125,0.25,-0.15625,-56.375,1.6875,-21.375,373
343,1696243017450,0.013671875,-0.0703125,1.0234375,-0.1875,-0.21875,-0.09375,0.0,0.0,0.0,374
344,1696243017490,0.0234375,-0.0625,1.0078125,-0.0625,-0.21875,-0.09375,0.0,0.0,0.0,375
345,1696243017530,0.016601562,-0.059570312,1.0097656,-0.125,0.0,-0.03125,0.0,0.0,0.0,376
346,1696243017570,0.0146484375,-0.064453125,1.0097656,0.0625,0.125,-0.15625,0.0,0.0,0.0,377
347,1696243017610,0.01953125,-0.064453125,1.0205078,0.0625,-0.03125,-0.15625,0.0,0.0,0.0,378
348,1696243017650,0.022460938,-0.07324219,1.0058594,0.0,-0.15625,-0.21875,0.0,0.0,0.0,379
349,1696243017690,0.01953125,-0.06640625,1.0058594,0.0625,-0.09375,-0.03125,0.0,0.0,0.0,380
350,1696243017730,0.0234375,-0.06347656,1.0029297,0.0625,0.0,-0.15625,0.0,0.0,0.0,381
351,1696243017770,0.017578125,-0.05859375,1.0097656,0.125,0.0625,-0.15625,0.0,0.0,0.0,382
352,1696243017810,0.026367188,-0.056640625,1.0068359,0.0,-0.15625,0.03125,0.0,0.0,0.0,383
353,1696243017850,0.0107421875,-0.06347656,1.0097656,-0.1875,-0.09375,-0.09375,0.0,0.0,0.0,384
354,1696243017890,0.022460938,-0.072265625,1.0009766,-0.1875,-0.09375,0.09375,-55.9375,1.5625,-23.625,385
355,1696243017930,0.021484375,-0.064453125,1.0126953,0.0,-0.09375,-0.15625,0.0,0.0,0.0,386
356,1696243017970,0.024414062,-0.064453125,1.0087891,0.0,-0.03125,-0.09375,0.0,0.0,0.0,387
357,1696243018010,0.018554688,-0.06542969,0.9970703,0.0625,0.0,0.03125,0.0,0.0,0.0,388
358,1696243018050,0.02734375,-0.064453125,1.0058594,0.0625,0.0625,-0.09375,0.0,0.0,0.0,389
359,1696243018090,0.0146484375,-0.061523438,0.9970703,0.0625,0.125,-0.03125,0.0,0.0,0.0,390
360,1696243018130,0.0234375,-0.0625,1.0097656,-0.1875,-0.03125,-0.03125,0.0,0.0,0.0,391
361,1696243018170,0.02734375,-0.06347656,1.0117188,-0.0625,0.0,0.09375,0.0,0.0,0.0,392
362,1696243018210,0.015625,-0.06542969,1.0087891,0.0,-0.03125,0.0,0.0,0.0,0.0,393
363,1696243018250,0.024414062,-0.05859375,1.0146484,0.0,0.03125,0.03125,0.0,0.0,0.0,394
364,1696243018290,0.020507812,-0.06347656,1.0175781,0.15625,0.21875,0.34375,0.0,0.0,0.0,395
365,1696243018330,0.020507812,-0.06640625,1.0087891,-0.125,0.28125,0.03125,0.0,0.0,0.0,396
366,1696243018370,0.021484375,-0.0546875,1.0058594,-0.5,-0.15625,-0.125,0.0,0.0,0.0,397
367,1696243018410,0.022460938,-0.06542969,1.0039062,-0.3125,-0.03125,0.21875,-55.625,3.1875,-24.5,398
368,1696243018450,0.016601562,-0.060546875,1.0195312,0.0625,0.09375,0.21875,0.0,0.0,0.0,399
369,1696243018490,0.015625,-0.06640625,1.0087891,0.125,0.21875,-0.0625,0.0,0.0,0.0,400
370,1696243018530,0.024414062,-0.055664062,1.0175781,-0.0625,0.03125,-0.25,0.0,0.0,0.0,401
371,1696243018570,0.017578125,-0.0703125,1.0146484,-0.25,-0.09375,0.15625,0.0,0.0,0.0,402
372,1696243018610,0.02734375,-0.0703125,1.0058594,-0.0625,-0.03125,0.21875,0.0,0.0,0.0,403
373,1696243018650,0.016601562,-0.06640625,1.0117188,0.28125,0.28125,0.21875,0.0,0.0,0.0,404
374,1696243018690,0.01953125,-0.06542969,1.0068359,0.0,0.15625,0.0,0.0,0.0,0.0,405
375,1696243018730,0.021484375,-0.059570312,1.0195312,-0.125,-0.03125,0.15625,0.0,0.0,0.0,406
376,1696243018770,0.030273438,-0.059570312,1.0195312,0.0,-0.09375,0.09375,0.0,0.0,0.0,407
377,1696243018810,0.0146484375,-0.06542969,1.0068359,-0.1875,-0.03125,0.09375,0.0,0.0,0.0,408
378,1696243018850,0.016601562,-0.06640625,1.0136719,-0.25,-0.03125,-0.0625,0.0,0.0,0.0,409
379,1696243018890,0.022460938,-0.072265625,1.0019531,-0.0625,-0.03125,0.03125,-56.5625,2.875,-24.0625,410
380,1696243018930,0.01953125,-0.061523438,1.0048828,0.0,-0.03125,-0.0625,0.0,0.0,0.0,411
381,1696243018970,0.017578125,-0.06640625,1.0029297,0.0,-0.09375,0.21875,0.0,0.0,0.0,412
382,1696243019010,0.017578125,-0.064453125,1.0,0.0625,0.09375,0.09375,0.0,0.0,0.0,413
383,1696243019050,0.022460938,-0.060546875,1.0039062,0.125,0.15625,-0.125,0.0,0.0,0.0,414
384,1696243019090,0.024414062,-0.06542969,1.0107422,0.0,-0.15625,-0.1875,0.0,0.0,0.0,415
385,1696243019130,0.013671875,-0.0625,1.0146484,0.0625,0.15625,0.34375,0.0,0.0,0.0,416
386,1696243019170,0.024414062,-0.0625,1.0166016,0.0,0.28125,-0.0625,0.0,0.0,0.0,417
387,1696243019210,0.018554688,-0.07910156,1.0136719,-0.25,-0.03125,-0.1875,0.0,0.0,0.0,418
388,1696243019250,0.028320312,-0.06347656,1.0175781,-0.3125,-0.3125,0.0,0.0,0.0,0.0,419
389,1696243019290,0.021484375,-0.06640625,1.0117188,-0.0625,-0.15625,0.09375,0.0,0.0,0.0,420
390,1696243019330,0.017578125,-0.06542969,1.015625,0.15625,0.09375,-0.125,0.0,0.0,0.0,421
391,1696243019370,0.0234375,-0.060546875,0.99609375,-0.0625,0.03125,-0.25,0.0,0.0,0.0,422
392,1696243019410,0.01171875,-0.06347656,0.99609375,0.0,-0.25,-0.25,-58.1875,2.4375,-22.6875,423
393,1696243019450,0.025390625,-0.06347656,0.9921875,0.125,-0.25,0.0,0.0,0.0,0.0,424
394,1696243019490,0.028320312,-0.06640625,1.0019531,0.0625,-0.03125,-0.0625,0.0,0.0,0.0,425
395,1696243019530,0.017578125,-0.0625,1.0068359,0.21875,0.03125,-0.1875,0.0,0.0,0.0,426
396,1696243019570,0.022460938,-0.07519531,1.0224609,-0.0625,-0.21875,-0.0625,0.0,0.0,0.0,427
397,1696243019610,0.020507812,-0.0625,1.0195312,-0.0625,-0.09375,-0.0625,0.0,0.0,0.0,428
398,1696243019650,0.021484375,-0.064453125,1.0107422,0.125,0.03125,-0.0625,0.0,0.0,0.0,429
399,1696243019690,0.025390625,-0.0625,0.99609375,0.125,-0.03125,-0.1875,0.0,0.0,0.0,430
400,1696243019730,0.020507812,-0.060546875,1.0087891,0.21875,-0.09375,-0.125,0.0,0.0,0.0,431
401,1696243019770,0.021484375,-0.0546875,1.0117188,0.125,-0.15625,-0.125,0.0,0.0,0.0,432
402,1696243019810,0.01953125,-0.06347656,1.0166016,-0.125,-0.09375,0.03125,0.0,0.0,0.0,433
403,1696243019850,0.013671875,-0.068359375,1.0019531,-0.25,-0.21875,0.0,0.0,0.0,0.0,434
404,1696243019890,0.021484375,-0.07324219,0.99609375,-0.125,-0.25,-0.1875,-54.75,2.5625,-23.625,435
405,1696243019930,0.0068359375,-0.07421875,1.015625,-0.0625,-0.03125,0.15625,0.0,0.0,0.0,436
406,1696243019970,0.0146484375,-0.06347656,1.0107422,0.40625,0.28125,0.03125,0.0,0.0,0.0,437
407,1696243020010,0.009765625,-0.06347656,1.0126953,0.34375,0.03125,-0.3125,0.0,0.0,0.0,438
408,1696243020050,0.022460938,-0.055664062,1.0058594,0.125,-0.21875,-0.125,0.0,0.0,0.0,439
409,1696243020090,0.021484375,-0.056640625,0.9970703,0.0625,-0.21875,0.0,0.0,0.0,0.0,440
410,1696243020130,0.021484375,-0.055664062,1.0078125,-0.125,0.09375,0.03125,0.0,0.0,0.0,441
411,1696243020170,0.0087890625,-0.064453125,1.0087891,-0.4375,0.03125,-0.1875,0.0,0.0,0.0,442
412,1696243020210,0.0146484375,-0.07324219,1.0029297,-0.375,-0.21875,-0.0625,0.0,0.0,0.0,443
413,1696243020250,0.021484375,-0.0703125,1.0068359,-0.0625,-0.4375,0.0,0.0,0.0,0.0,444
414,1696243020290,0.021484375,-0.06640625,1.0078125,0.125,0.03125,0.0,0.0,0.0,0.0,445
415,1696243020330,0.025390625,-0.061523438,1.0058594,0.46875,0.09375,-0.0625,0.0,0.0,0.0,446
416,1696243020370,0.0234375,-0.06347656,1.0126953,0.125,-0.03125,0.0,0.0,0.0,0.0,447
417,1696243020410,0.02734375,-0.055664062,1.0087891,0.0,-0.15625,-0.125,-56.25,2.3125,-23.3125,448
418,1696243020450,0.015625,-0.060546875,1.0058594,0.0,-0.15625,0.09375,0.0,0.0,0.0,449
419,1696243020490,0.024414062,-0.06640625,1.0087891,-0.0625,0.03125,0.0,0.0,0.0,0.0,450
420,1696243020530,0.018554688,-0.061523438,1.0068359,0.0,0.03125,-0.0625,0.0,0.0,0.0,451
421,1696243020570,0.020507812,-0.05859375,0.99902344,0.125,-0.09375,-0.25,0.0,0.0,0.0,452
422,1696243020610,0.01953125,-0.05859375,1.0117188,0.0,-0.03125,-0.0625,0.0,0.0,0.0,453
423,1696243020650,0.0078125,-0.056640625,1.0097656,-0.125,-0.03125,-0.0625,0.0,0.0,0.0,454
424,1696243020690,0.030273438,-0.059570312,1.0019531,-0.0625,-0.03125,0.0,0.0,0.0,0.0,455
425,1696243020730,0.018554688,-0.0703125,0.99902344,0.15625,0.15625,-0.125,0.0,0.0,0.0,456
426,1696243020770,0.0234375,-0.051757812,1.0087891,0.21875,-0.03125,-0.125,0.0,0.0,0.0,457
427,1696243020810,0.022460938,-0.056640625,1.0087891,0.0,-0.09375,-0.1875,0.0,0.0,0.0,458
428,1696243020850,0.01171875,-0.06640625,1.0107422,0.15625,0.21875,0.15625,0.0,0.0,0.0,459
429,1696243020890,0.022460938,-0.06933594,1.0039062,0.0625,0.40625,0.0,-57.3125,2.5625,-22.5625,460
430,1696243020930,0.017578125,-0.0546875,1.0234375,-0.3125,-0.25,-0.1875,0.0,0.0,0.0,461
431,1696243020970,0.020507812,-0.060546875,0.9951172,-0.3125,-0.21875,-0.25,0.0,0.0,0.0,462
432,1696243021010,0.018554688,-0.06640625,1.0087891,-0.3125,-0.03125,0.09375,0.0,0.0,0.0,463
433,1696243021050,0.020507812,-0.07714844,1.0097656,0.0,0.34375,0.0,0.0,0.0,0.0,464
434,1696243021090,0.01171875,-0.05859375,1.0117188,0.21875,0.34375,-0.0625,0.0,0.0,0.0,465
435,1696243021130,0.017578125,-0.05859375,1.0117188,0.21875,-0.15625,0.03125,0.0,0.0,0.0,466
436,1696243021170,0.01953125,-0.057617188,1.0039062,0.125,-0.09375,0.0,0.0,0.0,0.0,467
437,1696243021210,0.021484375,-0.059570312,1.0107422,-0.125,0.21875,0.21875,0.0,0.0,0.0,468
438,1696243021250,0.018554688,-0.06347656,1.0039062,-0.4375,0.15625,-0.0625,0.0,0.0,0.0,469
439,1696243021290,0.021484375,-0.072265625,0.9980469,-0.25,-0.21875,0.03125,0.0,0.0,0.0,470
440,1696243021330,0.0146484375,-0.0703125,0.9980469,-0.125,-0.09375,0.15625,0.0,0.0,0.0,471
441,1696243021370,0.024414062,-0.06640625,1.0126953,0.34375,0.15625,-0.0625,0.0,0.0,0.0,472
442,1696243021410,0.0234375,-0.07324219,1.0087891,0.34375,0.15625,0.03125,-57.3125,3.625,-23.0,473
443,1696243021450,0.022460938,-0.05078125,1.0039062,0.21875,-0.03125,-0.0625,0.0,0.0,0.0,474
444,1696243021490,0.021484375,-0.05859375,1.0136719,0.0,-0.03125,0.03125,0.0,0.0,0.0,475
445,1696243021530,0.025390625,-0.059570312,1.0107422,-0.25,0.21875,0.03125,0.0,0.0,0.0,476
446,1696243021570,0.018554688,-0.068359375,1.0058594,-0.4375,0.03125,0.03125,0.0,0.0,0.0,477
447,1696243021610,0.01953125,-0.061523438,1.0019531,-0.3125,-0.03125,-0.0625,0.0,0.0,0.0,478
448,1696243021650,0.017578125,-0.07128906,1.0244141,0.0,-0.09375,0.03125,0.0,0.0,0.0,479
449,1696243021690,0.0234375,-0.06933594,1.0107422,0.34375,0.21875,-0.0625,0.0,0.0,0.0,480
450,1696243021730,0.021484375,-0.06542969,1.0,0.40625,0.15625,0.03125,0.0,0.0,0.0,481
451,1696243021770,0.01953125,-0.051757812,1.0175781,0.125,0.09375,-0.25,0.0,0.0,0.0,482
452,1696243021810,0.016601562,-0.055664062,1.0058594,0.125,0.15625,0.28125,0.0,0.0,0.0,483
453,1696243021850,0.017578125,-0.061523438,1.0107422,-0.1875,0.46875,0.15625,0.0,0.0,0.0,484
454,1696243021890,0.016601562,-0.05859375,1.0185547,-0.6875,-0.03125,-0.0625,-56.5625,3.3125,-22.5625,485
455,1696243021930,0.022460938,-0.06640625,1.015625,-0.4375,-0.21875,0.03125,0.0,0.0,0.0,486
456,1696243021970,0.021484375,-0.06738281,1.0107422,-0.25,0.03125,0.21875,0.0,0.0,0.0,487
457,1696243022010,0.009765625,-0.06542969,1.0107422,0.0625,0.09375,0.03125,0.0,0.0,0.0,488
458,1696243022050,0.020507812,-0.06347656,1.0175781,0.15625,0.15625,-0.125,0.0,0.0,0.0,489
459,1696243022090,0.015625,-0.06933594,1.0,-0.125,-0.15625,0.09375,0.0,0.0,0.0,490
460,1696243022130,0.02734375,-0.06933594,1.0048828,0.0625,-0.09375,0.0,0.0,0.0,0.0,491
461,1696243022170,0.018554688,-0.0703125,1.0029297,0.0625,0.15625,0.15625,0.0,0.0,0.0,492
462,1696243022210,0.021484375,-0.0625,1.0185547,0.0625,0.21875,0.0,0.0,0.0,0.0,493
463,1696243022250,0.0146484375,-0.05859375,1.0068359,-0.1875,-0.09375,0.09375,0.0,0.0,0.0,494
464,1696243022290,0.01953125,-0.064453125,1.0302734,0.0,0.03125,0.09375,0.0,0.0,0.0,495
465,1696243022330,0.026367188,-0.064453125,1.0087891,-0.0625,-0.03125,0.09375,0.0,0.0,0.0,496
466,1696243022370,0.022460938,-0.06347656,1.0078125,-0.1875,0.03125,0.0,0.0,0.0,0.0,497
467,1696243022410,0.025390625,-0.05859375,1.0039062,0.0625,0.09375,0.03125,-55.625,2.4375,-24.1875,498
468,1696243022450,0.024414062,-0.0703125,1.0068359,-0.125,-0.03125,0.03125,0.0,0.0,0.0,499
469,1696243022490,0.015625,-0.06640625,1.0087891,0.0,0.21875,0.0,0.0,0.0,0.0,500
470,1696243022530,0.017578125,-0.06640625,1.0039062,0.125,0.09375,0.03125,0.0,0.0,0.0,501
471,1696243022570,0.0146484375,-0.076171875,1.0107422,0.0,-0.03125,-0.0625,0.0,0.0,0.0,502
472,1696243022610,0.018554688,-0.068359375,1.0087891,0.0625,0.15625,0.21875,0.0,0.0,0.0,503
473,1696243022650,0.018554688,-0.06347656,1.0029297,-0.0625,0.03125,0.03125,0.0,0.0,0.0,504
474,1696243022690,0.0107421875,-0.0625,1.0029297,0.0,0.09375,0.21875,0.0,0.0,0.0,505
475,1696243022730,0.017578125,-0.06933594,1.0087891,0.21875,0.28125,0.09375,0.0,0.0,0.0,506
476,1696243022770,0.018554688,-0.06640625,1.0126953,0.125,0.28125,0.0,0.0,0.0,0.0,507
477,1696243022810,0.021484375,-0.06542969,1.0078125,-0.375,-0.15625,0.0,0.0,0.0,0.0,508
478,1696243022850,0.0234375,-0.057617188,0.99609375,-0.3125,0.03125,0.15625,0.0,0.0,0.0,509
479,1696243022890,0.0087890625,-0.07128906,1.0058594,-0.125,0.09375,0.21875,-56.125,2.4375,-23.9375,510
480,1696243022930,0.018554688,-0.068359375,1.0146484,0.0,0.15625,-0.125,0.0,0.0,0.0,511
481,1696243022970,0.015625,-0.059570312,0.99902344,0.0625,-0.09375,-0.0625,0.0,0.0,0.0,512
482,1696243023010,0.0107421875,-0.057617188,1.0048828,0.0,-0.15625,-0.0625,0.0,0.0,0.0,513
483,1696243023050,0.0234375,-0.07128906,1.0048828,0.125,-0.09375,-0.25,0.0,0.0,0.0,514
484,1696243023090,0.01171875,-0.06933594,1.0048828,0.0625,0.03125,-0.125,0.0,0.0,0.0,515
485,1696243023130,0.022460938,-0.068359375,1.0097656,0.0625,-0.03125,-0.1875,0.0,0.0,0.0,516
486,1696243023170,0.0234375,-0.06640625,1.0048828,0.0,-0.09375,0.0,0.0,0.0,0.0,517
487,1696243023210,0.018554688,-0.059570312,1.0166016,-0.125,-0.15625,0.0,0.0,0.0,0.0,518
488,1696243023250,0.009765625,-0.056640625,1.0195312,-0.125,0.03125,-0.125,0.0,0.0,0.0,519
489,1696243023290,0.013671875,-0.07128906,1.0078125,-0.0625,0.03125,-0.125,0.0,0.0,0.0,520
490,1696243023330,0.018554688,-0.07128906,1.0039062,0.21875,-0.03125,0.0,0.0,0.0,0.0,521
491,1696243023370,0.01953125,-0.055664062,1.0087891,0.28125,-0.09375,-0.25,0.0,0.0,0.0,522
492,1696243023410,0.02734375,-0.059570312,1.015625,0.21875,-0.03125,-0.1875,-56.125,2.0,-23.4375,523
493,1696243023450,0.024414062,-0.055664062,1.0009766,0.0625,-0.03125,-0.0625,0.0,0.0,0.0,524
494,1696243023490,0.021484375,-0.06542969,1.0166016,-0.1875,-0.03125,-0.0625,0.0,0.0,0.0,525
495,1696243023530,0.024414062,-0.0625,1.0019531,-0.375,-0.21875,-0.1875,0.0,0.0,0.0,526
496,1696243023570,0.016601562,-0.076171875,1.0087891,-0.1875,0.09375,-0.0625,0.0,0.0,0.0,527
497,1696243023610,0.025390625,-0.060546875,1.0214844,0.34375,0.53125,-0.0625,0.0,0.0,0.0,528
498,1696243023650,0.020507812,-0.0625,1.0224609,0.0,-0.09375,-0.1875,0.0,0.0,0.0,529
499,1696243023690,0.0234375,-0.06542969,1.0185547,0.0,-0.15625,-0.1875,0.0,0.0,0.0,530
500,1696243023730,0.01953125,-0.06738281,0.99902344,0.0625,-0.03125,0.15625,0.0,0.0,0.0,531
501,1696243023770,0.021484375,-0.059570312,1.0048828,0.0625,0.28125,0.03125,0.0,0.0,0.0,532
502,1696243023810,0.01171875,-0.064453125,1.0039062,-0.0625,0.09375,0.0,0.0,0.0,0.0,533
503,1696243023850,0.022460938,-0.06640625,1.0146484,-0.125,-0.21875,0.0,0.0,0.0,0.0,534
504,1696243023890,0.017578125,-0.06738281,1.0048828,-0.0625,-0.375,0.0,-56.25,2.5625,-23.625,535
505,1696243023930,0.026367188,-0.06738281,0.9902344,0.28125,0.15625,0.03125,0.0,0.0,0.0,536
506,1696243023970,0.03125,-0.06640625,1.0097656,0.40625,0.21875,-0.125,0.0,0.0,0.0,537
507,1696243024010,0.028320312,-0.068359375,1.0136719,0.0625,0.15625,-0.25,0.0,0.0,0.0,538
508,1696243024050,0.01953125,-0.064453125,1.015625,0.0,-0.03125,0.09375,0.0,0.0,0.0,539
509,1696243024090,0.020507812,-0.064453125,0.9980469,-0.1875,-0.09375,-0.0625,0.0,0.0,0.0,540
510,1696243024130,0.015625,-0.06347656,1.0087891,-0.1875,-0.03125,-0.125,0.0,0.0,0.0,541
511,1696243024170,0.020507812,-0.064453125,1.0078125,0.0,0.03125,-0.0625,0.0,0.0,0.0,542
512,1696243024210,0.0126953125,-0.06542969,1.0058594,0.15625,0.03125,-0.0625,0.0,0.0,0.0,543
513,1696243024250,0.020507812,-0.06347656,1.0126953,0.28125,0.03125,0.0,0.0,0.0,0.0,544
514,1696243024290,0.022460938,-0.061523438,1.0166016,0.0625,0.03125,0.03125,0.0,0.0,0.0,545
515,1696243024330,0.0234375,-0.064453125,1.0107422,0.125,0.03125,0.03125,0.0,0.0,0.0,546
516,1696243024370,0.01953125,-0.060546875,0.9980469,-0.125,-0.03125,-0.0625,0.0,0.0,0.0,547
517,1696243024410,0.01953125,-0.060546875,1.0019531,-0.0625,0.03125,0.03125,-55.625,1.6875,-23.4375,548
518,1696243024450,0.0146484375,-0.064453125,1.0185547,0.0625,-0.03125,-0.0625,0.0,0.0,0.0,549
519,1696243024490,0.01171875,-0.06542969,1.0087891,0.0,-0.03125,0.0,0.0,0.0,0.0,550
520,1696243024530,0.016601562,-0.0625,1.0195312,0.21875,0.40625,0.09375,0.0,0.0,0.0,551
521,1696243024570,0.017578125,-0.068359375,1.0136719,0.0625,0.09375,0.0,0.0,0.0,0.0,552
522,1696243024610,0.015625,-0.057617188,1.0117188,-0.3125,-0.09375,-0.0625,0.0,0.0,0.0,553
523,1696243024650,0.022460938,-0.07128906,1.0058594,-0.1875,-0.15625,-0.0625,0.0,0.0,0.0,554
524,1696243024690,0.017578125,-0.06738281,1.0097656,0.15625,0.15625,0.09375,0.0,0.0,0.0,555
525,1696243024730,0.01171875,-0.05859375,1.0195312,0.0625,0.28125,-0.125,0.0,0.0,0.0,556
526,1696243024770,0.024414062,-0.053710938,1.0136719,0.34375,-0.03125,0.03125,0.0,0.0,0.0,557
527,1696243024810,0.020507812,-0.048828125,1.0146484,0.0625,-0.21875,-0.1875,0.0,0.0,0.0,558
528,1696243024850,0.021484375,-0.06640625,1.0117188,-0.1875,0.03125,0.03125,0.0,0.0,0.0,559
529,1696243024890,0.01953125,-0.0703125,1.0253906,-0.1875,0.28125,0.03125,-57.0,2.5625,-23.625,560
530,1696243024930,0.0126953125,-0.061523438,1.0117188,0.0,0.03125,0.0,0.0,0.0,0.0,561
531,1696243024970,0.0146484375,-0.06640625,1.0087891,0.0,-0.09375,0.03125,0.0,0.0,0.0,562
532,1696243025010,0.018554688,-0.068359375,1.0058594,0.28125,0.09375,0.03125,0.0,0.0,0.0,563
533,1696243025050,0.021484375,-0.064453125,1.015625,0.28125,-0.03125,0.09375,0.0,0.0,0.0,564
534,1696243025090,0.01953125,-0.059570312,1.0058594,0.0625,0.09375,0.03125,0.0,0.0,0.0,565
535,1696243025130,0.026367188,-0.059570312,1.0048828,-0.125,-0.03125,0.03125,0.0,0.0,0.0,566
536,1696243025170,0.0234375,-0.06640625,1.0087891,-0.125,-0.03125,-0.0625,0.0,0.0,0.0,567
537,1696243025210,0.017578125,-0.068359375,1.0009766,-0.25,0.09375,0.15625,0.0,0.0,0.0,568
538,1696243025250,0.018554688,-0.064453125,1.0107422,0.0625,0.09375,-0.0625,0.0,0.0,0.0,569
539,1696243025290,0.0146484375,-0.0546875,1.0205078,0.125,-0.09375,-0.0625,0.0,0.0,0.0,570
540,1696243025330,0.01953125,-0.0546875,1.0205078,0.0,-0.03125,0.03125,0.0,0.0,0.0,571
541,1696243025370,0.017578125,-0.06542969,1.0097656,0.0625,0.09375,0.03125,0.0,0.0,0.0,572
542,1696243025410,0.024414062,-0.06640625,1.0087891,-0.0625,-0.03125,-0.0625,-55.9375,2.3125,-23.625,573
543,1696243025450,0.024414062,-0.0625,0.99609375,0.15625,0.15625,0.03125,0.0,0.0,0.0,574
544,1696243025490,0.021484375,-0.068359375,1.0039062,0.34375,0.28125,0.15625,0.0,0.0,0.0,575
545,1696243025530,0.021484375,-0.053710938,1.0009766,0.0625,0.34375,-0.0625,0.0,0.0,0.0,576
546,1696243025570,0.020507812,-0.046875,1.015625,-0.625,-0.15625,0.0,0.0,0.0,0.0,577
547,1696243025610,0.021484375,-0.068359375,1.0087891,-0.6875,-0.09375,0.28125,0.0,0.0,0.0,578
548,1696243025650,0.013671875,-0.0703125,1.0126953,-0.25,0.03125,0.28125,0.0,0.0,0.0,579
549,1696243025690,0.0029296875,-0.06738281,1.015625,0.0625,0.21875,0.09375,0.0,0.0,0.0,580
550,1696243025730,0.021484375,-0.0625,0.99121094,0.40625,-0.09375,0.0,0.0,0.0,0.0,581
551,1696243025770,0.015625,-0.060546875,1.0097656,-0.125,-0.3125,0.03125,0.0,0.0,0.0,582
552,1696243025810,0.032226562,-0.057617188,1.0048828,0.15625,0.21875,0.03125,0.0,0.0,0.0,583
553,1696243025850,0.018554688,-0.061523438,1.0058594,0.15625,0.15625,0.0,0.0,0.0,0.0,584
554,1696243025890,0.0146484375,-0.0625,1.0117188,-0.3125,0.03125,0.0,-56.375,2.75,-23.1875,585
555,1696243025930,0.021484375,-0.06542969,1.0117188,0.0625,0.09375,0.15625,0.0,0.0,0.0,586
556,1696243025970,0.0146484375,-0.061523438,1.015625,0.125,0.28125,0.03125,0.0,0.0,0.0,587
557,1696243026010,0.025390625,-0.068359375,1.0117188,0.0625,0.28125,-0.125,0.0,0.0,0.0,588
558,1696243026050,0.016601562,-0.059570312,0.9941406,0.0,0.09375,-0.125,0.0,0.0,0.0,589
559,1696243026090,0.020507812,-0.064453125,1.0058594,0.0625,0.09375,0.09375,0.0,0.0,0.0,590
560,1696243026130,0.018554688,-0.06542969,1.0224609,0.15625,0.15625,0.09375,0.0,0.0,0.0,591
561,1696243026170,0.01953125,-0.0703125,1.0146484,-0.125,-0.03125,0.09375,0.0,0.0,0.0,592
562,1696243026210,0.028320312,-0.06347656,1.0058594,-0.1875,-0.09375,0.0,0.0,0.0,0.0,593
563,1696243026250,0.016601562,-0.055664062,1.0185547,0.15625,0.21875,0.09375,0.0,0.0,0.0,594
564,1696243026290,0.016601562,-0.0625,1.0136719,0.28125,-0.03125,0.15625,0.0,0.0,0.0,595
565,1696243026330,0.03125,-0.06347656,1.0039062,0.125,0.03125,-0.0625,0.0,0.0,0.0,596
566,1696243026370,0.0146484375,-0.056640625,0.9980469,0.0,0.21875,0.09375,0.0,0.0,0.0,597
567,1696243026410,0.016601562,-0.0625,1.0097656,-0.1875,0.34375,-0.125,-56.875,2.75,-23.4375,598
568,1696243026450,0.016601562,-0.064453125,1.0097656,-0.3125,0.03125,0.0,0.0,0.0,0.0,599
569,1696243026490,0.024414062,-0.068359375,1.0068359,-0.1875,-0.15625,0.03125,0.0,0.0,0.0,600
570,1696243026530,0.016601562,-0.068359375,1.0068359,0.0625,0.09375,0.15625,0.0,0.0,0.0,601
571,1696243026570,0.013671875,-0.072265625,1.0136719,0.0,0.28125,-0.0625,0.0,0.0,0.0,602
572,1696243026610,0.026367188,-0.0703125,1.0117188,-0.125,0.09375,-0.125,0.0,0.0,0.0,603
573,1696243026650,0.01171875,-0.06347656,1.0195312,-0.125,-0.25,0.21875,0.0,0.0,0.0,604
574,1696243026690,0.01953125,-0.068359375,1.0068359,-0.0625,-0.21875,0.28125,0.0,0.0,0.0,605
575,1696243026730,0.0234375,-0.06542969,1.0166016,0.28125,0.15625,0.03125,0.0,0.0,0.0,606
576,1696243026770,0.026367188,-0.064453125,1.0097656,0.28125,0.15625,-0.125,0.0,0.0,0.0,607
577,1696243026810,0.022460938,-0.056640625,0.9970703,-0.1875,-0.03125,0.0,0.0,0.0,0.0,608
578,1696243026850,0.018554688,-0.056640625,1.0058594,-0.0625,0.09375,0.21875,0.0,0.0,0.0,609
579,1696243026890,0.01171875,-0.059570312,1.0029297,-0.0625,0.09375,0.03125,-57.625,2.0,-22.4375,610
580,1696243026930,0.018554688,-0.0625,1.0039062,-0.25,0.09375,0.0,0.0,0.0,0.0,611
581,1696243026970,0.018554688,-0.07421875,1.0087891,-0.125,-0.03125,0.0,0.0,0.0,0.0,612
582,1696243027010,0.017578125,-0.0703125,1.0039062,0.125,0.09375,0.0,0.0,0.0,0.0,613
583,1696243027050,0.018554688,-0.068359375,0.9970703,0.21875,0.09375,-0.125,0.0,0.0,0.0,614
584,1696243027090,0.020507812,-0.06542969,1.0136719,0.125,0.03125,-0.0625,0.0,0.0,0.0,615
585,1696243027130,0.03125,-0.0625,1.0097656,-0.125,-0.15625,-0.25,0.0,0.0,0.0,616
586,1696243027170,0.0146484375,-0.06542969,1.0195312,-0.125,0.09375,0.03125,0.0,0.0,0.0,617
587,1696243027210,0.020507812,-0.0703125,1.0136719,0.21875,0.15625,0.15625,0.0,0.0,0.0,618
588,1696243027250,0.0234375,-0.064453125,1.0019531,0.03125,0.3125,-0.15625,0.0,0.0,0.0,619
589,1696243027290,0.0146484375,-0.05859375,1.015625,-0.21875,-0.3125,-0.15625,0.0,0.0,0.0,620
590,1696243027330,0.022460938,-0.0546875,1.0126953,-0.15625,-0.4375,0.125,0.0,0.0,0.0,621
591,1696243027370,0.015625,-0.060546875,1.0146484,0.03125,0.0,-0.03125,0.0,0.0,0.0,622
592,1696243027410,0.018554688,-0.064453125,1.0126953,-0.15625,0.0,-0.15625,-56.5625,2.5625,-23.3125,623
593,1696243027450,0.0126953125,-0.061523438,1.0019531,0.03125,-0.0625,-0.15625,0.0,0.0,0.0,624
594,1696243027490,0.018554688,-0.07714844,1.0136719,0.09375,-0.375,0.03125,0.0,0.0,0.0,625
595,1696243027530,0.022460938,-0.06738281,1.0117188,0.03125,-0.125,-0.15625,0.0,0.0,0.0,626
596,1696243027570,0.0126953125,-0.055664062,1.0068359,0.28125,0.125,-0.21875,0.0,0.0,0.0,627
597,1696243027610,0.017578125,-0.060546875,1.0244141,-0.09375,-0.125,-0.09375,0.0,0.0,0.0,628
598,1696243027650,0.022460938,-0.060546875,1.0078125,-0.21875,-0.1875,0.125,0.0,0.0,0.0,629
599,1696243027690,0.018554688,-0.052734375,1.0146484,-0.03125,-0.0625,-0.09375,0.0,0.0,0.0,630
600,1696243027730,0.022460938,-0.064453125,1.0126953,-0.15625,-0.0625,-0.09375,0.0,0.0,0.0,631
601,1696243027770,0.01953125,-0.06640625,1.0087891,0.03125,0.0,-0.15625,0.0,0.0,0.0,632
602,1696243027810,0.020507812,-0.061523438,1.0126953,0.09375,-0.125,0.03125,0.0,0.0,0.0,633
603,1696243027850,0.018554688,-0.05859375,1.0068359,0.09375,-0.125,-0.09375,0.0,0.0,0.0,634
604,1696243027890,0.018554688,-0.056640625,1.0214844,0.09375,0.0,-0.15625,-55.9375,3.3125,-25.125,635
605,1696243027930,0.0087890625,-0.06738281,1.0136719,-0.03125,0.125,-0.09375,0.0,0.0,0.0,636
606,1696243027970,0.024414062,-0.0625,1.0273438,-0.03125,-0.25,-0.15625,0.0,0.0,0.0,637
607,1696243028010,0.017578125,-0.068359375,1.0244141,-0.03125,-0.125,0.03125,0.0,0.0,0.0,638
608,1696243028050,0.020507812,-0.068359375,1.0166016,0.15625,0.375,0.03125,0.0,0.0,0.0,639
609,1696243028090,0.021484375,-0.056640625,1.0087891,-0.09375,-0.0625,-0.09375,0.0,0.0,0.0,640
610,1696243028130,0.0234375,-0.06542969,1.0078125,-0.375,-0.3125,-0.09375,0.0,0.0,0.0,641
611,1696243028170,0.016601562,-0.06640625,1.0078125,0.03125,-0.3125,0.125,0.0,0.0,0.0,642
612,1696243028210,0.017578125,-0.06542969,1.0117188,-0.09375,0.0625,-0.15625,0.0,0.0,0.0,643
613,1696243028250,0.021484375,-0.06738281,1.0126953,0.03125,0.125,-0.03125,0.0,0.0,0.0,644
614,1696243028290,0.018554688,-0.061523438,1.0214844,0.28125,-0.125,0.125,0.0,0.0,0.0,671
615,1696243028330,0.017578125,-0.0546875,1.0097656,-0.03125,-0.0625,0.125,0.0,0.0,0.0,672
616,1696243028370,0.015625,-0.057617188,1.0126953,-0.09375,-0.1875,-0.03125,-55.1875,1.8125,-23.0,673
617,1696243028410,0.018554688,-0.059570312,1.0126953,-0.21875,0.0,-0.03125,0.0,0.0,0.0,674
618,1696243028450,0.020507812,-0.0625,1.0019531,-0.25,-0.125,0.0625,0.0,0.0,0.0,675
619,1696243028490,0.016601562,-0.064453125,1.0107422,-0.03125,0.0,-0.03125,0.0,0.0,0.0,676
620,1696243028530,0.018554688,-0.064453125,1.0078125,-0.09375,-0.0625,-0.03125,0.0,0.0,0.0,677
621,1696243028570,0.028320312,-0.06347656,1.0136719,0.21875,0.0,-0.03125,0.0,0.0,0.0,678
622,1696243028610,0.0234375,-0.05859375,1.015625,0.03125,-0.0625,-0.03125,0.0,0.0,0.0,679
623,1696243028650,0.022460938,-0.064453125,1.0019531,0.03125,0.0,0.03125,0.0,0.0,0.0,680
624,1696243028690,0.018554688,-0.0546875,1.0185547,-0.03125,0.0,0.0625,0.0,0.0,0.0,681
625,1696243028730,0.018554688,-0.05859375,1.0058594,-0.375,-0.0625,-0.15625,0.0,0.0,0.0,682
626,1696243028770,0.015625,-0.07519531,1.0175781,-0.03125,0.25,0.1875,0.0,0.0,0.0,683
627,1696243028810,0.025390625,-0.061523438,1.0214844,-0.15625,0.25,-0.03125,0.0,0.0,0.0,684
628,1696243028850,0.024414062,-0.068359375,1.0097656,-0.21875,-0.375,0.03125,-57.3125,1.5625,-23.3125,685
629,1696243028890,0.02734375,-0.055664062,0.99902344,-0.09375,-0.25,0.03125,0.0,0.0,0.0,686
630,1696243028930,0.015625,-0.057617188,1.015625,0.03125,0.0625,0.0625,0.0,0.0,0.0,687
631,1696243028970,0.018554688,-0.056640625,1.0195312,-0.03125,0.25,0.03125,0.0,0.0,0.0,688
632,1696243029010,0.0087890625,-0.057617188,1.0117188,-0.03125,-0.0625,-0.03125,0.0,0.0,0.0,689
633,1696243029050,0.015625,-0.055664062,1.0087891,-0.3125,-0.3125,0.03125,0.0,0.0,0.0,690
634,1696243029090,0.036132812,-0.068359375,0.99902344,-0.03125,-0.0625,0.03125,0.0,0.0,0.0,691
635,1696243029130,0.01953125,-0.06347656,1.0175781,0.15625,0.25,0.0625,0.0,0.0,0.0,692
636,1696243029170,0.018554688,-0.06347656,1.0097656,0.03125,0.0,-0.03125,0.0,0.0,0.0,693
637,1696243029210,0.017578125,-0.068359375,1.0146484,-0.03125,-0.0625,-0.03125,0.0,0.0,0.0,694
638,1696243029250,0.017578125,-0.06640625,1.0146484,-0.03125,-0.0625,-0.03125,0.0,0.0,0.0,695
639,1696243029290,0.016601562,-0.05859375,1.0009766,-0.03125,-0.125,0.03125,0.0,0.0,0.0,696
640,1696243029330,0.020507812,-0.056640625,1.0097656,-0.15625,0.0,0.03125,0.0,0.0,0.0,697
641,1696243029370,0.02734375,-0.0625,1.0146484,0.09375,0.0625,-0.15625,-54.875,2.75,-23.9375,698
642,1696243029410,0.013671875,-0.0625,1.0068359,0.03125,0.0,0.0625,0.0,0.0,0.0,699
643,1696243029450,0.01953125,-0.06347656,1.0136719,-0.09375,0.0625,0.03125,0.0,0.0,0.0,700
644,1696243029490,0.024414062,-0.0625,1.0185547,-0.09375,0.0,0.0625,0.0,0.0,0.0,701
645,1696243029530,0.016601562,-0.061523438,0.9980469,0.03125,0.0,0.125,0.0,0.0,0.0,702
646,1696243029570,0.0234375,-0.06542969,1.0136719,-0.09375,-0.125,-0.15625,0.0,0.0,0.0,703
647,1696243029610,0.0146484375,-0.06640625,1.0,0.03125,0.125,0.1875,0.0,0.0,0.0,704
648,1696243029650,0.013671875,-0.06347656,1.0166016,0.15625,0.375,-0.03125,0.0,0.0,0.0,705
649,1696243029690,0.016601562,-0.06640625,1.0097656,-0.21875,-0.4375,-0.28125,0.0,0.0,0.0,706
650,1696243029730,0.026367188,-0.055664062,1.0039062,-0.25,-0.375,-0.21875,0.0,0.0,0.0,707
651,1696243029770,0.017578125,-0.05859375,1.0039062,-0.21875,-0.0625,0.0625,0.0,0.0,0.0,708
652,1696243029810,0.021484375,-0.072265625,1.0185547,0.03125,0.125,-0.03125,0.0,0.0,0.0,709
653,1696243029850,0.0087890625,-0.0703125,1.0078125,-0.21875,-0.1875,-0.28125,-55.625,2.75,-23.9375,710
654,1696243029890,0.013671875,-0.072265625,1.0107422,-0.03125,-0.375,-0.15625,0.0,0.0,0.0,711
655,1696243029930,0.022460938,-0.07421875,1.0087891,0.21875,-0.25,-0.03125,0.0,0.0,0.0,712
656,1696243029970,0.028320312,-0.06347656,1.0107422,0.46875,0.125,-0.09375,0.0,0.0,0.0,713
657,1696243030010,0.02734375,-0.061523438,1.015625,0.15625,0.0,-0.21875,0.0,0.0,0.0,714
658,1696243030050,0.013671875,-0.057617188,1.0087891,-0.15625,-0.25,-0.03125,0.0,0.0,0.0,715
659,1696243030090,0.0234375,-0.06640625,1.0068359,-0.03125,-0.25,0.03125,0.0,0.0,0.0,716
660,1696243030130,0.029296875,-0.064453125,0.99609375,-0.09375,-0.125,-0.09375,0.0,0.0,0.0,717
661,1696243030170,0.022460938,-0.055664062,1.0117188,0.03125,0.09375,-0.09375,0.0,0.0,0.0,718
662,1696243030210,0.015625,-0.06347656,1.0087891,0.03125,0.0,-0.03125,0.0,0.0,0.0,719
663,1696243030250,0.016601562,-0.068359375,1.0195312,0.03125,-0.1875,-0.03125,0.0,0.0,0.0,720
664,1696243030290,0.020507812,-0.07421875,1.0019531,0.15625,0.0,-0.03125,0.0,0.0,0.0,721
665,1696243030330,0.021484375,-0.06542969,1.0253906,-0.03125,-0.0625,-0.15625,0.0,0.0,0.0,722
666,1696243030370,0.01953125,-0.060546875,1.0087891,0.03125,0.0,0.03125,-57.75,2.875,-23.3125,723
667,1696243030410,0.021484375,-0.055664062,1.0068359,0.09375,-0.0625,-0.21875,0.0,0.0,0.0,724
668,1696243030450,0.015625,-0.068359375,1.0224609,-0.03125,0.09375,-0.03125,0.0,0.0,0.0,725
669,1696243030490,0.025390625,-0.06542969,1.0205078,0.03125,0.53125,-0.03125,0.0,0.0,0.0,726
670,1696243030530,0.01953125,-0.06542969,1.0087891,-0.1875,0.03125,-0.03125,0.0,0.0,0.0,727
671,1696243030570,0.022460938,-0.06347656,1.0068359,-0.1875,-0.3125,-0.15625,0.0,0.0,0.0,728
672,1696243030610,0.018554688,-0.061523438,1.0068359,-0.15625,-0.1875,0.09375,0.0,0.0,0.0,729
673,1696243030650,0.0234375,-0.060546875,1.0205078,0.03125,0.15625,0.09375,0.0,0.0,0.0,730
674,1696243030690,0.020507812,-0.061523438,1.0097656,0.15625,0.15625,-0.15625,0.0,0.0,0.0,731
675,1696243030730,0.018554688,-0.07128906,1.0058594,-0.03125,-0.1875,-0.15625,0.0,0.0,0.0,732
676,1696243030770,0.020507812,-0.05859375,1.0009766,0.09375,-0.3125,0.03125,0.0,0.0,0.0,733
677,1696243030810,0.020507812,-0.06933594,1.0136719,0.03125,0.0,-0.21875,0.0,0.0,0.0,734
678,1696243030850,0.016601562,-0.060546875,1.0087891,0.15625,0.21875,-0.21875,-56.25,2.5625,-24.375,735
679,1696243030890,0.021484375,-0.056640625,1.0019531,-0.09375,-0.125,-0.03125,0.0,0.0,0.0,736
680,1696243030930,0.029296875,-0.06640625,1.0097656,-0.03125,-0.0625,0.03125,0.0,0.0,0.0,737
681,1696243030970,0.025390625,-0.06640625,1.0078125,-0.09375,-0.125,0.03125,0.0,0.0,0.0,738
682,1696243031010,0.013671875,-0.07910156,1.0126953,0.03125,0.03125,-0.09375,0.0,0.0,0.0,739
683,1696243031050,0.021484375,-0.068359375,1.0078125,-0.03125,0.0,-0.21875,0.0,0.0,0.0,740
684,1696243031090,0.018554688,-0.06347656,1.0126953,0.09375,0.0,-0.15625,0.0,0.0,0.0,741
685,1696243031130,0.018554688,-0.0625,1.0166016,0.03125,0.15625,0.03125,0.0,0.0,0.0,742
686,1696243031170,0.017578125,-0.0703125,1.0146484,-0.03125,-0.0625,-0.09375,0.0,0.0,0.0,743
687,1696243031210,0.03125,-0.059570312,1.0087891,-0.03125,-0.0625,-0.09375,0.0,0.0,0.0,744
688,1696243031250,0.0107421875,-0.059570312,1.0166016,-0.03125,0.03125,-0.03125,0.0,0.0,0.0,745
689,1696243031290,0.017578125,-0.059570312,1.0048828,-0.03125,-0.125,-0.09375,0.0,0.0,0.0,746
690,1696243031330,0.0146484375,-0.06347656,1.0117188,0.03125,0.0,-0.21875,0.0,0.0,0.0,747
691,1696243031370,0.015625,-0.059570312,1.0048828,0.09375,0.09375,0.09375,-56.5625,2.3125,-23.0,748
692,1696243031410,0.018554688,-0.0625,1.0087891,0.03125,0.28125,0.09375,0.0,0.0,0.0,749
693,1696243031450,0.013671875,-0.057617188,1.0175781,-0.25,-0.0625,-0.09375,0.0,0.0,0.0,750
694,1696243031490,0.026367188,-0.06542969,1.0107422,-0.03125,-0.1875,0.03125,0.0,0.0,0.0,751
695,1696243031530,0.01953125,-0.060546875,1.0185547,0.03125,0.03125,0.09375,0.0,0.0,0.0,752
696,1696243031570,0.021484375,-0.06347656,1.0166016,-0.03125,0.15625,-0.15625,0.0,0.0,0.0,753
697,1696243031610,0.025390625,-0.0625,1.0117188,-0.03125,0.0,-0.09375,0.0,0.0,0.0,754
698,1696243031650,0.020507812,-0.06640625,1.0185547,-0.03125,-0.375,-0.09375,0.0,0.0,0.0,755
699,1696243031690,0.024414062,-0.064453125,1.0097656,0.09375,-0.0625,-0.09375,0.0,0.0,0.0,756
700,1696243031730,0.015625,-0.06738281,1.0136719,0.15625,0.09375,-0.03125,0.0,0.0,0.0,757
701,1696243031770,0.020507812,-0.06347656,1.0019531,0.03125,0.03125,-0.15625,0.0,0.0,0.0,758
702,1696243031810,0.021484375,-0.059570312,1.0068359,-0.09375,-0.125,0.03125,0.0,0.0,0.0,759
703,1696243031850,0.021484375,-0.064453125,0.9980469,-0.09375,-0.0625,0.03125,-55.625,2.75,-23.1875,760
704,1696243031890,0.01171875,-0.061523438,1.0078125,-0.15625,0.0,-0.03125,0.0,0.0,0.0,761
705,1696243031930,0.01953125,-0.061523438,1.0087891,0.03125,0.09375,-0.03125,0.0,0.0,0.0,762
706,1696243031970,0.020507812,-0.06542969,1.015625,-0.03125,-0.125,0.09375,0.0,0.0,0.0,763
707,1696243032010,0.016601562,-0.06542969,1.0039062,0.15625,-0.0625,0.03125,0.0,0.0,0.0,764
708,1696243032050,0.016601562,-0.061523438,1.0244141,0.09375,0.09375,0.03125,0.0,0.0,0.0,765
709,1696243032090,0.020507812,-0.064453125,1.0107422,-0.03125,0.0,-0.09375,0.0,0.0,0.0,766
710,1696243032130,0.013671875,-0.0625,1.0175781,-0.09375,-0.125,0.03125,0.0,0.0,0.0,767
711,1696243032170,0.018554688,-0.053710938,1.0107422,-0.15625,-0.0625,0.21875,0.0,0.0,0.0,768
712,1696243032210,0.01171875,-0.06738281,1.0009766,-0.09375,0.0,-0.09375,0.0,0.0,0.0,769
713,1696243032250,0.034179688,-0.06542969,1.0039062,-0.09375,-0.1875,-0.21875,0.0,0.0,0.0,770
714,1696243032290,0.001953125,-0.06347656,1.0136719,0.09375,0.09375,0.28125,0.0,0.0,0.0,771
715,1696243032330,0.022460938,-0.064453125,1.0166016,-0.09375,0.46875,0.03125,0.0,0.0,0.0,772
716,1696243032370,0.022460938,-0.048828125,1.0048828,-0.25,-0.1875,-0.21875,-56.5625,2.875,-24.0625,773
717,1696243032410,0.028320312,-0.060546875,1.0019531,-0.25,-0.1875,0.03125,0.0,0.0,0.0,774
718,1696243032450,0.026367188,-0.05859375,1.0039062,-0.15625,0.15625,0.21875,0.0,0.0,0.0,775
719,1696243032490,0.013671875,-0.06542969,1.015625,-0.1875,0.21875,0.09375,0.0,0.0,0.0,776
720,1696243032530,0.01953125,-0.0703125,1.0136719,-0.15625,-0.0625,-0.15625,0.0,0.0,0.0,777
721,1696243032570,0.017578125,-0.06347656,1.0019531,-0.15625,-0.125,-0.09375,0.0,0.0,0.0,778
722,1696243032610,0.024414062,-0.064453125,1.0078125,-0.03125,-0.125,0.03125,0.0,0.0,0.0,779
723,1696243032650,0.0234375,-0.055664062,1.03125,0.15625,0.21875,0.09375,0.0,0.0,0.0,780
724,1696243032690,0.030273438,-0.056640625,1.0126953,0.03125,0.15625,-0.03125,0.0,0.0,0.0,781
725,1696243032730,0.015625,-0.061523438,1.0195312,-0.1875,-0.125,0.15625,0.0,0.0,0.0,782
726,1696243032770,0.0126953125,-0.064453125,1.0,-0.1875,0.03125,0.21875,0.0,0.0,0.0,783
727,1696243032810,0.01953125,-0.064453125,1.0175781,-0.15625,0.03125,0.03125,0.0,0.0,0.0,784
728,1696243032850,0.01171875,-0.06542969,1.0234375,-0.03125,0.03125,0.03125,-55.625,2.0,-24.1875,785
729,1696243032890,0.022460938,-0.06347656,1.0068359,0.03125,0.09375,-0.03125,0.0,0.0,0.0,786
730,1696243032930,0.018554688,-0.057617188,1.0068359,0.09375,0.03125,-0.09375,0.0,0.0,0.0,787
731,1696243032970,0.0234375,-0.060546875,1.0048828,0.03125,0.09375,0.09375,0.0,0.0,0.0,788
732,1696243033010,0.024414062,-0.06933594,1.0195312,-0.15625,0.0,-0.03125,0.0,0.0,0.0,789
733,1696243033050,0.01953125,-0.06347656,1.0068359,-0.03125,0.0,0.09375,0.0,0.0,0.0,790
734,1696243033090,0.009765625,-0.06738281,1.0097656,-0.15625,0.0,0.15625,0.0,0.0,0.0,791
735,1696243033130,0.026367188,-0.06933594,1.015625,0.03125,0.03125,-0.03125,0.0,0.0,0.0,792
736,1696243033170,0.020507812,-0.07421875,1.0097656,0.03125,0.28125,0.15625,0.0,0.0,0.0,793
737,1696243033210,0.021484375,-0.064453125,1.0087891,-0.03125,0.28125,-0.09375,0.0,0.0,0.0,794
738,1696243033250,0.024414062,-0.052734375,0.99902344,-0.25,-0.25,-0.21875,0.0,0.0,0.0,795
739,1696243033290,0.029296875,-0.060546875,1.0,-0.375,-0.1875,0.21875,0.0,0.0,0.0,796
740,1696243033330,0.01953125,-0.0625,1.0087891,-0.1875,0.15625,0.21875,0.0,0.0,0.0,797
741,1696243033370,0.017578125,-0.06347656,1.0009766,0.03125,0.15625,0.09375,-54.625,3.5,-23.1875,798
742,1696243033410,0.020507812,-0.056640625,1.015625,-0.03125,-0.125,0.09375,0.0,0.0,0.0,799
743,1696243033450,0.016601562,-0.05859375,1.0097656,-0.03125,-0.1875,0.09375,0.0,0.0,0.0,800
744,1696243033490,0.025390625,-0.06640625,1.0029297,0.15625,0.15625,0.15625,0.0,0.0,0.0,801
745,1696243033530,0.015625,-0.064453125,1.0126953,0.15625,0.15625,-0.21875,0.0,0.0,0.0,802
746,1696243033570,0.0087890625,-0.060546875,1.0058594,-0.03125,-0.125,-0.09375,0.0,0.0,0.0,803
747,1696243033610,0.01171875,-0.06640625,1.015625,-0.03125,-0.1875,-0.09375,0.0,0.0,0.0,804
748,1696243033650,0.020507812,-0.061523438,1.0058594,-0.03125,-0.0625,-0.21875,0.0,0.0,0.0,805
749,1696243033690,0.015625,-0.06347656,1.0068359,0.03125,0.03125,-0.25,0.0,0.0,0.0,806
750,1696243033730,0.016601562,-0.064453125,1.0087891,0.15625,-0.125,-0.21875,0.0,0.0,0.0,807
751,1696243033770,0.026367188,-0.06933594,1.0097656,0.03125,-0.1875,-0.15625,0.0,0.0,0.0,808
752,1696243033810,0.022460938,-0.064453125,1.0214844,0.28125,0.09375,-0.15625,0.0,0.0,0.0,809
753,1696243033850,0.024414062,-0.05859375,1.0078125,0.09375,0.03125,0.03125,-57.125,1.6875,-24.5,810
754,1696243033890,0.017578125,-0.072265625,1.0048828,0.03125,0.03125,-0.21875,0.0,0.0,0.0,811
755,1696243033930,0.01953125,-0.06542969,1.0146484,-0.03125,-0.1875,-0.15625,0.0,0.0,0.0,812
756,1696243033970,0.016601562,-0.061523438,1.0009766,0.03125,-0.0625,-0.25,0.0,0.0,0.0,813
757,1696243034010,0.0107421875,-0.07128906,1.0117188,0.15625,0.21875,0.03125,0.0,0.0,0.0,814
758,1696243034050,0.021484375,-0.064453125,1.0126953,0.15625,0.40625,-0.03125,0.0,0.0,0.0,815
759,1696243034090,0.0068359375,-0.060546875,1.0136719,-0.3125,-0.375,-0.25,0.0,0.0,0.0,816
