,timestamp,accel_x,accel_y,accel_z,gyro_x,gyro_y,gyro_z,mag_x,mag_y,mag_z,ind
0,1696242790424,-0.13671875,-0.12597656,0.9951172,-0.28125,0.0,0.09375,-67.0625,-3.125,-29.75,136
1,1696242790464,-0.13476562,-0.12988281,0.98535156,-0.40625,-0.25,0.21875,0.0,0.0,0.0,137
2,1696242790504,-0.13378906,-0.13183594,1.0117188,-0.40625,-0.125,0.40625,0.0,0.0,0.0,138
3,1696242790544,-0.14160156,-0.13574219,1.0019531,0.03125,-0.0625,-0.09375,0.0,0.0,0.0,139
4,1696242790584,-0.13867188,-0.13671875,0.984375,-0.09375,0.0625,-0.21875,0.0,0.0,0.0,140
5,1696242790624,-0.1328125,-0.14746094,0.9785156,-0.46875,0.0,0.03125,0.0,0.0,0.0,141
6,1696242790664,-0.13867188,-0.1328125,1.0009766,-0.21875,-0.0625,0.03125,0.0,0.0,0.0,142
7,1696242790704,-0.14453125,-0.13671875,0.984375,-0.40625,-0.25,0.03125,0.0,0.0,0.0,143
8,1696242790744,-0.13867188,-0.13574219,0.9980469,-0.28125,0.125,0.21875,0.0,0.0,0.0,144
9,1696242790784,-0.14648438,-0.14257812,1.0,-0.15625,-0.25,0.09375,0.0,0.0,0.0,145
10,1696242790824,-0.14355469,-0.13769531,1.0,-0.09375,-0.0625,-0.15625,0.0,0.0,0.0,146
11,1696242790864,-0.14355469,-0.140625,0.9863281,-0.28125,-0.0625,-0.09375,0.0,0.0,0.0,147
12,1696242790904,-0.14257812,-0.13574219,1.0126953,-0.59375,0.125,0.15625,-66.625,-3.875,-29.4375,148
13,1696242790944,-0.13378906,-0.13769531,0.9873047,0.15625,-0.3125,0.28125,0.0,0.0,0.0,149
14,1696242790984,-0.140625,-0.14355469,0.98046875,-0.15625,0.1875,0.21875,0.0,0.0,0.0,150
15,1696242791024,-0.140625,-0.140625,0.99609375,-0.15625,0.25,-0.15625,0.0,0.0,0.0,151
16,1696242791064,-0.13671875,-0.13476562,1.0068359,-0.40625,-0.15625,-0.25,0.0,0.0,0.0,152
17,1696242791104,-0.1328125,-0.13378906,0.98046875,0.9375,-0.09375,-0.1875,0.0,0.0,0.0,153
18,1696242791144,-0.140625,-0.13769531,0.9970703,-0.34375,0.34375,0.0625,0.0,0.0,0.0,154
19,1696242791184,-0.1328125,-0.15039062,1.0,-0.34375,0.15625,0.1875,0.0,0.0,0.0,155
20,1696242791224,-0.14257812,-0.14160156,1.0068359,0.40625,-0.5,-0.125,0.0,0.0,0.0,156
21,1696242791264,-0.13769531,-0.14160156,0.97265625,0.09375,0.46875,-0.0625,0.0,0.0,0.0,157
22,1696242791304,-0.13769531,-0.14453125,0.9941406,0.03125,-0.03125,-0.25,0.0,0.0,0.0,158
23,1696242791344,-0.13476562,-0.12695312,0.99609375,0.34375,-0.375,-0.1875,0.0,0.0,0.0,159
24,1696242791384,-0.13964844,-0.12207031,0.9824219,-0.09375,-0.28125,0.125,0.0,0.0,0.0,160
25,1696242791424,-0.14160156,-0.14257812,0.99121094,0.46875,0.03125,0.3125,-65.25,-3.875,-28.6875,161
26,1696242791464,-0.13085938,-0.1484375,0.98828125,0.21875,-0.21875,-0.125,0.0,0.0,0.0,162
27,1696242791504,-0.14355469,-0.13867188,1.0068359,-0.40625,-0.03125,-0.125,0.0,0.0,0.0,163
28,1696242791544,-0.140625,-0.13378906,0.984375,0.625,0.15625,-0.25,0.0,0.0,0.0,164
29,1696242791584,-0.13769531,-0.13769531,0.9941406,0.09375,-0.28125,0.125,0.0,0.0,0.0,165
30,1696242791624,-0.13183594,-0.13964844,0.9970703,-0.03125,0.40625,0.0625,0.0,0.0,0.0,166
31,1696242791664,-0.140625,-0.1328125,0.99609375,0.03125,-0.5,0.0625,0.0,0.0,0.0,167
32,1696242791704,-0.140625,-0.13378906,0.9873047,0.03125,0.09375,-0.0625,0.0,0.0,0.0,168
33,1696242791744,-0.140625,-0.12988281,0.99316406,0.09375,-0.09375,-0.25,0.0,0.0,0.0,169
34,1696242791784,-0.140625,-0.14355469,0.99316406,-0.21875,0.28125,-0.125,0.0,0.0,0.0,170
35,1696242791824,-0.13476562,-0.13574219,0.9902344,0.09375,-0.28125,-0.1875,0.0,0.0,0.0,171
36,1696242791864,-0.13964844,-0.140625,0.99316406,0.28125,-0.03125,0.25,0.0,0.0,0.0,172
37,1696242791904,-0.13183594,-0.140625,0.9941406,-0.03125,0.28125,0.0625,-66.0,-3.125,-30.5,173
38,1696242791944,-0.13769531,-0.14355469,0.99902344,0.09375,-0.21875,-0.1875,0.0,0.0,0.0,174
39,1696242791984,-0.140625,-0.13085938,0.98339844,-0.09375,0.09375,0.125,0.0,0.0,0.0,175
40,1696242792024,-0.13964844,-0.14257812,0.99609375,-0.03125,-0.09375,-0.0625,0.0,0.0,0.0,176
41,1696242792064,-0.13671875,-0.13378906,0.9951172,0.15625,0.15625,-0.125,0.0,0.0,0.0,177
42,1696242792104,-0.12988281,-0.13867188,0.99121094,0.09375,-0.15625,-0.125,0.0,0.0,0.0,178
43,1696242792144,-0.13183594,-0.140625,1.0039062,-0.34375,0.15625,0.125,0.0,0.0,0.0,179
44,1696242792184,-0.13671875,-0.1328125,0.99316406,0.28125,-0.15625,-0.0625,0.0,0.0,0.0,180
45,1696242792224,-0.1484375,-0.13574219,1.0,0.09375,0.03125,-0.125,0.0,0.0,0.0,181
46,1696242792264,-0.13769531,-0.14453125,1.0009766,0.5,0.15625,-0.125,0.0,0.0,0.0,182
47,1696242792304,-0.13476562,-0.13964844,1.0029297,0.09375,-0.34375,-0.125,0.0,0.0,0.0,183
48,1696242792344,-0.13769531,-0.13964844,1.0029297,-0.03125,-0.03125,0.125,0.0,0.0,0.0,184
49,1696242792384,-0.13769531,-0.13964844,0.9863281,0.5625,-0.21875,0.0,0.0,0.0,0.0,185
50,1696242792424,-0.13671875,-0.14160156,1.0019531,0.03125,-0.09375,0.0,-66.3125,-3.4375,-29.1875,186
51,1696242792464,-0.13769531,-0.14160156,0.9921875,0.09375,-0.09375,-0.1875,0.0,0.0,0.0,187
52,1696242792504,-0.12695312,-0.14257812,0.98828125,0.15625,-0.03125,0.0625,0.0,0.0,0.0,188
53,1696242792544,-0.13769531,-0.14550781,0.9892578,-0.09375,0.03125,0.0,0.0,0.0,0.0,189
54,1696242792584,-0.13671875,-0.140625,0.984375,-0.03125,-0.09375,0.125,0.0,0.0,0.0,190
55,1696242792624,-0.14160156,-0.14355469,1.0019531,0.15625,0.03125,-0.1875,0.0,0.0,0.0,191
56,1696242792664,-0.140625,-0.13671875,0.984375,0.46875,0.09375,-0.0625,0.0,0.0,0.0,192
57,1696242792704,-0.13574219,-0.13574219,0.9921875,0.28125,0.15625,-0.0625,0.0,0.0,0.0,193
58,1696242792744,-0.13769531,-0.13964844,0.9951172,0.28125,0.21875,-0.1875,0.0,0.0,0.0,194
59,1696242792784,-0.13769531,-0.14160156,0.99121094,0.40625,-0.09375,-0.0625,0.0,0.0,0.0,195
60,1696242792824,-0.14453125,-0.13183594,0.9892578,0.28125,0.15625,-0.125,0.0,0.0,0.0,196
61,1696242792864,-0.13671875,-0.14257812,1.0009766,0.5625,0.15625,-0.0625,0.0,0.0,0.0,197
62,1696242792904,-0.13867188,-0.14160156,0.99609375,0.46875,-0.03125,0.0,-66.3125,-1.9375,-29.75,198
63,1696242792944,-0.13769531,-0.13476562,0.9794922,0.46875,0.09375,-0.1875,0.0,0.0,0.0,199
64,1696242792984,-0.13574219,-0.140625,0.99609375,0.75,0.03125,-0.0625,0.0,0.0,0.0,200
65,1696242793024,-0.14160156,-0.14160156,0.99316406,0.21875,0.15625,-0.125,0.0,0.0,0.0,201
66,1696242793064,-0.12890625,-0.14160156,1.0117188,0.34375,-0.09375,-0.0625,0.0,0.0,0.0,202
67,1696242793104,-0.13378906,-0.14160156,0.99609375,0.34375,0.28125,0.125,0.0,0.0,0.0,203
68,1696242793144,-0.13574219,-0.13769531,0.99609375,0.40625,0.21875,-0.25,0.0,0.0,0.0,204
69,1696242793184,-0.13378906,-0.13574219,0.9951172,0.34375,-0.03125,-0.1875,0.0,0.0,0.0,205
70,1696242793224,-0.13085938,-0.13378906,0.9902344,0.5625,0.09375,-0.1875,0.0,0.0,0.0,206
71,1696242793264,-0.14160156,-0.12792969,0.98339844,0.46875,-0.15625,-0.1875,0.0,0.0,0.0,207
72,1696242793304,-0.13671875,-0.125,0.97753906,-0.03125,-0.03125,0.1875,0.0,0.0,0.0,208
73,1696242793344,-0.1328125,-0.123046875,1.0019531,0.5,-0.09375,0.0,0.0,0.0,0.0,209
74,1696242793384,-0.13476562,-0.13476562,0.9980469,0.15625,0.34375,-0.125,0.0,0.0,0.0,210
75,1696242793424,-0.13574219,-0.1328125,1.0039062,0.46875,0.09375,-0.125,-66.0,-3.125,-29.75,211
76,1696242793464,-0.13085938,-0.12695312,0.99609375,0.625,-0.03125,-0.0625,0.0,0.0,0.0,212
77,1696242793504,-0.14355469,-0.13183594,0.9970703,0.21875,0.09375,0.0,0.0,0.0,0.0,213
78,1696242793544,-0.13867188,-0.13671875,1.0009766,0.03125,-0.09375,0.125,0.0,0.0,0.0,214
79,1696242793584,-0.13671875,-0.1328125,0.99121094,0.5,-0.03125,0.125,0.0,0.0,0.0,215
80,1696242793624,-0.13769531,-0.13378906,0.9863281,0.03125,0.03125,-0.0625,0.0,0.0,0.0,216
81,1696242793664,-0.12988281,-0.1328125,0.99121094,0.28125,-0.03125,-0.125,0.0,0.0,0.0,217
82,1696242793704,-0.14453125,-0.13378906,0.9970703,0.5,0.09375,0.0625,0.0,0.0,0.0,218
83,1696242793744,-0.13671875,-0.13964844,0.9970703,-0.21875,-0.15625,-0.1875,0.0,0.0,0.0,219
84,1696242793784,-0.13769531,-0.1328125,0.9941406,-0.28125,0.03125,-0.125,0.0,0.0,0.0,220
85,1696242793824,-0.13378906,-0.13964844,0.99609375,-0.09375,-0.21875,-0.1875,0.0,0.0,0.0,221
86,1696242793864,-0.13574219,-0.1328125,0.99609375,-0.21875,-0.09375,0.0,0.0,0.0,0.0,222
87,1696242793904,-0.140625,-0.13964844,0.9941406,0.03125,-0.15625,0.125,-67.1875,-2.5,-29.0,223
88,1696242793944,-0.13574219,-0.13671875,0.9863281,-0.34375,-0.09375,0.0,0.0,0.0,0.0,224
89,1696242793984,-0.1484375,-0.12890625,0.98828125,-0.28125,0.21875,0.125,0.0,0.0,0.0,225
90,1696242794024,-0.13183594,-0.14355469,1.0048828,-0.09375,-0.03125,-0.0625,0.0,0.0,0.0,226
91,1696242794064,-0.12890625,-0.13769531,0.9980469,-0.09375,0.09375,0.0,0.0,0.0,0.0,227
92,1696242794104,-0.13964844,-0.13574219,0.9921875,-0.03125,-0.09375,-0.25,0.0,0.0,0.0,228
93,1696242794144,-0.13769531,-0.13964844,0.99902344,-0.40625,-0.09375,0.0625,0.0,0.0,0.0,229
94,1696242794184,-0.13671875,-0.12988281,0.9941406,-0.21875,-0.21875,0.1875,0.0,0.0,0.0,230
95,1696242794224,-0.13671875,-0.12792969,0.9902344,-0.15625,-0.09375,0.125,0.0,0.0,0.0,231
96,1696242794264,-0.14746094,-0.13964844,0.9951172,-0.21875,0.03125,0.0,0.0,0.0,0.0,232
97,1696242794304,-0.13574219,-0.13476562,1.0029297,0.03125,-0.03125,0.0,0.0,0.0,0.0,233
98,1696242794344,-0.12695312,-0.13183594,0.98828125,0.09375,-0.03125,0.0,0.0,0.0,0.0,234
99,1696242794384,-0.13769531,-0.13378906,0.9970703,-0.21875,0.03125,-0.0625,0.0,0.0,0.0,235
100,1696242794424,-0.1328125,-0.14257812,1.0019531,-0.40625,0.03125,-0.1875,-65.6875,-3.25,-28.5625,236
101,1696242794464,-0.140625,-0.14941406,1.0068359,0.34375,-0.15625,0.25,0.0,0.0,0.0,237
102,1696242794504,-0.13671875,-0.14160156,0.984375,-0.03125,-0.03125,0.0,0.0,0.0,0.0,238
103,1696242794544,-0.12792969,-0.14257812,0.9824219,-0.34375,-0.03125,0.1875,0.0,0.0,0.0,239
104,1696242794584,-0.1328125,-0.13378906,0.9970703,0.09375,-0.09375,0.6875,0.0,0.0,0.0,240
105,1696242794624,-0.13867188,-0.13769531,1.0029297,-0.03125,-0.21875,0.375,0.0,0.0,0.0,241
106,1696242794664,-0.14257812,-0.14160156,0.9980469,-0.15625,-0.03125,0.0,0.0,0.0,0.0,242
107,1696242794704,-0.12988281,-0.13574219,0.99121094,0.09375,0.03125,-0.25,0.0,0.0,0.0,243
108,1696242794744,-0.140625,-0.14160156,0.9902344,-0.15625,-0.15625,-0.25,0.0,0.0,0.0,244
109,1696242794784,-0.13671875,-0.13671875,0.9902344,0.03125,-0.03125,0.25,0.0,0.0,0.0,245
110,1696242794824,-0.14746094,-0.13671875,0.9873047,-0.34375,0.09375,0.3125,0.0,0.0,0.0,246
111,1696242794864,-0.13964844,-0.140625,1.0,-0.21875,-0.15625,-0.0625,0.0,0.0,0.0,247
112,1696242794904,-0.14160156,-0.13964844,0.98535156,-0.09375,-0.03125,-0.0625,-66.125,-3.25,-29.3125,248
113,1696242794944,-0.13867188,-0.14453125,1.0058594,0.03125,-0.03125,-0.1875,0.0,0.0,0.0,249
114,1696242794984,-0.14160156,-0.14355469,0.98339844,-0.03125,-0.21875,0.0625,0.0,0.0,0.0,250
115,1696242795024,-0.140625,-0.14355469,0.9921875,0.09375,-0.09375,0.1875,0.0,0.0,0.0,251
116,1696242795064,-0.12988281,-0.14550781,1.0068359,-0.03125,-0.09375,-0.0625,0.0,0.0,0.0,252
117,1696242795104,-0.14160156,-0.13769531,1.0019531,-0.15625,-0.03125,-0.125,0.0,0.0,0.0,253
118,1696242795144,-0.14355469,-0.14257812,0.99316406,0.34375,-0.03125,-0.0625,0.0,0.0,0.0,254
119,1696242795184,-0.13867188,-0.14550781,0.99902344,-0.15625,-0.21875,0.0,0.0,0.0,0.0,255
120,1696242795224,-0.14453125,-0.140625,1.0019531,0.21875,0.09375,0.0625,0.0,0.0,0.0,256
121,1696242795264,-0.13964844,-0.14550781,0.98046875,-0.03125,-0.03125,0.0,0.0,0.0,0.0,257
122,1696242795304,-0.13378906,-0.13867188,0.9941406,-0.15625,-0.03125,-0.1875,0.0,0.0,0.0,258
123,1696242795344,-0.14160156,-0.14355469,1.0068359,0.34375,-0.15625,-0.125,0.0,0.0,0.0,259
124,1696242795384,-0.13867188,-0.14355469,0.98828125,-0.09375,0.09375,-0.25,0.0,0.0,0.0,260
125,1696242795424,-0.13769531,-0.13964844,0.9970703,0.40625,0.09375,-0.125,-67.0625,-2.6875,-29.1875,261
126,1696242795464,-0.140625,-0.1484375,0.99316406,0.15625,-0.09375,0.0625,0.0,0.0,0.0,262
127,1696242795504,-0.13671875,-0.15332031,1.0107422,0.09375,-0.09375,0.0,0.0,0.0,0.0,263
128,1696242795544,-0.13574219,-0.13964844,0.99609375,0.09375,-0.34375,0.0625,0.0,0.0,0.0,264
129,1696242795584,-0.1328125,-0.1484375,0.99121094,0.15625,0.03125,-0.0625,0.0,0.0,0.0,265
130,1696242795624,-0.14160156,-0.1484375,1.0039062,0.15625,0.21875,0.0,0.0,0.0,0.0,266
131,1696242795664,-0.14257812,-0.14550781,0.9941406,0.21875,0.03125,-0.3125,0.0,0.0,0.0,267
132,1696242795704,-0.140625,-0.15234375,0.9980469,0.09375,-0.03125,-0.1875,0.0,0.0,0.0,268
133,1696242795744,-0.140625,-0.13574219,0.99121094,0.34375,0.03125,-0.125,0.0,0.0,0.0,269
134,1696242795784,-0.14355469,-0.13574219,1.0009766,-0.28125,-0.15625,-0.0625,0.0,0.0,0.0,270
135,1696242795824,-0.1328125,-0.14550781,0.98535156,0.40625,-0.09375,0.125,0.0,0.0,0.0,271
136,1696242795864,-0.14257812,-0.13964844,0.9765625,0.46875,0.03125,-0.0625,0.0,0.0,0.0,272
137,1696242795904,-0.13867188,-0.14941406,0.9941406,0.40625,0.03125,-0.125,-66.4375,-3.5625,-29.3125,273
138,1696242795944,-0.13476562,-0.13867188,1.0068359,0.5,0.09375,-0.1875,0.0,0.0,0.0,274
139,1696242795984,-0.13574219,-0.140625,0.984375,0.34375,0.15625,-0.25,0.0,0.0,0.0,275
140,1696242796024,-0.13671875,-0.140625,0.9892578,0.5,0.03125,-0.125,0.0,0.0,0.0,276
141,1696242796064,-0.13183594,-0.13964844,0.9970703,0.5625,-0.09375,-0.0625,0.0,0.0,0.0,277
142,1696242796104,-0.14257812,-0.14160156,0.9873047,0.34375,0.03125,-0.125,0.0,0.0,0.0,278
143,1696242796144,-0.13671875,-0.14355469,1.0,0.5625,0.03125,-0.3125,0.0,0.0,0.0,279
144,1696242796184,-0.13964844,-0.14160156,0.9970703,0.875,0.03125,-0.25,0.0,0.0,0.0,280
145,1696242796224,-0.140625,-0.13867188,0.9970703,0.21875,0.09375,-0.3125,0.0,0.0,0.0,281
146,1696242796264,-0.12988281,-0.13867188,1.0019531,1.0625,0.03125,0.125,0.0,0.0,0.0,282
147,1696242796304,-0.1328125,-0.13574219,0.98828125,0.5,-0.09375,-0.125,0.0,0.0,0.0,283
148,1696242796344,-0.14453125,-0.13769531,1.0,0.5,0.03125,-0.25,0.0,0.0,0.0,284
149,1696242796384,-0.1328125,-0.13378906,0.9921875,0.34375,-0.03125,-0.1875,0.0,0.0,0.0,285
150,1696242796424,-0.140625,-0.13867188,1.0068359,0.625,0.34375,0.0,-66.0,-3.875,-29.1875,286
151,1696242796464,-0.13671875,-0.14355469,0.98046875,0.75,0.09375,-0.1875,0.0,0.0,0.0,287
152,1696242796504,-0.14160156,-0.13964844,0.9951172,0.34375,0.09375,-0.25,0.0,0.0,0.0,288
153,1696242796544,-0.1328125,-0.125,0.98339844,0.6875,0.09375,-0.25,0.0,0.0,0.0,289
154,1696242796584,-0.12792969,-0.13378906,1.0019531,0.40625,-0.09375,-0.125,0.0,0.0,0.0,290
155,1696242796624,-0.13574219,-0.14550781,1.0048828,0.34375,0.28125,-0.1875,0.0,0.0,0.0,291
156,1696242796664,-0.13574219,-0.13964844,0.9892578,0.875,-0.03125,-0.0625,0.0,0.0,0.0,292
157,1696242796704,-0.14160156,-0.14160156,1.0009766,0.28125,0.09375,-0.0625,0.0,0.0,0.0,293
158,1696242796744,-0.13671875,-0.14550781,0.9970703,0.5625,-0.09375,-0.0625,0.0,0.0,0.0,294
159,1696242796784,-0.14160156,-0.14160156,0.99121094,0.625,0.03125,-0.125,0.0,0.0,0.0,295
160,1696242796824,-0.140625,-0.14355469,0.9941406,-0.03125,-0.03125,0.0,0.0,0.0,0.0,296
161,1696242796864,-0.13574219,-0.12988281,1.0078125,0.28125,-0.03125,-0.0625,0.0,0.0,0.0,297
162,1696242796904,-0.14355469,-0.13574219,0.9873047,0.09375,-0.03125,-0.0625,-66.3125,-3.125,-30.9375,298
163,1696242796944,-0.14257812,-0.13476562,0.9941406,-0.34375,0.09375,-0.375,0.0,0.0,0.0,299
164,1696242796984,-0.13867188,-0.13964844,0.9941406,0.15625,0.03125,-0.1875,0.0,0.0,0.0,300
165,1696242797024,-0.13964844,-0.13964844,0.984375,-0.53125,-0.09375,-0.125,0.0,0.0,0.0,301
166,1696242797064,-0.13085938,-0.13574219,0.9951172,-0.09375,-0.28125,-0.0625,0.0,0.0,0.0,302
167,1696242797104,-0.13964844,-0.13183594,0.9873047,-0.21875,-0.03125,0.125,0.0,0.0,0.0,303
168,1696242797144,-0.13964844,-0.14941406,0.9951172,-0.15625,0.09375,-0.4375,0.0,0.0,0.0,304
169,1696242797184,-0.13378906,-0.13476562,1.0039062,0.28125,0.03125,-0.375,0.0,0.0,0.0,305
170,1696242797224,-0.13671875,-0.13476562,0.9892578,-0.28125,-0.15625,-0.25,0.0,0.0,0.0,306
171,1696242797264,-0.12988281,-0.13378906,0.99902344,-0.28125,-0.15625,0.25,0.0,0.0,0.0,307
172,1696242797304,-0.13671875,-0.14257812,0.99902344,0.03125,-0.375,0.125,0.0,0.0,0.0,308
173,1696242797344,-0.13867188,-0.14160156,0.98828125,-0.34375,-0.09375,-0.125,0.0,0.0,0.0,309
174,1696242797384,-0.13964844,-0.13183594,1.0009766,-0.28125,0.03125,-0.125,0.0,0.0,0.0,310
175,1696242797424,-0.13769531,-0.14160156,0.9921875,-0.09375,-0.09375,-0.3125,-66.4375,-3.25,-30.0625,311
176,1696242797464,-0.14648438,-0.14160156,0.9970703,0.09375,-0.15625,-0.25,0.0,0.0,0.0,312
177,1696242797504,-0.13574219,-0.13769531,0.98535156,-0.03125,-0.03125,-0.0625,0.0,0.0,0.0,313
178,1696242797544,-0.13378906,-0.140625,0.98535156,-0.28125,0.09375,-0.1875,0.0,0.0,0.0,314
179,1696242797584,-0.14160156,-0.140625,0.9814453,0.28125,-0.21875,0.0,0.0,0.0,0.0,315
180,1696242797624,-0.14355469,-0.140625,0.984375,-0.09375,-0.28125,0.1875,0.0,0.0,0.0,316
181,1696242797664,-0.13867188,-0.13769531,0.9902344,-0.03125,-0.21875,-0.0625,0.0,0.0,0.0,317
182,1696242797704,-0.12988281,-0.13476562,0.99902344,0.15625,-0.03125,-0.3125,0.0,0.0,0.0,318
183,1696242797744,-0.13867188,-0.1328125,0.98828125,-0.15625,0.03125,-0.25,0.0,0.0,0.0,319
184,1696242797784,-0.13671875,-0.13574219,0.9951172,0.34375,-0.03125,-0.1875,0.0,0.0,0.0,320
185,1696242797824,-0.12792969,-0.1484375,0.99609375,-0.34375,-0.03125,0.0625,0.0,0.0,0.0,321
186,1696242797864,-0.13769531,-0.14257812,1.0029297,-0.28125,0.03125,-0.125,0.0,0.0,0.0,322
187,1696242797904,-0.13671875,-0.1328125,0.9980469,0.21875,0.03125,-0.1875,-66.625,-2.375,-29.75,323
188,1696242797944,-0.13476562,-0.14550781,0.99121094,-0.78125,-0.03125,-0.3125,0.0,0.0,0.0,324
189,1696242797984,-0.12695312,-0.14160156,1.0068359,-0.28125,0.09375,-0.1875,0.0,0.0,0.0,325
190,1696242798024,-0.13476562,-0.13964844,0.9863281,0.21875,0.03125,-0.125,0.0,0.0,0.0,326
191,1696242798064,-0.13671875,-0.14453125,0.98828125,-0.21875,-0.03125,0.0,0.0,0.0,0.0,327
192,1696242798104,-0.12695312,-0.14746094,1.0097656,0.40625,-0.03125,0.0,0.0,0.0,0.0,328
193,1696242798144,-0.1328125,-0.14941406,1.0029297,0.09375,-0.15625,-0.25,0.0,0.0,0.0,329
194,1696242798184,-0.14257812,-0.13867188,0.99121094,0.46875,0.03125,0.0625,0.0,0.0,0.0,330
195,1696242798224,-0.1328125,-0.13671875,0.99121094,-0.28125,-0.03125,0.0625,0.0,0.0,0.0,331
196,1696242798264,-0.13671875,-0.15039062,0.98828125,-0.09375,-0.09375,0.0,0.0,0.0,0.0,332
197,1696242798304,-0.13671875,-0.13964844,0.99121094,0.34375,-0.15625,0.0625,0.0,0.0,0.0,333
198,1696242798344,-0.14257812,-0.12792969,0.99316406,0.09375,0.03125,0.0,0.0,0.0,0.0,334
199,1696242798384,-0.12890625,-0.14257812,1.0029297,0.21875,0.09375,-0.1875,0.0,0.0,0.0,335
200,1696242798424,-0.14257812,-0.13574219,0.9873047,0.21875,0.09375,-0.1875,-65.6875,-1.75,-30.6875,336
201,1696242798464,-0.12695312,-0.13574219,0.9873047,0.09375,0.03125,-0.0625,0.0,0.0,0.0,337
202,1696242798504,-0.13183594,-0.13671875,0.9902344,0.21875,-0.03125,-0.125,0.0,0.0,0.0,338
203,1696242798544,-0.13867188,-0.14453125,0.9951172,0.09375,-0.03125,-0.125,0.0,0.0,0.0,339
204,1696242798584,-0.14160156,-0.1484375,1.0048828,0.21875,-0.03125,0.0,0.0,0.0,0.0,340
205,1696242798624,-0.13867188,-0.14648438,0.9892578,0.15625,0.03125,-0.0625,0.0,0.0,0.0,341
206,1696242798664,-0.13867188,-0.140625,0.9863281,0.34375,0.03125,-0.3125,0.0,0.0,0.0,342
207,1696242798704,-0.14160156,-0.140625,0.9902344,-0.21875,0.15625,0.0,0.0,0.0,0.0,343
208,1696242798744,-0.13085938,-0.15039062,0.99609375,0.40625,0.03125,-0.1875,0.0,0.0,0.0,344
209,1696242798784,-0.13867188,-0.13769531,0.9941406,0.03125,-0.15625,-0.125,0.0,0.0,0.0,345
210,1696242798824,-0.12890625,-0.14160156,0.98828125,0.09375,-0.15625,-0.3125,0.0,0.0,0.0,346
211,1696242798864,-0.13769531,-0.13671875,1.0078125,0.5,-0.03125,-0.125,0.0,0.0,0.0,347
212,1696242798904,-0.13378906,-0.14550781,0.9970703,0.03125,-0.15625,-0.125,-65.125,-2.9375,-28.5625,348
213,1696242798944,-0.1328125,-0.1484375,0.9970703,0.5,-0.15625,0.0,0.0,0.0,0.0,349
214,1696242798984,-0.13183594,-0.13183594,0.9892578,0.5625,0.03125,-0.1875,0.0,0.0,0.0,350
215,1696242799024,-0.125,-0.14257812,0.9951172,0.21875,0.03125,-0.3125,0.0,0.0,0.0,351
216,1696242799064,-0.13574219,-0.14160156,0.9951172,0.46875,0.09375,-0.0625,0.0,0.0,0.0,352
217,1696242799104,-0.14257812,-0.14257812,0.9980469,0.21875,0.09375,-0.0625,0.0,0.0,0.0,353
218,1696242799144,-0.13964844,-0.14746094,0.9970703,-0.03125,0.03125,-0.1875,0.0,0.0,0.0,354
219,1696242799184,-0.13378906,-0.1484375,0.9921875,0.875,0.21875,-0.0625,0.0,0.0,0.0,355
220,1696242799224,-0.13867188,-0.13769531,0.98828125,0.6875,0.15625,-0.1875,0.0,0.0,0.0,356
221,1696242799264,-0.140625,-0.14453125,0.99902344,0.875,0.15625,-0.1875,0.0,0.0,0.0,357
222,1696242799304,-0.13574219,-0.14257812,1.0166016,0.75,0.03125,-0.0625,0.0,0.0,0.0,358
223,1696242799344,-0.13964844,-0.14550781,0.99121094,0.09375,-0.03125,-0.375,0.0,0.0,0.0,359
224,1696242799384,-0.13769531,-0.13769531,0.9921875,0.28125,0.34375,-0.25,0.0,0.0,0.0,360
225,1696242799424,-0.1328125,-0.14453125,0.9814453,0.875,-0.03125,-0.1875,-66.625,-2.375,-30.1875,361
226,1696242799464,-0.13574219,-0.13574219,0.9902344,0.5625,-0.09375,-0.0625,0.0,0.0,0.0,362
227,1696242799504,-0.13574219,-0.13378906,0.97753906,0.6875,0.09375,-0.125,0.0,0.0,0.0,363
228,1696242799544,-0.13671875,-0.14160156,0.9921875,0.46875,0.09375,-0.25,0.0,0.0,0.0,364
229,1696242799584,-0.13671875,-0.13867188,1.0029297,0.40625,0.34375,-0.0625,0.0,0.0,0.0,365
230,1696242799624,-0.15332031,-0.13085938,0.9863281,1.0,0.21875,-0.3125,0.0,0.0,0.0,366
231,1696242799664,-0.140625,-0.13671875,0.9921875,0.46875,0.15625,-0.1875,0.0,0.0,0.0,367
232,1696242799704,-0.14550781,-0.13867188,0.99902344,0.625,0.03125,-0.125,0.0,0.0,0.0,368
233,1696242799744,-0.13964844,-0.14355469,1.0058594,0.5625,0.03125,-0.125,0.0,0.0,0.0,369
234,1696242799784,-0.13769531,-0.14160156,0.98339844,0.21875,0.09375,0.0,0.0,0.0,0.0,370
235,1696242799824,-0.13769531,-0.13183594,1.0087891,0.5,0.03125,-0.1875,0.0,0.0,0.0,371
236,1696242799864,-0.13867188,-0.140625,1.0019531,0.40625,0.15625,-0.125,0.0,0.0,0.0,372
237,1696242799904,-0.13769531,-0.13671875,1.0048828,0.34375,0.09375,-0.1875,-66.125,-3.5625,-29.0,373
238,1696242799944,-0.13964844,-0.13378906,0.9921875,0.6875,0.03125,-0.1875,0.0,0.0,0.0,374
239,1696242799984,-0.13476562,-0.13476562,0.9892578,0.15625,0.21875,-0.0625,0.0,0.0,0.0,375
240,1696242800024,-0.14160156,-0.13769531,0.98535156,0.15625,-0.09375,0.0,0.0,0.0,0.0,376
241,1696242800064,-0.13964844,-0.14550781,0.9970703,0.5625,0.03125,0.0,0.0,0.0,0.0,377
242,1696242800104,-0.13378906,-0.14355469,0.99609375,0.09375,0.09375,-0.0625,0.0,0.0,0.0,378
243,1696242800144,-0.13867188,-0.13769531,0.9873047,-0.03125,0.03125,-0.125,0.0,0.0,0.0,379
244,1696242800184,-0.13867188,-0.1484375,1.0,0.34375,-0.03125,-0.3125,0.0,0.0,0.0,380
245,1696242800224,-0.14746094,-0.1328125,0.9921875,-0.21875,-0.03125,-0.125,0.0,0.0,0.0,381
246,1696242800264,-0.13964844,-0.13671875,0.984375,0.09375,-0.15625,0.0,0.0,0.0,0.0,382
247,1696242800304,-0.13671875,-0.140625,0.9951172,0.03125,-0.09375,0.0,0.0,0.0,0.0,383
248,1696242800344,-0.1328125,-0.14160156,0.9863281,-0.09375,-0.21875,-0.3125,0.0,0.0,0.0,384
249,1696242800384,-0.13964844,-0.12988281,0.9794922,-0.59375,-0.09375,-0.3125,0.0,0.0,0.0,385
250,1696242800424,-0.13378906,-0.14746094,0.9951172,0.15625,0.09375,0.0,-66.3125,-3.875,-28.4375,386
251,1696242800464,-0.13671875,-0.13476562,0.98339844,-0.15625,-0.03125,-0.0625,0.0,0.0,0.0,387
252,1696242800504,-0.14160156,-0.1328125,0.9863281,-0.53125,-0.15625,0.1875,0.0,0.0,0.0,388
253,1696242800544,-0.1328125,-0.13867188,0.98339844,-0.03125,-0.09375,-0.0625,0.0,0.0,0.0,389
254,1696242800584,-0.12890625,-0.14257812,0.9873047,-0.34375,-0.15625,-0.125,0.0,0.0,0.0,390
255,1696242800624,-0.13769531,-0.14550781,0.9863281,-0.40625,-0.15625,-0.0625,0.0,0.0,0.0,391
256,1696242800664,-0.13769531,-0.14257812,0.9941406,0.09375,-0.09375,0.0,0.0,0.0,0.0,392
257,1696242800704,-0.13574219,-0.14160156,0.9921875,-0.28125,0.15625,-0.25,0.0,0.0,0.0,393
258,1696242800744,-0.13476562,-0.13574219,0.98339844,0.15625,-0.15625,-0.125,0.0,0.0,0.0,394
259,1696242800784,-0.13671875,-0.14453125,0.9941406,-0.03125,-0.21875,-0.0625,0.0,0.0,0.0,395
260,1696242800824,-0.14550781,-0.14550781,0.98535156,-0.84375,-0.15625,-0.0625,0.0,0.0,0.0,396
261,1696242800864,-0.1328125,-0.13867188,0.99316406,0.28125,-0.03125,0.0,0.0,0.0,0.0,397
262,1696242800904,-0.13769531,-0.14550781,0.9941406,0.15625,0.15625,0.0,-66.4375,-4.3125,-29.625,398
263,1696242800944,-0.14160156,-0.15234375,0.9902344,0.21875,0.15625,-0.375,0.0,0.0,0.0,399
264,1696242800984,-0.13085938,-0.14453125,0.9951172,0.09375,-0.09375,-0.25,0.0,0.0,0.0,400
265,1696242801024,-0.13867188,-0.14257812,0.9970703,0.21875,0.03125,-0.125,0.0,0.0,0.0,401
266,1696242801064,-0.13671875,-0.14453125,1.0009766,-0.15625,-0.09375,-0.0625,0.0,0.0,0.0,402
267,1696242801104,-0.1328125,-0.14355469,0.99121094,-0.875,-0.09375,-0.1875,0.0,0.0,0.0,403
268,1696242801144,-0.14648438,-0.14746094,0.9902344,0.09375,-0.15625,0.125,0.0,0.0,0.0,404
269,1696242801184,-0.125,-0.140625,0.9863281,0.03125,-0.34375,-0.25,0.0,0.0,0.0,405
270,1696242801224,-0.13574219,-0.13964844,0.9980469,-0.21875,-0.09375,-0.4375,0.0,0.0,0.0,406
271,1696242801264,-0.12695312,-0.15332031,1.0009766,-0.03125,0.09375,-0.0625,0.0,0.0,0.0,407
272,1696242801304,-0.13867188,-0.14257812,0.9902344,0.40625,0.34375,-0.0625,0.0,0.0,0.0,408
273,1696242801344,-0.12890625,-0.14355469,0.98535156,0.8125,0.03125,-0.125,0.0,0.0,0.0,409
274,1696242801384,-0.13378906,-0.140625,0.99316406,0.46875,-0.03125,-0.4375,0.0,0.0,0.0,410
275,1696242801424,-0.13769531,-0.13671875,0.9794922,0.34375,-0.03125,-0.5,-65.6875,-2.5,-30.375,411
276,1696242801464,-0.13476562,-0.13867188,0.9941406,-0.03125,-0.15625,-0.0625,0.0,0.0,0.0,412
277,1696242801504,-0.13964844,-0.14550781,0.99902344,0.40625,-0.09375,0.125,0.0,0.0,0.0,413
278,1696242801544,-0.13964844,-0.15527344,0.9902344,0.40625,-0.03125,-0.25,0.0,0.0,0.0,414
279,1696242801584,-0.14550781,-0.13867188,0.9814453,-0.28125,-0.03125,-0.4375,0.0,0.0,0.0,415
280,1696242801624,-0.14257812,-0.140625,1.0097656,0.5625,-0.03125,-0.25,0.0,0.0,0.0,416
281,1696242801664,-0.13867188,-0.13964844,0.9814453,0.09375,-0.03125,0.125,0.0,0.0,0.0,417
282,1696242801704,-0.13671875,-0.13964844,1.0078125,-0.15625,0.03125,0.0,0.0,0.0,0.0,418
283,1696242801744,-0.13476562,-0.14453125,0.9902344,0.46875,-0.03125,-0.125,0.0,0.0,0.0,419
284,1696242801784,-0.13378906,-0.14550781,0.99316406,0.03125,0.15625,-0.1875,0.0,0.0,0.0,420
285,1696242801824,-0.13964844,-0.13964844,1.0,0.15625,0.03125,-0.3125,0.0,0.0,0.0,421
286,1696242801864,-0.140625,-0.14453125,0.9873047,0.40625,0.15625,-0.0625,0.0,0.0,0.0,422
287,1696242801904,-0.15039062,-0.1484375,1.0019531,-0.09375,-0.15625,-0.125,-66.3125,-3.125,-27.375,423
288,1696242801944,-0.140625,-0.14453125,0.9921875,0.21875,-0.09375,-0.3125,0.0,0.0,0.0,424
289,1696242801984,-0.140625,-0.14746094,0.9941406,0.21875,0.03125,0.0,0.0,0.0,0.0,425
290,1696242802024,-0.13378906,-0.13085938,0.99609375,-0.09375,0.03125,-0.125,0.0,0.0,0.0,426
291,1696242802064,-0.13378906,-0.13769531,0.98046875,0.75,-0.09375,-0.125,0.0,0.0,0.0,427
292,1696242802104,-0.14550781,-0.14941406,0.98828125,-0.28125,0.28125,0.0,0.0,0.0,0.0,428
293,1696242802144,-0.13085938,-0.13574219,0.9980469,0.34375,-0.28125,-0.1875,0.0,0.0,0.0,429
294,1696242802184,-0.13867188,-0.14257812,0.9951172,-0.15625,0.28125,0.1875,0.0,0.0,0.0,430
295,1696242802224,-0.13574219,-0.13671875,0.9892578,0.46875,-0.03125,-0.4375,0.0,0.0,0.0,431
296,1696242802264,-0.1328125,-0.14648438,0.9824219,0.09375,0.03125,-0.125,0.0,0.0,0.0,432
297,1696242802304,-0.140625,-0.13671875,0.98828125,0.5,-0.03125,-0.25,0.0,0.0,0.0,433
298,1696242802344,-0.13867188,-0.13867188,0.98535156,0.28125,-0.21875,-0.0625,0.0,0.0,0.0,434
299,1696242802384,-0.13183594,-0.14355469,1.0019531,0.34375,-0.09375,-0.0625,0.0,0.0,0.0,435
300,1696242802424,-0.13476562,-0.14355469,0.9873047,0.6875,-0.09375,-0.125,-66.3125,-3.125,-28.4375,436
301,1696242802464,-0.13183594,-0.14550781,0.984375,0.28125,0.28125,-0.3125,0.0,0.0,0.0,437
302,1696242802504,-0.13964844,-0.14941406,0.9951172,0.21875,0.03125,-0.25,0.0,0.0,0.0,438
303,1696242802544,-0.13085938,-0.14355469,0.9814453,0.9375,-0.21875,-0.125,0.0,0.0,0.0,439
304,1696242802584,-0.14160156,-0.140625,0.9970703,0.03125,0.15625,0.0,0.0,0.0,0.0,440
305,1696242802624,-0.13769531,-0.14257812,0.99316406,0.34375,-0.28125,-0.0625,0.0,0.0,0.0,441
306,1696242802664,-0.13574219,-0.13867188,0.9892578,0.40625,0.09375,0.0,0.0,0.0,0.0,442
307,1696242802704,-0.13085938,-0.13867188,0.9785156,0.625,0.03125,-0.125,0.0,0.0,0.0,443
308,1696242802744,-0.1328125,-0.140625,1.0,0.0625,-0.03125,-0.0625,0.0,0.0,0.0,444
309,1696242802784,-0.140625,-0.14355469,0.99609375,0.59375,0.09375,-0.125,0.0,0.0,0.0,445
310,1696242802824,-0.13574219,-0.13964844,0.98828125,0.3125,0.09375,-0.0625,0.0,0.0,0.0,446
311,1696242802864,-0.13964844,-0.14355469,0.98828125,0.125,-0.09375,0.125,0.0,0.0,0.0,447
312,1696242802904,-0.14355469,-0.13671875,0.99902344,0.3125,0.03125,-0.1875,-67.8125,-3.4375,-30.5,448
313,1696242802944,-0.14355469,-0.14453125,0.98828125,0.34375,0.09375,0.0,0.0,0.0,0.0,449
314,1696242802984,-0.140625,-0.14257812,0.99316406,0.40625,0.09375,0.125,0.0,0.0,0.0,450
315,1696242803024,-0.14550781,-0.1484375,1.0029297,0.3125,0.09375,0.0,0.0,0.0,0.0,451
316,1696242803064,-0.12792969,-0.13671875,0.99902344,-0.125,0.03125,-0.0625,0.0,0.0,0.0,452
317,1696242803104,-0.14648438,-0.14453125,0.98535156,0.3125,0.15625,0.0625,0.0,0.0,0.0,453
318,1696242803144,-0.13671875,-0.14160156,0.9873047,0.3125,0.15625,-0.125,0.0,0.0,0.0,454
319,1696242803184,-0.14355469,-0.12988281,0.9921875,0.25,0.15625,-0.125,0.0,0.0,0.0,455
320,1696242803224,-0.14257812,-0.12988281,0.99316406,0.3125,-0.03125,-0.25,0.0,0.0,0.0,456
321,1696242803264,-0.140625,-0.140625,1.0,0.0625,-0.09375,0.0,0.0,0.0,0.0,457
322,1696242803304,-0.13476562,-0.140625,0.9765625,0.78125,0.15625,-0.0625,0.0,0.0,0.0,458
323,1696242803344,-0.14355469,-0.140625,0.9873047,-0.125,0.09375,-0.25,0.0,0.0,0.0,459
324,1696242803384,-0.13378906,-0.13769531,1.0,0.125,0.15625,0.0,0.0,0.0,0.0,460
325,1696242803424,-0.140625,-0.14550781,0.99121094,0.125,-0.03125,0.0625,-67.0625,-3.125,-29.4375,461
326,1696242803464,-0.13671875,-0.14453125,1.0048828,-0.1875,0.03125,-0.0625,0.0,0.0,0.0,462
327,1696242803504,-0.13574219,-0.13769531,1.0019531,-0.5,0.03125,0.125,0.0,0.0,0.0,463
328,1696242803544,-0.1328125,-0.13574219,0.9970703,-0.6875,0.03125,0.1875,0.0,0.0,0.0,464
329,1696242803584,-0.13964844,-0.140625,0.9941406,-0.8125,-0.03125,0.0,0.0,0.0,0.0,465
330,1696242803624,-0.1328125,-0.14355469,0.9980469,-0.25,-0.15625,0.125,0.0,0.0,0.0,466
331,1696242803664,-0.13378906,-0.1484375,0.9921875,-0.625,0.03125,0.0625,0.0,0.0,0.0,467
332,1696242803704,-0.1328125,-0.14550781,0.9941406,-0.4375,0.03125,-0.0625,0.0,0.0,0.0,468
333,1696242803744,-0.1484375,-0.13769531,0.99609375,-0.3125,-0.15625,0.125,0.0,0.0,0.0,469
334,1696242803784,-0.13867188,-0.13378906,0.9980469,-0.625,0.15625,0.0625,0.0,0.0,0.0,470
335,1696242803824,-0.13867188,-0.13867188,0.99121094,-0.1875,-0.15625,0.21875,0.0,0.0,0.0,471
336,1696242803864,-0.12890625,-0.14355469,0.9941406,-0.5,-0.09375,0.0,0.0,0.0,0.0,472
337,1696242803904,-0.14453125,-0.13671875,1.0019531,-1.0,-0.03125,0.28125,-66.125,-4.0,-29.625,473
338,1696242803944,-0.13964844,-0.12988281,0.9892578,-0.375,-0.03125,-0.0625,0.0,0.0,0.0,474
339,1696242803984,-0.13378906,-0.13671875,0.9941406,-0.25,0.09375,0.21875,0.0,0.0,0.0,475
340,1696242804024,-0.1328125,-0.13964844,1.0,-0.4375,0.03125,-0.0625,0.0,0.0,0.0,476
341,1696242804064,-0.12695312,-0.13769531,0.99316406,-0.625,-0.15625,-0.0625,0.0,0.0,0.0,477
342,1696242804104,-0.13964844,-0.14257812,0.9921875,-0.375,0.03125,0.125,0.0,0.0,0.0,478
343,1696242804144,-0.13964844,-0.12890625,0.9814453,-0.5625,-0.15625,0.0625,0.0,0.0,0.0,479
344,1696242804184,-0.13867188,-0.14160156,0.9921875,-0.5625,-0.09375,0.125,0.0,0.0,0.0,480
345,1696242804224,-0.13867188,-0.13769531,0.9970703,0.125,-0.03125,-0.0625,0.0,0.0,0.0,481
346,1696242804264,-0.14648438,-0.13964844,1.0029297,-0.8125,-0.09375,-0.1875,0.0,0.0,0.0,482
347,1696242804304,-0.12109375,-0.13671875,0.9921875,-0.4375,-0.09375,0.0625,0.0,0.0,0.0,483
348,1696242804344,-0.13378906,-0.14648438,0.98828125,-0.4375,-0.09375,0.1875,0.0,0.0,0.0,484
349,1696242804384,-0.13964844,-0.140625,1.0,-0.6875,-0.03125,0.1875,0.0,0.0,0.0,485
350,1696242804424,-0.14355469,-0.1484375,0.98046875,-0.125,0.09375,0.28125,-66.0,-1.9375,-30.1875,486
351,1696242804464,-0.1328125,-0.14648438,0.99121094,-0.5,0.09375,-0.125,0.0,0.0,0.0,487
352,1696242804504,-0.13378906,-0.1328125,1.0126953,-0.625,0.03125,-0.0625,0.0,0.0,0.0,488
353,1696242804544,-0.14550781,-0.13769531,0.99609375,-0.0625,0.03125,0.21875,0.0,0.0,0.0,489
354,1696242804584,-0.13769531,-0.14746094,0.9902344,-0.625,-0.09375,-0.0625,0.0,0.0,0.0,490
355,1696242804624,-0.140625,-0.140625,0.984375,-0.5625,-0.15625,0.125,0.0,0.0,0.0,491
356,1696242804664,-0.13378906,-0.13769531,0.98535156,-0.75,-0.15625,0.1875,0.0,0.0,0.0,492
357,1696242804704,-0.14160156,-0.14550781,0.99609375,-0.6875,0.09375,0.0625,0.0,0.0,0.0,493
358,1696242804744,-0.13671875,-0.14355469,0.9980469,-0.375,0.09375,0.0625,0.0,0.0,0.0,494
359,1696242804784,-0.12988281,-0.13671875,0.9794922,-0.625,-0.03125,0.0625,0.0,0.0,0.0,495
360,1696242804824,-0.13769531,-0.14160156,0.9951172,-0.3125,-0.03125,0.0,0.0,0.0,0.0,496
361,1696242804864,-0.13476562,-0.14648438,0.99316406,-0.5,-0.15625,0.125,0.0,0.0,0.0,497
362,1696242804904,-0.14160156,-0.14550781,0.99902344,-0.6875,-0.15625,0.0625,-65.6875,-2.9375,-29.625,498
363,1696242804944,-0.13085938,-0.14648438,0.9941406,-0.3125,-0.28125,0.0625,0.0,0.0,0.0,499
364,1696242804984,-0.13085938,-0.14941406,1.0087891,-0.375,-0.15625,-0.0625,0.0,0.0,0.0,500
365,1696242805024,-0.13183594,-0.15527344,0.9863281,-0.875,0.03125,-0.3125,0.0,0.0,0.0,501
366,1696242805064,-0.12988281,-0.13964844,0.9921875,0.0,-0.09375,0.125,0.0,0.0,0.0,502
367,1696242805104,-0.13867188,-0.13769531,0.9892578,-0.5625,-0.15625,0.1875,0.0,0.0,0.0,503
368,1696242805144,-0.13769531,-0.140625,1.0019531,-0.5,-0.09375,0.0625,0.0,0.0,0.0,504
369,1696242805184,-0.1328125,-0.14160156,0.9902344,-0.0625,-0.09375,0.1875,0.0,0.0,0.0,505
370,1696242805224,-0.13378906,-0.15917969,1.0,-0.25,-0.03125,0.0,0.0,0.0,0.0,506
371,1696242805264,-0.13867188,-0.14648438,0.99316406,-0.5,0.15625,0.0625,0.0,0.0,0.0,507
372,1696242805304,-0.13085938,-0.15039062,0.9980469,0.1875,-0.03125,0.0,0.0,0.0,0.0,508
373,1696242805344,-0.15234375,-0.14257812,0.98339844,-0.5625,-0.03125,0.0,0.0,0.0,0.0,509
374,1696242805384,-0.14648438,-0.14550781,0.9941406,-0.875,-0.09375,0.125,0.0,0.0,0.0,510
375,1696242805424,-0.13476562,-0.15136719,0.984375,-0.5,-0.09375,0.21875,-66.125,-4.0,-29.3125,511
376,1696242805464,-0.140625,-0.14648438,0.9951172,-0.5625,0.15625,0.1875,0.0,0.0,0.0,512
377,1696242805504,-0.13671875,-0.14941406,0.9970703,-0.375,0.03125,0.0,0.0,0.0,0.0,513
378,1696242805544,-0.13574219,-0.14648438,0.9873047,-0.125,0.15625,0.1875,0.0,0.0,0.0,514
379,1696242805584,-0.14160156,-0.15136719,0.98046875,-0.125,0.09375,-0.125,0.0,0.0,0.0,515
380,1696242805624,-0.13671875,-0.14550781,1.0029297,-0.125,-0.09375,0.28125,0.0,0.0,0.0,516
381,1696242805664,-0.13085938,-0.14257812,0.99902344,-0.25,-0.09375,0.1875,0.0,0.0,0.0,517
382,1696242805704,-0.1328125,-0.14746094,0.9970703,-0.25,-0.21875,0.0625,0.0,0.0,0.0,518
383,1696242805744,-0.13574219,-0.140625,1.0,0.34375,-0.03125,0.1875,0.0,0.0,0.0,519
384,1696242805784,-0.12988281,-0.14550781,0.98535156,0.0625,0.15625,-0.25,0.0,0.0,0.0,520
385,1696242805824,-0.13085938,-0.1484375,0.9980469,0.0,0.09375,0.125,0.0,0.0,0.0,521
386,1696242805864,-0.13867188,-0.14355469,0.9863281,0.1875,0.15625,0.0,0.0,0.0,0.0,522
387,1696242805904,-0.13574219,-0.14941406,0.9970703,-0.5,-0.15625,0.0,-66.4375,-3.25,-29.3125,523
388,1696242805944,-0.13867188,-0.14257812,0.9951172,0.25,0.09375,0.0625,0.0,0.0,0.0,524
389,1696242805984,-0.13671875,-0.14257812,0.98828125,0.3125,-0.03125,0.0625,0.0,0.0,0.0,525
390,1696242806024,-0.13964844,-0.14257812,0.9980469,-0.25,0.09375,0.0625,0.0,0.0,0.0,526
391,1696242806064,-0.14355469,-0.140625,0.9921875,-0.0625,-0.15625,0.0,0.0,0.0,0.0,527
392,1696242806104,-0.13964844,-0.14550781,1.0097656,0.40625,0.15625,0.0625,0.0,0.0,0.0,528
393,1696242806144,-0.15136719,-0.1484375,0.9794922,-0.125,0.15625,-0.0625,0.0,0.0,0.0,529
394,1696242806184,-0.14648438,-0.14746094,0.9941406,0.1875,0.03125,0.0,0.0,0.0,0.0,530
395,1696242806224,-0.13769531,-0.140625,0.9941406,0.25,0.09375,0.125,0.0,0.0,0.0,531
396,1696242806264,-0.15039062,-0.13867188,1.0097656,-0.0625,0.15625,0.1875,0.0,0.0,0.0,532
397,1696242806304,-0.13867188,-0.15039062,1.0048828,0.25,0.09375,-0.0625,0.0,0.0,0.0,533
398,1696242806344,-0.13476562,-0.13769531,1.0,0.1875,0.03125,-0.0625,0.0,0.0,0.0,534
399,1696242806384,-0.14453125,-0.13964844,0.9980469,0.25,0.03125,-0.1875,0.0,0.0,0.0,535
400,1696242806424,-0.13769531,-0.14941406,0.99121094,-0.0625,0.09375,0.125,-66.625,-3.875,-29.75,536
401,1696242806464,-0.13574219,-0.15136719,0.984375,0.40625,0.03125,0.28125,0.0,0.0,0.0,537
402,1696242806504,-0.14453125,-0.14160156,0.9794922,0.25,0.03125,0.21875,0.0,0.0,0.0,538
403,1696242806544,-0.14257812,-0.13769531,0.9785156,-0.375,0.28125,-0.125,0.0,0.0,0.0,539
404,1696242806584,-0.14257812,-0.14648438,0.9863281,0.25,0.15625,-0.0625,0.0,0.0,0.0,540
405,1696242806624,-0.13671875,-0.13769531,0.9785156,-0.0625,0.03125,0.0625,0.0,0.0,0.0,541
406,1696242806664,-0.1328125,-0.14355469,0.99902344,-0.1875,0.03125,0.0,0.0,0.0,0.0,542
407,1696242806704,-0.13476562,-0.1484375,1.0019531,0.125,0.03125,0.0,0.0,0.0,0.0,543
408,1696242806744,-0.13671875,-0.13183594,0.9941406,-0.25,-0.03125,0.125,0.0,0.0,0.0,544
409,1696242806784,-0.13574219,-0.13574219,0.9892578,-0.1875,-0.03125,0.0,0.0,0.0,0.0,545
410,1696242806824,-0.13867188,-0.14355469,0.99121094,0.0,-0.09375,0.0,0.0,0.0,0.0,546
411,1696242806864,-0.14648438,-0.13964844,1.0009766,-0.6875,0.09375,-0.125,0.0,0.0,0.0,547
412,1696242806904,-0.14355469,-0.13867188,0.9873047,-0.1875,-0.15625,0.21875,-66.875,-2.5,-31.4375,548
413,1696242806944,-0.140625,-0.1328125,0.9902344,-0.5625,-0.28125,0.34375,0.0,0.0,0.0,549
414,1696242806984,-0.13769531,-0.14746094,0.98828125,-1.21875,-0.09375,0.21875,0.0,0.0,0.0,550
415,1696242807024,-0.13867188,-0.14160156,0.9892578,-0.8125,-0.15625,0.0,0.0,0.0,0.0,551
416,1696242807064,-0.13574219,-0.14648438,0.984375,-0.75,0.28125,0.0625,0.0,0.0,0.0,552
417,1696242807104,-0.13671875,-0.13476562,0.9863281,-0.625,-0.09375,0.0,0.0,0.0,0.0,553
418,1696242807144,-0.13476562,-0.13867188,0.98828125,-0.3125,-0.15625,0.125,0.0,0.0,0.0,554
419,1696242807184,-0.13867188,-0.14746094,1.0097656,-0.1875,0.03125,0.28125,0.0,0.0,0.0,571
420,1696242807224,-0.13671875,-0.14355469,0.9814453,0.0,-0.09375,0.0625,0.0,0.0,0.0,572
421,1696242807264,-0.13574219,-0.13769531,0.9921875,-0.875,-0.03125,0.0,-66.625,-3.125,-28.4375,573
422,1696242807304,-0.13769531,-0.14453125,1.0019531,0.0625,-0.15625,0.0625,0.0,0.0,0.0,574
423,1696242807344,-0.13867188,-0.14746094,0.99316406,-0.4375,-0.21875,0.0625,0.0,0.0,0.0,575
424,1696242807384,-0.13378906,-0.14453125,0.9921875,-0.75,-0.21875,0.28125,0.0,0.0,0.0,576
425,1696242807424,-0.13671875,-0.15136719,0.9892578,0.1875,-0.09375,0.1875,0.0,0.0,0.0,577
426,1696242807464,-0.14355469,-0.13867188,0.98535156,-0.5625,-0.03125,-0.1875,0.0,0.0,0.0,578
427,1696242807504,-0.1328125,-0.14355469,0.9921875,-0.5,-0.15625,0.0,0.0,0.0,0.0,579
428,1696242807544,-0.13183594,-0.14355469,0.98535156,-0.375,-0.15625,0.1875,0.0,0.0,0.0,580
429,1696242807584,-0.13671875,-0.14550781,0.984375,-0.5625,0.09375,0.1875,0.0,0.0,0.0,581
430,1696242807624,-0.14550781,-0.14355469,0.98535156,-0.5625,-0.09375,0.125,0.0,0.0,0.0,582
431,1696242807664,-0.13769531,-0.14160156,0.9970703,-0.3125,-0.09375,-0.0625,0.0,0.0,0.0,583
432,1696242807704,-0.13671875,-0.14746094,0.9873047,-0.1875,-0.03125,-0.1875,0.0,0.0,0.0,584
433,1696242807744,-0.140625,-0.14453125,0.9902344,-0.375,-0.03125,0.0625,0.0,0.0,0.0,585
434,1696242807784,-0.13769531,-0.14160156,1.0,-0.5625,-0.09375,0.125,-66.0,-4.9375,-30.1875,586
435,1696242807824,-0.12988281,-0.15039062,0.9892578,-0.125,-0.15625,0.21875,0.0,0.0,0.0,587
436,1696242807864,-0.14453125,-0.1484375,0.9785156,-0.5625,-0.09375,0.0625,0.0,0.0,0.0,588
437,1696242807904,-0.13671875,-0.14257812,0.9873047,-0.4375,0.03125,0.0625,0.0,0.0,0.0,589
438,1696242807944,-0.14648438,-0.14941406,0.9824219,-0.1875,-0.03125,0.0,0.0,0.0,0.0,590
439,1696242807984,-0.13769531,-0.14550781,0.9892578,-0.5,0.09375,0.0,0.0,0.0,0.0,591
440,1696242808024,-0.13574219,-0.14648438,0.9873047,-0.625,-0.03125,0.21875,0.0,0.0,0.0,592
441,1696242808064,-0.13476562,-0.14550781,0.99121094,-0.125,0.09375,0.21875,0.0,0.0,0.0,593
442,1696242808104,-0.13769531,-0.14648438,0.98828125,-0.375,-0.03125,-0.125,0.0,0.0,0.0,594
443,1696242808144,-0.14550781,-0.15527344,0.98535156,-0.3125,0.03125,0.0625,0.0,0.0,0.0,595
444,1696242808184,-0.14257812,-0.14648438,0.98535156,0.0625,-0.09375,0.125,0.0,0.0,0.0,596
445,1696242808224,-0.14746094,-0.14257812,0.9863281,-0.3125,-0.21875,0.125,0.0,0.0,0.0,597
446,1696242808264,-0.140625,-0.15332031,0.984375,-0.4375,0.03125,0.1875,-66.4375,-4.75,-29.625,598
447,1696242808304,-0.13085938,-0.15429688,1.0029297,0.25,-0.09375,0.21875,0.0,0.0,0.0,599
448,1696242808344,-0.14355469,-0.15429688,0.9814453,-0.25,0.03125,-0.125,0.0,0.0,0.0,600
449,1696242808384,-0.13378906,-0.14941406,0.9970703,-0.5,-0.09375,0.0,0.0,0.0,0.0,601
450,1696242808424,-0.14355469,-0.14453125,0.9980469,0.1875,-0.15625,0.1875,0.0,0.0,0.0,602
451,1696242808464,-0.1328125,-0.14941406,0.99316406,-0.625,0.09375,0.1875,0.0,0.0,0.0,603
452,1696242808504,-0.12988281,-0.1484375,0.99902344,-0.1875,-0.03125,0.1875,0.0,0.0,0.0,604
453,1696242808544,-0.13671875,-0.140625,0.984375,0.125,0.15625,0.0,0.0,0.0,0.0,605
454,1696242808584,-0.14746094,-0.14746094,0.99609375,-0.5,0.03125,-0.0625,0.0,0.0,0.0,606
455,1696242808624,-0.140625,-0.14257812,0.9892578,-0.125,0.15625,0.0625,0.0,0.0,0.0,607
456,1696242808664,-0.13964844,-0.14550781,0.9941406,0.0625,-0.15625,0.1875,0.0,0.0,0.0,608
457,1696242808704,-0.14257812,-0.14746094,0.99316406,0.53125,0.21875,0.21875,0.0,0.0,0.0,609
458,1696242808744,-0.13671875,-0.1484375,1.0019531,0.46875,-0.09375,0.0625,0.0,0.0,0.0,610
459,1696242808784,-0.14160156,-0.14941406,0.9941406,-0.25,-0.03125,0.0625,-67.0625,-3.4375,-28.6875,611
460,1696242808824,-0.13183594,-0.14453125,0.9902344,0.125,-0.03125,0.1875,0.0,0.0,0.0,612
461,1696242808864,-0.14550781,-0.14257812,0.97753906,0.125,0.03125,0.0,0.0,0.0,0.0,613
462,1696242808904,-0.13378906,-0.140625,0.9921875,0.125,0.09375,0.0,0.0,0.0,0.0,614
463,1696242808944,-0.13964844,-0.14550781,0.99902344,0.0625,-0.09375,0.0,0.0,0.0,0.0,615
464,1696242808984,-0.13964844,-0.13769531,0.99316406,-0.125,0.03125,0.0625,0.0,0.0,0.0,616
465,1696242809024,-0.13964844,-0.14941406,1.0009766,0.125,0.28125,0.0625,0.0,0.0,0.0,617
466,1696242809064,-0.13574219,-0.14453125,0.9863281,0.78125,-0.03125,0.0,0.0,0.0,0.0,618
467,1696242809104,-0.13867188,-0.14355469,1.0019531,0.125,0.03125,-0.1875,0.0,0.0,0.0,619
468,1696242809144,-0.13476562,-0.1328125,0.9980469,0.3125,-0.09375,-0.0625,0.0,0.0,0.0,620
469,1696242809184,-0.13183594,-0.13964844,0.99316406,0.125,-0.09375,0.21875,0.0,0.0,0.0,621
470,1696242809224,-0.13769531,-0.14648438,0.98535156,0.46875,-0.03125,0.21875,0.0,0.0,0.0,622
471,1696242809264,-0.13867188,-0.14746094,1.0,-0.125,0.03125,0.125,-66.0,-2.375,-29.75,623
472,1696242809304,-0.140625,-0.14160156,0.99316406,0.46875,0.03125,0.0,0.0,0.0,0.0,624
473,1696242809344,-0.13378906,-0.14355469,0.99902344,0.0,-0.03125,0.125,0.0,0.0,0.0,625
474,1696242809384,-0.14160156,-0.1328125,0.99316406,0.125,0.15625,0.0,0.0,0.0,0.0,626
475,1696242809424,-0.140625,-0.14257812,1.0068359,-0.0625,-0.03125,0.0625,0.0,0.0,0.0,627
476,1696242809464,-0.13964844,-0.1328125,1.0029297,-0.25,-0.09375,0.0625,0.0,0.0,0.0,628
477,1696242809504,-0.14257812,-0.14453125,1.0029297,0.125,0.03125,0.0625,0.0,0.0,0.0,629
478,1696242809544,-0.1328125,-0.14453125,0.98828125,0.1875,0.03125,-0.125,0.0,0.0,0.0,630
479,1696242809584,-0.13378906,-0.13769531,0.99316406,0.0625,0.15625,-0.0625,0.0,0.0,0.0,631
480,1696242809624,-0.140625,-0.13378906,0.9980469,0.1875,0.03125,0.125,0.0,0.0,0.0,632
481,1696242809664,-0.14160156,-0.140625,0.9941406,0.0625,-0.03125,0.0625,0.0,0.0,0.0,633
482,1696242809704,-0.13183594,-0.140625,1.0009766,-0.125,0.15625,0.0625,0.0,0.0,0.0,634
483,1696242809744,-0.14355469,-0.14355469,0.9951172,-0.1875,-0.15625,0.1875,0.0,0.0,0.0,635
484,1696242809784,-0.13964844,-0.14453125,0.9970703,-0.5,-0.09375,0.0,-65.5625,-3.4375,-28.6875,636
485,1696242809824,-0.14746094,-0.14648438,0.9873047,-0.625,-0.09375,0.125,0.0,0.0,0.0,637
486,1696242809864,-0.13574219,-0.14355469,0.9951172,-0.5625,0.03125,0.0625,0.0,0.0,0.0,638
487,1696242809904,-0.13964844,-0.13183594,0.99316406,-0.75,0.09375,0.21875,0.0,0.0,0.0,639
488,1696242809944,-0.13769531,-0.13476562,1.0009766,-0.375,-0.03125,0.21875,0.0,0.0,0.0,640
489,1696242809984,-0.13671875,-0.13867188,0.9941406,-0.5625,-0.09375,0.1875,0.0,0.0,0.0,641
490,1696242810024,-0.14648438,-0.13769531,1.0009766,-0.5,0.03125,-0.1875,0.0,0.0,0.0,642
491,1696242810064,-0.14746094,-0.14746094,1.0019531,-0.5625,-0.03125,0.0625,0.0,0.0,0.0,643
492,1696242810104,-0.13183594,-0.14160156,0.9902344,-0.1875,-0.15625,0.21875,0.0,0.0,0.0,644
493,1696242810144,-0.13964844,-0.13476562,0.98535156,-0.6875,-0.09375,0.125,0.0,0.0,0.0,645
494,1696242810184,-0.13378906,-0.14941406,1.0009766,-0.375,-0.15625,0.0,0.0,0.0,0.0,646
495,1696242810224,-0.14355469,-0.13769531,0.9863281,-0.4375,-0.15625,0.0625,0.0,0.0,0.0,647
496,1696242810264,-0.14550781,-0.140625,0.9863281,-0.75,0.03125,0.0,-66.3125,-2.375,-29.1875,648
497,1696242810304,-0.13867188,-0.14648438,0.98339844,-0.375,-0.21875,0.21875,0.0,0.0,0.0,649
498,1696242810344,-0.13964844,-0.15429688,0.98828125,-0.5,-0.09375,0.125,0.0,0.0,0.0,650
499,1696242810384,-0.13867188,-0.140625,0.9824219,-0.4375,-0.09375,0.0625,0.0,0.0,0.0,651
500,1696242810424,-0.14257812,-0.14453125,0.9921875,-0.375,0.15625,0.0625,0.0,0.0,0.0,652
501,1696242810464,-0.14160156,-0.14550781,0.9736328,-0.5,-0.03125,-0.0625,0.0,0.0,0.0,653
502,1696242810504,-0.140625,-0.14648438,0.9921875,-0.6875,-0.09375,0.1875,0.0,0.0,0.0,654
503,1696242810544,-0.14257812,-0.15039062,0.99316406,-0.125,-0.03125,0.125,0.0,0.0,0.0,655
504,1696242810584,-0.13769531,-0.13769531,0.9902344,-0.5,-0.03125,-0.0625,0.0,0.0,0.0,656
505,1696242810624,-0.140625,-0.14257812,0.9980469,-0.5625,-0.21875,-0.125,0.0,0.0,0.0,657
506,1696242810664,-0.13574219,-0.13867188,1.0,-0.25,-0.03125,0.125,0.0,0.0,0.0,658
507,1696242810704,-0.14160156,-0.14453125,0.99609375,-0.625,-0.15625,0.0,0.0,0.0,0.0,659
508,1696242810744,-0.13378906,-0.15332031,1.0126953,-0.375,0.21875,0.28125,0.0,0.0,0.0,660
509,1696242810784,-0.13964844,-0.14550781,0.98535156,-0.25,0.09375,-0.0625,-66.125,-3.25,-29.0,661
510,1696242810824,-0.13671875,-0.14550781,0.99121094,-0.6875,0.15625,-0.0625,0.0,0.0,0.0,662
511,1696242810864,-0.13476562,-0.14453125,0.9951172,0.34375,0.03125,-0.125,0.0,0.0,0.0,663
512,1696242810904,-0.14355469,-0.14160156,0.9892578,-0.4375,-0.21875,-0.125,0.0,0.0,0.0,664
513,1696242810944,-0.14160156,-0.15136719,0.9970703,-0.3125,-0.21875,0.125,0.0,0.0,0.0,665
514,1696242810984,-0.14648438,-0.14648438,0.99316406,0.25,-0.21875,0.28125,0.0,0.0,0.0,666
515,1696242811024,-0.13964844,-0.1484375,0.99316406,-0.625,-0.03125,-0.1875,0.0,0.0,0.0,667
516,1696242811064,-0.13183594,-0.13867188,0.99609375,0.1875,0.03125,0.0,0.0,0.0,0.0,668
517,1696242811104,-0.14550781,-0.14550781,0.9921875,0.0625,0.09375,-0.1875,0.0,0.0,0.0,669
518,1696242811144,-0.14257812,-0.14550781,0.98535156,-0.6875,-0.15625,0.0625,0.0,0.0,0.0,670
519,1696242811184,-0.140625,-0.13769531,0.98535156,-0.125,0.09375,0.1875,0.0,0.0,0.0,671
520,1696242811224,-0.13964844,-0.13867188,0.98046875,-0.3125,-0.09375,0.125,0.0,0.0,0.0,672
521,1696242811264,-0.13769531,-0.14550781,0.9902344,-0.125,0.03125,0.0625,-65.6875,-1.75,-29.625,673
522,1696242811304,-0.14257812,-0.14941406,0.984375,0.0,0.09375,0.0,0.0,0.0,0.0,674
523,1696242811344,-0.14550781,-0.15039062,0.9921875,-0.5625,-0.03125,-0.0625,0.0,0.0,0.0,675
524,1696242811384,-0.13574219,-0.14257812,0.9892578,-0.0625,0.03125,0.125,0.0,0.0,0.0,676
525,1696242811424,-0.13867188,-0.14453125,1.0,-0.1875,-0.09375,0.0,0.0,0.0,0.0,677
526,1696242811464,-0.13964844,-0.1484375,0.9970703,-0.25,0.03125,-0.0625,0.0,0.0,0.0,678
527,1696242811504,-0.12597656,-0.14355469,0.99316406,0.125,0.03125,0.0,0.0,0.0,0.0,679
528,1696242811544,-0.140625,-0.13769531,0.9921875,-0.25,-0.03125,0.1875,0.0,0.0,0.0,680
529,1696242811584,-0.12988281,-0.1484375,1.0136719,-0.1875,-0.03125,-0.125,0.0,0.0,0.0,681
530,1696242811624,-0.14257812,-0.14941406,0.99902344,-0.25,0.21875,0.21875,0.0,0.0,0.0,682
531,1696242811664,-0.13964844,-0.14550781,0.99609375,-0.125,0.03125,-0.25,0.0,0.0,0.0,683
532,1696242811704,-0.15136719,-0.14550781,1.0,-0.125,0.09375,0.0,0.0,0.0,0.0,684
533,1696242811744,-0.13769531,-0.14453125,0.98535156,0.125,0.03125,-0.1875,0.0,0.0,0.0,685
534,1696242811784,-0.14160156,-0.14746094,0.9970703,-0.4375,-0.09375,-0.125,-65.25,-1.9375,-30.9375,686
535,1696242811824,-0.14453125,-0.14453125,1.0,0.0,-0.03125,0.1875,0.0,0.0,0.0,687
536,1696242811864,-0.13769531,-0.15429688,0.9980469,0.25,-0.09375,0.1875,0.0,0.0,0.0,688
537,1696242811904,-0.140625,-0.15722656,0.9970703,-0.1875,0.03125,-0.0625,0.0,0.0,0.0,689
538,1696242811944,-0.14257812,-0.14746094,0.9970703,0.0625,0.03125,-0.1875,0.0,0.0,0.0,690
539,1696242811984,-0.14746094,-0.14746094,0.9863281,0.1875,-0.03125,0.0625,0.0,0.0,0.0,691
540,1696242812024,-0.14550781,-0.14160156,0.99609375,-0.5,-0.15625,0.125,0.0,0.0,0.0,692
541,1696242812064,-0.13476562,-0.1484375,0.9921875,-0.1875,-0.15625,0.125,0.0,0.0,0.0,693
542,1696242812104,-0.13085938,-0.14257812,0.9863281,0.0625,0.21875,-0.125,0.0,0.0,0.0,694
543,1696242812144,-0.13574219,-0.14550781,0.9863281,-0.375,-0.03125,-0.25,0.0,0.0,0.0,695
544,1696242812184,-0.140625,-0.15820312,0.99316406,0.1875,0.15625,0.0625,0.0,0.0,0.0,696
545,1696242812224,-0.13964844,-0.14746094,0.98046875,-0.3125,-0.03125,-0.1875,0.0,0.0,0.0,697
546,1696242812264,-0.13964844,-0.14453125,0.9951172,0.0625,0.03125,0.0625,-65.125,-2.1875,-29.625,698
547,1696242812304,-0.13378906,-0.14941406,0.99121094,0.25,0.09375,0.0,0.0,0.0,0.0,699
548,1696242812344,-0.13183594,-0.14355469,0.99609375,-0.1875,-0.09375,0.125,0.0,0.0,0.0,700
549,1696242812384,-0.14550781,-0.1484375,0.9921875,0.3125,-0.03125,0.125,0.0,0.0,0.0,701
550,1696242812424,-0.14355469,-0.15039062,1.0029297,0.25,0.09375,0.0625,0.0,0.0,0.0,702
551,1696242812464,-0.14257812,-0.14746094,0.9892578,0.0,0.21875,-0.125,0.0,0.0,0.0,703
552,1696242812504,-0.13378906,-0.1484375,1.0,-0.125,0.09375,0.125,0.0,0.0,0.0,704
553,1696242812544,-0.14257812,-0.15039062,1.0,0.71875,0.09375,0.0625,0.0,0.0,0.0,705
554,1696242812584,-0.13769531,-0.13964844,0.9814453,0.46875,0.09375,-0.0625,0.0,0.0,0.0,706
555,1696242812624,-0.14453125,-0.13574219,1.0087891,0.125,0.09375,-0.1875,0.0,0.0,0.0,707
556,1696242812664,-0.13867188,-0.13867188,0.9921875,0.59375,-0.03125,0.0,0.0,0.0,0.0,708
557,1696242812704,-0.14257812,-0.14160156,1.0009766,0.0,-0.03125,0.0,0.0,0.0,0.0,709
558,1696242812744,-0.13964844,-0.14160156,0.9941406,0.40625,0.09375,-0.0625,0.0,0.0,0.0,710
559,1696242812784,-0.13476562,-0.14941406,0.99316406,0.25,-0.03125,0.125,-66.0,-3.4375,-30.5,711
560,1696242812824,-0.14355469,-0.14355469,0.9941406,0.34375,-0.03125,-0.125,0.0,0.0,0.0,712
561,1696242812864,-0.13085938,-0.14355469,0.99902344,0.25,-0.03125,0.125,0.0,0.0,0.0,713
562,1696242812904,-0.140625,-0.15039062,0.99902344,0.25,0.03125,-0.125,0.0,0.0,0.0,714
563,1696242812944,-0.140625,-0.14648438,0.9941406,0.0625,0.09375,-0.125,0.0,0.0,0.0,715
564,1696242812984,-0.13964844,-0.13574219,0.9785156,0.3125,0.03125,0.0625,0.0,0.0,0.0,716
565,1696242813024,-0.13574219,-0.140625,0.9902344,0.40625,0.09375,0.0,0.0,0.0,0.0,717
566,1696242813064,-0.13769531,-0.14355469,0.99121094,0.34375,0.09375,-0.125,0.0,0.0,0.0,718
567,1696242813104,-0.13867188,-0.140625,0.9951172,0.0625,0.09375,0.0,0.0,0.0,0.0,719
568,1696242813144,-0.13574219,-0.14453125,0.9902344,0.3125,-0.03125,0.0,0.0,0.0,0.0,720
569,1696242813184,-0.140625,-0.1484375,1.0,-0.125,0.03125,0.0625,0.0,0.0,0.0,721
570,1696242813224,-0.13085938,-0.13964844,0.9970703,0.1875,0.15625,-0.25,0.0,0.0,0.0,722
571,1696242813264,-0.14453125,-0.13574219,0.9863281,0.0,0.03125,-0.0625,-66.4375,-1.75,-30.375,723
572,1696242813304,-0.14648438,-0.13867188,0.984375,-0.3125,-0.15625,0.0625,0.0,0.0,0.0,724
573,1696242813344,-0.14355469,-0.13574219,0.99316406,-0.375,0.15625,0.34375,0.0,0.0,0.0,725
574,1696242813384,-0.1484375,-0.140625,0.9873047,-0.1875,-0.09375,-0.125,0.0,0.0,0.0,726
575,1696242813424,-0.13183594,-0.13476562,0.99121094,-0.625,-0.03125,0.0,0.0,0.0,0.0,727
576,1696242813464,-0.14550781,-0.13769531,0.9892578,-0.125,-0.21875,-0.25,0.0,0.0,0.0,728
577,1696242813504,-0.14746094,-0.13574219,1.0019531,-0.6875,-0.03125,0.0,0.0,0.0,0.0,729
578,1696242813544,-0.13769531,-0.14453125,0.9921875,-0.5,0.03125,0.1875,0.0,0.0,0.0,730
579,1696242813584,-0.13183594,-0.14355469,0.99121094,-0.3125,-0.21875,0.125,0.0,0.0,0.0,731
580,1696242813624,-0.13867188,-0.14257812,0.99609375,-0.625,0.03125,-0.0625,0.0,0.0,0.0,732
581,1696242813664,-0.14160156,-0.14746094,0.9970703,-0.1875,-0.28125,-0.125,0.0,0.0,0.0,733
582,1696242813704,-0.13867188,-0.13476562,0.9863281,-0.625,-0.09375,-0.0625,0.0,0.0,0.0,734
583,1696242813744,-0.13769531,-0.14355469,0.9892578,-0.375,0.09375,0.0,0.0,0.0,0.0,735
584,1696242813784,-0.13574219,-0.140625,0.9794922,-0.375,-0.09375,0.125,-65.6875,-3.5625,-30.0625,736
585,1696242813824,-0.14453125,-0.1328125,0.98339844,-0.5625,0.03125,0.0,0.0,0.0,0.0,737
586,1696242813864,-0.15039062,-0.14550781,0.9902344,0.0,-0.09375,-0.1875,0.0,0.0,0.0,738
587,1696242813904,-0.14550781,-0.14355469,0.984375,-0.25,0.15625,-0.25,0.0,0.0,0.0,739
588,1696242813944,-0.13964844,-0.13769531,0.984375,-0.0625,0.09375,-0.0625,0.0,0.0,0.0,740
589,1696242813984,-0.13085938,-0.14648438,0.99902344,-0.25,-0.09375,0.0625,0.0,0.0,0.0,741
590,1696242814024,-0.125,-0.14257812,0.9794922,-0.25,-0.09375,0.0625,0.0,0.0,0.0,742
591,1696242814064,-0.12695312,-0.14453125,0.99121094,-0.1875,-0.09375,-0.1875,0.0,0.0,0.0,743
592,1696242814104,-0.13574219,-0.13476562,0.9863281,-0.8125,-0.09375,0.0625,0.0,0.0,0.0,744
593,1696242814144,-0.13671875,-0.14648438,0.9824219,-0.4375,0.21875,0.28125,0.0,0.0,0.0,745
594,1696242814184,-0.13671875,-0.14941406,0.9794922,0.125,0.09375,0.0,0.0,0.0,0.0,746
595,1696242814224,-0.14550781,-0.13671875,0.9921875,-0.4375,0.09375,-0.1875,0.0,0.0,0.0,747
596,1696242814264,-0.13769531,-0.14355469,0.9921875,-0.125,0.03125,-0.25,-66.4375,-1.4375,-29.625,748
597,1696242814304,-0.13671875,-0.14355469,0.99121094,-0.375,-0.15625,0.125,0.0,0.0,0.0,749
598,1696242814344,-0.14160156,-0.14648438,0.9863281,-0.375,-0.21875,0.125,0.0,0.0,0.0,750
599,1696242814384,-0.13085938,-0.14257812,0.9921875,-0.4375,-0.21875,0.0625,0.0,0.0,0.0,751
600,1696242814424,-0.14550781,-0.14355469,0.9794922,-0.6875,-0.03125,-0.3125,0.0,0.0,0.0,752
601,1696242814464,-0.15039062,-0.14257812,0.99609375,0.1875,-0.15625,0.0625,0.0,0.0,0.0,753
602,1696242814504,-0.13574219,-0.14648438,0.9746094,-0.3125,-0.09375,0.1875,0.0,0.0,0.0,754
603,1696242814544,-0.140625,-0.1484375,0.9824219,-0.5625,-0.09375,-0.1875,0.0,0.0,0.0,755
604,1696242814584,-0.13671875,-0.14941406,0.9941406,-0.3125,0.03125,0.0,0.0,0.0,0.0,756
605,1696242814624,-0.13867188,-0.14648438,0.9970703,-0.5625,-0.09375,0.0625,0.0,0.0,0.0,757
606,1696242814664,-0.13574219,-0.14355469,0.9863281,-0.0625,0.09375,0.0,0.0,0.0,0.0,758
607,1696242814704,-0.14355469,-0.14257812,0.99316406,-0.25,-0.09375,-0.0625,0.0,0.0,0.0,759
608,1696242814744,-0.14257812,-0.15039062,0.9941406,-0.25,-0.09375,0.1875,0.0,0.0,0.0,760
609,1696242814784,-0.13769531,-0.14941406,1.0029297,-0.25,-0.03125,0.0625,-66.4375,-3.25,-28.25,761
610,1696242814824,-0.13769531,-0.14746094,0.99121094,-0.25,0.03125,0.0625,0.0,0.0,0.0,762
611,1696242814864,-0.13671875,-0.1484375,1.0,-0.1875,-0.09375,0.0,0.0,0.0,0.0,763
612,1696242814904,-0.14550781,-0.14257812,0.9980469,-0.6875,0.15625,0.21875,0.0,0.0,0.0,764
613,1696242814944,-0.13671875,-0.1484375,0.9902344,0.125,0.15625,0.0625,0.0,0.0,0.0,765
614,1696242814984,-0.13476562,-0.140625,1.0029297,-0.125,0.03125,-0.0625,0.0,0.0,0.0,766
615,1696242815024,-0.13769531,-0.15136719,1.0019531,-0.125,0.03125,-0.25,0.0,0.0,0.0,767
616,1696242815064,-0.13183594,-0.1484375,0.984375,-0.1875,-0.15625,0.0,0.0,0.0,0.0,768
617,1696242815104,-0.13574219,-0.14355469,0.99316406,-0.375,-0.09375,0.21875,0.0,0.0,0.0,769
618,1696242815144,-0.14453125,-0.14941406,0.9873047,0.0,-0.03125,-0.0625,0.0,0.0,0.0,770
619,1696242815184,-0.13867188,-0.15039062,0.9941406,-0.0625,0.09375,-0.125,0.0,0.0,0.0,771
620,1696242815224,-0.13183594,-0.14941406,0.99121094,-0.1875,-0.09375,0.0,0.0,0.0,0.0,772
621,1696242815264,-0.14746094,-0.14355469,0.9980469,-0.1875,-0.03125,0.0,-66.0,-3.125,-29.4375,773
622,1696242815304,-0.1328125,-0.14746094,0.9980469,-0.25,-0.03125,0.0,0.0,0.0,0.0,774
623,1696242815344,-0.13769531,-0.14257812,0.98046875,-0.4375,-0.09375,0.1875,0.0,0.0,0.0,775
624,1696242815384,-0.13378906,-0.14355469,0.9902344,-0.125,0.09375,-0.1875,0.0,0.0,0.0,776
625,1696242815424,-0.13378906,-0.15625,0.98828125,0.1875,-0.03125,-0.125,0.0,0.0,0.0,777
626,1696242815464,-0.13769531,-0.14648438,0.9863281,-0.625,-0.03125,0.0625,0.0,0.0,0.0,778
627,1696242815504,-0.13671875,-0.14746094,0.99121094,0.0,-0.03125,-0.125,0.0,0.0,0.0,779
628,1696242815544,-0.13964844,-0.1484375,0.99121094,0.0,0.09375,0.0,0.0,0.0,0.0,780
629,1696242815584,-0.13574219,-0.14550781,0.9892578,-0.1875,-0.03125,-0.0625,0.0,0.0,0.0,781
630,1696242815624,-0.13183594,-0.1484375,0.984375,0.125,-0.03125,-0.0625,0.0,0.0,0.0,782
631,1696242815664,-0.1328125,-0.13867188,0.9951172,-0.3125,0.09375,0.0625,0.0,0.0,0.0,783
632,1696242815704,-0.14453125,-0.14941406,0.9824219,0.25,0.21875,0.125,0.0,0.0,0.0,784
633,1696242815744,-0.13867188,-0.14648438,0.9921875,0.59375,0.15625,-0.1875,0.0,0.0,0.0,785
634,1696242815784,-0.14160156,-0.1484375,0.9921875,0.1875,0.15625,-0.0625,-67.375,-3.875,-29.4375,786
635,1696242815824,-0.13964844,-0.15039062,0.9980469,0.1875,-0.09375,-0.0625,0.0,0.0,0.0,787
636,1696242815864,-0.14648438,-0.14941406,1.0,0.3125,-0.21875,0.0625,0.0,0.0,0.0,788
637,1696242815904,-0.13867188,-0.14941406,1.0009766,0.25,-0.03125,0.0625,0.0,0.0,0.0,789
638,1696242815944,-0.13378906,-0.13671875,0.9941406,0.25,0.03125,-0.125,0.0,0.0,0.0,790
639,1696242815984,-0.13867188,-0.15332031,0.984375,0.65625,0.03125,-0.3125,0.0,0.0,0.0,791
640,1696242816024,-0.14453125,-0.14550781,0.98828125,0.125,-0.03125,0.1875,0.0,0.0,0.0,792
641,1696242816064,-0.13378906,-0.13867188,0.99121094,0.59375,0.15625,0.0,0.0,0.0,0.0,793
642,1696242816104,-0.13671875,-0.13964844,1.0009766,0.0625,0.15625,0.1875,0.0,0.0,0.0,794
643,1696242816144,-0.1328125,-0.14355469,0.9970703,0.3125,-0.03125,0.0,0.0,0.0,0.0,795
644,1696242816184,-0.14160156,-0.13476562,0.9873047,0.1875,-0.03125,0.0625,0.0,0.0,0.0,796
645,1696242816224,-0.13964844,-0.13964844,0.9824219,0.1875,-0.09375,-0.0625,0.0,0.0,0.0,797
646,1696242816264,-0.12792969,-0.13769531,1.0048828,-0.0625,0.09375,-0.125,-66.3125,-3.875,-29.4375,798
647,1696242816304,-0.140625,-0.1484375,0.98535156,0.1875,0.09375,-0.0625,0.0,0.0,0.0,799
648,1696242816344,-0.13378906,-0.14550781,0.9941406,0.3125,0.28125,0.0625,0.0,0.0,0.0,800
649,1696242816384,-0.14746094,-0.13964844,1.0009766,0.0,0.15625,-0.1875,0.0,0.0,0.0,801
650,1696242816424,-0.13769531,-0.13867188,1.0019531,-0.09375,-0.0625,-0.0625,0.0,0.0,0.0,802
651,1696242816464,-0.14453125,-0.14160156,0.98046875,-0.03125,-0.125,0.3125,0.0,0.0,0.0,803
652,1696242816504,-0.13867188,-0.140625,0.99121094,0.03125,0.0625,0.0,0.0,0.0,0.0,804
653,1696242816544,-0.14257812,-0.14550781,0.9824219,-0.03125,0.21875,-0.0625,0.0,0.0,0.0,805
654,1696242816584,-0.13769531,-0.13476562,0.9873047,0.15625,0.0,-0.21875,0.0,0.0,0.0,806
655,1696242816624,-0.14257812,-0.14160156,0.99316406,-0.28125,-0.0625,-0.0625,0.0,0.0,0.0,807
656,1696242816664,-0.14257812,-0.13378906,0.98046875,-0.09375,0.0625,0.0625,0.0,0.0,0.0,808
657,1696242816704,-0.14746094,-0.13769531,1.0019531,-0.46875,-0.1875,0.0625,0.0,0.0,0.0,809
658,1696242816744,-0.13769531,-0.140625,0.9951172,-0.46875,-0.125,0.0,0.0,0.0,0.0,810
659,1696242816784,-0.140625,-0.14941406,0.99316406,-0.15625,0.0,0.0625,-66.125,-3.25,-29.0,811
660,1696242816824,-0.13867188,-0.14453125,0.9873047,-0.53125,-0.0625,0.0625,0.0,0.0,0.0,812
661,1696242816864,-0.14453125,-0.13671875,1.0048828,-0.65625,-0.0625,-0.0625,0.0,0.0,0.0,813
662,1696242816904,-0.14941406,-0.14355469,0.9970703,-0.40625,-0.1875,0.1875,0.0,0.0,0.0,814
663,1696242816944,-0.13671875,-0.13867188,0.9902344,-0.28125,-0.0625,0.125,0.0,0.0,0.0,815
664,1696242816984,-0.140625,-0.13378906,0.9970703,-0.59375,0.0,0.1875,0.0,0.0,0.0,816
665,1696242817024,-0.14453125,-0.14453125,0.98339844,-0.40625,-0.0625,-0.125,0.0,0.0,0.0,817
666,1696242817064,-0.13964844,-0.14257812,1.0029297,-0.34375,-0.0625,-0.0625,0.0,0.0,0.0,818
667,1696242817104,-0.13769531,-0.13867188,0.9863281,-0.875,-0.125,-0.0625,0.0,0.0,0.0,819
668,1696242817144,-0.14257812,-0.14550781,0.9892578,-0.03125,-0.0625,0.0625,0.0,0.0,0.0,820
669,1696242817184,-0.13964844,-0.13867188,0.9921875,-0.875,-0.0625,0.0625,0.0,0.0,0.0,821
670,1696242817224,-0.13574219,-0.14746094,0.99609375,-0.53125,-0.0625,0.0625,0.0,0.0,0.0,822
671,1696242817264,-0.14160156,-0.14941406,0.9941406,-0.28125,-0.125,0.25,-65.125,-2.9375,-29.625,823
672,1696242817304,-0.13769531,-0.13476562,1.0,-0.46875,0.0,-0.21875,0.0,0.0,0.0,824
673,1696242817344,-0.14746094,-0.13867188,0.9941406,-0.28125,-0.0625,-0.1875,0.0,0.0,0.0,825
674,1696242817384,-0.14550781,-0.13671875,0.9863281,-0.28125,-0.25,0.125,0.0,0.0,0.0,826
675,1696242817424,-0.14355469,-0.14453125,0.9951172,-0.71875,-0.25,0.25,0.0,0.0,0.0,827
676,1696242817464,-0.13085938,-0.14550781,0.9921875,-0.59375,-0.0625,0.0,0.0,0.0,0.0,828
677,1696242817504,-0.13671875,-0.14746094,0.99121094,0.03125,0.0625,-0.125,0.0,0.0,0.0,829
678,1696242817544,-0.14550781,-0.14355469,0.9921875,-0.53125,0.0,-0.21875,0.0,0.0,0.0,830
679,1696242817584,-0.13574219,-0.14160156,0.99902344,0.03125,0.0625,-0.0625,0.0,0.0,0.0,831
680,1696242817624,-0.13769531,-0.13964844,0.9785156,-0.59375,-0.125,0.1875,0.0,0.0,0.0,832
681,1696242817664,-0.13671875,-0.1484375,1.0009766,-0.46875,-0.125,0.3125,0.0,0.0,0.0,833
682,1696242817704,-0.13574219,-0.1484375,0.99902344,-0.28125,-0.0625,0.1875,0.0,0.0,0.0,834
683,1696242817744,-0.14355469,-0.15039062,0.9941406,-0.875,-0.125,-0.0625,0.0,0.0,0.0,835
684,1696242817784,-0.14355469,-0.14257812,1.0,-0.40625,-0.125,-0.1875,-66.625,-5.1875,-28.125,836
685,1696242817824,-0.12695312,-0.14648438,1.0048828,0.03125,0.0625,0.0625,0.0,0.0,0.0,837
686,1696242817864,-0.1328125,-0.13964844,0.9873047,-0.46875,-0.125,-0.0625,0.0,0.0,0.0,838
687,1696242817904,-0.140625,-0.14550781,0.9892578,-0.34375,-0.1875,-0.125,0.0,0.0,0.0,839
688,1696242817944,-0.140625,-0.14746094,1.0009766,-0.03125,0.0,0.125,0.0,0.0,0.0,840
689,1696242817984,-0.14355469,-0.15039062,0.99121094,-0.59375,-0.0625,0.0625,0.0,0.0,0.0,841
690,1696242818024,-0.13769531,-0.14453125,0.99609375,-0.59375,0.0,0.0625,0.0,0.0,0.0,842
691,1696242818064,-0.14355469,-0.14453125,0.9873047,-0.21875,0.21875,0.1875,0.0,0.0,0.0,843
692,1696242818104,-0.14160156,-0.14648438,0.99609375,-0.53125,-0.125,0.0,0.0,0.0,0.0,844
693,1696242818144,-0.13671875,-0.14550781,1.0,-0.03125,0.09375,-0.125,0.0,0.0,0.0,845
694,1696242818184,-0.13671875,-0.14355469,0.984375,-0.21875,-0.125,-0.125,0.0,0.0,0.0,846
695,1696242818224,-0.14550781,-0.14257812,0.9892578,-0.65625,-0.3125,-0.0625,0.0,0.0,0.0,847
696,1696242818264,-0.13574219,-0.14355469,0.9921875,0.03125,-0.1875,0.25,-67.0625,-3.4375,-29.1875,848
697,1696242818304,-0.14160156,-0.14648438,0.9980469,-0.28125,-0.1875,0.0,0.0,0.0,0.0,849
698,1696242818344,-0.14257812,-0.13867188,0.99121094,-0.28125,-0.0625,-0.125,0.0,0.0,0.0,850
699,1696242818384,-0.140625,-0.14257812,1.0039062,-0.21875,0.0625,0.125,0.0,0.0,0.0,851
700,1696242818424,-0.13574219,-0.14355469,0.9951172,-0.40625,-0.0625,0.0,0.0,0.0,0.0,852
701,1696242818464,-0.13574219,-0.14746094,0.9892578,-0.09375,0.0,0.125,0.0,0.0,0.0,853
702,1696242818504,-0.13769531,-0.14355469,1.0,-0.46875,0.0,0.1875,0.0,0.0,0.0,854
703,1696242818544,-0.13671875,-0.14453125,0.98535156,-0.21875,0.0625,-0.1875,0.0,0.0,0.0,855
704,1696242818584,-0.13476562,-0.14550781,0.9902344,-0.15625,0.0,0.0625,0.0,0.0,0.0,856
705,1696242818624,-0.14355469,-0.15039062,0.99121094,-0.21875,0.0625,-0.125,0.0,0.0,0.0,857
706,1696242818664,-0.13964844,-0.14355469,1.0009766,-0.21875,0.0,0.0,0.0,0.0,0.0,858
707,1696242818704,-0.14160156,-0.15722656,0.9921875,-0.21875,0.0,0.1875,0.0,0.0,0.0,859
708,1696242818744,-0.140625,-0.14941406,0.9941406,-0.46875,-0.0625,0.0,0.0,0.0,0.0,860
709,1696242818784,-0.13867188,-0.14941406,0.9921875,0.15625,0.0625,-0.0625,-66.0,-2.6875,-29.75,861
710,1696242818824,-0.140625,-0.14550781,0.99316406,-0.21875,0.0625,0.0,0.0,0.0,0.0,862
711,1696242818864,-0.14257812,-0.140625,0.98339844,-0.28125,0.0,0.0625,0.0,0.0,0.0,863
712,1696242818904,-0.1484375,-0.1484375,0.98828125,-0.28125,-0.0625,0.125,0.0,0.0,0.0,864
713,1696242818944,-0.13476562,-0.14746094,0.9980469,-0.28125,0.0625,0.0625,0.0,0.0,0.0,865
714,1696242818984,-0.13183594,-0.14648438,0.9941406,0.15625,0.0625,-0.21875,0.0,0.0,0.0,866
715,1696242819024,-0.14160156,-0.15527344,1.0009766,0.09375,0.0625,-0.1875,0.0,0.0,0.0,867
716,1696242819064,-0.14453125,-0.140625,0.9746094,0.53125,0.0,-0.25,0.0,0.0,0.0,868
717,1696242819104,-0.13964844,-0.15039062,1.0009766,-0.0625,-0.125,0.0,0.0,0.0,0.0,869
718,1696242819144,-0.13769531,-0.15332031,0.9794922,0.0625,0.0,0.15625,0.0,0.0,0.0,870
719,1696242819184,-0.13378906,-0.15722656,0.9863281,0.59375,-0.125,0.03125,0.0,0.0,0.0,871
720,1696242819224,-0.13183594,-0.14550781,0.9921875,-0.0625,-0.0625,-0.4375,0.0,0.0,0.0,872
721,1696242819264,-0.13769531,-0.14160156,0.9980469,0.1875,-0.0625,-0.1875,-66.3125,-4.1875,-29.1875,873
722,1696242819304,-0.14160156,-0.13867188,0.9970703,0.71875,-0.25,0.03125,0.0,0.0,0.0,874
723,1696242819344,-0.14160156,-0.13574219,0.99121094,0.0625,0.0625,0.0,0.0,0.0,0.0,875
724,1696242819384,-0.13574219,-0.14160156,1.0009766,0.21875,0.0,0.03125,0.0,0.0,0.0,876
725,1696242819424,-0.13378906,-0.14257812,0.9921875,0.46875,-0.0625,-0.0625,0.0,0.0,0.0,877
726,1696242819464,-0.13671875,-0.14355469,0.9902344,0.125,0.125,-0.0625,0.0,0.0,0.0,878
727,1696242819504,-0.13574219,-0.140625,0.9951172,0.84375,0.1875,-0.0625,0.0,0.0,0.0,879
728,1696242819544,-0.13867188,-0.14257812,0.97558594,0.40625,0.0625,-0.125,0.0,0.0,0.0,880
729,1696242819584,-0.14648438,-0.13769531,1.0029297,-0.0625,-0.1875,-0.0625,0.0,0.0,0.0,881
730,1696242819624,-0.14257812,-0.14257812,1.0019531,0.71875,0.125,-0.0625,0.0,0.0,0.0,882
731,1696242819664,-0.13769531,-0.14355469,1.0009766,0.0,-0.0625,-0.125,0.0,0.0,0.0,883
732,1696242819704,-0.13769531,-0.14550781,0.9941406,0.0625,0.0,0.03125,0.0,0.0,0.0,884
733,1696242819744,-0.12988281,-0.13671875,0.99609375,0.28125,-0.125,0.0,0.0,0.0,0.0,885
734,1696242819784,-0.13867188,-0.14746094,0.9892578,-0.1875,0.0625,0.0,-66.625,-2.375,-29.1875,886
735,1696242819824,-0.12890625,-0.140625,1.0,0.0625,0.0625,0.0,0.0,0.0,0.0,887
736,1696242819864,-0.14746094,-0.14550781,0.99609375,0.0625,0.1875,0.28125,0.0,0.0,0.0,888
737,1696242819904,-0.140625,-0.15136719,0.984375,0.0,0.125,-0.125,0.0,0.0,0.0,889
738,1696242819944,-0.13964844,-0.140625,0.9814453,-0.1875,-0.125,0.03125,0.0,0.0,0.0,890
739,1696242819984,-0.13769531,-0.14453125,0.98828125,-0.0625,-0.0625,-0.1875,0.0,0.0,0.0,891
740,1696242820024,-0.14160156,-0.13867188,0.99902344,-0.5625,-0.125,0.03125,0.0,0.0,0.0,892
741,1696242820064,-0.12988281,-0.1484375,0.9921875,-0.375,-0.125,0.09375,0.0,0.0,0.0,893
742,1696242820104,-0.1328125,-0.14257812,0.9941406,-0.0625,-0.0625,0.09375,0.0,0.0,0.0,894
743,1696242820144,-0.14355469,-0.14550781,0.984375,-0.125,-0.0625,-0.0625,0.0,0.0,0.0,895
744,1696242820184,-0.14746094,-0.14746094,1.0039062,-0.0625,-0.125,-0.0625,0.0,0.0,0.0,896
745,1696242820224,-0.14550781,-0.14648438,0.98828125,-0.0625,-0.25,0.03125,0.0,0.0,0.0,897
746,1696242820264,-0.14550781,-0.14746094,0.9921875,-0.375,-0.125,0.0,-67.0625,-3.125,-29.4375,898
747,1696242820304,-0.13769531,-0.14160156,1.0029297,-0.125,-0.0625,0.03125,0.0,0.0,0.0,899
748,1696242820344,-0.13769531,-0.14648438,0.9873047,-0.0625,-0.0625,0.03125,0.0,0.0,0.0,900
749,1696242820384,-0.13671875,-0.14550781,1.0019531,-0.25,-0.125,0.03125,0.0,0.0,0.0,901
750,1696242820424,-0.13671875,-0.13671875,1.0009766,-0.125,0.0,-0.1875,0.0,0.0,0.0,902
751,1696242820464,-0.13574219,-0.14355469,0.9970703,-0.5,-0.125,0.0,0.0,0.0,0.0,903
752,1696242820504,-0.14648438,-0.14355469,0.98535156,-0.5,-0.0625,0.15625,0.0,0.0,0.0,904
753,1696242820544,-0.14550781,-0.140625,1.0039062,-0.25,-0.0625,-0.125,0.0,0.0,0.0,905
754,1696242820584,-0.13574219,-0.14355469,1.0009766,0.0,0.0625,-0.125,0.0,0.0,0.0,906
755,1696242820624,-0.14160156,-0.14746094,0.9921875,0.0,-0.125,0.03125,0.0,0.0,0.0,907
756,1696242820664,-0.13867188,-0.13867188,0.9951172,0.0625,0.0625,0.0,0.0,0.0,0.0,908
757,1696242820704,-0.13671875,-0.15136719,0.9970703,0.1875,-0.25,-0.0625,0.0,0.0,0.0,909
758,1696242820744,-0.13476562,-0.15136719,1.0029297,-0.25,-0.0625,0.21875,0.0,0.0,0.0,910
759,1696242820784,-0.13574219,-0.14550781,0.98828125,0.21875,0.0625,-0.125,-67.1875,-2.9375,-29.0,911
