# Sensor type: Thingy
# Activity type: Lying down right
# Activity subtype: Normal
# Subject id: s2104454
# Notes: unprocessed
timestamp,accel_x,accel_y,accel_z,gyro_x,gyro_y,gyro_z,mag_x,mag_y,mag_z
1696242953681,0.037109375,-0.98828125,0.12988281,-1.0625,-0.21875,0.0625,0.0,0.0,0.0
1696242953711,0.046875,-0.9892578,0.14160156,-0.75,-0.28125,-0.1875,0.0,0.0,0.0
1696242953741,0.040039062,-0.98339844,0.12207031,-0.21875,-0.53125,-0.25,0.0,0.0,0.0
1696242953803,0.05078125,-0.9902344,0.125,-0.40625,0.03125,-0.4375,0.0,0.0,0.0
1696242953835,0.037109375,-0.9980469,0.13769531,-0.40625,-0.03125,-0.125,0.0,0.0,0.0
1696242953864,0.045898438,-1.0087891,0.13769531,0.65625,-0.15625,0.0625,0.0,0.0,0.0
1696242953923,0.044921875,-1.0117188,0.13769531,1.8125,-0.09375,0.0625,-50.25,-37.0,-63.375
1696242953953,0.03125,-0.9863281,0.12597656,0.8125,-0.15625,0.1875,0.0,0.0,0.0
1696242953983,0.032226562,-0.9951172,0.12597656,1.125,-0.03125,0.1875,0.0,0.0,0.0
1696242954044,0.0390625,-0.9921875,0.140625,1.5,-0.09375,-0.125,0.0,0.0,0.0
1696242954073,0.044921875,-1.0009766,0.1484375,2.09375,-0.03125,-0.5625,0.0,0.0,0.0
1696242954103,0.051757812,-0.99609375,0.15527344,1.5,-0.21875,-0.8125,0.0,0.0,0.0
1696242954164,0.05078125,-0.99609375,0.14355469,1.125,-0.28125,-0.75,0.0,0.0,0.0
1696242954194,0.046875,-1.0,0.14648438,0.65625,-0.28125,-0.25,0.0,0.0,0.0
1696242954224,0.043945312,-1.0097656,0.140625,-0.21875,-0.34375,-0.125,0.0,0.0,0.0
1696242954281,0.041015625,-1.0019531,0.14355469,0.46875,-0.46875,0.25,0.0,0.0,0.0
1696242954310,0.044921875,-1.0019531,0.14648438,1.5625,-0.46875,0.1875,0.0,0.0,0.0
1696242954341,0.041992188,-0.98828125,0.14355469,-0.46875,-0.21875,-0.125,0.0,0.0,0.0
1696242954402,0.053710938,-0.98339844,0.13964844,-0.6875,-0.34375,-0.1875,-49.8125,-37.75,-61.5625
1696242954431,0.049804688,-1.0019531,0.12695312,-0.8125,-0.34375,-0.25,0.0,0.0,0.0
1696242954463,0.049804688,-0.99609375,0.14941406,-0.03125,-0.21875,-0.1875,0.0,0.0,0.0
1696242954525,0.04296875,-1.0048828,0.13671875,0.9375,-0.28125,-0.3125,0.0,0.0,0.0
1696242954552,0.045898438,-0.99121094,0.13769531,0.46875,-0.46875,-0.25,0.0,0.0,0.0
1696242954589,0.043945312,-1.0048828,0.14648438,0.46875,-0.40625,-0.0625,0.0,0.0,0.0
1696242954643,0.041015625,-0.9902344,0.14453125,0.28125,-0.09375,-0.125,0.0,0.0,0.0
1696242954672,0.046875,-0.99316406,0.14550781,0.53125,-0.15625,-0.375,0.0,0.0,0.0
1696242954703,0.051757812,-0.9873047,0.14746094,-0.40625,-0.09375,-0.625,0.0,0.0,0.0
1696242954764,0.047851562,-0.9941406,0.1484375,-1.25,-0.09375,-0.25,0.0,0.0,0.0
1696242954794,0.045898438,-0.99902344,0.14257812,-0.28125,-0.03125,0.0625,0.0,0.0,0.0
1696242954822,0.040039062,-0.9921875,0.15136719,0.46875,-0.09375,0.0,0.0,0.0,0.0
1696242954886,0.043945312,-0.9941406,0.14257812,0.65625,-0.28125,0.25,0.0,0.0,0.0
1696242954912,0.051757812,-0.9980469,0.13378906,0.40625,-0.09375,0.0,-50.125,-37.3125,-61.6875
1696242954943,0.041992188,-0.9921875,0.13574219,-0.9375,0.15625,-0.375,0.0,0.0,0.0
1696242955003,0.046875,-0.9951172,0.14257812,-0.5,-0.03125,-0.3125,0.0,0.0,0.0
1696242955032,0.040039062,-0.9902344,0.12109375,-0.34375,-0.09375,-0.5625,0.0,0.0,0.0
1696242955064,0.041015625,-0.9970703,0.13769531,-0.28125,-0.15625,-0.0625,0.0,0.0,0.0
1696242955124,0.040039062,-0.9902344,0.14746094,-0.34375,-0.28125,-0.0625,0.0,0.0,0.0
1696242955152,0.051757812,-0.9980469,0.15039062,0.28125,-0.15625,0.1875,0.0,0.0,0.0
1696242955183,0.047851562,-0.99902344,0.14550781,0.59375,-0.03125,-0.0625,0.0,0.0,0.0
1696242955245,0.044921875,-0.98828125,0.140625,0.21875,0.03125,-0.25,0.0,0.0,0.0
1696242955273,0.038085938,-0.9921875,0.140625,-0.625,-0.03125,-0.25,0.0,0.0,0.0
1696242955303,0.05078125,-0.9902344,0.1328125,-0.5625,0.03125,-0.375,0.0,0.0,0.0
1696242955364,0.043945312,-0.9941406,0.13671875,-0.40625,-0.03125,-0.125,0.0,0.0,0.0
1696242955393,0.043945312,-0.9941406,0.15722656,-0.625,-0.15625,-0.1875,-49.8125,-37.4375,-62.3125
1696242955423,0.047851562,-0.99609375,0.13964844,-0.09375,-0.15625,0.0,0.0,0.0,0.0
1696242955487,0.051757812,-0.9902344,0.14160156,0.15625,0.03125,0.0625,0.0,0.0,0.0
1696242955513,0.046875,-0.99609375,0.13769531,-0.09375,-0.03125,0.0625,0.0,0.0,0.0
1696242955544,0.04296875,-1.0048828,0.13574219,0.46875,0.15625,-0.1875,0.0,0.0,0.0
1696242955605,0.043945312,-0.9980469,0.14453125,-0.5625,0.15625,-0.125,0.0,0.0,0.0
1696242955668,0.041015625,-0.99121094,0.13867188,-0.5,0.15625,-0.1875,0.0,0.0,0.0
1696242955671,0.047851562,-1.0,0.13574219,-0.5,0.03125,-0.25,0.0,0.0,0.0
1696242955721,0.052734375,-0.98828125,0.1171875,-0.15625,-0.15625,0.1875,0.0,0.0,0.0
1696242955757,0.043945312,-0.9970703,0.13378906,0.09375,-0.03125,0.0625,0.0,0.0,0.0
1696242955782,0.04296875,-0.99609375,0.14453125,0.40625,-0.28125,-0.125,0.0,0.0,0.0
1696242955842,0.037109375,-0.9951172,0.14355469,0.53125,0.03125,-0.0625,0.0,0.0,0.0
1696242955872,0.053710938,-0.9921875,0.14941406,0.46875,0.09375,-0.0625,0.0,0.0,0.0
1696242955933,0.05078125,-0.99316406,0.13085938,0.40625,0.03125,-0.3125,-51.4375,-38.6875,-62.125
1696242955973,0.044921875,-0.98828125,0.14355469,0.03125,0.03125,-0.0625,0.0,0.0,0.0
1696242956023,0.047851562,-0.984375,0.1484375,-0.34375,0.03125,-0.0625,0.0,0.0,0.0
1696242956028,0.044921875,-0.9980469,0.13378906,-0.21875,-0.09375,0.0,0.0,0.0,0.0
1696242956084,0.05078125,-0.99316406,0.1484375,-0.40625,-0.09375,0.0625,0.0,0.0,0.0
1696242956113,0.049804688,-1.0019531,0.12695312,-0.09375,-0.09375,0.0,0.0,0.0,0.0
1696242956142,0.05078125,-0.9980469,0.12597656,-0.09375,0.03125,-0.1875,0.0,0.0,0.0
1696242956204,0.049804688,-0.9951172,0.14257812,0.03125,-0.03125,0.0,0.0,0.0,0.0
1696242956234,0.045898438,-0.9970703,0.1484375,-0.03125,0.21875,-0.0625,0.0,0.0,0.0
1696242956265,0.052734375,-0.98828125,0.13769531,-0.15625,0.03125,-0.1875,0.0,0.0,0.0
1696242956358,0.049804688,-0.9941406,0.13574219,-0.46875,-0.09375,-0.1875,0.0,0.0,0.0
1696242956366,0.047851562,-0.9892578,0.13769531,0.03125,-0.15625,-0.0625,0.0,0.0,0.0
1696242956381,0.04296875,-1.0,0.13476562,0.21875,-0.03125,0.0,-51.0,-38.1875,-62.625
1696242956442,0.049804688,-0.9902344,0.13964844,0.28125,-0.15625,-0.0625,0.0,0.0,0.0
1696242956473,0.041015625,-0.99316406,0.13574219,0.34375,-0.09375,-0.0625,0.0,0.0,0.0
1696242956501,0.045898438,-0.9873047,0.14257812,0.71875,-0.09375,-0.1875,0.0,0.0,0.0
1696242956561,0.047851562,-0.9970703,0.13183594,1.3125,-0.34375,-0.25,0.0,0.0,0.0
1696242956591,0.044921875,-0.9970703,0.13183594,0.9375,-0.15625,-0.125,0.0,0.0,0.0
1696242956623,0.046875,-0.9941406,0.12988281,0.65625,0.03125,-0.1875,0.0,0.0,0.0
1696242956684,0.051757812,-0.9863281,0.13671875,0.34375,-0.03125,-0.1875,0.0,0.0,0.0
1696242956744,0.045898438,-0.9921875,0.15039062,-0.15625,-0.09375,-0.125,0.0,0.0,0.0
1696242956748,0.040039062,-1.0009766,0.13964844,-0.625,-0.15625,0.0,0.0,0.0,0.0
1696242956803,0.05078125,-0.99609375,0.140625,-0.5625,0.03125,-0.25,0.0,0.0,0.0
1696242956834,0.045898438,-0.9951172,0.13378906,-0.03125,0.03125,-0.0625,0.0,0.0,0.0
1696242956863,0.043945312,-0.99316406,0.14453125,0.28125,0.15625,0.125,0.0,0.0,0.0
1696242956923,0.049804688,-0.9902344,0.13671875,-0.09375,-0.09375,-0.1875,-50.25,-36.4375,-61.25
1696242956955,0.046875,-0.99609375,0.12792969,-0.6875,-0.09375,0.0625,0.0,0.0,0.0
1696242956984,0.047851562,-1.0009766,0.13574219,-0.09375,0.03125,0.125,0.0,0.0,0.0
1696242957044,0.037109375,-0.99609375,0.13378906,-0.09375,-0.09375,0.125,0.0,0.0,0.0
1696242957072,0.046875,-0.9941406,0.12988281,0.46875,-0.15625,0.125,0.0,0.0,0.0
1696242957103,0.049804688,-1.0,0.13671875,0.34375,0.09375,0.0625,0.0,0.0,0.0
1696242957161,0.043945312,-0.9970703,0.125,0.15625,-0.09375,0.0,0.0,0.0,0.0
1696242957192,0.04296875,-0.99609375,0.14160156,0.46875,0.09375,-0.1875,0.0,0.0,0.0
1696242957221,0.046875,-1.0,0.15136719,1.0625,0.09375,-0.25,0.0,0.0,0.0
1696242957282,0.049804688,-0.9892578,0.1328125,0.46875,-0.03125,-0.125,0.0,0.0,0.0
1696242957312,0.053710938,-0.99902344,0.13769531,0.53125,-0.09375,0.0,0.0,0.0,0.0
1696242957345,0.041015625,-0.99121094,0.14355469,0.46875,-0.34375,-0.125,0.0,0.0,0.0
1696242957404,0.037109375,-0.9902344,0.14453125,0.65625,-0.15625,0.0625,-49.375,-38.6875,-61.375
1696242957437,0.04296875,-0.99902344,0.15722656,0.71875,-0.15625,-0.0625,0.0,0.0,0.0
1696242957463,0.044921875,-0.99609375,0.13476562,0.59375,-0.09375,-0.25,0.0,0.0,0.0
1696242957524,0.05078125,-1.0,0.14550781,1.375,-0.28125,0.0,0.0,0.0,0.0
1696242957552,0.05078125,-0.9941406,0.15527344,0.71875,0.15625,-0.1875,0.0,0.0,0.0
1696242957584,0.047851562,-0.9863281,0.13867188,-0.03125,-0.09375,-0.25,0.0,0.0,0.0
1696242957644,0.043945312,-0.9970703,0.14453125,-0.21875,-0.28125,0.0,0.0,0.0,0.0
1696242957673,0.052734375,-0.9902344,0.14648438,-0.03125,-0.15625,0.125,0.0,0.0,0.0
1696242957702,0.043945312,-0.99316406,0.15136719,0.40625,-0.15625,0.25,0.0,0.0,0.0
1696242957763,0.04296875,-0.9902344,0.14160156,0.59375,-0.28125,0.0,0.0,0.0,0.0
1696242957795,0.041992188,-0.99316406,0.14746094,0.8125,-0.15625,0.125,0.0,0.0,0.0
1696242957851,0.04296875,-0.9892578,0.15136719,0.53125,-0.03125,-0.125,0.0,0.0,0.0
1696242957889,0.0390625,-0.9941406,0.14941406,0.28125,-0.15625,-0.0625,0.0,0.0,0.0
1696242957944,0.04296875,-0.99609375,0.13964844,0.34375,-0.21875,-0.0625,-50.6875,-38.375,-62.125
1696242957948,0.047851562,-0.99121094,0.14355469,0.53125,-0.34375,-0.0625,0.0,0.0,0.0
1696242958003,0.052734375,-0.9902344,0.14550781,0.875,-0.34375,-0.125,0.0,0.0,0.0
1696242958033,0.045898438,-0.9921875,0.14257812,1.1875,-0.15625,-0.0625,0.0,0.0,0.0
1696242958067,0.047851562,-0.9921875,0.15625,0.875,-0.28125,0.0,0.0,0.0,0.0
1696242958123,0.056640625,-0.9863281,0.13574219,0.53125,-0.28125,0.125,0.0,0.0,0.0
1696242958152,0.038085938,-0.99609375,0.16210938,0.65625,-0.15625,0.125,0.0,0.0,0.0
1696242958183,0.038085938,-0.99316406,0.15527344,0.34375,0.03125,-0.125,0.0,0.0,0.0
1696242958243,0.047851562,-0.9951172,0.15820312,-0.5,-0.03125,-0.3125,0.0,0.0,0.0
1696242958273,0.052734375,-1.0009766,0.15527344,-0.46875,-0.15625,0.125,0.0,0.0,0.0
1696242958334,0.043945312,-0.9941406,0.140625,-0.28125,-0.03125,-0.125,0.0,0.0,0.0
1696242958364,0.047851562,-0.9951172,0.13964844,-0.15625,-0.15625,0.125,0.0,0.0,0.0
1696242958393,0.052734375,-0.9951172,0.14648438,-0.21875,-0.09375,0.0,-51.0,-37.75,-61.5625
1696242958424,0.044921875,-0.99902344,0.14941406,0.28125,0.09375,-0.125,0.0,0.0,0.0
1696242958485,0.052734375,-1.0009766,0.16015625,-0.28125,-0.09375,-0.1875,0.0,0.0,0.0
1696242958512,0.049804688,-0.9951172,0.140625,-0.28125,-0.09375,-0.1875,0.0,0.0,0.0
1696242958608,0.05078125,-0.99316406,0.16992188,-0.34375,0.03125,-0.3125,0.0,0.0,0.0
1696242958613,0.048828125,-0.9951172,0.14160156,-0.5625,-0.03125,-0.0625,0.0,0.0,0.0
1696242958630,0.041015625,-0.99121094,0.14257812,-0.40625,-0.03125,0.0,0.0,0.0,0.0
1696242958663,0.048828125,-0.9902344,0.14648438,-0.34375,-0.03125,-0.1875,0.0,0.0,0.0
1696242958722,0.053710938,-0.99316406,0.15625,0.03125,0.15625,-0.0625,0.0,0.0,0.0
1696242958752,0.04296875,-0.99902344,0.15234375,0.03125,-0.15625,-0.1875,0.0,0.0,0.0
1696242958785,0.049804688,-0.9941406,0.15527344,0.28125,0.03125,-0.1875,0.0,0.0,0.0
1696242958843,0.045898438,-0.99609375,0.14941406,0.65625,0.09375,0.0,0.0,0.0,0.0
1696242958872,0.052734375,-0.99316406,0.14257812,-0.21875,0.21875,-0.3125,0.0,0.0,0.0
1696242958933,0.052734375,-0.98339844,0.14355469,-0.5625,-0.09375,-0.125,-48.625,-38.6875,-60.625
1696242958963,0.046875,-0.9951172,0.14648438,-0.40625,0.03125,-0.3125,0.0,0.0,0.0
1696242958993,0.04296875,-0.9902344,0.14453125,0.09375,-0.03125,0.0625,0.0,0.0,0.0
1696242959023,0.0390625,-0.99316406,0.16308594,0.15625,0.03125,0.0,0.0,0.0,0.0
1696242959084,0.052734375,-0.9892578,0.14453125,0.34375,-0.15625,-0.0625,0.0,0.0,0.0
1696242959113,0.041015625,-0.98828125,0.15136719,0.21875,0.03125,0.0,0.0,0.0,0.0
1696242959143,0.05078125,-0.9873047,0.14257812,-0.09375,-0.28125,-0.125,0.0,0.0,0.0
1696242959203,0.053710938,-0.9980469,0.15136719,-0.28125,-0.21875,-0.375,0.0,0.0,0.0
1696242959231,0.048828125,-0.98828125,0.13867188,-1.5,-0.28125,-0.1875,0.0,0.0,0.0
1696242959262,0.045898438,-0.98828125,0.14257812,-0.8125,-0.28125,0.0,0.0,0.0,0.0
1696242959323,0.047851562,-0.9951172,0.140625,-1.1875,-0.28125,-0.0625,0.0,0.0,0.0
1696242959353,0.047851562,-0.98828125,0.16210938,-1.25,-0.28125,0.40625,0.0,0.0,0.0
1696242959413,0.05078125,-1.0,0.13671875,-1.1875,-0.34375,0.25,-50.25,-38.1875,-60.8125
1696242959442,0.047851562,-1.0039062,0.15039062,-1.1875,-0.15625,0.0,0.0,0.0,0.0
1696242959471,0.045898438,-0.99121094,0.12988281,-0.75,-0.15625,0.0625,0.0,0.0,0.0
1696242959536,0.049804688,-0.9970703,0.15917969,-0.46875,0.15625,-0.25,0.0,0.0,0.0
1696242959564,0.05078125,-0.9970703,0.13867188,-0.625,-0.03125,-0.3125,0.0,0.0,0.0
1696242959596,0.051757812,-0.99902344,0.13867188,-0.40625,-0.09375,-0.125,0.0,0.0,0.0
1696242959656,0.04296875,-1.0,0.1328125,-0.03125,-0.03125,-0.125,0.0,0.0,0.0
1696242959684,0.0546875,-1.0019531,0.14453125,0.28125,-0.15625,0.1875,0.0,0.0,0.0
1696242959714,0.047851562,-0.99609375,0.15136719,0.40625,-0.09375,0.125,0.0,0.0,0.0
1696242959774,0.045898438,-0.99121094,0.14550781,0.21875,-0.21875,0.0,0.0,0.0,0.0
1696242959803,0.053710938,-0.9980469,0.140625,0.28125,0.03125,0.0,0.0,0.0,0.0
1696242959834,0.049804688,-0.9892578,0.14257812,-0.15625,0.09375,-0.4375,0.0,0.0,0.0
1696242959895,0.056640625,-0.9892578,0.14648438,0.03125,0.03125,-0.3125,0.0,0.0,0.0
1696242959923,0.045898438,-0.99316406,0.14355469,-0.46875,-0.03125,-0.125,-50.375,-38.375,-62.4375
1696242959952,0.0546875,-0.99902344,0.13964844,-0.40625,0.03125,0.0,0.0,0.0,0.0
1696242960020,0.053710938,-0.9980469,0.123046875,-0.09375,-0.09375,-0.0625,0.0,0.0,0.0
1696242960070,0.05078125,-1.0,0.14648438,-0.03125,-0.03125,0.0625,0.0,0.0,0.0
1696242960075,0.051757812,-0.99121094,0.13574219,0.03125,-0.03125,0.125,0.0,0.0,0.0
1696242960135,0.043945312,-0.99609375,0.15136719,-0.09375,-0.03125,-0.1875,0.0,0.0,0.0
1696242960162,0.048828125,-0.9970703,0.14746094,-0.09375,-0.03125,-0.1875,0.0,0.0,0.0
1696242960227,0.04296875,-0.9863281,0.14355469,0.21875,0.09375,-0.0625,0.0,0.0,0.0
1696242960252,0.05078125,-1.0029297,0.13476562,0.15625,0.03125,-0.125,0.0,0.0,0.0
1696242960282,0.044921875,-0.9970703,0.14746094,0.34375,-0.09375,0.0625,0.0,0.0,0.0
1696242960312,0.044921875,-0.9941406,0.14355469,-0.09375,-0.03125,-0.1875,0.0,0.0,0.0
1696242960374,0.043945312,-0.9902344,0.13769531,0.09375,0.03125,-0.0625,0.0,0.0,0.0
1696242960404,0.0390625,-0.9902344,0.13769531,-0.625,-0.03125,-0.1875,-49.375,-38.6875,-61.375
1696242960436,0.045898438,-0.99609375,0.14648438,-0.34375,-0.15625,-0.0625,0.0,0.0,0.0
1696242960492,0.053710938,-0.9951172,0.13964844,0.15625,0.03125,0.125,0.0,0.0,0.0
1696242960527,0.052734375,-0.99121094,0.13085938,0.40625,-0.09375,0.25,0.0,0.0,0.0
1696242960554,0.046875,-0.9863281,0.14941406,0.53125,-0.03125,0.0625,0.0,0.0,0.0
1696242960616,0.052734375,-0.9873047,0.13476562,0.59375,-0.21875,-0.0625,0.0,0.0,0.0
1696242960643,0.047851562,-0.9980469,0.1484375,0.15625,-0.03125,-0.125,0.0,0.0,0.0
1696242960673,0.055664062,-0.99121094,0.14941406,0.21875,0.03125,0.0,0.0,0.0,0.0
1696242960735,0.0546875,-0.98828125,0.13671875,-0.40625,-0.09375,-0.0625,0.0,0.0,0.0
1696242960762,0.052734375,-0.99609375,0.15136719,-0.46875,-0.21875,0.125,0.0,0.0,0.0
1696242960794,0.040039062,-0.9970703,0.13183594,-0.03125,-0.09375,0.125,0.0,0.0,0.0
1696242960852,0.047851562,-0.9980469,0.12597656,0.40625,-0.15625,0.0625,0.0,0.0,0.0
1696242960883,0.046875,-0.9902344,0.14160156,0.21875,-0.03125,0.0625,0.0,0.0,0.0
1696242960943,0.05078125,-0.9892578,0.14550781,0.40625,-0.09375,0.1875,-51.125,-38.0625,-61.6875
1696242960973,0.052734375,-0.9902344,0.14550781,0.28125,-0.03125,0.0625,0.0,0.0,0.0
1696242961002,0.048828125,-0.99121094,0.13964844,-0.03125,0.03125,0.0625,0.0,0.0,0.0
1696242961034,0.046875,-0.99609375,0.15527344,0.03125,-0.03125,0.125,0.0,0.0,0.0
1696242961094,0.044921875,-0.9921875,0.13964844,0.34375,-0.09375,0.0625,0.0,0.0,0.0
1696242961122,0.044921875,-0.9921875,0.13867188,-0.09375,-0.21875,-0.125,0.0,0.0,0.0
1696242961154,0.046875,-0.9980469,0.14160156,0.65625,-0.21875,0.1875,0.0,0.0,0.0
1696242961213,0.045898438,-1.0019531,0.140625,-0.03125,0.03125,-0.0625,0.0,0.0,0.0
1696242961242,0.048828125,-1.0019531,0.13574219,0.40625,-0.03125,0.0625,0.0,0.0,0.0
1696242961274,0.047851562,-0.9951172,0.14941406,-0.21875,-0.09375,-0.0625,0.0,0.0,0.0
1696242961334,0.055664062,-0.9941406,0.14746094,-0.21875,-0.15625,0.375,0.0,0.0,0.0
1696242961363,0.0390625,-1.0009766,0.13378906,0.28125,-0.09375,0.3125,0.0,0.0,0.0
1696242961395,0.055664062,-0.9951172,0.15332031,0.46875,-0.28125,0.0,-49.8125,-37.75,-62.3125
1696242961451,0.047851562,-0.99316406,0.14746094,0.53125,-0.15625,0.1875,0.0,0.0,0.0
1696242961481,0.041015625,-0.9902344,0.13867188,0.21875,-0.09375,0.0625,0.0,0.0,0.0
1696242961512,0.046875,-0.9951172,0.14355469,0.21875,-0.03125,-0.0625,0.0,0.0,0.0
1696242961573,0.051757812,-1.0009766,0.14355469,0.15625,-0.09375,0.1875,0.0,0.0,0.0
1696242961604,0.043945312,-0.99316406,0.15039062,-0.09375,-0.03125,0.1875,0.0,0.0,0.0
1696242961633,0.053710938,-0.9980469,0.14746094,-0.03125,-0.15625,0.25,0.0,0.0,0.0
1696242961691,0.05078125,-0.9970703,0.14257812,0.03125,-0.03125,0.125,0.0,0.0,0.0
1696242961723,0.047851562,-0.99316406,0.13476562,0.40625,-0.09375,-0.125,0.0,0.0,0.0
1696242961754,0.051757812,-0.9941406,0.14257812,0.65625,0.03125,-0.125,0.0,0.0,0.0
1696242961813,0.048828125,-0.99121094,0.13671875,0.40625,0.03125,0.0,0.0,0.0,0.0
1696242961848,0.0546875,-0.99121094,0.15039062,0.40625,-0.15625,0.0625,0.0,0.0,0.0
1696242961872,0.049804688,-0.9941406,0.15136719,1.0,-0.15625,0.125,0.0,0.0,0.0
1696242961937,0.043945312,-0.99121094,0.14648438,0.71875,-0.15625,0.0,-49.375,-38.6875,-62.125
1696242961962,0.051757812,-0.9941406,0.15625,-0.5,-0.03125,-0.3125,0.0,0.0,0.0
1696242961992,0.052734375,-0.9951172,0.15332031,-0.15625,0.03125,-0.0625,0.0,0.0,0.0
1696242962055,0.046875,-0.9941406,0.15429688,-0.15625,-0.03125,-0.1875,0.0,0.0,0.0
1696242962082,0.047851562,-0.9941406,0.15234375,-0.8125,-0.03125,0.125,0.0,0.0,0.0
1696242962113,0.048828125,-0.9951172,0.13378906,-0.28125,-0.09375,0.0625,0.0,0.0,0.0
1696242962174,0.044921875,-1.0,0.140625,-0.21875,-0.03125,-0.125,0.0,0.0,0.0
1696242962203,0.04296875,-0.99316406,0.15625,0.09375,-0.09375,0.125,0.0,0.0,0.0
1696242962232,0.046875,-0.9921875,0.14746094,-0.03125,0.09375,-0.1875,0.0,0.0,0.0
1696242962292,0.049804688,-0.9814453,0.14746094,-0.21875,-0.03125,-0.125,0.0,0.0,0.0
1696242962320,0.04296875,-0.9951172,0.15136719,-0.625,0.03125,-0.0625,0.0,0.0,0.0
1696242962350,0.046875,-0.9941406,0.15917969,-0.21875,0.09375,-0.0625,0.0,0.0,0.0
1696242962416,0.04296875,-0.99316406,0.14257812,-0.03125,0.09375,-0.1875,-48.4375,-38.9375,-61.25
1696242962443,0.043945312,-0.9970703,0.15039062,-0.28125,-0.09375,-0.125,0.0,0.0,0.0
1696242962503,0.047851562,-1.0019531,0.14746094,-0.5,-0.09375,-0.0625,0.0,0.0,0.0
1696242962545,0.04296875,-0.9902344,0.13867188,0.03125,-0.15625,0.0625,0.0,0.0,0.0
1696242962562,0.045898438,-0.99609375,0.14550781,0.03125,-0.03125,-0.125,0.0,0.0,0.0
1696242962592,0.044921875,-0.9951172,0.14648438,0.09375,-0.03125,-0.0625,0.0,0.0,0.0
1696242962654,0.047851562,-0.9970703,0.14453125,0.21875,0.15625,0.0625,0.0,0.0,0.0
1696242962681,0.045898438,-0.98828125,0.15332031,-0.34375,0.03125,-0.375,0.0,0.0,0.0
1696242962712,0.045898438,-0.9951172,0.13574219,-0.34375,-0.03125,-0.1875,0.0,0.0,0.0
1696242962774,0.043945312,-0.99609375,0.140625,-0.5625,-0.15625,-0.3125,0.0,0.0,0.0
1696242962803,0.052734375,-0.9951172,0.15625,-0.625,-0.21875,0.0,0.0,0.0,0.0
1696242962833,0.048828125,-1.0029297,0.13867188,-0.34375,-0.09375,0.1875,0.0,0.0,0.0
1696242962894,0.047851562,-0.9951172,0.14160156,-0.28125,-0.09375,0.125,0.0,0.0,0.0
1696242962923,0.041992188,-0.9951172,0.14746094,0.40625,0.03125,-0.125,-48.75,-38.9375,-63.0625
1696242962952,0.046875,-0.9970703,0.15136719,0.40625,0.03125,-0.375,0.0,0.0,0.0
1696242963015,0.052734375,-1.0,0.14453125,0.28125,0.03125,-0.3125,0.0,0.0,0.0
1696242963041,0.043945312,-0.9921875,0.15136719,0.09375,-0.03125,-0.3125,0.0,0.0,0.0
1696242963071,0.053710938,-0.99316406,0.15234375,-0.09375,-0.09375,0.0625,0.0,0.0,0.0
1696242963132,0.049804688,-0.99316406,0.15136719,-0.15625,-0.09375,0.0625,0.0,0.0,0.0
1696242963162,0.048828125,-1.0009766,0.14355469,-0.40625,-0.03125,0.0625,0.0,0.0,0.0
1696242963194,0.05078125,-0.9980469,0.15332031,-0.03125,0.03125,0.0625,0.0,0.0,0.0
1696242963263,0.049804688,-0.9921875,0.14453125,-0.28125,-0.03125,0.0,0.0,0.0,0.0
1696242963282,0.045898438,-0.99316406,0.13671875,-0.15625,-0.09375,0.0,0.0,0.0,0.0
1696242963313,0.043945312,-0.9941406,0.14550781,0.03125,0.21875,-0.1875,0.0,0.0,0.0
1696242963373,0.052734375,-0.9902344,0.14257812,0.15625,0.09375,-0.25,0.0,0.0,0.0
1696242963402,0.048828125,-1.0019531,0.15039062,0.21875,-0.09375,-0.1875,-50.25,-38.9375,-62.625
1696242963433,0.040039062,-1.0009766,0.13671875,0.34375,0.09375,-0.0625,0.0,0.0,0.0
1696242963525,0.043945312,-0.9921875,0.14746094,-0.15625,0.03125,-0.1875,0.0,0.0,0.0
1696242963531,0.053710938,-0.9902344,0.13183594,-0.46875,-0.09375,-0.0625,0.0,0.0,0.0
1696242963551,0.056640625,-0.9970703,0.14648438,-0.15625,-0.03125,0.1875,0.0,0.0,0.0
1696242963644,0.046875,-0.9921875,0.13085938,-0.34375,-0.03125,-0.0625,0.0,0.0,0.0
1696242963648,0.047851562,-0.9941406,0.14355469,0.03125,-0.03125,0.25,0.0,0.0,0.0
1696242963672,0.045898438,-0.9902344,0.14160156,0.15625,0.15625,-0.0625,0.0,0.0,0.0
1696242963735,0.047851562,-1.0029297,0.14160156,0.53125,0.03125,-0.1875,0.0,0.0,0.0
1696242963761,0.045898438,-0.99902344,0.15332031,0.34375,0.03125,-0.375,0.0,0.0,0.0
1696242963792,0.052734375,-0.98828125,0.15332031,-0.03125,0.09375,-0.3125,0.0,0.0,0.0
1696242963854,0.045898438,-0.984375,0.14648438,-0.34375,0.03125,-0.3125,0.0,0.0,0.0
1696242963882,0.049804688,-0.98339844,0.14550781,-0.28125,-0.15625,-0.0625,0.0,0.0,0.0
1696242963912,0.0546875,-1.0009766,0.14453125,0.09375,0.03125,0.125,-48.75,-38.9375,-62.3125
1696242964009,0.045898438,-0.99121094,0.14941406,0.03125,-0.03125,-0.125,0.0,0.0,0.0
1696242964015,0.045898438,-1.0,0.15332031,0.21875,0.03125,0.0,0.0,0.0,0.0
1696242964032,0.047851562,-0.99902344,0.13964844,0.71875,-0.09375,-0.0625,0.0,0.0,0.0
1696242964126,0.053710938,-1.0,0.15527344,0.65625,0.03125,-0.1875,0.0,0.0,0.0
1696242964155,0.053710938,-0.99609375,0.13964844,-0.03125,0.09375,0.25,0.0,0.0,0.0
1696242964160,0.044921875,-0.9970703,0.14550781,0.09375,-0.09375,0.0625,0.0,0.0,0.0
1696242964247,0.048828125,-0.9941406,0.14257812,0.40625,-0.03125,0.0625,0.0,0.0,0.0
1696242964254,0.049804688,-0.9970703,0.14550781,0.15625,-0.15625,-0.0625,0.0,0.0,0.0
1696242964272,0.055664062,-0.9951172,0.15039062,-0.09375,-0.03125,0.0625,0.0,0.0,0.0
1696242964335,0.046875,-0.9921875,0.14160156,-0.03125,0.09375,-0.125,0.0,0.0,0.0
1696242964362,0.04296875,-0.99121094,0.13964844,0.03125,-0.09375,0.0625,0.0,0.0,0.0
1696242964421,0.0546875,-0.9951172,0.13964844,0.46875,-0.03125,0.125,-48.0,-38.1875,-62.3125
1696242964482,0.049804688,-1.0029297,0.14160156,-0.09375,0.09375,-0.125,0.0,0.0,0.0
1696242964487,0.059570312,-0.99902344,0.14648438,-0.09375,-0.03125,0.0,0.0,0.0,0.0
1696242964512,0.048828125,-1.0,0.13964844,-0.28125,-0.15625,0.0625,0.0,0.0,0.0
1696242964572,0.051757812,-0.99121094,0.13476562,0.21875,-0.28125,0.125,0.0,0.0,0.0
1696242964608,0.045898438,-0.9902344,0.14550781,0.46875,-0.15625,0.1875,0.0,0.0,0.0
1696242964631,0.052734375,-0.9941406,0.14355469,0.21875,-0.21875,0.0,0.0,0.0,0.0
1696242964696,0.045898438,-1.0009766,0.15136719,0.65625,-0.03125,0.0625,0.0,0.0,0.0
1696242964722,0.04296875,-0.9951172,0.14941406,0.34375,-0.03125,-0.1875,0.0,0.0,0.0
1696242964783,0.051757812,-0.9892578,0.14257812,0.21875,-0.03125,-0.0625,0.0,0.0,0.0
1696242964844,0.0546875,-0.98339844,0.15820312,0.15625,-0.09375,0.0,0.0,0.0,0.0
1696242964850,0.05078125,-1.0019531,0.13769531,-0.03125,0.03125,0.0,0.0,0.0,0.0
1696242964872,0.048828125,-0.99902344,0.15234375,0.15625,-0.09375,0.25,0.0,0.0,0.0
1696242964934,0.047851562,-1.0,0.14453125,0.21875,-0.15625,0.125,-50.125,-40.1875,-61.375
1696242964962,0.0390625,-0.9941406,0.1484375,-0.03125,-0.125,0.1875,0.0,0.0,0.0
1696242964994,0.0390625,-0.9980469,0.15722656,-0.15625,-0.125,0.0625,0.0,0.0,0.0
1696242965058,0.037109375,-0.99316406,0.14941406,0.21875,0.0625,-0.0625,0.0,0.0,0.0
1696242965085,0.05078125,-1.0,0.14355469,0.15625,0.125,0.0,0.0,0.0,0.0
1696242965112,0.049804688,-0.99316406,0.15527344,-0.21875,0.0625,-0.125,0.0,0.0,0.0
1696242965173,0.048828125,-0.9941406,0.14453125,-0.28125,-0.0625,0.0625,0.0,0.0,0.0
1696242965236,0.05078125,-0.9980469,0.15527344,-0.09375,0.0,0.0,0.0,0.0,0.0
1696242965244,0.052734375,-0.99121094,0.15234375,0.53125,0.0,0.1875,0.0,0.0,0.0
1696242965292,0.051757812,-0.9941406,0.14257812,-0.4375,-0.0625,-0.125,0.0,0.0,0.0
1696242965323,0.043945312,-0.9941406,0.14355469,-0.75,0.125,-0.0625,0.0,0.0,0.0
1696242965359,0.049804688,-0.9951172,0.15820312,-0.5,0.0,-0.0625,0.0,0.0,0.0
1696242965415,0.046875,-0.99121094,0.14648438,-0.5625,-0.25,-0.1875,-49.5,-38.1875,-63.0625
1696242965445,0.052734375,-0.99316406,0.14550781,-0.03125,-0.125,0.3125,0.0,0.0,0.0
1696242965480,0.047851562,-1.0,0.16894531,0.15625,0.0625,0.125,0.0,0.0,0.0
1696242965531,0.045898438,-0.9873047,0.15429688,0.28125,-0.0625,-0.125,0.0,0.0,0.0
1696242965566,0.047851562,-0.9921875,0.14160156,-0.03125,0.0625,-0.1875,0.0,0.0,0.0
1696242965592,0.052734375,-0.98828125,0.13671875,-0.375,-0.0625,-0.3125,0.0,0.0,0.0
1696242965654,0.05078125,-0.9921875,0.15136719,-0.875,0.0625,-0.1875,0.0,0.0,0.0
1696242965714,0.05078125,-0.9951172,0.13964844,-1.1875,0.0,-0.1875,0.0,0.0,0.0
1696242965717,0.051757812,-0.99121094,0.1484375,-0.6875,0.0,-0.125,0.0,0.0,0.0
1696242965772,0.052734375,-1.0,0.14941406,-0.34375,0.0,0.0,0.0,0.0,0.0
1696242965807,0.048828125,-1.0039062,0.15625,-0.28125,-0.0625,0.0625,0.0,0.0,0.0
1696242965833,0.052734375,-0.9951172,0.13867188,-0.28125,-0.0625,-0.125,0.0,0.0,0.0
1696242965892,0.046875,-1.0009766,0.14746094,-0.15625,0.0625,0.0,0.0,0.0,0.0
1696242965921,0.047851562,-0.9941406,0.15722656,-0.34375,0.0625,-0.1875,-49.8125,-38.1875,-61.5625
1696242965952,0.047851562,-0.99316406,0.15136719,-0.375,0.0625,-0.25,0.0,0.0,0.0
1696242966012,0.0546875,-0.9970703,0.14453125,-0.28125,-0.125,-0.125,0.0,0.0,0.0
1696242966052,0.036132812,-0.98339844,0.13867188,-0.28125,0.125,-0.0625,0.0,0.0,0.0
1696242966107,0.055664062,-0.99316406,0.1640625,-0.5,0.0625,-0.0625,0.0,0.0,0.0
1696242966134,0.055664062,-0.98828125,0.1484375,-0.34375,0.125,-0.125,0.0,0.0,0.0
1696242966164,0.055664062,-0.99902344,0.14648438,-0.375,-0.0625,-0.0625,0.0,0.0,0.0
1696242966193,0.041015625,-0.9921875,0.15820312,-0.28125,0.0,0.0625,0.0,0.0,0.0
1696242966256,0.040039062,-1.0019531,0.1484375,-0.34375,0.125,-0.125,0.0,0.0,0.0
1696242966285,0.043945312,-0.9921875,0.140625,-0.21875,0.0,0.0625,0.0,0.0,0.0
1696242966313,0.041992188,-0.99609375,0.14160156,-0.09375,0.125,-0.0625,0.0,0.0,0.0
1696242966407,0.052734375,-0.98535156,0.14355469,-0.4375,-0.125,-0.1875,0.0,0.0,0.0
1696242966413,0.048828125,-1.0,0.16894531,-0.5,0.0625,-0.25,-51.125,-39.125,-62.4375
1696242966432,0.049804688,-0.9980469,0.15332031,-0.9375,0.0625,-0.1875,0.0,0.0,0.0
1696242966495,0.047851562,-1.0009766,0.14355469,-0.5625,-0.0625,-0.0625,0.0,0.0,0.0
1696242966521,0.049804688,-0.99121094,0.13867188,-0.15625,0.0,0.0,0.0,0.0,0.0
1696242966552,0.045898438,-0.99121094,0.14746094,-0.03125,0.0625,0.0625,0.0,0.0,0.0
1696242966615,0.05078125,-0.98828125,0.14648438,-0.4375,-0.0625,-0.125,0.0,0.0,0.0
1696242966644,0.043945312,-0.99609375,0.13671875,-0.28125,-0.0625,-0.25,0.0,0.0,0.0
1696242966677,0.05078125,-0.99609375,0.15527344,0.21875,0.0625,-0.3125,0.0,0.0,0.0
1696242966731,0.044921875,-0.99121094,0.15039062,0.15625,-0.0625,-0.0625,0.0,0.0,0.0
1696242966765,0.044921875,-1.0009766,0.14648438,-0.03125,0.0,-0.125,0.0,0.0,0.0
1696242966791,0.051757812,-0.9980469,0.15820312,-0.4375,0.0,-0.1875,0.0,0.0,0.0
1696242966853,0.04296875,-1.0,0.15234375,-0.21875,0.0,-0.125,0.0,0.0,0.0
1696242966883,0.048828125,-0.98828125,0.15527344,-0.5625,0.0625,0.0,0.0,0.0,0.0
1696242966914,0.041015625,-0.9941406,0.140625,-0.8125,0.0625,-0.125,-49.8125,-38.5,-61.875
1696242966972,0.05078125,-0.9980469,0.14746094,-0.9375,0.1875,0.0,0.0,0.0,0.0
1696242967003,0.051757812,-0.98535156,0.14550781,-0.5625,-0.125,-0.0625,0.0,0.0,0.0
1696242967065,0.051757812,-0.9951172,0.14453125,-0.34375,-0.1875,0.125,0.0,0.0,0.0
1696242967092,0.047851562,-0.9980469,0.14550781,-0.15625,0.0,0.1875,0.0,0.0,0.0
1696242967126,0.045898438,-0.9873047,0.15039062,0.15625,0.0625,-0.0625,0.0,0.0,0.0
1696242967154,0.044921875,-0.9980469,0.15917969,0.21875,0.0625,-0.0625,0.0,0.0,0.0
1696242967213,0.053710938,-0.9921875,0.14550781,-0.21875,0.0625,-0.25,0.0,0.0,0.0
1696242967243,0.037109375,-0.99316406,0.15527344,-0.21875,0.0625,-0.25,0.0,0.0,0.0
1696242967274,0.045898438,-0.9921875,0.13867188,-0.4375,0.0625,-0.1875,0.0,0.0,0.0
1696242967331,0.043945312,-0.9941406,0.14648438,-0.34375,0.0,-0.0625,0.0,0.0,0.0
1696242967363,0.049804688,-1.0009766,0.14648438,-0.21875,0.0,0.125,0.0,0.0,0.0
1696242967421,0.043945312,-0.99609375,0.1484375,-0.09375,0.0,-0.0625,-49.375,-36.875,-62.75
1696242967455,0.052734375,-0.9970703,0.14550781,-0.09375,0.0625,-0.0625,0.0,0.0,0.0
1696242967481,0.044921875,-0.99121094,0.14648438,-0.03125,0.0,0.0,0.0,0.0,0.0
1696242967513,0.043945312,-0.99316406,0.15039062,-0.21875,0.0,-0.25,0.0,0.0,0.0
1696242967575,0.047851562,-0.98828125,0.15136719,-0.15625,0.0625,-0.1875,0.0,0.0,0.0
1696242967605,0.0546875,-1.0,0.15039062,-0.28125,0.0,-0.25,0.0,0.0,0.0
1696242967636,0.053710938,-0.99316406,0.140625,-0.34375,0.0,0.0625,0.0,0.0,0.0
1696242967694,0.051757812,-1.0009766,0.14648438,-0.15625,0.0625,-0.125,0.0,0.0,0.0
1696242967722,0.048828125,-0.99121094,0.140625,0.09375,0.0625,0.125,0.0,0.0,0.0
1696242967760,0.046875,-0.9980469,0.13964844,0.09375,0.125,0.125,0.0,0.0,0.0
1696242967814,0.051757812,-1.0078125,0.15332031,0.21875,0.0,-0.0625,0.0,0.0,0.0
1696242967843,0.048828125,-0.99609375,0.15039062,0.03125,0.125,-0.125,0.0,0.0,0.0
1696242967875,0.047851562,-0.984375,0.15625,-0.4375,0.0625,-0.0625,0.0,0.0,0.0
1696242967935,0.057617188,-1.0019531,0.14746094,-0.625,0.0,0.0625,-50.125,-38.375,-62.4375
1696242967963,0.0546875,-0.9980469,0.1484375,-0.5,0.0,0.0,0.0,0.0,0.0
1696242967992,0.048828125,-0.9921875,0.14648438,0.09375,-0.1875,0.25,0.0,0.0,0.0
1696242968054,0.047851562,-1.0009766,0.13476562,0.09375,-0.0625,0.125,0.0,0.0,0.0
1696242968086,0.049804688,-0.99121094,0.14648438,0.40625,-0.0625,0.0625,0.0,0.0,0.0
1696242968113,0.045898438,-0.9951172,0.14160156,0.59375,-0.0625,0.0625,0.0,0.0,0.0
1696242968172,0.041992188,-0.98828125,0.15527344,0.46875,0.0625,-0.25,0.0,0.0,0.0
1696242968204,0.051757812,-0.99902344,0.14648438,0.21875,0.0625,-0.1875,0.0,0.0,0.0
1696242968232,0.046875,-0.9921875,0.140625,-0.03125,0.0625,0.0625,0.0,0.0,0.0
1696242968293,0.045898438,-0.9951172,0.14355469,-0.09375,0.0625,0.0625,0.0,0.0,0.0
1696242968358,0.049804688,-0.9980469,0.15429688,0.09375,-0.0625,0.1875,0.0,0.0,0.0
1696242968366,0.040039062,-0.9970703,0.15820312,-0.09375,0.0,0.125,0.0,0.0,0.0
1696242968413,0.041992188,-1.0,0.15332031,0.15625,0.0625,-0.0625,-49.5,-37.75,-62.625
1696242968444,0.045898438,-0.9892578,0.13671875,-0.03125,0.0,0.0625,0.0,0.0,0.0
1696242968473,0.05078125,-1.0019531,0.16113281,0.15625,0.0,0.0,0.0,0.0,0.0
1696242968537,0.0546875,-0.9873047,0.15429688,0.03125,0.0,-0.0625,0.0,0.0,0.0
1696242968596,0.052734375,-0.99902344,0.13867188,0.21875,-0.125,0.1875,0.0,0.0,0.0
1696242968602,0.05078125,-0.9941406,0.15332031,-0.03125,-0.125,0.1875,0.0,0.0,0.0
1696242968655,0.051757812,-0.99902344,0.15332031,0.15625,-0.25,0.125,0.0,0.0,0.0
1696242968687,0.041015625,-0.99609375,0.14941406,0.15625,-0.125,0.125,0.0,0.0,0.0
1696242968713,0.053710938,-0.99121094,0.15039062,0.15625,0.1875,0.0,0.0,0.0,0.0
1696242968774,0.044921875,-0.99609375,0.1484375,-0.5625,0.0,-0.1875,0.0,0.0,0.0
1696242968805,0.053710938,-0.99902344,0.14941406,-0.375,0.0,0.0,0.0,0.0,0.0
1696242968832,0.05078125,-0.98828125,0.15234375,-0.34375,-0.1875,0.0625,0.0,0.0,0.0
1696242968892,0.051757812,-0.9824219,0.15625,0.09375,0.0625,0.25,0.0,0.0,0.0
1696242968923,0.047851562,-0.99121094,0.15527344,0.03125,-0.125,0.125,-50.6875,-38.0625,-61.6875
1696242968952,0.043945312,-0.9863281,0.1640625,-0.21875,0.0625,-0.0625,0.0,0.0,0.0
1696242969015,0.044921875,-0.99121094,0.14746094,-0.28125,0.0625,-0.125,0.0,0.0,0.0
1696242969044,0.05078125,-0.9921875,0.14453125,-0.4375,0.0625,-0.25,0.0,0.0,0.0
1696242969073,0.0546875,-0.98828125,0.16113281,-0.625,0.0,-0.3125,0.0,0.0,0.0
1696242969138,0.041015625,-0.9902344,0.15722656,-0.875,0.125,-0.125,0.0,0.0,0.0
1696242969163,0.052734375,-0.98535156,0.15917969,-0.5,0.0,0.0625,0.0,0.0,0.0
1696242969193,0.052734375,-1.0,0.14453125,-0.09375,0.125,0.0625,0.0,0.0,0.0
1696242969254,0.045898438,-0.99609375,0.15527344,-0.28125,0.0,0.0,0.0,0.0,0.0
1696242969284,0.048828125,-0.9902344,0.14746094,-0.28125,-0.125,0.0625,0.0,0.0,0.0
1696242969344,0.04296875,-0.9941406,0.1484375,-0.28125,0.0625,-0.1875,0.0,0.0,0.0
1696242969379,0.052734375,-1.0019531,0.15136719,-0.4375,0.0,-0.0625,0.0,0.0,0.0
1696242969404,0.052734375,-0.99609375,0.13769531,-0.375,0.1875,-0.0625,-49.5,-38.9375,-61.5625
1696242969434,0.057617188,-1.0009766,0.14550781,-0.5625,0.0,-0.125,0.0,0.0,0.0
1696242969496,0.045898438,-0.9941406,0.15625,0.09375,0.0,0.0,0.0,0.0,0.0
1696242969521,0.04296875,-0.99316406,0.15332031,-0.21875,0.125,-0.125,0.0,0.0,0.0
1696242969551,0.045898438,-0.9921875,0.14941406,-0.5625,0.0625,-0.125,0.0,0.0,0.0
1696242969612,0.046875,-1.0019531,0.15136719,-0.8125,-0.0625,0.0625,0.0,0.0,0.0
1696242969643,0.043945312,-0.9921875,0.15136719,-0.9375,0.0,-0.0625,0.0,0.0,0.0
1696242969672,0.047851562,-0.9921875,0.14257812,-0.4375,-0.0625,0.0625,0.0,0.0,0.0
1696242969735,0.043945312,-1.0,0.14648438,-0.15625,0.0625,0.0625,0.0,0.0,0.0
1696242969764,0.051757812,-0.9970703,0.14746094,0.03125,0.0,-0.125,0.0,0.0,0.0
1696242969793,0.0546875,-0.99121094,0.15234375,-0.03125,0.25,-0.0625,0.0,0.0,0.0
1696242969853,0.044921875,-0.9941406,0.15429688,-0.28125,0.0,-0.125,0.0,0.0,0.0
1696242969886,0.052734375,-0.9902344,0.1484375,-0.15625,0.0625,-0.125,0.0,0.0,0.0
1696242969913,0.040039062,-0.99609375,0.13378906,-0.21875,0.0625,0.0625,-50.25,-38.1875,-61.875
1696242969975,0.045898438,-1.0,0.14941406,-0.375,-0.25,0.125,0.0,0.0,0.0
1696242970003,0.049804688,-0.9941406,0.15429688,-1.125,0.0,-0.125,0.0,0.0,0.0
1696242970039,0.051757812,-0.9902344,0.16601562,-1.625,0.1875,-0.1875,0.0,0.0,0.0
1696242970094,0.052734375,-0.9921875,0.15136719,-1.0625,0.125,-0.125,0.0,0.0,0.0
1696242970125,0.044921875,-0.9980469,0.15722656,-0.21875,0.0,0.125,0.0,0.0,0.0
1696242970152,0.055664062,-1.0009766,0.14160156,1.0625,-0.0625,0.1875,0.0,0.0,0.0
1696242970215,0.047851562,-1.0019531,0.16699219,0.71875,0.0625,-0.3125,0.0,0.0,0.0
1696242970244,0.049804688,-1.0009766,0.14160156,-0.15625,0.1875,-0.25,0.0,0.0,0.0
1696242970271,0.051757812,-0.99609375,0.15039062,0.09375,0.0,-0.375,0.0,0.0,0.0
1696242970331,0.045898438,-0.98339844,0.1484375,-0.03125,0.3125,-0.1875,0.0,0.0,0.0
1696242970364,0.045898438,-0.9951172,0.14550781,-0.34375,0.125,-0.25,0.0,0.0,0.0
1696242970392,0.048828125,-0.9892578,0.15820312,-0.625,0.0625,0.0625,-50.125,-37.625,-61.125
1696242970454,0.057617188,-1.0009766,0.14941406,-0.75,-0.0625,0.125,0.0,0.0,0.0
1696242970486,0.046875,-0.9970703,0.15234375,-0.09375,-0.1875,0.0625,0.0,0.0,0.0
1696242970516,0.044921875,-0.9970703,0.16113281,-0.15625,0.0,-0.0625,0.0,0.0,0.0
1696242970606,0.048828125,-0.9902344,0.13867188,-0.34375,0.0,-0.125,0.0,0.0,0.0
1696242970614,0.052734375,-0.9902344,0.15625,-0.21875,0.0625,0.0,0.0,0.0,0.0
1696242970632,0.049804688,-0.9951172,0.15625,-0.28125,0.1875,-0.25,0.0,0.0,0.0
1696242970694,0.048828125,-0.99121094,0.15625,-0.03125,0.0625,-0.125,0.0,0.0,0.0
1696242970722,0.056640625,-1.0,0.14648438,-0.34375,0.0,-0.125,0.0,0.0,0.0
1696242970752,0.04296875,-0.99609375,0.14257812,-0.34375,-0.1875,0.0625,0.0,0.0,0.0
1696242970813,0.052734375,-0.9980469,0.15332031,-0.4375,0.0,-0.0625,0.0,0.0,0.0
1696242970845,0.056640625,-0.99121094,0.15625,-0.28125,0.0,-0.0625,0.0,0.0,0.0
1696242970903,0.053710938,-0.9941406,0.15625,-0.21875,0.0,0.0,0.0,0.0,0.0
1696242970933,0.052734375,-0.9980469,0.13964844,-0.5625,0.0,0.0,-48.4375,-38.5,-61.5625
1696242970968,0.048828125,-0.9980469,0.15234375,-0.21875,0.125,0.0625,0.0,0.0,0.0
1696242970991,0.055664062,-1.0,0.171875,-0.09375,0.0625,-0.0625,0.0,0.0,0.0
1696242971053,0.051757812,-1.0,0.15527344,-0.28125,-0.0625,0.0625,0.0,0.0,0.0
1696242971081,0.055664062,-0.98828125,0.14453125,-0.03125,0.0625,-0.1875,0.0,0.0,0.0
1696242971120,0.053710938,-0.98046875,0.140625,-0.28125,0.0,-0.1875,0.0,0.0,0.0
1696242971174,0.05078125,-0.99609375,0.13867188,-0.6875,-0.125,-0.1875,0.0,0.0,0.0
1696242971203,0.048828125,-0.99609375,0.15234375,-0.09375,0.1875,-0.125,0.0,0.0,0.0
1696242971236,0.051757812,-0.9921875,0.15527344,-0.21875,0.0625,0.0,0.0,0.0,0.0
1696242971296,0.044921875,-0.9873047,0.13378906,-0.09375,0.0,0.125,0.0,0.0,0.0
1696242971324,0.043945312,-0.9892578,0.15234375,-0.34375,-0.0625,0.1875,0.0,0.0,0.0
1696242971354,0.060546875,-0.99609375,0.13769531,-0.15625,-0.125,0.1875,0.0,0.0,0.0
1696242971417,0.040039062,-1.0,0.15625,0.03125,-0.125,0.125,-49.5,-37.75,-61.5625
1696242971444,0.051757812,-0.9970703,0.15332031,-0.4375,-0.0625,0.0,0.0,0.0,0.0
1696242971473,0.044921875,-1.0097656,0.14550781,-0.03125,-0.0625,-0.0625,0.0,0.0,0.0
1696242971534,0.052734375,-0.9951172,0.16308594,0.03125,0.1875,-0.125,0.0,0.0,0.0
1696242971566,0.052734375,-0.9951172,0.16308594,-0.03125,0.0,-0.25,0.0,0.0,0.0
1696242971626,0.045898438,-0.9921875,0.15039062,-0.15625,0.125,-0.0625,0.0,0.0,0.0
1696242971653,0.060546875,-0.99121094,0.14941406,-0.21875,0.0,0.125,0.0,0.0,0.0
1696242971691,0.040039062,-1.0019531,0.16308594,0.40625,-0.125,0.0625,0.0,0.0,0.0
1696242971712,0.046875,-0.99902344,0.16210938,0.65625,-0.0625,0.1875,0.0,0.0,0.0
1696242971773,0.053710938,-0.9970703,0.15039062,0.15625,0.0,0.125,0.0,0.0,0.0
1696242971803,0.045898438,-0.99609375,0.15039062,-0.21875,0.125,-0.1875,0.0,0.0,0.0
1696242971838,0.053710938,-0.99121094,0.15527344,-0.21875,0.125,0.0,0.0,0.0,0.0
1696242971893,0.053710938,-0.9951172,0.15429688,-0.21875,0.0,0.0,0.0,0.0,0.0
1696242971924,0.048828125,-0.99121094,0.14941406,-0.09375,0.0,-0.0625,-50.25,-38.5,-61.25
1696242971953,0.041015625,-0.99121094,0.15136719,0.03125,-0.0625,0.125,0.0,0.0,0.0
1696242972013,0.05859375,-0.98535156,0.14746094,0.78125,-0.25,0.1875,0.0,0.0,0.0
1696242972043,0.041992188,-0.99316406,0.16796875,0.40625,0.125,0.0,0.0,0.0,0.0
1696242972073,0.044921875,-0.98535156,0.15722656,-0.28125,0.0,-0.0625,0.0,0.0,0.0
1696242972133,0.047851562,-1.0029297,0.14160156,-0.5625,-0.0625,0.0625,0.0,0.0,0.0
1696242972162,0.0546875,-0.9902344,0.16015625,-0.5625,-0.3125,-0.0625,0.0,0.0,0.0
1696242972192,0.057617188,-0.99609375,0.14257812,-0.375,-0.0625,0.25,0.0,0.0,0.0
1696242972253,0.0546875,-0.99316406,0.13183594,-0.15625,0.0,0.125,0.0,0.0,0.0
1696242972281,0.057617188,-1.0019531,0.16113281,0.28125,0.0,-0.125,0.0,0.0,0.0
1696242972313,0.052734375,-0.9941406,0.16015625,0.59375,0.0625,0.0,0.0,0.0,0.0
1696242972374,0.047851562,-0.9863281,0.14453125,0.59375,-0.125,-0.1875,0.0,0.0,0.0
1696242972401,0.045898438,-0.99121094,0.14941406,-0.03125,0.0,-0.1875,-49.8125,-38.1875,-60.5
1696242972434,0.049804688,-0.9902344,0.14746094,-0.75,0.0,-0.0625,0.0,0.0,0.0
1696242972497,0.044921875,-0.9941406,0.16894531,-0.4375,-0.0625,-0.0625,0.0,0.0,0.0
1696242972523,0.051757812,-0.99316406,0.16308594,-0.8125,0.0,0.0625,0.0,0.0,0.0
1696242972559,0.044921875,-0.9951172,0.15527344,-0.875,-0.0625,-0.0625,0.0,0.0,0.0
1696242972612,0.05078125,-0.9980469,0.14648438,-0.625,-0.0625,0.0,0.0,0.0,0.0
1696242972643,0.053710938,-0.99902344,0.13378906,-0.5,-0.0625,-0.1875,0.0,0.0,0.0
1696242972673,0.048828125,-0.99121094,0.140625,-0.21875,0.125,-0.1875,0.0,0.0,0.0
1696242972735,0.043945312,-0.99609375,0.15234375,0.15625,-0.0625,0.0625,0.0,0.0,0.0
1696242972768,0.05078125,-0.99902344,0.15429688,-0.375,0.0,-0.1875,0.0,0.0,0.0
1696242972796,0.053710938,-0.9892578,0.15722656,-0.8125,0.0625,0.0,0.0,0.0,0.0
1696242972854,0.037109375,-0.9902344,0.15039062,-0.6875,0.0625,-0.125,0.0,0.0,0.0
1696242972883,0.0546875,-0.9892578,0.14257812,-0.625,-0.125,0.0,0.0,0.0,0.0
1696242972916,0.047851562,-0.99316406,0.15917969,-0.4375,-0.25,0.1875,-50.125,-39.125,-59.625
1696242972974,0.046875,-0.99316406,0.15332031,0.03125,0.0625,-0.0625,0.0,0.0,0.0
1696242973004,0.056640625,-0.9824219,0.15136719,0.09375,0.0,-0.3125,0.0,0.0,0.0
1696242973031,0.048828125,-0.9892578,0.14355469,-0.28125,0.125,-0.1875,0.0,0.0,0.0
1696242973095,0.04296875,-0.99121094,0.14648438,-0.28125,-0.0625,-0.1875,0.0,0.0,0.0
1696242973123,0.047851562,-0.99902344,0.1484375,-0.5,-0.0625,-0.0625,0.0,0.0,0.0
1696242973153,0.05078125,-0.9863281,0.14746094,-1.0,0.0,-0.0625,0.0,0.0,0.0
1696242973216,0.048828125,-0.9921875,0.14746094,-0.75,0.0625,0.0,0.0,0.0,0.0
1696242973245,0.051757812,-0.99609375,0.15429688,-0.625,0.125,-0.0625,0.0,0.0,0.0
1696242973272,0.05078125,-0.9941406,0.16503906,-0.5,0.125,-0.0625,0.0,0.0,0.0
1696242973332,0.040039062,-0.99316406,0.15625,-0.09375,0.0625,0.125,0.0,0.0,0.0
1696242973366,0.044921875,-0.9921875,0.16210938,-0.15625,0.0625,0.0,0.0,0.0,0.0
1696242973391,0.048828125,-1.0,0.15234375,-0.34375,0.0625,-0.0625,-49.375,-38.375,-60.625
1696242973455,0.045898438,-0.99121094,0.15234375,-0.6875,-0.0625,-0.0625,0.0,0.0,0.0
1696242973482,0.047851562,-0.99902344,0.14257812,-0.28125,-0.0625,-0.0625,0.0,0.0,0.0
1696242973513,0.048828125,-0.9941406,0.15625,-0.6875,0.1875,-0.3125,0.0,0.0,0.0
1696242973576,0.056640625,-0.9951172,0.15234375,-0.5625,0.125,-0.1875,0.0,0.0,0.0
1696242973602,0.053710938,-0.9980469,0.13964844,-0.8125,0.0,-0.0625,0.0,0.0,0.0
1696242973632,0.056640625,-1.0,0.14941406,-0.28125,-0.25,0.125,0.0,0.0,0.0
1696242973692,0.057617188,-0.9902344,0.1484375,0.15625,0.0,0.125,0.0,0.0,0.0
1696242973722,0.047851562,-0.99609375,0.15332031,0.40625,-0.125,0.0625,0.0,0.0,0.0
1696242973752,0.045898438,-0.99609375,0.15527344,-0.15625,-0.0625,-0.125,0.0,0.0,0.0
1696242973812,0.044921875,-0.99609375,0.1484375,-0.4375,0.0,0.0,0.0,0.0,0.0
1696242973844,0.057617188,-0.9824219,0.15234375,-0.625,-0.0625,0.0625,0.0,0.0,0.0
1696242973911,0.048828125,-0.99316406,0.13867188,-1.0,0.0625,0.0625,0.0,0.0,0.0
1696242973931,0.043945312,-0.99316406,0.14550781,-1.5,0.0,0.25,-49.625,-36.125,-61.375
1696242973965,0.05078125,-0.99121094,0.15332031,-1.0,-0.125,0.1875,0.0,0.0,0.0
1696242973996,0.048828125,-1.0068359,0.1484375,-0.75,-0.0625,0.0625,0.0,0.0,0.0
1696242974052,0.046875,-0.9970703,0.15429688,-0.34375,0.0625,0.125,0.0,0.0,0.0
1696242974082,0.04296875,-0.99609375,0.14550781,0.25,0.0625,-0.21875,0.0,0.0,0.0
1696242974115,0.053710938,-0.9824219,0.15039062,0.5625,0.0625,-0.0625,0.0,0.0,0.0
1696242974174,0.046875,-0.9921875,0.14355469,0.5,0.21875,-0.0625,0.0,0.0,0.0
1696242974204,0.05078125,-1.0009766,0.15039062,0.5,0.0,-0.125,0.0,0.0,0.0
1696242974232,0.052734375,-1.0019531,0.13964844,0.3125,0.0,0.125,0.0,0.0,0.0
1696242974295,0.047851562,-0.9902344,0.15136719,0.375,-0.0625,-0.21875,0.0,0.0,0.0
1696242974325,0.060546875,-0.9892578,0.15429688,0.25,-0.0625,-0.1875,0.0,0.0,0.0
1696242974353,0.051757812,-0.9941406,0.15332031,-0.125,-0.0625,-0.21875,0.0,0.0,0.0
1696242974414,0.044921875,-0.99316406,0.15429688,-0.5625,0.0,0.0625,-49.625,-38.375,-62.125
1696242974443,0.046875,-0.99609375,0.12109375,-0.5625,-0.0625,0.125,0.0,0.0,0.0
1696242974481,0.057617188,-0.9941406,0.14941406,0.125,-0.0625,0.25,0.0,0.0,0.0
1696242974535,0.04296875,-0.9970703,0.15039062,0.0625,0.0,0.1875,0.0,0.0,0.0
1696242974562,0.047851562,-1.0009766,0.13378906,0.25,0.0625,0.0,0.0,0.0,0.0
1696242974593,0.053710938,-0.9941406,0.13769531,0.625,0.0,-0.1875,0.0,0.0,0.0
1696242974683,0.05859375,-0.9873047,0.14550781,0.3125,0.09375,-0.125,0.0,0.0,0.0
1696242974690,0.047851562,-0.99609375,0.15234375,0.0625,0.0625,0.0,0.0,0.0,0.0
1696242974718,0.046875,-1.0,0.15332031,-0.0625,0.0625,-0.125,0.0,0.0,0.0
1696242974771,0.053710938,-0.9921875,0.14550781,0.1875,0.0625,0.0625,0.0,0.0,0.0
1696242974801,0.051757812,-0.99121094,0.13867188,0.3125,0.0625,0.125,0.0,0.0,0.0
1696242974837,0.051757812,-0.9902344,0.13964844,0.4375,0.0,0.25,0.0,0.0,0.0
1696242974893,0.0546875,-0.99609375,0.1484375,0.375,0.0,0.0625,0.0,0.0,0.0
1696242974922,0.0546875,-1.0009766,0.14746094,0.375,0.09375,0.0,-50.25,-38.9375,-61.25
1696242974952,0.049804688,-0.99316406,0.14648438,0.3125,0.0,-0.125,0.0,0.0,0.0
1696242975015,0.045898438,-0.99902344,0.15136719,0.1875,0.0,0.0,0.0,0.0,0.0
1696242975041,0.051757812,-0.9980469,0.16015625,0.1875,0.0,0.0,0.0,0.0,0.0
1696242975072,0.043945312,-0.99902344,0.14746094,0.625,-0.0625,0.0625,0.0,0.0,0.0
1696242975133,0.053710938,-0.99121094,0.14648438,0.71875,0.0625,0.0,0.0,0.0,0.0
1696242975162,0.051757812,-0.9892578,0.15722656,0.5625,-0.125,0.0625,0.0,0.0,0.0
1696242975193,0.045898438,-0.9921875,0.14648438,0.5,-0.0625,0.125,0.0,0.0,0.0
1696242975253,0.045898438,-0.9951172,0.15625,0.0625,0.09375,-0.0625,0.0,0.0,0.0
1696242975284,0.049804688,-0.9951172,0.1484375,-0.3125,-0.0625,-0.28125,0.0,0.0,0.0
1696242975312,0.056640625,-0.99609375,0.14648438,-0.65625,-0.0625,0.0,0.0,0.0,0.0
1696242975372,0.048828125,-0.9951172,0.14257812,-0.25,-0.0625,0.1875,0.0,0.0,0.0
1696242975411,0.052734375,-0.9970703,0.1484375,0.5625,-0.125,0.3125,-49.8125,-38.5,-61.5625
1696242975430,0.053710938,-0.98535156,0.16210938,0.84375,-0.0625,0.375,0.0,0.0,0.0
1696242975493,0.053710938,-0.9921875,0.15527344,1.15625,0.0625,-0.1875,0.0,0.0,0.0
1696242975524,0.044921875,-0.9970703,0.15722656,1.09375,0.0625,-0.125,0.0,0.0,0.0
1696242975553,0.040039062,-0.9863281,0.15625,0.90625,-0.0625,-0.1875,0.0,0.0,0.0
1696242975613,0.0546875,-0.98535156,0.14355469,0.4375,0.0625,-0.21875,0.0,0.0,0.0
1696242975648,0.053710938,-0.9902344,0.16113281,-0.25,0.0,-0.0625,0.0,0.0,0.0
1696242975672,0.0546875,-0.9951172,0.14355469,-0.1875,0.0,0.0625,0.0,0.0,0.0
1696242975737,0.047851562,-0.9921875,0.13476562,0.4375,-0.0625,0.375,0.0,0.0,0.0
1696242975793,0.052734375,-0.9941406,0.15234375,0.5625,-0.125,0.25,0.0,0.0,0.0
1696242975806,0.051757812,-0.99316406,0.15722656,0.65625,-0.125,-0.0625,0.0,0.0,0.0
1696242975852,0.045898438,-0.99316406,0.15917969,0.5625,0.0,-0.125,0.0,0.0,0.0
1696242975883,0.05078125,-0.99316406,0.15625,0.3125,0.09375,-0.0625,0.0,0.0,0.0
1696242975914,0.0546875,-0.9970703,0.15722656,0.5,0.0,0.0,-51.3125,-37.0,-61.5625
1696242975974,0.051757812,-0.99609375,0.15625,0.3125,0.09375,0.125,0.0,0.0,0.0
1696242976010,0.049804688,-0.9921875,0.13574219,-0.0625,-0.0625,0.0625,0.0,0.0,0.0
1696242976033,0.045898438,-0.9814453,0.15234375,1.03125,-0.125,0.25,0.0,0.0,0.0
1696242976094,0.051757812,-0.9980469,0.15917969,0.5625,0.0,-0.0625,0.0,0.0,0.0
1696242976123,0.051757812,-0.9902344,0.1484375,0.0,0.0625,-0.0625,0.0,0.0,0.0
1696242976182,0.045898438,-0.9921875,0.15527344,-0.375,0.0,-0.125,0.0,0.0,0.0
1696242976212,0.04296875,-0.98828125,0.14648438,0.0625,-0.0625,-0.0625,0.0,0.0,0.0
1696242976244,0.047851562,-0.9970703,0.15332031,0.375,0.0,0.1875,0.0,0.0,0.0
1696242976303,0.05078125,-0.99609375,0.15136719,0.3125,0.0,0.125,0.0,0.0,0.0
1696242976334,0.049804688,-0.99902344,0.1484375,0.84375,-0.125,0.0625,0.0,0.0,0.0
1696242976362,0.0546875,-0.9892578,0.16601562,0.4375,0.0,-0.0625,0.0,0.0,0.0
1696242976393,0.05078125,-0.9941406,0.14941406,0.4375,0.09375,-0.0625,-50.5625,-38.1875,-61.25
1696242976455,0.047851562,-0.9863281,0.16699219,0.25,0.15625,-0.28125,0.0,0.0,0.0
1696242976485,0.052734375,-0.9951172,0.15234375,-0.3125,-0.0625,-0.125,0.0,0.0,0.0
1696242976513,0.048828125,-0.9921875,0.15722656,-0.5625,-0.125,-0.0625,0.0,0.0,0.0
1696242976574,0.044921875,-0.9970703,0.15039062,-0.5,0.0,-0.125,0.0,0.0,0.0
1696242976608,0.051757812,-1.0,0.15136719,-0.3125,0.09375,0.0625,0.0,0.0,0.0
1696242976633,0.046875,-0.9941406,0.1484375,-0.0625,-0.125,-0.0625,0.0,0.0,0.0
1696242976695,0.0546875,-1.0,0.16699219,0.0625,0.0625,-0.1875,0.0,0.0,0.0
1696242976723,0.048828125,-0.9892578,0.16113281,0.125,0.0,0.0,0.0,0.0,0.0
1696242976758,0.049804688,-0.99316406,0.16015625,0.3125,0.09375,-0.125,0.0,0.0,0.0
1696242976813,0.047851562,-0.9941406,0.15527344,0.25,0.0625,-0.0625,0.0,0.0,0.0
1696242976847,0.043945312,-1.0029297,0.15039062,0.90625,0.0,0.0,0.0,0.0,0.0
1696242976902,0.043945312,-0.9921875,0.15527344,0.25,0.0625,-0.34375,0.0,0.0,0.0
1696242976933,0.047851562,-0.99121094,0.14648438,-0.3125,-0.125,-0.28125,-48.625,-38.375,-61.375
1696242976965,0.049804688,-0.99316406,0.14160156,-0.5,0.0,-0.1875,0.0,0.0,0.0
1696242976993,0.05078125,-0.9980469,0.14941406,-0.375,-0.1875,0.0625,0.0,0.0,0.0
1696242977085,0.061523438,-1.0019531,0.15429688,-0.125,-0.0625,0.25,0.0,0.0,0.0
1696242977091,0.055664062,-0.99609375,0.15527344,0.3125,0.0625,0.25,0.0,0.0,0.0
1696242977112,0.053710938,-0.98339844,0.16699219,0.5625,-0.0625,0.0,0.0,0.0,0.0
1696242977174,0.053710938,-0.99316406,0.16015625,0.4375,0.0625,-0.1875,0.0,0.0,0.0
1696242977203,0.043945312,-0.9951172,0.15332031,0.84375,-0.1875,-0.1875,0.0,0.0,0.0
1696242977232,0.05859375,-0.9892578,0.16015625,-0.3125,0.21875,-0.1875,0.0,0.0,0.0
1696242977294,0.044921875,-0.9921875,0.15820312,-0.90625,0.0625,-0.1875,0.0,0.0,0.0
1696242977322,0.056640625,-0.99316406,0.15332031,-0.71875,-0.125,0.0625,0.0,0.0,0.0
1696242977353,0.049804688,-1.0019531,0.14648438,-0.25,0.0,0.25,0.0,0.0,0.0
1696242977414,0.056640625,-1.0068359,0.14648438,0.0,-0.0625,0.125,-48.875,-37.3125,-61.125
1696242977449,0.052734375,-1.0029297,0.15429688,0.375,-0.125,-0.1875,0.0,0.0,0.0
1696242977471,0.047851562,-0.99316406,0.14550781,0.5625,0.0625,-0.1875,0.0,0.0,0.0
1696242977531,0.053710938,-0.99609375,0.15917969,0.4375,0.09375,-0.125,0.0,0.0,0.0
1696242977561,0.05078125,-0.9902344,0.15136719,0.4375,0.0625,-0.0625,0.0,0.0,0.0
1696242977593,0.047851562,-0.98828125,0.15039062,0.0,0.0,-0.125,0.0,0.0,0.0
1696242977652,0.05859375,-0.98828125,0.16113281,-0.0625,0.0,-0.125,0.0,0.0,0.0
1696242977682,0.044921875,-0.99316406,0.14746094,0.0,0.09375,-0.125,0.0,0.0,0.0
1696242977743,0.053710938,-0.9902344,0.15136719,-0.1875,-0.0625,0.0625,0.0,0.0,0.0
1696242977773,0.051757812,-0.9951172,0.14355469,-0.4375,0.0,-0.0625,0.0,0.0,0.0
1696242977803,0.0546875,-0.9941406,0.14648438,-0.1875,-0.125,0.0625,0.0,0.0,0.0
1696242977863,0.05859375,-1.0029297,0.15625,0.4375,0.0625,0.0625,0.0,0.0,0.0
1696242977893,0.045898438,-0.9951172,0.14453125,0.25,0.0625,-0.1875,0.0,0.0,0.0
1696242977923,0.052734375,-0.9892578,0.140625,0.4375,0.09375,-0.1875,-50.125,-39.4375,-60.375
1696242977953,0.048828125,-0.98535156,0.15527344,0.5625,0.0,-0.0625,0.0,0.0,0.0
1696242978046,0.045898438,-1.0019531,0.14160156,0.1875,0.0625,-0.125,0.0,0.0,0.0
1696242978051,0.05859375,-0.98339844,0.14648438,-0.0625,-0.125,-0.125,0.0,0.0,0.0
1696242978074,0.048828125,-0.99121094,0.15625,-0.1875,0.09375,-0.125,0.0,0.0,0.0
1696242978134,0.048828125,-0.9951172,0.14746094,-0.1875,0.0,-0.125,0.0,0.0,0.0
1696242978162,0.051757812,-0.9902344,0.16113281,0.125,0.0625,0.0625,0.0,0.0,0.0
1696242978193,0.05078125,-0.9970703,0.14746094,0.25,0.0625,0.125,0.0,0.0,0.0
1696242978253,0.045898438,-0.99902344,0.15332031,0.25,0.0625,0.0,0.0,0.0,0.0
1696242978282,0.048828125,-0.9941406,0.13574219,0.5,0.0625,-0.125,0.0,0.0,0.0
1696242978341,0.056640625,-0.99316406,0.15234375,0.25,0.09375,-0.125,0.0,0.0,0.0
1696242978372,0.045898438,-0.9941406,0.15332031,0.1875,-0.125,-0.0625,0.0,0.0,0.0
1696242978402,0.05078125,-0.9970703,0.15625,0.0,-0.125,-0.125,-50.125,-36.5625,-62.4375
1696242978463,0.048828125,-0.9941406,0.15527344,0.1875,-0.125,-0.0625,0.0,0.0,0.0
1696242978497,0.046875,-0.99902344,0.14746094,0.1875,0.0,-0.0625,0.0,0.0,0.0
1696242978522,0.053710938,-1.0019531,0.14550781,0.125,-0.0625,-0.0625,0.0,0.0,0.0
1696242978553,0.041015625,-0.98339844,0.15625,0.5,0.0,-0.0625,0.0,0.0,0.0
1696242978616,0.051757812,-0.98828125,0.15136719,0.0625,0.09375,0.0625,0.0,0.0,0.0
1696242978642,0.043945312,-0.98828125,0.15625,0.1875,0.0625,0.125,0.0,0.0,0.0
1696242978672,0.052734375,-0.9951172,0.14550781,-0.25,-0.0625,0.0,0.0,0.0,0.0
1696242978733,0.053710938,-0.99121094,0.13867188,0.0625,-0.25,0.1875,0.0,0.0,0.0
1696242978762,0.041992188,-1.0,0.1484375,0.1875,-0.0625,-0.125,0.0,0.0,0.0
1696242978793,0.049804688,-0.9980469,0.15429688,0.1875,0.0,0.0,0.0,0.0,0.0
1696242978854,0.052734375,-0.9902344,0.15625,0.3125,0.0,-0.125,0.0,0.0,0.0
1696242978882,0.047851562,-0.9941406,0.15136719,0.78125,0.0,-0.1875,0.0,0.0,0.0
1696242978912,0.052734375,-0.9892578,0.15625,0.4375,0.09375,-0.1875,-48.875,-38.6875,-61.375
1696242978973,0.044921875,-0.9921875,0.14550781,0.125,0.0,-0.125,0.0,0.0,0.0
1696242979003,0.0546875,-0.9951172,0.13964844,0.0625,0.0,0.0,0.0,0.0,0.0
1696242979032,0.057617188,-0.9941406,0.15722656,0.375,-0.0625,0.125,0.0,0.0,0.0
1696242979097,0.052734375,-0.99902344,0.14746094,0.1875,0.0,0.125,0.0,0.0,0.0
1696242979121,0.056640625,-0.9902344,0.14941406,0.1875,0.0,0.0625,0.0,0.0,0.0
1696242979152,0.047851562,-0.99609375,0.15039062,0.25,-0.0625,-0.0625,0.0,0.0,0.0
1696242979212,0.048828125,-1.0019531,0.14746094,0.125,0.0,-0.0625,0.0,0.0,0.0
1696242979275,0.045898438,-1.0,0.15429688,0.125,0.0,0.0,0.0,0.0,0.0
1696242979280,0.044921875,-0.99609375,0.140625,0.0625,0.0625,-0.03125,0.0,0.0,0.0
1696242979333,0.051757812,-0.98828125,0.140625,0.40625,-0.125,-0.03125,0.0,0.0,0.0
1696242979365,0.046875,-1.0019531,0.14160156,0.28125,-0.0625,-0.03125,0.0,0.0,0.0
1696242979393,0.052734375,-1.0048828,0.15136719,0.21875,-0.125,0.09375,-51.0,-38.1875,-62.625
1696242979455,0.047851562,-0.9921875,0.15722656,0.84375,0.0,0.1875,0.0,0.0,0.0
1696242979486,0.0546875,-0.9892578,0.15527344,0.40625,0.1875,-0.15625,0.0,0.0,0.0
1696242979515,0.051757812,-0.99316406,0.140625,-0.1875,0.0,0.09375,0.0,0.0,0.0
1696242979574,0.05078125,-1.0,0.15429688,-0.5,0.0625,0.09375,0.0,0.0,0.0
1696242979609,0.046875,-0.9970703,0.1484375,0.0,-0.125,0.03125,0.0,0.0,0.0
1696242979632,0.052734375,-1.0009766,0.15917969,0.46875,-0.0625,0.1875,0.0,0.0,0.0
1696242979695,0.044921875,-0.9951172,0.14257812,0.21875,0.0,0.03125,0.0,0.0,0.0
1696242979725,0.048828125,-1.0,0.15722656,0.53125,-0.0625,0.03125,0.0,0.0,0.0
1696242979752,0.043945312,-0.9921875,0.1640625,0.59375,0.0,-0.03125,0.0,0.0,0.0
1696242979813,0.05078125,-0.9892578,0.1484375,0.21875,-0.0625,-0.09375,0.0,0.0,0.0
1696242979842,0.046875,-0.9902344,0.15234375,-0.0625,0.0625,-0.09375,0.0,0.0,0.0
1696242979871,0.053710938,-0.9941406,0.16015625,-0.3125,0.0625,-0.03125,0.0,0.0,0.0
1696242979932,0.05078125,-0.9951172,0.15625,0.125,0.0625,-0.03125,-50.375,-38.375,-62.75
1696242979993,0.052734375,-0.99316406,0.15332031,0.1875,0.0,0.1875,0.0,0.0,0.0
1696242979998,0.048828125,-0.9970703,0.14746094,0.28125,0.0,0.15625,0.0,0.0,0.0
1696242980053,0.051757812,-0.99609375,0.15820312,0.1875,-0.0625,0.09375,0.0,0.0,0.0
1696242980086,0.047851562,-0.9902344,0.14648438,0.1875,0.0625,-0.09375,0.0,0.0,0.0
1696242980112,0.051757812,-0.9970703,0.15429688,0.0,-0.0625,-0.09375,0.0,0.0,0.0
1696242980173,0.055664062,-0.9941406,0.15429688,0.0625,0.125,0.15625,0.0,0.0,0.0
1696242980202,0.044921875,-0.99121094,0.15820312,0.125,0.0,-0.03125,0.0,0.0,0.0
1696242980232,0.041015625,-0.9951172,0.15625,0.40625,-0.0625,0.09375,0.0,0.0,0.0
1696242980293,0.0546875,-0.9941406,0.17480469,0.0625,0.1875,0.03125,0.0,0.0,0.0
1696242980325,0.0546875,-0.99609375,0.14355469,-0.8125,0.1875,-0.03125,0.0,0.0,0.0
1696242980353,0.048828125,-0.9970703,0.15332031,-0.6875,0.125,-0.09375,0.0,0.0,0.0
1696242980415,0.056640625,-0.9970703,0.15234375,-0.5625,-0.0625,-0.03125,-51.0,-37.75,-62.625
1696242980446,0.053710938,-0.9921875,0.15332031,-0.0625,0.0625,0.25,0.0,0.0,0.0
1696242980501,0.046875,-0.99121094,0.15039062,0.125,0.0,0.09375,0.0,0.0,0.0
1696242980532,0.056640625,-0.9941406,0.16015625,0.1875,-0.0625,-0.03125,0.0,0.0,0.0
1696242980562,0.04296875,-0.99609375,0.15820312,0.0,0.0,-0.21875,0.0,0.0,0.0
1696242980593,0.056640625,-0.9902344,0.15527344,-0.125,0.0,-0.15625,0.0,0.0,0.0
1696242980652,0.045898438,-0.9951172,0.16015625,-0.3125,0.125,-0.21875,0.0,0.0,0.0
1696242980683,0.05078125,-0.9814453,0.15820312,-0.8125,0.0,-0.03125,0.0,0.0,0.0
1696242980743,0.05078125,-0.99902344,0.15820312,-0.25,0.125,-0.21875,0.0,0.0,0.0
1696242980774,0.05078125,-0.9951172,0.15234375,-0.0625,-0.1875,0.09375,0.0,0.0,0.0
1696242980804,0.05078125,-0.9902344,0.15917969,0.0,0.0,0.03125,0.0,0.0,0.0
1696242980834,0.045898438,-0.9873047,0.15917969,0.0,0.0,-0.03125,0.0,0.0,0.0
1696242980897,0.053710938,-0.9980469,0.15625,0.0625,0.0625,-0.15625,0.0,0.0,0.0
1696242980924,0.041992188,-0.9941406,0.15429688,-0.0625,0.0,-0.09375,-49.0625,-39.25,-63.0625
1696242980953,0.047851562,-0.9921875,0.15039062,-0.3125,0.125,-0.15625,0.0,0.0,0.0
1696242981014,0.045898438,-0.99121094,0.15429688,0.0,-0.125,-0.03125,0.0,0.0,0.0
1696242981043,0.046875,-0.9951172,0.15039062,0.1875,0.0625,-0.15625,0.0,0.0,0.0
1696242981072,0.0546875,-0.9921875,0.16015625,-0.3125,0.125,-0.15625,0.0,0.0,0.0
1696242981135,0.057617188,-0.99609375,0.1484375,-0.625,0.0,-0.15625,0.0,0.0,0.0
1696242981164,0.05859375,-0.9921875,0.15527344,-0.6875,-0.0625,0.09375,0.0,0.0,0.0
1696242981193,0.057617188,-1.0,0.15429688,0.0,0.0,0.09375,0.0,0.0,0.0
1696242981254,0.052734375,-0.9921875,0.16113281,0.125,0.0625,0.09375,0.0,0.0,0.0
1696242981283,0.051757812,-0.9892578,0.15820312,-0.0625,-0.0625,-0.21875,0.0,0.0,0.0
1696242981311,0.045898438,-0.99121094,0.15820312,0.21875,0.125,0.09375,0.0,0.0,0.0
1696242981374,0.05078125,-1.0029297,0.1640625,0.1875,0.0625,-0.15625,0.0,0.0,0.0
1696242981403,0.05078125,-0.9951172,0.16113281,-0.1875,-0.0625,-0.15625,-48.875,-37.3125,-62.4375
1696242981433,0.0546875,-0.9902344,0.14160156,-0.375,0.125,-0.21875,0.0,0.0,0.0
1696242981494,0.052734375,-0.99316406,0.15429688,-0.375,-0.0625,0.03125,0.0,0.0,0.0
1696242981529,0.046875,-0.9921875,0.14257812,-0.0625,0.0,0.15625,0.0,0.0,0.0
1696242981553,0.043945312,-0.9863281,0.14257812,-0.0625,-0.0625,-0.09375,0.0,0.0,0.0
1696242981614,0.047851562,-0.9951172,0.15527344,0.125,0.0625,0.09375,0.0,0.0,0.0
1696242981646,0.051757812,-1.0048828,0.13867188,-0.0625,0.0,-0.15625,0.0,0.0,0.0
1696242981672,0.046875,-0.99609375,0.14648438,0.0625,0.125,0.15625,0.0,0.0,0.0
1696242981736,0.057617188,-0.9951172,0.15332031,-0.0625,0.0625,-0.03125,0.0,0.0,0.0
1696242981763,0.047851562,-0.99121094,0.15234375,-0.125,0.0625,-0.09375,0.0,0.0,0.0
1696242981793,0.04296875,-1.0,0.1484375,0.0,-0.0625,-0.09375,0.0,0.0,0.0
1696242981857,0.05078125,-0.9921875,0.15234375,-0.0625,-0.0625,-0.03125,0.0,0.0,0.0
1696242981883,0.051757812,-0.9941406,0.15625,-0.3125,0.0625,-0.03125,0.0,0.0,0.0
1696242981943,0.057617188,-0.9921875,0.15234375,-0.1875,-0.03125,0.0625,-51.3125,-38.1875,-60.1875
1696242981974,0.044921875,-0.9941406,0.140625,-0.5625,-0.15625,0.0625,0.0,0.0,0.0
1696242982005,0.057617188,-0.99902344,0.15234375,-0.125,-0.09375,0.1875,0.0,0.0,0.0
1696242982031,0.048828125,-1.0009766,0.15820312,0.125,0.03125,0.0625,0.0,0.0,0.0
1696242982094,0.048828125,-0.99609375,0.16015625,0.28125,-0.03125,0.0,0.0,0.0,0.0
1696242982122,0.043945312,-0.9951172,0.16601562,0.53125,-0.03125,-0.0625,0.0,0.0,0.0
1696242982155,0.045898438,-0.9970703,0.14550781,0.46875,0.03125,0.0,0.0,0.0,0.0
1696242982212,0.05078125,-0.9921875,0.15234375,0.34375,0.03125,-0.1875,0.0,0.0,0.0
1696242982243,0.05859375,-0.98535156,0.14941406,-0.0625,-0.03125,-0.1875,0.0,0.0,0.0
1696242982277,0.05078125,-0.98828125,0.16015625,-0.375,-0.03125,0.1875,0.0,0.0,0.0
1696242982334,0.053710938,-0.99121094,0.15820312,0.0,0.03125,-0.0625,0.0,0.0,0.0
1696242982363,0.052734375,-0.9892578,0.14550781,0.0625,-0.09375,0.0,0.0,0.0,0.0
1696242982392,0.046875,-0.99902344,0.14355469,0.1875,0.03125,0.0625,-50.25,-37.4375,-60.8125
1696242982452,0.046875,-0.99902344,0.15039062,0.0625,-0.09375,0.0625,0.0,0.0,0.0
1696242982481,0.048828125,-0.9970703,0.15332031,0.1875,-0.03125,0.0,0.0,0.0,0.0
1696242982521,0.045898438,-1.0,0.1484375,0.125,0.09375,0.0,0.0,0.0,0.0
1696242982572,0.047851562,-0.98339844,0.1640625,0.0,-0.09375,-0.0625,0.0,0.0,0.0
1696242982603,0.051757812,-0.9951172,0.14941406,0.1875,0.03125,0.0625,0.0,0.0,0.0
1696242982631,0.043945312,-0.9921875,0.1484375,0.0625,-0.03125,-0.125,0.0,0.0,0.0
1696242982692,0.0546875,-0.9863281,0.1484375,0.125,-0.15625,0.1875,0.0,0.0,0.0
1696242982722,0.045898438,-0.98535156,0.15917969,0.59375,-0.03125,0.0625,0.0,0.0,0.0
1696242982752,0.052734375,-0.9892578,0.16308594,0.28125,0.21875,0.25,0.0,0.0,0.0
1696242982811,0.049804688,-0.99609375,0.16699219,0.1875,0.03125,0.125,0.0,0.0,0.0
1696242982850,0.05078125,-0.99902344,0.15820312,-0.1875,-0.03125,0.0,0.0,0.0,0.0
1696242982874,0.049804688,-0.9951172,0.15136719,-0.0625,-0.21875,0.1875,0.0,0.0,0.0
1696242982933,0.05078125,-0.98535156,0.15234375,0.21875,-0.09375,0.125,-50.5625,-36.6875,-61.25
1696242982975,0.047851562,-0.99121094,0.17089844,0.53125,0.03125,0.125,0.0,0.0,0.0
1696242983023,0.051757812,-0.9980469,0.16601562,0.59375,-0.03125,-0.0625,0.0,0.0,0.0
1696242983051,0.047851562,-0.99316406,0.15332031,0.59375,0.03125,-0.0625,0.0,0.0,0.0
1696242983081,0.048828125,-0.9892578,0.15429688,0.21875,-0.09375,-0.25,0.0,0.0,0.0
1696242983115,0.0546875,-0.9824219,0.15820312,0.125,-0.03125,0.0625,0.0,0.0,0.0
1696242983175,0.047851562,-0.9970703,0.14453125,0.125,-0.03125,0.0625,0.0,0.0,0.0
1696242983202,0.051757812,-0.9902344,0.16308594,0.40625,-0.03125,0.25,0.0,0.0,0.0
1696242983231,0.053710938,-0.9970703,0.15234375,0.1875,0.03125,0.1875,0.0,0.0,0.0
1696242983294,0.056640625,-0.98828125,0.15332031,0.28125,-0.03125,0.125,0.0,0.0,0.0
1696242983325,0.0546875,-1.0029297,0.15429688,0.125,-0.03125,0.1875,0.0,0.0,0.0
1696242983351,0.05078125,-0.99316406,0.16308594,0.21875,0.03125,-0.0625,0.0,0.0,0.0
1696242983412,0.043945312,-1.0,0.16113281,0.59375,0.09375,0.0625,-50.25,-38.9375,-59.4375
1696242983447,0.051757812,-0.9951172,0.15234375,0.40625,0.03125,-0.1875,0.0,0.0,0.0
1696242983471,0.048828125,-0.9902344,0.15234375,0.40625,-0.09375,0.0625,0.0,0.0,0.0
1696242983530,0.04296875,-0.98828125,0.13964844,0.28125,-0.03125,0.0625,0.0,0.0,0.0
1696242983562,0.05859375,-0.99316406,0.15429688,0.28125,-0.09375,0.125,0.0,0.0,0.0
1696242983596,0.04296875,-0.9824219,0.14550781,0.90625,0.03125,0.125,0.0,0.0,0.0
1696242983654,0.051757812,-1.0009766,0.15527344,0.1875,0.03125,-0.3125,0.0,0.0,0.0
1696242983682,0.043945312,-0.984375,0.17285156,-0.0625,-0.03125,0.0,0.0,0.0,0.0
1696242983710,0.041992188,-0.98828125,0.15527344,0.0,-0.21875,0.0,0.0,0.0,0.0
1696242983773,0.047851562,-0.9892578,0.15625,0.0625,-0.03125,0.125,0.0,0.0,0.0
1696242983809,0.041992188,-0.99316406,0.1640625,0.21875,-0.15625,0.3125,0.0,0.0,0.0
1696242983832,0.041015625,-0.9970703,0.15917969,0.46875,0.03125,0.1875,0.0,0.0,0.0
1696242983926,0.053710938,-0.9951172,0.15625,0.59375,-0.03125,0.0625,0.0,0.0,0.0
1696242983929,0.05078125,-0.9970703,0.15234375,0.125,-0.03125,-0.125,-50.375,-37.625,-62.4375
1696242983965,0.053710938,-0.99316406,0.15820312,0.125,-0.15625,-0.0625,0.0,0.0,0.0
1696242984012,0.043945312,-0.9980469,0.16015625,-0.0625,-0.15625,-0.0625,0.0,0.0,0.0
1696242984047,0.052734375,-1.0009766,0.16699219,-0.0625,-0.03125,0.1875,0.0,0.0,0.0
1696242984073,0.045898438,-0.9941406,0.14160156,0.0,-0.03125,0.0625,0.0,0.0,0.0
1696242984134,0.052734375,-0.9941406,0.15625,-0.0625,-0.09375,0.0625,0.0,0.0,0.0
1696242984161,0.0546875,-0.9941406,0.15332031,0.0625,0.03125,0.0625,0.0,0.0,0.0
1696242984190,0.051757812,-0.99609375,0.15332031,0.0625,-0.09375,-0.0625,0.0,0.0,0.0
1696242984252,0.051757812,-0.99316406,0.15722656,-0.0625,-0.03125,0.0,0.0,0.0,0.0
1696242984282,0.05078125,-0.99316406,0.14941406,-0.1875,-0.03125,-0.1875,0.0,0.0,0.0
1696242984312,0.046875,-0.99316406,0.15136719,0.0,0.03125,0.1875,0.0,0.0,0.0
1696242984374,0.045898438,-0.99902344,0.15917969,0.125,-0.03125,0.0,0.0,0.0,0.0
1696242984401,0.052734375,-0.98339844,0.14746094,-0.125,-0.03125,0.0625,-49.8125,-38.1875,-60.5
1696242984433,0.043945312,-0.99902344,0.1640625,0.40625,-0.09375,0.0,0.0,0.0,0.0
1696242984493,0.051757812,-0.9941406,0.15429688,-0.0625,0.03125,-0.0625,0.0,0.0,0.0
1696242984522,0.044921875,-0.9902344,0.15917969,-0.375,0.09375,-0.125,0.0,0.0,0.0
1696242984554,0.051757812,-1.0019531,0.14941406,-0.59375,0.09375,0.03125,0.0,0.0,0.0
1696242984613,0.055664062,-0.9902344,0.14257812,-0.59375,0.0,-0.09375,0.0,0.0,0.0
1696242984642,0.048828125,-0.9970703,0.16113281,-0.03125,-0.1875,0.15625,0.0,0.0,0.0
1696242984673,0.048828125,-0.9892578,0.15332031,0.03125,0.09375,-0.09375,0.0,0.0,0.0
1696242984734,0.048828125,-0.99121094,0.16699219,0.34375,0.09375,0.03125,0.0,0.0,0.0
1696242984764,0.049804688,-0.9970703,0.14160156,0.21875,0.0,0.09375,0.0,0.0,0.0
1696242984791,0.047851562,-0.99902344,0.16992188,-0.09375,-0.0625,-0.09375,0.0,0.0,0.0
1696242984854,0.05078125,-0.9873047,0.15722656,-0.21875,0.03125,-0.09375,0.0,0.0,0.0
1696242984883,0.047851562,-0.99316406,0.15625,-0.65625,0.03125,-0.09375,0.0,0.0,0.0
1696242984916,0.046875,-0.9941406,0.15136719,-0.34375,0.03125,0.15625,-49.625,-37.3125,-60.625
1696242984971,0.044921875,-0.9921875,0.14550781,-0.15625,0.03125,0.09375,0.0,0.0,0.0
1696242985003,0.053710938,-0.9921875,0.15722656,-0.21875,0.03125,0.21875,0.0,0.0,0.0
1696242985031,0.043945312,-1.0009766,0.1484375,0.03125,0.03125,0.15625,0.0,0.0,0.0
1696242985094,0.045898438,-0.9951172,0.1640625,-0.03125,0.0,-0.09375,0.0,0.0,0.0
1696242985124,0.051757812,-0.98339844,0.16210938,-0.15625,0.0,-0.09375,0.0,0.0,0.0
1696242985155,0.044921875,-0.9970703,0.16210938,-0.21875,0.03125,-0.09375,0.0,0.0,0.0
1696242985217,0.052734375,-0.99316406,0.15527344,0.09375,0.0,-0.03125,0.0,0.0,0.0
1696242985243,0.052734375,-0.99609375,0.15722656,0.21875,-0.0625,-0.03125,0.0,0.0,0.0
1696242985305,0.047851562,-0.9921875,0.15234375,-0.03125,0.03125,-0.03125,0.0,0.0,0.0
1696242985333,0.051757812,-0.99609375,0.15332031,0.03125,0.0,-0.03125,0.0,0.0,0.0
1696242985363,0.04296875,-0.9970703,0.1484375,-0.09375,0.03125,-0.03125,0.0,0.0,0.0
1696242985393,0.052734375,-0.99121094,0.15527344,-0.40625,0.03125,-0.09375,-49.5,-37.75,-61.5625
1696242985453,0.044921875,-0.9921875,0.14648438,-0.6875,0.09375,0.09375,0.0,0.0,0.0
1696242985493,0.043945312,-0.9892578,0.14648438,-0.65625,0.0,-0.09375,0.0,0.0,0.0
1696242985512,0.060546875,-0.9941406,0.16113281,-0.15625,0.03125,0.15625,0.0,0.0,0.0
1696242985571,0.043945312,-0.9921875,0.16308594,0.09375,0.03125,0.03125,0.0,0.0,0.0
1696242985602,0.049804688,-0.9892578,0.16308594,0.28125,0.0,-0.15625,0.0,0.0,0.0
1696242985630,0.043945312,-0.9941406,0.14550781,0.40625,0.0,-0.03125,0.0,0.0,0.0
1696242985693,0.051757812,-0.9951172,0.15820312,0.28125,0.15625,-0.03125,0.0,0.0,0.0
1696242985727,0.0546875,-0.9951172,0.15039062,-0.15625,0.0,-0.09375,0.0,0.0,0.0
1696242985760,0.040039062,-0.9941406,0.15722656,-0.46875,0.03125,-0.15625,0.0,0.0,0.0
1696242985815,0.049804688,-0.9980469,0.15820312,-0.46875,0.03125,-0.03125,0.0,0.0,0.0
1696242985846,0.045898438,-0.99609375,0.13574219,-0.09375,0.03125,0.15625,0.0,0.0,0.0
1696242985874,0.048828125,-0.99609375,0.15527344,-0.03125,0.0,-0.03125,0.0,0.0,0.0
1696242985934,0.053710938,-1.0019531,0.16015625,0.03125,0.09375,0.09375,-48.875,-38.6875,-61.6875
1696242985963,0.047851562,-1.0,0.1484375,-0.09375,0.0,-0.03125,0.0,0.0,0.0
1696242985995,0.046875,-1.0058594,0.15625,-0.03125,0.0,0.03125,0.0,0.0,0.0
1696242986054,0.053710938,-1.0,0.15039062,-0.21875,-0.0625,-0.15625,0.0,0.0,0.0
1696242986088,0.051757812,-0.99316406,0.14160156,-0.15625,-0.0625,-0.21875,0.0,0.0,0.0
1696242986113,0.057617188,-1.0009766,0.14550781,-0.03125,-0.0625,-0.21875,0.0,0.0,0.0
1696242986207,0.048828125,-0.99609375,0.15527344,0.03125,0.03125,-0.03125,0.0,0.0,0.0
1696242986214,0.041992188,-0.9921875,0.15625,0.15625,0.03125,0.03125,0.0,0.0,0.0
1696242986231,0.049804688,-0.9941406,0.140625,-0.03125,0.03125,0.03125,0.0,0.0,0.0
1696242986295,0.053710938,-1.0039062,0.15234375,0.15625,0.03125,0.03125,0.0,0.0,0.0
1696242986321,0.05078125,-0.9902344,0.15722656,-0.21875,0.03125,-0.15625,0.0,0.0,0.0
1696242986352,0.045898438,-0.9873047,0.16601562,-0.34375,0.03125,0.03125,0.0,0.0,0.0
1696242986411,0.049804688,-0.99316406,0.15527344,-0.53125,0.03125,-0.03125,-49.5,-38.9375,-60.8125
1696242986450,0.055664062,-0.99902344,0.15039062,-0.03125,-0.0625,0.15625,0.0,0.0,0.0
1696242986471,0.056640625,-1.0029297,0.15527344,0.28125,0.0,0.09375,0.0,0.0,0.0
1696242986534,0.046875,-0.9921875,0.15722656,0.34375,0.0,0.09375,0.0,0.0,0.0
1696242986565,0.052734375,-0.9941406,0.15234375,0.625,0.0,0.09375,0.0,0.0,0.0
1696242986591,0.052734375,-0.99609375,0.16601562,0.59375,0.0,-0.03125,0.0,0.0,0.0
1696242986656,0.048828125,-0.99121094,0.16113281,0.03125,0.09375,0.03125,0.0,0.0,0.0
1696242986682,0.055664062,-0.9921875,0.15332031,-0.15625,-0.125,-0.03125,0.0,0.0,0.0
1696242986711,0.05078125,-0.9980469,0.13964844,-0.34375,0.0,0.09375,0.0,0.0,0.0
1696242986771,0.051757812,-0.99902344,0.15136719,-0.03125,-0.0625,0.03125,0.0,0.0,0.0
1696242986802,0.043945312,-0.9970703,0.1484375,0.15625,0.03125,0.21875,0.0,0.0,0.0
1696242986835,0.053710938,-1.0078125,0.15136719,0.21875,0.03125,0.21875,0.0,0.0,0.0
1696242986893,0.046875,-0.99121094,0.15136719,0.40625,0.0,0.09375,0.0,0.0,0.0
1696242986923,0.051757812,-1.0029297,0.14355469,0.40625,-0.0625,-0.03125,-49.0625,-36.4375,-63.375
1696242986952,0.049804688,-0.9941406,0.15820312,0.625,0.03125,-0.15625,0.0,0.0,0.0
1696242987010,0.0546875,-0.9951172,0.14355469,0.15625,-0.0625,-0.09375,0.0,0.0,0.0
1696242987044,0.06347656,-1.0009766,0.1640625,0.28125,0.03125,0.09375,0.0,0.0,0.0
1696242987071,0.047851562,-0.99609375,0.16699219,0.15625,0.0,0.09375,0.0,0.0,0.0
1696242987135,0.060546875,-0.9814453,0.15234375,0.15625,-0.0625,0.03125,0.0,0.0,0.0
1696242987162,0.0546875,-0.9824219,0.15820312,0.40625,-0.125,0.15625,0.0,0.0,0.0
1696242987191,0.047851562,-0.99609375,0.15234375,0.09375,-0.03125,-0.0625,0.0,0.0,0.0
1696242987255,0.0546875,-0.9902344,0.15527344,-0.375,-0.03125,0.0,0.0,0.0,0.0
1696242987282,0.052734375,-0.99609375,0.15625,-0.375,0.03125,0.0625,0.0,0.0,0.0
1696242987314,0.044921875,-0.9873047,0.15136719,-0.5,-0.09375,-0.0625,0.0,0.0,0.0
1696242987375,0.055664062,-0.99121094,0.14355469,-0.03125,-0.125,0.1875,0.0,0.0,0.0
1696242987402,0.049804688,-0.9970703,0.140625,0.40625,0.03125,0.0625,-49.8125,-37.75,-61.5625
1696242987435,0.045898438,-0.9824219,0.14550781,0.59375,-0.09375,0.0625,0.0,0.0,0.0
1696242987497,0.049804688,-1.0009766,0.15527344,0.40625,-0.09375,0.0,0.0,0.0,0.0
1696242987524,0.043945312,-1.0,0.15625,0.09375,0.09375,-0.0625,0.0,0.0,0.0
1696242987583,0.0546875,-0.99121094,0.15917969,0.03125,-0.03125,-0.25,0.0,0.0,0.0
1696242987614,0.055664062,-0.9902344,0.1640625,-0.28125,-0.03125,-0.125,0.0,0.0,0.0
1696242987644,0.048828125,-0.9970703,0.14648438,-0.15625,-0.03125,0.0625,0.0,0.0,0.0
1696242987703,0.047851562,-0.9902344,0.15429688,-0.21875,-0.03125,-0.0625,0.0,0.0,0.0
1696242987763,0.053710938,-0.9980469,0.13867188,-0.21875,0.03125,0.125,0.0,0.0,0.0
1696242987769,0.04296875,-0.9951172,0.15136719,-0.15625,-0.03125,0.125,0.0,0.0,0.0
1696242987823,0.052734375,-0.9970703,0.171875,-0.375,0.03125,-0.0625,0.0,0.0,0.0
1696242987854,0.046875,-0.9941406,0.16210938,-0.625,-0.03125,-0.125,0.0,0.0,0.0
1696242987881,0.047851562,-0.99609375,0.16113281,-0.5,0.03125,0.0,0.0,0.0,0.0
1696242987944,0.056640625,-0.9814453,0.16210938,-0.28125,-0.03125,-0.1875,-50.125,-38.6875,-61.375
1696242987975,0.051757812,-0.99609375,0.1484375,-0.21875,-0.125,0.125,0.0,0.0,0.0
1696242988004,0.05078125,-0.9941406,0.15527344,0.34375,0.03125,0.0,0.0,0.0,0.0
1696242988065,0.045898438,-0.98535156,0.15429688,-0.375,0.03125,-0.3125,0.0,0.0,0.0
1696242988092,0.051757812,-0.9873047,0.15039062,-0.375,-0.09375,-0.25,0.0,0.0,0.0
1696242988156,0.051757812,-1.0078125,0.15039062,-0.75,-0.03125,-0.0625,0.0,0.0,0.0
1696242988184,0.052734375,-0.9892578,0.14941406,-0.75,-0.03125,-0.125,0.0,0.0,0.0
1696242988216,0.0546875,-0.9892578,0.16015625,-0.15625,-0.03125,0.0625,0.0,0.0,0.0
1696242988245,0.049804688,-0.9921875,0.15039062,-0.09375,0.09375,-0.125,0.0,0.0,0.0
1696242988305,0.043945312,-0.9941406,0.15429688,0.09375,-0.09375,-0.0625,0.0,0.0,0.0
1696242988331,0.048828125,-0.9892578,0.14941406,-0.21875,-0.03125,0.0625,0.0,0.0,0.0
1696242988363,0.052734375,-0.99316406,0.16210938,-0.375,-0.09375,-0.1875,0.0,0.0,0.0
1696242988425,0.05078125,-0.99316406,0.14550781,-0.625,-0.03125,-0.0625,-50.375,-38.0625,-61.6875
1696242988453,0.052734375,-0.99609375,0.16503906,-0.75,-0.03125,-0.1875,0.0,0.0,0.0
1696242988483,0.0546875,-0.99902344,0.15039062,-0.34375,0.03125,-0.125,0.0,0.0,0.0
1696242988542,0.05078125,-1.0,0.15332031,-0.28125,0.09375,0.0,0.0,0.0,0.0
1696242988570,0.049804688,-0.9951172,0.15332031,-0.09375,-0.03125,0.125,0.0,0.0,0.0
1696242988603,0.052734375,-0.9941406,0.15039062,0.09375,0.09375,0.0625,0.0,0.0,0.0
1696242988660,0.051757812,-0.9970703,0.14160156,-0.34375,-0.03125,-0.0625,0.0,0.0,0.0
1696242988691,0.041992188,-0.9902344,0.15917969,-0.09375,-0.03125,0.0,0.0,0.0,0.0
1696242988721,0.048828125,-0.99316406,0.15722656,0.09375,0.03125,-0.0625,0.0,0.0,0.0
1696242988784,0.057617188,-0.9902344,0.13867188,-0.09375,0.21875,-0.25,0.0,0.0,0.0
1696242988817,0.047851562,-0.9951172,0.15039062,-0.15625,-0.09375,0.0,0.0,0.0,0.0
1696242988842,0.0546875,-0.9902344,0.16503906,-0.09375,0.09375,-0.125,0.0,0.0,0.0
1696242988903,0.051757812,-0.99316406,0.15039062,-0.34375,0.03125,-0.0625,0.0,0.0,0.0
1696242988932,0.053710938,-0.99609375,0.15039062,-0.75,-0.09375,0.0,-50.5625,-36.6875,-60.8125
1696242988963,0.0546875,-0.98828125,0.15234375,-0.75,-0.125,0.0,0.0,0.0,0.0
1696242989023,0.051757812,-1.0019531,0.15625,-0.28125,-0.09375,0.25,0.0,0.0,0.0
1696242989051,0.047851562,-0.99121094,0.14257812,-0.21875,0.03125,-0.0625,0.0,0.0,0.0
1696242989083,0.041992188,-0.99121094,0.15820312,-0.21875,0.03125,0.0,0.0,0.0,0.0
1696242989143,0.041015625,-0.99609375,0.15722656,-0.21875,-0.03125,-0.1875,0.0,0.0,0.0
1696242989173,0.045898438,-0.9951172,0.16308594,-0.21875,-0.09375,-0.0625,0.0,0.0,0.0
1696242989200,0.0546875,-0.9921875,0.16210938,-0.4375,-0.03125,-0.0625,0.0,0.0,0.0
1696242989263,0.048828125,-0.99902344,0.15917969,-0.5625,-0.03125,-0.0625,0.0,0.0,0.0
1696242989299,0.05078125,-0.99609375,0.15429688,-0.34375,-0.03125,-0.0625,0.0,0.0,0.0
1696242989328,0.05078125,-0.9892578,0.16308594,-0.09375,0.03125,0.0625,0.0,0.0,0.0
1696242989382,0.046875,-0.99609375,0.15625,-0.15625,-0.03125,0.0625,0.0,0.0,0.0
1696242989412,0.055664062,-1.0009766,0.15332031,0.03125,0.09375,0.0,-49.625,-38.375,-61.125
1696242989442,0.048828125,-0.9941406,0.15429688,-0.15625,-0.03125,-0.0625,0.0,0.0,0.0
1696242989504,0.051757812,-0.98828125,0.15429688,-0.15625,-0.03125,0.0,0.0,0.0,0.0
1696242989535,0.047851562,-1.0,0.14453125,-0.34375,-0.09375,-0.0625,0.0,0.0,0.0
1696242989571,0.043945312,-0.9970703,0.15722656,-0.28125,0.03125,0.0,0.0,0.0,0.0
1696242989622,0.053710938,-0.9970703,0.1484375,-0.15625,-0.09375,0.0,0.0,0.0,0.0
1696242989652,0.045898438,-0.9970703,0.15625,-0.21875,-0.03125,-0.125,0.0,0.0,0.0
1696242989687,0.052734375,-0.9941406,0.15527344,-0.5625,-0.09375,0.0625,0.0,0.0,0.0
1696242989743,0.044921875,-0.9951172,0.140625,-0.15625,0.03125,0.0625,0.0,0.0,0.0
1696242989771,0.047851562,-1.0,0.14648438,-0.375,-0.03125,-0.0625,0.0,0.0,0.0
1696242989802,0.045898438,-1.0058594,0.15820312,-0.21875,0.03125,0.0,0.0,0.0,0.0
1696242989863,0.055664062,-0.99609375,0.15820312,-0.28125,0.03125,-0.125,0.0,0.0,0.0
1696242989892,0.0625,-0.9892578,0.16113281,0.21875,-0.1875,0.125,0.0,0.0,0.0
1696242989923,0.052734375,-0.9970703,0.15039062,0.46875,-0.125,0.25,-48.625,-38.0625,-61.6875
1696242989984,0.043945312,-0.9970703,0.14648438,0.46875,-0.09375,0.125,0.0,0.0,0.0
1696242990013,0.047851562,-0.9902344,0.15625,0.40625,-0.09375,0.0,0.0,0.0,0.0
1696242990044,0.0546875,-0.9892578,0.15039062,0.03125,-0.09375,-0.3125,0.0,0.0,0.0
1696242990136,0.055664062,-0.9921875,0.15722656,-0.15625,-0.03125,-0.3125,0.0,0.0,0.0
1696242990140,0.05078125,-0.9921875,0.15722656,-0.21875,-0.09375,0.0625,0.0,0.0,0.0
1696242990162,0.041992188,-0.9951172,0.15625,-0.28125,-0.03125,0.125,0.0,0.0,0.0
1696242990224,0.06347656,-0.9902344,0.1484375,0.03125,-0.03125,0.1875,0.0,0.0,0.0
1696242990252,0.043945312,-0.9970703,0.16601562,-0.03125,-0.03125,0.125,0.0,0.0,0.0
1696242990283,0.045898438,-0.9951172,0.15039062,0.15625,0.03125,-0.0625,0.0,0.0,0.0
1696242990345,0.051757812,-0.99902344,0.14257812,0.15625,0.03125,-0.125,0.0,0.0,0.0
1696242990371,0.053710938,-0.9873047,0.15136719,0.21875,0.03125,-0.1875,0.0,0.0,0.0
1696242990404,0.053710938,-0.99609375,0.1484375,-0.03125,-0.09375,0.0625,-49.375,-38.6875,-61.375
1696242990464,0.047851562,-0.9863281,0.16503906,0.09375,0.03125,0.0625,0.0,0.0,0.0
1696242990493,0.048828125,-0.9921875,0.1640625,0.21875,-0.09375,0.0625,0.0,0.0,0.0
1696242990522,0.051757812,-0.9941406,0.15429688,0.15625,-0.125,0.0,0.0,0.0,0.0
1696242990585,0.048828125,-0.9902344,0.16210938,-0.03125,-0.09375,0.125,0.0,0.0,0.0
1696242990612,0.04296875,-0.9921875,0.15917969,0.46875,-0.125,0.1875,0.0,0.0,0.0
1696242990643,0.05078125,-0.9863281,0.16210938,-0.28125,0.09375,-0.125,0.0,0.0,0.0
1696242990703,0.047851562,-0.9980469,0.14746094,-0.21875,-0.03125,-0.125,0.0,0.0,0.0
1696242990796,0.048828125,-0.99902344,0.16796875,-0.375,0.03125,-0.0625,0.0,0.0,0.0
1696242990806,0.053710938,-0.9863281,0.15039062,-0.03125,-0.03125,0.0625,0.0,0.0,0.0
1696242990821,0.057617188,-0.99902344,0.16113281,0.15625,-0.09375,0.1875,0.0,0.0,0.0
1696242990851,0.04296875,-0.9980469,0.15039062,0.15625,-0.03125,0.0,0.0,0.0,0.0
1696242990881,0.044921875,-0.99316406,0.15234375,0.65625,-0.03125,0.0625,0.0,0.0,0.0
1696242990975,0.049804688,-0.9921875,0.15820312,0.15625,-0.03125,-0.0625,-49.8125,-38.5,-60.5
1696242990981,0.051757812,-0.9873047,0.15917969,0.28125,-0.125,-0.0625,0.0,0.0,0.0
1696242991002,0.05078125,-0.9951172,0.16601562,-0.09375,0.15625,-0.125,0.0,0.0,0.0
1696242991097,0.045898438,-0.9941406,0.15625,-0.34375,-0.125,0.0,0.0,0.0,0.0
1696242991102,0.047851562,-0.9921875,0.15332031,-0.09375,-0.03125,0.0625,0.0,0.0,0.0
1696242991152,0.046875,-0.99121094,0.15234375,-0.15625,-0.03125,0.0625,0.0,0.0,0.0
1696242991181,0.057617188,-0.9873047,0.1640625,0.03125,-0.03125,0.1875,0.0,0.0,0.0
1696242991211,0.046875,-0.99609375,0.15429688,-0.21875,-0.03125,0.0625,0.0,0.0,0.0
1696242991241,0.052734375,-0.9980469,0.15917969,-0.4375,0.03125,-0.1875,0.0,0.0,0.0
1696242991301,0.041992188,-0.99609375,0.16699219,-0.5625,0.03125,-0.1875,0.0,0.0,0.0
1696242991332,0.048828125,-0.9951172,0.15625,-0.09375,0.09375,-0.25,0.0,0.0,0.0
1696242991362,0.047851562,-0.9951172,0.16308594,-0.03125,0.03125,-0.0625,0.0,0.0,0.0
1696242991420,0.057617188,-0.9873047,0.16894531,0.03125,-0.125,0.125,-49.625,-38.0625,-61.6875
1696242991482,0.044921875,-0.9951172,0.1640625,0.34375,0.03125,0.1875,0.0,0.0,0.0
1696242991485,0.044921875,-0.9941406,0.15136719,-0.5,0.03125,-0.125,0.0,0.0,0.0
1696242991571,0.047851562,-0.99609375,0.15039062,-0.9375,-0.03125,-0.125,0.0,0.0,0.0
1696242991575,0.05078125,-0.9921875,0.15136719,-1.125,0.03125,-0.0625,0.0,0.0,0.0
1696242991606,0.047851562,-0.9902344,0.17480469,-0.6875,-0.03125,-0.0625,0.0,0.0,0.0
1696242991691,0.05078125,-1.0,0.15527344,-0.21875,-0.03125,0.125,0.0,0.0,0.0
1696242991694,0.045898438,-1.0039062,0.15429688,-0.15625,-0.03125,0.0,0.0,0.0,0.0
1696242991720,0.045898438,-0.9921875,0.16210938,0.21875,0.09375,0.0625,0.0,0.0,0.0
1696242991782,0.049804688,-0.9970703,0.16015625,-0.03125,0.09375,-0.25,0.0,0.0,0.0
1696242991811,0.046875,-0.9863281,0.15136719,-0.28125,0.03125,-0.1875,0.0,0.0,0.0
1696242991841,0.05859375,-0.98535156,0.15332031,-0.625,0.03125,-0.3125,0.0,0.0,0.0
1696242991901,0.047851562,-0.98828125,0.15917969,-0.6875,0.03125,0.0,0.0,0.0,0.0
1696242991935,0.057617188,-0.98828125,0.15429688,-0.34375,0.03125,0.0,-49.8125,-37.75,-62.625
1696242991960,0.045898438,-0.9921875,0.15917969,-0.28125,-0.09375,0.0,0.0,0.0,0.0
1696242992021,0.048828125,-0.99902344,0.17285156,-0.15625,-0.03125,-0.0625,0.0,0.0,0.0
1696242992054,0.045898438,-0.9951172,0.17089844,-0.21875,-0.03125,-0.0625,0.0,0.0,0.0
1696242992142,0.048828125,-0.9951172,0.15136719,-0.15625,-0.03125,0.0625,0.0,0.0,0.0
1696242992146,0.052734375,-0.99121094,0.1484375,-0.15625,-0.03125,-0.125,0.0,0.0,0.0
1696242992175,0.059570312,-0.99609375,0.15820312,-0.15625,0.03125,-0.125,0.0,0.0,0.0
1696242992201,0.05078125,-0.9951172,0.15039062,-0.375,-0.03125,-0.0625,0.0,0.0,0.0
1696242992260,0.053710938,-0.99609375,0.16113281,-0.5,0.09375,0.0,0.0,0.0,0.0
1696242992292,0.055664062,-0.99121094,0.15234375,-0.15625,-0.125,0.0,0.0,0.0,0.0
1696242992323,0.046875,-0.984375,0.14941406,-0.5,0.09375,-0.125,0.0,0.0,0.0
1696242992382,0.05078125,-0.984375,0.15136719,-0.5,0.03125,-0.125,0.0,0.0,0.0
1696242992412,0.052734375,-0.99902344,0.15136719,-0.6875,-0.03125,-0.0625,-51.0,-38.9375,-61.5625
1696242992442,0.056640625,-0.9921875,0.15039062,-0.6875,-0.125,0.125,0.0,0.0,0.0
1696242992505,0.047851562,-0.9951172,0.14941406,-0.15625,-0.125,0.0625,0.0,0.0,0.0
1696242992532,0.049804688,-1.0048828,0.15332031,0.15625,0.03125,0.0,0.0,0.0,0.0
1696242992564,0.052734375,-1.0,0.15820312,0.09375,0.03125,0.0,0.0,0.0,0.0
1696242992624,0.047851562,-1.0029297,0.14550781,0.40625,-0.03125,-0.0625,0.0,0.0,0.0
1696242992652,0.047851562,-0.9941406,0.15917969,0.15625,-0.03125,-0.1875,0.0,0.0,0.0
1696242992682,0.061523438,-0.9970703,0.16308594,-0.15625,0.03125,-0.125,0.0,0.0,0.0
1696242992743,0.046875,-0.99316406,0.14746094,-0.75,-0.03125,0.0,0.0,0.0,0.0
1696242992778,0.05078125,-0.98535156,0.14941406,-0.6875,-0.03125,0.0,0.0,0.0,0.0
1696242992801,0.057617188,-1.0029297,0.14941406,-0.375,-0.03125,0.125,0.0,0.0,0.0
1696242992863,0.040039062,-0.99609375,0.15820312,-0.375,-0.125,0.25,0.0,0.0,0.0
1696242992892,0.049804688,-0.9902344,0.17382812,-0.15625,-0.03125,0.0,0.0,0.0,0.0
1696242992923,0.056640625,-0.99316406,0.16308594,-0.21875,-0.03125,-0.125,-50.125,-36.5625,-60.625
1696242992987,0.051757812,-0.9921875,0.15136719,-0.4375,0.09375,-0.1875,0.0,0.0,0.0
1696242993014,0.051757812,-0.9921875,0.15429688,-0.5,-0.1875,-0.1875,0.0,0.0,0.0
1696242993041,0.055664062,-0.99902344,0.15234375,-0.15625,-0.09375,-0.0625,0.0,0.0,0.0
1696242993106,0.046875,-0.9980469,0.15136719,0.03125,-0.09375,0.0625,0.0,0.0,0.0
1696242993133,0.047851562,-0.9970703,0.15136719,0.21875,-0.09375,0.125,0.0,0.0,0.0
1696242993168,0.044921875,-0.9873047,0.15527344,-0.03125,0.15625,0.0,0.0,0.0,0.0
1696242993225,0.05078125,-0.9863281,0.14550781,0.03125,0.03125,-0.1875,0.0,0.0,0.0
1696242993253,0.055664062,-0.98828125,0.15039062,0.09375,0.03125,-0.125,0.0,0.0,0.0
1696242993287,0.045898438,-0.99121094,0.16699219,-0.28125,-0.09375,0.0,0.0,0.0,0.0
1696242993345,0.048828125,-0.9951172,0.16015625,-0.6875,-0.125,0.1875,0.0,0.0,0.0
1696242993374,0.060546875,-0.9921875,0.15136719,-0.75,-0.09375,0.0,0.0,0.0,0.0
1696242993404,0.052734375,-0.9921875,0.14648438,-0.34375,-0.125,0.0625,-50.6875,-38.0625,-61.375
1696242993465,0.051757812,-1.0029297,0.140625,-0.34375,-0.125,-0.125,0.0,0.0,0.0
1696242993495,0.05078125,-1.0009766,0.1484375,-0.15625,-0.09375,0.0625,0.0,0.0,0.0
1696242993524,0.048828125,-1.0039062,0.15332031,0.34375,-0.09375,-0.0625,0.0,0.0,0.0
1696242993582,0.047851562,-0.99121094,0.16210938,0.40625,-0.09375,-0.125,0.0,0.0,0.0
1696242993612,0.057617188,-0.9970703,0.171875,0.28125,-0.03125,-0.25,0.0,0.0,0.0
1696242993644,0.045898438,-0.9941406,0.17480469,-0.34375,-0.09375,0.0625,0.0,0.0,0.0
1696242993704,0.052734375,-0.99316406,0.16796875,-0.4375,0.03125,0.0,0.0,0.0,0.0
1696242993733,0.047851562,-0.99609375,0.15332031,0.09375,-0.125,0.125,0.0,0.0,0.0
1696242993762,0.05859375,-0.9941406,0.15527344,0.09375,0.03125,0.125,0.0,0.0,0.0
1696242993822,0.052734375,-0.9941406,0.14941406,0.09375,-0.09375,0.0,0.0,0.0,0.0
1696242993851,0.055664062,-0.9863281,0.16015625,0.53125,0.15625,0.0,0.0,0.0,0.0
1696242993882,0.052734375,-0.9873047,0.14941406,0.15625,0.03125,-0.125,0.0,0.0,0.0
1696242993946,0.049804688,-0.9970703,0.15136719,-0.09375,0.03125,0.1875,-51.3125,-37.75,-62.625
1696242993974,0.0546875,-0.98535156,0.14550781,-0.15625,-0.09375,0.0,0.0,0.0,0.0
1696242994001,0.052734375,-0.99121094,0.16308594,0.03125,-0.09375,0.0625,0.0,0.0,0.0
1696242994063,0.052734375,-0.99316406,0.15625,0.21875,-0.125,0.0625,0.0,0.0,0.0
1696242994098,0.057617188,-0.98535156,0.16308594,0.15625,-0.03125,-0.0625,0.0,0.0,0.0
1696242994122,0.044921875,-1.0048828,0.15332031,-0.03125,-0.03125,-0.0625,0.0,0.0,0.0
1696242994184,0.044921875,-0.9902344,0.15429688,0.59375,-0.03125,-0.0625,0.0,0.0,0.0
1696242994214,0.041992188,-0.99609375,0.15820312,0.15625,0.09375,-0.1875,0.0,0.0,0.0
1696242994244,0.052734375,-0.99316406,0.14160156,-0.21875,-0.03125,-0.125,0.0,0.0,0.0
1696242994306,0.057617188,-0.9921875,0.15820312,-0.5,-0.03125,-0.0625,0.0,0.0,0.0
1696242994332,0.052734375,-0.9951172,0.1484375,-0.15625,-0.09375,0.0625,0.0,0.0,0.0
1696242994369,0.051757812,-0.9921875,0.15820312,0.28125,-0.09375,0.1875,0.0,0.0,0.0
1696242994423,0.037109375,-0.9941406,0.16503906,0.15625,-0.03125,0.125,-49.625,-39.125,-61.375
1696242994452,0.047851562,-0.9921875,0.15234375,0.53125,-0.03125,-0.0625,0.0,0.0,0.0
1696242994485,0.055664062,-0.9902344,0.14746094,0.40625,-0.09375,-0.125,0.0,0.0,0.0
1696242994547,0.056640625,-0.9951172,0.14355469,-0.09375,0.09375,-0.0625,0.0,0.0,0.0
1696242994579,0.044921875,-0.99609375,0.1640625,-0.4375,-0.09375,-0.0625,0.0,0.0,0.0
1696242994603,0.05078125,-0.98046875,0.15625,-0.625,-0.09375,-0.125,0.0,0.0,0.0
1696242994664,0.04296875,-0.9902344,0.1640625,-0.375,-0.09375,0.125,0.0,0.0,0.0
1696242994694,0.047851562,-0.99121094,0.15917969,-0.03125,-0.125,0.125,0.0,0.0,0.0
1696242994727,0.052734375,-0.9951172,0.16894531,0.21875,-0.09375,0.125,0.0,0.0,0.0
1696242994783,0.057617188,-0.99316406,0.15625,0.34375,-0.09375,0.1875,0.0,0.0,0.0
