,timestamp,accel_x,accel_y,accel_z,gyro_x,gyro_y,gyro_z,mag_x,mag_y,mag_z,ind
0,1696243449131,-1.6220703,0.17578125,-0.25683594,46.75,-132.78125,-58.625,0.0,0.0,0.0,0
1,1696243449171,-1.0878906,0.17480469,0.09375,138.625,-198.15625,-96.15625,0.0,0.0,0.0,1
2,1696243449211,-0.5625,0.16699219,0.14160156,74.40625,-164.15625,-32.75,0.0,0.0,0.0,2
3,1696243449251,-0.50097656,-0.030273438,-0.076171875,132.875,-124.4375,-16.28125,0.0,0.0,0.0,3
4,1696243449291,-0.4404297,0.107421875,-0.15820312,138.84375,-118.6875,13.25,0.0,0.0,0.0,4
5,1696243449331,-0.36914062,0.27539062,0.12597656,93.125,-70.59375,32.75,0.0,0.0,0.0,5
6,1696243449371,-0.4658203,0.0029296875,0.66796875,6.90625,-5.96875,30.90625,0.0,0.0,0.0,6
7,1696243449411,-0.7529297,0.09863281,1.3710938,-27.40625,48.375,-14.3125,-103.1875,15.9375,-61.875,7
8,1696243449451,-0.97265625,-0.1015625,1.1142578,85.9375,3.375,-36.78125,0.0,0.0,0.0,8
9,1696243449491,-0.6855469,0.22558594,0.67089844,75.1875,-15.78125,-34.46875,0.0,0.0,0.0,9
10,1696243449531,-0.8535156,0.60839844,0.43945312,25.5,-0.40625,-31.90625,0.0,0.0,0.0,10
11,1696243449571,-1.8408203,1.2958984,0.87109375,-20.09375,85.40625,21.8125,0.0,0.0,0.0,11
12,1696243449611,-0.5732422,-0.48828125,-0.69140625,-148.4375,131.3125,4.46875,0.0,0.0,0.0,12
13,1696243449651,-1.4287109,-0.4033203,0.19628906,-148.1875,173.1875,-37.875,0.0,0.0,0.0,13
14,1696243449691,-0.87402344,0.2607422,0.15039062,-55.0625,149.8125,-18.96875,0.0,0.0,0.0,14
15,1696243449731,-0.74609375,0.14160156,0.0107421875,-138.25,172.75,34.09375,0.0,0.0,0.0,15
16,1696243449771,-0.99902344,-0.37695312,0.041015625,-106.375,151.875,36.9375,0.0,0.0,0.0,16
17,1696243449811,-0.89160156,0.059570312,0.19042969,-63.15625,110.90625,17.21875,0.0,0.0,0.0,17
18,1696243449851,-0.7949219,0.036132812,-0.068359375,-83.9375,100.4375,17.21875,0.0,0.0,0.0,18
19,1696243449891,-0.8857422,-0.19042969,-0.08691406,-74.28125,103.40625,28.34375,-99.0,19.0625,-99.5,19
20,1696243449931,-1.2109375,-0.009765625,0.36035156,-44.125,97.5625,23.28125,0.0,0.0,0.0,20
21,1696243449971,-1.2675781,-0.2861328,0.1953125,-44.1875,41.40625,24.3125,0.0,0.0,0.0,21
22,1696243450011,-1.2548828,0.16503906,0.15722656,-39.6875,-7.71875,5.4375,0.0,0.0,0.0,22
23,1696243450051,-1.3759766,-0.19824219,0.27539062,-29.46875,-80.53125,19.375,0.0,0.0,0.0,23
24,1696243450091,-1.4892578,-0.13574219,-0.37402344,16.25,-178.5,-17.9375,0.0,0.0,0.0,24
25,1696243450131,-1.3837891,0.30566406,-0.4189453,69.875,-207.75,-29.75,0.0,0.0,0.0,25
26,1696243450171,-1.7822266,-0.02734375,0.1484375,-22.71875,-216.84375,-22.5,0.0,0.0,0.0,26
27,1696243450211,-2.0,0.06347656,-0.12109375,186.34375,-146.53125,-114.65625,0.0,0.0,0.0,27
28,1696243450251,-0.65234375,0.10449219,-0.21484375,131.96875,-159.71875,-145.1875,0.0,0.0,0.0,28
29,1696243450291,-0.3876953,0.20410156,-0.109375,159.375,-125.59375,-75.71875,0.0,0.0,0.0,29
30,1696243450331,-0.12988281,0.0,-0.05859375,148.0625,-71.09375,-47.03125,0.0,0.0,0.0,30
31,1696243450371,-0.140625,0.21875,-0.39746094,113.34375,-43.875,-20.3125,0.0,0.0,0.0,31
32,1696243450411,-0.16601562,0.3095703,0.03515625,32.71875,57.8125,0.5,-100.625,10.0625,-63.0625,32
33,1696243450451,-0.9033203,0.02734375,0.88964844,-49.75,183.5,-1.8125,0.0,0.0,0.0,33
34,1696243450491,-2.0,-0.5234375,1.4052734,122.75,46.40625,-12.1875,0.0,0.0,0.0,34
35,1696243450531,-0.12011719,0.33398438,0.41601562,66.15625,-178.09375,-45.15625,0.0,0.0,0.0,35
36,1696243450571,-1.9355469,0.09082031,0.81933594,140.125,14.90625,47.3125,0.0,0.0,0.0,36
37,1696243450611,-0.53222656,1.0917969,-0.4736328,-167.46875,-1.375,-19.625,0.0,0.0,0.0,37
38,1696243450651,-0.93066406,-0.66796875,-0.28320312,-71.96875,116.65625,39.5,0.0,0.0,0.0,38
39,1696243450691,-1.7060547,-0.57128906,0.18945312,-222.40625,154.375,-50.6875,0.0,0.0,0.0,39
40,1696243450731,-0.50097656,0.7783203,0.3408203,-61.59375,137.53125,10.65625,0.0,0.0,0.0,40
41,1696243450771,-0.7236328,-0.13964844,-0.14160156,-124.875,182.28125,49.21875,0.0,0.0,0.0,41
42,1696243450811,-1.2578125,-0.58691406,-0.018554688,-88.1875,126.25,40.5,0.0,0.0,0.0,42
43,1696243450851,-0.71875,0.21875,0.053710938,-15.625,96.625,19.3125,0.0,0.0,0.0,43
44,1696243450891,-0.7998047,0.09765625,-0.0859375,-65.4375,99.15625,32.96875,-99.0,15.8125,-95.875,44
45,1696243450931,-1.0966797,-0.28125,0.12695312,-39.4375,90.90625,27.0625,0.0,0.0,0.0,45
46,1696243450971,-1.2167969,-0.19335938,0.16015625,-59.21875,64.34375,1.5,0.0,0.0,0.0,46
47,1696243451011,-1.2871094,-0.099609375,0.25585938,-60.5625,31.8125,4.15625,0.0,0.0,0.0,47
48,1696243451051,-1.1855469,-0.119140625,0.19140625,-60.0625,-10.96875,14.3125,0.0,0.0,0.0,48
49,1696243451091,-1.3681641,-0.061523438,0.24707031,-37.28125,-81.15625,3.625,0.0,0.0,0.0,49
50,1696243451131,-1.359375,-0.041992188,-0.3701172,-11.28125,-169.34375,-35.0625,0.0,0.0,0.0,50
51,1696243451171,-1.5195312,0.3466797,-0.1875,25.15625,-189.25,-59.65625,0.0,0.0,0.0,51
52,1696243451211,-1.6289062,0.43066406,0.296875,-124.5625,-185.53125,-47.34375,0.0,0.0,0.0,52
53,1696243451251,-1.8876953,0.35058594,0.171875,223.875,-207.4375,-103.9375,0.0,0.0,0.0,53
54,1696243451291,-0.53222656,-0.0068359375,-0.36816406,101.0625,-159.9375,-96.34375,0.0,0.0,0.0,54
55,1696243451331,-0.328125,-0.103515625,-0.087890625,155.6875,-131.5,-54.3125,0.0,0.0,0.0,55
56,1696243451371,-0.18066406,0.057617188,0.055664062,106.8125,-83.21875,-10.34375,0.0,0.0,0.0,56
57,1696243451411,-0.09765625,0.21679688,-0.06542969,59.875,-11.875,-8.875,-99.875,12.3125,-66.5,57
58,1696243451451,-0.01171875,0.13476562,0.13867188,20.875,121.90625,4.21875,0.0,0.0,0.0,58
59,1696243451491,-0.90527344,0.0029296875,1.4951172,11.59375,269.6875,-0.03125,0.0,0.0,0.0,59
60,1696243451531,-2.0,-0.21679688,0.93066406,22.71875,-68.34375,-35.5,0.0,0.0,0.0,60
61,1696243451571,1.3115234,0.69921875,0.016601562,145.375,-131.3125,-34.15625,0.0,0.0,0.0,61
62,1696243451611,-1.8154297,0.2998047,-1.4238281,-103.09375,122.75,64.84375,0.0,0.0,0.0,62
63,1696243451651,-1.0244141,-1.2714844,-1.0283203,-20.8125,-31.53125,-61.0,0.0,0.0,0.0,63
64,1696243451691,-0.0234375,0.030273438,-0.50390625,-124.21875,144.84375,13.25,0.0,0.0,0.0,64
65,1696243451731,-2.0,-0.5751953,0.13671875,-157.90625,144.78125,42.625,0.0,0.0,0.0,65
66,1696243451771,-0.6591797,0.4423828,0.119140625,-96.1875,143.5625,-6.03125,0.0,0.0,0.0,66
67,1696243451811,-0.6738281,0.20214844,-0.068359375,-54.1875,140.875,48.59375,0.0,0.0,0.0,67
68,1696243451851,-0.81152344,-0.27539062,0.0068359375,-75.9375,107.5,5.40625,0.0,0.0,0.0,68
69,1696243451891,-0.80859375,0.14746094,-0.09082031,-83.5625,86.9375,10.65625,-98.25,17.875,-97.375,69
70,1696243451931,-0.9716797,-0.14355469,0.020507812,-51.03125,91.875,28.84375,0.0,0.0,0.0,70
71,1696243451971,-1.2285156,-0.12011719,0.20117188,-61.875,106.53125,19.0625,0.0,0.0,0.0,71
72,1696243452011,-1.2949219,-0.055664062,0.3125,-84.21875,64.71875,11.625,0.0,0.0,0.0,72
73,1696243452051,-1.1181641,-0.38476562,-0.07519531,-46.15625,3.5625,21.3125,0.0,0.0,0.0,73
74,1696243452091,-1.3681641,0.37597656,0.2626953,-40.96875,-31.65625,-9.3125,0.0,0.0,0.0,74
75,1696243452131,-1.2353516,-0.34570312,-0.08886719,-11.0625,-107.9375,-4.1875,0.0,0.0,0.0,75
76,1696243452171,-1.4296875,0.3125,-0.4892578,127.25,-182.15625,-24.5,0.0,0.0,0.0,76
77,1696243452211,-1.7148438,0.24121094,0.16992188,-38.21875,-205.125,-42.34375,0.0,0.0,0.0,77
78,1696243452251,-1.5048828,0.4091797,-0.31933594,-110.59375,-147.4375,-78.84375,0.0,0.0,0.0,78
79,1696243452291,-1.1835938,-0.08300781,0.39160156,167.40625,-224.28125,-107.9375,0.0,0.0,0.0,79
80,1696243452331,-0.5517578,-0.0703125,-0.091796875,124.625,-153.46875,-60.15625,0.0,0.0,0.0,80
81,1696243452371,-0.2705078,0.06738281,-0.09082031,177.71875,-108.875,-41.0625,0.0,0.0,0.0,81
82,1696243452411,-0.19042969,0.16894531,-0.18164062,117.625,-67.65625,-22.4375,-103.0625,14.3125,-69.8125,82
83,1696243452451,-0.10253906,0.2626953,-0.119140625,54.3125,7.65625,-7.96875,0.0,0.0,0.0,83
84,1696243452491,-0.26367188,0.059570312,0.40429688,-3.1875,156.40625,-8.21875,0.0,0.0,0.0,84
85,1696243452531,-1.6386719,0.19921875,1.8300781,-51.625,206.25,-4.625,0.0,0.0,0.0,85
86,1696243452571,-2.0,-0.33691406,0.76171875,21.4375,-128.46875,-60.65625,0.0,0.0,0.0,86
87,1696243452611,1.0087891,0.45410156,0.20703125,131.34375,-94.65625,-15.375,0.0,0.0,0.0,87
88,1696243452651,-2.0,0.14257812,-1.1533203,-86.0625,103.09375,34.09375,0.0,0.0,0.0,88
89,1696243452691,0.19335938,0.059570312,-1.1962891,-44.0625,-45.34375,-69.0,0.0,0.0,0.0,89
90,1696243452731,-0.17871094,-0.38085938,-0.5,-90.21875,166.09375,80.71875,0.0,0.0,0.0,90
91,1696243452771,-2.0,-0.921875,0.31347656,-219.0625,150.71875,11.5,0.0,0.0,0.0,91
92,1696243452811,-0.39746094,0.5859375,0.2685547,-86.3125,140.03125,-13.78125,0.0,0.0,0.0,92
93,1696243452851,-0.6933594,0.08300781,0.0703125,-83.0,131.0625,60.25,0.0,0.0,0.0,93
94,1696243452891,-0.9667969,-0.28320312,0.015625,-78.4375,107.5,30.21875,-101.25,17.875,-93.5,94
95,1696243452931,-0.8203125,0.091796875,-0.072265625,-69.875,88.46875,18.03125,0.0,0.0,0.0,95
96,1696243452971,-0.9824219,-0.12695312,0.08984375,-51.5,101.34375,30.40625,0.0,0.0,0.0,96
97,1696243453011,-1.1445312,-0.15234375,0.26171875,-69.46875,103.59375,17.21875,0.0,0.0,0.0,97
98,1696243453051,-1.2949219,-0.16113281,0.2763672,-55.71875,45.3125,16.0625,0.0,0.0,0.0,98
99,1696243453091,-1.1601562,-0.5361328,-0.16699219,-52.5625,3.875,23.65625,0.0,0.0,0.0,99
100,1696243453131,-1.328125,0.32226562,0.27539062,-30.8125,-23.34375,-5.84375,0.0,0.0,0.0,100
101,1696243453171,-1.2314453,-0.10839844,0.036132812,-5.0625,-93.25,7.34375,0.0,0.0,0.0,101
102,1696243453211,-1.4609375,0.3310547,-0.3935547,102.28125,-178.25,-20.0625,0.0,0.0,0.0,102
103,1696243453251,-1.5771484,0.25,-0.13574219,-33.625,-197.25,-44.21875,0.0,0.0,0.0,103
104,1696243453291,-1.6113281,0.390625,0.13085938,-134.28125,-166.0625,-62.65625,0.0,0.0,0.0,104
105,1696243453331,-1.2919922,0.14941406,0.3330078,188.96875,-235.4375,-98.4375,0.0,0.0,0.0,105
106,1696243453371,-0.5292969,-0.080078125,-0.21289062,138.96875,-172.9375,-71.8125,0.0,0.0,0.0,106
107,1696243453411,-0.36816406,-0.053710938,-0.09667969,162.40625,-112.84375,-58.15625,-102.0,16.0625,-73.125,107
108,1696243453451,-0.23535156,0.13574219,-0.095703125,129.75,-73.15625,-28.46875,0.0,0.0,0.0,108
109,1696243453491,-0.23828125,0.24902344,-0.18457031,66.84375,5.09375,-22.0625,0.0,0.0,0.0,109
110,1696243453531,-0.2578125,0.13671875,0.17675781,28.375,119.21875,-15.71875,0.0,0.0,0.0,110
111,1696243453571,-0.9580078,0.07714844,1.2734375,-66.03125,227.8125,-5.09375,0.0,0.0,0.0,111
112,1696243453611,-2.0,-0.85839844,1.0,38.75,-54.90625,-3.28125,0.0,0.0,0.0,112
113,1696243453651,0.8935547,0.76464844,0.6015625,111.28125,-162.75,-50.875,0.0,0.0,0.0,113
114,1696243453691,-0.9169922,0.091796875,-0.8691406,58.34375,113.71875,51.28125,0.0,0.0,0.0,114
115,1696243453731,-2.0,-0.10644531,1.9873047,-200.125,26.09375,-42.46875,0.0,0.0,0.0,115
116,1696243453771,0.3466797,0.86816406,-0.7314453,2.6875,83.28125,11.5,0.0,0.0,0.0,116
117,1696243453811,-1.4296875,-1.2431641,-0.75878906,-154.3125,177.6875,46.65625,0.0,0.0,0.0,117
118,1696243453851,-1.1806641,0.01953125,0.29003906,-54.75,91.625,6.75,0.0,0.0,0.0,118
119,1696243453891,-0.6035156,0.6230469,0.10644531,-65.84375,120.75,32.625,-99.875,16.25,-89.125,119
120,1696243453931,-1.0029297,-0.2265625,-0.111328125,-104.1875,110.125,45.0625,0.0,0.0,0.0,120
121,1696243453971,-0.89160156,-0.15527344,-0.030273438,-79.65625,83.21875,8.875,0.0,0.0,0.0,121
122,1696243454011,-0.8779297,-0.028320312,-0.06640625,-39.375,89.25,15.15625,0.0,0.0,0.0,122
123,1696243454051,-1.1103516,-0.1796875,0.078125,-6.78125,109.8125,26.625,0.0,0.0,0.0,123
124,1696243454091,-1.0732422,0.14355469,0.42578125,-77.5625,87.90625,5.6875,0.0,0.0,0.0,124
125,1696243454131,-1.2158203,-0.40039062,-0.13085938,-20.4375,16.8125,40.90625,0.0,0.0,0.0,125
126,1696243454171,-1.3232422,0.34960938,0.22753906,-48.9375,9.65625,-21.90625,0.0,0.0,0.0,126
127,1696243454211,-1.2871094,-0.26464844,0.16699219,-54.3125,-57.0,14.0625,0.0,0.0,0.0,127
128,1696243454251,-1.4033203,-0.37402344,-0.39746094,1.09375,-149.03125,0.5625,0.0,0.0,0.0,128
129,1696243454291,-1.3320312,0.296875,-0.3203125,102.96875,-196.875,-31.09375,0.0,0.0,0.0,129
130,1696243454331,-1.5830078,0.29589844,0.3232422,-94.71875,-205.90625,-28.53125,0.0,0.0,0.0,130
131,1696243454371,-1.7910156,0.1796875,-0.390625,176.75,-137.96875,-91.40625,0.0,0.0,0.0,131
132,1696243454411,-0.8671875,-0.11230469,-0.08105469,83.8125,-169.96875,-102.75,-98.5625,22.5625,-81.625,132
133,1696243454451,-0.48046875,0.033203125,-0.0703125,164.5625,-135.0625,-78.34375,0.0,0.0,0.0,133
134,1696243454491,-0.29003906,0.029296875,-0.09277344,162.96875,-112.03125,-40.75,0.0,0.0,0.0,134
135,1696243454531,-0.20898438,0.23535156,-0.21679688,115.78125,-55.8125,-33.71875,0.0,0.0,0.0,135
136,1696243454571,-0.3076172,0.20703125,-0.0068359375,39.0,49.28125,-16.875,0.0,0.0,0.0,136
137,1696243454611,-0.34960938,0.171875,0.6376953,-49.375,167.25,-18.21875,0.0,0.0,0.0,137
138,1696243454651,-2.0,0.033203125,1.7636719,-32.90625,164.03125,1.375,0.0,0.0,0.0,138
139,1696243454691,-1.3798828,-0.19824219,0.8330078,132.75,-181.625,-63.09375,0.0,0.0,0.0,139
140,1696243454731,0.6503906,0.35742188,0.47753906,70.8125,-18.34375,7.78125,0.0,0.0,0.0,140
141,1696243454771,-2.0,0.3701172,-0.4716797,-106.75,31.6875,40.375,0.0,0.0,0.0,141
142,1696243454811,-0.38867188,0.54296875,-0.45898438,-43.75,24.375,-69.875,0.0,0.0,0.0,142
143,1696243454851,-0.4248047,-0.5175781,-0.6591797,-156.25,177.75,37.375,0.0,0.0,0.0,143
144,1696243454891,-1.9853516,-0.6845703,0.20410156,-126.90625,128.125,9.84375,-100.625,15.1875,-84.5,144
145,1696243454931,-0.5029297,0.7548828,0.2841797,-86.78125,140.34375,-7.4375,0.0,0.0,0.0,145
146,1696243454971,-0.8623047,0.030273438,-0.0859375,-128.125,141.625,66.5625,0.0,0.0,0.0,146
147,1696243455011,-0.9511719,-0.44628906,-0.057617188,-90.5,97.5,22.25,0.0,0.0,0.0,147
148,1696243455051,-0.7890625,0.01953125,-0.033203125,-63.59375,90.46875,15.03125,0.0,0.0,0.0,148
149,1696243455091,-1.0078125,-0.22265625,0.00390625,-45.03125,91.375,22.53125,0.0,0.0,0.0,149
150,1696243455131,-1.1083984,-0.091796875,0.3779297,-34.4375,104.34375,12.09375,0.0,0.0,0.0,150
151,1696243455171,-1.1777344,0.09765625,0.13574219,-51.15625,58.5625,17.0625,0.0,0.0,0.0,151
152,1696243455211,-1.2275391,-0.24609375,-0.0859375,-53.40625,11.875,22.3125,0.0,0.0,0.0,152
153,1696243455251,-1.484375,0.28515625,0.16796875,-30.53125,-20.0625,-3.15625,0.0,0.0,0.0,153
154,1696243455291,-1.4140625,-0.42285156,-0.08300781,-11.40625,-100.0625,-6.3125,0.0,0.0,0.0,154
155,1696243455331,-1.2919922,0.4716797,-0.421875,90.5625,-176.0,-21.90625,0.0,0.0,0.0,155
156,1696243455371,-1.6611328,0.1484375,0.028320312,9.875,-220.6875,-11.03125,-99.0,26.75,-91.375,156
157,1696243455411,-1.4658203,0.26660156,-0.091796875,-75.4375,-166.375,-45.28125,0.0,0.0,0.0,157
158,1696243455451,-1.2119141,-0.037109375,0.23144531,150.875,-230.25,-89.53125,0.0,0.0,0.0,158
159,1696243455491,-0.5136719,-0.0107421875,-0.10449219,112.3125,-167.9375,-52.71875,0.0,0.0,0.0,159
160,1696243455531,-0.33984375,-0.046875,-0.12207031,180.46875,-116.875,-56.6875,0.0,0.0,0.0,160
161,1696243455571,-0.1796875,0.20898438,-0.16015625,117.0625,-72.125,-34.34375,0.0,0.0,0.0,161
162,1696243455611,-0.15234375,0.21386719,-0.07128906,56.21875,15.46875,-20.0,0.0,0.0,0.0,162
163,1696243455651,-0.21191406,0.045898438,0.3671875,-4.03125,142.0,-10.84375,0.0,0.0,0.0,163
164,1696243455691,-1.4267578,0.15917969,1.6933594,-41.75,212.84375,-2.3125,0.0,0.0,0.0,164
165,1696243455731,-2.0,-0.39453125,0.6660156,129.28125,-160.3125,-38.5,0.0,0.0,0.0,165
166,1696243455771,1.5185547,0.3701172,0.4638672,76.65625,-91.03125,-30.375,0.0,0.0,0.0,166
167,1696243455811,-1.8007812,0.28515625,-1.5234375,-107.71875,127.34375,21.25,0.0,0.0,0.0,167
168,1696243455851,-1.6201172,-0.7324219,-0.359375,34.125,-82.1875,-51.625,0.0,0.0,0.0,168
169,1696243455891,0.390625,0.5439453,-0.12792969,-78.625,142.40625,46.84375,-100.8125,16.5625,-76.875,169
170,1696243455931,-2.0,-1.3476562,-0.29492188,-158.625,150.21875,41.03125,0.0,0.0,0.0,170
171,1696243455971,-0.7998047,0.4091797,0.18847656,-29.0,113.5,-40.125,0.0,0.0,0.0,171
172,1696243456011,-0.5253906,0.60839844,0.15039062,-69.28125,140.59375,38.59375,0.0,0.0,0.0,172
173,1696243456051,-0.8720703,-0.23339844,-0.015625,-87.28125,118.5,27.125,0.0,0.0,0.0,173
174,1696243456091,-0.8496094,-0.06640625,-0.09082031,-76.28125,97.1875,12.40625,0.0,0.0,0.0,174
175,1696243456131,-0.92578125,-0.059570312,0.047851562,-42.125,87.0,21.75,0.0,0.0,0.0,175
176,1696243456171,-1.1298828,-0.111328125,0.35351562,-55.34375,105.96875,17.40625,0.0,0.0,0.0,176
177,1696243456211,-1.3662109,-0.12207031,0.052734375,-62.6875,54.71875,20.46875,0.0,0.0,0.0,177
178,1696243456251,-1.3037109,-0.10449219,0.08105469,-63.40625,-2.71875,6.5,0.0,0.0,0.0,178
179,1696243456291,-1.3115234,0.10449219,0.40039062,-61.15625,-62.125,-3.03125,0.0,0.0,0.0,179
180,1696243456331,-1.2529297,-0.3310547,-0.15136719,-18.5625,-149.46875,-17.9375,0.0,0.0,0.0,180
181,1696243456371,-1.4990234,0.25390625,-0.4970703,114.0625,-182.90625,-40.375,0.0,0.0,0.0,181
182,1696243456411,-1.8203125,0.19433594,0.546875,-111.9375,-218.5,-26.78125,-97.5,27.5,-92.125,182
183,1696243456451,-1.8691406,0.16894531,-0.3408203,198.71875,-113.1875,-97.625,0.0,0.0,0.0,183
184,1696243456491,-0.875,-0.18945312,-0.15527344,120.1875,-138.03125,-100.875,0.0,0.0,0.0,184
185,1696243456531,-0.4326172,0.20019531,-0.049804688,149.0,-126.8125,-59.25,0.0,0.0,0.0,185
186,1696243456571,-0.14550781,0.09667969,-0.052734375,162.96875,-84.6875,-44.09375,0.0,0.0,0.0,186
187,1696243456611,-0.13378906,0.13574219,-0.32226562,115.96875,-45.21875,-23.28125,0.0,0.0,0.0,187
188,1696243456651,-0.10253906,0.171875,-0.06347656,51.40625,54.59375,-7.78125,0.0,0.0,0.0,188
189,1696243456691,-0.5546875,0.072265625,0.65722656,-40.90625,238.96875,-6.875,0.0,0.0,0.0,189
190,1696243456731,-2.0,-0.08496094,1.6142578,-17.46875,62.59375,9.46875,0.0,0.0,0.0,190
191,1696243456771,-0.053710938,0.24511719,0.5419922,150.6875,-209.625,-70.84375,0.0,0.0,0.0,191
192,1696243456811,-0.15820312,0.3955078,-0.2421875,17.40625,71.75,29.5625,0.0,0.0,0.0,192
193,1696243456851,-2.0,0.08300781,1.3701172,-141.78125,1.0,42.9375,0.0,0.0,0.0,193
194,1696243456891,0.4091797,1.2460938,-0.65625,-30.9375,79.5,-46.625,-101.5625,15.8125,-75.8125,194
195,1696243456931,-0.72265625,-0.51464844,-0.7753906,-138.5625,175.25,105.90625,0.0,0.0,0.0,195
196,1696243456971,-1.7861328,-0.7480469,0.28710938,-118.15625,149.125,2.21875,0.0,0.0,0.0,196
197,1696243457011,-0.515625,0.7636719,0.15722656,-33.25,104.875,3.0625,0.0,0.0,0.0,197
198,1696243457051,-0.8535156,-0.111328125,-0.033203125,-61.28125,111.59375,25.53125,0.0,0.0,0.0,198
199,1696243457091,-0.9951172,-0.1875,-0.07519531,-90.40625,90.0625,3.5,0.0,0.0,0.0,199
200,1696243457131,-0.8574219,0.0390625,-0.0546875,-41.5625,77.84375,7.96875,0.0,0.0,0.0,200
201,1696243457171,-1.0458984,-0.052734375,0.07910156,-45.34375,90.84375,19.84375,0.0,0.0,0.0,201
202,1696243457211,-1.0996094,0.095703125,0.35839844,-57.25,85.90625,17.84375,0.0,0.0,0.0,202
203,1696243457251,-1.3720703,-0.49414062,0.05078125,-45.15625,28.84375,29.75,0.0,0.0,0.0,203
204,1696243457291,-1.2265625,0.6220703,0.20703125,-59.375,-4.4375,-21.46875,0.0,0.0,0.0,204
205,1696243457331,-1.3007812,-0.328125,0.34765625,-42.0625,-79.1875,20.84375,0.0,0.0,0.0,205
206,1696243457371,-1.2978516,-0.26660156,-0.53222656,9.65625,-172.46875,-1.1875,-95.25,29.125,-101.0,206
207,1696243457411,-1.4052734,-0.09375,-0.23828125,76.53125,-194.0625,-15.25,0.0,0.0,0.0,207
208,1696243457451,-1.5888672,0.17578125,0.29492188,-95.75,-197.84375,-30.625,0.0,0.0,0.0,208
209,1696243457491,-1.6347656,0.13574219,0.07324219,205.75,-190.03125,-74.1875,0.0,0.0,0.0,209
210,1696243457531,-0.8046875,-0.15527344,-0.24316406,123.53125,-163.625,-96.53125,0.0,0.0,0.0,210
211,1696243457571,-0.43359375,0.044921875,-0.08300781,170.09375,-117.59375,-85.78125,0.0,0.0,0.0,211
212,1696243457611,-0.2529297,0.10644531,-0.15527344,163.5625,-84.8125,-60.09375,0.0,0.0,0.0,212
213,1696243457651,-0.23339844,0.34277344,-0.2705078,103.15625,-23.96875,-54.375,0.0,0.0,0.0,213
214,1696243457691,-0.14941406,0.37695312,0.17089844,0.5,93.28125,-27.4375,0.0,0.0,0.0,214
215,1696243457731,-0.94921875,0.11816406,1.0234375,-88.4375,185.6875,9.90625,0.0,0.0,0.0,215
216,1696243457771,-2.0,-0.4951172,1.7998047,226.5,-2.375,42.8125,0.0,0.0,0.0,216
217,1696243457811,0.22070312,0.14257812,0.7158203,-24.53125,-130.34375,-41.3125,0.0,0.0,0.0,217
218,1696243457851,-1.609375,0.13378906,-0.68847656,26.1875,70.875,16.8125,0.0,0.0,0.0,218
219,1696243457891,-2.0,-0.4453125,0.9267578,-50.59375,-109.21875,-53.75,-103.0625,14.3125,-77.875,219
220,1696243457931,0.95214844,1.2060547,0.052734375,10.4375,141.25,55.125,0.0,0.0,0.0,220
221,1696243457971,-2.0,-1.8798828,-1.0097656,-242.5,225.4375,90.28125,0.0,0.0,0.0,221
222,1696243458011,-0.66015625,0.06347656,0.21191406,6.53125,91.15625,-72.5625,0.0,0.0,0.0,222
223,1696243458051,-0.45703125,0.84472656,0.013671875,-73.1875,144.90625,24.75,0.0,0.0,0.0,223
224,1696243458091,-0.8769531,-0.20117188,-0.08203125,-92.21875,118.5,25.96875,0.0,0.0,0.0,224
225,1696243458131,-0.8388672,0.07324219,-0.095703125,-132.8125,97.5,-5.84375,0.0,0.0,0.0,225
226,1696243458171,-0.9423828,-0.18066406,0.18554688,-59.4375,76.9375,20.46875,0.0,0.0,0.0,226
227,1696243458211,-1.1064453,-0.18652344,0.19238281,-88.1875,90.71875,17.34375,0.0,0.0,0.0,227
228,1696243458251,-1.2939453,-0.12109375,0.18066406,-54.3125,54.40625,27.71875,0.0,0.0,0.0,228
229,1696243458291,-1.2109375,-0.44433594,-0.07324219,-57.8125,10.75,14.65625,0.0,0.0,0.0,229
230,1696243458331,-1.4052734,0.5410156,0.31933594,-31.6875,-55.28125,-13.21875,0.0,0.0,0.0,230
231,1696243458371,-1.2871094,-0.17285156,-0.20800781,-16.59375,-148.78125,-7.5,-95.6875,28.5625,-104.0,231
232,1696243458411,-1.3925781,0.08886719,-0.46191406,51.28125,-213.46875,1.375,0.0,0.0,0.0,232
233,1696243458451,-1.7246094,0.103515625,0.42382812,-86.4375,-214.21875,-23.46875,0.0,0.0,0.0,233
234,1696243458491,-1.7158203,0.26953125,-0.41308594,135.8125,-111.375,-95.8125,0.0,0.0,0.0,234
235,1696243458531,-0.7324219,-0.21679688,-0.044921875,119.5625,-169.09375,-101.40625,0.0,0.0,0.0,235
236,1696243458571,-0.41503906,-0.0234375,0.026367188,168.15625,-126.375,-68.53125,0.0,0.0,0.0,236
237,1696243458611,-0.2998047,0.06738281,-0.1484375,178.28125,-102.03125,-56.9375,0.0,0.0,0.0,237
238,1696243458651,-0.24609375,0.27929688,-0.14355469,101.3125,-46.5625,-48.125,0.0,0.0,0.0,238
239,1696243458691,-0.22460938,0.23535156,0.013671875,40.28125,51.53125,-28.0625,0.0,0.0,0.0,239
240,1696243458731,-0.42871094,0.10058594,0.6123047,-36.6875,190.34375,-17.5625,0.0,0.0,0.0,240
241,1696243458771,-2.0,-0.10058594,1.8837891,-20.3125,104.15625,17.46875,0.0,0.0,0.0,241
242,1696243458811,-0.6201172,0.22753906,0.734375,159.78125,-192.0,-45.375,0.0,0.0,0.0,242
243,1696243458851,-0.31835938,0.5878906,-0.40234375,49.5625,49.03125,31.75,0.0,0.0,0.0,243
244,1696243458891,-2.0,-0.22558594,0.8886719,-168.53125,-15.78125,9.25,-103.0625,15.8125,-76.25,244
245,1696243458931,0.30566406,1.1484375,-0.5185547,-11.46875,93.03125,-45.03125,0.0,0.0,0.0,245
246,1696243458971,-1.0585938,-0.74902344,-0.7373047,-139.71875,197.71875,44.9375,0.0,0.0,0.0,246
247,1696243459011,-1.4111328,-0.2783203,0.27246094,-85.9375,132.34375,8.1875,0.0,0.0,0.0,247
248,1696243459051,-0.4951172,0.62109375,-0.026367188,-87.03125,142.21875,32.375,0.0,0.0,0.0,248
249,1696243459091,-0.97558594,-0.1484375,0.0029296875,-106.75,125.375,33.40625,0.0,0.0,0.0,249
250,1696243459131,-0.828125,-0.16015625,-0.06738281,-97.28125,99.5,11.96875,0.0,0.0,0.0,250
251,1696243459171,-0.9326172,-0.103515625,-0.038085938,-74.9375,98.03125,14.96875,0.0,0.0,0.0,251
252,1696243459211,-1.0839844,-0.0048828125,0.16308594,-37.90625,102.9375,24.25,0.0,0.0,0.0,252
253,1696243459251,-1.1708984,0.09863281,0.41992188,-100.59375,66.71875,16.6875,0.0,0.0,0.0,253
254,1696243459291,-1.3271484,-0.58984375,0.013671875,-58.34375,8.1875,33.28125,0.0,0.0,0.0,254
255,1696243459331,-1.4599609,0.091796875,0.3857422,-33.5625,-31.65625,-18.90625,0.0,0.0,0.0,255
256,1696243459371,-1.2666016,-0.29492188,0.01953125,10.0625,-124.3125,-0.71875,-93.125,30.8125,-101.875,256
257,1696243459411,-1.4921875,0.18847656,-0.6845703,146.25,-195.34375,-19.21875,0.0,0.0,0.0,257
258,1696243459451,-1.8330078,0.51464844,0.52246094,-35.53125,-241.125,-25.0625,0.0,0.0,0.0,258
259,1696243459491,-1.6425781,0.40722656,-0.43652344,-117.0625,-173.1875,-47.15625,0.0,0.0,0.0,259
260,1696243459531,-1.1230469,0.044921875,0.234375,136.71875,-220.9375,-105.21875,0.0,0.0,0.0,260
261,1696243459571,-0.40234375,-0.17089844,-0.0703125,169.0,-152.6875,-69.4375,0.0,0.0,0.0,261
262,1696243459611,-0.13574219,0.0048828125,-0.14160156,183.96875,-120.21875,-56.9375,0.0,0.0,0.0,262
263,1696243459651,-0.0107421875,0.22558594,-0.234375,127.4375,-72.5625,-17.0625,0.0,0.0,0.0,263
264,1696243459691,-0.06347656,0.23046875,-0.0009765625,60.71875,42.3125,-23.53125,0.0,0.0,0.0,264
265,1696243459731,-0.24414062,0.08984375,0.6513672,-41.5,221.75,-41.59375,0.0,0.0,0.0,265
266,1696243459771,-2.0,0.24121094,1.7949219,-59.8125,126.53125,-10.21875,0.0,0.0,0.0,266
267,1696243459811,-0.2861328,0.22949219,0.55859375,238.84375,-234.59375,-45.8125,0.0,0.0,0.0,267
268,1696243459851,0.08984375,0.41796875,-0.0625,29.84375,49.21875,33.28125,0.0,0.0,0.0,268
269,1696243459891,-2.0,0.6513672,1.8242188,-151.3125,3.0625,36.34375,-103.9375,17.0,-74.875,269
270,1696243459931,0.6796875,1.2480469,-0.4658203,-10.125,83.34375,-66.625,0.0,0.0,0.0,270
271,1696243459971,-0.7109375,-0.65527344,-0.9550781,-154.53125,195.21875,60.75,0.0,0.0,0.0,271
272,1696243460011,-1.984375,-0.4892578,0.37402344,-103.46875,148.6875,13.625,0.0,0.0,0.0,272
273,1696243460051,-0.45507812,0.6904297,0.03125,-70.75,135.6875,14.84375,0.0,0.0,0.0,273
274,1696243460091,-0.81347656,-0.13964844,0.01171875,-99.71875,139.375,33.09375,0.0,0.0,0.0,274
275,1696243460131,-0.8339844,-0.048828125,-0.015625,-91.90625,118.1875,9.34375,0.0,0.0,0.0,275
276,1696243460171,-0.7949219,0.0390625,0.0390625,-69.6875,99.15625,21.75,0.0,0.0,0.0,276
277,1696243460211,-1.1005859,-0.09082031,0.08691406,-37.90625,106.15625,34.5625,0.0,0.0,0.0,277
278,1696243460251,-1.1816406,-0.001953125,0.546875,-111.875,99.03125,8.375,0.0,0.0,0.0,278
279,1696243460291,-1.1318359,-0.49902344,-0.12597656,-37.59375,18.6875,36.65625,0.0,0.0,0.0,279
280,1696243460331,-1.4755859,0.42773438,0.19921875,-33.4375,-8.65625,-11.34375,0.0,0.0,0.0,280
281,1696243460371,-1.5195312,-0.4892578,-0.14160156,-33.9375,-108.3125,-3.75,-92.375,32.125,-103.6875,281
282,1696243460411,-1.1630859,0.38378906,-0.4169922,57.1875,-179.4375,-25.84375,0.0,0.0,0.0,282
283,1696243460451,-1.5830078,0.06347656,0.095703125,52.6875,-212.6875,-2.53125,0.0,0.0,0.0,283
284,1696243460491,-1.4482422,-0.001953125,0.024414062,-112.0,-189.5,-40.1875,0.0,0.0,0.0,284
285,1696243460531,-1.5654297,0.18652344,0.0625,244.5,-193.8125,-72.78125,0.0,0.0,0.0,285
286,1696243460571,-0.51171875,-0.11328125,-0.15527344,101.5625,-160.5,-83.0,0.0,0.0,0.0,286
287,1696243460611,-0.31152344,0.030273438,-0.12402344,168.875,-105.75,-69.875,0.0,0.0,0.0,287
288,1696243460651,-0.24511719,0.20117188,-0.08886719,123.09375,-70.40625,-46.0625,0.0,0.0,0.0,288
289,1696243460691,-0.14160156,0.24902344,-0.12792969,67.375,0.6875,-32.03125,0.0,0.0,0.0,289
290,1696243460731,-0.08984375,0.1171875,0.23632812,0.5,119.34375,-13.78125,0.0,0.0,0.0,290
291,1696243460771,-1.2285156,0.140625,1.1708984,-50.34375,229.15625,7.59375,0.0,0.0,0.0,291
292,1696243460811,-2.0,-0.4814453,1.4287109,143.375,-129.375,-6.4375,0.0,0.0,0.0,292
293,1696243460851,1.40625,0.61816406,0.36132812,63.46875,-119.84375,-30.0625,0.0,0.0,0.0,293
294,1696243460891,-1.9814453,0.13085938,-1.7060547,-82.46875,116.28125,42.8125,-99.125,18.8125,-74.3125,294
295,1696243460931,-1.0908203,-0.72265625,-0.85058594,-20.5,-62.40625,-67.78125,0.0,0.0,0.0,295
296,1696243460971,0.24511719,0.4111328,-0.35351562,-94.65625,151.875,44.75,0.0,0.0,0.0,296
297,1696243461011,-2.0,-1.0810547,-0.036132812,-157.71875,156.6875,55.0625,0.0,0.0,0.0,297
298,1696243461051,-0.5390625,0.58203125,0.10644531,-57.6875,134.25,-30.5625,0.0,0.0,0.0,298
299,1696243461091,-0.6123047,0.36621094,0.01171875,-56.59375,136.96875,49.09375,0.0,0.0,0.0,299
300,1696243461131,-0.83984375,-0.19921875,-0.13964844,-111.75,123.3125,20.15625,0.0,0.0,0.0,300
301,1696243461171,-0.7763672,0.109375,0.001953125,-88.875,113.96875,7.40625,0.0,0.0,0.0,301
302,1696243461211,-1.078125,-0.27441406,0.03515625,-38.625,107.3125,24.0625,0.0,0.0,0.0,302
303,1696243461251,-1.2724609,0.043945312,0.4609375,-97.09375,76.75,4.40625,0.0,0.0,0.0,303
304,1696243461291,-1.3212891,-0.29785156,-0.12792969,-54.25,32.4375,35.0,0.0,0.0,0.0,304
305,1696243461331,-1.3173828,-0.49121094,0.076171875,-35.46875,9.40625,8.9375,0.0,0.0,0.0,305
306,1696243461371,-1.3984375,-0.09472656,0.07128906,-34.0,-62.28125,-2.59375,-88.8125,30.8125,-102.375,306
307,1696243461411,-1.2578125,0.08496094,-0.23242188,11.15625,-145.78125,-25.90625,0.0,0.0,0.0,307
308,1696243461451,-1.2714844,0.2734375,-0.49609375,101.0625,-202.90625,-15.78125,0.0,0.0,0.0,308
309,1696243461491,-1.7119141,0.37304688,0.4189453,-94.0,-221.78125,-27.5625,0.0,0.0,0.0,309
310,1696243461531,-1.5683594,0.6347656,-0.49804688,0.3125,-154.09375,-66.5,0.0,0.0,0.0,310
311,1696243461571,-0.9941406,-0.025390625,0.12890625,139.21875,-213.46875,-113.75,0.0,0.0,0.0,311
312,1696243461611,-0.4189453,-0.13378906,-0.11425781,126.71875,-138.28125,-49.65625,0.0,0.0,0.0,312
313,1696243461651,-0.16113281,0.025390625,-0.10058594,145.1875,-95.0,-38.84375,0.0,0.0,0.0,313
314,1696243461691,-0.032226562,0.24511719,-0.21679688,104.5625,-58.75,-23.0,0.0,0.0,0.0,314
315,1696243461731,0.038085938,0.12792969,0.119140625,61.28125,75.03125,-21.09375,0.0,0.0,0.0,315
316,1696243461771,-0.5654297,0.11425781,0.9580078,-61.15625,260.75,-34.21875,0.0,0.0,0.0,316
317,1696243461811,-2.0,-0.62402344,1.4833984,4.03125,-12.90625,-3.75,0.0,0.0,0.0,317
318,1696243461851,1.1035156,0.5703125,0.48046875,219.25,-209.4375,-53.8125,0.0,0.0,0.0,318
319,1696243461891,-0.38183594,0.19921875,-1.3056641,9.21875,118.90625,41.15625,-99.125,17.4375,-70.6875,319
320,1696243461931,-2.0,-1.9111328,1.8261719,-97.03125,-163.5,-24.625,0.0,0.0,0.0,320
321,1696243461971,0.76660156,1.4980469,0.040039062,9.59375,126.25,-55.8125,0.0,0.0,0.0,321
322,1696243462011,-1.2099609,-1.0273438,-0.6875,-160.46875,200.75,70.28125,0.0,0.0,0.0,322
323,1696243462051,-1.2324219,-0.14648438,0.18457031,-78.3125,143.40625,-37.46875,0.0,0.0,0.0,323
324,1696243462091,-0.41992188,0.84472656,0.026367188,-50.59375,135.75,15.71875,0.0,0.0,0.0,324
325,1696243462131,-0.75390625,-0.013671875,-0.14746094,-121.875,136.5625,27.4375,0.0,0.0,0.0,325
326,1696243462171,-0.9267578,-0.15917969,-0.07519531,-112.90625,111.28125,11.5,0.0,0.0,0.0,326
327,1696243462211,-0.94433594,-0.060546875,0.13378906,-58.53125,91.34375,18.46875,0.0,0.0,0.0,327
328,1696243462251,-1.2353516,-0.3876953,0.16210938,-91.75,106.15625,15.34375,0.0,0.0,0.0,328
329,1696243462291,-1.2050781,0.20507812,0.44335938,-54.1875,59.59375,12.90625,0.0,0.0,0.0,329
330,1696243462331,-1.0097656,-0.75097656,-0.18359375,-34.96875,8.5625,43.78125,0.0,0.0,0.0,330
331,1696243462371,-1.5859375,0.2705078,0.06738281,-27.65625,-48.0,-16.21875,-90.3125,28.8125,-100.875,331
332,1696243462411,-1.390625,0.02734375,-0.052734375,0.96875,-124.84375,-34.53125,0.0,0.0,0.0,332
333,1696243462451,-1.2587891,0.4189453,-0.4248047,94.65625,-203.03125,-3.21875,0.0,0.0,0.0,333
334,1696243462491,-1.7421875,-0.0068359375,0.21386719,-56.15625,-220.0625,-14.5,0.0,0.0,0.0,334
335,1696243462531,-1.5488281,0.4716797,-0.30664062,-25.03125,-158.71875,-73.40625,0.0,0.0,0.0,335
336,1696243462571,-1.0439453,0.13085938,0.15625,134.28125,-209.28125,-105.875,0.0,0.0,0.0,336
337,1696243462611,-0.3359375,-0.15039062,-0.09667969,139.71875,-145.71875,-64.0,0.0,0.0,0.0,337
338,1696243462651,-0.19824219,-0.0126953125,-0.125,183.09375,-112.34375,-50.28125,0.0,0.0,0.0,338
339,1696243462691,-0.15722656,0.18554688,-0.07324219,113.03125,-55.46875,-23.40625,0.0,0.0,0.0,339
340,1696243462731,-0.18554688,0.17675781,-0.0087890625,65.75,35.90625,-22.5625,0.0,0.0,0.0,340
341,1696243462771,-0.26757812,0.09765625,0.4189453,-0.5625,162.125,-31.78125,0.0,0.0,0.0,341
342,1696243462811,-1.9980469,0.32421875,1.8466797,-53.28125,199.65625,-7.5625,0.0,0.0,0.0,342
343,1696243462851,-1.7636719,0.22558594,0.96191406,128.59375,-216.65625,-47.46875,0.0,0.0,0.0,343
344,1696243462891,0.85839844,0.7060547,0.24609375,51.6875,-42.15625,2.875,-98.875,14.875,-72.1875,344
345,1696243462931,-2.0,0.02734375,-1.3564453,-132.5,75.59375,42.9375,0.0,0.0,0.0,345
346,1696243462971,-0.5126953,-0.07128906,-0.9355469,-83.3125,15.40625,-55.40625,0.0,0.0,0.0,346
347,1696243463011,-0.39257812,-0.43066406,-0.6542969,-132.09375,181.0625,36.15625,0.0,0.0,0.0,347
348,1696243463051,-2.0,-0.9160156,0.06640625,-100.34375,164.8125,-3.8125,0.0,0.0,0.0,348
349,1696243463091,-0.5703125,0.6972656,0.076171875,-86.3125,138.8125,1.53125,0.0,0.0,0.0,349
350,1696243463131,-0.7373047,0.24414062,0.0390625,-79.84375,144.96875,47.4375,0.0,0.0,0.0,350
351,1696243463171,-0.7832031,-0.1328125,-0.234375,-132.5,120.625,14.78125,0.0,0.0,0.0,351
352,1696243463211,-0.9199219,0.040039062,0.07714844,-106.25,96.21875,10.65625,0.0,0.0,0.0,352
353,1696243463251,-1.1210938,-0.2861328,0.21777344,-24.21875,90.65625,31.5625,0.0,0.0,0.0,353
354,1696243463291,-1.1669922,-0.099609375,0.4873047,-113.65625,91.34375,1.375,0.0,0.0,0.0,354
355,1696243463331,-1.3017578,-0.234375,0.036132812,-21.84375,24.0625,33.03125,0.0,0.0,0.0,355
356,1696243463371,-1.4912109,-0.22167969,0.14746094,-35.28125,-13.15625,1.375,-92.25,26.875,-104.3125,356
357,1696243463411,-1.3476562,-0.12011719,0.030273438,-9.59375,-102.9375,-9.0,0.0,0.0,0.0,357
358,1696243463451,-1.25,0.24707031,-0.3359375,34.1875,-170.15625,-19.8125,0.0,0.0,0.0,358
359,1696243463491,-1.5849609,0.21191406,-0.23046875,23.375,-209.9375,-20.96875,0.0,0.0,0.0,359
360,1696243463531,-1.546875,0.10644531,0.15429688,-145.09375,-203.03125,-35.1875,0.0,0.0,0.0,360
361,1696243463571,-1.6572266,0.044921875,0.15820312,274.71875,-194.3125,-99.03125,0.0,0.0,0.0,361
362,1696243463611,-0.45117188,-0.2841797,-0.21191406,145.75,-163.125,-81.09375,0.0,0.0,0.0,362
363,1696243463651,-0.3671875,-0.044921875,-0.17089844,177.90625,-103.75,-71.03125,0.0,0.0,0.0,363
364,1696243463691,-0.14257812,0.22070312,-0.14941406,167.34375,-81.28125,-41.96875,0.0,0.0,0.0,364
365,1696243463731,-0.12890625,0.30078125,-0.15917969,85.3125,-17.5625,-30.4375,0.0,0.0,0.0,365
366,1696243463771,-0.15917969,0.15136719,0.1953125,17.40625,108.78125,-30.75,0.0,0.0,0.0,366
367,1696243463811,-0.90527344,0.21582031,0.98339844,-70.0,234.625,-24.03125,0.0,0.0,0.0,367
368,1696243463851,-2.0,-0.5839844,1.4501953,54.75,-32.15625,22.3125,0.0,0.0,0.0,368
369,1696243463891,0.7871094,0.7138672,0.63671875,113.21875,-177.96875,-48.9375,-101.6875,12.9375,-78.1875,369
370,1696243463931,-1.3486328,0.3876953,-0.9199219,23.5625,110.875,60.375,0.0,0.0,0.0,370
371,1696243463971,-2.0,-1.2451172,0.046875,-72.6875,-56.0625,-39.65625,0.0,0.0,0.0,371
372,1696243464011,0.3564453,0.640625,-0.24511719,-66.96875,130.09375,19.5625,0.0,0.0,0.0,372
373,1696243464051,-2.0,-0.9003906,-0.27929688,-139.34375,181.40625,63.0625,0.0,0.0,0.0,373
374,1696243464091,-0.796875,-0.028320312,0.12792969,-91.8125,124.65625,-22.6875,0.0,0.0,0.0,374
375,1696243464131,-0.53125,0.60839844,0.12597656,-83.6875,142.0625,32.84375,0.0,0.0,0.0,375
376,1696243464171,-0.87402344,-0.27246094,-0.0703125,-109.3125,121.125,26.15625,0.0,0.0,0.0,376
377,1696243464211,-0.8466797,-0.0390625,-0.043945312,-91.6875,99.9375,10.65625,0.0,0.0,0.0,377
378,1696243464251,-0.99121094,-0.15332031,0.07128906,-49.625,98.84375,27.59375,0.0,0.0,0.0,378
379,1696243464291,-1.1621094,-0.2841797,0.29882812,-44.5625,106.71875,23.46875,0.0,0.0,0.0,379
380,1696243464331,-1.2978516,-0.08105469,0.39746094,-28.0,56.1875,12.96875,0.0,0.0,0.0,380
381,1696243464371,-1.1132812,-0.22949219,-0.15527344,-32.21875,0.5,18.8125,-90.75,29.4375,-105.375,381
382,1696243464411,-1.2167969,0.6425781,0.39746094,-64.875,-39.46875,-3.46875,0.0,0.0,0.0,382
383,1696243464451,-1.3701172,-0.4921875,-0.13964844,-66.21875,-130.28125,8.625,0.0,0.0,0.0,383
384,1696243464491,-1.5185547,-0.17089844,-0.8017578,143.8125,-200.65625,-22.75,0.0,0.0,0.0,384
385,1696243464531,-1.7988281,0.76953125,0.54296875,-50.34375,-218.3125,-48.625,0.0,0.0,0.0,385
386,1696243464571,-1.5537109,0.2626953,-0.4375,-67.875,-150.375,-58.375,0.0,0.0,0.0,386
387,1696243464611,-1.1640625,-0.13183594,0.1484375,149.15625,-203.84375,-119.71875,0.0,0.0,0.0,387
388,1696243464651,-0.53808594,-0.08203125,-0.24121094,136.71875,-140.40625,-70.78125,0.0,0.0,0.0,388
389,1696243464691,-0.17578125,0.1875,-0.0625,208.96875,-101.34375,-65.84375,0.0,0.0,0.0,389
390,1696243464731,-0.24902344,0.13183594,-0.29003906,151.3125,-62.1875,-37.21875,0.0,0.0,0.0,390
391,1696243464771,-0.12890625,0.3046875,-0.1484375,68.65625,46.59375,-30.0625,0.0,0.0,0.0,391
392,1696243464811,-0.46777344,0.21386719,0.6796875,-75.75,180.875,-15.125,0.0,0.0,0.0,392
393,1696243464851,-2.0,-0.11035156,1.9511719,9.59375,119.09375,-8.65625,0.0,0.0,0.0,393
394,1696243464891,-0.8457031,-0.22851562,0.54296875,132.9375,-205.0625,-52.71875,-102.125,15.9375,-79.5625,394
395,1696243464931,-0.16308594,0.72753906,0.171875,84.53125,9.65625,14.90625,0.0,0.0,0.0,395
396,1696243464971,-2.0,0.123046875,1.0361328,-157.46875,-92.09375,30.125,0.0,0.0,0.0,396
397,1696243465011,0.47851562,1.3613281,-0.296875,11.34375,108.96875,-32.4375,0.0,0.0,0.0,397
398,1696243465051,-1.2851562,-0.94628906,-0.75097656,-193.0,220.71875,23.875,0.0,0.0,0.0,398
399,1696243465091,-1.3769531,-0.18847656,0.29003906,-52.5,128.25,-7.65625,0.0,0.0,0.0,399
400,1696243465131,-0.39648438,0.89160156,-0.059570312,-100.71875,149.8125,32.96875,0.0,0.0,0.0,400
401,1696243465171,-0.9736328,-0.13964844,-0.0859375,-82.53125,137.21875,48.84375,0.0,0.0,0.0,401
402,1696243465211,-0.7919922,-0.099609375,-0.017578125,-111.34375,120.625,5.15625,0.0,0.0,0.0,402
403,1696243465251,-0.8154297,-0.029296875,-0.2109375,-92.09375,116.28125,23.53125,0.0,0.0,0.0,403
404,1696243465291,-1.2382812,-0.29589844,0.21875,-39.0,116.71875,31.75,0.0,0.0,0.0,404
405,1696243465331,-1.1582031,-0.078125,0.42773438,-115.53125,75.75,-4.96875,0.0,0.0,0.0,405
406,1696243465371,-1.2929688,-0.4326172,-0.047851562,-11.40625,-4.5,42.875,-92.6875,26.875,-104.875,406
407,1696243465411,-1.4619141,0.25683594,0.32128906,-11.40625,-17.9375,-12.125,0.0,0.0,0.0,407
408,1696243465451,-1.2392578,-0.2763672,-0.064453125,-20.6875,-110.40625,-1.25,0.0,0.0,0.0,408
409,1696243465491,-1.3925781,0.20800781,-0.5410156,86.3125,-189.3125,-19.8125,0.0,0.0,0.0,409
410,1696243465531,-1.75,0.48339844,0.041992188,4.9375,-214.03125,-37.6875,0.0,0.0,0.0,410
411,1696243465571,-1.4570312,0.35839844,0.23339844,-141.96875,-207.75,-41.84375,0.0,0.0,0.0,411
412,1696243465611,-1.7578125,0.18554688,0.19921875,273.4375,-207.8125,-108.0625,0.0,0.0,0.0,412
413,1696243465651,-0.43359375,-0.24609375,-0.21191406,145.09375,-160.6875,-81.15625,0.0,0.0,0.0,413
414,1696243465691,-0.28027344,-0.09667969,-0.12207031,211.71875,-123.6875,-51.25,0.0,0.0,0.0,414
415,1696243465731,0.009765625,0.20605469,-0.16699219,130.625,-87.4375,-12.3125,0.0,0.0,0.0,415
416,1696243465771,-0.032226562,0.2998047,-0.20019531,90.6875,-6.9375,-15.3125,0.0,0.0,0.0,416
417,1696243465811,-0.11816406,0.11035156,0.25,14.28125,147.84375,-23.59375,0.0,0.0,0.0,417
418,1696243465851,-1.5146484,0.2734375,1.7216797,-66.65625,234.625,-29.8125,0.0,0.0,0.0,418
419,1696243465891,-2.0,-0.22167969,1.1689453,131.65625,-190.84375,-24.34375,-101.6875,16.6875,-76.6875,419
420,1696243465931,0.7392578,0.9316406,0.375,77.15625,-86.96875,-12.3125,0.0,0.0,0.0,420
421,1696243465971,-2.0,0.35058594,-0.2861328,-78.1875,-76.15625,62.40625,0.0,0.0,0.0,421
422,1696243466011,-0.020507812,0.62109375,-0.6503906,-68.25,107.3125,-55.34375,0.0,0.0,0.0,422
423,1696243466051,-1.4384766,-0.57128906,-0.6279297,-197.09375,217.78125,12.09375,0.0,0.0,0.0,423
424,1696243466091,-1.3486328,-0.3466797,0.22949219,-28.4375,137.90625,-44.84375,0.0,0.0,0.0,424
425,1696243466131,-0.34472656,0.6435547,0.115234375,-148.125,171.09375,26.9375,0.0,0.0,0.0,425
426,1696243466171,-1.1503906,-0.296875,0.0126953125,-138.4375,163.65625,79.5,0.0,0.0,0.0,426
427,1696243466211,-0.7128906,-0.13671875,0.07128906,-74.65625,106.71875,-4.5,0.0,0.0,0.0,427
428,1696243466251,-0.78125,0.15527344,0.0,-92.65625,95.96875,15.15625,0.0,0.0,0.0,428
429,1696243466291,-0.9980469,-0.21289062,0.08886719,-38.09375,89.9375,38.96875,0.0,0.0,0.0,429
430,1696243466331,-1.0996094,0.11035156,0.31347656,-82.40625,107.4375,20.96875,0.0,0.0,0.0,430
431,1696243466371,-1.3857422,-0.53808594,0.041015625,-47.71875,60.4375,44.6875,-92.25,26.125,-103.875,431
432,1696243466411,-1.2998047,-0.09082031,0.109375,-37.59375,8.6875,1.96875,0.0,0.0,0.0,432
433,1696243466451,-1.2714844,0.0703125,0.29296875,-22.875,-62.40625,-0.28125,0.0,0.0,0.0,433
434,1696243466491,-1.2753906,-0.13085938,-0.32617188,-2.1875,-156.09375,-12.6875,0.0,0.0,0.0,434
435,1696243466531,-1.4658203,-0.083984375,-0.5175781,118.90625,-200.125,-24.875,0.0,0.0,0.0,435
436,1696243466571,-1.8105469,0.4375,0.49804688,-54.3125,-225.03125,-46.625,0.0,0.0,0.0,436
437,1696243466611,-1.8017578,0.49804688,-0.61621094,123.71875,-126.625,-91.53125,0.0,0.0,0.0,437
438,1696243466651,-0.796875,-0.0048828125,-0.09863281,111.5,-200.71875,-103.875,0.0,0.0,0.0,438
439,1696243466691,-0.45703125,-0.17089844,-0.09375,171.3125,-147.1875,-54.71875,0.0,0.0,0.0,439
440,1696243466731,-0.12890625,-0.001953125,-0.11816406,164.625,-104.03125,-31.09375,0.0,0.0,0.0,440
441,1696243466771,-0.1015625,0.31152344,-0.26953125,108.46875,-45.875,-26.15625,0.0,0.0,0.0,441
442,1696243466811,0.0,0.19921875,0.13964844,46.625,80.78125,-17.5,0.0,0.0,0.0,442
443,1696243466851,-0.48339844,-0.0009765625,1.3017578,-48.84375,276.6875,-29.09375,0.0,0.0,0.0,443
444,1696243466891,-2.0,-0.19628906,1.1513672,59.09375,-69.375,-2.78125,-99.0,17.875,-78.625,444
445,1696243466931,1.6376953,0.65625,0.24023438,163.03125,-202.5625,-33.3125,0.0,0.0,0.0,445
446,1696243466971,-1.0224609,0.16992188,-1.2675781,-93.5625,143.21875,45.375,0.0,0.0,0.0,446
447,1696243467011,-2.0,-1.9824219,-0.99609375,-11.0625,-45.6875,-19.5625,0.0,0.0,0.0,447
448,1696243467051,0.13964844,0.5888672,-0.2265625,-70.875,132.15625,-10.65625,0.0,0.0,0.0,448
449,1696243467091,-1.7548828,-0.9892578,-0.12207031,-130.125,191.96875,22.71875,0.0,0.0,0.0,449
450,1696243467131,-0.8300781,0.123046875,0.13476562,-98.75,149.96875,-20.90625,0.0,0.0,0.0,450
451,1696243467171,-0.5732422,0.4423828,0.061523438,-85.875,153.46875,39.625,0.0,0.0,0.0,451
452,1696243467211,-0.70214844,-0.10058594,-0.061523438,-102.34375,125.09375,21.5625,0.0,0.0,0.0,452
453,1696243467251,-0.90527344,0.046875,-0.11328125,-103.75,103.21875,5.15625,0.0,0.0,0.0,453
454,1696243467291,-1.0625,-0.10253906,0.21386719,-36.5,99.5625,18.5,0.0,0.0,0.0,454
455,1696243467331,-1.1738281,-0.3076172,0.1328125,-115.71875,99.8125,8.4375,0.0,0.0,0.0,455
456,1696243467371,-1.2001953,0.20410156,0.2607422,-54.25,55.5,23.15625,-90.0,26.125,-103.875,456
457,1696243467411,-1.1171875,-0.97558594,-0.18945312,-40.84375,18.6875,38.40625,0.0,0.0,0.0,457
458,1696243467451,-1.3945312,0.4658203,0.19726562,-28.5625,-39.40625,-13.09375,0.0,0.0,0.0,458
459,1696243467491,-1.4589844,-0.14257812,-0.16113281,-10.9375,-133.84375,-14.1875,0.0,0.0,0.0,459
460,1696243467531,-1.4619141,0.33984375,-0.57128906,185.0,-195.15625,-28.78125,0.0,0.0,0.0,460
461,1696243467571,-1.9501953,0.57714844,0.5732422,-98.28125,-232.71875,-20.0,0.0,0.0,0.0,461
462,1696243467611,-1.7070312,0.45214844,-0.6425781,-58.59375,-150.8125,-80.71875,0.0,0.0,0.0,462
463,1696243467651,-0.88183594,-0.27734375,0.09082031,141.84375,-209.8125,-122.71875,0.0,0.0,0.0,463
464,1696243467691,-0.34375,-0.20507812,-0.16894531,194.21875,-147.8125,-68.71875,0.0,0.0,0.0,464
465,1696243467731,-0.041015625,0.048828125,-0.25976562,209.90625,-111.84375,-40.125,0.0,0.0,0.0,465
466,1696243467771,-0.17285156,0.3251953,-0.21972656,125.4375,-73.53125,-27.9375,0.0,0.0,0.0,466
467,1696243467811,-0.08886719,0.17675781,0.26367188,57.375,74.46875,-34.21875,0.0,0.0,0.0,467
468,1696243467851,-0.578125,0.14355469,0.8798828,-53.84375,224.1875,-62.0625,0.0,0.0,0.0,468
469,1696243467891,-2.0,-0.028320312,1.7568359,66.21875,2.78125,11.25,-98.875,14.125,-79.25,469
470,1696243467931,0.18945312,0.7402344,0.55566406,127.6875,-168.375,-34.65625,0.0,0.0,0.0,470
471,1696243467971,-1.6943359,0.45507812,-0.47070312,64.875,63.0625,55.1875,0.0,0.0,0.0,471
472,1696243468011,-1.6904297,-1.0478516,-0.55078125,-54.9375,-51.25,6.96875,0.0,0.0,0.0,472
473,1696243468051,-0.23632812,-0.19628906,-0.41210938,-96.875,152.25,21.5,0.0,0.0,0.0,473
474,1696243468091,-2.0,-0.66015625,0.018554688,-135.5,210.34375,-20.78125,0.0,0.0,0.0,474
475,1696243468131,-0.54589844,0.33203125,0.265625,-129.34375,147.96875,-32.5,0.0,0.0,0.0,475
476,1696243468171,-0.6425781,0.4970703,0.15136719,-100.78125,163.0,57.5625,0.0,0.0,0.0,476
477,1696243468211,-0.66796875,-0.390625,-0.13769531,-108.21875,138.15625,10.59375,0.0,0.0,0.0,477
478,1696243468251,-0.8183594,0.055664062,0.034179688,-107.125,101.09375,-3.21875,0.0,0.0,0.0,478
479,1696243468291,-1.0546875,-0.091796875,0.26660156,-30.40625,84.0625,25.90625,0.0,0.0,0.0,479
480,1696243468331,-1.2080078,-0.123046875,-0.026367188,-111.6875,103.65625,14.4375,0.0,0.0,0.0,480
481,1696243468371,-1.2626953,0.09082031,0.27929688,-58.78125,63.9375,18.625,-89.6875,25.375,-104.625,481
482,1696243468411,-1.2890625,-0.42382812,-0.009765625,-74.28125,8.8125,9.71875,0.0,0.0,0.0,482
483,1696243468451,-1.4121094,0.15722656,0.2734375,-51.03125,-63.46875,-1.875,0.0,0.0,0.0,483
484,1696243468491,-1.2822266,-0.24121094,-0.3779297,-16.1875,-155.4375,-18.84375,0.0,0.0,0.0,484
485,1696243468531,-1.3544922,0.28320312,-0.4326172,109.875,-217.75,-15.1875,0.0,0.0,0.0,485
486,1696243468571,-1.8486328,0.22265625,0.51171875,-77.8125,-245.65625,-12.84375,0.0,0.0,0.0,486
487,1696243468611,-1.9482422,0.35839844,-0.3876953,62.5,-135.78125,-92.09375,0.0,0.0,0.0,487
488,1696243468651,-0.7783203,-0.23242188,-0.08886719,113.34375,-171.25,-133.84375,0.0,0.0,0.0,488
489,1696243468691,-0.4033203,-0.026367188,-0.12695312,196.15625,-142.25,-77.96875,0.0,0.0,0.0,489
490,1696243468731,0.05078125,0.068359375,-0.029296875,188.125,-88.0,-36.90625,0.0,0.0,0.0,490
491,1696243468771,-0.18066406,0.17578125,-0.19238281,95.65625,-30.6875,-20.4375,0.0,0.0,0.0,491
492,1696243468811,-0.099609375,0.18066406,0.029296875,52.25,64.40625,-17.0,0.0,0.0,0.0,492
493,1696243468851,-0.52734375,0.19140625,0.83984375,-39.5,226.09375,-39.59375,0.0,0.0,0.0,493
494,1696243468891,-2.0,-0.27148438,1.7226562,54.25,20.65625,14.59375,-102.0,15.8125,-76.25,494
495,1696243468931,0.6171875,0.53125,0.4921875,159.71875,-207.0625,-39.03125,0.0,0.0,0.0,495
496,1696243468971,-1.0244141,0.35351562,-0.4326172,53.21875,110.75,45.6875,0.0,0.0,0.0,496
497,1696243469011,-2.0,-1.1904297,0.515625,-73.0,-118.625,-13.65625,0.0,0.0,0.0,497
498,1696243469051,0.099609375,0.6542969,0.034179688,-54.375,129.71875,12.46875,0.0,0.0,0.0,498
499,1696243469091,-1.7910156,-0.83691406,-0.27539062,-171.75,206.4375,9.0,0.0,0.0,0.0,499
500,1696243469131,-0.83203125,0.0048828125,0.26367188,-106.625,137.34375,-28.90625,0.0,0.0,0.0,500
501,1696243469171,-0.5283203,0.5996094,0.11425781,-82.875,150.96875,41.9375,0.0,0.0,0.0,501
502,1696243469211,-0.87109375,-0.20117188,-0.061523438,-110.15625,137.78125,25.78125,0.0,0.0,0.0,502
503,1696243469251,-0.7519531,0.03515625,-0.08203125,-112.3125,116.0,11.125,0.0,0.0,0.0,503
504,1696243469291,-0.9091797,-0.11035156,0.20507812,-76.34375,107.25,25.34375,0.0,0.0,0.0,504
505,1696243469331,-1.1914062,-0.4375,0.020507812,-85.5,108.96875,21.375,0.0,0.0,0.0,505
506,1696243469371,-1.2949219,0.26367188,0.40625,-71.84375,47.1875,14.25,-92.125,25.6875,-104.0,506
507,1696243469411,-1.1865234,-0.6982422,-0.12988281,-58.28125,5.75,33.59375,0.0,0.0,0.0,507
508,1696243469451,-1.4277344,0.24511719,0.20019531,-26.71875,-46.3125,-10.34375,0.0,0.0,0.0,508
509,1696243469491,-1.2705078,-0.15136719,-0.03125,2.0625,-131.28125,-11.34375,0.0,0.0,0.0,509
510,1696243469531,-1.4521484,0.23339844,-0.5751953,132.5,-209.6875,-11.8125,0.0,0.0,0.0,510
511,1696243469571,-1.7431641,0.4921875,0.50097656,-78.96875,-221.59375,-30.875,0.0,0.0,0.0,511
512,1696243469611,-1.65625,0.62890625,-0.30566406,-76.46875,-163.8125,-68.59375,0.0,0.0,0.0,512
513,1696243469651,-1.0068359,-0.16015625,0.10253906,147.59375,-215.375,-123.09375,0.0,0.0,0.0,513
514,1696243469691,-0.4033203,-0.19824219,-0.10253906,189.34375,-153.78125,-54.71875,0.0,0.0,0.0,514
515,1696243469731,-0.17675781,-0.044921875,-0.15234375,196.65625,-117.90625,-45.4375,0.0,0.0,0.0,515
516,1696243469771,-0.115234375,0.2421875,-0.15527344,115.84375,-73.84375,-23.65625,0.0,0.0,0.0,516
517,1696243469811,-0.061523438,0.24121094,0.052734375,70.0,49.40625,-30.8125,0.0,0.0,0.0,517
518,1696243469851,-0.23144531,0.21875,0.7060547,-22.09375,212.0625,-46.5625,0.0,0.0,0.0,518
519,1696243469891,-2.0,0.28808594,1.7998047,27.71875,71.3125,9.78125,-102.0,17.125,-76.5625,519
520,1696243469931,-0.30371094,0.2890625,0.6269531,199.53125,-189.4375,-27.5625,0.0,0.0,0.0,520
521,1696243469971,-0.6845703,0.9941406,-0.5986328,39.90625,40.5,41.15625,0.0,0.0,0.0,521
522,1696243470011,-2.0,-0.84277344,1.8457031,-73.125,-102.28125,54.9375,0.0,0.0,0.0,522
523,1696243470051,0.0546875,0.7392578,0.22070312,-83.125,121.3125,-45.21875,0.0,0.0,0.0,523
524,1696243470091,-1.3173828,-0.7265625,-0.3623047,-118.21875,211.8125,10.59375,0.0,0.0,0.0,524
525,1696243470131,-1.0595703,-0.09765625,0.3154297,-44.75,145.03125,-40.25,0.0,0.0,0.0,525
526,1696243470171,-0.5234375,0.8720703,0.14453125,-79.03125,138.6875,40.5625,0.0,0.0,0.0,526
527,1696243470211,-0.7919922,-0.08496094,-0.00390625,-103.875,147.78125,20.34375,0.0,0.0,0.0,527
528,1696243470251,-0.74902344,-0.140625,-0.14160156,-103.9375,115.4375,3.0625,0.0,0.0,0.0,528
529,1696243470291,-0.94921875,0.04296875,0.05078125,-81.1875,110.0,9.125,0.0,0.0,0.0,529
530,1696243470331,-1.2675781,-0.17285156,0.3173828,-49.625,110.5,23.65625,0.0,0.0,0.0,530
531,1696243470371,-1.1699219,0.1328125,0.3857422,-117.3125,68.125,-4.75,-92.875,26.3125,-104.0,531
532,1696243470411,-1.1230469,-0.7441406,0.018554688,-30.53125,0.21875,45.1875,0.0,0.0,0.0,532
533,1696243470451,-1.5273438,0.12109375,0.24121094,-20.6875,-58.4375,-22.8125,0.0,0.0,0.0,533
534,1696243470491,-1.4091797,-0.09277344,-0.19238281,38.9375,-144.03125,-37.8125,0.0,0.0,0.0,534
535,1696243470531,-1.4716797,0.4580078,-0.41601562,119.125,-203.90625,-36.0,0.0,0.0,0.0,535
536,1696243470571,-1.7392578,0.5,0.5058594,-102.125,-234.46875,-23.90625,0.0,0.0,0.0,536
537,1696243470611,-1.8720703,0.49609375,-0.6064453,-2.125,-148.84375,-71.875,0.0,0.0,0.0,537
538,1696243470651,-0.7988281,-0.31445312,0.047851562,140.25,-196.8125,-124.25,0.0,0.0,0.0,538
539,1696243470691,-0.40722656,-0.26660156,-0.15527344,204.28125,-140.53125,-72.4375,0.0,0.0,0.0,539
540,1696243470731,-0.0087890625,0.099609375,-0.1640625,197.3125,-118.21875,-28.46875,0.0,0.0,0.0,540
541,1696243470771,-0.0146484375,0.26953125,-0.23242188,112.0,-57.0625,-29.28125,0.0,0.0,0.0,541
542,1696243470811,-0.046875,0.140625,0.02734375,76.0625,59.90625,-32.8125,0.0,0.0,0.0,542
543,1696243470851,-0.578125,0.12695312,1.3369141,-14.15625,235.75,-50.6875,0.0,0.0,0.0,543
544,1696243470891,-2.0,-0.1328125,1.1279297,24.65625,-1.8125,-2.71875,-103.8125,15.8125,-75.1875,544
545,1696243470931,0.7158203,1.2431641,0.28125,254.40625,-174.25,-32.4375,0.0,0.0,0.0,545
546,1696243470971,-1.5654297,0.57714844,0.29882812,-28.5,41.65625,66.90625,0.0,0.0,0.0,546
547,1696243471011,-1.4951172,-0.6230469,-0.25097656,-6.78125,-52.03125,10.15625,0.0,0.0,0.0,547
548,1696243471051,-0.7216797,-0.07128906,0.0009765625,-140.5625,129.78125,-13.09375,0.0,0.0,0.0,548
549,1696243471091,-1.6962891,-0.5048828,-0.0390625,-105.84375,189.15625,-38.4375,0.0,0.0,0.0,549
550,1696243471131,-0.6904297,0.34375,0.2861328,-115.59375,153.59375,-24.5,0.0,0.0,0.0,550
551,1696243471171,-0.8183594,0.2841797,-0.026367188,-119.25,156.5625,55.875,0.0,0.0,0.0,551
552,1696243471211,-0.83203125,-0.15820312,0.020507812,-114.875,154.375,15.59375,0.0,0.0,0.0,552
553,1696243471251,-0.6767578,0.09472656,0.052734375,-101.125,120.3125,6.75,0.0,0.0,0.0,553
554,1696243471291,-0.7998047,-0.034179688,-0.22363281,-119.5,113.71875,17.90625,0.0,0.0,0.0,554
555,1696243471331,-1.1337891,-0.15625,0.22558594,-32.78125,102.125,31.5625,0.0,0.0,0.0,555
556,1696243471371,-1.1328125,0.18261719,0.44921875,-128.34375,77.40625,3.4375,-94.625,25.25,-102.625,556
557,1696243471411,-1.4921875,-0.78027344,-0.021484375,-41.625,2.03125,46.59375,0.0,0.0,0.0,557
558,1696243471451,-1.4960938,0.27246094,0.3125,-19.28125,-9.5625,-21.90625,0.0,0.0,0.0,558
559,1696243471491,-1.3242188,-0.22753906,0.27539062,-13.90625,-97.28125,29.9375,0.0,0.0,0.0,559
560,1696243471531,-1.3720703,-0.05078125,-0.7363281,19.65625,-196.09375,18.28125,0.0,0.0,0.0,560
561,1696243471571,-1.4042969,0.19433594,-0.1328125,54.8125,-204.875,-30.9375,0.0,0.0,0.0,561
562,1696243471611,-1.6005859,0.32617188,0.296875,-63.0,-217.15625,-27.03125,0.0,0.0,0.0,562
563,1696243471651,-1.7998047,0.22949219,-0.056640625,181.9375,-147.3125,-109.0,0.0,0.0,0.0,563
564,1696243471691,-0.5966797,-0.24511719,-0.2548828,164.78125,-157.625,-150.96875,0.0,0.0,0.0,564
565,1696243471731,-0.3955078,-0.083984375,-0.17285156,210.6875,-123.875,-87.3125,0.0,0.0,0.0,565
566,1696243471771,-0.12402344,0.09375,-0.18066406,192.5625,-100.125,-46.125,0.0,0.0,0.0,566
567,1696243471811,-0.1171875,0.2529297,-0.19628906,113.90625,-18.34375,-38.3125,0.0,0.0,0.0,567
568,1696243471851,-0.16894531,0.23730469,0.25976562,21.0,105.0,-45.21875,0.0,0.0,0.0,568
569,1696243471891,-1.2675781,0.41601562,1.5273438,-125.375,197.40625,-42.03125,-102.75,14.5625,-71.3125,569
570,1696243471931,-2.0,-0.25,1.2646484,279.71875,-100.3125,18.09375,0.0,0.0,0.0,570
571,1696243471971,0.9111328,0.30078125,0.54003906,32.40625,-147.25,-0.34375,0.0,0.0,0.0,571
572,1696243472011,-1.3701172,0.49121094,0.05859375,33.09375,125.625,13.09375,0.0,0.0,0.0,572
573,1696243472051,-2.0,-0.6044922,-0.38183594,-62.9375,-82.1875,-44.65625,0.0,0.0,0.0,573
574,1696243472091,0.20703125,0.3955078,0.040039062,-22.71875,167.9375,57.625,0.0,0.0,0.0,574
575,1696243472131,-2.0,-1.1289062,-0.09082031,-277.09375,219.4375,-11.875,0.0,0.0,0.0,575
576,1696243472171,-0.6455078,0.078125,0.38476562,-81.375,137.09375,-64.75,0.0,0.0,0.0,576
577,1696243472211,-0.43652344,0.7626953,0.06347656,-109.4375,157.96875,31.625,0.0,0.0,0.0,577
578,1696243472251,-0.95996094,-0.35351562,-0.22851562,-146.4375,166.9375,33.21875,0.0,0.0,0.0,578
579,1696243472291,-0.7841797,0.016601562,-0.13769531,-133.59375,113.4375,9.53125,0.0,0.0,0.0,579
580,1696243472331,-0.9248047,-0.08984375,0.25976562,-98.5,88.15625,18.875,0.0,0.0,0.0,580
581,1696243472371,-1.2792969,-0.3828125,0.05859375,-91.84375,92.90625,19.25,-97.0625,23.3125,-103.875,581
582,1696243472411,-1.1123047,0.16503906,0.3857422,-82.6875,70.75,9.40625,0.0,0.0,0.0,582
583,1696243472451,-1.2138672,-0.75390625,-0.0146484375,-31.6875,10.8125,48.71875,0.0,0.0,0.0,583
584,1696243472491,-1.4658203,0.45507812,0.16601562,-36.9375,-19.28125,-20.5625,0.0,0.0,0.0,584
585,1696243472531,-1.3095703,-0.25,0.06933594,2.5,-119.0,-4.8125,0.0,0.0,0.0,585
586,1696243472571,-1.4101562,0.16503906,-0.67089844,89.34375,-199.6875,-18.65625,0.0,0.0,0.0,586
587,1696243472611,-1.8339844,0.3330078,0.07128906,-38.5,-235.75,-54.96875,0.0,0.0,0.0,587
588,1696243472651,-1.5722656,0.45996094,0.0390625,-82.9375,-184.71875,-55.09375,0.0,0.0,0.0,588
589,1696243472691,-1.1201172,-0.13183594,0.38476562,182.875,-264.5625,-93.65625,0.0,0.0,0.0,589
590,1696243472731,-0.44921875,-0.27539062,-0.14257812,177.90625,-171.65625,-56.8125,0.0,0.0,0.0,590
591,1696243472771,-0.19921875,-0.05078125,-0.17089844,209.28125,-156.09375,-30.8125,0.0,0.0,0.0,591
592,1696243472811,-0.037109375,0.21582031,-0.13769531,136.71875,-82.125,-18.90625,0.0,0.0,0.0,592
593,1696243472851,-0.15039062,0.25976562,-0.15625,76.34375,5.40625,-24.21875,0.0,0.0,0.0,593
594,1696243472891,-0.14941406,0.099609375,0.35839844,17.9375,132.09375,-36.21875,-101.5625,20.125,-63.1875,594
595,1696243472931,-1.0869141,0.37597656,1.8955078,-80.09375,228.40625,-40.125,0.0,0.0,0.0,595
596,1696243472971,-2.0,-0.25390625,0.9560547,112.3125,-116.125,-8.34375,0.0,0.0,0.0,596
597,1696243473011,1.6425781,0.4921875,0.3076172,124.5,-148.90625,-14.03125,0.0,0.0,0.0,597
598,1696243473051,-0.8466797,0.4501953,-1.5576172,-140.5625,175.0625,37.5,0.0,0.0,0.0,598
599,1696243473091,-2.0,-1.9824219,-0.18457031,54.3125,-53.03125,-28.0625,0.0,0.0,0.0,599
600,1696243473131,0.6113281,1.1748047,-0.01171875,-76.71875,155.125,-69.0,0.0,0.0,0.0,600
601,1696243473171,-1.4462891,-1.0107422,-0.48339844,-127.125,185.5625,86.75,0.0,0.0,0.0,601
602,1696243473211,-1.0302734,-0.052734375,0.125,-65.25,168.0,-46.0,0.0,0.0,0.0,602
603,1696243473251,-0.5605469,0.6357422,-0.087890625,-81.84375,147.59375,11.25,0.0,0.0,0.0,603
604,1696243473291,-0.70996094,0.016601562,-0.12109375,-124.375,137.84375,12.28125,0.0,0.0,0.0,604
605,1696243473331,-0.8066406,0.044921875,-0.16113281,-114.75,109.875,9.125,0.0,0.0,0.0,605
606,1696243473371,-0.9560547,-0.15429688,0.16503906,-48.40625,93.28125,26.21875,-95.5625,21.5,-99.9375,606
607,1696243473411,-1.2197266,-0.40039062,0.36035156,-152.15625,98.46875,8.5,0.0,0.0,0.0,607
608,1696243473451,-1.2597656,-0.37402344,-0.13183594,-10.0625,31.625,40.4375,0.0,0.0,0.0,608
609,1696243473491,-1.4384766,0.24511719,0.13671875,-47.78125,15.59375,-14.8125,0.0,0.0,0.0,609
610,1696243473531,-1.4814453,-0.06738281,0.19726562,-49.75,-62.28125,16.3125,0.0,0.0,0.0,610
611,1696243473571,-1.3886719,-0.41015625,-0.59277344,3.0,-170.21875,-2.65625,0.0,0.0,0.0,611
612,1696243473611,-1.3984375,0.16992188,-0.51171875,104.8125,-191.9375,-37.6875,0.0,0.0,0.0,612
613,1696243473651,-1.8525391,0.22851562,0.35058594,-71.71875,-229.34375,-38.0,0.0,0.0,0.0,613
614,1696243473691,-2.0,0.18164062,-0.19140625,252.375,-147.875,-101.0625,0.0,0.0,0.0,614
615,1696243473731,-0.6591797,-0.19726562,-0.25,119.25,-160.4375,-105.375,0.0,0.0,0.0,615
616,1696243473771,-0.265625,0.06542969,-0.22949219,156.5625,-119.90625,-42.9375,0.0,0.0,0.0,616
617,1696243473811,-0.0859375,-0.036132812,-0.15820312,165.21875,-97.09375,-27.875,0.0,0.0,0.0,617
618,1696243473851,0.00390625,0.26171875,-0.36132812,137.8125,-57.84375,-21.09375,0.0,0.0,0.0,618
619,1696243473891,-0.04296875,0.16308594,0.095703125,40.03125,97.75,-10.34375,-101.6875,18.1875,-67.875,619
620,1696243473931,-1.1503906,0.26464844,1.0224609,-92.34375,235.1875,-30.5,0.0,0.0,0.0,620
621,1696243473971,-2.0,-0.33984375,1.7773438,197.09375,-67.59375,-5.34375,0.0,0.0,0.0,621
622,1696243474011,1.1074219,0.3544922,0.5019531,71.71875,-168.5,-28.375,0.0,0.0,0.0,622
623,1696243474051,-2.0,0.36035156,-0.7939453,29.78125,20.09375,68.875,0.0,0.0,0.0,623
624,1696243474091,-0.047851562,-0.21484375,-1.3193359,35.34375,-8.03125,-1.6875,0.0,0.0,0.0,624
625,1696243474131,-0.8261719,-0.5595703,-1.1679688,-233.9375,186.84375,29.125,0.0,0.0,0.0,625
626,1696243474171,-2.0,-0.9550781,0.111328125,-74.40625,204.125,-22.1875,0.0,0.0,0.0,626
627,1696243474211,-0.484375,0.47851562,0.29785156,-163.4375,143.09375,-30.6875,0.0,0.0,0.0,627
628,1696243474251,-0.7001953,0.3232422,0.09082031,-111.03125,174.65625,43.28125,0.0,0.0,0.0,628
629,1696243474291,-0.71972656,-0.23242188,-0.10839844,-93.625,135.21875,5.6875,0.0,0.0,0.0,629
630,1696243474331,-0.671875,0.17480469,-0.20703125,-128.0,118.25,6.0625,0.0,0.0,0.0,630
631,1696243474371,-0.98828125,-0.11328125,0.25683594,-73.1875,102.25,28.59375,-96.4375,21.9375,-98.4375,631
632,1696243474411,-1.265625,-0.5,0.20117188,-132.09375,101.53125,6.25,0.0,0.0,0.0,632
633,1696243474451,-1.1875,0.0,0.20800781,-37.71875,41.65625,21.875,0.0,0.0,0.0,633
634,1696243474491,-1.2158203,-0.65527344,-0.19335938,-27.96875,18.9375,27.1875,0.0,0.0,0.0,634
635,1696243474531,-1.5683594,0.30371094,0.16308594,-24.0625,-32.21875,-0.15625,0.0,0.0,0.0,635
636,1696243474571,-1.2792969,-0.15039062,-0.09472656,2.1875,-114.90625,-5.09375,0.0,0.0,0.0,636
637,1696243474611,-1.4140625,0.47753906,-0.6591797,119.6875,-181.3125,-23.65625,0.0,0.0,0.0,637
638,1696243474651,-1.796875,0.43164062,0.1875,-36.875,-221.21875,-27.875,0.0,0.0,0.0,638
639,1696243474691,-1.4404297,0.36132812,-0.09472656,-106.3125,-195.90625,-55.34375,0.0,0.0,0.0,639
640,1696243474731,-1.5,0.052734375,0.39453125,241.15625,-242.15625,-107.875,0.0,0.0,0.0,640
641,1696243474771,-0.40234375,-0.23828125,-0.16308594,164.0625,-161.90625,-63.15625,0.0,0.0,0.0,641
642,1696243474811,-0.19140625,-0.052734375,-0.1875,188.78125,-114.125,-39.84375,0.0,0.0,0.0,642
643,1696243474851,-0.10839844,0.17285156,-0.103515625,125.5,-81.28125,-18.15625,0.0,0.0,0.0,643
644,1696243474891,-0.08496094,0.30273438,-0.15820312,70.4375,9.1875,-19.75,-100.5,16.5625,-67.375,644
645,1696243474931,-0.19042969,0.16992188,0.3623047,17.28125,169.15625,-19.15625,0.0,0.0,0.0,645
646,1696243474971,-2.0,0.3310547,1.9873047,-89.34375,190.21875,-6.28125,0.0,0.0,0.0,646
647,1696243475011,-1.3037109,0.36816406,0.78125,245.4375,-209.09375,-23.125,0.0,0.0,0.0,647
648,1696243475051,0.89160156,0.4326172,0.02734375,15.25,-54.375,26.4375,0.0,0.0,0.0,648
649,1696243475091,-2.0,0.25976562,-0.8876953,-162.65625,90.28125,41.65625,0.0,0.0,0.0,649
650,1696243475131,-0.51464844,0.001953125,-0.6279297,-7.03125,32.375,-55.15625,0.0,0.0,0.0,650
651,1696243475171,-0.21484375,-0.4580078,-0.69433594,-187.125,182.75,19.5,0.0,0.0,0.0,651
652,1696243475211,-2.0,-0.97558594,-0.0107421875,-103.09375,163.84375,11.5,0.0,0.0,0.0,652
653,1696243475251,-0.6738281,0.59277344,0.10644531,-42.34375,127.78125,-9.5625,0.0,0.0,0.0,653
654,1696243475291,-0.68652344,0.5253906,0.20800781,-63.28125,142.21875,32.78125,0.0,0.0,0.0,654
655,1696243475331,-0.7529297,-0.18945312,-0.091796875,-104.8125,122.59375,11.1875,0.0,0.0,0.0,655
656,1696243475371,-0.82910156,0.04296875,-0.25,-97.78125,103.71875,7.03125,-96.3125,21.8125,-96.5,656
657,1696243475411,-1.0351562,0.036132812,0.19433594,-21.125,108.3125,25.03125,0.0,0.0,0.0,657
658,1696243475451,-1.2509766,-0.21289062,0.28125,-121.21875,108.46875,-2.59375,0.0,0.0,0.0,658
659,1696243475491,-1.3730469,-0.005859375,0.19628906,-74.40625,34.5,14.96875,0.0,0.0,0.0,659
660,1696243475531,-1.2949219,-0.5761719,0.14355469,-40.40625,1.0,25.09375,0.0,0.0,0.0,660
661,1696243475571,-1.4541016,-0.3671875,0.08105469,-44.125,-60.90625,2.15625,0.0,0.0,0.0,661
662,1696243475611,-1.4599609,-0.24121094,-0.48046875,37.0625,-153.0625,-37.46875,0.0,0.0,0.0,662
663,1696243475651,-1.3466797,0.7167969,-0.5185547,126.65625,-193.59375,-48.4375,0.0,0.0,0.0,663
664,1696243475691,-1.5390625,0.45410156,0.42382812,-112.96875,-237.46875,-13.03125,0.0,0.0,0.0,664
665,1696243475731,-1.9912109,0.29296875,-0.64746094,70.5625,-122.84375,-105.25,0.0,0.0,0.0,665
666,1696243475771,-0.6953125,-0.3701172,-0.12890625,115.84375,-172.90625,-135.59375,0.0,0.0,0.0,666
667,1696243475811,-0.36328125,-0.14160156,-0.1796875,186.40625,-130.03125,-69.5,0.0,0.0,0.0,667
668,1696243475851,-0.036132812,0.11621094,-0.0859375,164.0625,-97.8125,-20.0,0.0,0.0,0.0,668
669,1696243475891,-0.06347656,0.19628906,-0.14160156,101.75,-30.25,-15.125,-98.6875,17.5625,-68.4375,669
670,1696243475931,-0.043945312,0.19042969,0.119140625,38.875,103.21875,-24.5,0.0,0.0,0.0,670
671,1696243475971,-1.0029297,0.22363281,0.9667969,-74.71875,227.6875,-23.90625,0.0,0.0,0.0,671
672,1696243476011,-2.0,-0.3935547,1.4960938,119.25,-67.96875,22.0,0.0,0.0,0.0,672
673,1696243476051,0.8955078,0.4423828,0.45996094,147.15625,-167.9375,-17.25,0.0,0.0,0.0,673
674,1696243476091,-0.56640625,0.5019531,-0.2265625,19.15625,104.9375,13.5,0.0,0.0,0.0,674
675,1696243476131,-2.0,-1.6552734,1.0634766,-151.625,-133.53125,-53.4375,0.0,0.0,0.0,675
676,1696243476171,0.6142578,1.6367188,0.20507812,31.4375,121.96875,-25.84375,0.0,0.0,0.0,676
677,1696243476211,-1.1601562,-0.93652344,-0.6933594,-186.84375,214.5,62.59375,0.0,0.0,0.0,677
678,1696243476251,-1.4052734,-0.36523438,0.21777344,-56.875,141.125,-20.3125,0.0,0.0,0.0,678
679,1696243476291,-0.44433594,0.9013672,0.13378906,-67.3125,134.40625,10.34375,0.0,0.0,0.0,679
680,1696243476331,-0.7675781,0.03125,-0.01171875,-116.5625,155.28125,38.96875,0.0,0.0,0.0,680
681,1696243476371,-0.8017578,-0.19042969,-0.29492188,-118.40625,124.28125,19.84375,-95.25,19.25,-94.6875,681
682,1696243476411,-0.9501953,0.06542969,0.034179688,-82.8125,119.46875,22.59375,0.0,0.0,0.0,682
683,1696243476451,-1.2470703,-0.2265625,0.41796875,-65.3125,108.1875,24.375,0.0,0.0,0.0,683
684,1696243476491,-1.3505859,0.026367188,0.3515625,-101.0625,53.3125,10.21875,0.0,0.0,0.0,684
685,1696243476531,-1.2353516,-0.61816406,-0.025390625,-39.625,-7.5,36.34375,0.0,0.0,0.0,685
686,1696243476571,-1.5927734,-0.041015625,0.021484375,-7.6875,-72.71875,-15.25,0.0,0.0,0.0,686
687,1696243476611,-1.3759766,0.099609375,-0.3310547,49.0,-153.78125,-38.6875,0.0,0.0,0.0,687
688,1696243476651,-1.421875,0.41503906,-0.359375,97.90625,-200.90625,-22.3125,0.0,0.0,0.0,688
689,1696243476691,-1.4267578,0.28808594,0.39453125,-137.625,-221.40625,-30.0625,0.0,0.0,0.0,689
690,1696243476731,-1.9873047,0.31152344,-0.41796875,164.71875,-120.59375,-94.53125,0.0,0.0,0.0,690
691,1696243476771,-0.61035156,-0.31054688,-0.07910156,141.28125,-156.78125,-139.3125,0.0,0.0,0.0,691
692,1696243476811,-0.3798828,-0.13183594,-0.21679688,185.1875,-125.09375,-78.90625,0.0,0.0,0.0,692
693,1696243476851,-0.1640625,0.18457031,-0.12402344,175.53125,-87.4375,-39.40625,0.0,0.0,0.0,693
694,1696243476891,-0.12792969,0.3154297,-0.17480469,98.75,-46.375,-33.96875,-98.25,17.5625,-69.5,694
695,1696243476931,-0.01171875,0.16503906,0.06738281,35.03125,66.1875,-27.1875,0.0,0.0,0.0,695
696,1696243476971,-0.5966797,0.072265625,1.09375,-46.5,215.28125,-34.28125,0.0,0.0,0.0,696
697,1696243477011,-2.0,-0.56152344,1.6777344,89.90625,-18.40625,33.78125,0.0,0.0,0.0,697
698,1696243477051,0.78222656,0.65234375,0.4169922,150.21875,-166.65625,-49.65625,0.0,0.0,0.0,698
699,1696243477091,-2.0,0.55859375,-0.9111328,-5.875,73.875,54.53125,0.0,0.0,0.0,699
700,1696243477131,-0.515625,-1.1884766,-1.1591797,20.375,-45.8125,-38.1875,0.0,0.0,0.0,700
701,1696243477171,-0.38183594,0.0546875,-0.53515625,-167.34375,140.78125,26.9375,0.0,0.0,0.0,701
702,1696243477211,-2.0,-0.6591797,0.171875,-141.40625,181.84375,33.78125,0.0,0.0,0.0,702
703,1696243477251,-0.5683594,0.20800781,0.115234375,-136.28125,154.625,-21.28125,0.0,0.0,0.0,703
704,1696243477291,-0.7285156,0.3310547,0.07324219,-69.09375,142.0625,56.90625,0.0,0.0,0.0,704
705,1696243477331,-0.9121094,-0.16601562,0.140625,-87.65625,122.875,20.96875,0.0,0.0,0.0,705
706,1696243477371,-0.7001953,0.038085938,-0.06933594,-97.84375,116.28125,13.5625,-94.9375,20.875,-94.5625,706
707,1696243477411,-0.8652344,-0.29003906,-0.17773438,-87.46875,127.09375,28.34375,0.0,0.0,0.0,707
708,1696243477451,-1.2119141,-0.1015625,0.30566406,-52.1875,121.25,21.9375,0.0,0.0,0.0,708
709,1696243477491,-1.2109375,-0.0126953125,0.14257812,-83.125,58.0,8.3125,0.0,0.0,0.0,709
710,1696243477531,-1.3652344,-0.38867188,0.032226562,-30.34375,13.6875,28.78125,0.0,0.0,0.0,710
711,1696243477571,-1.4541016,-0.0107421875,0.123046875,-71.46875,-26.71875,2.78125,0.0,0.0,0.0,711
712,1696243477611,-1.4414062,-0.28515625,0.022460938,-18.5625,-108.5,-12.25,0.0,0.0,0.0,712
713,1696243477651,-1.3408203,0.3798828,-0.6435547,134.40625,-193.875,-26.59375,0.0,0.0,0.0,713
714,1696243477691,-1.6474609,0.6113281,0.18847656,13.84375,-230.8125,-32.9375,0.0,0.0,0.0,714
715,1696243477731,-1.4609375,0.42382812,0.0859375,-162.65625,-214.46875,-36.125,0.0,0.0,0.0,715
716,1696243477771,-1.6953125,0.045898438,0.16015625,237.375,-227.8125,-102.28125,0.0,0.0,0.0,716
717,1696243477811,-0.36328125,-0.22753906,-0.16503906,138.3125,-171.96875,-67.71875,0.0,0.0,0.0,717
718,1696243477851,-0.23925781,0.015625,-0.10449219,193.71875,-132.90625,-27.09375,0.0,0.0,0.0,718
719,1696243477891,-0.13867188,0.16210938,-0.10058594,117.75,-84.5,-12.78125,-100.5,18.3125,-68.75,719
720,1696243477931,0.055664062,0.23339844,-0.09375,59.5625,3.0,-17.75,0.0,0.0,0.0,720
721,1696243477971,0.10058594,0.09472656,0.3876953,19.09375,188.5625,-24.09375,0.0,0.0,0.0,721
722,1696243478011,-2.0,0.37304688,1.9873047,-102.71875,173.125,2.46875,0.0,0.0,0.0,722
723,1696243478051,-0.96191406,0.3857422,0.5332031,254.34375,-213.34375,-28.25,0.0,0.0,0.0,723
724,1696243478091,-0.4326172,0.5371094,0.036132812,-8.125,-17.5625,56.65625,0.0,0.0,0.0,724
725,1696243478131,-1.4072266,-0.6738281,0.25195312,-46.21875,-77.75,14.90625,0.0,0.0,0.0,725
726,1696243478171,-0.8066406,0.09863281,0.04296875,-100.71875,114.59375,-6.21875,0.0,0.0,0.0,726
727,1696243478211,-1.6923828,-0.5214844,-0.02734375,-106.625,196.90625,-39.53125,0.0,0.0,0.0,727
728,1696243478251,-0.69921875,0.19628906,0.19628906,-98.875,145.65625,-26.09375,0.0,0.0,0.0,728
729,1696243478291,-0.7998047,0.45898438,-0.0029296875,-90.875,150.59375,60.25,0.0,0.0,0.0,729
730,1696243478331,-0.8574219,-0.068359375,0.060546875,-78.5625,134.0625,27.5625,0.0,0.0,0.0,730
731,1696243478371,-0.6738281,-0.07128906,0.09277344,-84.15625,114.71875,9.96875,-98.125,19.25,-94.375,731
732,1696243478411,-0.8964844,-0.20605469,-0.27539062,-102.46875,114.03125,6.4375,0.0,0.0,0.0,732
733,1696243478451,-1.1132812,0.09082031,0.16210938,-11.15625,113.4375,19.0625,0.0,0.0,0.0,733
734,1696243478491,-1.1435547,0.001953125,0.359375,-105.40625,95.46875,4.96875,0.0,0.0,0.0,734
735,1696243478531,-1.3359375,-0.36816406,-0.080078125,-41.0625,26.8125,35.125,0.0,0.0,0.0,735
736,1696243478571,-1.4609375,0.020507812,0.051757812,-50.40625,11.625,-6.21875,0.0,0.0,0.0,736
737,1696243478611,-1.4248047,-0.421875,0.08203125,-50.90625,-54.65625,4.40625,0.0,0.0,0.0,737
738,1696243478651,-1.2783203,-0.119140625,-0.17285156,37.84375,-137.375,-18.46875,0.0,0.0,0.0,738
739,1696243478691,-1.2705078,0.25390625,-0.3955078,157.71875,-197.4375,-16.15625,0.0,0.0,0.0,739
740,1696243478731,-1.7089844,0.3388672,0.31054688,-58.71875,-241.125,-35.6875,0.0,0.0,0.0,740
741,1696243478771,-1.9941406,0.48828125,-0.54003906,47.0,-110.34375,-77.0625,0.0,0.0,0.0,741
742,1696243478811,-0.77441406,-0.10839844,0.048828125,101.9375,-184.625,-113.125,0.0,0.0,0.0,742
743,1696243478851,-0.37304688,-0.115234375,-0.07324219,123.34375,-122.0625,-65.65625,0.0,0.0,0.0,743
744,1696243478891,-0.22070312,0.032226562,-0.14746094,164.625,-97.4375,-31.78125,-100.5,16.5625,-73.125,744
745,1696243478931,-0.140625,0.25195312,-0.203125,119.875,-57.0,-20.5625,0.0,0.0,0.0,745
746,1696243478971,-0.12109375,0.09667969,0.1328125,43.09375,55.25,-13.53125,0.0,0.0,0.0,746
747,1696243479011,-0.5996094,0.061523438,0.9736328,-49.375,196.5625,-33.0625,0.0,0.0,0.0,747
748,1696243479051,-2.0,-0.16210938,1.8134766,33.03125,17.0,14.125,0.0,0.0,0.0,748
749,1696243479091,-0.08691406,0.62597656,0.3955078,189.8125,-167.65625,-36.90625,0.0,0.0,0.0,749
750,1696243479131,-1.7333984,0.111328125,-0.107421875,89.71875,3.1875,52.75,0.0,0.0,0.0,750
751,1696243479171,-0.87890625,0.5751953,-0.013671875,-190.25,40.96875,-49.40625,0.0,0.0,0.0,751
752,1696243479211,-0.65722656,-0.4921875,-0.24804688,-67.03125,154.125,43.28125,0.0,0.0,0.0,752
753,1696243479251,-1.3925781,-0.7324219,-0.10839844,-125.90625,177.03125,-27.5625,0.0,0.0,0.0,753
754,1696243479291,-0.7138672,0.32617188,0.17578125,-86.125,138.4375,-0.78125,0.0,0.0,0.0,754
755,1696243479331,-0.80859375,0.39941406,0.0390625,-66.65625,147.78125,35.65625,0.0,0.0,0.0,755
756,1696243479371,-0.9160156,-0.048828125,-0.051757812,-94.65625,141.0,25.59375,-99.625,17.75,-90.8125,756
757,1696243479411,-0.7285156,0.0625,-0.053710938,-72.4375,116.15625,27.375,0.0,0.0,0.0,757
758,1696243479451,-1.0205078,-0.32128906,-0.08203125,-50.78125,123.5,21.5625,0.0,0.0,0.0,758
759,1696243479491,-1.3017578,-0.033203125,0.2998047,-67.75,92.0,-1.8125,0.0,0.0,0.0,759
