# Sensor type: Thingy
# Activity type: Lying down on left
# Activity subtype: Normal
# Subject id: s2104454
# Notes: unprocessed
timestamp,accel_x,accel_y,accel_z,gyro_x,gyro_y,gyro_z,mag_x,mag_y,mag_z
1696242902745,-0.103515625,0.9951172,0.1484375,-0.09375,-0.25,-0.09375,0.0,0.0,0.0
1696242902771,-0.109375,0.9873047,0.15039062,0.15625,-0.3125,-0.28125,0.0,0.0,0.0
1696242902803,-0.09863281,0.9921875,0.13476562,-0.21875,-0.59375,-0.40625,0.0,0.0,0.0
1696242902863,-0.10546875,0.98339844,0.15332031,-0.15625,-0.3125,-0.15625,0.0,0.0,0.0
1696242902893,-0.10058594,0.9902344,0.14550781,-0.40625,0.125,0.0625,-54.75,64.6875,-45.1875
1696242902922,-0.10058594,0.98828125,0.15527344,0.21875,-0.4375,0.75,0.0,0.0,0.0
1696242902983,-0.10253906,0.9902344,0.13964844,-0.09375,-0.65625,0.25,0.0,0.0,0.0
1696242903012,-0.091796875,0.98339844,0.15527344,-0.6875,-0.4375,0.1875,0.0,0.0,0.0
1696242903044,-0.109375,0.97753906,0.1484375,-0.75,-0.65625,-0.21875,0.0,0.0,0.0
1696242903102,-0.10546875,0.9921875,0.13574219,-0.75,-0.65625,-0.09375,0.0,0.0,0.0
1696242903131,-0.10546875,0.9863281,0.15722656,-0.625,-0.5,-0.46875,0.0,0.0,0.0
1696242903162,-0.103515625,0.9873047,0.14453125,0.28125,-0.3125,-0.34375,0.0,0.0,0.0
1696242903222,-0.09472656,0.9873047,0.14648438,0.09375,-0.1875,0.0625,0.0,0.0,0.0
1696242903253,-0.09375,0.98535156,0.15625,-1.0,-0.3125,0.4375,0.0,0.0,0.0
1696242903315,-0.08984375,0.99609375,0.16601562,-1.1875,-0.375,0.8125,0.0,0.0,0.0
1696242903343,-0.09667969,0.9736328,0.14355469,-0.4375,-0.5625,0.03125,0.0,0.0,0.0
1696242903371,-0.11425781,0.9892578,0.15039062,0.40625,-0.25,-0.46875,0.0,0.0,0.0
1696242903434,-0.091796875,0.98828125,0.16015625,0.34375,-0.375,-0.71875,-53.375,64.375,-43.125
1696242903461,-0.09863281,0.9941406,0.14746094,-0.4375,-0.1875,-0.21875,0.0,0.0,0.0
1696242903497,-0.099609375,0.96972656,0.1640625,-0.75,-0.5,0.1875,0.0,0.0,0.0
1696242903526,-0.10449219,0.98339844,0.14746094,-0.34375,-0.5625,0.125,0.0,0.0,0.0
1696242903583,-0.10449219,0.984375,0.16113281,0.15625,-0.25,0.1875,0.0,0.0,0.0
1696242903617,-0.1015625,0.98339844,0.14453125,0.875,-0.4375,-0.40625,0.0,0.0,0.0
1696242903643,-0.09667969,0.98828125,0.14355469,1.5,-1.15625,-1.09375,0.0,0.0,0.0
1696242903705,-0.09863281,0.98046875,0.15136719,0.09375,-0.375,-0.90625,0.0,0.0,0.0
1696242903734,-0.103515625,0.9892578,0.14648438,-0.34375,-0.375,-0.46875,0.0,0.0,0.0
1696242903764,-0.10449219,0.98339844,0.15527344,-0.8125,-0.65625,-0.03125,0.0,0.0,0.0
1696242903823,-0.095703125,0.9765625,0.1484375,-0.28125,-0.59375,-0.28125,0.0,0.0,0.0
1696242903852,-0.10644531,0.9785156,0.13085938,1.0,-0.3125,-0.53125,0.0,0.0,0.0
1696242903913,-0.10644531,0.99609375,0.14257812,1.625,0.125,-0.71875,-51.4375,64.6875,-44.1875
1696242903941,-0.10058594,0.9921875,0.14941406,0.78125,-0.0625,-0.59375,0.0,0.0,0.0
1696242903970,-0.09277344,0.9902344,0.15234375,-0.34375,-0.25,0.03125,0.0,0.0,0.0
1696242904034,-0.09667969,0.9824219,0.15332031,-1.0625,-0.375,0.375,0.0,0.0,0.0
1696242904064,-0.095703125,0.9794922,0.14648438,-1.1875,-0.59375,0.3125,0.0,0.0,0.0
1696242904094,-0.095703125,0.9824219,0.15527344,-1.96875,-0.65625,0.6875,0.0,0.0,0.0
1696242904158,-0.1015625,0.9814453,0.14648438,-1.78125,-0.84375,0.3125,0.0,0.0,0.0
1696242904185,-0.10644531,0.98828125,0.15039062,-1.0625,-0.5,-0.21875,0.0,0.0,0.0
1696242904214,-0.103515625,0.9814453,0.1640625,-1.0,-0.1875,-0.28125,0.0,0.0,0.0
1696242904275,-0.10058594,0.9892578,0.15820312,-0.5625,-0.125,0.03125,0.0,0.0,0.0
1696242904304,-0.10253906,0.98828125,0.16503906,-0.5625,-0.25,0.4375,0.0,0.0,0.0
1696242904364,-0.1015625,0.9902344,0.15820312,-0.5625,-0.125,0.4375,0.0,0.0,0.0
1696242904393,-0.103515625,0.9736328,0.15234375,-0.09375,-0.0625,0.1875,0.0,0.0,0.0
1696242904425,-0.09667969,0.98339844,0.14746094,0.46875,-0.3125,-0.40625,-52.8125,65.3125,-44.0
1696242904455,-0.1015625,0.9736328,0.15625,1.125,-0.0625,-0.46875,0.0,0.0,0.0
1696242904513,-0.10839844,0.98828125,0.15820312,1.75,0.25,-1.09375,0.0,0.0,0.0
1696242904545,-0.10058594,0.9892578,0.14550781,2.21875,-0.25,-0.46875,0.0,0.0,0.0
1696242904571,-0.103515625,0.99902344,0.15722656,1.125,-0.375,-0.21875,0.0,0.0,0.0
1696242904631,-0.099609375,0.9951172,0.15234375,0.03125,-0.5,0.125,0.0,0.0,0.0
1696242904662,-0.10253906,0.98535156,0.15332031,-0.9375,-0.25,0.125,0.0,0.0,0.0
1696242904692,-0.11035156,0.97558594,0.15234375,-1.25,-0.4375,0.1875,0.0,0.0,0.0
1696242904753,-0.099609375,0.98339844,0.16015625,-1.71875,-0.125,0.03125,0.0,0.0,0.0
1696242904783,-0.11230469,0.9765625,0.15820312,-1.1875,0.0625,-0.03125,0.0,0.0,0.0
1696242904812,-0.10839844,0.9873047,0.15625,-0.4375,-0.125,0.03125,0.0,0.0,0.0
1696242904873,-0.10253906,0.98535156,0.16015625,-0.15625,-0.4375,0.1875,0.0,0.0,0.0
1696242904934,-0.10253906,0.9970703,0.16503906,-0.9375,-0.5,0.25,-53.6875,63.9375,-44.4375
1696242904943,-0.09667969,0.98046875,0.15039062,-0.75,-0.125,0.0625,0.0,0.0,0.0
1696242904994,-0.095703125,0.9794922,0.15429688,-0.6875,-0.3125,-0.21875,0.0,0.0,0.0
1696242905022,-0.10058594,0.97753906,0.15820312,-0.40625,-0.125,-0.34375,0.0,0.0,0.0
1696242905053,-0.09863281,0.984375,0.16699219,-0.21875,-0.1875,-0.09375,0.0,0.0,0.0
1696242905115,-0.09863281,0.98046875,0.15820312,0.09375,-0.125,-0.09375,0.0,0.0,0.0
1696242905141,-0.10058594,0.98535156,0.15820312,0.46875,-0.125,-0.03125,0.0,0.0,0.0
1696242905175,-0.10253906,0.98046875,0.1640625,0.03125,-0.3125,-0.09375,0.0,0.0,0.0
1696242905233,-0.09472656,0.98828125,0.15527344,0.53125,-0.5,-0.40625,0.0,0.0,0.0
1696242905261,-0.103515625,0.9873047,0.16601562,0.21875,-0.25,-0.28125,0.0,0.0,0.0
1696242905293,-0.095703125,0.9951172,0.14453125,0.53125,0.3125,-0.21875,0.0,0.0,0.0
1696242905358,-0.10839844,0.9794922,0.15332031,0.84375,-0.125,-0.09375,0.0,0.0,0.0
1696242905383,-0.099609375,0.99121094,0.14160156,0.59375,-0.125,-0.15625,0.0,0.0,0.0
1696242905411,-0.10253906,0.98828125,0.14746094,-0.6875,-0.3125,0.125,-53.125,65.0,-44.625
1696242905501,-0.091796875,0.9814453,0.15527344,-0.6875,-0.25,0.0625,0.0,0.0,0.0
1696242905505,-0.095703125,0.97753906,0.15136719,-0.34375,-0.3125,-0.03125,0.0,0.0,0.0
1696242905533,-0.10058594,0.9941406,0.15527344,-0.9375,-0.25,-0.34375,0.0,0.0,0.0
1696242905591,-0.107421875,0.984375,0.17089844,-0.5,-0.0625,0.0625,0.0,0.0,0.0
1696242905627,-0.10449219,0.98339844,0.15234375,-0.09375,-0.125,0.1875,0.0,0.0,0.0
1696242905652,-0.10058594,0.99121094,0.16699219,0.21875,-0.1875,-0.21875,0.0,0.0,0.0
1696242905713,-0.09082031,0.9951172,0.15820312,-0.5,-0.65625,0.125,0.0,0.0,0.0
1696242905742,-0.09472656,0.9785156,0.15527344,-1.625,-0.125,0.5625,0.0,0.0,0.0
1696242905772,-0.09667969,0.97558594,0.16699219,-0.03125,-0.25,0.03125,0.0,0.0,0.0
1696242905833,-0.099609375,0.98828125,0.15527344,3.5625,-0.375,-1.5,0.0,0.0,0.0
1696242905861,-0.11035156,1.0019531,0.16601562,1.25,0.0625,-1.375,0.0,0.0,0.0
1696242905892,-0.09375,0.9892578,0.15820312,-2.15625,-0.71875,0.5,-53.875,66.0625,-43.25
1696242905954,-0.0859375,0.96777344,0.15820312,-1.78125,-0.4375,0.8125,0.0,0.0,0.0
1696242905983,-0.103515625,0.9873047,0.15039062,-0.40625,0.125,0.0625,0.0,0.0,0.0
1696242906041,-0.103515625,0.98339844,0.15625,0.78125,-0.125,-0.28125,0.0,0.0,0.0
1696242906071,-0.111328125,0.98535156,0.13867188,1.5625,-0.5625,-0.40625,0.0,0.0,0.0
1696242906101,-0.09667969,0.9902344,0.15820312,0.53125,-0.25,-0.65625,0.0,0.0,0.0
1696242906131,-0.10253906,0.99316406,0.14746094,-1.4375,-0.0625,-0.46875,0.0,0.0,0.0
1696242906194,-0.10644531,0.98828125,0.15820312,0.34375,-0.65625,0.03125,0.0,0.0,0.0
1696242906221,-0.09667969,0.98339844,0.14453125,0.28125,-0.125,-0.09375,0.0,0.0,0.0
1696242906253,-0.099609375,0.984375,0.15722656,-0.5625,0.375,0.125,0.0,0.0,0.0
1696242906313,-0.09277344,0.98535156,0.16503906,0.46875,-0.375,1.0625,0.0,0.0,0.0
1696242906341,-0.1015625,0.97753906,0.14550781,-0.15625,-0.375,-0.03125,0.0,0.0,0.0
1696242906373,-0.099609375,0.9921875,0.15527344,0.09375,-0.3125,-0.65625,0.0,0.0,0.0
1696242906435,-0.1015625,0.99609375,0.15429688,-1.0,-0.3125,-0.34375,-52.9375,64.375,-45.1875
1696242906462,-0.09863281,0.98828125,0.16601562,-0.4375,-0.5625,0.125,0.0,0.0,0.0
1696242906493,-0.10644531,0.98339844,0.16015625,-0.875,-0.25,-0.15625,0.0,0.0,0.0
1696242906553,-0.099609375,0.984375,0.15917969,-0.9375,-0.125,-0.15625,0.0,0.0,0.0
1696242906582,-0.09765625,0.9794922,0.15917969,-0.15625,-0.125,0.375,0.0,0.0,0.0
1696242906613,-0.087890625,0.98339844,0.15722656,-0.15625,-0.25,0.25,0.0,0.0,0.0
1696242906675,-0.099609375,0.9765625,0.16210938,-0.09375,-0.1875,-0.09375,0.0,0.0,0.0
1696242906704,-0.099609375,0.9785156,0.15820312,0.34375,-0.375,-0.34375,0.0,0.0,0.0
1696242906731,-0.10253906,0.9824219,0.15917969,0.15625,-0.3125,-0.40625,0.0,0.0,0.0
1696242906792,-0.10546875,0.9863281,0.15332031,-0.21875,-0.3125,-0.28125,0.0,0.0,0.0
1696242906821,-0.099609375,0.98535156,0.16796875,-0.09375,-0.4375,-0.28125,0.0,0.0,0.0
1696242906852,-0.09472656,0.9892578,0.1640625,0.03125,-0.3125,-0.09375,0.0,0.0,0.0
1696242906916,-0.10058594,0.98535156,0.15527344,-0.03125,-0.1875,-0.21875,-53.125,64.25,-42.8125
1696242906943,-0.10449219,0.984375,0.1484375,0.46875,-0.125,-0.21875,0.0,0.0,0.0
1696242906975,-0.09765625,0.9892578,0.16210938,0.78125,-0.1875,-0.28125,0.0,0.0,0.0
1696242907033,-0.10253906,0.9863281,0.1484375,-0.03125,-0.1875,-0.21875,0.0,0.0,0.0
1696242907062,-0.09863281,0.9814453,0.15820312,-0.21875,-0.25,-0.21875,0.0,0.0,0.0
1696242907095,-0.103515625,0.9863281,0.16308594,-0.03125,0.0625,-0.15625,0.0,0.0,0.0
1696242907155,-0.10253906,0.9824219,0.16113281,0.15625,-0.1875,0.125,0.0,0.0,0.0
1696242907182,-0.10058594,0.98046875,0.16699219,-0.09375,-0.375,0.03125,0.0,0.0,0.0
1696242907212,-0.099609375,0.98535156,0.14648438,0.03125,-0.1875,0.125,0.0,0.0,0.0
1696242907275,-0.09375,0.98339844,0.15136719,-0.4375,-0.125,0.03125,0.0,0.0,0.0
1696242907304,-0.09667969,0.9765625,0.16015625,-0.40625,-0.3125,0.03125,0.0,0.0,0.0
1696242907340,-0.09863281,0.9951172,0.16210938,-0.5625,-0.3125,-0.09375,0.0,0.0,0.0
1696242907426,-0.09765625,0.9951172,0.1640625,-0.34375,-0.125,-0.28125,-53.875,65.0,-42.8125
1696242907434,-0.10644531,0.9736328,0.16796875,0.09375,-0.25,-0.15625,0.0,0.0,0.0
1696242907451,-0.10058594,0.9863281,0.15820312,0.28125,-0.125,-0.03125,0.0,0.0,0.0
1696242907511,-0.10546875,0.9921875,0.16894531,0.40625,-0.25,0.125,0.0,0.0,0.0
1696242907540,-0.10253906,0.98046875,0.15039062,0.15625,-0.4375,-0.09375,0.0,0.0,0.0
1696242907572,-0.08984375,0.9892578,0.15917969,0.34375,-0.1875,-0.15625,0.0,0.0,0.0
1696242907633,-0.10253906,0.98535156,0.15722656,-0.03125,-0.1875,-0.34375,0.0,0.0,0.0
1696242907663,-0.10058594,0.984375,0.15136719,-0.09375,-0.25,-0.21875,0.0,0.0,0.0
1696242907692,-0.10253906,0.984375,0.15039062,-0.15625,-0.1875,-0.09375,0.0,0.0,0.0
1696242907785,-0.103515625,0.98535156,0.14746094,-0.03125,-0.25,-0.15625,0.0,0.0,0.0
1696242907794,-0.09667969,0.9824219,0.15332031,0.03125,-0.125,-0.09375,0.0,0.0,0.0
1696242907844,-0.10644531,0.99121094,0.14941406,0.46875,-0.1875,-0.21875,0.0,0.0,0.0
1696242907905,-0.095703125,0.9873047,0.14746094,0.71875,-0.375,-0.53125,0.0,0.0,0.0
1696242907911,-0.109375,0.9814453,0.15820312,0.15625,-0.0625,-0.40625,-54.0,64.6875,-42.6875
1696242907933,-0.099609375,0.9824219,0.16992188,-0.15625,0.1875,0.0625,0.0,0.0,0.0
1696242908026,-0.10253906,0.9892578,0.16210938,0.03125,-0.1875,0.5,0.0,0.0,0.0
1696242908034,-0.099609375,0.984375,0.16015625,0.03125,-0.4375,-0.03125,0.0,0.0,0.0
1696242908053,-0.09667969,0.9863281,0.15917969,-0.09375,-0.25,-0.03125,0.0,0.0,0.0
1696242908146,-0.103515625,0.98535156,0.16699219,-0.15625,-0.25,-0.15625,0.0,0.0,0.0
1696242908156,-0.10546875,0.984375,0.16210938,-0.15625,-0.125,-0.125,0.0,0.0,0.0
1696242908173,-0.1015625,0.9921875,0.1640625,-0.625,-0.1875,-0.25,0.0,0.0,0.0
1696242908230,-0.10449219,0.9863281,0.16113281,-0.6875,0.0,-0.0625,0.0,0.0,0.0
1696242908262,-0.10839844,0.99121094,0.15820312,-0.1875,0.125,0.4375,0.0,0.0,0.0
1696242908293,-0.09082031,0.98535156,0.15332031,-0.5,0.0625,0.25,0.0,0.0,0.0
1696242908356,-0.099609375,0.98535156,0.15136719,-0.03125,-0.125,0.375,0.0,0.0,0.0
1696242908385,-0.08984375,0.98828125,0.16699219,-0.15625,-0.0625,-0.0625,0.0,0.0,0.0
1696242908413,-0.11035156,0.98046875,0.15820312,0.34375,-0.0625,-0.125,-52.9375,64.6875,-43.6875
1696242908476,-0.103515625,0.9824219,0.15820312,-0.03125,0.0,-0.25,0.0,0.0,0.0
1696242908504,-0.10449219,0.9921875,0.15625,-0.15625,-0.1875,-0.0625,0.0,0.0,0.0
1696242908533,-0.099609375,0.98339844,0.15332031,-0.375,-0.125,0.0,0.0,0.0,0.0
1696242908594,-0.09863281,0.9824219,0.16308594,-0.3125,0.1875,0.25,0.0,0.0,0.0
1696242908623,-0.10644531,0.98339844,0.1640625,-0.03125,0.125,0.125,0.0,0.0,0.0
1696242908659,-0.099609375,0.9873047,0.14355469,0.34375,-0.0625,-0.125,0.0,0.0,0.0
1696242908713,-0.103515625,0.98828125,0.16699219,0.28125,0.1875,-0.1875,0.0,0.0,0.0
1696242908745,-0.1015625,0.984375,0.15332031,-0.03125,-0.1875,-0.1875,0.0,0.0,0.0
1696242908772,-0.10546875,0.99316406,0.16308594,-0.03125,-0.25,-0.0625,0.0,0.0,0.0
1696242908833,-0.10058594,0.98535156,0.16601562,-0.09375,0.0625,0.0625,0.0,0.0,0.0
1696242908863,-0.10546875,0.984375,0.15820312,-0.25,0.4375,0.5,0.0,0.0,0.0
1696242908894,-0.103515625,0.97753906,0.1640625,-0.625,-0.0625,0.3125,-52.8125,65.3125,-43.25
1696242908951,-0.099609375,0.9824219,0.15820312,-0.15625,-0.25,0.1875,0.0,0.0,0.0
1696242908982,-0.09277344,0.9863281,0.15527344,-0.4375,-0.0625,0.25,0.0,0.0,0.0
1696242909013,-0.10546875,0.9814453,0.17089844,-0.8125,-0.125,0.0,0.0,0.0,0.0
1696242909102,-0.09765625,0.9941406,0.15234375,-0.625,-0.375,0.0,0.0,0.0,0.0
1696242909133,-0.10644531,0.9824219,0.14550781,-0.1875,-0.0625,-0.0625,0.0,0.0,0.0
1696242909163,-0.095703125,0.9814453,0.1640625,-0.15625,-0.0625,0.125,0.0,0.0,0.0
1696242909192,-0.09863281,0.98535156,0.15722656,-0.375,-0.0625,0.25,0.0,0.0,0.0
1696242909223,-0.095703125,0.984375,0.15039062,-0.5,-0.1875,0.5,0.0,0.0,0.0
1696242909252,-0.087890625,0.9765625,0.16699219,-0.75,-0.1875,0.1875,0.0,0.0,0.0
1696242909314,-0.09375,0.9814453,0.1484375,-0.1875,0.0,-0.0625,0.0,0.0,0.0
1696242909341,-0.10253906,0.9902344,0.17089844,0.09375,0.0625,-0.0625,0.0,0.0,0.0
1696242909373,-0.09765625,0.9863281,0.16503906,0.09375,0.1875,0.0,0.0,0.0,0.0
1696242909434,-0.095703125,0.9824219,0.16796875,-0.3125,0.125,0.125,-54.3125,65.5625,-44.0
1696242909462,-0.10546875,0.98535156,0.15625,0.03125,0.125,0.3125,0.0,0.0,0.0
1696242909493,-0.09863281,0.97753906,0.16796875,0.90625,0.0,-0.0625,0.0,0.0,0.0
1696242909556,-0.10644531,0.98535156,0.16699219,-0.03125,-0.0625,0.0,0.0,0.0,0.0
1696242909587,-0.10253906,0.98535156,0.15234375,0.46875,-0.0625,-0.0625,0.0,0.0,0.0
1696242909630,-0.09472656,0.98535156,0.16308594,0.40625,-0.1875,-0.125,0.0,0.0,0.0
1696242909671,-0.10253906,0.9970703,0.15136719,0.09375,0.25,-0.1875,0.0,0.0,0.0
1696242909707,-0.09472656,0.9863281,0.15039062,-0.09375,-0.3125,-0.375,0.0,0.0,0.0
1696242909730,-0.10058594,0.9794922,0.15625,-0.5,-0.0625,0.125,0.0,0.0,0.0
1696242909791,-0.107421875,0.98046875,0.16113281,-0.625,0.375,0.5,0.0,0.0,0.0
1696242909822,-0.1015625,0.9785156,0.18164062,-0.15625,-0.25,0.59375,0.0,0.0,0.0
1696242909855,-0.08886719,0.98046875,0.15722656,-0.1875,-0.25,0.25,0.0,0.0,0.0
1696242909913,-0.1015625,0.98046875,0.15917969,-0.3125,-0.125,0.25,-54.3125,63.8125,-42.5
1696242909941,-0.1015625,0.99121094,0.16601562,-0.75,-0.0625,-0.0625,0.0,0.0,0.0
1696242909972,-0.09667969,0.97753906,0.15917969,-0.25,-0.5,0.0,0.0,0.0,0.0
1696242910065,-0.103515625,0.9873047,0.16308594,-1.25,0.0,0.0625,0.0,0.0,0.0
1696242910072,-0.10253906,0.9765625,0.1796875,-0.1875,0.25,0.1875,0.0,0.0,0.0
1696242910091,-0.10644531,0.9863281,0.16210938,0.15625,0.1875,0.3125,0.0,0.0,0.0
1696242910153,-0.09667969,0.9892578,0.15820312,0.28125,0.0625,0.1875,0.0,0.0,0.0
1696242910183,-0.10058594,0.9892578,0.17578125,-0.3125,0.0,0.375,0.0,0.0,0.0
1696242910213,-0.095703125,0.9765625,0.15332031,0.15625,-0.0625,-0.0625,0.0,0.0,0.0
1696242910273,-0.10058594,0.98046875,0.15722656,0.21875,-0.0625,-0.3125,0.0,0.0,0.0
1696242910307,-0.10644531,0.9873047,0.16601562,-0.03125,0.0625,-0.25,0.0,0.0,0.0
1696242910337,-0.095703125,0.99121094,0.16308594,0.03125,-0.0625,-0.125,0.0,0.0,0.0
1696242910393,-0.10058594,0.9814453,0.15625,-0.09375,0.0625,-0.0625,0.0,0.0,0.0
1696242910422,-0.10058594,0.9902344,0.14941406,-0.15625,0.0,0.3125,-52.8125,65.3125,-44.3125
1696242910451,-0.1015625,0.9814453,0.1484375,-0.8125,0.0,0.25,0.0,0.0,0.0
1696242910512,-0.099609375,0.9863281,0.16894531,-0.625,-0.0625,-0.0625,0.0,0.0,0.0
1696242910541,-0.09375,0.984375,0.1640625,-0.3125,-0.4375,-0.1875,0.0,0.0,0.0
1696242910572,-0.10546875,0.98828125,0.17382812,-0.75,-0.125,-0.1875,0.0,0.0,0.0
1696242910634,-0.103515625,0.98828125,0.17480469,-0.5625,0.25,0.1875,0.0,0.0,0.0
1696242910663,-0.10449219,0.9824219,0.15527344,-0.4375,-0.125,0.59375,0.0,0.0,0.0
1696242910695,-0.10058594,0.98535156,0.17773438,-0.1875,-0.125,0.375,0.0,0.0,0.0
1696242910755,-0.095703125,0.97753906,0.16015625,-0.4375,-0.3125,0.0625,0.0,0.0,0.0
1696242910781,-0.10546875,0.98828125,0.16894531,-0.3125,-0.0625,-0.0625,0.0,0.0,0.0
1696242910816,-0.099609375,0.9814453,0.16113281,-0.03125,-0.125,-0.25,0.0,0.0,0.0
1696242910873,-0.09863281,0.9814453,0.15722656,-0.03125,0.0,-0.375,0.0,0.0,0.0
1696242910903,-0.09863281,0.9892578,0.15820312,-0.1875,0.0625,0.0625,-53.6875,64.6875,-42.6875
1696242910932,-0.099609375,0.98046875,0.16601562,0.34375,0.0,0.375,0.0,0.0,0.0
1696242910994,-0.09472656,0.98046875,0.16601562,-0.1875,-0.125,0.0625,0.0,0.0,0.0
1696242911022,-0.10253906,0.9824219,0.15625,0.03125,-0.0625,0.1875,0.0,0.0,0.0
1696242911055,-0.0859375,0.9814453,0.16015625,0.28125,0.125,-0.1875,0.0,0.0,0.0
1696242911111,-0.09863281,0.984375,0.15429688,-0.03125,-0.0625,-0.1875,0.0,0.0,0.0
1696242911141,-0.10253906,0.98828125,0.17382812,-0.3125,0.0,-0.1875,0.0,0.0,0.0
1696242911171,-0.10449219,0.9824219,0.17382812,-0.375,-0.1875,0.0,0.0,0.0,0.0
1696242911232,-0.1015625,0.9814453,0.15234375,-0.15625,0.0625,0.125,0.0,0.0,0.0
1696242911266,-0.10058594,0.97558594,0.17480469,0.21875,0.125,0.25,0.0,0.0,0.0
1696242911291,-0.09375,0.98828125,0.16601562,-0.15625,-0.1875,-0.125,0.0,0.0,0.0
1696242911356,-0.10449219,0.984375,0.15332031,-0.25,0.0,0.125,0.0,0.0,0.0
1696242911384,-0.10058594,0.98828125,0.16210938,-0.5,0.125,0.1875,0.0,0.0,0.0
1696242911414,-0.09765625,0.9863281,0.15722656,0.03125,-0.1875,0.4375,-52.1875,65.125,-43.4375
1696242911478,-0.10449219,0.984375,0.16308594,-0.25,-0.3125,-0.0625,0.0,0.0,0.0
1696242911503,-0.09472656,0.98828125,0.15625,-0.625,0.0,0.3125,0.0,0.0,0.0
1696242911533,-0.09667969,0.97753906,0.16308594,-0.6875,0.0,0.25,0.0,0.0,0.0
1696242911593,-0.10253906,0.97265625,0.17480469,-0.75,-0.0625,0.0625,0.0,0.0,0.0
1696242911623,-0.10058594,0.9785156,0.16015625,-0.6875,0.0,-0.0625,0.0,0.0,0.0
1696242911653,-0.107421875,0.98046875,0.18164062,-0.15625,-0.0625,0.0,0.0,0.0,0.0
1696242911712,-0.10644531,0.97753906,0.15917969,0.21875,0.0625,0.3125,0.0,0.0,0.0
1696242911745,-0.09765625,0.9814453,0.16992188,-0.15625,0.0,0.0625,0.0,0.0,0.0
1696242911771,-0.09082031,0.98828125,0.15917969,0.03125,-0.1875,0.25,0.0,0.0,0.0
1696242911833,-0.10058594,0.984375,0.17285156,0.09375,-0.0625,0.0,0.0,0.0,0.0
1696242911863,-0.095703125,0.9824219,0.16894531,-0.1875,-0.0625,-0.125,0.0,0.0,0.0
1696242911891,-0.09765625,0.984375,0.16894531,-0.4375,-0.125,-0.125,-53.875,65.0,-44.3125
1696242911952,-0.09375,0.97558594,0.17382812,-0.09375,0.0625,-0.1875,0.0,0.0,0.0
1696242912011,-0.09082031,0.9921875,0.16015625,-0.03125,0.3125,0.0625,0.0,0.0,0.0
1696242912017,-0.103515625,0.984375,0.16894531,-0.25,-0.1875,0.0,0.0,0.0,0.0
1696242912072,-0.10644531,0.98339844,0.171875,-0.34375,0.0625,0.125,0.0,0.0,0.0
1696242912103,-0.09667969,0.98339844,0.16503906,0.03125,0.25,0.25,0.0,0.0,0.0
1696242912133,-0.095703125,0.97753906,0.16113281,0.28125,-0.09375,0.375,0.0,0.0,0.0
1696242912195,-0.099609375,0.98046875,0.15625,0.5,0.0625,-0.125,0.0,0.0,0.0
1696242912224,-0.09863281,0.99121094,0.17382812,0.09375,-0.03125,-0.25,0.0,0.0,0.0
1696242912253,-0.103515625,0.97558594,0.15625,-0.28125,0.0625,-0.125,0.0,0.0,0.0
1696242912346,-0.09375,0.99121094,0.1640625,0.03125,0.0625,-0.0625,0.0,0.0,0.0
1696242912352,-0.09472656,0.9765625,0.16308594,-0.40625,0.0625,-0.25,0.0,0.0,0.0
1696242912405,-0.09667969,0.9736328,0.17382812,0.09375,0.1875,-0.1875,0.0,0.0,0.0
1696242912433,-0.09472656,0.9814453,0.17382812,0.75,0.25,-0.0625,-53.5625,64.5625,-42.8125
1696242912463,-0.10253906,0.9814453,0.15820312,0.5625,-0.03125,0.1875,0.0,0.0,0.0
1696242912495,-0.099609375,0.9765625,0.16796875,1.25,-0.09375,0.125,0.0,0.0,0.0
1696242912553,-0.09375,0.9892578,0.1640625,1.375,-0.09375,-0.1875,0.0,0.0,0.0
1696242912583,-0.10253906,0.9892578,0.16015625,0.3125,-0.21875,-0.375,0.0,0.0,0.0
1696242912616,-0.1015625,0.98339844,0.15136719,0.4375,0.0,-0.25,0.0,0.0,0.0
1696242912672,-0.09667969,0.98339844,0.17578125,0.4375,0.125,-0.25,0.0,0.0,0.0
1696242912701,-0.1015625,0.984375,0.16894531,-0.15625,-0.09375,-0.0625,0.0,0.0,0.0
1696242912732,-0.09472656,0.9873047,0.15234375,-0.09375,0.0625,0.0625,0.0,0.0,0.0
1696242912791,-0.107421875,0.9892578,0.15234375,-0.34375,-0.09375,-0.0625,0.0,0.0,0.0
1696242912824,-0.08984375,0.98339844,0.16015625,0.03125,0.0,0.125,0.0,0.0,0.0
1696242912853,-0.10449219,0.9863281,0.17089844,0.03125,0.4375,0.125,0.0,0.0,0.0
1696242912914,-0.09765625,0.98535156,0.15917969,0.21875,-0.15625,0.375,-52.625,64.6875,-43.125
1696242912943,-0.09277344,0.98535156,0.16113281,-0.21875,-0.34375,0.0625,0.0,0.0,0.0
1696242912973,-0.10058594,0.98535156,0.15429688,-0.53125,-0.09375,0.25,0.0,0.0,0.0
1696242913036,-0.10058594,0.97753906,0.14453125,-0.21875,0.125,0.125,0.0,0.0,0.0
1696242913062,-0.09667969,0.984375,0.16015625,-0.46875,-0.03125,-0.125,0.0,0.0,0.0
1696242913093,-0.10058594,0.98046875,0.16894531,-0.21875,0.0,-0.3125,0.0,0.0,0.0
1696242913153,-0.09472656,0.98046875,0.15234375,0.3125,0.0625,0.0625,0.0,0.0,0.0
1696242913182,-0.103515625,0.9824219,0.171875,0.15625,0.3125,0.0625,0.0,0.0,0.0
1696242913212,-0.099609375,0.97753906,0.17578125,0.09375,-0.09375,0.3125,0.0,0.0,0.0
1696242913273,-0.10253906,0.984375,0.16601562,0.3125,0.0,0.125,0.0,0.0,0.0
1696242913303,-0.09375,0.98339844,0.16503906,0.5625,-0.09375,-0.3125,0.0,0.0,0.0
1696242913331,-0.087890625,0.9794922,0.1640625,0.375,-0.15625,-0.375,0.0,0.0,0.0
1696242913393,-0.10253906,0.9892578,0.15527344,0.03125,0.0,0.0,0.0,0.0,0.0
1696242913422,-0.10839844,0.98339844,0.17382812,-0.21875,0.1875,0.0625,-53.5625,65.3125,-44.0
1696242913453,-0.107421875,0.98828125,0.16503906,-0.46875,-0.09375,0.125,0.0,0.0,0.0
1696242913513,-0.09082031,0.9765625,0.16210938,-0.03125,-0.03125,0.25,0.0,0.0,0.0
1696242913542,-0.09375,0.98339844,0.16308594,-0.28125,-0.03125,0.125,0.0,0.0,0.0
1696242913574,-0.099609375,0.9824219,0.1875,-0.21875,-0.09375,-0.0625,0.0,0.0,0.0
1696242913632,-0.09472656,0.9921875,0.17089844,-0.03125,0.0,-0.125,0.0,0.0,0.0
1696242913660,-0.091796875,0.9785156,0.16015625,-0.59375,-0.34375,0.0,0.0,0.0,0.0
1696242913692,-0.10839844,0.9824219,0.17578125,-0.59375,0.0625,0.125,0.0,0.0,0.0
1696242913755,-0.10546875,0.9814453,0.17578125,0.09375,0.5,0.0625,0.0,0.0,0.0
1696242913784,-0.10253906,0.98046875,0.16308594,2.03125,0.125,0.125,0.0,0.0,0.0
1696242913813,-0.09472656,0.9902344,0.17382812,0.5625,0.0625,-0.5,0.0,0.0,0.0
1696242913907,-0.09277344,0.98535156,0.16894531,-0.28125,-0.28125,0.0625,0.0,0.0,0.0
1696242913914,-0.09277344,0.9863281,0.15917969,-1.0625,-0.09375,-0.125,-53.125,65.3125,-44.3125
1696242913932,-0.103515625,0.9892578,0.17382812,-1.375,-0.21875,0.125,0.0,0.0,0.0
1696242913994,-0.10058594,0.97558594,0.18945312,-1.5,-0.15625,0.25,0.0,0.0,0.0
1696242914024,-0.10253906,0.9746094,0.16992188,-1.1875,0.0625,0.25,0.0,0.0,0.0
1696242914052,-0.103515625,0.9785156,0.17089844,-0.03125,0.125,0.4375,0.0,0.0,0.0
1696242914145,-0.09472656,0.9794922,0.17382812,-0.53125,0.125,0.375,0.0,0.0,0.0
1696242914152,-0.1015625,0.98535156,0.17773438,-0.53125,-0.15625,0.5625,0.0,0.0,0.0
1696242914172,-0.08984375,0.984375,0.17382812,-0.21875,0.0,0.0,0.0,0.0,0.0
1696242914232,-0.091796875,0.9814453,0.15722656,0.75,0.1875,-0.59375,0.0,0.0,0.0
1696242914260,-0.09863281,0.9863281,0.18261719,0.6875,0.3125,-0.5,0.0,0.0,0.0
1696242914291,-0.10058594,0.9892578,0.17089844,-0.21875,-0.21875,-0.375,0.0,0.0,0.0
1696242914354,-0.095703125,0.97753906,0.18261719,-0.90625,0.0,0.25,0.0,0.0,0.0
1696242914415,-0.10839844,0.97753906,0.171875,-0.46875,0.0625,0.25,0.0,0.0,0.0
1696242914424,-0.10253906,0.9765625,0.16210938,0.15625,-0.34375,0.0,-53.875,64.5625,-42.8125
1696242914473,-0.10058594,0.97558594,0.18457031,0.21875,-0.03125,-0.3125,0.0,0.0,0.0
1696242914506,-0.103515625,0.9863281,0.18359375,0.03125,0.375,0.1875,0.0,0.0,0.0
1696242914534,-0.09277344,0.99121094,0.17382812,-0.40625,0.125,0.5625,0.0,0.0,0.0
1696242914626,-0.09375,0.9794922,0.16894531,-0.53125,-0.21875,0.1875,0.0,0.0,0.0
1696242914633,-0.09472656,0.9902344,0.16503906,0.09375,0.0625,0.25,0.0,0.0,0.0
1696242914653,-0.09277344,0.9814453,0.17480469,1.71875,0.0625,-0.71875,0.0,0.0,0.0
1696242914716,-0.09472656,0.9892578,0.16992188,2.15625,0.0625,-1.28125,0.0,0.0,0.0
1696242914745,-0.09863281,0.9892578,0.16503906,0.15625,0.0625,-0.71875,0.0,0.0,0.0
1696242914771,-0.10449219,0.9863281,0.16796875,-1.125,0.0625,-0.125,0.0,0.0,0.0
1696242914832,-0.10253906,0.9863281,0.16992188,-1.0625,0.0625,0.4375,0.0,0.0,0.0
1696242914862,-0.099609375,0.98046875,0.18261719,-0.53125,0.1875,0.625,0.0,0.0,0.0
1696242914893,-0.099609375,0.9736328,0.17675781,0.375,-0.03125,0.1875,-53.125,65.0,-43.25
1696242914953,-0.09863281,0.9794922,0.17578125,0.15625,0.0,-0.125,0.0,0.0,0.0
1696242914984,-0.09667969,0.98535156,0.171875,0.28125,0.125,-0.4375,0.0,0.0,0.0
1696242915014,-0.09863281,0.98535156,0.17578125,-0.46875,-0.03125,-0.1875,0.0,0.0,0.0
1696242915076,-0.09667969,0.9814453,0.16894531,-0.09375,0.0,0.0625,0.0,0.0,0.0
1696242915103,-0.103515625,0.9736328,0.171875,-0.09375,0.1875,0.125,0.0,0.0,0.0
1696242915133,-0.1015625,0.98535156,0.16210938,0.21875,0.125,-0.125,0.0,0.0,0.0
1696242915192,-0.095703125,0.97558594,0.1796875,-0.09375,0.0625,-0.25,0.0,0.0,0.0
1696242915224,-0.10546875,0.98339844,0.17675781,-0.03125,0.375,-0.375,0.0,0.0,0.0
1696242915253,-0.10058594,0.98339844,0.17480469,0.4375,0.0625,0.125,0.0,0.0,0.0
1696242915317,-0.095703125,0.9746094,0.1796875,0.03125,-0.28125,-0.25,0.0,0.0,0.0
1696242915345,-0.09472656,0.9863281,0.16699219,0.21875,-0.09375,0.1875,0.0,0.0,0.0
1696242915372,-0.10058594,0.9873047,0.1640625,-0.28125,-0.03125,0.0625,0.0,0.0,0.0
1696242915436,-0.10449219,0.9746094,0.16796875,-0.15625,-0.03125,0.0625,-53.125,65.0,-43.5625
1696242915465,-0.10058594,0.984375,0.17382812,-0.53125,0.0625,-0.3125,0.0,0.0,0.0
1696242915496,-0.1015625,0.9824219,0.17871094,-0.28125,0.0625,-0.25,0.0,0.0,0.0
1696242915551,-0.09472656,0.9824219,0.17480469,-0.09375,0.25,0.125,0.0,0.0,0.0
1696242915582,-0.09375,0.9824219,0.17382812,0.09375,0.1875,0.1875,0.0,0.0,0.0
1696242915611,-0.10644531,0.98046875,0.18359375,0.3125,0.0,0.1875,0.0,0.0,0.0
1696242915673,-0.10058594,0.9824219,0.16796875,0.28125,0.125,-0.1875,0.0,0.0,0.0
1696242915703,-0.10253906,0.9824219,0.1640625,0.15625,-0.03125,-0.125,0.0,0.0,0.0
1696242915735,-0.09277344,0.9814453,0.17871094,0.15625,0.125,-0.59375,0.0,0.0,0.0
1696242915795,-0.1015625,0.9794922,0.1640625,0.09375,0.1875,-0.0625,0.0,0.0,0.0
1696242915824,-0.103515625,0.99121094,0.17578125,-0.40625,0.125,-0.0625,0.0,0.0,0.0
1696242915853,-0.09472656,0.9765625,0.16113281,-0.09375,0.3125,0.0625,0.0,0.0,0.0
1696242915915,-0.09863281,0.98535156,0.17285156,-0.46875,-0.03125,-0.125,-53.125,65.5625,-43.5625
1696242915945,-0.10058594,0.9794922,0.17285156,0.03125,-0.03125,-0.1875,0.0,0.0,0.0
1696242915972,-0.10449219,0.9902344,0.18945312,-0.09375,0.25,-0.0625,0.0,0.0,0.0
1696242916034,-0.095703125,0.9873047,0.18457031,0.4375,-0.21875,-0.125,0.0,0.0,0.0
1696242916064,-0.09472656,0.99609375,0.18554688,-0.09375,-0.15625,-0.125,0.0,0.0,0.0
1696242916093,-0.09082031,0.9765625,0.17773438,0.03125,0.0625,0.0625,0.0,0.0,0.0
1696242916154,-0.10253906,0.9824219,0.17089844,-0.59375,0.0,0.0625,0.0,0.0,0.0
1696242916184,-0.09667969,0.9814453,0.16699219,0.03125,-0.15625,-0.0625,0.0,0.0,0.0
1696242916222,-0.099609375,0.99121094,0.18261719,-0.90625,0.125,-0.0625,0.0,0.0,0.0
1696242916272,-0.09765625,0.98535156,0.17089844,-0.71875,0.0,0.125,0.0,0.0,0.0
1696242916304,-0.10058594,0.9824219,0.16210938,-0.03125,0.1875,0.0,0.0,0.0,0.0
1696242916333,-0.095703125,0.97753906,0.17675781,0.4375,0.0625,0.0625,0.0,0.0,0.0
1696242916393,-0.09863281,0.97753906,0.17773438,0.15625,-0.09375,0.1875,0.0,0.0,0.0
1696242916423,-0.09082031,0.9892578,0.17382812,0.21875,-0.09375,0.0625,-53.375,64.375,-44.1875
1696242916458,-0.09667969,0.97753906,0.17382812,0.21875,-0.09375,-0.1875,0.0,0.0,0.0
1696242916515,-0.09375,0.9902344,0.17578125,0.03125,0.0625,-0.1875,0.0,0.0,0.0
1696242916543,-0.095703125,0.9892578,0.18457031,-0.28125,-0.09375,-0.125,0.0,0.0,0.0
1696242916573,-0.095703125,0.98046875,0.18261719,-0.03125,-0.15625,-0.25,0.0,0.0,0.0
1696242916635,-0.09472656,0.97753906,0.1875,-0.03125,0.0,-0.0625,0.0,0.0,0.0
1696242916664,-0.103515625,0.9814453,0.17480469,-0.15625,0.0625,0.0,0.0,0.0,0.0
1696242916696,-0.103515625,0.9863281,0.1875,0.03125,-0.21875,0.125,0.0,0.0,0.0
1696242916755,-0.1015625,0.98339844,0.16210938,0.28125,0.0625,0.0625,0.0,0.0,0.0
1696242916783,-0.103515625,0.98046875,0.171875,0.375,-0.03125,-0.0625,0.0,0.0,0.0
1696242916812,-0.08496094,0.98535156,0.16699219,0.15625,-0.15625,0.0625,0.0,0.0,0.0
1696242916904,-0.09765625,0.9824219,0.16894531,-0.96875,-0.34375,-0.125,0.0,0.0,0.0
1696242916909,-0.09863281,0.98535156,0.16503906,-0.65625,0.4375,0.125,-53.875,63.8125,-42.5
1696242916932,-0.10449219,0.97753906,0.171875,-0.15625,0.375,0.6875,0.0,0.0,0.0
1696242916993,-0.10058594,0.97753906,0.17675781,-0.03125,-0.09375,0.0625,0.0,0.0,0.0
1696242917021,-0.095703125,0.9824219,0.17773438,-0.15625,-0.15625,-0.0625,0.0,0.0,0.0
1696242917052,-0.09667969,0.9814453,0.19335938,-0.65625,-0.09375,-0.125,0.0,0.0,0.0
1696242917112,-0.099609375,0.98535156,0.18554688,-0.40625,-0.21875,-0.25,0.0,0.0,0.0
1696242917152,-0.09472656,0.98535156,0.17773438,-0.40625,-0.21875,-0.125,0.0,0.0,0.0
1696242917171,-0.09863281,0.96875,0.18359375,-0.53125,0.0,0.1875,0.0,0.0,0.0
1696242917235,-0.09472656,0.98828125,0.1796875,0.03125,0.1875,0.125,0.0,0.0,0.0
1696242917263,-0.09863281,0.9824219,0.17285156,0.15625,0.0625,0.1875,0.0,0.0,0.0
1696242917294,-0.095703125,0.984375,0.18066406,-0.34375,-0.21875,0.0,0.0,0.0,0.0
1696242917356,-0.09667969,0.98828125,0.18359375,0.03125,0.0625,0.0,0.0,0.0,0.0
1696242917384,-0.08886719,0.984375,0.17285156,-0.34375,-0.34375,-0.1875,0.0,0.0,0.0
1696242917415,-0.09277344,0.98046875,0.18554688,-0.21875,-0.15625,-0.0625,-52.9375,65.4375,-43.125
1696242917504,-0.091796875,0.9824219,0.17578125,-0.59375,0.125,0.1875,0.0,0.0,0.0
1696242917510,-0.10449219,0.9814453,0.16796875,-0.59375,0.125,0.0625,0.0,0.0,0.0
1696242917531,-0.10058594,0.98339844,0.18261719,-0.28125,0.0,0.0625,0.0,0.0,0.0
1696242917594,-0.091796875,0.98535156,0.16601562,-0.40625,0.0625,-0.0625,0.0,0.0,0.0
1696242917623,-0.1015625,0.98339844,0.20507812,-0.09375,0.0625,0.0,0.0,0.0,0.0
1696242917652,-0.09667969,0.984375,0.17871094,-0.21875,-0.03125,-0.1875,0.0,0.0,0.0
1696242917711,-0.09277344,0.9794922,0.19628906,-0.03125,-0.09375,-0.1875,0.0,0.0,0.0
1696242917743,-0.09863281,0.9814453,0.17480469,0.03125,0.375,0.0625,0.0,0.0,0.0
1696242917770,-0.10058594,0.9765625,0.18457031,0.5,0.3125,0.1875,0.0,0.0,0.0
1696242917832,-0.09375,0.9746094,0.18652344,0.5625,-0.09375,-0.0625,0.0,0.0,0.0
1696242917869,-0.10058594,0.98535156,0.1796875,0.375,0.25,-0.125,0.0,0.0,0.0
1696242917892,-0.09765625,0.9785156,0.18261719,-0.03125,0.0,-0.25,-53.125,63.8125,-43.25
1696242917953,-0.09863281,0.9892578,0.19238281,-0.15625,0.1875,-0.3125,0.0,0.0,0.0
1696242917983,-0.10546875,0.97558594,0.18261719,0.15625,0.0625,-0.125,0.0,0.0,0.0
1696242918013,-0.09375,0.9785156,0.1875,-0.09375,-0.03125,-0.25,0.0,0.0,0.0
1696242918073,-0.09667969,0.98046875,0.1796875,0.21875,0.25,0.0,0.0,0.0,0.0
1696242918103,-0.08300781,0.9814453,0.17871094,0.3125,0.125,0.0,0.0,0.0,0.0
1696242918132,-0.091796875,0.98046875,0.18652344,0.21875,-0.03125,0.1875,0.0,0.0,0.0
1696242918196,-0.09277344,0.9902344,0.17480469,-0.15625,-0.09375,-0.375,0.0,0.0,0.0
1696242918223,-0.09863281,0.9873047,0.18359375,0.09375,0.125,-0.4375,0.0,0.0,0.0
1696242918252,-0.091796875,0.98828125,0.18457031,0.15625,-0.03125,-0.3125,0.0,0.0,0.0
1696242918313,-0.1015625,0.98828125,0.18945312,0.28125,0.125,-0.25,0.0,0.0,0.0
1696242918342,-0.09472656,0.9794922,0.18457031,-0.34375,0.0,0.0,0.0,0.0,0.0
1696242918372,-0.095703125,0.9824219,0.17675781,0.15625,0.125,0.0625,0.0,0.0,0.0
1696242918433,-0.099609375,0.97265625,0.18359375,-0.03125,-0.09375,0.0,-52.1875,65.125,-42.6875
1696242918463,-0.08886719,0.9794922,0.1875,-0.09375,0.0,-0.5,0.0,0.0,0.0
1696242918499,-0.095703125,0.99316406,0.18261719,0.09375,0.1875,-0.25,0.0,0.0,0.0
1696242918551,-0.10253906,0.9824219,0.17382812,0.4375,0.25,0.0625,0.0,0.0,0.0
1696242918582,-0.09472656,0.984375,0.17773438,0.3125,-0.09375,0.0625,0.0,0.0,0.0
1696242918613,-0.08984375,0.98535156,0.18261719,0.625,-0.03125,-0.125,0.0,0.0,0.0
1696242918675,-0.09472656,0.9921875,0.18652344,-0.28125,0.0625,0.1875,0.0,0.0,0.0
1696242918703,-0.09082031,0.9765625,0.18554688,-0.40625,0.1875,0.0,0.0,0.0,0.0
1696242918732,-0.091796875,0.9765625,0.17480469,-0.40625,-0.21875,-0.0625,0.0,0.0,0.0
1696242918795,-0.095703125,0.9824219,0.19042969,-0.40625,0.125,-0.25,0.0,0.0,0.0
1696242918823,-0.09277344,0.984375,0.18847656,0.09375,0.1875,-0.125,0.0,0.0,0.0
1696242918854,-0.09863281,0.97265625,0.18652344,0.21875,0.1875,0.25,0.0,0.0,0.0
1696242918914,-0.09667969,0.9824219,0.17773438,0.3125,0.0625,0.1875,-52.8125,63.5,-44.0
1696242918945,-0.08886719,0.9785156,0.19335938,0.03125,-0.03125,0.0625,0.0,0.0,0.0
1696242918972,-0.09277344,0.9746094,0.18261719,0.21875,0.0625,-0.25,0.0,0.0,0.0
1696242919036,-0.09472656,0.98535156,0.18164062,0.5,0.125,0.0,0.0,0.0,0.0
1696242919064,-0.09667969,0.9892578,0.17382812,-0.03125,0.0625,-0.375,0.0,0.0,0.0
1696242919094,-0.10058594,0.9892578,0.18945312,0.03125,-0.03125,-0.1875,0.0,0.0,0.0
1696242919182,-0.095703125,0.9902344,0.17578125,0.5625,-0.03125,-0.1875,0.0,0.0,0.0
1696242919187,-0.09277344,0.9765625,0.18066406,0.5625,0.1875,0.0625,0.0,0.0,0.0
1696242919215,-0.08984375,0.98339844,0.17382812,-0.09375,0.0,-0.1875,0.0,0.0,0.0
1696242919276,-0.1015625,0.97265625,0.17773438,-0.28125,-0.03125,-0.0625,0.0,0.0,0.0
1696242919303,-0.10058594,0.9824219,0.19238281,0.09375,0.25,-0.0625,0.0,0.0,0.0
1696242919334,-0.091796875,0.9814453,0.18554688,0.5,0.125,0.3125,0.0,0.0,0.0
1696242919395,-0.08984375,0.98535156,0.17773438,0.375,-0.03125,-0.4375,0.0,0.0,0.0
1696242919425,-0.09277344,0.9873047,0.18359375,-0.09375,-0.15625,0.125,-53.125,64.5625,-43.25
1696242919455,-0.09863281,0.98339844,0.17871094,-0.34375,-0.03125,-0.125,0.0,0.0,0.0
1696242919545,-0.09472656,0.98535156,0.17578125,0.09375,0.125,-0.125,0.0,0.0,0.0
1696242919552,-0.09375,0.96972656,0.18945312,-0.65625,0.0625,-0.125,0.0,0.0,0.0
1696242919573,-0.09375,0.984375,0.17773438,-0.03125,0.0,-0.3125,0.0,0.0,0.0
1696242919634,-0.09472656,0.9785156,0.18652344,0.09375,0.125,0.0625,0.0,0.0,0.0
1696242919694,-0.103515625,0.9873047,0.18457031,0.5,0.1875,0.125,0.0,0.0,0.0
1696242919699,-0.08691406,0.9824219,0.18066406,0.03125,0.0,0.0625,0.0,0.0,0.0
1696242919752,-0.095703125,0.9746094,0.1796875,0.375,0.0,-0.0625,0.0,0.0,0.0
1696242919783,-0.099609375,0.98535156,0.17382812,0.375,0.0,-0.375,0.0,0.0,0.0
1696242919813,-0.09765625,0.98046875,0.16601562,-0.09375,0.0,-0.125,0.0,0.0,0.0
1696242919872,-0.08984375,0.97558594,0.17871094,-0.15625,0.0625,-0.1875,0.0,0.0,0.0
1696242919902,-0.11328125,0.97265625,0.18945312,-0.03125,-0.03125,-0.0625,-51.3125,65.0,-42.8125
1696242919931,-0.09472656,0.9746094,0.18945312,-0.21875,0.0625,0.0,0.0,0.0,0.0
1696242919992,-0.099609375,0.98046875,0.18066406,-0.09375,0.125,0.1875,0.0,0.0,0.0
1696242920023,-0.095703125,0.98046875,0.19042969,0.03125,-0.15625,0.0625,0.0,0.0,0.0
1696242920053,-0.09082031,0.98046875,0.19140625,-0.34375,-0.09375,-0.0625,0.0,0.0,0.0
1696242920113,-0.095703125,0.9814453,0.17382812,-0.09375,-0.03125,0.0,0.0,0.0,0.0
1696242920141,-0.09667969,0.9814453,0.18164062,-0.59375,-0.03125,0.0625,0.0,0.0,0.0
1696242920176,-0.087890625,0.9863281,0.17578125,-0.53125,-0.15625,-0.1875,0.0,0.0,0.0
1696242920234,-0.1015625,0.98046875,0.18261719,-0.59375,0.125,0.0,0.0,0.0,0.0
1696242920262,-0.099609375,0.9814453,0.18457031,-0.09375,0.375,0.3125,0.0,0.0,0.0
1696242920294,-0.09667969,0.9814453,0.18457031,0.03125,-0.28125,0.1875,0.0,0.0,0.0
1696242920354,-0.09082031,0.98046875,0.18359375,0.4375,-0.15625,0.0625,0.0,0.0,0.0
1696242920382,-0.09472656,0.9814453,0.18847656,0.03125,-0.03125,0.1875,0.0,0.0,0.0
1696242920411,-0.091796875,0.9873047,0.18652344,-0.28125,-0.28125,-0.1875,-53.5625,64.5625,-44.3125
1696242920473,-0.09375,0.98046875,0.19140625,-0.34375,-0.21875,-0.125,0.0,0.0,0.0
1696242920503,-0.099609375,0.96875,0.19238281,-0.28125,0.0625,-0.125,0.0,0.0,0.0
1696242920533,-0.1015625,0.96777344,0.19335938,0.09375,0.25,-0.125,0.0,0.0,0.0
1696242920592,-0.10546875,0.97558594,0.19335938,0.375,0.1875,0.125,0.0,0.0,0.0
1696242920622,-0.087890625,0.98339844,0.18457031,0.5,-0.21875,0.125,0.0,0.0,0.0
1696242920653,-0.10253906,0.9873047,0.18066406,0.15625,-0.03125,0.0,0.0,0.0,0.0
1696242920712,-0.09082031,0.97753906,0.17578125,0.8125,-0.15625,-0.125,0.0,0.0,0.0
1696242920741,-0.08984375,0.98828125,0.16894531,0.375,-0.09375,-0.4375,0.0,0.0,0.0
1696242920801,-0.095703125,0.98339844,0.18359375,0.09375,0.125,-0.3125,0.0,0.0,0.0
1696242920831,-0.09667969,0.9746094,0.18554688,-0.53125,0.0625,-0.0625,0.0,0.0,0.0
1696242920863,-0.09375,0.9863281,0.18359375,0.03125,0.0625,0.3125,0.0,0.0,0.0
1696242920892,-0.09082031,0.98339844,0.18066406,-0.09375,0.125,0.3125,-52.8125,63.8125,-42.1875
1696242920956,-0.09765625,0.9785156,0.19628906,0.21875,0.1875,0.1875,0.0,0.0,0.0
1696242920983,-0.09082031,0.97753906,0.18945312,0.5,0.0,0.0625,0.0,0.0,0.0
1696242921045,-0.099609375,0.98535156,0.17382812,0.03125,0.0625,-0.375,0.0,0.0,0.0
1696242921071,-0.087890625,0.98535156,0.17480469,-0.09375,-0.46875,-0.25,0.0,0.0,0.0
1696242921103,-0.09082031,0.9785156,0.18847656,-0.53125,0.375,0.0,0.0,0.0,0.0
1696242921134,-0.10546875,0.9824219,0.18164062,-0.15625,0.6875,0.25,0.0,0.0,0.0
1696242921196,-0.10058594,0.9814453,0.19238281,0.6875,0.125,0.375,0.0,0.0,0.0
1696242921223,-0.08300781,0.9785156,0.1953125,0.75,0.1875,-0.125,0.0,0.0,0.0
1696242921253,-0.09472656,0.9824219,0.18066406,0.5625,0.1875,-0.4375,0.0,0.0,0.0
1696242921315,-0.08886719,0.9794922,0.19140625,0.21875,0.125,-0.59375,0.0,0.0,0.0
1696242921341,-0.09667969,0.98339844,0.18164062,0.09375,-0.15625,-0.375,0.0,0.0,0.0
1696242921372,-0.10253906,0.9814453,0.19335938,-0.21875,0.0,-0.1875,0.0,0.0,0.0
1696242921495,-0.09863281,0.9794922,0.18066406,0.4375,0.3125,-0.25,-52.0625,65.0,-42.8125
1696242921501,-0.09667969,0.9892578,0.18261719,0.75,0.4375,0.0625,0.0,0.0,0.0
1696242921510,-0.08886719,0.97558594,0.16894531,0.09375,0.25,-0.0625,0.0,0.0,0.0
1696242921560,-0.08886719,0.98046875,0.19238281,-0.03125,-0.03125,-0.0625,0.0,0.0,0.0
1696242921583,-0.09472656,0.9814453,0.1875,0.3125,0.125,-0.3125,0.0,0.0,0.0
1696242921643,-0.095703125,0.984375,0.1796875,0.03125,0.0625,-0.375,0.0,0.0,0.0
1696242921673,-0.10058594,0.98339844,0.18066406,0.21875,-0.15625,-0.3125,0.0,0.0,0.0
1696242921703,-0.08886719,0.98046875,0.1875,0.15625,-0.21875,-0.125,0.0,0.0,0.0
1696242921732,-0.08984375,0.97753906,0.18066406,0.09375,0.5,-0.0625,0.0,0.0,0.0
1696242921795,-0.099609375,0.9902344,0.18554688,0.15625,0.0625,-0.1875,0.0,0.0,0.0
1696242921823,-0.09082031,0.9746094,0.18164062,0.15625,0.1875,-0.3125,0.0,0.0,0.0
1696242921852,-0.099609375,0.9794922,0.19042969,0.15625,0.0625,-0.375,0.0,0.0,0.0
1696242921918,-0.09667969,0.984375,0.17871094,0.21875,-0.21875,-0.3125,-52.375,63.8125,-43.5625
1696242921941,-0.11035156,0.9765625,0.19726562,-0.34375,0.0625,-0.125,0.0,0.0,0.0
1696242921972,-0.09765625,0.98535156,0.18359375,0.03125,0.4375,0.0,0.0,0.0,0.0
1696242922033,-0.08984375,0.9746094,0.19726562,0.875,0.0,0.25,0.0,0.0,0.0
1696242922061,-0.08886719,0.9794922,0.18847656,0.5,-0.03125,-0.4375,0.0,0.0,0.0
1696242922092,-0.08984375,0.9941406,0.16894531,0.4375,0.125,0.0,0.0,0.0,0.0
1696242922154,-0.099609375,0.98535156,0.17578125,-0.28125,0.125,-0.3125,0.0,0.0,0.0
1696242922182,-0.09375,0.9794922,0.17773438,-0.46875,-0.15625,-0.125,0.0,0.0,0.0
1696242922212,-0.103515625,0.9814453,0.16894531,-0.53125,-0.03125,-0.25,0.0,0.0,0.0
1696242922274,-0.083984375,0.9746094,0.17871094,0.15625,0.0625,-0.0625,0.0,0.0,0.0
1696242922304,-0.09863281,0.9765625,0.18652344,0.09375,0.4375,0.0,0.0,0.0,0.0
1696242922333,-0.095703125,0.9785156,0.19628906,0.15625,0.0,0.0625,0.0,0.0,0.0
1696242922395,-0.09375,0.97753906,0.18945312,-0.21875,-0.03125,0.0,0.0,0.0,0.0
1696242922424,-0.09472656,0.9814453,0.1875,0.03125,0.0,-0.1875,-53.5625,65.0,-43.25
1696242922455,-0.09277344,0.9863281,0.17285156,0.625,0.0625,-0.3125,0.0,0.0,0.0
1696242922516,-0.09667969,0.98339844,0.17773438,0.09375,0.1875,-0.375,0.0,0.0,0.0
1696242922543,-0.1015625,0.98339844,0.19238281,-0.09375,0.0,0.0,0.0,0.0,0.0
1696242922575,-0.09765625,0.98046875,0.19628906,-0.46875,0.0625,-0.1875,0.0,0.0,0.0
1696242922634,-0.09863281,0.9824219,0.1875,-0.15625,0.0625,-0.125,0.0,0.0,0.0
1696242922665,-0.10253906,0.9736328,0.18847656,0.625,-0.03125,-0.4375,0.0,0.0,0.0
1696242922693,-0.103515625,0.9814453,0.19042969,-0.03125,-0.09375,0.125,0.0,0.0,0.0
1696242922786,-0.09472656,0.97753906,0.17480469,-0.09375,0.3125,-0.125,0.0,0.0,0.0
1696242922793,-0.103515625,0.984375,0.18261719,-0.40625,-0.28125,0.0,0.0,0.0,0.0
1696242922811,-0.08984375,0.9785156,0.19140625,-0.15625,0.25,0.0625,0.0,0.0,0.0
1696242922872,-0.10644531,0.9794922,0.18652344,-0.28125,0.1875,0.3125,0.0,0.0,0.0
1696242922904,-0.09667969,0.9863281,0.18847656,-0.03125,-0.03125,0.0625,-51.4375,64.6875,-42.6875
1696242922945,-0.08691406,0.9863281,0.19433594,-0.09375,-0.21875,-0.1875,0.0,0.0,0.0
1696242923027,-0.08496094,0.9794922,0.19238281,-0.71875,0.0,-0.0625,0.0,0.0,0.0
1696242923034,-0.09082031,0.9892578,0.18359375,-0.84375,0.0,-0.125,0.0,0.0,0.0
1696242923052,-0.091796875,0.98046875,0.18847656,-0.59375,-0.03125,-0.1875,0.0,0.0,0.0
1696242923115,-0.09667969,0.97265625,0.18359375,-0.59375,0.0,-0.1875,0.0,0.0,0.0
1696242923143,-0.099609375,0.9785156,0.19433594,-0.15625,0.3125,-0.25,0.0,0.0,0.0
1696242923173,-0.103515625,0.9716797,0.19335938,-0.28125,0.3125,0.0625,0.0,0.0,0.0
1696242923233,-0.09863281,0.9814453,0.19335938,-0.09375,-0.09375,0.125,0.0,0.0,0.0
1696242923263,-0.09375,0.9794922,0.17773438,0.28125,-0.21875,-0.25,0.0,0.0,0.0
1696242923292,-0.08984375,0.9746094,0.1953125,0.8125,-0.21875,-0.59375,0.0,0.0,0.0
1696242923353,-0.08984375,0.98046875,0.19042969,1.25,-0.09375,-0.65625,0.0,0.0,0.0
1696242923385,-0.09765625,0.98339844,0.18945312,1.3125,0.125,-0.5,0.0,0.0,0.0
1696242923413,-0.10644531,0.9794922,0.19042969,1.0625,0.1875,-0.59375,-52.625,65.4375,-43.4375
1696242923475,-0.103515625,0.9873047,0.17480469,0.6875,0.4375,-0.1875,0.0,0.0,0.0
1696242923504,-0.09472656,0.9794922,0.16796875,0.375,0.3125,-0.0625,0.0,0.0,0.0
1696242923563,-0.10058594,0.9736328,0.18652344,-0.09375,0.0625,0.0,0.0,0.0,0.0
1696242923621,-0.09375,0.9785156,0.18066406,-0.34375,0.0625,-0.125,0.0,0.0,0.0
1696242923626,-0.09472656,0.9824219,0.19726562,-0.09375,0.0,-0.0625,0.0,0.0,0.0
1696242923651,-0.09375,0.97753906,0.17480469,-0.34375,-0.0625,0.03125,0.0,0.0,0.0
1696242923745,-0.09277344,0.98339844,0.19042969,-0.8125,-0.375,0.03125,0.0,0.0,0.0
1696242923752,-0.09472656,0.98046875,0.19726562,-0.53125,0.125,0.21875,0.0,0.0,0.0
1696242923771,-0.10058594,0.97265625,0.18554688,0.03125,0.375,0.375,0.0,0.0,0.0
1696242923835,-0.10058594,0.9794922,0.19824219,0.53125,-0.1875,0.09375,0.0,0.0,0.0
1696242923865,-0.095703125,0.9765625,0.19140625,0.6875,-0.25,-0.21875,0.0,0.0,0.0
1696242923895,-0.08691406,0.98339844,0.19726562,0.15625,-0.125,0.28125,-53.5625,63.0625,-43.25
1696242923955,-0.0859375,0.9814453,0.18457031,0.15625,0.0625,-0.21875,0.0,0.0,0.0
1696242923984,-0.09863281,0.9794922,0.20019531,0.40625,-0.0625,-0.21875,0.0,0.0,0.0
1696242924021,-0.10253906,0.9707031,0.19335938,0.40625,0.3125,-0.28125,0.0,0.0,0.0
1696242924075,-0.09863281,0.9794922,0.19726562,0.625,0.4375,-0.15625,0.0,0.0,0.0
1696242924102,-0.09375,0.9716797,0.19140625,0.8125,0.0625,0.21875,0.0,0.0,0.0
1696242924134,-0.095703125,0.9873047,0.19042969,0.28125,-0.0625,0.15625,0.0,0.0,0.0
1696242924195,-0.08984375,0.98046875,0.19042969,-0.15625,0.0,0.15625,0.0,0.0,0.0
1696242924231,-0.099609375,0.97753906,0.18945312,0.21875,-0.0625,-0.21875,0.0,0.0,0.0
1696242924285,-0.10058594,0.97753906,0.17773438,0.09375,0.0,-0.15625,0.0,0.0,0.0
1696242924312,-0.095703125,0.98535156,0.19140625,0.03125,0.0625,-0.15625,0.0,0.0,0.0
1696242924344,-0.0859375,0.9785156,0.1875,-0.09375,-0.0625,0.21875,0.0,0.0,0.0
1696242924372,-0.09082031,0.9794922,0.19238281,-0.6875,0.0625,0.09375,0.0,0.0,0.0
1696242924433,-0.10058594,0.9746094,0.18945312,-0.8125,0.125,0.3125,-52.0625,64.25,-42.8125
1696242924463,-0.09277344,0.9746094,0.19433594,-0.28125,0.0625,0.3125,0.0,0.0,0.0
1696242924492,-0.09082031,0.9707031,0.20117188,0.03125,0.125,0.03125,0.0,0.0,0.0
1696242924554,-0.08886719,0.9814453,0.19824219,0.15625,-0.125,-0.21875,0.0,0.0,0.0
1696242924585,-0.10058594,0.9863281,0.19335938,0.34375,0.25,0.03125,0.0,0.0,0.0
1696242924619,-0.10839844,0.9873047,0.18164062,0.03125,0.375,0.09375,0.0,0.0,0.0
1696242924676,-0.09667969,0.9814453,0.18652344,0.46875,-0.125,0.28125,0.0,0.0,0.0
1696242924709,-0.083984375,0.97558594,0.18261719,-0.09375,-0.125,0.15625,0.0,0.0,0.0
1696242924731,-0.083984375,0.9814453,0.1796875,-0.6875,0.125,0.28125,0.0,0.0,0.0
1696242924796,-0.10058594,0.97558594,0.19140625,0.03125,0.125,-0.09375,0.0,0.0,0.0
1696242924822,-0.10058594,0.98339844,0.19921875,-0.875,-0.0625,0.09375,0.0,0.0,0.0
1696242924853,-0.10058594,0.9667969,0.19335938,-0.65625,0.0,0.03125,0.0,0.0,0.0
1696242924913,-0.09375,0.97753906,0.18652344,-0.34375,-0.125,0.21875,-53.125,64.25,-42.8125
1696242924943,-0.09667969,0.97558594,0.19824219,0.21875,0.125,0.3125,0.0,0.0,0.0
1696242924973,-0.08691406,0.9794922,0.20410156,-0.03125,0.0,0.09375,0.0,0.0,0.0
1696242925033,-0.087890625,0.97753906,0.203125,0.59375,0.0,0.09375,0.0,0.0,0.0
1696242925062,-0.09375,0.9814453,0.18554688,0.34375,0.0,-0.21875,0.0,0.0,0.0
1696242925095,-0.08105469,0.9863281,0.19824219,0.53125,0.125,-0.28125,0.0,0.0,0.0
1696242925152,-0.09375,0.98046875,0.19921875,0.15625,0.125,-0.09375,0.0,0.0,0.0
1696242925184,-0.10058594,0.9824219,0.19140625,0.21875,0.0625,-0.15625,0.0,0.0,0.0
1696242925213,-0.10253906,0.9824219,0.18554688,-0.09375,0.125,0.09375,0.0,0.0,0.0
1696242925273,-0.10058594,0.97265625,0.18945312,0.46875,0.25,0.03125,0.0,0.0,0.0
1696242925308,-0.095703125,0.97753906,0.18554688,-0.03125,0.0,0.03125,0.0,0.0,0.0
1696242925332,-0.09472656,0.98535156,0.203125,0.21875,0.125,0.09375,0.0,0.0,0.0
1696242925394,-0.09472656,0.9873047,0.18164062,-0.09375,0.25,0.09375,0.0,0.0,0.0
1696242925424,-0.103515625,0.9794922,0.1875,0.21875,0.0625,0.375,-52.8125,65.0,-42.5
1696242925452,-0.09277344,0.96972656,0.1875,0.15625,-0.3125,-0.03125,0.0,0.0,0.0
1696242925516,-0.091796875,0.9746094,0.18847656,-0.03125,0.0625,0.15625,0.0,0.0,0.0
1696242925544,-0.09667969,0.97753906,0.19042969,-0.28125,0.1875,0.03125,0.0,0.0,0.0
1696242925579,-0.09667969,0.9824219,0.19042969,-0.46875,-0.0625,-0.03125,0.0,0.0,0.0
1696242925634,-0.09375,0.97558594,0.20117188,-0.40625,0.0625,-0.28125,0.0,0.0,0.0
1696242925663,-0.09667969,0.97265625,0.20507812,-0.34375,0.25,-0.09375,0.0,0.0,0.0
1696242925696,-0.099609375,0.9785156,0.19433594,0.28125,0.25,0.15625,0.0,0.0,0.0
1696242925783,-0.10058594,0.98046875,0.18847656,0.46875,0.1875,0.03125,0.0,0.0,0.0
1696242925789,-0.08984375,0.98046875,0.19335938,0.09375,-0.125,0.15625,0.0,0.0,0.0
1696242925811,-0.08886719,0.98046875,0.18554688,0.34375,-0.1875,0.03125,0.0,0.0,0.0
1696242925872,-0.10253906,0.9785156,0.1875,0.75,-0.1875,-0.46875,0.0,0.0,0.0
1696242925902,-0.08984375,0.984375,0.19042969,0.21875,0.0,-0.28125,-52.1875,64.375,-42.6875
1696242925936,-0.09667969,0.99316406,0.17773438,-0.28125,0.0,0.03125,0.0,0.0,0.0
1696242926026,-0.095703125,0.98046875,0.20507812,-0.03125,-0.125,0.15625,0.0,0.0,0.0
1696242926033,-0.09375,0.98339844,0.1953125,-0.15625,0.125,-0.03125,0.0,0.0,0.0
1696242926053,-0.09277344,0.97753906,0.19628906,-0.15625,0.1875,0.28125,0.0,0.0,0.0
1696242926116,-0.080078125,0.9824219,0.18359375,-0.53125,-0.125,0.03125,0.0,0.0,0.0
1696242926143,-0.09472656,0.97753906,0.1875,-0.28125,-0.125,0.03125,0.0,0.0,0.0
1696242926173,-0.08886719,0.97753906,0.19628906,-0.21875,0.3125,0.03125,0.0,0.0,0.0
1696242926234,-0.09863281,0.98828125,0.20410156,0.40625,0.0625,0.375,0.0,0.0,0.0
1696242926264,-0.09082031,0.9824219,0.203125,0.15625,-0.3125,0.03125,0.0,0.0,0.0
1696242926296,-0.09277344,0.97265625,0.19140625,0.09375,-0.0625,0.21875,0.0,0.0,0.0
1696242926355,-0.08691406,0.9794922,0.19042969,-0.15625,0.125,0.09375,0.0,0.0,0.0
1696242926384,-0.10253906,0.9824219,0.18847656,0.03125,0.0625,0.03125,0.0,0.0,0.0
1696242926414,-0.09277344,0.97558594,0.18847656,-0.03125,0.0,-0.21875,-52.625,63.625,-43.125
1696242926475,-0.08984375,0.9824219,0.18847656,-0.46875,-0.0625,-0.09375,0.0,0.0,0.0
1696242926502,-0.109375,0.9765625,0.19335938,0.15625,0.25,0.15625,0.0,0.0,0.0
1696242926531,-0.09765625,0.98535156,0.18066406,0.21875,0.1875,-0.03125,0.0,0.0,0.0
1696242926594,-0.080078125,0.9794922,0.19140625,0.21875,-0.0625,0.09375,0.0,0.0,0.0
1696242926624,-0.10253906,0.98046875,0.19238281,0.15625,0.0,-0.03125,0.0,0.0,0.0
1696242926652,-0.09472656,0.9814453,0.18652344,0.46875,0.0625,-0.34375,0.0,0.0,0.0
1696242926714,-0.10058594,0.98339844,0.19824219,0.28125,0.0,-0.34375,0.0,0.0,0.0
1696242926742,-0.09277344,0.98535156,0.203125,-0.03125,0.125,-0.09375,0.0,0.0,0.0
1696242926773,-0.1015625,0.98535156,0.19042969,0.03125,0.0625,0.09375,0.0,0.0,0.0
1696242926835,-0.09472656,0.9794922,0.19335938,0.09375,0.0,0.15625,0.0,0.0,0.0
1696242926862,-0.09765625,0.96777344,0.20117188,0.03125,0.125,0.03125,0.0,0.0,0.0
1696242926892,-0.09472656,0.9863281,0.18945312,0.03125,0.0625,-0.03125,-52.625,64.375,-43.6875
1696242926953,-0.095703125,0.984375,0.19824219,0.03125,0.0,-0.15625,0.0,0.0,0.0
1696242926983,-0.095703125,0.9794922,0.18457031,0.03125,0.125,-0.03125,0.0,0.0,0.0
1696242927014,-0.10058594,0.9824219,0.18359375,0.03125,0.125,0.15625,0.0,0.0,0.0
1696242927073,-0.08691406,0.98828125,0.1796875,-0.34375,-0.125,0.03125,0.0,0.0,0.0
1696242927102,-0.10449219,0.9785156,0.20019531,-0.15625,0.1875,0.15625,0.0,0.0,0.0
1696242927132,-0.095703125,0.97753906,0.18554688,-0.03125,0.5,0.15625,0.0,0.0,0.0
1696242927195,-0.09863281,0.9716797,0.18457031,0.625,-0.0625,0.15625,0.0,0.0,0.0
1696242927221,-0.09277344,0.98339844,0.19433594,0.46875,-0.1875,0.09375,0.0,0.0,0.0
1696242927252,-0.095703125,0.9765625,0.19238281,0.28125,-0.125,0.28125,0.0,0.0,0.0
1696242927313,-0.10253906,0.98046875,0.20800781,0.15625,0.125,-0.09375,0.0,0.0,0.0
1696242927342,-0.09667969,0.98339844,0.20214844,0.34375,-0.125,-0.03125,0.0,0.0,0.0
1696242927371,-0.09082031,0.9814453,0.20019531,-0.34375,0.0625,-0.03125,0.0,0.0,0.0
1696242927435,-0.099609375,0.97558594,0.20410156,0.15625,0.25,0.03125,-52.8125,63.8125,-43.25
1696242927463,-0.087890625,0.9814453,0.20996094,0.15625,0.125,0.28125,0.0,0.0,0.0
1696242927495,-0.09667969,0.97753906,0.20410156,0.34375,-0.0625,0.21875,0.0,0.0,0.0
1696242927553,-0.095703125,0.97558594,0.19140625,0.09375,-0.0625,0.15625,0.0,0.0,0.0
1696242927583,-0.091796875,0.98339844,0.18164062,0.09375,-0.0625,-0.125,0.0,0.0,0.0
1696242927611,-0.09667969,0.9814453,0.19433594,0.03125,-0.125,-0.0625,0.0,0.0,0.0
1696242927674,-0.09863281,0.9794922,0.19726562,-0.3125,-0.0625,-0.0625,0.0,0.0,0.0
1696242927734,-0.09667969,0.9863281,0.18652344,-0.1875,0.125,0.125,0.0,0.0,0.0
1696242927740,-0.09863281,0.984375,0.17578125,-0.375,-0.0625,-0.125,0.0,0.0,0.0
1696242927794,-0.09667969,0.9814453,0.1953125,-0.1875,-0.0625,0.125,0.0,0.0,0.0
1696242927825,-0.09277344,0.9736328,0.19726562,-0.4375,0.0,-0.0625,0.0,0.0,0.0
1696242927852,-0.08886719,0.97558594,0.19824219,0.09375,-0.0625,-0.25,0.0,0.0,0.0
1696242927913,-0.09375,0.98046875,0.1953125,0.34375,-0.4375,-0.375,-52.8125,64.25,-43.5625
1696242927970,-0.09375,0.9765625,0.20605469,0.09375,-0.5625,-0.4375,0.0,0.0,0.0
1696242927973,-0.10253906,0.9765625,0.19042969,0.53125,-0.25,-0.1875,0.0,0.0,0.0
1696242928031,-0.091796875,0.97753906,0.20019531,-0.03125,0.3125,-0.25,0.0,0.0,0.0
1696242928061,-0.09472656,0.9824219,0.18945312,1.03125,-0.0625,0.1875,0.0,0.0,0.0
1696242928093,-0.087890625,0.97753906,0.19042969,0.34375,-0.0625,-0.125,0.0,0.0,0.0
1696242928152,-0.09472656,0.9824219,0.20019531,0.34375,-0.125,-0.0625,0.0,0.0,0.0
1696242928182,-0.09667969,0.97558594,0.20019531,-0.4375,0.125,-0.0625,0.0,0.0,0.0
1696242928212,-0.08691406,0.9794922,0.19042969,-0.3125,-0.375,-0.25,0.0,0.0,0.0
1696242928306,-0.09863281,0.97558594,0.18945312,-0.3125,0.0625,-0.125,0.0,0.0,0.0
1696242928333,-0.09375,0.9736328,0.19824219,-0.375,0.125,0.0,0.0,0.0,0.0
1696242928364,-0.09667969,0.984375,0.19238281,-0.09375,0.0625,0.25,0.0,0.0,0.0
1696242928391,-0.08886719,0.97753906,0.20117188,0.40625,-0.125,0.125,0.0,0.0,0.0
1696242928423,-0.08886719,0.97265625,0.19238281,-0.03125,-0.0625,0.0,-51.75,64.25,-42.1875
1696242928485,-0.08691406,0.98046875,0.19335938,0.53125,-0.0625,-0.3125,0.0,0.0,0.0
1696242928513,-0.099609375,0.9863281,0.19042969,0.40625,0.0,-0.125,0.0,0.0,0.0
1696242928547,-0.08886719,0.9814453,0.17578125,0.21875,0.0,-0.125,0.0,0.0,0.0
1696242928575,-0.08886719,0.9785156,0.18652344,-0.15625,-0.125,0.0625,0.0,0.0,0.0
1696242928638,-0.099609375,0.98046875,0.19433594,0.03125,0.0,0.0,0.0,0.0,0.0
1696242928663,-0.09375,0.98535156,0.18457031,-0.15625,0.1875,0.125,0.0,0.0,0.0
1696242928691,-0.10253906,0.9707031,0.18847656,-0.5,-0.1875,0.0,0.0,0.0,0.0
1696242928753,-0.091796875,0.97558594,0.18945312,-0.1875,-0.0625,-0.125,0.0,0.0,0.0
1696242928784,-0.095703125,0.9785156,0.18945312,-0.1875,0.1875,0.1875,0.0,0.0,0.0
1696242928810,-0.09667969,0.9863281,0.19628906,0.53125,0.125,0.3125,0.0,0.0,0.0
1696242928875,-0.09375,0.9824219,0.19238281,0.15625,-0.25,0.0,0.0,0.0,0.0
1696242928903,-0.095703125,0.984375,0.18261719,-0.375,-0.5,0.0625,-52.1875,64.375,-43.125
1696242928934,-0.095703125,0.9794922,0.18652344,-0.6875,-0.125,0.0625,0.0,0.0,0.0
1696242928995,-0.10839844,0.98046875,0.1953125,-0.625,-0.3125,0.0,0.0,0.0,0.0
1696242929023,-0.08886719,0.9785156,0.18945312,-0.3125,-0.125,-0.125,0.0,0.0,0.0
1696242929054,-0.10058594,0.9765625,0.1953125,-0.625,0.125,0.0625,0.0,0.0,0.0
1696242929145,-0.09863281,0.9824219,0.17773438,-0.4375,0.0625,0.1875,0.0,0.0,0.0
1696242929152,-0.099609375,0.9736328,0.19238281,-0.1875,-0.125,0.1875,0.0,0.0,0.0
1696242929172,-0.09277344,0.97265625,0.19140625,-0.03125,-0.125,0.0625,0.0,0.0,0.0
1696242929235,-0.10058594,0.9746094,0.19335938,-0.5625,-0.1875,0.0625,0.0,0.0,0.0
1696242929263,-0.103515625,0.98046875,0.1953125,-0.09375,0.0,-0.125,0.0,0.0,0.0
1696242929295,-0.095703125,0.97753906,0.19335938,0.03125,-0.3125,-0.1875,0.0,0.0,0.0
1696242929354,-0.09472656,0.9794922,0.19335938,-0.25,0.0625,0.125,0.0,0.0,0.0
1696242929444,-0.09082031,0.97753906,0.19628906,-0.375,-0.0625,0.3125,0.0,0.0,0.0
1696242929455,-0.09472656,0.9794922,0.18164062,-0.4375,-0.0625,0.1875,-52.625,63.9375,-41.625
1696242929472,-0.09667969,0.9746094,0.18847656,-0.5,-0.375,0.125,0.0,0.0,0.0
1696242929504,-0.099609375,0.97753906,0.19726562,-0.8125,0.0,-0.0625,0.0,0.0,0.0
1696242929540,-0.0859375,0.9736328,0.18652344,-0.4375,0.3125,0.0625,0.0,0.0,0.0
1696242929591,-0.09472656,0.9716797,0.20507812,-0.75,-0.1875,0.34375,0.0,0.0,0.0
1696242929623,-0.08984375,0.9794922,0.19238281,-0.25,-0.25,0.0,0.0,0.0,0.0
1696242929651,-0.09277344,0.9824219,0.1953125,-0.6875,-0.0625,0.25,0.0,0.0,0.0
1696242929714,-0.09375,0.9824219,0.19921875,-0.875,0.125,0.0625,0.0,0.0,0.0
1696242929746,-0.09277344,0.9814453,0.19628906,-0.8125,-0.1875,0.0,0.0,0.0,0.0
1696242929773,-0.099609375,0.9794922,0.19921875,-0.8125,-0.0625,0.0625,0.0,0.0,0.0
1696242929867,-0.08984375,0.97558594,0.20214844,-0.625,-0.0625,-0.125,0.0,0.0,0.0
1696242929874,-0.09667969,0.98046875,0.20214844,-0.25,0.125,0.125,0.0,0.0,0.0
1696242929892,-0.09472656,0.98828125,0.19042969,0.21875,0.125,0.3125,-51.875,64.375,-43.6875
1696242929956,-0.09472656,0.98535156,0.20703125,-0.15625,-0.125,0.0625,0.0,0.0,0.0
1696242929992,-0.09277344,0.9765625,0.18652344,-0.09375,0.0625,0.1875,0.0,0.0,0.0
1696242930011,-0.087890625,0.9814453,0.19726562,0.09375,0.0,0.0625,0.0,0.0,0.0
1696242930071,-0.09472656,0.98046875,0.20605469,-0.09375,0.125,-0.125,0.0,0.0,0.0
1696242930101,-0.087890625,0.9824219,0.18652344,-0.25,0.0,0.0,0.0,0.0,0.0
1696242930132,-0.091796875,0.9824219,0.20507812,-0.4375,0.1875,0.1875,0.0,0.0,0.0
1696242930191,-0.08886719,0.9902344,0.20117188,-0.1875,-0.125,0.125,0.0,0.0,0.0
1696242930221,-0.09472656,0.98046875,0.19042969,-0.09375,0.0625,0.1875,0.0,0.0,0.0
1696242930283,-0.091796875,0.97753906,0.19042969,-0.09375,-0.0625,0.1875,0.0,0.0,0.0
1696242930313,-0.08886719,0.9765625,0.1953125,-0.09375,0.0,0.125,0.0,0.0,0.0
1696242930342,-0.10058594,0.97753906,0.1875,-0.09375,0.0,-0.0625,0.0,0.0,0.0
1696242930374,-0.09765625,0.97265625,0.20898438,-0.5625,-0.25,-0.125,0.0,0.0,0.0
1696242930433,-0.09765625,0.984375,0.18945312,0.03125,0.0625,0.0625,-52.1875,63.9375,-42.6875
1696242930465,-0.09375,0.97753906,0.19921875,-0.5,0.1875,0.40625,0.0,0.0,0.0
1696242930587,-0.09667969,0.9765625,0.19921875,0.15625,-0.0625,0.3125,0.0,0.0,0.0
1696242930594,-0.083984375,0.984375,0.19140625,-0.1875,-0.25,0.125,0.0,0.0,0.0
1696242930599,-0.09863281,0.98339844,0.19726562,-0.375,0.0,0.34375,0.0,0.0,0.0
1696242930611,-0.09667969,0.9785156,0.20117188,-0.875,-0.125,0.0,0.0,0.0,0.0
1696242930674,-0.09375,0.9765625,0.203125,-0.4375,-0.125,0.0,0.0,0.0,0.0
1696242930702,-0.10253906,0.9794922,0.19628906,-0.625,-0.125,-0.25,0.0,0.0,0.0
1696242930733,-0.09472656,0.97753906,0.20019531,-0.25,0.0625,0.1875,0.0,0.0,0.0
1696242930794,-0.09863281,0.9638672,0.20214844,-0.1875,0.125,0.25,0.0,0.0,0.0
1696242930821,-0.087890625,0.98828125,0.20214844,0.21875,-0.125,0.3125,0.0,0.0,0.0
1696242930852,-0.09375,0.9824219,0.18847656,-0.09375,-0.125,0.1875,0.0,0.0,0.0
1696242930915,-0.09082031,0.9736328,0.19140625,-0.09375,0.0,-0.0625,-53.125,63.5,-42.1875
1696242930942,-0.08886719,0.9863281,0.19140625,0.09375,-0.0625,-0.1875,0.0,0.0,0.0
1696242930972,-0.08886719,0.97753906,0.20507812,-0.25,0.3125,-0.125,0.0,0.0,0.0
1696242931033,-0.1015625,0.9765625,0.19238281,-0.03125,0.125,0.0,0.0,0.0,0.0
1696242931063,-0.09667969,0.97753906,0.19238281,-0.15625,-0.25,0.0,0.0,0.0,0.0
1696242931093,-0.095703125,0.97265625,0.19335938,0.21875,0.0,0.1875,0.0,0.0,0.0
1696242931155,-0.08691406,0.9707031,0.19628906,0.46875,0.125,0.25,0.0,0.0,0.0
1696242931184,-0.091796875,0.98046875,0.20019531,0.34375,-0.125,0.125,0.0,0.0,0.0
1696242931214,-0.087890625,0.9873047,0.19238281,-0.15625,-0.25,0.0625,0.0,0.0,0.0
1696242931275,-0.091796875,0.98046875,0.2109375,-0.4375,-0.3125,-0.25,0.0,0.0,0.0
1696242931304,-0.08496094,0.97558594,0.21191406,-0.3125,0.25,0.125,0.0,0.0,0.0
1696242931334,-0.08984375,0.98339844,0.1953125,-0.09375,0.3125,0.59375,0.0,0.0,0.0
1696242931395,-0.0859375,0.97265625,0.18945312,-0.15625,-0.1875,0.0,0.0,0.0,0.0
1696242931421,-0.087890625,0.9824219,0.20605469,-0.1875,-0.0625,0.0625,-53.125,65.0,-42.1875
1696242931454,-0.09375,0.97558594,0.20410156,-0.5625,-0.1875,0.0,0.0,0.0,0.0
1696242931513,-0.095703125,0.97558594,0.20117188,-0.28125,-0.09375,-0.21875,0.0,0.0,0.0
1696242931543,-0.09667969,0.9873047,0.20019531,-0.34375,-0.09375,-0.15625,0.0,0.0,0.0
1696242931570,-0.09082031,0.9814453,0.20214844,0.15625,0.03125,-0.09375,0.0,0.0,0.0
1696242931664,-0.09375,0.9824219,0.1953125,0.09375,0.21875,0.09375,0.0,0.0,0.0
1696242931670,-0.08984375,0.9736328,0.20507812,0.3125,0.28125,0.21875,0.0,0.0,0.0
1696242931691,-0.08886719,0.9794922,0.19238281,0.375,-0.15625,-0.03125,0.0,0.0,0.0
1696242931756,-0.09375,0.9902344,0.20117188,0.5,0.15625,-0.21875,0.0,0.0,0.0
1696242931784,-0.09863281,0.97558594,0.19140625,0.5,-0.03125,-0.46875,0.0,0.0,0.0
1696242931824,-0.08496094,0.9824219,0.1953125,0.03125,-0.03125,-0.34375,0.0,0.0,0.0
1696242931875,-0.09472656,0.9863281,0.20507812,0.03125,0.03125,-0.40625,0.0,0.0,0.0
1696242931904,-0.09667969,0.97753906,0.1953125,-0.03125,0.15625,0.03125,-53.125,63.0625,-44.0
1696242931937,-0.09375,0.9765625,0.1953125,0.15625,0.15625,0.09375,0.0,0.0,0.0
1696242931992,-0.08886719,0.984375,0.20898438,0.21875,-0.03125,0.09375,0.0,0.0,0.0
1696242932029,-0.08886719,0.98046875,0.203125,-0.28125,-0.34375,0.03125,0.0,0.0,0.0
1696242932095,-0.10058594,0.9863281,0.21191406,-0.09375,-0.15625,-0.40625,0.0,0.0,0.0
1696242932114,-0.08886719,0.9765625,0.19726562,-0.15625,0.28125,-0.09375,0.0,0.0,0.0
1696242932141,-0.09277344,0.98046875,0.19335938,-0.03125,0.03125,0.21875,0.0,0.0,0.0
1696242932204,-0.095703125,0.98339844,0.19921875,-0.21875,-0.40625,0.15625,0.0,0.0,0.0
1696242932232,-0.09277344,0.97753906,0.19628906,-0.21875,-0.15625,0.21875,0.0,0.0,0.0
1696242932261,-0.083984375,0.9707031,0.19335938,-0.46875,0.15625,0.21875,0.0,0.0,0.0
1696242932322,-0.08984375,0.9824219,0.20507812,-0.21875,-0.15625,-0.28125,0.0,0.0,0.0
1696242932351,-0.083984375,0.9814453,0.203125,-0.15625,-0.34375,-0.21875,0.0,0.0,0.0
1696242932387,-0.09277344,0.97558594,0.19921875,0.03125,-0.03125,-0.15625,0.0,0.0,0.0
1696242932441,-0.095703125,0.9785156,0.20605469,0.21875,0.21875,-0.21875,-53.375,62.5625,-42.0625
1696242932471,-0.103515625,0.9765625,0.21386719,0.375,0.21875,0.21875,0.0,0.0,0.0
1696242932505,-0.091796875,0.9814453,0.19433594,0.5625,-0.03125,0.15625,0.0,0.0,0.0
1696242932562,-0.099609375,0.98339844,0.20605469,0.3125,0.15625,-0.09375,0.0,0.0,0.0
1696242932592,-0.09082031,0.9746094,0.21582031,0.15625,-0.03125,-0.21875,0.0,0.0,0.0
1696242932622,-0.08691406,0.9707031,0.19335938,0.3125,0.15625,-0.34375,0.0,0.0,0.0
1696242932683,-0.0859375,0.9814453,0.19921875,0.15625,0.09375,-0.28125,0.0,0.0,0.0
1696242932712,-0.09765625,0.9765625,0.18847656,-0.28125,-0.15625,-0.15625,0.0,0.0,0.0
1696242932773,-0.08984375,0.9765625,0.20019531,-0.03125,-0.03125,0.15625,0.0,0.0,0.0
1696242932805,-0.103515625,0.97753906,0.18847656,0.03125,0.09375,0.25,0.0,0.0,0.0
1696242932863,-0.087890625,0.9765625,0.19140625,-0.40625,-0.15625,0.03125,0.0,0.0,0.0
1696242932868,-0.09472656,0.9824219,0.20117188,-0.28125,-0.09375,-0.15625,0.0,0.0,0.0
1696242932923,-0.08691406,0.97753906,0.20996094,-0.28125,0.4375,0.15625,-53.875,63.0625,-43.25
1696242932958,-0.091796875,0.98046875,0.19335938,0.21875,0.15625,0.25,0.0,0.0,0.0
1696242933015,-0.0859375,0.9785156,0.18652344,0.21875,-0.21875,-0.21875,0.0,0.0,0.0
1696242933042,-0.09082031,0.98339844,0.19238281,0.03125,-0.09375,0.21875,0.0,0.0,0.0
1696242933073,-0.09082031,0.9765625,0.203125,-0.03125,0.15625,0.15625,0.0,0.0,0.0
1696242933102,-0.099609375,0.98046875,0.19433594,-0.15625,-0.09375,-0.15625,0.0,0.0,0.0
1696242933193,-0.1015625,0.98339844,0.1953125,-0.03125,0.03125,-0.15625,0.0,0.0,0.0
1696242933199,-0.08886719,0.9794922,0.20117188,-0.03125,0.15625,-0.15625,0.0,0.0,0.0
1696242933221,-0.095703125,0.984375,0.19238281,0.03125,0.09375,-0.03125,0.0,0.0,0.0
1696242933285,-0.08984375,0.9824219,0.19628906,0.25,0.09375,0.03125,0.0,0.0,0.0
1696242933313,-0.099609375,0.97558594,0.19433594,0.15625,-0.09375,0.03125,0.0,0.0,0.0
1696242933343,-0.09082031,0.9765625,0.20117188,-0.03125,0.09375,0.03125,0.0,0.0,0.0
1696242933406,-0.10546875,0.97558594,0.18945312,0.15625,-0.03125,-0.15625,0.0,0.0,0.0
1696242933433,-0.09277344,0.9814453,0.19042969,-0.09375,-0.09375,-0.09375,-53.375,64.6875,-43.4375
1696242933465,-0.095703125,0.9814453,0.20996094,0.09375,0.03125,-0.28125,0.0,0.0,0.0
1696242933563,-0.08984375,0.97558594,0.21191406,-0.71875,-0.03125,0.03125,0.0,0.0,0.0
1696242933569,-0.091796875,0.97265625,0.21289062,-0.15625,-0.34375,0.03125,0.0,0.0,0.0
1696242933582,-0.08496094,0.9794922,0.2109375,-0.15625,-0.03125,0.25,0.0,0.0,0.0
1696242933644,-0.091796875,0.984375,0.20898438,-0.46875,0.09375,0.03125,0.0,0.0,0.0
1696242933678,-0.08300781,0.9765625,0.20214844,-0.46875,0.09375,0.03125,0.0,0.0,0.0
1696242933703,-0.09375,0.9707031,0.19433594,-0.34375,-0.28125,-0.21875,0.0,0.0,0.0
1696242933762,-0.09277344,0.9707031,0.20117188,-0.28125,0.03125,-0.09375,0.0,0.0,0.0
1696242933791,-0.08984375,0.98046875,0.20117188,-0.21875,0.375,0.25,0.0,0.0,0.0
1696242933822,-0.09082031,0.9746094,0.203125,0.15625,-0.03125,0.25,0.0,0.0,0.0
1696242933881,-0.087890625,0.9736328,0.20019531,0.21875,-0.03125,0.09375,0.0,0.0,0.0
1696242933914,-0.08691406,0.9902344,0.21484375,0.25,-0.09375,-0.03125,-52.0625,64.25,-42.1875
1696242933974,-0.09472656,0.97753906,0.20410156,-0.03125,-0.09375,-0.15625,0.0,0.0,0.0
1696242934009,-0.08691406,0.96972656,0.20507812,-0.03125,-0.09375,0.03125,0.0,0.0,0.0
1696242934032,-0.087890625,0.9746094,0.20800781,-0.15625,-0.15625,-0.21875,0.0,0.0,0.0
1696242934063,-0.091796875,0.9746094,0.19921875,-0.15625,0.09375,-0.15625,0.0,0.0,0.0
1696242934122,-0.087890625,0.97753906,0.20214844,-0.15625,0.28125,0.21875,0.0,0.0,0.0
1696242934152,-0.09277344,0.98046875,0.20214844,0.1875,0.0,-0.0625,0.0,0.0,0.0
1696242934183,-0.0859375,0.98339844,0.21679688,-0.03125,-0.3125,0.125,0.0,0.0,0.0
1696242934244,-0.09375,0.9707031,0.19726562,0.375,-0.125,0.0625,0.0,0.0,0.0
1696242934272,-0.08496094,0.9814453,0.20898438,0.125,-0.1875,-0.09375,0.0,0.0,0.0
1696242934302,-0.09667969,0.97753906,0.1953125,0.125,0.0,-0.15625,0.0,0.0,0.0
1696242934363,-0.08984375,0.9824219,0.20214844,0.125,0.0625,0.0,0.0,0.0,0.0
1696242934394,-0.08984375,0.9746094,0.20703125,-0.03125,0.125,0.125,0.0,0.0,0.0
1696242934422,-0.09277344,0.9814453,0.20214844,0.125,0.125,0.0,-52.9375,64.6875,-41.0
1696242934484,-0.087890625,0.9716797,0.19824219,0.0625,0.0625,-0.0625,0.0,0.0,0.0
1696242934512,-0.08496094,0.97558594,0.20898438,0.5,-0.0625,-0.0625,0.0,0.0,0.0
1696242934541,-0.09375,0.984375,0.19824219,0.375,0.0,-0.09375,0.0,0.0,0.0
1696242934603,-0.09863281,0.98046875,0.20117188,0.25,-0.25,-0.34375,0.0,0.0,0.0
1696242934635,-0.09863281,0.984375,0.20996094,-0.09375,0.25,0.0,0.0,0.0,0.0
1696242934669,-0.10058594,0.98046875,0.203125,0.25,0.375,0.4375,0.0,0.0,0.0
1696242934725,-0.087890625,0.9814453,0.19726562,0.0625,-0.125,0.25,0.0,0.0,0.0
1696242934753,-0.08300781,0.97558594,0.20507812,-0.15625,-0.0625,0.0,0.0,0.0,0.0
1696242934785,-0.08496094,0.9814453,0.20214844,-0.46875,0.125,0.125,0.0,0.0,0.0
1696242934844,-0.091796875,0.9765625,0.2109375,-0.28125,-0.0625,-0.21875,0.0,0.0,0.0
1696242934873,-0.091796875,0.9785156,0.20117188,-0.09375,-0.1875,-0.28125,0.0,0.0,0.0
1696242934902,-0.095703125,0.984375,0.20507812,-0.34375,-0.0625,-0.09375,-54.0,63.9375,-42.6875
1696242934965,-0.095703125,0.97753906,0.20507812,0.125,0.25,0.0,0.0,0.0,0.0
1696242934994,-0.09277344,0.97753906,0.20410156,0.625,0.0,0.1875,0.0,0.0,0.0
1696242935024,-0.08496094,0.984375,0.19628906,0.5625,-0.125,-0.0625,0.0,0.0,0.0
1696242935085,-0.095703125,0.9785156,0.19921875,0.25,-0.0625,-0.15625,0.0,0.0,0.0
1696242935143,-0.087890625,0.9863281,0.18457031,0.1875,0.0625,-0.28125,0.0,0.0,0.0
1696242935149,-0.09765625,0.9736328,0.203125,0.625,-0.125,-0.21875,0.0,0.0,0.0
1696242935202,-0.09472656,0.98828125,0.20898438,-0.28125,0.0,-0.34375,0.0,0.0,0.0
1696242935232,-0.1015625,0.97265625,0.20605469,0.125,0.0625,0.0,0.0,0.0,0.0
1696242935262,-0.09863281,0.96777344,0.19628906,0.0,-0.0625,0.0,0.0,0.0,0.0
1696242935325,-0.09082031,0.97558594,0.20507812,0.125,0.0625,0.0625,0.0,0.0,0.0
1696242935353,-0.08496094,0.9794922,0.19824219,-0.03125,-0.1875,-0.0625,0.0,0.0,0.0
1696242935382,-0.087890625,0.9824219,0.20117188,0.125,-0.1875,-0.28125,0.0,0.0,0.0
1696242935447,-0.08886719,0.97558594,0.20214844,-0.15625,0.1875,-0.0625,-53.5625,64.5625,-43.25
1696242935475,-0.10058594,0.9863281,0.20800781,-0.34375,0.3125,-0.09375,0.0,0.0,0.0
1696242935504,-0.095703125,0.9736328,0.20410156,0.5,-0.4375,0.25,0.0,0.0,0.0
1696242935596,-0.08886719,0.9746094,0.18945312,0.25,-0.1875,-0.21875,0.0,0.0,0.0
1696242935603,-0.09277344,0.98535156,0.19921875,0.0625,-0.125,-0.15625,0.0,0.0,0.0
1696242935621,-0.09082031,0.984375,0.19628906,-0.40625,0.0,0.0625,0.0,0.0,0.0
1696242935717,-0.09667969,0.9707031,0.19238281,-0.34375,-0.125,0.0,0.0,0.0,0.0
1696242935724,-0.087890625,0.984375,0.20996094,-0.40625,-0.0625,-0.15625,0.0,0.0,0.0
1696242935746,-0.091796875,0.9824219,0.19726562,0.5,0.125,-0.15625,0.0,0.0,0.0
1696242935805,-0.09863281,0.98339844,0.21386719,0.0,0.1875,0.0625,0.0,0.0,0.0
1696242935832,-0.09472656,0.9736328,0.20800781,-0.03125,-0.0625,0.125,0.0,0.0,0.0
1696242935863,-0.08300781,0.97265625,0.19433594,0.375,-0.1875,-0.0625,0.0,0.0,0.0
1696242935925,-0.08496094,0.98046875,0.20019531,0.4375,0.0625,-0.28125,-52.8125,63.5,-42.5
1696242935952,-0.08203125,0.984375,0.20898438,0.625,0.0625,-0.40625,0.0,0.0,0.0
1696242935980,-0.0859375,0.97558594,0.21191406,-0.15625,-0.125,-0.28125,0.0,0.0,0.0
1696242936043,-0.09082031,0.9746094,0.21191406,-0.65625,0.0,0.0,0.0,0.0,0.0
1696242936075,-0.10839844,0.98046875,0.19824219,-0.34375,0.0625,-0.15625,0.0,0.0,0.0
1696242936103,-0.09667969,0.97753906,0.20410156,-0.15625,0.1875,0.3125,0.0,0.0,0.0
1696242936196,-0.091796875,0.9736328,0.1953125,0.125,0.125,0.125,0.0,0.0,0.0
1696242936202,-0.09277344,0.97558594,0.20800781,0.0625,-0.1875,-0.09375,0.0,0.0,0.0
1696242936221,-0.087890625,0.9746094,0.203125,0.125,0.0,0.0,0.0,0.0,0.0
1696242936347,-0.08496094,0.9892578,0.20703125,-0.34375,0.1875,-0.0625,0.0,0.0,0.0
1696242936357,-0.08886719,0.97753906,0.20800781,0.0625,-0.3125,0.25,0.0,0.0,0.0
1696242936363,-0.09472656,0.984375,0.19921875,0.3125,-0.1875,-0.0625,0.0,0.0,0.0
1696242936402,-0.08886719,0.9863281,0.19921875,0.25,0.0625,0.125,0.0,0.0,0.0
1696242936432,-0.09277344,0.984375,0.20117188,0.0625,0.0,-0.21875,-53.125,63.0625,-42.5
1696242936462,-0.09375,0.97753906,0.20507812,-0.90625,-0.125,-0.21875,0.0,0.0,0.0
1696242936523,-0.095703125,0.9736328,0.19726562,-1.875,0.125,0.125,0.0,0.0,0.0
1696242936552,-0.08984375,0.9716797,0.19824219,-0.71875,0.0,0.125,0.0,0.0,0.0
1696242936616,-0.091796875,0.9707031,0.21386719,0.375,0.25,-0.0625,0.0,0.0,0.0
1696242936644,-0.1015625,0.984375,0.20996094,1.1875,0.125,-0.15625,0.0,0.0,0.0
1696242936672,-0.087890625,0.97558594,0.20898438,0.4375,-0.25,0.0625,0.0,0.0,0.0
1696242936704,-0.08886719,0.9765625,0.19335938,-0.03125,-0.1875,-0.09375,0.0,0.0,0.0
1696242936761,-0.08300781,0.9824219,0.20214844,0.1875,-0.25,-0.0625,0.0,0.0,0.0
1696242936801,-0.083984375,0.98046875,0.20507812,0.5,-0.0625,-0.09375,0.0,0.0,0.0
1696242936822,-0.095703125,0.97558594,0.20703125,0.3125,-0.0625,-0.46875,0.0,0.0,0.0
1696242936885,-0.09667969,0.9716797,0.19824219,0.3125,0.0625,-0.59375,0.0,0.0,0.0
1696242936912,-0.10253906,0.9736328,0.21875,-0.21875,-0.1875,-0.28125,-51.875,62.875,-42.0625
1696242936943,-0.09375,0.9716797,0.21679688,-0.53125,0.125,-0.09375,0.0,0.0,0.0
1696242937003,-0.09667969,0.9736328,0.19726562,-0.40625,-0.1875,0.0625,0.0,0.0,0.0
1696242937032,-0.09472656,0.9707031,0.22265625,0.625,-0.1875,0.0,0.0,0.0,0.0
1696242937066,-0.08496094,0.984375,0.20800781,0.3125,0.25,0.125,0.0,0.0,0.0
1696242937125,-0.087890625,0.9707031,0.19921875,0.5625,0.1875,0.4375,0.0,0.0,0.0
1696242937155,-0.080078125,0.9814453,0.21484375,-0.40625,-0.25,0.0,0.0,0.0,0.0
1696242937183,-0.08496094,0.97753906,0.21679688,-0.65625,-0.1875,0.1875,0.0,0.0,0.0
1696242937242,-0.09277344,0.9814453,0.19335938,0.125,0.0,0.25,0.0,0.0,0.0
1696242937304,-0.0859375,0.9707031,0.20117188,0.5625,-0.0625,-0.28125,0.0,0.0,0.0
1696242937309,-0.078125,0.9892578,0.21191406,0.75,0.0,-0.78125,0.0,0.0,0.0
1696242937365,-0.087890625,0.9765625,0.21582031,0.0,-0.1875,-0.84375,0.0,0.0,0.0
1696242937422,-0.09667969,0.98339844,0.20996094,-0.03125,0.125,-0.28125,0.0,0.0,0.0
1696242937428,-0.09667969,0.9746094,0.20214844,-0.46875,-0.25,0.0,-53.375,63.625,-43.125
1696242937484,-0.08886719,0.97753906,0.19921875,-0.21875,-0.25,0.375,0.0,0.0,0.0
1696242937511,-0.087890625,0.96777344,0.2109375,0.4375,0.0,0.5,0.0,0.0,0.0
1696242937540,-0.08691406,0.9707031,0.20605469,0.5625,-0.0625,0.0,0.0,0.0,0.0
1696242937604,-0.091796875,0.97753906,0.19824219,0.1875,-0.1875,-0.15625,0.0,0.0,0.0
1696242937633,-0.08300781,0.9746094,0.20605469,-0.65625,-0.125,-0.21875,0.0,0.0,0.0
1696242937663,-0.09472656,0.97265625,0.21386719,-1.03125,0.0625,0.1875,0.0,0.0,0.0
1696242937757,-0.0859375,0.9716797,0.21777344,0.0625,-0.125,0.3125,0.0,0.0,0.0
1696242937765,-0.08203125,0.9765625,0.19140625,1.25,0.0,-0.09375,0.0,0.0,0.0
1696242937781,-0.09667969,0.9765625,0.19921875,2.09375,-0.0625,-0.46875,0.0,0.0,0.0
1696242937844,-0.09667969,0.98046875,0.20214844,1.0,-0.125,-0.96875,0.0,0.0,0.0
1696242937904,-0.09863281,0.9824219,0.19726562,-0.15625,-0.5625,-0.90625,0.0,0.0,0.0
1696242937911,-0.09375,0.97265625,0.20507812,-1.21875,0.0625,-0.15625,-51.75,63.0625,-42.5
1696242937963,-0.095703125,0.9736328,0.21582031,-0.46875,0.625,0.25,0.0,0.0,0.0
1696242937993,-0.08496094,0.9794922,0.21289062,0.5,-0.25,1.0,0.0,0.0,0.0
1696242938023,-0.08496094,0.9746094,0.20019531,0.375,-0.1875,0.4375,0.0,0.0,0.0
1696242938083,-0.08886719,0.97265625,0.20019531,0.125,-0.125,0.1875,0.0,0.0,0.0
1696242938113,-0.091796875,0.98046875,0.20410156,-0.59375,0.0625,-0.28125,0.0,0.0,0.0
1696242938143,-0.08496094,0.97558594,0.20996094,-0.90625,-0.375,-0.21875,0.0,0.0,0.0
1696242938202,-0.08496094,0.9794922,0.20605469,-0.65625,-0.1875,0.1875,0.0,0.0,0.0
1696242938232,-0.078125,0.9707031,0.21191406,1.0,0.0,0.1875,0.0,0.0,0.0
1696242938262,-0.08691406,0.9785156,0.20410156,2.15625,0.125,-0.46875,0.0,0.0,0.0
1696242938324,-0.083984375,0.98535156,0.21582031,1.125,-0.3125,-0.71875,0.0,0.0,0.0
1696242938351,-0.09082031,0.9785156,0.21386719,-0.34375,-0.3125,-0.59375,0.0,0.0,0.0
1696242938413,-0.099609375,0.9746094,0.21289062,-0.71875,0.0,-0.53125,0.0,0.0,0.0
1696242938443,-0.09863281,0.97753906,0.21777344,-0.15625,-0.0625,-0.09375,-51.875,62.5625,-42.6875
1696242938473,-0.09375,0.97558594,0.21289062,0.25,0.1875,0.5,0.0,0.0,0.0
1696242938502,-0.09472656,0.9716797,0.20605469,0.5625,0.125,0.5,0.0,0.0,0.0
1696242938564,-0.0859375,0.98046875,0.20800781,0.5625,0.0,0.0625,0.0,0.0,0.0
1696242938593,-0.08496094,0.98046875,0.21386719,-0.09375,-0.125,-0.09375,0.0,0.0,0.0
1696242938622,-0.08984375,0.9736328,0.21875,-0.53125,0.0,-0.09375,0.0,0.0,0.0
1696242938718,-0.08691406,0.984375,0.20605469,-0.09375,-0.1875,-0.21875,0.0,0.0,0.0
1696242938723,-0.080078125,0.9814453,0.21484375,1.53125,-0.25,-0.53125,0.0,0.0,0.0
1696242938742,-0.091796875,0.9794922,0.21484375,2.15625,0.3125,-0.59375,0.0,0.0,0.0
1696242938804,-0.095703125,0.98535156,0.20996094,1.0625,0.0,-0.78125,0.0,0.0,0.0
1696242938834,-0.09472656,0.9824219,0.20703125,-0.03125,-0.3125,-0.40625,0.0,0.0,0.0
1696242938864,-0.09472656,0.9707031,0.20410156,-0.96875,-0.1875,0.0,0.0,0.0,0.0
1696242938923,-0.091796875,0.9736328,0.20605469,-0.90625,-0.125,0.25,-52.9375,62.5625,-43.125
1696242938952,-0.095703125,0.96484375,0.21777344,-0.46875,-0.0625,0.375,0.0,0.0,0.0
1696242938984,-0.0859375,0.9824219,0.20019531,-0.34375,-0.25,0.1875,0.0,0.0,0.0
1696242939043,-0.09375,0.9765625,0.21679688,-0.65625,0.0625,0.1875,0.0,0.0,0.0
1696242939076,-0.091796875,0.9794922,0.22070312,-0.90625,-0.0625,0.0,0.0,0.0,0.0
1696242939103,-0.095703125,0.9785156,0.21484375,-0.53125,0.0625,0.375,0.0,0.0,0.0
1696242939162,-0.083984375,0.9716797,0.20996094,0.375,-0.3125,0.0625,0.0,0.0,0.0
1696242939194,-0.08203125,0.98046875,0.20703125,1.96875,-0.1875,-0.53125,0.0,0.0,0.0
1696242939225,-0.08203125,0.98339844,0.20019531,2.21875,0.0,-0.90625,0.0,0.0,0.0
1696242939284,-0.091796875,0.98339844,0.20507812,0.5625,-0.25,-0.84375,0.0,0.0,0.0
1696242939313,-0.10058594,0.97753906,0.21777344,-0.71875,0.0,-0.46875,0.0,0.0,0.0
1696242939343,-0.095703125,0.9716797,0.21386719,-0.84375,-0.0625,-0.21875,0.0,0.0,0.0
1696242939403,-0.095703125,0.9746094,0.19824219,-0.15625,0.0,0.3125,0.0,0.0,0.0
1696242939432,-0.09472656,0.9638672,0.21875,0.125,0.0625,0.25,-53.375,64.6875,-42.0625
1696242939464,-0.08496094,0.9707031,0.21484375,0.0,-0.0625,0.1875,0.0,0.0,0.0
1696242939526,-0.09277344,0.97753906,0.20605469,-0.15625,-0.125,0.1875,0.0,0.0,0.0
1696242939552,-0.0859375,0.9716797,0.20605469,-0.90625,-0.1875,0.0,0.0,0.0,0.0
1696242939581,-0.0859375,0.98339844,0.20898438,0.0,-0.25,0.1875,0.0,0.0,0.0
1696242939645,-0.09375,0.9814453,0.20214844,0.875,0.375,-0.15625,0.0,0.0,0.0
1696242939735,-0.087890625,0.9785156,0.2109375,2.15625,-0.125,-0.34375,0.0,0.0,0.0
1696242939744,-0.08886719,0.98535156,0.2109375,0.8125,-0.25,-0.84375,0.0,0.0,0.0
1696242939771,-0.09082031,0.9794922,0.2109375,-0.21875,-0.125,-0.34375,0.0,0.0,0.0
1696242939792,-0.09472656,0.9814453,0.21484375,-1.15625,0.0,-0.28125,0.0,0.0,0.0
1696242939820,-0.091796875,0.9716797,0.21582031,-0.53125,0.0,0.0625,0.0,0.0,0.0
1696242939885,-0.09667969,0.97558594,0.21484375,-0.34375,-0.125,0.3125,0.0,0.0,0.0
1696242939913,-0.08984375,0.96972656,0.22167969,0.0625,0.125,0.1875,-52.1875,63.9375,-43.125
1696242939951,-0.091796875,0.9814453,0.21875,0.125,0.0625,0.3125,0.0,0.0,0.0
1696242940004,-0.09082031,0.98535156,0.21875,-0.09375,-0.0625,0.1875,0.0,0.0,0.0
1696242940036,-0.080078125,0.97558594,0.21679688,-0.34375,-0.125,0.1875,0.0,0.0,0.0
1696242940094,-0.07519531,0.9824219,0.203125,0.3125,0.0,-0.0625,0.0,0.0,0.0
1696242940123,-0.095703125,0.9814453,0.1953125,2.03125,-0.4375,-0.71875,0.0,0.0,0.0
1696242940155,-0.09082031,0.98535156,0.203125,1.25,-0.1875,-1.03125,0.0,0.0,0.0
1696242940184,-0.1015625,0.98828125,0.20703125,0.0625,-0.125,-0.53125,0.0,0.0,0.0
1696242940245,-0.09863281,0.9824219,0.2109375,-1.09375,-0.125,-0.21875,0.0,0.0,0.0
1696242940274,-0.09765625,0.9716797,0.21191406,-0.96875,0.0625,0.0625,0.0,0.0,0.0
1696242940305,-0.087890625,0.9765625,0.21191406,-0.09375,0.0,0.3125,0.0,0.0,0.0
1696242940361,-0.09375,0.9707031,0.19726562,0.25,0.0625,0.4375,0.0,0.0,0.0
1696242940392,-0.078125,0.96484375,0.21875,0.375,-0.1875,0.1875,0.0,0.0,0.0
1696242940453,-0.08496094,0.9863281,0.21191406,-0.15625,-0.3125,-0.0625,-52.0625,64.5625,-41.75
1696242940483,-0.083984375,0.98339844,0.21972656,-0.78125,-0.1875,-0.09375,0.0,0.0,0.0
1696242940518,-0.08300781,0.9736328,0.21386719,-0.21875,-0.125,0.0625,0.0,0.0,0.0
1696242940546,-0.083984375,0.98535156,0.21972656,1.0,0.5,-0.09375,0.0,0.0,0.0
1696242940635,-0.09375,0.9707031,0.21777344,2.46875,-0.25,-0.09375,0.0,0.0,0.0
1696242940642,-0.087890625,0.984375,0.21484375,0.6875,-0.1875,-0.84375,0.0,0.0,0.0
1696242940663,-0.09082031,0.98535156,0.19628906,-0.34375,-0.3125,-0.34375,0.0,0.0,0.0
1696242940725,-0.087890625,0.9736328,0.21386719,-1.03125,-0.125,-0.34375,0.0,0.0,0.0
1696242940753,-0.09082031,0.9746094,0.20703125,-0.53125,-0.1875,0.1875,0.0,0.0,0.0
1696242940783,-0.08984375,0.9765625,0.20507812,-0.40625,-0.0625,0.3125,0.0,0.0,0.0
1696242940843,-0.099609375,0.96875,0.21875,0.1875,0.0625,0.375,0.0,0.0,0.0
1696242940880,-0.09863281,0.9814453,0.20117188,0.1875,0.125,0.4375,0.0,0.0,0.0
1696242940903,-0.087890625,0.96875,0.21191406,-0.09375,-0.125,0.4375,-52.9375,63.9375,-43.125
1696242940962,-0.07714844,0.9736328,0.21191406,-0.15625,-0.25,0.0625,0.0,0.0,0.0
1696242940994,-0.07519531,0.9707031,0.20214844,1.25,0.0,-0.28125,0.0,0.0,0.0
1696242941025,-0.08203125,0.9794922,0.203125,1.90625,-0.1875,-0.90625,0.0,0.0,0.0
1696242941082,-0.09082031,0.98828125,0.2109375,1.25,-0.25,-0.96875,0.0,0.0,0.0
1696242941128,-0.099609375,0.97558594,0.21875,-0.34375,-0.0625,-0.65625,0.0,0.0,0.0
1696242941143,-0.10058594,0.96777344,0.20996094,-0.78125,0.0,-0.0625,0.0,0.0,0.0
1696242941200,-0.099609375,0.9746094,0.21972656,-0.65625,0.1875,0.125,0.0,0.0,0.0
1696242941233,-0.095703125,0.9667969,0.20898438,-0.03125,0.125,0.5,0.0,0.0,0.0
1696242941261,-0.08691406,0.9716797,0.20605469,0.4375,-0.25,0.4375,0.0,0.0,0.0
1696242941322,-0.078125,0.97265625,0.21582031,-0.21875,0.0,0.25,0.0,0.0,0.0
1696242941352,-0.09082031,0.97753906,0.21191406,-0.15625,-0.125,0.0625,0.0,0.0,0.0
1696242941381,-0.08105469,0.9746094,0.19824219,-0.40625,-0.4375,-0.21875,0.0,0.0,0.0
1696242941444,-0.083984375,0.9785156,0.20703125,0.3125,-0.125,-0.34375,-51.4375,62.5625,-42.6875
1696242941473,-0.083984375,0.97558594,0.21484375,1.40625,0.375,-0.34375,0.0,0.0,0.0
1696242941503,-0.08691406,0.9814453,0.21972656,1.28125,0.0625,-0.46875,0.0,0.0,0.0
1696242941563,-0.08496094,0.9736328,0.2265625,0.625,-0.3125,-0.65625,0.0,0.0,0.0
1696242941592,-0.08496094,0.97753906,0.22070312,-0.15625,0.0,-0.15625,0.0,0.0,0.0
1696242941623,-0.095703125,0.96777344,0.20800781,-0.40625,0.0625,-0.09375,0.0,0.0,0.0
1696242941685,-0.091796875,0.9765625,0.21484375,-0.21875,-0.125,0.0,0.0,0.0,0.0
1696242941743,-0.08984375,0.9707031,0.21191406,-0.03125,-0.0625,0.125,0.0,0.0,0.0
1696242941748,-0.083984375,0.97265625,0.21386719,-0.15625,-0.125,0.0625,0.0,0.0,0.0
1696242941800,-0.087890625,0.9716797,0.203125,-0.15625,0.0625,0.25,0.0,0.0,0.0
1696242941831,-0.08886719,0.98046875,0.23046875,0.1875,-0.125,0.1875,0.0,0.0,0.0
1696242941894,-0.07714844,0.97753906,0.20996094,0.5,-0.25,-0.0625,0.0,0.0,0.0
1696242941922,-0.0859375,0.984375,0.20996094,1.59375,-0.125,-0.59375,-53.125,62.75,-42.1875
1696242941981,-0.08691406,0.984375,0.20214844,1.0,-0.125,-0.78125,0.0,0.0,0.0
1696242941986,-0.091796875,0.9873047,0.21582031,-0.03125,-0.125,-0.71875,0.0,0.0,0.0
1696242942044,-0.09863281,0.9785156,0.21289062,-1.09375,-0.1875,-0.21875,0.0,0.0,0.0
1696242942073,-0.10058594,0.9785156,0.21484375,-0.96875,0.0625,0.0,0.0,0.0,0.0
1696242942101,-0.08886719,0.9638672,0.20996094,-0.46875,-0.125,0.3125,0.0,0.0,0.0
1696242942162,-0.09472656,0.97265625,0.21582031,-0.34375,0.1875,0.4375,0.0,0.0,0.0
1696242942193,-0.091796875,0.96972656,0.21386719,0.0625,-0.125,0.4375,0.0,0.0,0.0
1696242942223,-0.087890625,0.9736328,0.21484375,-0.40625,-0.3125,0.1875,0.0,0.0,0.0
1696242942285,-0.091796875,0.96972656,0.22265625,0.0,-0.3125,-0.09375,0.0,0.0,0.0
1696242942312,-0.08300781,0.99316406,0.20800781,0.625,-0.65625,-0.46875,0.0,0.0,0.0
1696242942346,-0.091796875,0.9794922,0.21679688,0.9375,-0.0625,-0.59375,0.0,0.0,0.0
1696242942403,-0.08984375,0.9980469,0.21582031,0.5,-0.1875,-0.78125,0.0,0.0,0.0
1696242942433,-0.0859375,0.96777344,0.20605469,0.3125,-0.4375,-0.21875,-52.9375,63.3125,-42.6875
1696242942462,-0.0859375,0.96972656,0.20214844,-0.15625,-0.375,-0.53125,0.0,0.0,0.0
1696242942522,-0.08496094,0.98339844,0.22949219,-0.15625,0.0625,0.0,0.0,0.0,0.0
1696242942615,-0.091796875,0.9667969,0.22363281,-0.09375,0.3125,0.1875,0.0,0.0,0.0
1696242942642,-0.091796875,0.9716797,0.20996094,0.0,0.0,0.1875,0.0,0.0,0.0
1696242942647,-0.09277344,0.97558594,0.22265625,0.0,-0.3125,-0.0625,0.0,0.0,0.0
1696242942674,-0.09277344,0.96972656,0.203125,-0.21875,-0.125,-0.09375,0.0,0.0,0.0
1696242942702,-0.08300781,0.9765625,0.22460938,0.0,0.0,0.0625,0.0,0.0,0.0
1696242942766,-0.08984375,0.9814453,0.21777344,1.0,0.0625,-0.15625,0.0,0.0,0.0
1696242942825,-0.07910156,0.9814453,0.2109375,1.59375,-0.1875,-0.46875,0.0,0.0,0.0
1696242942831,-0.080078125,0.9824219,0.19921875,1.0625,-0.0625,-0.71875,0.0,0.0,0.0
1696242942884,-0.09375,0.9746094,0.21191406,0.375,-0.125,-0.59375,0.0,0.0,0.0
1696242942913,-0.08691406,0.9765625,0.21289062,-0.09375,0.0625,-0.34375,-52.1875,64.375,-42.0625
1696242942942,-0.09667969,0.98046875,0.22070312,-0.71875,0.25,0.0625,0.0,0.0,0.0
1696242943009,-0.09082031,0.96777344,0.20898438,-0.15625,0.0625,0.375,0.0,0.0,0.0
1696242943033,-0.08984375,0.9785156,0.21777344,0.1875,-0.0625,0.25,0.0,0.0,0.0
1696242943061,-0.08496094,0.9736328,0.2109375,0.1875,-0.0625,0.25,0.0,0.0,0.0
1696242943124,-0.08203125,0.97753906,0.22167969,-0.09375,-0.1875,0.0,0.0,0.0,0.0
1696242943184,-0.08300781,0.9765625,0.21582031,-0.03125,-0.1875,-0.09375,0.0,0.0,0.0
1696242943190,-0.09765625,0.984375,0.22265625,0.25,-0.0625,-0.21875,0.0,0.0,0.0
1696242943243,-0.0859375,0.9746094,0.21484375,0.5625,-0.0625,-0.40625,0.0,0.0,0.0
1696242943277,-0.08886719,0.9794922,0.21582031,0.75,-0.0625,-0.53125,0.0,0.0,0.0
1696242943301,-0.09277344,0.97265625,0.22070312,0.25,0.1875,-0.21875,0.0,0.0,0.0
1696242943362,-0.0859375,0.9814453,0.20996094,0.0,0.25,0.125,0.0,0.0,0.0
1696242943394,-0.08691406,0.97265625,0.21972656,0.0625,-0.3125,0.0,0.0,0.0,0.0
1696242943425,-0.083984375,0.9794922,0.22070312,-0.15625,-0.3125,0.0625,-51.875,62.875,-42.375
1696242943485,-0.07910156,0.9707031,0.21679688,-0.28125,-0.25,0.3125,0.0,0.0,0.0
1696242943545,-0.08886719,0.984375,0.21777344,-0.71875,-0.125,0.125,0.0,0.0,0.0
1696242943551,-0.09472656,0.96777344,0.22167969,-0.40625,-0.25,0.125,0.0,0.0,0.0
1696242943609,-0.087890625,0.9658203,0.21484375,-0.40625,0.0,-0.0625,0.0,0.0,0.0
1696242943633,-0.08691406,0.96972656,0.23046875,0.8125,0.125,-0.15625,0.0,0.0,0.0
1696242943663,-0.09375,0.98046875,0.20703125,1.65625,0.125,-0.53125,0.0,0.0,0.0
1696242943725,-0.08886719,0.9814453,0.21582031,1.59375,-0.125,-0.59375,0.0,0.0,0.0
1696242943752,-0.09277344,0.98339844,0.21289062,0.5,-0.1875,0.0,0.0,0.0,0.0
1696242943782,-0.09375,0.9716797,0.21289062,-0.59375,0.0,-0.0625,0.0,0.0,0.0
1696242943843,-0.087890625,0.96972656,0.21386719,0.0625,-0.1875,-0.15625,0.0,0.0,0.0
1696242943881,-0.091796875,0.9736328,0.22460938,-0.03125,0.0625,-0.21875,0.0,0.0,0.0
1696242943904,-0.08984375,0.97753906,0.2109375,0.1875,0.125,0.0625,-53.5625,62.75,-41.75
1696242943964,-0.09277344,0.98046875,0.21679688,0.0,-0.1875,0.1875,0.0,0.0,0.0
1696242943992,-0.07910156,0.9716797,0.21679688,-0.40625,-0.1875,0.0,0.0,0.0,0.0
