,timestamp,accel_x,accel_y,accel_z,gyro_x,gyro_y,gyro_z,mag_x,mag_y,mag_z,ind
0,1696243352921,-0.9951172,0.11425781,-0.029296875,-1.15625,-1.5625,0.15625,-92.25,44.4375,-82.6875,0
1,1696243352961,-0.99902344,0.12988281,-0.049804688,1.78125,0.21875,1.4375,0.0,0.0,0.0,1
2,1696243353001,-1.0058594,0.12207031,0.0068359375,16.1875,3.5625,4.21875,0.0,0.0,0.0,2
3,1696243353041,-1.0332031,0.18554688,0.099609375,-4.75,-10.84375,-3.21875,0.0,0.0,0.0,3
4,1696243353081,-1.0664062,-0.036132812,0.15332031,7.9375,-62.96875,-8.71875,0.0,0.0,0.0,4
5,1696243353121,-0.96777344,-0.091796875,0.35839844,20.4375,-92.09375,-33.71875,0.0,0.0,0.0,5
6,1696243353161,-0.88183594,0.2734375,-0.09082031,-14.53125,-45.09375,-29.40625,0.0,0.0,0.0,6
7,1696243353201,-0.9814453,-0.01953125,-0.06640625,25.4375,16.75,-18.84375,0.0,0.0,0.0,7
8,1696243353241,-1.0839844,0.041015625,0.16308594,-17.8125,29.625,-26.71875,0.0,0.0,0.0,8
9,1696243353281,-1.0371094,0.43945312,0.07714844,-0.375,14.375,-1.8125,0.0,0.0,0.0,9
10,1696243353321,-0.9111328,0.3876953,0.049804688,25.875,12.03125,31.46875,0.0,0.0,0.0,10
11,1696243353361,-1.0058594,-0.25,-0.06347656,16.25,17.53125,16.125,0.0,0.0,0.0,11
12,1696243353401,-1.0078125,-0.06542969,-0.0703125,19.09375,8.6875,-9.9375,0.0,0.0,0.0,12
13,1696243353441,-1.0400391,0.068359375,0.08203125,13.1875,-0.59375,-7.71875,-94.375,39.5,-79.6875,13
14,1696243353481,-1.0068359,0.12207031,0.06738281,-14.53125,6.1875,2.15625,0.0,0.0,0.0,14
15,1696243353521,-1.0615234,-0.091796875,0.034179688,-4.75,6.0625,4.53125,0.0,0.0,0.0,15
16,1696243353561,-1.0048828,-0.203125,0.0146484375,7.03125,16.8125,-4.8125,0.0,0.0,0.0,16
17,1696243353601,-0.9736328,-0.026367188,0.07714844,34.125,22.78125,-3.59375,0.0,0.0,0.0,17
18,1696243353641,-0.9316406,0.080078125,0.15039062,34.125,18.5,-3.09375,0.0,0.0,0.0,18
19,1696243353681,-1.0,0.16796875,0.2783203,14.65625,0.09375,-2.71875,0.0,0.0,0.0,19
20,1696243353721,-0.9111328,0.068359375,0.328125,-0.96875,-25.25,-0.90625,0.0,0.0,0.0,20
21,1696243353761,-0.8076172,0.0126953125,0.12402344,-32.53125,-76.03125,-5.40625,0.0,0.0,0.0,21
22,1696243353801,-0.63671875,0.16308594,0.33398438,28.375,-104.09375,16.125,0.0,0.0,0.0,22
23,1696243353841,-0.8564453,0.111328125,-0.10644531,-51.8125,-46.65625,22.78125,0.0,0.0,0.0,23
24,1696243353881,-1.1806641,-0.2919922,0.06738281,0.90625,-51.84375,14.65625,0.0,0.0,0.0,24
25,1696243353921,-0.9189453,-0.17871094,0.08691406,31.6875,-69.4375,-29.53125,-95.5625,41.125,-74.625,25
26,1696243353961,-0.6376953,0.18652344,0.123046875,27.90625,-34.9375,-2.0,0.0,0.0,0.0,26
27,1696243354001,-0.97265625,-0.04296875,0.25976562,-10.75,7.90625,20.78125,0.0,0.0,0.0,27
28,1696243354041,-1.2519531,-0.21972656,0.47558594,21.1875,-19.03125,-0.71875,0.0,0.0,0.0,28
29,1696243354081,-0.62890625,0.048828125,0.34765625,32.59375,-26.34375,0.375,0.0,0.0,0.0,29
30,1696243354121,-1.1357422,-0.107421875,0.33203125,-6.03125,-7.5,31.9375,0.0,0.0,0.0,30
31,1696243354161,-2.0,0.15039062,0.52734375,-11.71875,-58.375,-25.3125,0.0,0.0,0.0,31
32,1696243354201,-1.4277344,0.25976562,0.46289062,-42.125,-62.46875,-80.4375,0.0,0.0,0.0,32
33,1696243354241,-1.0371094,-0.052734375,0.32714844,51.875,-65.28125,-50.6875,0.0,0.0,0.0,33
34,1696243354281,-0.68847656,0.21582031,0.203125,107.0,-79.5,-26.90625,0.0,0.0,0.0,34
35,1696243354321,-0.7919922,0.3076172,0.22460938,56.9375,-62.90625,-11.40625,0.0,0.0,0.0,35
36,1696243354361,-0.8876953,0.13867188,0.43164062,63.28125,-43.0,13.75,0.0,0.0,0.0,36
37,1696243354401,-0.9199219,0.1171875,0.40429688,47.0,-35.8125,7.46875,0.0,0.0,0.0,37
38,1696243354441,-0.84472656,0.36035156,0.4482422,21.59375,-27.03125,6.90625,-93.125,41.0,-64.25,38
39,1696243354481,-0.87109375,0.12109375,0.43652344,12.21875,-28.96875,9.90625,0.0,0.0,0.0,39
40,1696243354521,-0.71972656,0.12207031,0.5214844,5.75,-17.25,14.84375,0.0,0.0,0.0,40
41,1696243354561,-0.72558594,0.24804688,0.4267578,7.6875,-2.96875,22.84375,0.0,0.0,0.0,41
42,1696243354601,-0.7558594,0.15722656,0.53808594,8.59375,13.875,27.90625,0.0,0.0,0.0,42
43,1696243354641,-0.703125,0.22363281,0.5048828,-9.71875,37.5625,17.40625,0.0,0.0,0.0,43
44,1696243354681,-0.74121094,0.16699219,0.38671875,-12.8125,51.28125,14.375,0.0,0.0,0.0,44
45,1696243354721,-0.8222656,0.10058594,0.42089844,-21.84375,47.5,-3.46875,0.0,0.0,0.0,45
46,1696243354761,-0.9609375,0.12695312,0.48828125,-31.0,69.46875,-19.875,0.0,0.0,0.0,46
47,1696243354801,-0.96875,0.18457031,0.4716797,-26.5625,49.71875,-32.28125,0.0,0.0,0.0,47
48,1696243354841,-0.88671875,0.14746094,0.47265625,-31.3125,52.8125,-28.90625,0.0,0.0,0.0,48
49,1696243354881,-0.8720703,0.12695312,0.5214844,-33.21875,56.46875,-7.0625,0.0,0.0,0.0,49
50,1696243354921,-0.83496094,0.18652344,0.5136719,-42.0625,49.15625,3.1875,-96.625,40.8125,-70.375,50
51,1696243354961,-0.7285156,0.08105469,0.40625,-49.9375,50.125,20.71875,0.0,0.0,0.0,51
52,1696243355001,-0.76464844,0.022460938,0.23828125,-59.03125,55.0,28.46875,0.0,0.0,0.0,52
53,1696243355041,-0.8046875,0.03125,0.22265625,-37.40625,38.0,28.28125,0.0,0.0,0.0,53
54,1696243355081,-0.875,-0.057617188,0.24023438,-13.625,28.9375,6.625,0.0,0.0,0.0,54
55,1696243355121,-0.73535156,0.03515625,0.1953125,-3.34375,28.53125,-13.21875,0.0,0.0,0.0,55
56,1696243355161,-0.87402344,0.16308594,0.23730469,20.5625,21.5,1.25,0.0,0.0,0.0,56
57,1696243355201,-0.94140625,0.23730469,0.2919922,4.46875,11.5625,4.34375,0.0,0.0,0.0,57
58,1696243355241,-0.9638672,0.296875,0.30664062,-21.5,9.53125,19.6875,0.0,0.0,0.0,58
59,1696243355281,-0.85546875,0.07519531,0.21386719,30.625,5.5625,32.75,0.0,0.0,0.0,59
60,1696243355321,-1.3046875,-0.11328125,0.28808594,38.5,35.40625,-12.75,0.0,0.0,0.0,60
61,1696243355361,-1.4277344,0.31445312,-0.14257812,-18.90625,44.625,-28.65625,0.0,0.0,0.0,61
62,1696243355401,-1.3154297,0.3046875,0.009765625,24.34375,-1.9375,9.46875,0.0,0.0,0.0,62
63,1696243355441,-1.7050781,0.18164062,0.27441406,-19.53125,-16.03125,2.21875,-93.875,38.0,-82.25,63
64,1696243355481,-0.7548828,-0.068359375,-0.125,-56.28125,-38.5,2.65625,0.0,0.0,0.0,64
65,1696243355521,-1.0195312,-0.33398438,0.0146484375,-83.875,30.84375,-14.125,0.0,0.0,0.0,65
66,1696243355561,-1.1015625,0.11425781,0.0068359375,0.25,31.5625,-13.65625,0.0,0.0,0.0,66
67,1696243355601,-0.8769531,0.10546875,0.13964844,-34.71875,20.84375,-5.90625,0.0,0.0,0.0,67
68,1696243355641,-1.0078125,0.12695312,0.12695312,2.5625,10.8125,1.53125,0.0,0.0,0.0,68
69,1696243355681,-1.0371094,-0.05859375,0.18359375,6.59375,1.3125,-4.5,0.0,0.0,0.0,69
70,1696243355721,-1.0253906,0.06640625,0.16015625,-21.59375,0.09375,-6.21875,0.0,0.0,0.0,70
71,1696243355761,-1.015625,0.034179688,0.07714844,4.15625,4.34375,0.3125,0.0,0.0,0.0,71
72,1696243355801,-0.9902344,0.09277344,0.11621094,1.28125,4.28125,-1.3125,0.0,0.0,0.0,72
73,1696243355841,-1.0087891,0.08203125,0.14453125,3.90625,6.75,0.375,0.0,0.0,0.0,73
74,1696243355881,-0.96972656,0.037109375,0.11425781,-3.96875,1.78125,3.5625,0.0,0.0,0.0,74
75,1696243355921,-0.9892578,-0.009765625,0.14746094,-0.96875,5.15625,1.3125,-95.25,36.8125,-80.3125,75
76,1696243355961,-1.0078125,0.0048828125,0.14648438,-5.5625,-1.03125,1.78125,0.0,0.0,0.0,76
77,1696243356001,-0.92089844,0.028320312,0.12207031,-2.9375,-5.53125,2.59375,0.0,0.0,0.0,77
78,1696243356041,-0.92285156,-0.053710938,0.17675781,1.53125,4.0,-6.03125,0.0,0.0,0.0,78
79,1696243356081,-0.88378906,-0.21582031,0.1328125,9.15625,-1.0625,-26.40625,0.0,0.0,0.0,79
80,1696243356121,-1.1914062,-0.060546875,0.19824219,28.4375,-14.125,-33.1875,0.0,0.0,0.0,80
81,1696243356161,-0.80371094,0.3173828,0.13867188,49.375,-41.53125,-12.125,0.0,0.0,0.0,81
82,1696243356201,-0.87109375,0.10644531,0.107421875,-6.46875,-38.5625,12.21875,0.0,0.0,0.0,82
83,1696243356241,-1.046875,-0.045898438,0.013671875,4.09375,-36.71875,4.96875,0.0,0.0,0.0,83
84,1696243356281,-1.03125,0.034179688,0.15039062,22.34375,-34.40625,-2.90625,0.0,0.0,0.0,84
85,1696243356321,-0.9824219,0.12402344,0.17773438,-15.375,-28.71875,0.6875,0.0,0.0,0.0,85
86,1696243356361,-0.953125,0.0078125,0.13476562,7.15625,-20.5625,9.1875,0.0,0.0,0.0,86
87,1696243356401,-1.0761719,-0.13769531,0.24121094,-0.625,-17.9375,-6.375,-96.125,33.625,-76.875,87
88,1696243356441,-0.8984375,0.047851562,0.2578125,2.75,-13.46875,-12.90625,0.0,0.0,0.0,88
89,1696243356481,-0.953125,-0.068359375,0.328125,-2.375,-7.59375,1.65625,0.0,0.0,0.0,89
90,1696243356521,-1.0244141,-0.036132812,0.21875,18.375,-20.3125,-0.09375,0.0,0.0,0.0,90
91,1696243356561,-0.8457031,0.053710938,0.27539062,19.34375,-14.09375,-2.125,0.0,0.0,0.0,91
92,1696243356601,-0.95703125,-0.0048828125,0.27441406,9.8125,-14.03125,15.40625,0.0,0.0,0.0,92
93,1696243356641,-0.9951172,-0.099609375,0.27441406,20.1875,-15.40625,10.28125,0.0,0.0,0.0,93
94,1696243356681,-0.9091797,0.0009765625,0.31347656,24.40625,-14.4375,-4.375,0.0,0.0,0.0,94
95,1696243356721,-0.8457031,0.001953125,0.39941406,21.65625,-7.84375,-8.65625,0.0,0.0,0.0,95
96,1696243356761,-0.9345703,0.037109375,0.46777344,18.5625,-12.78125,0.25,0.0,0.0,0.0,96
97,1696243356801,-0.79296875,-0.037109375,0.37890625,24.90625,-10.46875,9.3125,0.0,0.0,0.0,97
98,1696243356841,-0.875,-0.068359375,0.47070312,24.90625,-15.375,14.78125,0.0,0.0,0.0,98
99,1696243356881,-1.6386719,0.036132812,0.51660156,-12.21875,-12.75,7.46875,0.0,0.0,0.0,99
100,1696243356921,-1.3115234,0.068359375,0.36132812,-34.53125,12.90625,-42.65625,-96.3125,36.0625,-73.5625,100
101,1696243356961,-0.9111328,0.046875,0.31347656,3.34375,-5.65625,-33.96875,0.0,0.0,0.0,101
102,1696243357001,-0.6308594,0.23242188,0.3173828,23.6875,-9.625,-7.96875,0.0,0.0,0.0,102
103,1696243357041,-0.8339844,0.072265625,0.22167969,12.21875,1.1875,5.34375,0.0,0.0,0.0,103
104,1696243357081,-1.0869141,0.0087890625,0.33398438,24.34375,-8.9375,2.71875,0.0,0.0,0.0,104
105,1696243357121,-1.1582031,0.111328125,0.46972656,23.4375,-28.25,-9.3125,0.0,0.0,0.0,105
106,1696243357161,-1.0332031,0.15917969,0.42871094,28.875,-45.8125,-18.0,0.0,0.0,0.0,106
107,1696243357201,-0.9238281,-0.001953125,0.453125,36.8125,-51.84375,-11.28125,0.0,0.0,0.0,107
108,1696243357241,-0.8798828,0.0078125,0.43945312,31.75,-45.9375,-7.71875,0.0,0.0,0.0,108
109,1696243357281,-0.7949219,0.12402344,0.35839844,26.96875,-24.09375,-2.59375,0.0,0.0,0.0,109
110,1696243357321,-0.8623047,0.095703125,0.4140625,18.0625,-13.59375,3.3125,0.0,0.0,0.0,110
111,1696243357361,-0.7734375,0.15234375,0.4013672,2.625,1.375,2.28125,0.0,0.0,0.0,111
112,1696243357401,-0.7578125,0.16210938,0.33691406,0.0,12.90625,7.15625,-94.625,32.5625,-65.625,112
113,1696243357441,-0.77441406,0.10253906,0.37890625,-17.75,32.84375,13.6875,0.0,0.0,0.0,113
114,1696243357481,-0.79785156,0.041015625,0.3466797,-22.71875,46.21875,16.8125,0.0,0.0,0.0,114
115,1696243357521,-0.69140625,0.0126953125,0.34570312,-23.125,65.21875,17.90625,0.0,0.0,0.0,115
116,1696243357561,-0.7060547,0.16503906,0.25683594,-46.6875,95.0625,27.1875,0.0,0.0,0.0,116
117,1696243357601,-1.0615234,0.16308594,0.3544922,-56.28125,113.90625,27.96875,0.0,0.0,0.0,117
118,1696243357641,-1.1513672,-0.09472656,0.3173828,4.34375,84.4375,4.125,0.0,0.0,0.0,118
119,1696243357681,-1.0009766,0.14648438,0.3017578,-43.8125,38.71875,-17.625,0.0,0.0,0.0,119
120,1696243357721,-0.74902344,0.2861328,0.30664062,3.46875,6.78125,5.5625,0.0,0.0,0.0,120
121,1696243357761,-0.7578125,-0.07128906,0.0546875,35.9375,19.375,21.0625,0.0,0.0,0.0,121
122,1696243357801,-0.9638672,-0.07714844,0.16113281,-28.25,38.71875,-0.71875,0.0,0.0,0.0,122
123,1696243357841,-0.828125,0.23046875,0.1875,15.625,16.0,-5.21875,0.0,0.0,0.0,123
124,1696243357881,-0.8027344,0.32128906,0.31054688,-12.5,20.03125,5.9375,0.0,0.0,0.0,124
125,1696243357921,-1.0244141,0.28222656,0.22851562,-19.84375,20.84375,20.03125,-95.5625,34.5625,-83.125,125
126,1696243357961,-1.328125,-0.24511719,-0.06738281,13.625,21.6875,4.71875,0.0,0.0,0.0,126
127,1696243358001,-1.5205078,0.18164062,0.40429688,-22.875,17.0625,-30.5625,0.0,0.0,0.0,127
128,1696243358041,-1.5087891,0.203125,0.041015625,-39.0,-7.5,-21.53125,0.0,0.0,0.0,128
129,1696243358081,-1.21875,0.005859375,0.001953125,5.6875,-36.59375,8.25,0.0,0.0,0.0,129
130,1696243358121,-0.9277344,-0.17773438,-0.12792969,-33.5,1.71875,-15.90625,0.0,0.0,0.0,130
131,1696243358161,-1.0205078,0.059570312,-0.125,0.25,27.25,-30.75,0.0,0.0,0.0,131
132,1696243358201,-0.953125,0.07421875,0.022460938,7.1875,23.875,-12.90625,0.0,0.0,0.0,132
133,1696243358241,-0.9550781,0.12890625,0.044921875,-17.34375,14.375,0.5,0.0,0.0,0.0,133
134,1696243358281,-1.0332031,-0.047851562,0.021484375,7.3125,13.3125,1.65625,0.0,0.0,0.0,134
135,1696243358321,-0.9892578,-0.0107421875,0.0703125,-4.15625,13.3125,-3.21875,0.0,0.0,0.0,135
136,1696243358361,-1.078125,-0.034179688,0.08105469,-4.21875,18.34375,-0.78125,0.0,0.0,0.0,136
137,1696243358401,-1.0,-0.01171875,0.032226562,4.8125,10.875,0.09375,-96.3125,30.5,-85.5625,137
138,1696243358441,-0.9638672,0.06640625,0.09082031,10.5625,-0.21875,5.4375,0.0,0.0,0.0,138
139,1696243358481,-1.0224609,-0.015625,0.022460938,-0.78125,4.53125,5.6875,0.0,0.0,0.0,139
140,1696243358521,-0.9794922,-0.020507812,0.06640625,5.5,2.53125,4.28125,0.0,0.0,0.0,140
141,1696243358561,-0.96484375,0.055664062,0.1328125,-1.40625,0.25,5.03125,0.0,0.0,0.0,141
142,1696243358601,-0.9658203,-0.03125,0.061523438,-6.59375,-2.125,5.21875,0.0,0.0,0.0,142
143,1696243358641,-0.9501953,-0.016601562,0.10449219,13.90625,-13.09375,-0.03125,0.0,0.0,0.0,143
144,1696243358681,-0.9277344,-0.0087890625,0.06542969,7.75,-23.65625,-3.21875,0.0,0.0,0.0,144
145,1696243358721,-0.9267578,0.13183594,0.1484375,21.125,-54.59375,-0.46875,0.0,0.0,0.0,145
146,1696243358761,-0.8466797,0.17871094,0.08496094,10.5625,-50.15625,14.84375,0.0,0.0,0.0,146
147,1696243358801,-1.0351562,-0.109375,0.06640625,-8.78125,-28.65625,21.5625,0.0,0.0,0.0,147
148,1696243358841,-1.0244141,-0.0703125,0.2607422,5.25,-36.84375,-6.9375,0.0,0.0,0.0,148
149,1696243358881,-0.82421875,-0.033203125,0.14648438,30.34375,-50.34375,-5.15625,0.0,0.0,0.0,149
150,1696243358921,-0.76464844,0.10449219,0.26953125,20.6875,-42.28125,3.5,-97.0625,30.5,-78.5,150
151,1696243358961,-0.9550781,-0.029296875,0.24316406,-0.0625,-23.1875,7.34375,0.0,0.0,0.0,151
152,1696243359001,-0.8046875,-0.009765625,0.2548828,27.96875,-50.34375,0.75,0.0,0.0,0.0,152
153,1696243359041,-0.8144531,-0.08300781,0.15820312,32.65625,-27.125,15.03125,0.0,0.0,0.0,153
154,1696243359081,-1.5693359,0.009765625,0.31347656,-4.21875,-7.96875,-7.96875,0.0,0.0,0.0,154
155,1696243359121,-1.5234375,0.064453125,0.52441406,29.0625,-36.71875,-57.09375,0.0,0.0,0.0,155
156,1696243359161,-1.3310547,0.31347656,0.6591797,40.09375,-76.625,-40.875,0.0,0.0,0.0,156
157,1696243359201,-1.0214844,0.18554688,0.453125,22.71875,-56.375,-18.90625,0.0,0.0,0.0,157
158,1696243359241,-0.9355469,0.028320312,0.2705078,73.375,-60.28125,-7.71875,0.0,0.0,0.0,158
159,1696243359281,-0.88964844,0.12792969,0.33203125,48.53125,-53.03125,-3.9375,0.0,0.0,0.0,159
160,1696243359321,-0.8154297,0.15332031,0.4169922,68.84375,-51.0625,6.84375,0.0,0.0,0.0,160
161,1696243359361,-0.7011719,0.12695312,0.36523438,47.375,-30.375,9.90625,0.0,0.0,0.0,161
162,1696243359401,-0.8251953,0.203125,0.41601562,35.40625,-15.40625,12.59375,-94.0625,27.9375,-66.5,162
163,1696243359441,-0.8105469,0.12695312,0.46191406,28.5,-7.78125,5.5,0.0,0.0,0.0,163
164,1696243359481,-0.7080078,0.12207031,0.5175781,2.375,8.6875,4.46875,0.0,0.0,0.0,164
165,1696243359521,-0.796875,0.16503906,0.4658203,-3.125,18.46875,0.625,0.0,0.0,0.0,165
166,1696243359561,-0.7949219,0.10644531,0.4501953,-1.34375,33.71875,-8.65625,0.0,0.0,0.0,166
167,1696243359601,-0.76171875,0.19042969,0.42089844,-22.15625,45.5625,-11.28125,0.0,0.0,0.0,167
168,1696243359641,-0.7705078,0.111328125,0.47851562,-38.5,62.21875,-1.0625,0.0,0.0,0.0,168
169,1696243359681,-0.85058594,0.041992188,0.4189453,-41.5625,76.625,6.5625,0.0,0.0,0.0,169
170,1696243359721,-0.8466797,0.09082031,0.2919922,-39.375,80.78125,2.9375,0.0,0.0,0.0,170
171,1696243359761,-1.0019531,0.020507812,0.36132812,-35.71875,78.625,8.5,0.0,0.0,0.0,171
172,1696243359801,-0.9667969,0.03125,0.2861328,-46.75,62.875,-10.40625,0.0,0.0,0.0,172
173,1696243359841,-0.9511719,0.049804688,0.3701172,11.84375,30.34375,-10.65625,0.0,0.0,0.0,173
174,1696243359881,-0.89453125,0.060546875,0.29492188,23.375,6.4375,-10.78125,0.0,0.0,0.0,174
175,1696243359921,-0.7890625,0.06933594,0.1953125,38.5625,1.96875,-9.125,-97.5,25.6875,-77.625,175
176,1696243359961,-0.7392578,0.009765625,0.14355469,21.1875,11.4375,-9.6875,0.0,0.0,0.0,176
177,1696243360001,-0.76660156,0.12207031,0.06542969,21.90625,31.5,-3.53125,0.0,0.0,0.0,177
178,1696243360041,-0.8466797,0.23632812,0.25390625,55.96875,39.6875,7.03125,0.0,0.0,0.0,178
179,1696243360081,-1.0507812,0.27539062,0.37890625,33.03125,34.125,11.0625,0.0,0.0,0.0,179
180,1696243360121,-1.2646484,0.3828125,0.19238281,7.3125,33.09375,11.6875,0.0,0.0,0.0,180
181,1696243360161,-1.2773438,0.296875,-0.17773438,-5.5,76.9375,9.59375,0.0,0.0,0.0,181
182,1696243360201,-1.3300781,-0.25585938,0.017578125,-60.5625,36.9375,-10.28125,0.0,0.0,0.0,182
183,1696243360241,-1.3583984,0.0703125,-0.083984375,-10.9375,20.65625,-14.625,0.0,0.0,0.0,183
184,1696243360281,-1.2207031,0.08496094,0.091796875,2.1875,-9.1875,-9.1875,0.0,0.0,0.0,184
185,1696243360321,-0.8652344,0.0078125,-0.103515625,-14.21875,10.40625,-3.15625,0.0,0.0,0.0,185
186,1696243360361,-1.0732422,0.009765625,-0.20898438,-31.625,21.1875,-7.65625,0.0,0.0,0.0,186
187,1696243360401,-1.0068359,0.053710938,0.038085938,-7.15625,3.8125,-1.875,-94.5,22.0625,-88.6875,187
188,1696243360441,-1.0253906,-0.01953125,-0.09863281,-18.5,13.15625,-0.84375,0.0,0.0,0.0,188
189,1696243360481,-1.0019531,0.020507812,-0.064453125,5.0625,12.84375,4.15625,0.0,0.0,0.0,189
190,1696243360521,-1.0136719,0.12402344,-0.041992188,-7.15625,5.09375,6.3125,0.0,0.0,0.0,190
191,1696243360561,-0.99316406,-0.009765625,0.001953125,-1.59375,-2.0625,11.5625,0.0,0.0,0.0,191
192,1696243360601,-1.0175781,-0.10546875,-0.07324219,5.96875,-10.59375,8.03125,0.0,0.0,0.0,192
193,1696243360641,-1.0009766,0.015625,-0.0029296875,22.34375,-6.9375,6.625,0.0,0.0,0.0,193
194,1696243360681,-1.0175781,-0.0126953125,-0.045898438,22.09375,-4.5625,7.03125,0.0,0.0,0.0,194
195,1696243360721,-1.3427734,0.4033203,0.2109375,60.65625,7.03125,3.125,0.0,0.0,0.0,231
196,1696243360761,-0.7470703,0.028320312,-0.049804688,38.4375,1.71875,-2.25,0.0,0.0,0.0,232
197,1696243360801,-0.8925781,-0.24023438,-0.24804688,-17.6875,56.0625,-1.75,0.0,0.0,0.0,233
198,1696243360841,-1.1259766,-0.16113281,-0.0078125,48.875,25.78125,-21.15625,0.0,0.0,0.0,234
199,1696243360881,-0.98339844,0.17480469,0.20019531,68.59375,16.0,-25.1875,0.0,0.0,0.0,235
200,1696243360921,-1.0341797,0.123046875,0.20703125,44.25,7.34375,-12.25,0.0,0.0,0.0,236
201,1696243360961,-0.99316406,0.041015625,0.0234375,8.96875,7.59375,-6.15625,-91.625,21.9375,-56.1875,237
202,1696243361001,-1.0029297,0.049804688,-0.030273438,35.46875,17.21875,-7.65625,0.0,0.0,0.0,238
203,1696243361041,-0.9404297,0.12207031,0.036132812,39.6875,19.25,-15.84375,0.0,0.0,0.0,239
204,1696243361081,-0.99316406,0.20117188,0.13183594,15.8125,12.59375,-13.53125,0.0,0.0,0.0,240
205,1696243361121,-1.0439453,0.10449219,0.19726562,18.5625,0.25,0.8125,0.0,0.0,0.0,241
206,1696243361161,-0.99316406,-0.049804688,0.049804688,12.09375,4.90625,1.125,0.0,0.0,0.0,242
207,1696243361201,-1.0351562,-0.078125,0.08691406,19.84375,4.28125,-10.46875,0.0,0.0,0.0,243
208,1696243361241,-0.9892578,0.038085938,0.18164062,27.21875,2.34375,-16.6875,0.0,0.0,0.0,244
209,1696243361281,-0.94921875,0.041015625,0.23144531,13.96875,-3.03125,-7.78125,0.0,0.0,0.0,245
210,1696243361321,-0.97558594,0.0078125,0.24902344,7.875,-17.75,-3.65625,0.0,0.0,0.0,246
211,1696243361361,-0.75390625,-0.043945312,0.17871094,1.53125,-38.8125,-2.0,0.0,0.0,0.0,247
212,1696243361401,-0.82421875,-0.10253906,0.19726562,-6.03125,-59.65625,-6.09375,0.0,0.0,0.0,248
213,1696243361441,-0.9716797,0.013671875,0.19921875,-0.71875,-51.625,-13.03125,0.0,0.0,0.0,249
214,1696243361481,-0.90234375,0.04296875,0.14550781,28.5,-33.5,-2.1875,-89.875,22.375,-52.5625,250
215,1696243361521,-0.8330078,0.051757812,0.17871094,21.71875,-39.28125,4.40625,0.0,0.0,0.0,251
216,1696243361561,-0.8828125,0.05078125,0.25976562,20.09375,-33.375,4.125,0.0,0.0,0.0,252
217,1696243361601,-0.9580078,0.061523438,0.29101562,1.9375,-36.1875,4.78125,0.0,0.0,0.0,253
218,1696243361641,-0.8457031,0.0234375,0.29589844,-5.25,-33.375,11.625,0.0,0.0,0.0,254
219,1696243361681,-0.83203125,-0.021484375,0.3388672,9.34375,-38.6875,17.34375,0.0,0.0,0.0,255
220,1696243361721,-1.2480469,0.049804688,0.32128906,17.34375,-40.1875,26.5,0.0,0.0,0.0,256
221,1696243361761,-1.5791016,0.20800781,0.5214844,-4.09375,-46.125,-8.71875,0.0,0.0,0.0,257
222,1696243361801,-1.0576172,0.2841797,0.4609375,19.84375,-64.4375,-9.0,0.0,0.0,0.0,258
223,1696243361841,-1.09375,0.13183594,0.4921875,4.09375,-53.375,20.71875,0.0,0.0,0.0,259
224,1696243361881,-0.99121094,0.16992188,0.3857422,2.0625,-8.28125,-13.84375,0.0,0.0,0.0,260
225,1696243361921,-0.8486328,0.07324219,0.51953125,38.6875,2.78125,-22.75,0.0,0.0,0.0,261
226,1696243361961,-0.85058594,0.08496094,0.43847656,41.5,-5.84375,-25.625,-80.5625,23.5625,-45.375,262
227,1696243362001,-0.99316406,0.038085938,0.4404297,62.125,-29.9375,-27.1875,0.0,0.0,0.0,263
228,1696243362041,-0.8720703,0.34375,0.48632812,44.25,-39.78125,-24.625,0.0,0.0,0.0,264
229,1696243362081,-0.7265625,0.24511719,0.49121094,25.875,-30.625,-6.5625,0.0,0.0,0.0,265
230,1696243362121,-0.87890625,0.12011719,0.4638672,7.9375,-13.84375,-4.625,0.0,0.0,0.0,266
231,1696243362161,-0.8144531,0.12597656,0.48242188,21.53125,-7.71875,-6.4375,0.0,0.0,0.0,267
232,1696243362201,-0.7441406,0.21582031,0.453125,15.5,7.09375,1.78125,0.0,0.0,0.0,268
233,1696243362241,-0.72265625,0.18847656,0.43847656,0.5,25.96875,3.5625,0.0,0.0,0.0,269
234,1696243362281,-0.8066406,0.15136719,0.41210938,-23.5625,44.9375,3.8125,0.0,0.0,0.0,270
235,1696243362321,-0.78222656,0.12792969,0.37304688,-31.875,50.0625,3.625,0.0,0.0,0.0,271
236,1696243362361,-0.7451172,0.12207031,0.33691406,-52.5,80.03125,-0.09375,0.0,0.0,0.0,272
237,1696243362401,-0.7597656,0.08300781,0.24609375,-55.46875,97.625,16.0625,0.0,0.0,0.0,273
238,1696243362441,-1.0107422,0.06347656,0.26757812,-56.59375,110.5,22.125,0.0,0.0,0.0,274
239,1696243362481,-1.1679688,0.095703125,0.32421875,-44.3125,85.28125,12.46875,-85.625,24.3125,-52.4375,275
240,1696243362521,-1.1132812,0.09472656,0.5546875,-14.03125,60.3125,-7.4375,0.0,0.0,0.0,276
241,1696243362561,-0.9902344,0.08984375,0.28710938,-14.09375,14.375,-5.84375,0.0,0.0,0.0,277
242,1696243362601,-0.8417969,0.15429688,0.18554688,-0.25,-10.28125,-4.75,0.0,0.0,0.0,278
243,1696243362641,-0.7089844,0.029296875,0.13183594,-17.15625,9.46875,-7.25,0.0,0.0,0.0,279
244,1696243362681,-0.7919922,-0.052734375,0.0078125,-8.84375,18.5625,-2.40625,0.0,0.0,0.0,280
245,1696243362721,-0.8564453,0.107421875,0.10839844,25.09375,34.03125,-10.0,0.0,0.0,0.0,281
246,1696243362761,-0.88964844,0.15625,0.07910156,15.5625,33.15625,-3.75,0.0,0.0,0.0,282
247,1696243362801,-0.86816406,0.15917969,0.23339844,0.625,28.46875,2.84375,0.0,0.0,0.0,283
248,1696243362841,-0.8457031,0.21582031,0.24511719,-22.34375,13.625,16.25,0.0,0.0,0.0,284
249,1696243362881,-1.2294922,0.04296875,0.36621094,-30.28125,24.75,19.0,0.0,0.0,0.0,285
250,1696243362921,-1.6308594,0.055664062,-0.09472656,-25.03125,12.40625,-2.1875,0.0,0.0,0.0,286
251,1696243362961,-1.3691406,0.06542969,0.53125,15.875,-27.8125,-9.5,-90.625,20.4375,-60.0625,287
252,1696243363001,-1.4404297,0.087890625,0.12792969,-52.75,-37.625,-3.8125,0.0,0.0,0.0,288
253,1696243363041,-0.94140625,-0.20019531,-0.14648438,6.46875,-19.28125,-1.125,0.0,0.0,0.0,289
254,1696243363081,-1.0263672,-0.103515625,-0.19921875,-14.90625,22.125,-34.78125,0.0,0.0,0.0,290
255,1696243363121,-0.94433594,0.2626953,-0.00390625,22.28125,29.375,-20.90625,0.0,0.0,0.0,291
256,1696243363161,-0.89160156,0.18164062,0.04296875,-10.1875,19.3125,-1.5625,0.0,0.0,0.0,292
257,1696243363201,-1.0449219,-0.107421875,0.0625,-2.5,7.46875,1.96875,0.0,0.0,0.0,293
258,1696243363241,-1.0654297,-0.099609375,0.12988281,-0.90625,10.53125,-7.0,0.0,0.0,0.0,294
259,1696243363281,-0.9892578,-0.00390625,0.13769531,4.03125,10.65625,-3.53125,0.0,0.0,0.0,295
260,1696243363321,-0.96875,0.025390625,0.044921875,18.8125,5.875,1.1875,0.0,0.0,0.0,296
261,1696243363361,-1.0136719,-0.0078125,0.1015625,25.9375,8.1875,1.0,0.0,0.0,0.0,297
262,1696243363401,-1.0107422,0.0546875,0.16894531,22.875,12.84375,0.875,0.0,0.0,0.0,298
263,1696243363441,-0.9873047,0.0068359375,0.12109375,11.65625,8.4375,4.59375,0.0,0.0,0.0,299
264,1696243363481,-1.0009766,0.0078125,0.12109375,19.65625,5.9375,7.53125,-92.875,19.8125,-60.625,300
265,1696243363521,-0.9716797,-0.00390625,0.11230469,0.375,-9.625,2.34375,0.0,0.0,0.0,301
266,1696243363561,-0.8535156,0.087890625,0.03125,15.3125,-30.25,7.59375,0.0,0.0,0.0,302
267,1696243363601,-0.92089844,-0.03515625,-0.02734375,8.125,-48.125,9.53125,0.0,0.0,0.0,303
268,1696243363641,-0.9189453,0.20019531,0.13183594,13.84375,-58.03125,6.90625,0.0,0.0,0.0,304
269,1696243363681,-0.8886719,-0.0009765625,0.037109375,-9.875,-46.5,6.75,0.0,0.0,0.0,305
270,1696243363721,-0.9921875,-0.033203125,0.15820312,-13.375,-36.34375,-1.6875,0.0,0.0,0.0,306
271,1696243363761,-0.8779297,-0.05859375,0.09277344,31.875,-41.78125,-4.4375,0.0,0.0,0.0,307
272,1696243363801,-0.734375,0.08496094,0.16210938,21.375,-26.03125,-6.375,0.0,0.0,0.0,308
273,1696243363841,-1.0576172,-0.021484375,0.27734375,14.34375,-20.71875,-0.96875,0.0,0.0,0.0,309
274,1696243363881,-1.0175781,-0.052734375,0.34179688,34.375,-42.28125,-14.1875,0.0,0.0,0.0,310
275,1696243363921,-0.63671875,0.07714844,0.328125,22.65625,-40.625,-2.3125,0.0,0.0,0.0,311
276,1696243363961,-1.1328125,-0.064453125,0.3173828,11.71875,-59.0,35.3125,-87.4375,21.5,-52.125,312
277,1696243364001,-1.3095703,0.21386719,0.34375,-3.90625,-58.34375,-0.59375,0.0,0.0,0.0,313
278,1696243364041,-1.2373047,0.13574219,0.4921875,23.75,-63.75,-2.0625,0.0,0.0,0.0,314
279,1696243364081,-1.4990234,0.12402344,0.6015625,-3.96875,-59.625,5.9375,0.0,0.0,0.0,315
280,1696243364121,-0.9277344,0.18164062,0.5214844,24.53125,-31.90625,-4.1875,0.0,0.0,0.0,316
281,1696243364161,-0.7548828,0.111328125,0.41015625,32.53125,-22.125,-10.46875,0.0,0.0,0.0,317
282,1696243364201,-0.7089844,0.10644531,0.40625,15.6875,-17.0,-12.375,0.0,0.0,0.0,318
283,1696243364241,-0.8857422,-0.057617188,0.3671875,79.90625,-38.96875,-8.84375,0.0,0.0,0.0,319
284,1696243364281,-0.8339844,0.31445312,0.48242188,32.46875,-29.46875,-12.1875,0.0,0.0,0.0,320
285,1696243364321,-0.89746094,0.22265625,0.50097656,1.90625,-13.40625,-8.84375,0.0,0.0,0.0,321
286,1696243364361,-0.9355469,0.05078125,0.45410156,5.5625,-13.65625,-18.21875,0.0,0.0,0.0,322
287,1696243364401,-0.8261719,0.103515625,0.49414062,8.59375,-11.625,-17.375,0.0,0.0,0.0,323
288,1696243364441,-0.7792969,0.20507812,0.50683594,1.53125,-4.625,-6.9375,0.0,0.0,0.0,324
289,1696243364481,-0.7470703,0.15234375,0.50097656,5.96875,7.96875,-1.03125,-80.25,26.875,-45.0625,325
290,1696243364521,-0.7548828,0.15039062,0.4609375,-3.96875,21.875,3.125,0.0,0.0,0.0,326
291,1696243364561,-0.8066406,0.13964844,0.46484375,-13.25,32.6875,3.0625,0.0,0.0,0.0,327
292,1696243364601,-0.8076172,0.10449219,0.49902344,-14.53125,40.96875,1.125,0.0,0.0,0.0,328
293,1696243364641,-0.8496094,0.0234375,0.4716797,-24.46875,53.84375,1.53125,0.0,0.0,0.0,329
294,1696243364681,-0.82421875,0.07128906,0.40820312,-36.9375,64.15625,-4.5625,0.0,0.0,0.0,330
295,1696243364721,-0.78808594,0.15722656,0.39453125,-53.40625,84.625,7.96875,0.0,0.0,0.0,331
296,1696243364761,-0.9824219,0.09863281,0.4501953,-51.5,96.40625,25.03125,0.0,0.0,0.0,332
297,1696243364801,-0.9814453,0.049804688,0.37695312,-42.0625,79.375,22.46875,0.0,0.0,0.0,333
298,1696243364841,-0.94628906,0.03125,0.31054688,-30.34375,59.71875,19.1875,0.0,0.0,0.0,334
299,1696243364881,-1.1044922,-0.040039062,0.4736328,-10.875,35.125,-0.90625,0.0,0.0,0.0,335
300,1696243364921,-0.7685547,-0.061523438,0.057617188,-18.5625,-4.3125,-29.28125,0.0,0.0,0.0,336
301,1696243364961,-0.59472656,0.10449219,0.06640625,16.34375,9.1875,-16.65625,-93.0,22.8125,-54.8125,337
302,1696243365001,-0.77734375,0.06640625,0.20117188,48.28125,11.9375,2.34375,0.0,0.0,0.0,338
303,1696243365041,-0.71875,0.13476562,0.09277344,5.4375,19.375,-6.09375,0.0,0.0,0.0,339
304,1696243365081,-0.6855469,0.18066406,0.1875,5.25,20.78125,5.4375,0.0,0.0,0.0,340
305,1696243365121,-0.7607422,0.23144531,0.20410156,-19.96875,12.84375,22.125,0.0,0.0,0.0,341
306,1696243365161,-0.8027344,0.29589844,0.26367188,-16.25,11.9375,38.15625,0.0,0.0,0.0,342
307,1696243365201,-1.5361328,-0.07324219,0.19238281,87.71875,34.4375,21.0625,0.0,0.0,0.0,343
308,1696243365241,-2.0,0.27734375,0.0087890625,-90.34375,52.9375,-42.65625,0.0,0.0,0.0,344
309,1696243365281,-0.28808594,0.2919922,0.04296875,3.78125,-124.90625,-43.6875,0.0,0.0,0.0,345
310,1696243365321,-0.07519531,-0.3984375,-0.3125,24.46875,-8.03125,45.0,0.0,0.0,0.0,346
311,1696243365361,-2.0,-0.5126953,0.12109375,-148.1875,23.15625,-43.875,0.0,0.0,0.0,347
312,1696243365401,-0.71484375,0.51171875,0.24316406,28.875,31.40625,-31.84375,0.0,0.0,0.0,348
313,1696243365441,-0.6640625,0.4091797,-0.021484375,-18.25,30.71875,14.96875,0.0,0.0,0.0,349
314,1696243365481,-1.1396484,-0.34570312,0.043945312,28.8125,20.90625,6.125,-94.375,23.75,-59.625,350
315,1696243365521,-0.9785156,0.05078125,0.18359375,-42.0,12.65625,-13.28125,0.0,0.0,0.0,351
316,1696243365561,-1.0625,-0.083984375,0.109375,-23.875,9.71875,6.5,0.0,0.0,0.0,352
317,1696243365601,-1.0009766,-0.14941406,-0.15820312,26.0,8.4375,0.4375,0.0,0.0,0.0,353
318,1696243365641,-1.0283203,0.13183594,0.14550781,34.90625,11.5625,-8.34375,0.0,0.0,0.0,354
319,1696243365681,-1.0195312,0.111328125,0.09375,13.1875,9.0625,2.875,0.0,0.0,0.0,355
320,1696243365721,-0.9326172,-0.0546875,0.0546875,2.125,-1.625,2.28125,0.0,0.0,0.0,356
321,1696243365761,-0.8808594,-0.037109375,0.14257812,7.15625,-6.625,-0.03125,0.0,0.0,0.0,357
322,1696243365801,-0.9794922,0.04296875,0.2109375,4.75,-13.09375,-0.78125,0.0,0.0,0.0,358
323,1696243365841,-1.0048828,0.005859375,0.24414062,6.34375,-21.28125,0.875,0.0,0.0,0.0,359
324,1696243365881,-0.84765625,0.024414062,0.19238281,6.28125,-25.8125,5.40625,0.0,0.0,0.0,360
325,1696243365921,-0.78808594,0.07714844,0.16699219,-8.59375,-39.15625,9.65625,0.0,0.0,0.0,361
326,1696243365961,-0.72753906,0.049804688,0.103515625,-6.71875,-48.0625,14.65625,-93.625,26.0,-57.5,362
327,1696243366001,-0.6533203,0.11328125,0.17285156,-1.53125,-48.0,25.03125,0.0,0.0,0.0,363
328,1696243366041,-0.94433594,-0.15527344,0.12207031,-22.59375,-48.5,27.59375,0.0,0.0,0.0,364
329,1696243366081,-0.76464844,-0.030273438,0.3173828,25.875,-67.90625,19.5,0.0,0.0,0.0,365
330,1696243366121,-0.8027344,-0.24121094,0.2705078,12.28125,-79.75,20.65625,0.0,0.0,0.0,366
331,1696243366161,-1.7919922,-0.005859375,0.36914062,57.375,-98.3125,10.46875,0.0,0.0,0.0,367
332,1696243366201,-1.7480469,0.3642578,0.7763672,39.0,-96.96875,-51.6875,0.0,0.0,0.0,368
333,1696243366241,-1.3330078,0.41796875,0.7558594,10.75,-71.875,-33.65625,0.0,0.0,0.0,369
334,1696243366281,-1.0009766,0.11035156,0.47460938,-11.28125,-8.03125,-29.46875,0.0,0.0,0.0,370
335,1696243366321,-0.9658203,0.119140625,0.20214844,55.0,-13.53125,-34.65625,0.0,0.0,0.0,371
336,1696243366361,-0.67285156,0.43164062,0.36523438,15.0625,-17.3125,-24.875,0.0,0.0,0.0,372
337,1696243366401,-0.6376953,-0.08496094,0.38671875,86.1875,-28.25,-2.78125,0.0,0.0,0.0,373
338,1696243366441,-0.80078125,0.125,0.4248047,74.21875,-31.78125,3.5,0.0,0.0,0.0,374
339,1696243366481,-0.8457031,0.54296875,0.44921875,18.1875,-13.78125,-0.53125,-82.1875,35.4375,-46.5625,375
340,1696243366521,-0.8964844,0.26660156,0.5253906,0.1875,-13.65625,12.84375,0.0,0.0,0.0,376
341,1696243366561,-0.87402344,0.08886719,0.61621094,-7.375,-1.1875,13.375,0.0,0.0,0.0,377
342,1696243366601,-0.7714844,0.16308594,0.49902344,-15.0,3.9375,10.875,0.0,0.0,0.0,378
343,1696243366641,-0.6904297,0.16503906,0.49316406,0.5625,15.46875,10.03125,0.0,0.0,0.0,379
344,1696243366681,-0.71484375,0.21289062,0.44921875,-6.96875,24.1875,11.75,0.0,0.0,0.0,380
345,1696243366721,-0.7832031,0.15722656,0.47070312,-10.5625,35.40625,1.375,0.0,0.0,0.0,381
346,1696243366761,-0.77734375,0.14550781,0.43945312,-24.34375,51.03125,-1.9375,0.0,0.0,0.0,382
347,1696243366801,-0.828125,0.171875,0.45507812,-44.875,67.15625,-2.0,0.0,0.0,0.0,383
348,1696243366841,-0.90625,0.11816406,0.44140625,-43.09375,70.75,-0.65625,0.0,0.0,0.0,384
349,1696243366881,-0.89453125,0.12207031,0.37109375,-37.59375,68.3125,3.0625,0.0,0.0,0.0,385
350,1696243366921,-0.921875,0.13964844,0.36132812,-43.59375,79.0625,18.875,0.0,0.0,0.0,386
351,1696243366961,-1.1074219,0.13574219,0.4501953,-47.71875,82.46875,18.6875,-89.6875,34.5625,-52.125,387
352,1696243367001,-0.9736328,0.123046875,0.31933594,-35.28125,55.0,-5.59375,0.0,0.0,0.0,388
353,1696243367041,-0.95703125,0.1015625,0.33789062,-30.625,38.65625,-10.53125,0.0,0.0,0.0,389
354,1696243367081,-0.8222656,-0.02734375,0.17285156,-1.90625,28.59375,-16.65625,0.0,0.0,0.0,390
355,1696243367121,-0.6464844,0.12109375,0.12402344,14.59375,17.53125,-11.03125,0.0,0.0,0.0,391
356,1696243367161,-0.5605469,0.0859375,0.12402344,21.0,28.78125,0.25,0.0,0.0,0.0,392
357,1696243367201,-0.67578125,0.09765625,0.18261719,0.25,29.625,3.9375,0.0,0.0,0.0,393
358,1696243367241,-0.6748047,0.26464844,0.15332031,-6.28125,7.84375,3.9375,0.0,0.0,0.0,394
359,1696243367281,-0.57128906,0.19824219,0.14550781,-51.09375,11.96875,18.5,0.0,0.0,0.0,395
360,1696243367321,-1.4609375,0.4013672,0.21875,-61.03125,17.84375,24.6875,0.0,0.0,0.0,396
361,1696243367361,-1.6103516,-0.80371094,-0.06640625,107.90625,28.65625,-16.59375,0.0,0.0,0.0,397
362,1696243367401,-2.0,0.56640625,1.9873047,-152.03125,-90.875,-9.3125,0.0,0.0,0.0,398
363,1696243367441,0.10253906,0.47070312,-0.4326172,73.3125,-88.125,6.3125,0.0,0.0,0.0,399
364,1696243367481,-1.2050781,-1.0058594,-0.5205078,-135.375,69.65625,52.21875,-89.6875,27.9375,-54.8125,400
365,1696243367521,-1.3828125,0.34472656,-0.17871094,-37.71875,109.6875,-60.21875,0.0,0.0,0.0,401
366,1696243367561,-0.6347656,0.5966797,0.46777344,-2.75,23.03125,-4.5,0.0,0.0,0.0,402
367,1696243367601,-0.9169922,0.07128906,0.038085938,-39.375,26.6875,25.65625,0.0,0.0,0.0,403
368,1696243367641,-1.1542969,-0.41992188,0.0703125,6.90625,22.1875,-9.5,0.0,0.0,0.0,404
369,1696243367681,-0.9765625,0.032226562,0.234375,-30.6875,7.28125,-17.3125,0.0,0.0,0.0,405
370,1696243367721,-1.0664062,0.13574219,0.171875,-1.84375,-7.90625,3.125,0.0,0.0,0.0,406
371,1696243367761,-0.95214844,-0.12792969,-0.21582031,26.1875,3.3125,-3.21875,0.0,0.0,0.0,407
372,1696243367801,-1.078125,0.14453125,0.16601562,20.25,18.875,-6.9375,0.0,0.0,0.0,408
373,1696243367841,-0.99902344,0.072265625,0.0703125,7.6875,18.6875,4.28125,0.0,0.0,0.0,409
374,1696243367881,-0.95214844,-0.047851562,0.06738281,17.15625,6.0,2.28125,0.0,0.0,0.0,410
375,1696243367921,-0.9980469,0.020507812,0.12109375,10.5625,8.8125,-0.90625,0.0,0.0,0.0,411
376,1696243367961,-0.95996094,-0.020507812,0.09277344,12.21875,11.25,-0.15625,-95.5625,25.8125,-59.75,412
377,1696243368001,-1.0078125,0.0029296875,0.1484375,18.0,6.90625,6.125,0.0,0.0,0.0,413
378,1696243368041,-0.99609375,0.005859375,0.09277344,18.8125,7.71875,7.53125,0.0,0.0,0.0,414
379,1696243368081,-1.0039062,0.0087890625,0.14746094,21.65625,8.125,4.78125,0.0,0.0,0.0,415
380,1696243368121,-0.96484375,0.032226562,0.12109375,13.4375,4.15625,3.9375,0.0,0.0,0.0,416
381,1696243368161,-0.9375,0.038085938,0.16699219,-6.71875,-12.125,3.625,0.0,0.0,0.0,417
382,1696243368201,-0.8251953,0.0126953125,0.10644531,-6.15625,-39.46875,6.1875,0.0,0.0,0.0,418
383,1696243368241,-0.8564453,-0.06640625,0.04296875,1.78125,-58.5,3.4375,0.0,0.0,0.0,419
384,1696243368281,-0.7558594,0.11621094,-0.09863281,-10.25,-81.78125,3.75,0.0,0.0,0.0,420
385,1696243368321,-0.47753906,0.15039062,0.0146484375,23.0,-59.4375,14.3125,0.0,0.0,0.0,421
386,1696243368361,-0.8330078,-0.11035156,0.2265625,-17.28125,-20.90625,35.25,0.0,0.0,0.0,422
387,1696243368401,-0.9736328,0.038085938,0.4013672,30.28125,-48.0625,9.90625,0.0,0.0,0.0,423
388,1696243368441,-0.54589844,0.00390625,0.23242188,14.21875,-51.6875,13.75,0.0,0.0,0.0,424
389,1696243368481,-1.0888672,-0.17382812,0.19921875,26.1875,-89.09375,49.9375,-86.875,31.25,-51.375,425
390,1696243368521,-2.0,-0.034179688,0.52734375,73.0625,-98.25,-25.96875,0.0,0.0,0.0,426
391,1696243368561,-1.1669922,0.5527344,0.73535156,-74.9375,-38.84375,-117.65625,0.0,0.0,0.0,427
392,1696243368601,-0.91503906,-0.04296875,0.27929688,-24.34375,7.96875,-46.625,0.0,0.0,0.0,428
393,1696243368641,-0.81640625,0.13476562,0.20898438,17.03125,-10.46875,-40.625,0.0,0.0,0.0,429
394,1696243368681,-0.71972656,0.32910156,0.2939453,66.71875,-18.90625,-19.15625,0.0,0.0,0.0,430
395,1696243368721,-0.5986328,0.07519531,0.30664062,87.21875,-23.96875,9.90625,0.0,0.0,0.0,431
396,1696243368761,-0.8300781,0.171875,0.39160156,41.75,-20.0,33.90625,0.0,0.0,0.0,432
397,1696243368801,-1.1679688,0.27246094,0.28222656,-3.78125,-18.28125,9.3125,0.0,0.0,0.0,433
398,1696243368841,-1.0009766,-0.021484375,0.47460938,23.3125,-19.75,-15.71875,0.0,0.0,0.0,434
399,1696243368881,-0.85253906,0.07519531,0.51953125,-0.4375,-12.90625,-4.625,0.0,0.0,0.0,435
400,1696243368921,-0.79296875,0.18945312,0.43359375,-12.4375,-7.59375,1.375,0.0,0.0,0.0,436
401,1696243368961,-0.8066406,0.091796875,0.46679688,8.84375,-4.25,9.34375,-82.1875,34.375,-42.6875,437
402,1696243369001,-0.7441406,0.1328125,0.4033203,2.0,4.78125,11.8125,0.0,0.0,0.0,438
403,1696243369041,-0.77734375,0.17285156,0.4404297,-13.375,23.46875,13.3125,0.0,0.0,0.0,439
404,1696243369081,-0.78808594,0.12109375,0.45410156,-28.625,39.5625,11.125,0.0,0.0,0.0,440
405,1696243369121,-0.76171875,0.0859375,0.38476562,-49.0625,61.4375,16.75,0.0,0.0,0.0,441
406,1696243369161,-0.7841797,0.038085938,0.3642578,-54.75,88.21875,22.59375,0.0,0.0,0.0,442
407,1696243369201,-0.81152344,0.005859375,0.24804688,-51.5625,106.84375,21.1875,0.0,0.0,0.0,443
408,1696243369241,-1.0019531,0.072265625,0.19140625,-64.9375,130.09375,12.53125,0.0,0.0,0.0,444
409,1696243369281,-1.0566406,0.055664062,0.28222656,-17.9375,106.53125,-13.34375,0.0,0.0,0.0,445
410,1696243369321,-0.8486328,0.18261719,0.33984375,-12.6875,51.03125,-18.34375,0.0,0.0,0.0,446
411,1696243369361,-0.72558594,0.072265625,0.3486328,-8.46875,-15.90625,-13.28125,0.0,0.0,0.0,447
412,1696243369401,-0.48046875,-0.005859375,0.23339844,19.65625,-33.84375,-9.5625,0.0,0.0,0.0,448
413,1696243369441,-0.46484375,-0.1171875,0.26660156,4.28125,-32.09375,16.5625,0.0,0.0,0.0,449
414,1696243369481,-0.7236328,0.017578125,-0.0107421875,-52.0,-5.59375,3.125,-89.875,27.5,-51.1875,450
415,1696243369521,-1.2265625,0.16894531,0.12207031,14.34375,38.40625,-0.09375,0.0,0.0,0.0,451
416,1696243369561,-2.0,0.16796875,0.10449219,71.71875,54.46875,-26.46875,0.0,0.0,0.0,452
417,1696243369601,-1.7001953,0.38183594,-0.37695312,-105.53125,-171.4375,-11.75,0.0,0.0,0.0,453
418,1696243369641,-0.22851562,-0.16699219,-0.3154297,21.96875,-63.40625,76.4375,0.0,0.0,0.0,454
419,1696243369681,-2.0,-0.64941406,0.25195312,-152.28125,72.90625,-35.5,0.0,0.0,0.0,455
420,1696243369721,-0.95410156,0.3720703,0.14550781,-0.5,61.78125,-47.78125,0.0,0.0,0.0,456
421,1696243369761,-0.5576172,0.29882812,0.15917969,-6.21875,44.5625,4.90625,0.0,0.0,0.0,457
422,1696243369801,-0.8701172,-0.09472656,-0.087890625,7.8125,45.90625,23.8125,0.0,0.0,0.0,458
423,1696243369841,-1.0673828,-0.115234375,0.16699219,-5.3125,36.65625,-4.5,0.0,0.0,0.0,459
424,1696243369881,-0.98828125,0.033203125,0.27441406,-14.21875,8.1875,-1.5,0.0,0.0,0.0,460
425,1696243369921,-1.0039062,0.01953125,-0.03515625,12.9375,-5.28125,12.03125,0.0,0.0,0.0,461
426,1696243369961,-1.0615234,-0.13867188,-0.060546875,11.40625,2.46875,-1.625,-92.25,24.625,-53.75,462
427,1696243370001,-1.046875,0.10839844,0.0107421875,19.21875,12.28125,-3.21875,0.0,0.0,0.0,463
428,1696243370041,-1.0302734,-0.0009765625,0.041015625,19.21875,14.125,2.03125,0.0,0.0,0.0,464
429,1696243370081,-0.9785156,0.0078125,0.059570312,11.0625,15.09375,2.15625,0.0,0.0,0.0,465
430,1696243370121,-0.9785156,-0.03515625,0.09277344,16.78125,17.59375,5.03125,0.0,0.0,0.0,466
431,1696243370161,-0.97265625,-0.0107421875,0.06542969,14.46875,14.5,2.53125,0.0,0.0,0.0,467
432,1696243370201,-0.98535156,0.0,0.12402344,27.40625,14.25,7.96875,0.0,0.0,0.0,468
433,1696243370241,-1.0,-0.021484375,0.05078125,18.375,16.125,8.1875,0.0,0.0,0.0,469
434,1696243370281,-0.95996094,0.046875,0.21386719,16.59375,0.875,5.5625,0.0,0.0,0.0,470
435,1696243370321,-0.80078125,-0.037109375,0.11035156,-17.03125,-37.9375,0.625,0.0,0.0,0.0,471
436,1696243370361,-0.66015625,0.10058594,0.24511719,29.28125,-95.5625,12.34375,0.0,0.0,0.0,472
437,1696243370401,-0.54785156,0.09082031,0.07714844,-29.0,-96.40625,22.25,0.0,0.0,0.0,473
438,1696243370441,-0.6611328,-0.171875,-0.13769531,28.125,-72.6875,38.78125,0.0,0.0,0.0,474
439,1696243370481,-0.84375,-0.17578125,0.045898438,27.40625,-34.78125,10.09375,-87.3125,29.3125,-47.0,475
440,1696243370521,-0.59472656,-0.055664062,0.22265625,57.0,-36.0625,-13.53125,0.0,0.0,0.0,476
441,1696243370561,-1.3300781,0.1875,0.37402344,32.96875,-74.875,31.9375,0.0,0.0,0.0,477
442,1696243370601,-2.0,0.11621094,0.5595703,51.40625,-101.0625,18.21875,0.0,0.0,0.0,478
443,1696243370641,-1.8203125,0.36328125,0.7890625,8.0,-99.96875,-28.84375,0.0,0.0,0.0,479
444,1696243370681,-1.0117188,0.25683594,0.54785156,40.65625,-16.15625,-36.0,0.0,0.0,0.0,480
445,1696243370721,-0.8935547,0.21875,0.025390625,-5.8125,-2.125,-52.59375,0.0,0.0,0.0,481
446,1696243370761,-0.6748047,0.16796875,0.24414062,21.3125,-18.34375,-43.625,0.0,0.0,0.0,482
447,1696243370801,-0.6269531,0.045898438,0.1640625,120.78125,-26.96875,-2.25,0.0,0.0,0.0,483
448,1696243370841,-0.7246094,0.17089844,0.265625,113.15625,-34.46875,3.625,0.0,0.0,0.0,484
449,1696243370881,-0.7705078,0.5576172,0.30859375,31.125,-0.78125,3.5625,0.0,0.0,0.0,485
450,1696243370921,-0.953125,0.31054688,0.28027344,-23.1875,15.65625,9.65625,0.0,0.0,0.0,486
451,1696243370961,-0.93359375,0.12988281,0.3125,-18.125,26.625,1.59375,-73.9375,37.0625,-39.6875,487
452,1696243371001,-0.81152344,0.13574219,0.3515625,-29.53125,43.0625,-4.25,0.0,0.0,0.0,488
453,1696243371041,-0.78222656,0.18066406,0.3232422,-37.40625,66.625,2.84375,0.0,0.0,0.0,489
454,1696243371081,-0.81347656,0.2626953,0.2734375,-33.5,80.90625,15.53125,0.0,0.0,0.0,490
455,1696243371121,-0.91796875,0.20800781,0.16113281,-36.375,81.125,21.25,0.0,0.0,0.0,491
456,1696243371161,-0.9921875,0.005859375,0.25097656,-21.4375,88.15625,-3.09375,0.0,0.0,0.0,492
457,1696243371201,-1.0117188,0.053710938,0.4482422,-19.28125,77.34375,-21.46875,0.0,0.0,0.0,493
458,1696243371241,-0.89160156,0.087890625,0.35839844,-54.6875,51.28125,-34.15625,0.0,0.0,0.0,494
459,1696243371281,-0.765625,0.06640625,0.31347656,-34.65625,17.71875,-30.875,0.0,0.0,0.0,495
460,1696243371321,-0.53222656,0.07421875,0.047851562,18.75,-24.34375,-16.8125,0.0,0.0,0.0,496
461,1696243371361,-0.42089844,-0.07910156,0.14453125,40.34375,11.0,16.8125,0.0,0.0,0.0,497
462,1696243371401,-0.85839844,0.07421875,0.11328125,21.1875,36.03125,11.75,0.0,0.0,0.0,498
463,1696243371441,-0.94921875,0.5107422,0.29101562,15.375,22.46875,-2.125,0.0,0.0,0.0,499
464,1696243371481,-1.5957031,0.24609375,-0.09863281,19.09375,12.90625,7.78125,-83.25,28.8125,-48.6875,500
465,1696243371521,-2.0,-0.08300781,1.5214844,-84.65625,-10.28125,-45.5625,0.0,0.0,0.0,501
466,1696243371561,-0.3984375,0.64453125,-0.31933594,-17.53125,-130.65625,-1.03125,0.0,0.0,0.0,502
467,1696243371601,-1.140625,-0.90527344,-0.65527344,-26.25,44.75,18.625,0.0,0.0,0.0,503
468,1696243371641,-1.3164062,0.087890625,-0.171875,3.46875,61.375,-69.75,0.0,0.0,0.0,504
469,1696243371681,-0.76171875,0.7558594,0.19726562,9.59375,42.375,13.5,0.0,0.0,0.0,505
470,1696243371721,-0.89746094,-0.02734375,0.16113281,-9.9375,21.3125,36.28125,0.0,0.0,0.0,506
471,1696243371761,-1.0058594,-0.46289062,-0.12011719,55.90625,34.4375,13.8125,0.0,0.0,0.0,507
472,1696243371801,-0.96875,0.0029296875,0.0087890625,32.84375,35.0,-2.90625,0.0,0.0,0.0,508
473,1696243371841,-1.0302734,0.13867188,0.2783203,51.6875,19.375,14.5,0.0,0.0,0.0,509
474,1696243371881,-0.64941406,0.171875,0.21875,17.15625,33.53125,-9.3125,0.0,0.0,0.0,561
475,1696243371921,-0.7685547,0.08691406,0.24804688,-16.84375,64.59375,9.25,-93.0,31.25,-76.6875,562
476,1696243371961,-0.9863281,0.103515625,0.40039062,-29.96875,72.40625,18.03125,0.0,0.0,0.0,563
477,1696243372001,-1.4628906,-0.21679688,0.9746094,86.96875,34.6875,1.4375,0.0,0.0,0.0,564
478,1696243372041,-1.3486328,-0.27441406,0.36523438,-31.5,-51.90625,-71.28125,0.0,0.0,0.0,565
479,1696243372081,-0.2890625,0.14355469,0.54785156,34.0625,-62.0,-59.25,0.0,0.0,0.0,566
480,1696243372121,-0.5839844,-0.06640625,0.07714844,123.96875,-0.78125,13.625,0.0,0.0,0.0,567
481,1696243372161,-1.6816406,0.2685547,0.21875,-54.625,71.125,7.65625,0.0,0.0,0.0,568
482,1696243372201,-1.8261719,0.12207031,0.40722656,-4.875,-58.09375,-9.75,0.0,0.0,0.0,569
483,1696243372241,-0.091796875,0.5292969,-0.46777344,18.5,43.46875,19.75,0.0,0.0,0.0,570
484,1696243372281,-1.1923828,-0.8466797,-0.4033203,-89.46875,95.0,46.78125,0.0,0.0,0.0,571
485,1696243372321,-1.4208984,-0.052734375,0.21289062,-19.65625,39.5,-30.0,0.0,0.0,0.0,572
486,1696243372361,-0.7988281,0.47460938,0.037109375,-17.40625,46.84375,5.5,0.0,0.0,0.0,573
487,1696243372401,-0.92578125,0.015625,-0.0068359375,-76.71875,67.46875,36.15625,0.0,0.0,0.0,574
488,1696243372441,-1.0742188,-0.21582031,-0.07128906,-60.59375,60.4375,21.75,-94.9375,31.0625,-84.625,575
489,1696243372481,-0.95703125,-0.03515625,0.048828125,-8.65625,39.625,10.15625,0.0,0.0,0.0,576
490,1696243372521,-0.9560547,-0.034179688,0.036132812,-13.71875,45.5,9.84375,0.0,0.0,0.0,577
491,1696243372561,-0.98339844,-0.06933594,0.11328125,11.34375,47.1875,7.59375,0.0,0.0,0.0,578
492,1696243372601,-1.0605469,0.06542969,0.375,-2.9375,53.65625,-2.40625,0.0,0.0,0.0,579
493,1696243372641,-0.9951172,-0.076171875,0.22949219,-8.4375,31.75,18.8125,0.0,0.0,0.0,580
494,1696243372681,-0.95996094,-0.036132812,-0.10644531,-58.46875,0.5625,7.28125,0.0,0.0,0.0,581
495,1696243372721,-1.1328125,0.072265625,-0.09082031,-20.25,-29.34375,0.625,0.0,0.0,0.0,582
496,1696243372761,-1.3232422,0.072265625,0.017578125,10.875,-78.21875,-11.875,0.0,0.0,0.0,583
497,1696243372801,-1.1689453,0.21289062,0.06640625,-57.875,-113.6875,-10.1875,0.0,0.0,0.0,584
498,1696243372841,-1.1933594,0.30078125,0.08496094,-62.6875,-141.09375,3.5625,0.0,0.0,0.0,585
499,1696243372881,-1.0351562,0.23925781,0.08203125,-50.125,-127.46875,3.6875,0.0,0.0,0.0,586
500,1696243372921,-1.0458984,-0.09765625,-0.09375,30.625,-88.59375,1.96875,-96.125,32.125,-74.125,587
501,1696243372961,-0.86621094,-0.08496094,0.109375,77.6875,-65.96875,-3.34375,0.0,0.0,0.0,588
502,1696243373001,-0.79003906,0.07910156,0.17480469,42.25,-31.84375,-18.65625,0.0,0.0,0.0,589
503,1696243373041,-0.7675781,0.21582031,0.18457031,13.625,-6.3125,-23.0,0.0,0.0,0.0,590
504,1696243373081,-0.7763672,0.20214844,0.12011719,21.78125,16.25,-6.09375,0.0,0.0,0.0,591
505,1696243373121,-0.7167969,0.20800781,0.19824219,7.1875,43.34375,7.84375,0.0,0.0,0.0,592
506,1696243373161,-0.8173828,0.18457031,0.26757812,-29.59375,73.5,34.625,0.0,0.0,0.0,593
507,1696243373201,-1.0869141,-0.061523438,0.25976562,-36.625,91.9375,37.6875,0.0,0.0,0.0,594
508,1696243373241,-1.0732422,0.00390625,0.20996094,-27.71875,67.46875,1.84375,0.0,0.0,0.0,595
509,1696243373281,-0.91796875,0.20800781,0.3310547,11.21875,26.4375,-10.28125,0.0,0.0,0.0,596
510,1696243373321,-0.91015625,0.11621094,0.35253906,-6.03125,0.375,-14.6875,0.0,0.0,0.0,597
511,1696243373361,-0.703125,0.0703125,0.12890625,0.84375,-6.8125,-22.3125,0.0,0.0,0.0,598
512,1696243373401,-0.4794922,0.032226562,0.03515625,16.71875,-26.96875,-2.46875,0.0,0.0,0.0,599
513,1696243373441,-0.5498047,0.021484375,0.0546875,22.46875,18.625,2.65625,-99.75,32.125,-77.3125,600
514,1696243373481,-0.59277344,-0.0078125,-0.064453125,29.125,38.78125,-8.65625,0.0,0.0,0.0,601
515,1696243373521,-0.828125,0.18164062,0.24707031,21.78125,35.125,-10.53125,0.0,0.0,0.0,602
516,1696243373561,-0.7988281,0.64746094,0.30078125,-5.5625,17.84375,5.8125,0.0,0.0,0.0,603
517,1696243373601,-2.0,0.37109375,-0.265625,-27.90625,21.4375,31.6875,0.0,0.0,0.0,604
518,1696243373641,-2.0,-0.3564453,1.0,-171.375,-11.75,-20.1875,0.0,0.0,0.0,605
519,1696243373681,-0.43164062,0.015625,-0.27441406,-32.65625,-102.875,-18.21875,0.0,0.0,0.0,606
520,1696243373721,-0.71484375,-0.20117188,-0.31835938,-36.5,28.875,-0.71875,0.0,0.0,0.0,607
521,1696243373761,-1.3427734,-0.00390625,-0.028320312,-19.34375,97.96875,-32.21875,0.0,0.0,0.0,608
522,1696243373801,-0.72265625,0.43847656,0.40722656,-3.59375,39.6875,9.125,0.0,0.0,0.0,609
523,1696243373841,-0.81640625,0.1171875,0.23730469,-20.375,13.21875,24.9375,0.0,0.0,0.0,610
524,1696243373881,-1.1484375,-0.46777344,-0.020507812,5.3125,17.59375,9.25,0.0,0.0,0.0,611
525,1696243373921,-1.0478516,-0.13671875,0.23046875,-18.4375,-5.96875,-7.90625,-96.875,33.625,-83.875,612
526,1696243373961,-0.96875,0.10644531,0.08496094,37.0,1.3125,-1.75,0.0,0.0,0.0,613
527,1696243374001,-1.0097656,0.00390625,-0.018554688,30.8125,9.90625,-1.625,0.0,0.0,0.0,614
528,1696243374041,-0.99902344,0.08886719,0.12011719,13.5,14.96875,-7.71875,0.0,0.0,0.0,615
529,1696243374081,-0.9980469,0.041015625,0.10546875,9.9375,13.8125,4.0625,0.0,0.0,0.0,616
530,1696243374121,-0.9628906,-0.025390625,0.08105469,-0.25,9.0625,0.6875,0.0,0.0,0.0,617
531,1696243374161,-0.9628906,-0.005859375,0.14355469,15.6875,4.34375,5.03125,0.0,0.0,0.0,618
532,1696243374201,-0.93066406,0.0390625,0.19335938,4.28125,2.71875,2.46875,0.0,0.0,0.0,619
533,1696243374241,-0.9423828,0.056640625,0.19140625,3.125,-9.5625,3.0,0.0,0.0,0.0,620
534,1696243374281,-0.8701172,0.0078125,0.080078125,-7.75,-27.1875,5.5625,0.0,0.0,0.0,621
535,1696243374321,-0.7167969,0.030273438,0.23339844,-10.375,-54.78125,-1.3125,0.0,0.0,0.0,622
536,1696243374361,-0.8730469,0.08984375,0.14941406,30.75,-60.53125,6.96875,0.0,0.0,0.0,623
537,1696243374401,-0.8095703,0.045898438,0.08105469,3.34375,-46.1875,10.46875,0.0,0.0,0.0,624
538,1696243374441,-0.890625,-0.22460938,0.115234375,-0.90625,-25.125,-9.5,-97.1875,34.375,-80.75,625
539,1696243374481,-1.0332031,-0.119140625,0.14648438,45.96875,-32.15625,-23.53125,0.0,0.0,0.0,626
540,1696243374521,-0.74121094,0.1796875,0.30566406,23.625,-42.09375,-17.0625,0.0,0.0,0.0,627
541,1696243374561,-0.5,-0.05859375,0.11621094,11.53125,-12.0625,9.0625,0.0,0.0,0.0,628
542,1696243374601,-1.3583984,-0.16210938,0.26660156,-10.8125,-52.78125,14.71875,0.0,0.0,0.0,629
543,1696243374641,-2.0,0.23144531,0.84472656,29.65625,-130.34375,-28.46875,0.0,0.0,0.0,630
544,1696243374681,-1.5839844,0.4267578,0.60253906,-29.125,-119.375,-75.28125,0.0,0.0,0.0,631
545,1696243374721,-0.7861328,-0.15332031,0.42871094,39.78125,-50.5625,-19.3125,0.0,0.0,0.0,632
546,1696243374761,-0.75097656,0.024414062,0.35351562,13.90625,-28.3125,-20.90625,0.0,0.0,0.0,633
547,1696243374801,-0.8876953,0.013671875,0.15234375,89.78125,-28.65625,-21.78125,0.0,0.0,0.0,634
548,1696243374841,-0.51464844,0.14550781,0.46289062,116.28125,-33.5625,-4.4375,0.0,0.0,0.0,635
549,1696243374881,-0.53515625,0.32421875,0.41210938,29.34375,-4.4375,24.4375,0.0,0.0,0.0,636
550,1696243374921,-0.86816406,0.09765625,0.28710938,4.75,10.40625,23.40625,-97.9375,31.8125,-65.625,637
551,1696243374961,-1.0117188,0.025390625,0.43945312,4.15625,18.46875,4.21875,0.0,0.0,0.0,638
552,1696243375001,-0.78027344,0.08203125,0.51464844,-4.5625,32.75,-10.59375,0.0,0.0,0.0,639
553,1696243375041,-0.73339844,0.19335938,0.3779297,-27.71875,56.84375,-4.375,0.0,0.0,0.0,640
554,1696243375081,-0.80566406,0.2265625,0.37890625,-41.03125,68.5625,13.4375,0.0,0.0,0.0,641
555,1696243375121,-0.7734375,0.046875,0.3798828,-29.46875,78.6875,24.0625,0.0,0.0,0.0,642
556,1696243375161,-0.9199219,-0.01953125,0.30371094,-32.65625,100.1875,21.4375,0.0,0.0,0.0,643
557,1696243375201,-1.0488281,0.091796875,0.3203125,-51.875,96.21875,10.40625,0.0,0.0,0.0,644
558,1696243375241,-0.9189453,0.083984375,0.421875,-8.84375,81.0,-2.375,0.0,0.0,0.0,645
559,1696243375281,-0.84472656,0.18945312,0.2265625,-2.0,37.6875,-4.5625,0.0,0.0,0.0,646
560,1696243375321,-0.5859375,0.16992188,0.16699219,12.4375,16.5,-7.1875,0.0,0.0,0.0,647
561,1696243375361,-0.42578125,-0.10449219,0.0859375,25.28125,15.9375,1.4375,0.0,0.0,0.0,648
562,1696243375401,-0.8339844,0.033203125,0.20703125,-13.1875,25.90625,-2.65625,0.0,0.0,0.0,649
563,1696243375441,-0.69628906,0.27734375,0.29101562,-0.625,8.5,1.25,-96.125,31.8125,-84.375,650
564,1696243375481,-1.0039062,0.36132812,0.31933594,-45.40625,5.6875,17.21875,0.0,0.0,0.0,651
565,1696243375521,-2.0,-0.16015625,-0.20410156,-7.25,7.28125,-3.75,0.0,0.0,0.0,652
566,1696243375561,-2.0,0.39941406,0.61035156,3.0,-205.5,3.9375,0.0,0.0,0.0,653
567,1696243375601,-0.119140625,-0.10449219,0.009765625,5.84375,-111.0,53.90625,0.0,0.0,0.0,654
568,1696243375641,-2.0,-0.65722656,0.0234375,-77.40625,80.59375,-26.78125,0.0,0.0,0.0,655
569,1696243375681,-1.03125,0.3876953,-0.0048828125,-19.46875,93.21875,-57.09375,0.0,0.0,0.0,656
570,1696243375721,-0.61035156,0.5019531,0.23535156,1.03125,44.21875,3.6875,0.0,0.0,0.0,657
571,1696243375761,-0.92089844,-0.07714844,-0.0068359375,-6.03125,42.5625,23.65625,0.0,0.0,0.0,658
572,1696243375801,-1.0849609,-0.22949219,0.13574219,-1.28125,34.8125,-6.75,0.0,0.0,0.0,659
573,1696243375841,-0.9501953,0.0048828125,0.33203125,-19.15625,12.71875,-2.65625,0.0,0.0,0.0,660
574,1696243375881,-0.92578125,0.055664062,0.15625,-6.96875,7.28125,14.25,0.0,0.0,0.0,661
575,1696243375921,-1.0029297,-0.21777344,0.016601562,27.53125,-3.875,9.1875,-94.0625,29.4375,-85.5625,662
576,1696243375961,-1.0283203,0.08105469,0.20605469,19.65625,15.78125,-3.9375,0.0,0.0,0.0,663
577,1696243376001,-1.0097656,0.06933594,0.1171875,27.15625,18.75,6.5,0.0,0.0,0.0,664
578,1696243376041,-1.0273438,-0.087890625,0.07910156,9.75,19.5,-1.125,0.0,0.0,0.0,665
579,1696243376081,-0.9482422,0.0859375,0.20507812,8.4375,1.71875,-0.96875,0.0,0.0,0.0,666
580,1696243376121,-0.8642578,0.0068359375,0.078125,-4.75,-24.28125,6.125,0.0,0.0,0.0,667
581,1696243376161,-0.81640625,0.045898438,0.123046875,7.1875,-46.625,9.34375,0.0,0.0,0.0,668
582,1696243376201,-0.8486328,0.095703125,0.16210938,-21.0,-68.65625,14.59375,0.0,0.0,0.0,669
583,1696243376241,-0.8251953,0.052734375,0.18359375,10.5625,-80.84375,21.9375,0.0,0.0,0.0,670
584,1696243376281,-0.7451172,-0.049804688,0.09082031,3.0625,-57.0625,22.25,0.0,0.0,0.0,671
585,1696243376321,-0.8046875,-0.18945312,0.19335938,25.09375,-36.65625,16.3125,0.0,0.0,0.0,672
586,1696243376361,-0.7792969,-0.03515625,0.24414062,42.0,-34.53125,9.59375,0.0,0.0,0.0,673
587,1696243376401,-0.69921875,0.032226562,0.17480469,43.9375,-39.59375,28.28125,0.0,0.0,0.0,674
588,1696243376441,-1.5722656,0.20019531,0.45898438,24.09375,-53.03125,7.96875,-93.3125,30.5,-78.8125,675
589,1696243376481,-2.0,0.24121094,0.6386719,74.34375,-99.03125,-6.625,0.0,0.0,0.0,676
590,1696243376521,-1.4638672,0.5,0.59277344,38.875,-99.09375,-7.65625,0.0,0.0,0.0,677
591,1696243376561,-0.9902344,0.20605469,0.36328125,16.40625,-37.75,-18.15625,0.0,0.0,0.0,678
592,1696243376601,-0.8027344,0.12207031,0.16503906,6.46875,-14.03125,-47.46875,0.0,0.0,0.0,679
593,1696243376641,-0.7705078,0.18457031,0.2685547,42.78125,-21.34375,-50.5625,0.0,0.0,0.0,680
594,1696243376681,-0.5751953,0.06542969,0.29101562,97.34375,-29.34375,-30.75,0.0,0.0,0.0,681
595,1696243376721,-0.65527344,0.17675781,0.4013672,84.78125,-6.9375,-14.09375,0.0,0.0,0.0,682
596,1696243376761,-0.7734375,0.29589844,0.3232422,14.84375,21.625,-17.125,0.0,0.0,0.0,683
597,1696243376801,-0.9375,0.24511719,0.29101562,-11.65625,41.15625,-15.84375,0.0,0.0,0.0,684
598,1696243376841,-0.9238281,0.12792969,0.41601562,-8.4375,58.84375,-24.15625,0.0,0.0,0.0,685
599,1696243376881,-0.80078125,0.12011719,0.3623047,-5.125,70.875,-15.25,0.0,0.0,0.0,686
600,1696243376921,-0.7871094,0.17578125,0.26464844,-32.78125,87.1875,1.125,-95.6875,26.0,-75.8125,687
601,1696243376961,-0.9453125,0.13476562,0.27441406,-42.96875,90.46875,8.6875,0.0,0.0,0.0,688
602,1696243377001,-1.078125,-0.05078125,0.42382812,-8.90625,65.15625,-1.125,0.0,0.0,0.0,689
603,1696243377041,-0.92089844,-0.030273438,0.40527344,21.78125,34.3125,-21.21875,0.0,0.0,0.0,690
604,1696243377081,-0.8574219,0.0126953125,0.21875,20.09375,7.71875,-31.21875,0.0,0.0,0.0,691
605,1696243377121,-0.7363281,0.053710938,0.20703125,31.375,-4.875,-32.6875,0.0,0.0,0.0,692
606,1696243377161,-0.5341797,-0.015625,0.14160156,25.375,-2.375,-20.59375,0.0,0.0,0.0,693
607,1696243377201,-0.890625,0.16308594,0.09277344,17.15625,18.8125,3.5,0.0,0.0,0.0,694
608,1696243377241,-0.8808594,0.11621094,0.25585938,52.78125,44.15625,0.03125,0.0,0.0,0.0,695
609,1696243377281,-0.765625,0.19433594,0.23925781,41.75,27.90625,13.21875,0.0,0.0,0.0,696
610,1696243377321,-1.640625,0.41796875,0.14648438,49.5625,34.6875,25.15625,0.0,0.0,0.0,697
611,1696243377361,-1.375,-0.23339844,-0.0146484375,-54.5,50.75,-25.25,0.0,0.0,0.0,698
612,1696243377401,-2.0,0.19921875,0.123046875,-71.71875,-31.28125,1.4375,0.0,0.0,0.0,699
613,1696243377441,-1.0615234,-0.16699219,-0.17089844,-32.03125,-48.125,3.0625,-94.375,20.125,-87.5,700
614,1696243377481,-0.80371094,-0.21582031,-0.4638672,-3.96875,12.15625,-18.28125,0.0,0.0,0.0,701
615,1696243377521,-1.0390625,0.26464844,-0.14355469,57.3125,62.46875,-28.25,0.0,0.0,0.0,702
616,1696243377561,-0.9003906,0.2578125,0.11816406,11.65625,44.21875,0.5,0.0,0.0,0.0,703
617,1696243377601,-0.94140625,-0.017578125,-0.0126953125,8.125,24.875,13.9375,0.0,0.0,0.0,704
618,1696243377641,-1.0380859,-0.15332031,0.026367188,37.28125,16.4375,3.9375,0.0,0.0,0.0,705
619,1696243377681,-1.0263672,-0.0068359375,0.09863281,25.8125,14.375,-1.875,0.0,0.0,0.0,706
620,1696243377721,-1.0234375,0.022460938,0.08886719,34.375,6.625,8.625,0.0,0.0,0.0,707
621,1696243377761,-0.96777344,-0.0068359375,-0.064453125,52.1875,10.875,13.09375,0.0,0.0,0.0,708
622,1696243377801,-0.9970703,-0.09765625,-0.06347656,60.4375,24.3125,5.34375,0.0,0.0,0.0,709
623,1696243377841,-0.9863281,0.046875,0.03125,66.15625,32.375,4.71875,0.0,0.0,0.0,710
624,1696243377881,-1.0244141,-0.024414062,0.0087890625,52.0625,27.1875,10.875,0.0,0.0,0.0,711
625,1696243377921,-1.0390625,-0.018554688,-0.06933594,43.625,22.1875,11.9375,-93.125,14.0,-92.4375,712
626,1696243377961,-0.9824219,0.029296875,-0.12597656,44.5,17.71875,6.1875,0.0,0.0,0.0,713
627,1696243378001,-0.9501953,0.1484375,-0.09277344,75.5625,19.125,11.4375,0.0,0.0,0.0,714
628,1696243378041,-0.9628906,0.16796875,-0.10546875,43.46875,18.40625,13.09375,0.0,0.0,0.0,715
629,1696243378081,-0.9716797,0.09277344,0.020507812,39.84375,12.46875,17.59375,0.0,0.0,0.0,716
630,1696243378121,-1.0996094,0.005859375,-0.044921875,17.6875,7.46875,18.09375,0.0,0.0,0.0,717
631,1696243378161,-1.15625,-0.15136719,-0.06542969,-0.125,-2.40625,11.625,0.0,0.0,0.0,718
632,1696243378201,-1.2910156,-0.12695312,-0.10839844,34.71875,-28.40625,4.65625,0.0,0.0,0.0,719
633,1696243378241,-0.9921875,0.10449219,0.078125,37.90625,1.0625,-0.03125,0.0,0.0,0.0,751
634,1696243378281,-1.0048828,0.01953125,0.12011719,33.75,0.5625,-5.15625,0.0,0.0,0.0,752
635,1696243378321,-0.96972656,0.057617188,0.16308594,22.28125,-4.6875,-12.3125,0.0,0.0,0.0,753
636,1696243378361,-0.9736328,0.03125,0.10253906,33.875,-9.6875,-6.375,0.0,0.0,0.0,754
637,1696243378401,-0.92578125,0.0146484375,0.09082031,18.875,-19.875,-9.375,0.0,0.0,0.0,755
638,1696243378441,-0.9736328,0.16015625,0.21289062,23.375,-23.1875,-5.21875,0.0,0.0,0.0,756
639,1696243378481,-0.91308594,0.08984375,0.037109375,-5.75,-30.375,0.5,0.0,0.0,0.0,757
640,1696243378521,-0.71484375,0.2421875,0.23242188,7.6875,-39.15625,3.0625,0.0,0.0,0.0,758
641,1696243378561,-0.90722656,0.06347656,0.01953125,-14.71875,-36.65625,18.8125,0.0,0.0,0.0,759
642,1696243378601,-0.92089844,-0.022460938,0.23242188,-22.40625,-47.40625,21.8125,0.0,0.0,0.0,760
643,1696243378641,-0.8876953,0.048828125,0.22167969,-5.5,-44.40625,25.84375,0.0,0.0,0.0,761
644,1696243378681,-0.9345703,-0.06640625,0.25585938,14.15625,-32.28125,32.75,-93.875,16.5625,-50.75,762
645,1696243378721,-1.0292969,-0.0625,0.32226562,25.875,-24.6875,33.65625,0.0,0.0,0.0,763
646,1696243378761,-0.9921875,-0.020507812,0.33691406,31.5625,-21.71875,30.65625,0.0,0.0,0.0,764
647,1696243378801,-0.7910156,-0.021484375,0.19140625,18.625,-11.625,28.875,0.0,0.0,0.0,765
648,1696243378841,-1.0839844,0.055664062,0.15429688,-0.3125,1.90625,15.53125,0.0,0.0,0.0,766
649,1696243378881,-1.4296875,0.35546875,0.41796875,-2.9375,-32.15625,-6.4375,0.0,0.0,0.0,767
650,1696243378921,-1.3173828,0.26171875,0.35742188,-5.90625,-36.59375,-27.9375,0.0,0.0,0.0,768
651,1696243378961,-1.3125,0.22949219,0.4013672,15.1875,-39.71875,-30.1875,0.0,0.0,0.0,769
652,1696243379001,-1.0126953,0.3671875,0.4482422,18.1875,-50.5625,-20.5,0.0,0.0,0.0,770
653,1696243379041,-1.0458984,0.32128906,0.3466797,-0.375,-41.71875,-38.8125,0.0,0.0,0.0,771
654,1696243379081,-0.9472656,0.12597656,0.27246094,66.84375,-52.15625,-49.25,0.0,0.0,0.0,772
655,1696243379121,-0.88964844,0.14453125,0.36035156,73.3125,-41.71875,-39.71875,0.0,0.0,0.0,773
656,1696243379161,-0.9921875,0.3623047,0.43847656,46.8125,-59.84375,-35.0625,0.0,0.0,0.0,774
657,1696243379201,-0.7285156,0.40234375,0.38867188,46.5,-48.0,-27.6875,-82.625,21.1875,-42.375,775
658,1696243379241,-0.7890625,0.08691406,0.43554688,48.59375,-49.1875,-7.5625,0.0,0.0,0.0,776
659,1696243379281,-0.7832031,0.171875,0.45214844,36.5625,-35.75,-9.25,0.0,0.0,0.0,777
660,1696243379321,-0.75,0.2265625,0.47460938,18.90625,-23.34375,-2.96875,0.0,0.0,0.0,778
661,1696243379361,-0.75097656,0.16992188,0.51660156,20.6875,-6.3125,-3.59375,0.0,0.0,0.0,779
662,1696243379401,-0.765625,0.20703125,0.40722656,17.34375,10.34375,-5.59375,0.0,0.0,0.0,780
663,1696243379441,-0.74316406,0.18652344,0.53125,-1.65625,29.1875,-10.0,0.0,0.0,0.0,781
664,1696243379481,-0.7246094,0.171875,0.43164062,-8.53125,45.0,-11.34375,0.0,0.0,0.0,782
665,1696243379521,-0.7324219,0.09667969,0.375,-27.59375,63.375,-5.71875,0.0,0.0,0.0,783
666,1696243379561,-0.8515625,0.083984375,0.37402344,-36.625,87.53125,-7.4375,0.0,0.0,0.0,784
667,1696243379601,-0.89746094,0.16503906,0.28808594,-31.90625,100.1875,-7.375,0.0,0.0,0.0,785
668,1696243379641,-0.88378906,0.15527344,0.25195312,-43.59375,110.90625,4.0,0.0,0.0,0.0,786
669,1696243379681,-1.15625,0.04296875,0.3544922,-41.75,102.3125,5.9375,-88.0625,21.1875,-48.6875,787
670,1696243379721,-1.0332031,0.21972656,0.36914062,-22.15625,57.6875,-11.34375,0.0,0.0,0.0,788
671,1696243379761,-0.93359375,0.21875,0.29882812,-3.1875,21.6875,-3.21875,0.0,0.0,0.0,789
672,1696243379801,-0.89160156,0.06640625,0.25097656,10.9375,-0.84375,-0.84375,0.0,0.0,0.0,790
673,1696243379841,-0.6376953,-0.07910156,-0.0625,-9.21875,0.375,-12.125,0.0,0.0,0.0,791
674,1696243379881,-0.5908203,-0.026367188,0.045898438,7.3125,25.78125,-4.96875,0.0,0.0,0.0,792
675,1696243379921,-0.8310547,0.24414062,0.12109375,26.25,40.5,-10.34375,0.0,0.0,0.0,793
676,1696243379961,-0.6933594,0.31445312,0.020507812,-14.65625,33.21875,-6.875,0.0,0.0,0.0,794
677,1696243380001,-0.70703125,0.44726562,0.32714844,-46.4375,20.59375,18.6875,0.0,0.0,0.0,795
678,1696243380041,-1.4277344,0.0703125,0.29296875,20.09375,14.71875,32.0,0.0,0.0,0.0,796
679,1696243380081,-1.8916016,-0.6142578,-0.22949219,-114.625,42.0,-40.6875,0.0,0.0,0.0,797
680,1696243380121,-2.0,0.51171875,0.50683594,-19.65625,-50.09375,-4.0,0.0,0.0,0.0,798
681,1696243380161,-0.48339844,-0.00390625,-0.265625,-39.25,-87.625,21.4375,0.0,0.0,0.0,799
682,1696243380201,-1.1083984,-0.68847656,-0.11230469,-14.46875,26.6875,-15.78125,-93.125,16.0625,-54.375,800
683,1696243380241,-1.1728516,0.26464844,-0.13085938,15.9375,64.71875,-55.9375,0.0,0.0,0.0,801
684,1696243380281,-0.8925781,0.33007812,0.33789062,-11.28125,24.3125,-15.84375,0.0,0.0,0.0,802
685,1696243380321,-0.89746094,0.12402344,0.08984375,-26.5,4.53125,13.75,0.0,0.0,0.0,803
686,1696243380361,-1.0380859,-0.34179688,-0.0390625,16.0,8.6875,3.0,0.0,0.0,0.0,804
687,1696243380401,-1.0976562,-0.018554688,0.16992188,-9.21875,11.0625,-14.5,0.0,0.0,0.0,805
688,1696243380441,-1.0029297,0.068359375,0.1328125,10.375,8.625,3.5,0.0,0.0,0.0,806
689,1696243380481,-0.98339844,0.038085938,0.033203125,4.46875,3.625,8.0625,0.0,0.0,0.0,807
690,1696243380521,-1.0117188,-0.08691406,0.01171875,19.15625,16.5625,-0.84375,0.0,0.0,0.0,808
691,1696243380561,-1.0146484,0.016601562,0.11230469,19.15625,17.28125,-1.03125,0.0,0.0,0.0,809
692,1696243380601,-0.98535156,0.10644531,0.15820312,4.46875,11.5625,8.25,0.0,0.0,0.0,810
693,1696243380641,-0.94628906,-0.111328125,0.10839844,-1.34375,5.875,10.65625,0.0,0.0,0.0,811
694,1696243380681,-0.9765625,-0.013671875,0.10644531,12.28125,2.53125,3.3125,-95.875,14.125,-58.6875,812
695,1696243380721,-1.0253906,0.01953125,0.11621094,16.65625,4.78125,6.1875,0.0,0.0,0.0,813
696,1696243380761,-0.9628906,0.10546875,0.12988281,29.0,3.25,4.65625,0.0,0.0,0.0,814
697,1696243380801,-1.0029297,0.015625,0.0546875,5.625,4.84375,8.625,0.0,0.0,0.0,815
698,1696243380841,-0.90722656,0.0126953125,0.11621094,0.0625,-23.21875,3.5625,0.0,0.0,0.0,816
699,1696243380881,-0.8828125,0.119140625,0.16308594,9.28125,-41.46875,11.125,0.0,0.0,0.0,817
700,1696243380921,-0.8847656,-0.013671875,0.049804688,-13.375,-67.3125,14.96875,0.0,0.0,0.0,818
701,1696243380961,-0.81152344,0.07324219,0.19042969,9.65625,-81.71875,22.0,0.0,0.0,0.0,819
702,1696243381001,-0.77734375,-0.12402344,0.12597656,8.125,-68.40625,33.03125,0.0,0.0,0.0,820
703,1696243381041,-0.8076172,-0.12402344,0.14355469,27.65625,-53.25,19.125,0.0,0.0,0.0,821
704,1696243381081,-0.7753906,-0.051757812,0.24707031,55.40625,-59.1875,5.875,0.0,0.0,0.0,822
705,1696243381121,-0.7910156,0.107421875,0.3203125,59.75,-81.59375,20.53125,0.0,0.0,0.0,823
706,1696243381161,-1.0449219,0.20800781,0.25097656,21.0,-59.71875,17.46875,0.0,0.0,0.0,824
707,1696243381201,-1.7558594,0.27734375,0.5390625,15.625,-53.3125,-11.21875,-88.625,21.5,-46.6875,825
708,1696243381241,-1.5800781,0.3671875,0.7402344,-44.1875,-49.125,-33.90625,0.0,0.0,0.0,826
709,1696243381281,-1.1289062,0.18554688,0.5732422,-23.8125,-19.09375,-40.625,0.0,0.0,0.0,827
710,1696243381321,-1.0332031,0.052734375,0.42773438,-0.90625,-30.0625,-38.25,0.0,0.0,0.0,828
711,1696243381361,-0.9121094,0.2109375,0.47265625,4.6875,-23.0625,-39.90625,0.0,0.0,0.0,829
712,1696243381401,-0.7207031,0.001953125,0.29296875,70.3125,-19.75,-23.59375,0.0,0.0,0.0,830
713,1696243381441,-0.7470703,0.040039062,0.3388672,73.78125,-20.59375,-9.8125,0.0,0.0,0.0,831
714,1696243381481,-0.7792969,0.3388672,0.36816406,25.625,-9.0,-13.53125,0.0,0.0,0.0,832
715,1696243381521,-0.79003906,0.21972656,0.35351562,4.9375,2.84375,-6.5,0.0,0.0,0.0,833
716,1696243381561,-0.796875,0.057617188,0.4404297,-8.0,21.8125,2.71875,0.0,0.0,0.0,834
717,1696243381601,-0.82910156,0.11816406,0.4326172,-18.4375,35.1875,2.15625,0.0,0.0,0.0,835
718,1696243381641,-0.8095703,0.1640625,0.3779297,-26.375,54.28125,5.40625,0.0,0.0,0.0,836
719,1696243381681,-0.7607422,0.20703125,0.33789062,-44.125,72.65625,22.25,-88.625,20.0,-43.5625,837
720,1696243381721,-0.78125,0.123046875,0.34570312,-46.09375,95.1875,39.875,0.0,0.0,0.0,838
721,1696243381761,-0.9902344,-0.02734375,0.2998047,-38.5,99.4375,49.9375,0.0,0.0,0.0,839
722,1696243381801,-1.1132812,-0.10058594,0.3935547,-24.15625,90.96875,4.15625,0.0,0.0,0.0,840
723,1696243381841,-0.9433594,0.21875,0.4951172,-32.84375,60.75,-16.46875,0.0,0.0,0.0,841
724,1696243381881,-0.8408203,0.0009765625,0.30566406,-3.25,18.40625,-5.15625,0.0,0.0,0.0,842
725,1696243381921,-0.69628906,0.10449219,0.19238281,-24.90625,-1.4375,-11.34375,0.0,0.0,0.0,843
726,1696243381961,-0.43847656,-0.068359375,0.22363281,50.78125,-9.4375,-0.59375,0.0,0.0,0.0,844
727,1696243382001,-0.5751953,0.053710938,0.09667969,-14.65625,-5.59375,11.125,0.0,0.0,0.0,845
728,1696243382041,-0.703125,0.16699219,0.0126953125,5.625,28.15625,4.46875,0.0,0.0,0.0,846
729,1696243382081,-1.0126953,0.2841797,0.44140625,14.96875,36.875,-2.59375,0.0,0.0,0.0,847
730,1696243382121,-1.7734375,0.123046875,-0.15332031,65.84375,-10.28125,3.6875,0.0,0.0,0.0,848
731,1696243382161,-1.7929688,0.5185547,1.2802734,-77.28125,-57.0,-30.25,0.0,0.0,0.0,849
732,1696243382201,-1.1816406,0.08300781,-0.0068359375,-14.59375,-88.25,11.25,-95.6875,18.3125,-54.6875,850
733,1696243382241,-0.9814453,-0.4296875,-0.19042969,-37.21875,-15.53125,4.84375,0.0,0.0,0.0,851
734,1696243382281,-1.3173828,-0.15625,-0.021484375,-30.46875,67.53125,-63.28125,0.0,0.0,0.0,852
735,1696243382321,-0.9013672,0.41503906,0.030273438,61.40625,56.28125,-34.84375,0.0,0.0,0.0,853
736,1696243382361,-0.8125,0.3310547,0.16210938,-21.375,33.21875,-0.78125,0.0,0.0,0.0,854
737,1696243382401,-0.9355469,-0.049804688,-0.009765625,-2.875,31.09375,17.28125,0.0,0.0,0.0,855
738,1696243382441,-1.0195312,-0.20019531,0.024414062,1.46875,23.59375,-0.28125,0.0,0.0,0.0,856
739,1696243382481,-0.9375,0.03515625,0.22167969,-5.1875,9.71875,-2.96875,0.0,0.0,0.0,857
740,1696243382521,-1.0361328,-0.025390625,0.1484375,-3.0625,4.0,10.34375,0.0,0.0,0.0,858
741,1696243382561,-0.9921875,-0.095703125,0.099609375,5.6875,-0.15625,5.9375,0.0,0.0,0.0,859
742,1696243382601,-0.96191406,0.038085938,0.10253906,21.90625,6.25,5.8125,0.0,0.0,0.0,860
743,1696243382641,-1.0488281,0.0029296875,0.0859375,7.75,13.15625,7.46875,0.0,0.0,0.0,861
744,1696243382681,-0.96191406,-0.0234375,0.107421875,7.25,7.90625,2.46875,-98.875,17.0,-57.0625,862
745,1696243382721,-0.9111328,0.016601562,0.12597656,8.78125,1.5,4.90625,0.0,0.0,0.0,863
746,1696243382761,-0.91503906,-0.009765625,0.10253906,-7.5625,-17.375,3.0625,0.0,0.0,0.0,864
747,1696243382801,-0.8222656,0.07128906,0.24707031,14.46875,-45.15625,2.53125,0.0,0.0,0.0,865
748,1696243382841,-0.79589844,0.0859375,0.09765625,-29.34375,-54.3125,19.1875,0.0,0.0,0.0,866
749,1696243382881,-0.88671875,0.109375,0.30859375,-33.03125,-77.4375,17.59375,0.0,0.0,0.0,867
750,1696243382921,-0.76953125,-0.3251953,-0.0087890625,15.125,-54.25,13.625,0.0,0.0,0.0,868
751,1696243382961,-0.7910156,-0.119140625,0.33203125,7.625,-49.71875,-2.78125,0.0,0.0,0.0,869
752,1696243383001,-0.6953125,-0.0546875,0.26367188,54.625,-60.21875,-0.71875,0.0,0.0,0.0,870
753,1696243383041,-0.96972656,-0.05078125,0.2529297,58.78125,-72.5,12.71875,0.0,0.0,0.0,871
754,1696243383081,-1.5390625,0.21386719,0.5957031,66.28125,-100.875,-8.65625,0.0,0.0,0.0,872
755,1696243383121,-1.7226562,0.47265625,0.70703125,51.03125,-98.84375,-25.4375,0.0,0.0,0.0,873
756,1696243383161,-1.1259766,0.31445312,0.6640625,-27.90625,-52.78125,-26.21875,0.0,0.0,0.0,874
757,1696243383201,-1.1386719,-0.005859375,0.3984375,-14.96875,-18.53125,-13.71875,-87.125,24.625,-41.1875,875
758,1696243383241,-1.0273438,0.13574219,0.37890625,39.1875,-23.28125,-20.125,0.0,0.0,0.0,876
759,1696243383281,-0.74121094,0.24511719,0.2529297,50.84375,-0.90625,-15.78125,0.0,0.0,0.0,877
