# Sensor type: Thingy
# Activity type: Descending stairs
# Activity subtype: Normal
# Subject id: s2104454
# Notes: unprocessed
timestamp,accel_x,accel_y,accel_z,gyro_x,gyro_y,gyro_z,mag_x,mag_y,mag_z
1696243352921,-0.9951172,0.11425781,-0.029296875,-1.15625,-1.5625,0.15625,-92.25,44.4375,-82.6875
1696243352951,-0.99902344,0.12988281,-0.049804688,1.78125,0.21875,1.4375,0.0,0.0,0.0
1696243352983,-1.0058594,0.12207031,0.0068359375,16.1875,3.5625,4.21875,0.0,0.0,0.0
1696243353075,-1.0332031,0.18554688,0.099609375,-4.75,-10.84375,-3.21875,0.0,0.0,0.0
1696243353077,-1.0664062,-0.036132812,0.15332031,7.9375,-62.96875,-8.71875,0.0,0.0,0.0
1696243353101,-0.96777344,-0.091796875,0.35839844,20.4375,-92.09375,-33.71875,0.0,0.0,0.0
1696243353198,-0.88183594,0.2734375,-0.09082031,-14.53125,-45.09375,-29.40625,0.0,0.0,0.0
1696243353199,-0.9814453,-0.01953125,-0.06640625,25.4375,16.75,-18.84375,0.0,0.0,0.0
1696243353220,-1.0839844,0.041015625,0.16308594,-17.8125,29.625,-26.71875,0.0,0.0,0.0
1696243353281,-1.0371094,0.43945312,0.07714844,-0.375,14.375,-1.8125,0.0,0.0,0.0
1696243353318,-0.9111328,0.3876953,0.049804688,25.875,12.03125,31.46875,0.0,0.0,0.0
1696243353342,-1.0058594,-0.25,-0.06347656,16.25,17.53125,16.125,0.0,0.0,0.0
1696243353402,-1.0078125,-0.06542969,-0.0703125,19.09375,8.6875,-9.9375,0.0,0.0,0.0
1696243353441,-1.0400391,0.068359375,0.08203125,13.1875,-0.59375,-7.71875,-94.375,39.5,-79.6875
1696243353464,-1.0068359,0.12207031,0.06738281,-14.53125,6.1875,2.15625,0.0,0.0,0.0
1696243353520,-1.0615234,-0.091796875,0.034179688,-4.75,6.0625,4.53125,0.0,0.0,0.0
1696243353554,-1.0048828,-0.203125,0.0146484375,7.03125,16.8125,-4.8125,0.0,0.0,0.0
1696243353585,-0.9736328,-0.026367188,0.07714844,34.125,22.78125,-3.59375,0.0,0.0,0.0
1696243353648,-0.9316406,0.080078125,0.15039062,34.125,18.5,-3.09375,0.0,0.0,0.0
1696243353672,-1.0,0.16796875,0.2783203,14.65625,0.09375,-2.71875,0.0,0.0,0.0
1696243353702,-0.9111328,0.068359375,0.328125,-0.96875,-25.25,-0.90625,0.0,0.0,0.0
1696243353763,-0.8076172,0.0126953125,0.12402344,-32.53125,-76.03125,-5.40625,0.0,0.0,0.0
1696243353791,-0.63671875,0.16308594,0.33398438,28.375,-104.09375,16.125,0.0,0.0,0.0
1696243353823,-0.8564453,0.111328125,-0.10644531,-51.8125,-46.65625,22.78125,0.0,0.0,0.0
1696243353884,-1.1806641,-0.2919922,0.06738281,0.90625,-51.84375,14.65625,0.0,0.0,0.0
1696243353913,-0.9189453,-0.17871094,0.08691406,31.6875,-69.4375,-29.53125,-95.5625,41.125,-74.625
1696243353943,-0.6376953,0.18652344,0.123046875,27.90625,-34.9375,-2.0,0.0,0.0,0.0
1696243354005,-0.97265625,-0.04296875,0.25976562,-10.75,7.90625,20.78125,0.0,0.0,0.0
1696243354033,-1.2519531,-0.21972656,0.47558594,21.1875,-19.03125,-0.71875,0.0,0.0,0.0
1696243354063,-0.62890625,0.048828125,0.34765625,32.59375,-26.34375,0.375,0.0,0.0,0.0
1696243354124,-1.1357422,-0.107421875,0.33203125,-6.03125,-7.5,31.9375,0.0,0.0,0.0
1696243354156,-2.0,0.15039062,0.52734375,-11.71875,-58.375,-25.3125,0.0,0.0,0.0
1696243354185,-1.4277344,0.25976562,0.46289062,-42.125,-62.46875,-80.4375,0.0,0.0,0.0
1696243354241,-1.0371094,-0.052734375,0.32714844,51.875,-65.28125,-50.6875,0.0,0.0,0.0
1696243354273,-0.68847656,0.21582031,0.203125,107.0,-79.5,-26.90625,0.0,0.0,0.0
1696243354301,-0.7919922,0.3076172,0.22460938,56.9375,-62.90625,-11.40625,0.0,0.0,0.0
1696243354365,-0.8876953,0.13867188,0.43164062,63.28125,-43.0,13.75,0.0,0.0,0.0
1696243354397,-0.9199219,0.1171875,0.40429688,47.0,-35.8125,7.46875,0.0,0.0,0.0
1696243354422,-0.84472656,0.36035156,0.4482422,21.59375,-27.03125,6.90625,-93.125,41.0,-64.25
1696243354487,-0.87109375,0.12109375,0.43652344,12.21875,-28.96875,9.90625,0.0,0.0,0.0
1696243354513,-0.71972656,0.12207031,0.5214844,5.75,-17.25,14.84375,0.0,0.0,0.0
1696243354544,-0.72558594,0.24804688,0.4267578,7.6875,-2.96875,22.84375,0.0,0.0,0.0
1696243354606,-0.7558594,0.15722656,0.53808594,8.59375,13.875,27.90625,0.0,0.0,0.0
1696243354665,-0.703125,0.22363281,0.5048828,-9.71875,37.5625,17.40625,0.0,0.0,0.0
1696243354672,-0.74121094,0.16699219,0.38671875,-12.8125,51.28125,14.375,0.0,0.0,0.0
1696243354724,-0.8222656,0.10058594,0.42089844,-21.84375,47.5,-3.46875,0.0,0.0,0.0
1696243354754,-0.9609375,0.12695312,0.48828125,-31.0,69.46875,-19.875,0.0,0.0,0.0
1696243354782,-0.96875,0.18457031,0.4716797,-26.5625,49.71875,-32.28125,0.0,0.0,0.0
1696243354845,-0.88671875,0.14746094,0.47265625,-31.3125,52.8125,-28.90625,0.0,0.0,0.0
1696243354873,-0.8720703,0.12695312,0.5214844,-33.21875,56.46875,-7.0625,0.0,0.0,0.0
1696243354905,-0.83496094,0.18652344,0.5136719,-42.0625,49.15625,3.1875,-96.625,40.8125,-70.375
1696243354965,-0.7285156,0.08105469,0.40625,-49.9375,50.125,20.71875,0.0,0.0,0.0
1696243354994,-0.76464844,0.022460938,0.23828125,-59.03125,55.0,28.46875,0.0,0.0,0.0
1696243355022,-0.8046875,0.03125,0.22265625,-37.40625,38.0,28.28125,0.0,0.0,0.0
1696243355082,-0.875,-0.057617188,0.24023438,-13.625,28.9375,6.625,0.0,0.0,0.0
1696243355112,-0.73535156,0.03515625,0.1953125,-3.34375,28.53125,-13.21875,0.0,0.0,0.0
1696243355154,-0.87402344,0.16308594,0.23730469,20.5625,21.5,1.25,0.0,0.0,0.0
1696243355205,-0.94140625,0.23730469,0.2919922,4.46875,11.5625,4.34375,0.0,0.0,0.0
1696243355233,-0.9638672,0.296875,0.30664062,-21.5,9.53125,19.6875,0.0,0.0,0.0
1696243355262,-0.85546875,0.07519531,0.21386719,30.625,5.5625,32.75,0.0,0.0,0.0
1696243355325,-1.3046875,-0.11328125,0.28808594,38.5,35.40625,-12.75,0.0,0.0,0.0
1696243355359,-1.4277344,0.31445312,-0.14257812,-18.90625,44.625,-28.65625,0.0,0.0,0.0
1696243355382,-1.3154297,0.3046875,0.009765625,24.34375,-1.9375,9.46875,0.0,0.0,0.0
1696243355446,-1.7050781,0.18164062,0.27441406,-19.53125,-16.03125,2.21875,-93.875,38.0,-82.25
1696243355475,-0.7548828,-0.068359375,-0.125,-56.28125,-38.5,2.65625,0.0,0.0,0.0
1696243355504,-1.0195312,-0.33398438,0.0146484375,-83.875,30.84375,-14.125,0.0,0.0,0.0
1696243355563,-1.1015625,0.11425781,0.0068359375,0.25,31.5625,-13.65625,0.0,0.0,0.0
1696243355594,-0.8769531,0.10546875,0.13964844,-34.71875,20.84375,-5.90625,0.0,0.0,0.0
1696243355623,-1.0078125,0.12695312,0.12695312,2.5625,10.8125,1.53125,0.0,0.0,0.0
1696243355681,-1.0371094,-0.05859375,0.18359375,6.59375,1.3125,-4.5,0.0,0.0,0.0
1696243355711,-1.0253906,0.06640625,0.16015625,-21.59375,0.09375,-6.21875,0.0,0.0,0.0
1696243355743,-1.015625,0.034179688,0.07714844,4.15625,4.34375,0.3125,0.0,0.0,0.0
1696243355804,-0.9902344,0.09277344,0.11621094,1.28125,4.28125,-1.3125,0.0,0.0,0.0
1696243355832,-1.0087891,0.08203125,0.14453125,3.90625,6.75,0.375,0.0,0.0,0.0
1696243355861,-0.96972656,0.037109375,0.11425781,-3.96875,1.78125,3.5625,0.0,0.0,0.0
1696243355923,-0.9892578,-0.009765625,0.14746094,-0.96875,5.15625,1.3125,-95.25,36.8125,-80.3125
1696243355953,-1.0078125,0.0048828125,0.14648438,-5.5625,-1.03125,1.78125,0.0,0.0,0.0
1696243355983,-0.92089844,0.028320312,0.12207031,-2.9375,-5.53125,2.59375,0.0,0.0,0.0
1696243356044,-0.92285156,-0.053710938,0.17675781,1.53125,4.0,-6.03125,0.0,0.0,0.0
1696243356072,-0.88378906,-0.21582031,0.1328125,9.15625,-1.0625,-26.40625,0.0,0.0,0.0
1696243356103,-1.1914062,-0.060546875,0.19824219,28.4375,-14.125,-33.1875,0.0,0.0,0.0
1696243356165,-0.80371094,0.3173828,0.13867188,49.375,-41.53125,-12.125,0.0,0.0,0.0
1696243356192,-0.87109375,0.10644531,0.107421875,-6.46875,-38.5625,12.21875,0.0,0.0,0.0
1696243356222,-1.046875,-0.045898438,0.013671875,4.09375,-36.71875,4.96875,0.0,0.0,0.0
1696243356284,-1.03125,0.034179688,0.15039062,22.34375,-34.40625,-2.90625,0.0,0.0,0.0
1696243356313,-0.9824219,0.12402344,0.17773438,-15.375,-28.71875,0.6875,0.0,0.0,0.0
1696243356348,-0.953125,0.0078125,0.13476562,7.15625,-20.5625,9.1875,0.0,0.0,0.0
1696243356406,-1.0761719,-0.13769531,0.24121094,-0.625,-17.9375,-6.375,-96.125,33.625,-76.875
1696243356433,-0.8984375,0.047851562,0.2578125,2.75,-13.46875,-12.90625,0.0,0.0,0.0
1696243356463,-0.953125,-0.068359375,0.328125,-2.375,-7.59375,1.65625,0.0,0.0,0.0
1696243356522,-1.0244141,-0.036132812,0.21875,18.375,-20.3125,-0.09375,0.0,0.0,0.0
1696243356555,-0.8457031,0.053710938,0.27539062,19.34375,-14.09375,-2.125,0.0,0.0,0.0
1696243356585,-0.95703125,-0.0048828125,0.27441406,9.8125,-14.03125,15.40625,0.0,0.0,0.0
1696243356645,-0.9951172,-0.099609375,0.27441406,20.1875,-15.40625,10.28125,0.0,0.0,0.0
1696243356674,-0.9091797,9.765625E-4,0.31347656,24.40625,-14.4375,-4.375,0.0,0.0,0.0
1696243356704,-0.8457031,0.001953125,0.39941406,21.65625,-7.84375,-8.65625,0.0,0.0,0.0
1696243356763,-0.9345703,0.037109375,0.46777344,18.5625,-12.78125,0.25,0.0,0.0,0.0
1696243356795,-0.79296875,-0.037109375,0.37890625,24.90625,-10.46875,9.3125,0.0,0.0,0.0
1696243356824,-0.875,-0.068359375,0.47070312,24.90625,-15.375,14.78125,0.0,0.0,0.0
1696243356886,-1.6386719,0.036132812,0.51660156,-12.21875,-12.75,7.46875,0.0,0.0,0.0
1696243356945,-1.3115234,0.068359375,0.36132812,-34.53125,12.90625,-42.65625,-96.3125,36.0625,-73.5625
1696243356952,-0.9111328,0.046875,0.31347656,3.34375,-5.65625,-33.96875,0.0,0.0,0.0
1696243357002,-0.6308594,0.23242188,0.3173828,23.6875,-9.625,-7.96875,0.0,0.0,0.0
1696243357033,-0.8339844,0.072265625,0.22167969,12.21875,1.1875,5.34375,0.0,0.0,0.0
1696243357063,-1.0869141,0.0087890625,0.33398438,24.34375,-8.9375,2.71875,0.0,0.0,0.0
1696243357125,-1.1582031,0.111328125,0.46972656,23.4375,-28.25,-9.3125,0.0,0.0,0.0
1696243357154,-1.0332031,0.15917969,0.42871094,28.875,-45.8125,-18.0,0.0,0.0,0.0
1696243357183,-0.9238281,-0.001953125,0.453125,36.8125,-51.84375,-11.28125,0.0,0.0,0.0
1696243357246,-0.8798828,0.0078125,0.43945312,31.75,-45.9375,-7.71875,0.0,0.0,0.0
1696243357272,-0.7949219,0.12402344,0.35839844,26.96875,-24.09375,-2.59375,0.0,0.0,0.0
1696243357305,-0.8623047,0.095703125,0.4140625,18.0625,-13.59375,3.3125,0.0,0.0,0.0
1696243357366,-0.7734375,0.15234375,0.4013672,2.625,1.375,2.28125,0.0,0.0,0.0
1696243357393,-0.7578125,0.16210938,0.33691406,0.0,12.90625,7.15625,-94.625,32.5625,-65.625
1696243357423,-0.77441406,0.10253906,0.37890625,-17.75,32.84375,13.6875,0.0,0.0,0.0
1696243357487,-0.79785156,0.041015625,0.3466797,-22.71875,46.21875,16.8125,0.0,0.0,0.0
1696243357513,-0.69140625,0.0126953125,0.34570312,-23.125,65.21875,17.90625,0.0,0.0,0.0
1696243357542,-0.7060547,0.16503906,0.25683594,-46.6875,95.0625,27.1875,0.0,0.0,0.0
1696243357606,-1.0615234,0.16308594,0.3544922,-56.28125,113.90625,27.96875,0.0,0.0,0.0
1696243357633,-1.1513672,-0.09472656,0.3173828,4.34375,84.4375,4.125,0.0,0.0,0.0
1696243357664,-1.0009766,0.14648438,0.3017578,-43.8125,38.71875,-17.625,0.0,0.0,0.0
1696243357724,-0.74902344,0.2861328,0.30664062,3.46875,6.78125,5.5625,0.0,0.0,0.0
1696243357752,-0.7578125,-0.07128906,0.0546875,35.9375,19.375,21.0625,0.0,0.0,0.0
1696243357784,-0.9638672,-0.07714844,0.16113281,-28.25,38.71875,-0.71875,0.0,0.0,0.0
1696243357842,-0.828125,0.23046875,0.1875,15.625,16.0,-5.21875,0.0,0.0,0.0
1696243357872,-0.8027344,0.32128906,0.31054688,-12.5,20.03125,5.9375,0.0,0.0,0.0
1696243357901,-1.0244141,0.28222656,0.22851562,-19.84375,20.84375,20.03125,-95.5625,34.5625,-83.125
1696243357963,-1.328125,-0.24511719,-0.06738281,13.625,21.6875,4.71875,0.0,0.0,0.0
1696243357992,-1.5205078,0.18164062,0.40429688,-22.875,17.0625,-30.5625,0.0,0.0,0.0
1696243358022,-1.5087891,0.203125,0.041015625,-39.0,-7.5,-21.53125,0.0,0.0,0.0
1696243358084,-1.21875,0.005859375,0.001953125,5.6875,-36.59375,8.25,0.0,0.0,0.0
1696243358111,-0.9277344,-0.17773438,-0.12792969,-33.5,1.71875,-15.90625,0.0,0.0,0.0
1696243358144,-1.0205078,0.059570312,-0.125,0.25,27.25,-30.75,0.0,0.0,0.0
1696243358204,-0.953125,0.07421875,0.022460938,7.1875,23.875,-12.90625,0.0,0.0,0.0
1696243358233,-0.9550781,0.12890625,0.044921875,-17.34375,14.375,0.5,0.0,0.0,0.0
1696243358268,-1.0332031,-0.047851562,0.021484375,7.3125,13.3125,1.65625,0.0,0.0,0.0
1696243358327,-0.9892578,-0.0107421875,0.0703125,-4.15625,13.3125,-3.21875,0.0,0.0,0.0
1696243358354,-1.078125,-0.034179688,0.08105469,-4.21875,18.34375,-0.78125,0.0,0.0,0.0
1696243358383,-1.0,-0.01171875,0.032226562,4.8125,10.875,0.09375,-96.3125,30.5,-85.5625
1696243358444,-0.9638672,0.06640625,0.09082031,10.5625,-0.21875,5.4375,0.0,0.0,0.0
1696243358473,-1.0224609,-0.015625,0.022460938,-0.78125,4.53125,5.6875,0.0,0.0,0.0
1696243358508,-0.9794922,-0.020507812,0.06640625,5.5,2.53125,4.28125,0.0,0.0,0.0
1696243358564,-0.96484375,0.055664062,0.1328125,-1.40625,0.25,5.03125,0.0,0.0,0.0
1696243358592,-0.9658203,-0.03125,0.061523438,-6.59375,-2.125,5.21875,0.0,0.0,0.0
1696243358651,-0.9501953,-0.016601562,0.10449219,13.90625,-13.09375,-0.03125,0.0,0.0,0.0
1696243358680,-0.9277344,-0.0087890625,0.06542969,7.75,-23.65625,-3.21875,0.0,0.0,0.0
1696243358712,-0.9267578,0.13183594,0.1484375,21.125,-54.59375,-0.46875,0.0,0.0,0.0
1696243358743,-0.8466797,0.17871094,0.08496094,10.5625,-50.15625,14.84375,0.0,0.0,0.0
1696243358804,-1.0351562,-0.109375,0.06640625,-8.78125,-28.65625,21.5625,0.0,0.0,0.0
1696243358833,-1.0244141,-0.0703125,0.2607422,5.25,-36.84375,-6.9375,0.0,0.0,0.0
1696243358863,-0.82421875,-0.033203125,0.14648438,30.34375,-50.34375,-5.15625,0.0,0.0,0.0
1696243358923,-0.76464844,0.10449219,0.26953125,20.6875,-42.28125,3.5,-97.0625,30.5,-78.5
1696243358953,-0.9550781,-0.029296875,0.24316406,-0.0625,-23.1875,7.34375,0.0,0.0,0.0
1696243358983,-0.8046875,-0.009765625,0.2548828,27.96875,-50.34375,0.75,0.0,0.0,0.0
1696243359043,-0.8144531,-0.08300781,0.15820312,32.65625,-27.125,15.03125,0.0,0.0,0.0
1696243359072,-1.5693359,0.009765625,0.31347656,-4.21875,-7.96875,-7.96875,0.0,0.0,0.0
1696243359103,-1.5234375,0.064453125,0.52441406,29.0625,-36.71875,-57.09375,0.0,0.0,0.0
1696243359163,-1.3310547,0.31347656,0.6591797,40.09375,-76.625,-40.875,0.0,0.0,0.0
1696243359225,-1.0214844,0.18554688,0.453125,22.71875,-56.375,-18.90625,0.0,0.0,0.0
1696243359230,-0.9355469,0.028320312,0.2705078,73.375,-60.28125,-7.71875,0.0,0.0,0.0
1696243359283,-0.88964844,0.12792969,0.33203125,48.53125,-53.03125,-3.9375,0.0,0.0,0.0
1696243359320,-0.8154297,0.15332031,0.4169922,68.84375,-51.0625,6.84375,0.0,0.0,0.0
1696243359342,-0.7011719,0.12695312,0.36523438,47.375,-30.375,9.90625,0.0,0.0,0.0
1696243359400,-0.8251953,0.203125,0.41601562,35.40625,-15.40625,12.59375,-94.0625,27.9375,-66.5
1696243359432,-0.8105469,0.12695312,0.46191406,28.5,-7.78125,5.5,0.0,0.0,0.0
1696243359461,-0.7080078,0.12207031,0.5175781,2.375,8.6875,4.46875,0.0,0.0,0.0
1696243359526,-0.796875,0.16503906,0.4658203,-3.125,18.46875,0.625,0.0,0.0,0.0
1696243359552,-0.7949219,0.10644531,0.4501953,-1.34375,33.71875,-8.65625,0.0,0.0,0.0
1696243359584,-0.76171875,0.19042969,0.42089844,-22.15625,45.5625,-11.28125,0.0,0.0,0.0
1696243359644,-0.7705078,0.111328125,0.47851562,-38.5,62.21875,-1.0625,0.0,0.0,0.0
1696243359673,-0.85058594,0.041992188,0.4189453,-41.5625,76.625,6.5625,0.0,0.0,0.0
1696243359704,-0.8466797,0.09082031,0.2919922,-39.375,80.78125,2.9375,0.0,0.0,0.0
1696243359764,-1.0019531,0.020507812,0.36132812,-35.71875,78.625,8.5,0.0,0.0,0.0
1696243359792,-0.9667969,0.03125,0.2861328,-46.75,62.875,-10.40625,0.0,0.0,0.0
1696243359822,-0.9511719,0.049804688,0.3701172,11.84375,30.34375,-10.65625,0.0,0.0,0.0
1696243359884,-0.89453125,0.060546875,0.29492188,23.375,6.4375,-10.78125,0.0,0.0,0.0
1696243359912,-0.7890625,0.06933594,0.1953125,38.5625,1.96875,-9.125,-97.5,25.6875,-77.625
1696243359945,-0.7392578,0.009765625,0.14355469,21.1875,11.4375,-9.6875,0.0,0.0,0.0
1696243360014,-0.76660156,0.12207031,0.06542969,21.90625,31.5,-3.53125,0.0,0.0,0.0
1696243360031,-0.8466797,0.23632812,0.25390625,55.96875,39.6875,7.03125,0.0,0.0,0.0
1696243360062,-1.0507812,0.27539062,0.37890625,33.03125,34.125,11.0625,0.0,0.0,0.0
1696243360123,-1.2646484,0.3828125,0.19238281,7.3125,33.09375,11.6875,0.0,0.0,0.0
1696243360153,-1.2773438,0.296875,-0.17773438,-5.5,76.9375,9.59375,0.0,0.0,0.0
1696243360181,-1.3300781,-0.25585938,0.017578125,-60.5625,36.9375,-10.28125,0.0,0.0,0.0
1696243360241,-1.3583984,0.0703125,-0.083984375,-10.9375,20.65625,-14.625,0.0,0.0,0.0
1696243360273,-1.2207031,0.08496094,0.091796875,2.1875,-9.1875,-9.1875,0.0,0.0,0.0
1696243360308,-0.8652344,0.0078125,-0.103515625,-14.21875,10.40625,-3.15625,0.0,0.0,0.0
1696243360365,-1.0732422,0.009765625,-0.20898438,-31.625,21.1875,-7.65625,0.0,0.0,0.0
1696243360394,-1.0068359,0.053710938,0.038085938,-7.15625,3.8125,-1.875,-94.5,22.0625,-88.6875
1696243360423,-1.0253906,-0.01953125,-0.09863281,-18.5,13.15625,-0.84375,0.0,0.0,0.0
1696243360483,-1.0019531,0.020507812,-0.064453125,5.0625,12.84375,4.15625,0.0,0.0,0.0
1696243360512,-1.0136719,0.12402344,-0.041992188,-7.15625,5.09375,6.3125,0.0,0.0,0.0
1696243360543,-0.99316406,-0.009765625,0.001953125,-1.59375,-2.0625,11.5625,0.0,0.0,0.0
1696243360605,-1.0175781,-0.10546875,-0.07324219,5.96875,-10.59375,8.03125,0.0,0.0,0.0
1696243360637,-1.0009766,0.015625,-0.0029296875,22.34375,-6.9375,6.625,0.0,0.0,0.0
1696243360669,-1.0175781,-0.0126953125,-0.045898438,22.09375,-4.5625,7.03125,0.0,0.0,0.0
1696243360725,-0.9707031,-0.016601562,-0.024414062,47.59375,-4.8125,8.3125,0.0,0.0,0.0
1696243360763,-0.9375,-9.765625E-4,-0.072265625,47.96875,1.4375,5.4375,0.0,0.0,0.0
1696243360786,-1.0039062,0.03515625,-0.02734375,60.84375,5.8125,3.875,0.0,0.0,0.0
1696243360844,-1.0537109,0.005859375,0.0048828125,74.53125,6.3125,4.34375,0.0,0.0,0.0
1696243360872,-0.98339844,0.09863281,0.033203125,78.625,7.28125,7.40625,0.0,0.0,0.0
1696243360904,-1.0527344,-0.09082031,-0.038085938,86.3125,-1.5625,7.78125,-93.75,20.75,-88.6875
1696243360967,-1.0185547,-0.051757812,-0.04296875,99.65625,3.9375,1.0,0.0,0.0,0.0
1696243360993,-0.9667969,0.08300781,-0.06347656,96.625,5.4375,5.75,0.0,0.0,0.0
1696243361022,-0.9453125,0.055664062,-0.0703125,101.6875,14.78125,9.59375,0.0,0.0,0.0
1696243361085,-0.96875,0.0703125,-0.123046875,70.0,25.09375,6.96875,0.0,0.0,0.0
1696243361114,-0.9609375,0.06738281,-0.046875,72.09375,26.875,16.25,0.0,0.0,0.0
1696243361143,-1.0439453,0.06347656,-0.043945312,55.46875,22.3125,22.96875,0.0,0.0,0.0
1696243361207,-1.0673828,-0.08496094,-0.05859375,36.0625,19.78125,21.6875,0.0,0.0,0.0
1696243361233,-1.1484375,-0.08496094,-0.036132812,36.6875,8.4375,24.75,0.0,0.0,0.0
1696243361267,-1.0166016,0.047851562,0.0703125,62.375,-5.78125,23.8125,0.0,0.0,0.0
1696243361326,-1.0166016,0.12890625,-0.015625,64.03125,-12.6875,32.125,0.0,0.0,0.0
1696243361352,-1.2714844,-0.1171875,-0.072265625,70.1875,-41.0,45.8125,0.0,0.0,0.0
1696243361384,-1.2539062,-0.125,-0.18652344,69.15625,-73.40625,19.75,-92.125,18.3125,-87.8125
1696243361443,-1.0429688,0.1484375,0.059570312,55.40625,-109.71875,-11.28125,0.0,0.0,0.0
1696243361506,-1.0810547,0.0,-0.059570312,58.96875,-127.53125,-29.8125,0.0,0.0,0.0
1696243361512,-1.1386719,-0.037109375,-0.3046875,65.78125,-114.90625,-42.15625,0.0,0.0,0.0
1696243361568,-1.2519531,-0.02734375,-0.15527344,155.28125,-100.1875,-48.125,0.0,0.0,0.0
1696243361593,-1.1464844,-0.057617188,-0.09277344,180.25,-94.34375,-62.28125,0.0,0.0,0.0
1696243361623,-0.9248047,0.12207031,-0.037109375,190.3125,-82.0625,-72.3125,0.0,0.0,0.0
1696243361684,-0.8300781,0.107421875,0.0029296875,175.71875,-74.875,-57.96875,0.0,0.0,0.0
1696243361713,-0.83691406,-0.08496094,0.015625,166.25,-43.75,-51.3125,0.0,0.0,0.0
1696243361744,-0.8330078,-0.009765625,0.036132812,154.34375,-15.71875,-46.65625,0.0,0.0,0.0
1696243361803,-0.8095703,0.13769531,0.025390625,140.375,13.03125,-28.78125,0.0,0.0,0.0
1696243361832,-0.9355469,0.203125,0.1015625,136.15625,26.6875,-6.5,0.0,0.0,0.0
1696243361863,-1.0117188,0.32714844,0.2529297,94.0,21.3125,-9.375,0.0,0.0,0.0
1696243361923,-1.0351562,0.20214844,0.34375,87.65625,-1.75,9.40625,-90.0,21.0625,-57.375
1696243361952,-1.0722656,0.026367188,0.35058594,105.34375,-31.34375,5.6875,0.0,0.0,0.0
1696243361982,-1.0126953,0.056640625,0.39648438,112.4375,-37.15625,-17.25,0.0,0.0,0.0
1696243362044,-0.7421875,-0.095703125,0.20410156,87.40625,-25.5,-44.46875,0.0,0.0,0.0
1696243362072,-0.6972656,0.12597656,0.14648438,75.125,-1.375,-54.53125,0.0,0.0,0.0
1696243362103,-1.328125,0.5625,-0.044921875,35.59375,5.6875,-38.84375,0.0,0.0,0.0
1696243362161,-1.3427734,0.4033203,0.2109375,60.65625,7.03125,3.125,0.0,0.0,0.0
1696243362194,-0.7470703,0.028320312,-0.049804688,38.4375,1.71875,-2.25,0.0,0.0,0.0
1696243362223,-0.8925781,-0.24023438,-0.24804688,-17.6875,56.0625,-1.75,0.0,0.0,0.0
1696243362285,-1.1259766,-0.16113281,-0.0078125,48.875,25.78125,-21.15625,0.0,0.0,0.0
1696243362316,-0.98339844,0.17480469,0.20019531,68.59375,16.0,-25.1875,0.0,0.0,0.0
1696243362340,-1.0341797,0.123046875,0.20703125,44.25,7.34375,-12.25,0.0,0.0,0.0
1696243362400,-0.99316406,0.041015625,0.0234375,8.96875,7.59375,-6.15625,-91.625,21.9375,-56.1875
1696243362436,-1.0029297,0.049804688,-0.030273438,35.46875,17.21875,-7.65625,0.0,0.0,0.0
1696243362461,-0.9404297,0.12207031,0.036132812,39.6875,19.25,-15.84375,0.0,0.0,0.0
1696243362523,-0.99316406,0.20117188,0.13183594,15.8125,12.59375,-13.53125,0.0,0.0,0.0
1696243362554,-1.0439453,0.10449219,0.19726562,18.5625,0.25,0.8125,0.0,0.0,0.0
1696243362582,-0.99316406,-0.049804688,0.049804688,12.09375,4.90625,1.125,0.0,0.0,0.0
1696243362646,-1.0351562,-0.078125,0.08691406,19.84375,4.28125,-10.46875,0.0,0.0,0.0
1696243362677,-0.9892578,0.038085938,0.18164062,27.21875,2.34375,-16.6875,0.0,0.0,0.0
1696243362703,-0.94921875,0.041015625,0.23144531,13.96875,-3.03125,-7.78125,0.0,0.0,0.0
1696243362765,-0.97558594,0.0078125,0.24902344,7.875,-17.75,-3.65625,0.0,0.0,0.0
1696243362792,-0.75390625,-0.043945312,0.17871094,1.53125,-38.8125,-2.0,0.0,0.0,0.0
1696243362823,-0.82421875,-0.10253906,0.19726562,-6.03125,-59.65625,-6.09375,0.0,0.0,0.0
1696243362885,-0.9716797,0.013671875,0.19921875,-0.71875,-51.625,-13.03125,0.0,0.0,0.0
1696243362913,-0.90234375,0.04296875,0.14550781,28.5,-33.5,-2.1875,-89.875,22.375,-52.5625
1696243362942,-0.8330078,0.051757812,0.17871094,21.71875,-39.28125,4.40625,0.0,0.0,0.0
1696243363001,-0.8828125,0.05078125,0.25976562,20.09375,-33.375,4.125,0.0,0.0,0.0
1696243363031,-0.9580078,0.061523438,0.29101562,1.9375,-36.1875,4.78125,0.0,0.0,0.0
1696243363061,-0.8457031,0.0234375,0.29589844,-5.25,-33.375,11.625,0.0,0.0,0.0
1696243363122,-0.83203125,-0.021484375,0.3388672,9.34375,-38.6875,17.34375,0.0,0.0,0.0
1696243363152,-1.2480469,0.049804688,0.32128906,17.34375,-40.1875,26.5,0.0,0.0,0.0
1696243363183,-1.5791016,0.20800781,0.5214844,-4.09375,-46.125,-8.71875,0.0,0.0,0.0
1696243363244,-1.0576172,0.2841797,0.4609375,19.84375,-64.4375,-9.0,0.0,0.0,0.0
1696243363272,-1.09375,0.13183594,0.4921875,4.09375,-53.375,20.71875,0.0,0.0,0.0
1696243363304,-0.99121094,0.16992188,0.3857422,2.0625,-8.28125,-13.84375,0.0,0.0,0.0
1696243363365,-0.8486328,0.07324219,0.51953125,38.6875,2.78125,-22.75,0.0,0.0,0.0
1696243363393,-0.85058594,0.08496094,0.43847656,41.5,-5.84375,-25.625,-80.5625,23.5625,-45.375
1696243363423,-0.99316406,0.038085938,0.4404297,62.125,-29.9375,-27.1875,0.0,0.0,0.0
1696243363483,-0.8720703,0.34375,0.48632812,44.25,-39.78125,-24.625,0.0,0.0,0.0
1696243363512,-0.7265625,0.24511719,0.49121094,25.875,-30.625,-6.5625,0.0,0.0,0.0
1696243363544,-0.87890625,0.12011719,0.4638672,7.9375,-13.84375,-4.625,0.0,0.0,0.0
1696243363604,-0.8144531,0.12597656,0.48242188,21.53125,-7.71875,-6.4375,0.0,0.0,0.0
1696243363633,-0.7441406,0.21582031,0.453125,15.5,7.09375,1.78125,0.0,0.0,0.0
1696243363662,-0.72265625,0.18847656,0.43847656,0.5,25.96875,3.5625,0.0,0.0,0.0
1696243363721,-0.8066406,0.15136719,0.41210938,-23.5625,44.9375,3.8125,0.0,0.0,0.0
1696243363781,-0.78222656,0.12792969,0.37304688,-31.875,50.0625,3.625,0.0,0.0,0.0
1696243363787,-0.7451172,0.12207031,0.33691406,-52.5,80.03125,-0.09375,0.0,0.0,0.0
1696243363841,-0.7597656,0.08300781,0.24609375,-55.46875,97.625,16.0625,0.0,0.0,0.0
1696243363871,-1.0107422,0.06347656,0.26757812,-56.59375,110.5,22.125,0.0,0.0,0.0
1696243363904,-1.1679688,0.095703125,0.32421875,-44.3125,85.28125,12.46875,-85.625,24.3125,-52.4375
1696243363963,-1.1132812,0.09472656,0.5546875,-14.03125,60.3125,-7.4375,0.0,0.0,0.0
1696243363992,-0.9902344,0.08984375,0.28710938,-14.09375,14.375,-5.84375,0.0,0.0,0.0
1696243364023,-0.8417969,0.15429688,0.18554688,-0.25,-10.28125,-4.75,0.0,0.0,0.0
1696243364086,-0.7089844,0.029296875,0.13183594,-17.15625,9.46875,-7.25,0.0,0.0,0.0
1696243364111,-0.7919922,-0.052734375,0.0078125,-8.84375,18.5625,-2.40625,0.0,0.0,0.0
1696243364146,-0.8564453,0.107421875,0.10839844,25.09375,34.03125,-10.0,0.0,0.0,0.0
1696243364204,-0.88964844,0.15625,0.07910156,15.5625,33.15625,-3.75,0.0,0.0,0.0
1696243364232,-0.86816406,0.15917969,0.23339844,0.625,28.46875,2.84375,0.0,0.0,0.0
1696243364263,-0.8457031,0.21582031,0.24511719,-22.34375,13.625,16.25,0.0,0.0,0.0
1696243364325,-1.2294922,0.04296875,0.36621094,-30.28125,24.75,19.0,0.0,0.0,0.0
1696243364355,-1.6308594,0.055664062,-0.09472656,-25.03125,12.40625,-2.1875,0.0,0.0,0.0
1696243364384,-1.3691406,0.06542969,0.53125,15.875,-27.8125,-9.5,-90.625,20.4375,-60.0625
1696243364442,-1.4404297,0.087890625,0.12792969,-52.75,-37.625,-3.8125,0.0,0.0,0.0
1696243364472,-0.94140625,-0.20019531,-0.14648438,6.46875,-19.28125,-1.125,0.0,0.0,0.0
1696243364503,-1.0263672,-0.103515625,-0.19921875,-14.90625,22.125,-34.78125,0.0,0.0,0.0
1696243364564,-0.94433594,0.2626953,-0.00390625,22.28125,29.375,-20.90625,0.0,0.0,0.0
1696243364592,-0.89160156,0.18164062,0.04296875,-10.1875,19.3125,-1.5625,0.0,0.0,0.0
1696243364621,-1.0449219,-0.107421875,0.0625,-2.5,7.46875,1.96875,0.0,0.0,0.0
1696243364685,-1.0654297,-0.099609375,0.12988281,-0.90625,10.53125,-7.0,0.0,0.0,0.0
1696243364714,-0.9892578,-0.00390625,0.13769531,4.03125,10.65625,-3.53125,0.0,0.0,0.0
1696243364747,-0.96875,0.025390625,0.044921875,18.8125,5.875,1.1875,0.0,0.0,0.0
1696243364804,-1.0136719,-0.0078125,0.1015625,25.9375,8.1875,1.0,0.0,0.0,0.0
1696243364834,-1.0107422,0.0546875,0.16894531,22.875,12.84375,0.875,0.0,0.0,0.0
1696243364861,-0.9873047,0.0068359375,0.12109375,11.65625,8.4375,4.59375,0.0,0.0,0.0
1696243364924,-1.0009766,0.0078125,0.12109375,19.65625,5.9375,7.53125,-92.875,19.8125,-60.625
1696243364963,-0.9716797,-0.00390625,0.11230469,0.375,-9.625,2.34375,0.0,0.0,0.0
1696243364983,-0.8535156,0.087890625,0.03125,15.3125,-30.25,7.59375,0.0,0.0,0.0
1696243365045,-0.92089844,-0.03515625,-0.02734375,8.125,-48.125,9.53125,0.0,0.0,0.0
1696243365075,-0.9189453,0.20019531,0.13183594,13.84375,-58.03125,6.90625,0.0,0.0,0.0
1696243365102,-0.8886719,-9.765625E-4,0.037109375,-9.875,-46.5,6.75,0.0,0.0,0.0
1696243365165,-0.9921875,-0.033203125,0.15820312,-13.375,-36.34375,-1.6875,0.0,0.0,0.0
1696243365193,-0.8779297,-0.05859375,0.09277344,31.875,-41.78125,-4.4375,0.0,0.0,0.0
1696243365229,-0.734375,0.08496094,0.16210938,21.375,-26.03125,-6.375,0.0,0.0,0.0
1696243365281,-1.0576172,-0.021484375,0.27734375,14.34375,-20.71875,-0.96875,0.0,0.0,0.0
1696243365312,-1.0175781,-0.052734375,0.34179688,34.375,-42.28125,-14.1875,0.0,0.0,0.0
1696243365341,-0.63671875,0.07714844,0.328125,22.65625,-40.625,-2.3125,0.0,0.0,0.0
1696243365404,-1.1328125,-0.064453125,0.3173828,11.71875,-59.0,35.3125,-87.4375,21.5,-52.125
1696243365432,-1.3095703,0.21386719,0.34375,-3.90625,-58.34375,-0.59375,0.0,0.0,0.0
1696243365462,-1.2373047,0.13574219,0.4921875,23.75,-63.75,-2.0625,0.0,0.0,0.0
1696243365526,-1.4990234,0.12402344,0.6015625,-3.96875,-59.625,5.9375,0.0,0.0,0.0
1696243365554,-0.9277344,0.18164062,0.5214844,24.53125,-31.90625,-4.1875,0.0,0.0,0.0
1696243365584,-0.7548828,0.111328125,0.41015625,32.53125,-22.125,-10.46875,0.0,0.0,0.0
1696243365676,-0.7089844,0.10644531,0.40625,15.6875,-17.0,-12.375,0.0,0.0,0.0
1696243365683,-0.8857422,-0.057617188,0.3671875,79.90625,-38.96875,-8.84375,0.0,0.0,0.0
1696243365701,-0.8339844,0.31445312,0.48242188,32.46875,-29.46875,-12.1875,0.0,0.0,0.0
1696243365768,-0.89746094,0.22265625,0.50097656,1.90625,-13.40625,-8.84375,0.0,0.0,0.0
1696243365794,-0.9355469,0.05078125,0.45410156,5.5625,-13.65625,-18.21875,0.0,0.0,0.0
1696243365824,-0.8261719,0.103515625,0.49414062,8.59375,-11.625,-17.375,0.0,0.0,0.0
1696243365889,-0.7792969,0.20507812,0.50683594,1.53125,-4.625,-6.9375,0.0,0.0,0.0
1696243365912,-0.7470703,0.15234375,0.50097656,5.96875,7.96875,-1.03125,-80.25,26.875,-45.0625
1696243365941,-0.7548828,0.15039062,0.4609375,-3.96875,21.875,3.125,0.0,0.0,0.0
1696243366005,-0.8066406,0.13964844,0.46484375,-13.25,32.6875,3.0625,0.0,0.0,0.0
1696243366063,-0.8076172,0.10449219,0.49902344,-14.53125,40.96875,1.125,0.0,0.0,0.0
1696243366068,-0.8496094,0.0234375,0.4716797,-24.46875,53.84375,1.53125,0.0,0.0,0.0
1696243366121,-0.82421875,0.07128906,0.40820312,-36.9375,64.15625,-4.5625,0.0,0.0,0.0
1696243366153,-0.78808594,0.15722656,0.39453125,-53.40625,84.625,7.96875,0.0,0.0,0.0
1696243366184,-0.9824219,0.09863281,0.4501953,-51.5,96.40625,25.03125,0.0,0.0,0.0
1696243366245,-0.9814453,0.049804688,0.37695312,-42.0625,79.375,22.46875,0.0,0.0,0.0
1696243366273,-0.94628906,0.03125,0.31054688,-30.34375,59.71875,19.1875,0.0,0.0,0.0
1696243366302,-1.1044922,-0.040039062,0.4736328,-10.875,35.125,-0.90625,0.0,0.0,0.0
1696243366365,-0.7685547,-0.061523438,0.057617188,-18.5625,-4.3125,-29.28125,0.0,0.0,0.0
1696243366395,-0.59472656,0.10449219,0.06640625,16.34375,9.1875,-16.65625,-93.0,22.8125,-54.8125
1696243366425,-0.77734375,0.06640625,0.20117188,48.28125,11.9375,2.34375,0.0,0.0,0.0
1696243366485,-0.71875,0.13476562,0.09277344,5.4375,19.375,-6.09375,0.0,0.0,0.0
1696243366516,-0.6855469,0.18066406,0.1875,5.25,20.78125,5.4375,0.0,0.0,0.0
1696243366542,-0.7607422,0.23144531,0.20410156,-19.96875,12.84375,22.125,0.0,0.0,0.0
1696243366605,-0.8027344,0.29589844,0.26367188,-16.25,11.9375,38.15625,0.0,0.0,0.0
1696243366633,-1.5361328,-0.07324219,0.19238281,87.71875,34.4375,21.0625,0.0,0.0,0.0
1696243366668,-2.0,0.27734375,0.0087890625,-90.34375,52.9375,-42.65625,0.0,0.0,0.0
1696243366723,-0.28808594,0.2919922,0.04296875,3.78125,-124.90625,-43.6875,0.0,0.0,0.0
1696243366754,-0.07519531,-0.3984375,-0.3125,24.46875,-8.03125,45.0,0.0,0.0,0.0
1696243366781,-2.0,-0.5126953,0.12109375,-148.1875,23.15625,-43.875,0.0,0.0,0.0
1696243366843,-0.71484375,0.51171875,0.24316406,28.875,31.40625,-31.84375,0.0,0.0,0.0
1696243366879,-0.6640625,0.4091797,-0.021484375,-18.25,30.71875,14.96875,0.0,0.0,0.0
1696243366910,-1.1396484,-0.34570312,0.043945312,28.8125,20.90625,6.125,-94.375,23.75,-59.625
1696243366965,-0.9785156,0.05078125,0.18359375,-42.0,12.65625,-13.28125,0.0,0.0,0.0
1696243366993,-1.0625,-0.083984375,0.109375,-23.875,9.71875,6.5,0.0,0.0,0.0
1696243367022,-1.0009766,-0.14941406,-0.15820312,26.0,8.4375,0.4375,0.0,0.0,0.0
1696243367088,-1.0283203,0.13183594,0.14550781,34.90625,11.5625,-8.34375,0.0,0.0,0.0
1696243367112,-1.0195312,0.111328125,0.09375,13.1875,9.0625,2.875,0.0,0.0,0.0
1696243367143,-0.9326172,-0.0546875,0.0546875,2.125,-1.625,2.28125,0.0,0.0,0.0
1696243367205,-0.8808594,-0.037109375,0.14257812,7.15625,-6.625,-0.03125,0.0,0.0,0.0
1696243367237,-0.9794922,0.04296875,0.2109375,4.75,-13.09375,-0.78125,0.0,0.0,0.0
1696243367261,-1.0048828,0.005859375,0.24414062,6.34375,-21.28125,0.875,0.0,0.0,0.0
1696243367326,-0.84765625,0.024414062,0.19238281,6.28125,-25.8125,5.40625,0.0,0.0,0.0
1696243367353,-0.78808594,0.07714844,0.16699219,-8.59375,-39.15625,9.65625,0.0,0.0,0.0
1696243367383,-0.72753906,0.049804688,0.103515625,-6.71875,-48.0625,14.65625,-93.625,26.0,-57.5
1696243367443,-0.6533203,0.11328125,0.17285156,-1.53125,-48.0,25.03125,0.0,0.0,0.0
1696243367474,-0.94433594,-0.15527344,0.12207031,-22.59375,-48.5,27.59375,0.0,0.0,0.0
1696243367504,-0.76464844,-0.030273438,0.3173828,25.875,-67.90625,19.5,0.0,0.0,0.0
1696243367564,-0.8027344,-0.24121094,0.2705078,12.28125,-79.75,20.65625,0.0,0.0,0.0
1696243367593,-1.7919922,-0.005859375,0.36914062,57.375,-98.3125,10.46875,0.0,0.0,0.0
1696243367624,-1.7480469,0.3642578,0.7763672,39.0,-96.96875,-51.6875,0.0,0.0,0.0
1696243367688,-1.3330078,0.41796875,0.7558594,10.75,-71.875,-33.65625,0.0,0.0,0.0
1696243367712,-1.0009766,0.11035156,0.47460938,-11.28125,-8.03125,-29.46875,0.0,0.0,0.0
1696243367742,-0.9658203,0.119140625,0.20214844,55.0,-13.53125,-34.65625,0.0,0.0,0.0
1696243367805,-0.67285156,0.43164062,0.36523438,15.0625,-17.3125,-24.875,0.0,0.0,0.0
1696243367831,-0.6376953,-0.08496094,0.38671875,86.1875,-28.25,-2.78125,0.0,0.0,0.0
1696243367862,-0.80078125,0.125,0.4248047,74.21875,-31.78125,3.5,0.0,0.0,0.0
1696243367921,-0.8457031,0.54296875,0.44921875,18.1875,-13.78125,-0.53125,-82.1875,35.4375,-46.5625
1696243367951,-0.8964844,0.26660156,0.5253906,0.1875,-13.65625,12.84375,0.0,0.0,0.0
1696243367984,-0.87402344,0.08886719,0.61621094,-7.375,-1.1875,13.375,0.0,0.0,0.0
1696243368043,-0.7714844,0.16308594,0.49902344,-15.0,3.9375,10.875,0.0,0.0,0.0
1696243368081,-0.6904297,0.16503906,0.49316406,0.5625,15.46875,10.03125,0.0,0.0,0.0
1696243368104,-0.71484375,0.21289062,0.44921875,-6.96875,24.1875,11.75,0.0,0.0,0.0
1696243368163,-0.7832031,0.15722656,0.47070312,-10.5625,35.40625,1.375,0.0,0.0,0.0
1696243368194,-0.77734375,0.14550781,0.43945312,-24.34375,51.03125,-1.9375,0.0,0.0,0.0
1696243368222,-0.828125,0.171875,0.45507812,-44.875,67.15625,-2.0,0.0,0.0,0.0
1696243368286,-0.90625,0.11816406,0.44140625,-43.09375,70.75,-0.65625,0.0,0.0,0.0
1696243368343,-0.89453125,0.12207031,0.37109375,-37.59375,68.3125,3.0625,0.0,0.0,0.0
1696243368350,-0.921875,0.13964844,0.36132812,-43.59375,79.0625,18.875,0.0,0.0,0.0
1696243368401,-1.1074219,0.13574219,0.4501953,-47.71875,82.46875,18.6875,-89.6875,34.5625,-52.125
1696243368438,-0.9736328,0.123046875,0.31933594,-35.28125,55.0,-5.59375,0.0,0.0,0.0
1696243368460,-0.95703125,0.1015625,0.33789062,-30.625,38.65625,-10.53125,0.0,0.0,0.0
1696243368523,-0.8222656,-0.02734375,0.17285156,-1.90625,28.59375,-16.65625,0.0,0.0,0.0
1696243368555,-0.6464844,0.12109375,0.12402344,14.59375,17.53125,-11.03125,0.0,0.0,0.0
1696243368593,-0.5605469,0.0859375,0.12402344,21.0,28.78125,0.25,0.0,0.0,0.0
1696243368647,-0.67578125,0.09765625,0.18261719,0.25,29.625,3.9375,0.0,0.0,0.0
1696243368681,-0.6748047,0.26464844,0.15332031,-6.28125,7.84375,3.9375,0.0,0.0,0.0
1696243368703,-0.57128906,0.19824219,0.14550781,-51.09375,11.96875,18.5,0.0,0.0,0.0
1696243368767,-1.4609375,0.4013672,0.21875,-61.03125,17.84375,24.6875,0.0,0.0,0.0
1696243368791,-1.6103516,-0.80371094,-0.06640625,107.90625,28.65625,-16.59375,0.0,0.0,0.0
1696243368821,-2.0,0.56640625,1.9873047,-152.03125,-90.875,-9.3125,0.0,0.0,0.0
1696243368883,0.10253906,0.47070312,-0.4326172,73.3125,-88.125,6.3125,0.0,0.0,0.0
1696243368913,-1.2050781,-1.0058594,-0.5205078,-135.375,69.65625,52.21875,-89.6875,27.9375,-54.8125
1696243368941,-1.3828125,0.34472656,-0.17871094,-37.71875,109.6875,-60.21875,0.0,0.0,0.0
1696243369002,-0.6347656,0.5966797,0.46777344,-2.75,23.03125,-4.5,0.0,0.0,0.0
1696243369031,-0.9169922,0.07128906,0.038085938,-39.375,26.6875,25.65625,0.0,0.0,0.0
1696243369064,-1.1542969,-0.41992188,0.0703125,6.90625,22.1875,-9.5,0.0,0.0,0.0
1696243369123,-0.9765625,0.032226562,0.234375,-30.6875,7.28125,-17.3125,0.0,0.0,0.0
1696243369157,-1.0664062,0.13574219,0.171875,-1.84375,-7.90625,3.125,0.0,0.0,0.0
1696243369183,-0.95214844,-0.12792969,-0.21582031,26.1875,3.3125,-3.21875,0.0,0.0,0.0
1696243369243,-1.078125,0.14453125,0.16601562,20.25,18.875,-6.9375,0.0,0.0,0.0
1696243369272,-0.99902344,0.072265625,0.0703125,7.6875,18.6875,4.28125,0.0,0.0,0.0
1696243369303,-0.95214844,-0.047851562,0.06738281,17.15625,6.0,2.28125,0.0,0.0,0.0
1696243369363,-0.9980469,0.020507812,0.12109375,10.5625,8.8125,-0.90625,0.0,0.0,0.0
1696243369390,-0.95996094,-0.020507812,0.09277344,12.21875,11.25,-0.15625,-95.5625,25.8125,-59.75
1696243369421,-1.0078125,0.0029296875,0.1484375,18.0,6.90625,6.125,0.0,0.0,0.0
1696243369483,-0.99609375,0.005859375,0.09277344,18.8125,7.71875,7.53125,0.0,0.0,0.0
1696243369511,-1.0039062,0.0087890625,0.14746094,21.65625,8.125,4.78125,0.0,0.0,0.0
1696243369541,-0.96484375,0.032226562,0.12109375,13.4375,4.15625,3.9375,0.0,0.0,0.0
1696243369605,-0.9375,0.038085938,0.16699219,-6.71875,-12.125,3.625,0.0,0.0,0.0
1696243369633,-0.8251953,0.0126953125,0.10644531,-6.15625,-39.46875,6.1875,0.0,0.0,0.0
1696243369661,-0.8564453,-0.06640625,0.04296875,1.78125,-58.5,3.4375,0.0,0.0,0.0
1696243369724,-0.7558594,0.11621094,-0.09863281,-10.25,-81.78125,3.75,0.0,0.0,0.0
1696243369755,-0.47753906,0.15039062,0.0146484375,23.0,-59.4375,14.3125,0.0,0.0,0.0
1696243369787,-0.8330078,-0.11035156,0.2265625,-17.28125,-20.90625,35.25,0.0,0.0,0.0
1696243369846,-0.9736328,0.038085938,0.4013672,30.28125,-48.0625,9.90625,0.0,0.0,0.0
1696243369872,-0.54589844,0.00390625,0.23242188,14.21875,-51.6875,13.75,0.0,0.0,0.0
1696243369935,-1.0888672,-0.17382812,0.19921875,26.1875,-89.09375,49.9375,-86.875,31.25,-51.375
1696243369972,-2.0,-0.034179688,0.52734375,73.0625,-98.25,-25.96875,0.0,0.0,0.0
1696243369995,-1.1669922,0.5527344,0.73535156,-74.9375,-38.84375,-117.65625,0.0,0.0,0.0
1696243370026,-0.91503906,-0.04296875,0.27929688,-24.34375,7.96875,-46.625,0.0,0.0,0.0
1696243370085,-0.81640625,0.13476562,0.20898438,17.03125,-10.46875,-40.625,0.0,0.0,0.0
1696243370113,-0.71972656,0.32910156,0.2939453,66.71875,-18.90625,-19.15625,0.0,0.0,0.0
1696243370141,-0.5986328,0.07519531,0.30664062,87.21875,-23.96875,9.90625,0.0,0.0,0.0
1696243370204,-0.8300781,0.171875,0.39160156,41.75,-20.0,33.90625,0.0,0.0,0.0
1696243370233,-1.1679688,0.27246094,0.28222656,-3.78125,-18.28125,9.3125,0.0,0.0,0.0
1696243370265,-1.0009766,-0.021484375,0.47460938,23.3125,-19.75,-15.71875,0.0,0.0,0.0
1696243370323,-0.85253906,0.07519531,0.51953125,-0.4375,-12.90625,-4.625,0.0,0.0,0.0
1696243370354,-0.79296875,0.18945312,0.43359375,-12.4375,-7.59375,1.375,0.0,0.0,0.0
1696243370413,-0.8066406,0.091796875,0.46679688,8.84375,-4.25,9.34375,-82.1875,34.375,-42.6875
1696243370444,-0.7441406,0.1328125,0.4033203,2.0,4.78125,11.8125,0.0,0.0,0.0
1696243370470,-0.77734375,0.17285156,0.4404297,-13.375,23.46875,13.3125,0.0,0.0,0.0
1696243370501,-0.78808594,0.12109375,0.45410156,-28.625,39.5625,11.125,0.0,0.0,0.0
1696243370563,-0.76171875,0.0859375,0.38476562,-49.0625,61.4375,16.75,0.0,0.0,0.0
1696243370624,-0.7841797,0.038085938,0.3642578,-54.75,88.21875,22.59375,0.0,0.0,0.0
1696243370631,-0.81152344,0.005859375,0.24804688,-51.5625,106.84375,21.1875,0.0,0.0,0.0
1696243370684,-1.0019531,0.072265625,0.19140625,-64.9375,130.09375,12.53125,0.0,0.0,0.0
1696243370712,-1.0566406,0.055664062,0.28222656,-17.9375,106.53125,-13.34375,0.0,0.0,0.0
1696243370744,-0.8486328,0.18261719,0.33984375,-12.6875,51.03125,-18.34375,0.0,0.0,0.0
1696243370805,-0.72558594,0.072265625,0.3486328,-8.46875,-15.90625,-13.28125,0.0,0.0,0.0
1696243370833,-0.48046875,-0.005859375,0.23339844,19.65625,-33.84375,-9.5625,0.0,0.0,0.0
1696243370863,-0.46484375,-0.1171875,0.26660156,4.28125,-32.09375,16.5625,0.0,0.0,0.0
1696243370924,-0.7236328,0.017578125,-0.0107421875,-52.0,-5.59375,3.125,-89.875,27.5,-51.1875
1696243370953,-1.2265625,0.16894531,0.12207031,14.34375,38.40625,-0.09375,0.0,0.0,0.0
1696243370984,-2.0,0.16796875,0.10449219,71.71875,54.46875,-26.46875,0.0,0.0,0.0
1696243371048,-1.7001953,0.38183594,-0.37695312,-105.53125,-171.4375,-11.75,0.0,0.0,0.0
1696243371072,-0.22851562,-0.16699219,-0.3154297,21.96875,-63.40625,76.4375,0.0,0.0,0.0
1696243371102,-2.0,-0.64941406,0.25195312,-152.28125,72.90625,-35.5,0.0,0.0,0.0
1696243371164,-0.95410156,0.3720703,0.14550781,-0.5,61.78125,-47.78125,0.0,0.0,0.0
1696243371193,-0.5576172,0.29882812,0.15917969,-6.21875,44.5625,4.90625,0.0,0.0,0.0
1696243371221,-0.8701172,-0.09472656,-0.087890625,7.8125,45.90625,23.8125,0.0,0.0,0.0
1696243371285,-1.0673828,-0.115234375,0.16699219,-5.3125,36.65625,-4.5,0.0,0.0,0.0
1696243371320,-0.98828125,0.033203125,0.27441406,-14.21875,8.1875,-1.5,0.0,0.0,0.0
1696243371342,-1.0039062,0.01953125,-0.03515625,12.9375,-5.28125,12.03125,0.0,0.0,0.0
1696243371410,-1.0615234,-0.13867188,-0.060546875,11.40625,2.46875,-1.625,-92.25,24.625,-53.75
1696243371433,-1.046875,0.10839844,0.0107421875,19.21875,12.28125,-3.21875,0.0,0.0,0.0
1696243371463,-1.0302734,-9.765625E-4,0.041015625,19.21875,14.125,2.03125,0.0,0.0,0.0
1696243371525,-0.9785156,0.0078125,0.059570312,11.0625,15.09375,2.15625,0.0,0.0,0.0
1696243371557,-0.9785156,-0.03515625,0.09277344,16.78125,17.59375,5.03125,0.0,0.0,0.0
1696243371584,-0.97265625,-0.0107421875,0.06542969,14.46875,14.5,2.53125,0.0,0.0,0.0
1696243371644,-0.98535156,0.0,0.12402344,27.40625,14.25,7.96875,0.0,0.0,0.0
1696243371673,-1.0,-0.021484375,0.05078125,18.375,16.125,8.1875,0.0,0.0,0.0
1696243371704,-0.95996094,0.046875,0.21386719,16.59375,0.875,5.5625,0.0,0.0,0.0
1696243371786,-0.80078125,-0.037109375,0.11035156,-17.03125,-37.9375,0.625,0.0,0.0,0.0
1696243371828,-0.66015625,0.10058594,0.24511719,29.28125,-95.5625,12.34375,0.0,0.0,0.0
1696243371832,-0.54785156,0.09082031,0.07714844,-29.0,-96.40625,22.25,0.0,0.0,0.0
1696243371881,-0.6611328,-0.171875,-0.13769531,28.125,-72.6875,38.78125,0.0,0.0,0.0
1696243371911,-0.84375,-0.17578125,0.045898438,27.40625,-34.78125,10.09375,-87.3125,29.3125,-47.0
1696243371942,-0.59472656,-0.055664062,0.22265625,57.0,-36.0625,-13.53125,0.0,0.0,0.0
1696243372004,-1.3300781,0.1875,0.37402344,32.96875,-74.875,31.9375,0.0,0.0,0.0
1696243372032,-2.0,0.11621094,0.5595703,51.40625,-101.0625,18.21875,0.0,0.0,0.0
1696243372065,-1.8203125,0.36328125,0.7890625,8.0,-99.96875,-28.84375,0.0,0.0,0.0
1696243372122,-1.0117188,0.25683594,0.54785156,40.65625,-16.15625,-36.0,0.0,0.0,0.0
1696243372153,-0.8935547,0.21875,0.025390625,-5.8125,-2.125,-52.59375,0.0,0.0,0.0
1696243372183,-0.6748047,0.16796875,0.24414062,21.3125,-18.34375,-43.625,0.0,0.0,0.0
1696243372245,-0.6269531,0.045898438,0.1640625,120.78125,-26.96875,-2.25,0.0,0.0,0.0
1696243372273,-0.7246094,0.17089844,0.265625,113.15625,-34.46875,3.625,0.0,0.0,0.0
1696243372303,-0.7705078,0.5576172,0.30859375,31.125,-0.78125,3.5625,0.0,0.0,0.0
1696243372364,-0.953125,0.31054688,0.28027344,-23.1875,15.65625,9.65625,0.0,0.0,0.0
1696243372392,-0.93359375,0.12988281,0.3125,-18.125,26.625,1.59375,-73.9375,37.0625,-39.6875
1696243372423,-0.81152344,0.13574219,0.3515625,-29.53125,43.0625,-4.25,0.0,0.0,0.0
1696243372484,-0.78222656,0.18066406,0.3232422,-37.40625,66.625,2.84375,0.0,0.0,0.0
1696243372511,-0.81347656,0.2626953,0.2734375,-33.5,80.90625,15.53125,0.0,0.0,0.0
1696243372540,-0.91796875,0.20800781,0.16113281,-36.375,81.125,21.25,0.0,0.0,0.0
1696243372602,-0.9921875,0.005859375,0.25097656,-21.4375,88.15625,-3.09375,0.0,0.0,0.0
1696243372637,-1.0117188,0.053710938,0.4482422,-19.28125,77.34375,-21.46875,0.0,0.0,0.0
1696243372662,-0.89160156,0.087890625,0.35839844,-54.6875,51.28125,-34.15625,0.0,0.0,0.0
1696243372721,-0.765625,0.06640625,0.31347656,-34.65625,17.71875,-30.875,0.0,0.0,0.0
1696243372752,-0.53222656,0.07421875,0.047851562,18.75,-24.34375,-16.8125,0.0,0.0,0.0
1696243372783,-0.42089844,-0.07910156,0.14453125,40.34375,11.0,16.8125,0.0,0.0,0.0
1696243372843,-0.85839844,0.07421875,0.11328125,21.1875,36.03125,11.75,0.0,0.0,0.0
1696243372903,-0.94921875,0.5107422,0.29101562,15.375,22.46875,-2.125,0.0,0.0,0.0
1696243372931,-1.5957031,0.24609375,-0.09863281,19.09375,12.90625,7.78125,-83.25,28.8125,-48.6875
1696243372962,-2.0,-0.08300781,1.5214844,-84.65625,-10.28125,-45.5625,0.0,0.0,0.0
1696243372992,-0.3984375,0.64453125,-0.31933594,-17.53125,-130.65625,-1.03125,0.0,0.0,0.0
1696243373023,-1.140625,-0.90527344,-0.65527344,-26.25,44.75,18.625,0.0,0.0,0.0
1696243373084,-1.3164062,0.087890625,-0.171875,3.46875,61.375,-69.75,0.0,0.0,0.0
1696243373113,-0.76171875,0.7558594,0.19726562,9.59375,42.375,13.5,0.0,0.0,0.0
1696243373173,-0.89746094,-0.02734375,0.16113281,-9.9375,21.3125,36.28125,0.0,0.0,0.0
1696243373202,-1.0058594,-0.46289062,-0.12011719,55.90625,34.4375,13.8125,0.0,0.0,0.0
1696243373231,-0.96875,0.0029296875,0.0087890625,32.84375,35.0,-2.90625,0.0,0.0,0.0
1696243373261,-1.0302734,0.13867188,0.2783203,51.6875,19.375,14.5,0.0,0.0,0.0
1696243373325,-0.99902344,0.08300781,0.13476562,39.90625,10.53125,27.59375,0.0,0.0,0.0
1696243373354,-1.0087891,-0.23339844,-0.034179688,70.875,17.125,25.09375,0.0,0.0,0.0
1696243373446,-1.0488281,-0.13085938,0.045898438,85.75,33.40625,6.5,-85.8125,31.0625,-51.1875
1696243373474,-1.0898438,-0.01953125,0.03125,68.1875,31.625,7.28125,0.0,0.0,0.0
1696243373479,-1.0664062,0.01171875,0.04296875,64.75,18.6875,14.5625,0.0,0.0,0.0
1696243373503,-0.9892578,-0.036132812,0.07519531,63.0625,5.34375,16.4375,0.0,0.0,0.0
1696243373564,-1.0410156,-0.0390625,0.10839844,87.875,-19.15625,22.1875,0.0,0.0,0.0
1696243373591,-1.2060547,-0.140625,-0.051757812,121.8125,-83.71875,29.0625,0.0,0.0,0.0
1696243373622,-1.2509766,0.23535156,0.0703125,118.59375,-133.875,17.40625,0.0,0.0,0.0
1696243373685,-1.1845703,0.18359375,0.25,76.125,-204.6875,26.3125,0.0,0.0,0.0
1696243373713,-1.2978516,-0.22070312,-0.053710938,98.8125,-198.15625,10.6875,0.0,0.0,0.0
1696243373743,-1.328125,-0.4794922,-0.28320312,151.71875,-127.65625,-58.4375,0.0,0.0,0.0
1696243373803,-1.1318359,-0.28808594,-0.0078125,223.21875,-115.28125,-135.125,0.0,0.0,0.0
1696243373836,-0.8144531,0.005859375,0.103515625,187.1875,-75.65625,-131.375,0.0,0.0,0.0
1696243373863,-0.79296875,0.068359375,-0.05859375,221.875,-52.28125,-113.3125,0.0,0.0,0.0
1696243373925,-0.8105469,9.765625E-4,0.06640625,201.0,-24.09375,-94.78125,-75.125,51.3125,-55.5625
1696243373954,-0.92089844,0.18359375,0.06347656,151.25,11.1875,-79.8125,0.0,0.0,0.0
1696243373981,-0.8984375,0.3642578,0.16796875,146.78125,22.96875,-70.84375,0.0,0.0,0.0
1696243374042,-0.80371094,0.21191406,0.23144531,119.5,32.75,-44.46875,0.0,0.0,0.0
1696243374073,-0.8515625,0.16113281,0.27734375,88.125,36.6875,-21.21875,0.0,0.0,0.0
1696243374103,-0.8798828,0.17675781,0.37597656,76.28125,31.09375,-5.21875,0.0,0.0,0.0
1696243374163,-0.94433594,0.08105469,0.63183594,124.28125,27.59375,6.5625,0.0,0.0,0.0
1696243374192,-1.1933594,-0.3623047,0.7753906,149.46875,-11.5625,-10.1875,0.0,0.0,0.0
1696243374224,-1.0986328,-0.016601562,0.4091797,60.90625,-31.65625,-68.09375,0.0,0.0,0.0
1696243374285,-1.4941406,0.064453125,-0.27441406,108.9375,-17.125,-41.125,0.0,0.0,0.0
1696243374314,-0.8720703,0.6279297,0.27148438,80.8125,-19.9375,-21.21875,0.0,0.0,0.0
1696243374372,-0.47070312,0.125,-0.29101562,38.9375,46.53125,37.25,0.0,0.0,0.0
1696243374403,-1.5361328,-0.47070312,-0.2705078,-23.5,78.21875,30.96875,-86.25,49.0625,-78.375
1696243374435,-1.0195312,0.043945312,0.07324219,97.71875,21.8125,-9.6875,0.0,0.0,0.0
1696243374463,-1.0644531,0.20605469,0.048828125,39.5625,32.0625,-1.5625,0.0,0.0,0.0
1696243374524,-1.0371094,0.047851562,0.09277344,68.84375,42.5625,-19.09375,0.0,0.0,0.0
1696243374554,-0.9453125,0.021484375,-0.0087890625,60.0625,46.65625,-17.4375,0.0,0.0,0.0
1696243374585,-0.8984375,0.09667969,-0.060546875,61.03125,43.1875,-14.1875,0.0,0.0,0.0
1696243374644,-0.9511719,0.036132812,-0.061523438,67.5,48.0625,-9.3125,0.0,0.0,0.0
1696243374707,-0.98828125,0.053710938,-0.10546875,46.25,47.125,-13.46875,0.0,0.0,0.0
1696243374714,-0.9814453,0.15332031,0.01171875,31.375,48.1875,-8.59375,0.0,0.0,0.0
1696243374763,-1.0478516,0.1328125,0.09667969,17.09375,43.34375,8.0625,0.0,0.0,0.0
1696243374791,-1.0488281,0.0078125,-0.020507812,8.1875,35.53125,17.28125,0.0,0.0,0.0
1696243374856,-1.0253906,-0.12207031,-0.041015625,6.84375,22.65625,10.15625,0.0,0.0,0.0
1696243374883,-0.9765625,0.23046875,0.078125,3.59375,21.3125,-4.3125,0.0,0.0,0.0
1696243374913,-1.1630859,-0.017578125,0.10644531,14.96875,-8.15625,17.96875,-84.875,41.125,-93.625
1696243374978,-1.40625,0.06640625,-0.0546875,-16.25,-56.3125,18.46875,0.0,0.0,0.0
1696243375004,-1.3115234,-0.17871094,-0.17871094,55.125,-120.40625,13.21875,0.0,0.0,0.0
1696243375037,-1.1914062,0.11816406,-9.765625E-4,1.15625,-153.46875,-20.90625,0.0,0.0,0.0
1696243375095,-1.2666016,0.16308594,-0.1328125,-40.21875,-138.96875,-45.28125,0.0,0.0,0.0
1696243375124,-1.2353516,0.11425781,-0.29492188,65.5,-95.75,-54.46875,0.0,0.0,0.0
1696243375187,-1.0664062,-0.10644531,-0.052734375,99.65625,-110.09375,-54.125,0.0,0.0,0.0
1696243375245,-0.7871094,-0.028320312,0.057617188,128.53125,-101.3125,-61.625,0.0,0.0,0.0
1696243375252,-0.7832031,0.16308594,0.091796875,101.3125,-64.25,-65.21875,0.0,0.0,0.0
1696243375274,-0.73535156,0.1875,-0.0625,90.09375,-31.40625,-53.1875,0.0,0.0,0.0
1696243375333,-0.63183594,0.17480469,0.1484375,68.78125,3.375,-32.5,0.0,0.0,0.0
1696243375395,-0.64941406,0.171875,0.21875,17.15625,33.53125,-9.3125,0.0,0.0,0.0
1696243375402,-0.7685547,0.08691406,0.24804688,-16.84375,64.59375,9.25,-93.0,31.25,-76.6875
1696243375451,-0.9863281,0.103515625,0.40039062,-29.96875,72.40625,18.03125,0.0,0.0,0.0
1696243375485,-1.4628906,-0.21679688,0.9746094,86.96875,34.6875,1.4375,0.0,0.0,0.0
1696243375523,-1.3486328,-0.27441406,0.36523438,-31.5,-51.90625,-71.28125,0.0,0.0,0.0
1696243375571,-0.2890625,0.14355469,0.54785156,34.0625,-62.0,-59.25,0.0,0.0,0.0
1696243375604,-0.5839844,-0.06640625,0.07714844,123.96875,-0.78125,13.625,0.0,0.0,0.0
1696243375668,-1.6816406,0.2685547,0.21875,-54.625,71.125,7.65625,0.0,0.0,0.0
1696243375692,-1.8261719,0.12207031,0.40722656,-4.875,-58.09375,-9.75,0.0,0.0,0.0
1696243375722,-0.091796875,0.5292969,-0.46777344,18.5,43.46875,19.75,0.0,0.0,0.0
1696243375751,-1.1923828,-0.8466797,-0.4033203,-89.46875,95.0,46.78125,0.0,0.0,0.0
1696243375815,-1.4208984,-0.052734375,0.21289062,-19.65625,39.5,-30.0,0.0,0.0,0.0
1696243375844,-0.7988281,0.47460938,0.037109375,-17.40625,46.84375,5.5,0.0,0.0,0.0
1696243375873,-0.92578125,0.015625,-0.0068359375,-76.71875,67.46875,36.15625,0.0,0.0,0.0
1696243375933,-1.0742188,-0.21582031,-0.07128906,-60.59375,60.4375,21.75,-94.9375,31.0625,-84.625
1696243375966,-0.95703125,-0.03515625,0.048828125,-8.65625,39.625,10.15625,0.0,0.0,0.0
1696243375993,-0.9560547,-0.034179688,0.036132812,-13.71875,45.5,9.84375,0.0,0.0,0.0
1696243376053,-0.98339844,-0.06933594,0.11328125,11.34375,47.1875,7.59375,0.0,0.0,0.0
1696243376098,-1.0605469,0.06542969,0.375,-2.9375,53.65625,-2.40625,0.0,0.0,0.0
1696243376112,-0.9951172,-0.076171875,0.22949219,-8.4375,31.75,18.8125,0.0,0.0,0.0
1696243376173,-0.95996094,-0.036132812,-0.10644531,-58.46875,0.5625,7.28125,0.0,0.0,0.0
1696243376205,-1.1328125,0.072265625,-0.09082031,-20.25,-29.34375,0.625,0.0,0.0,0.0
1696243376237,-1.3232422,0.072265625,0.017578125,10.875,-78.21875,-11.875,0.0,0.0,0.0
1696243376294,-1.1689453,0.21289062,0.06640625,-57.875,-113.6875,-10.1875,0.0,0.0,0.0
1696243376321,-1.1933594,0.30078125,0.08496094,-62.6875,-141.09375,3.5625,0.0,0.0,0.0
1696243376352,-1.0351562,0.23925781,0.08203125,-50.125,-127.46875,3.6875,0.0,0.0,0.0
1696243376416,-1.0458984,-0.09765625,-0.09375,30.625,-88.59375,1.96875,-96.125,32.125,-74.125
1696243376442,-0.86621094,-0.08496094,0.109375,77.6875,-65.96875,-3.34375,0.0,0.0,0.0
1696243376473,-0.79003906,0.07910156,0.17480469,42.25,-31.84375,-18.65625,0.0,0.0,0.0
1696243376533,-0.7675781,0.21582031,0.18457031,13.625,-6.3125,-23.0,0.0,0.0,0.0
1696243376563,-0.7763672,0.20214844,0.12011719,21.78125,16.25,-6.09375,0.0,0.0,0.0
1696243376593,-0.7167969,0.20800781,0.19824219,7.1875,43.34375,7.84375,0.0,0.0,0.0
1696243376654,-0.8173828,0.18457031,0.26757812,-29.59375,73.5,34.625,0.0,0.0,0.0
1696243376682,-1.0869141,-0.061523438,0.25976562,-36.625,91.9375,37.6875,0.0,0.0,0.0
1696243376712,-1.0732422,0.00390625,0.20996094,-27.71875,67.46875,1.84375,0.0,0.0,0.0
1696243376775,-0.91796875,0.20800781,0.3310547,11.21875,26.4375,-10.28125,0.0,0.0,0.0
1696243376802,-0.91015625,0.11621094,0.35253906,-6.03125,0.375,-14.6875,0.0,0.0,0.0
1696243376833,-0.703125,0.0703125,0.12890625,0.84375,-6.8125,-22.3125,0.0,0.0,0.0
1696243376892,-0.4794922,0.032226562,0.03515625,16.71875,-26.96875,-2.46875,0.0,0.0,0.0
1696243376923,-0.5498047,0.021484375,0.0546875,22.46875,18.625,2.65625,-99.75,32.125,-77.3125
1696243376956,-0.59277344,-0.0078125,-0.064453125,29.125,38.78125,-8.65625,0.0,0.0,0.0
1696243377015,-0.828125,0.18164062,0.24707031,21.78125,35.125,-10.53125,0.0,0.0,0.0
1696243377042,-0.7988281,0.64746094,0.30078125,-5.5625,17.84375,5.8125,0.0,0.0,0.0
1696243377073,-2.0,0.37109375,-0.265625,-27.90625,21.4375,31.6875,0.0,0.0,0.0
1696243377134,-2.0,-0.3564453,1.0,-171.375,-11.75,-20.1875,0.0,0.0,0.0
1696243377198,-0.43164062,0.015625,-0.27441406,-32.65625,-102.875,-18.21875,0.0,0.0,0.0
1696243377203,-0.71484375,-0.20117188,-0.31835938,-36.5,28.875,-0.71875,0.0,0.0,0.0
1696243377255,-1.3427734,-0.00390625,-0.028320312,-19.34375,97.96875,-32.21875,0.0,0.0,0.0
1696243377315,-0.72265625,0.43847656,0.40722656,-3.59375,39.6875,9.125,0.0,0.0,0.0
1696243377342,-0.81640625,0.1171875,0.23730469,-20.375,13.21875,24.9375,0.0,0.0,0.0
1696243377372,-1.1484375,-0.46777344,-0.020507812,5.3125,17.59375,9.25,0.0,0.0,0.0
1696243377404,-1.0478516,-0.13671875,0.23046875,-18.4375,-5.96875,-7.90625,-96.875,33.625,-83.875
1696243377465,-0.96875,0.10644531,0.08496094,37.0,1.3125,-1.75,0.0,0.0,0.0
1696243377494,-1.0097656,0.00390625,-0.018554688,30.8125,9.90625,-1.625,0.0,0.0,0.0
1696243377524,-0.99902344,0.08886719,0.12011719,13.5,14.96875,-7.71875,0.0,0.0,0.0
1696243377552,-0.9980469,0.041015625,0.10546875,9.9375,13.8125,4.0625,0.0,0.0,0.0
1696243377612,-0.9628906,-0.025390625,0.08105469,-0.25,9.0625,0.6875,0.0,0.0,0.0
1696243377640,-0.9628906,-0.005859375,0.14355469,15.6875,4.34375,5.03125,0.0,0.0,0.0
1696243377711,-0.93066406,0.0390625,0.19335938,4.28125,2.71875,2.46875,0.0,0.0,0.0
1696243377751,-0.9423828,0.056640625,0.19140625,3.125,-9.5625,3.0,0.0,0.0,0.0
1696243377779,-0.8701172,0.0078125,0.080078125,-7.75,-27.1875,5.5625,0.0,0.0,0.0
1696243377792,-0.7167969,0.030273438,0.23339844,-10.375,-54.78125,-1.3125,0.0,0.0,0.0
1696243377854,-0.8730469,0.08984375,0.14941406,30.75,-60.53125,6.96875,0.0,0.0,0.0
1696243377884,-0.8095703,0.045898438,0.08105469,3.34375,-46.1875,10.46875,0.0,0.0,0.0
1696243377911,-0.890625,-0.22460938,0.115234375,-0.90625,-25.125,-9.5,-97.1875,34.375,-80.75
1696243378004,-1.0332031,-0.119140625,0.14648438,45.96875,-32.15625,-23.53125,0.0,0.0,0.0
1696243378009,-0.74121094,0.1796875,0.30566406,23.625,-42.09375,-17.0625,0.0,0.0,0.0
1696243378035,-0.5,-0.05859375,0.11621094,11.53125,-12.0625,9.0625,0.0,0.0,0.0
1696243378124,-1.3583984,-0.16210938,0.26660156,-10.8125,-52.78125,14.71875,0.0,0.0,0.0
1696243378129,-2.0,0.23144531,0.84472656,29.65625,-130.34375,-28.46875,0.0,0.0,0.0
1696243378153,-1.5839844,0.4267578,0.60253906,-29.125,-119.375,-75.28125,0.0,0.0,0.0
1696243378213,-0.7861328,-0.15332031,0.42871094,39.78125,-50.5625,-19.3125,0.0,0.0,0.0
1696243378243,-0.75097656,0.024414062,0.35351562,13.90625,-28.3125,-20.90625,0.0,0.0,0.0
1696243378273,-0.8876953,0.013671875,0.15234375,89.78125,-28.65625,-21.78125,0.0,0.0,0.0
1696243378332,-0.51464844,0.14550781,0.46289062,116.28125,-33.5625,-4.4375,0.0,0.0,0.0
1696243378361,-0.53515625,0.32421875,0.41210938,29.34375,-4.4375,24.4375,0.0,0.0,0.0
1696243378391,-0.86816406,0.09765625,0.28710938,4.75,10.40625,23.40625,-97.9375,31.8125,-65.625
1696243378453,-1.0117188,0.025390625,0.43945312,4.15625,18.46875,4.21875,0.0,0.0,0.0
1696243378482,-0.78027344,0.08203125,0.51464844,-4.5625,32.75,-10.59375,0.0,0.0,0.0
1696243378515,-0.73339844,0.19335938,0.3779297,-27.71875,56.84375,-4.375,0.0,0.0,0.0
1696243378607,-0.80566406,0.2265625,0.37890625,-41.03125,68.5625,13.4375,0.0,0.0,0.0
1696243378615,-0.7734375,0.046875,0.3798828,-29.46875,78.6875,24.0625,0.0,0.0,0.0
1696243378631,-0.9199219,-0.01953125,0.30371094,-32.65625,100.1875,21.4375,0.0,0.0,0.0
1696243378727,-1.0488281,0.091796875,0.3203125,-51.875,96.21875,10.40625,0.0,0.0,0.0
1696243378733,-0.9189453,0.083984375,0.421875,-8.84375,81.0,-2.375,0.0,0.0,0.0
1696243378752,-0.84472656,0.18945312,0.2265625,-2.0,37.6875,-4.5625,0.0,0.0,0.0
1696243378814,-0.5859375,0.16992188,0.16699219,12.4375,16.5,-7.1875,0.0,0.0,0.0
1696243378875,-0.42578125,-0.10449219,0.0859375,25.28125,15.9375,1.4375,0.0,0.0,0.0
1696243378882,-0.8339844,0.033203125,0.20703125,-13.1875,25.90625,-2.65625,0.0,0.0,0.0
1696243378932,-0.69628906,0.27734375,0.29101562,-0.625,8.5,1.25,-96.125,31.8125,-84.375
1696243378961,-1.0039062,0.36132812,0.31933594,-45.40625,5.6875,17.21875,0.0,0.0,0.0
1696243378994,-2.0,-0.16015625,-0.20410156,-7.25,7.28125,-3.75,0.0,0.0,0.0
1696243379054,-2.0,0.39941406,0.61035156,3.0,-205.5,3.9375,0.0,0.0,0.0
1696243379081,-0.119140625,-0.10449219,0.009765625,5.84375,-111.0,53.90625,0.0,0.0,0.0
1696243379111,-2.0,-0.65722656,0.0234375,-77.40625,80.59375,-26.78125,0.0,0.0,0.0
1696243379175,-1.03125,0.3876953,-0.0048828125,-19.46875,93.21875,-57.09375,0.0,0.0,0.0
1696243379201,-0.61035156,0.5019531,0.23535156,1.03125,44.21875,3.6875,0.0,0.0,0.0
1696243379231,-0.92089844,-0.07714844,-0.0068359375,-6.03125,42.5625,23.65625,0.0,0.0,0.0
1696243379293,-1.0849609,-0.22949219,0.13574219,-1.28125,34.8125,-6.75,0.0,0.0,0.0
1696243379323,-0.9501953,0.0048828125,0.33203125,-19.15625,12.71875,-2.65625,0.0,0.0,0.0
1696243379353,-0.92578125,0.055664062,0.15625,-6.96875,7.28125,14.25,0.0,0.0,0.0
1696243379413,-1.0029297,-0.21777344,0.016601562,27.53125,-3.875,9.1875,-94.0625,29.4375,-85.5625
1696243379442,-1.0283203,0.08105469,0.20605469,19.65625,15.78125,-3.9375,0.0,0.0,0.0
1696243379472,-1.0097656,0.06933594,0.1171875,27.15625,18.75,6.5,0.0,0.0,0.0
1696243379534,-1.0273438,-0.087890625,0.07910156,9.75,19.5,-1.125,0.0,0.0,0.0
1696243379564,-0.9482422,0.0859375,0.20507812,8.4375,1.71875,-0.96875,0.0,0.0,0.0
1696243379599,-0.8642578,0.0068359375,0.078125,-4.75,-24.28125,6.125,0.0,0.0,0.0
1696243379653,-0.81640625,0.045898438,0.123046875,7.1875,-46.625,9.34375,0.0,0.0,0.0
1696243379682,-0.8486328,0.095703125,0.16210938,-21.0,-68.65625,14.59375,0.0,0.0,0.0
1696243379744,-0.8251953,0.052734375,0.18359375,10.5625,-80.84375,21.9375,0.0,0.0,0.0
1696243379771,-0.7451172,-0.049804688,0.09082031,3.0625,-57.0625,22.25,0.0,0.0,0.0
1696243379804,-0.8046875,-0.18945312,0.19335938,25.09375,-36.65625,16.3125,0.0,0.0,0.0
1696243379830,-0.7792969,-0.03515625,0.24414062,42.0,-34.53125,9.59375,0.0,0.0,0.0
1696243379893,-0.69921875,0.032226562,0.17480469,43.9375,-39.59375,28.28125,0.0,0.0,0.0
1696243379923,-1.5722656,0.20019531,0.45898438,24.09375,-53.03125,7.96875,-93.3125,30.5,-78.8125
1696243379952,-2.0,0.24121094,0.6386719,74.34375,-99.03125,-6.625,0.0,0.0,0.0
1696243380013,-1.4638672,0.5,0.59277344,38.875,-99.09375,-7.65625,0.0,0.0,0.0
1696243380042,-0.9902344,0.20605469,0.36328125,16.40625,-37.75,-18.15625,0.0,0.0,0.0
1696243380070,-0.8027344,0.12207031,0.16503906,6.46875,-14.03125,-47.46875,0.0,0.0,0.0
1696243380163,-0.7705078,0.18457031,0.2685547,42.78125,-21.34375,-50.5625,0.0,0.0,0.0
1696243380166,-0.5751953,0.06542969,0.29101562,97.34375,-29.34375,-30.75,0.0,0.0,0.0
1696243380191,-0.65527344,0.17675781,0.4013672,84.78125,-6.9375,-14.09375,0.0,0.0,0.0
1696243380252,-0.7734375,0.29589844,0.3232422,14.84375,21.625,-17.125,0.0,0.0,0.0
1696243380282,-0.9375,0.24511719,0.29101562,-11.65625,41.15625,-15.84375,0.0,0.0,0.0
1696243380313,-0.9238281,0.12792969,0.41601562,-8.4375,58.84375,-24.15625,0.0,0.0,0.0
1696243380372,-0.80078125,0.12011719,0.3623047,-5.125,70.875,-15.25,0.0,0.0,0.0
1696243380401,-0.7871094,0.17578125,0.26464844,-32.78125,87.1875,1.125,-95.6875,26.0,-75.8125
1696243380434,-0.9453125,0.13476562,0.27441406,-42.96875,90.46875,8.6875,0.0,0.0,0.0
1696243380491,-1.078125,-0.05078125,0.42382812,-8.90625,65.15625,-1.125,0.0,0.0,0.0
1696243380522,-0.92089844,-0.030273438,0.40527344,21.78125,34.3125,-21.21875,0.0,0.0,0.0
1696243380554,-0.8574219,0.0126953125,0.21875,20.09375,7.71875,-31.21875,0.0,0.0,0.0
1696243380613,-0.7363281,0.053710938,0.20703125,31.375,-4.875,-32.6875,0.0,0.0,0.0
1696243380642,-0.5341797,-0.015625,0.14160156,25.375,-2.375,-20.59375,0.0,0.0,0.0
1696243380672,-0.890625,0.16308594,0.09277344,17.15625,18.8125,3.5,0.0,0.0,0.0
1696243380733,-0.8808594,0.11621094,0.25585938,52.78125,44.15625,0.03125,0.0,0.0,0.0
1696243380763,-0.765625,0.19433594,0.23925781,41.75,27.90625,13.21875,0.0,0.0,0.0
1696243380795,-1.640625,0.41796875,0.14648438,49.5625,34.6875,25.15625,0.0,0.0,0.0
1696243380854,-1.375,-0.23339844,-0.0146484375,-54.5,50.75,-25.25,0.0,0.0,0.0
1696243380884,-2.0,0.19921875,0.123046875,-71.71875,-31.28125,1.4375,0.0,0.0,0.0
1696243380913,-1.0615234,-0.16699219,-0.17089844,-32.03125,-48.125,3.0625,-94.375,20.125,-87.5
1696243380975,-0.80371094,-0.21582031,-0.4638672,-3.96875,12.15625,-18.28125,0.0,0.0,0.0
1696243381034,-1.0390625,0.26464844,-0.14355469,57.3125,62.46875,-28.25,0.0,0.0,0.0
1696243381040,-0.9003906,0.2578125,0.11816406,11.65625,44.21875,0.5,0.0,0.0,0.0
1696243381093,-0.94140625,-0.017578125,-0.0126953125,8.125,24.875,13.9375,0.0,0.0,0.0
1696243381124,-1.0380859,-0.15332031,0.026367188,37.28125,16.4375,3.9375,0.0,0.0,0.0
1696243381157,-1.0263672,-0.0068359375,0.09863281,25.8125,14.375,-1.875,0.0,0.0,0.0
1696243381213,-1.0234375,0.022460938,0.08886719,34.375,6.625,8.625,0.0,0.0,0.0
1696243381245,-0.96777344,-0.0068359375,-0.064453125,52.1875,10.875,13.09375,0.0,0.0,0.0
1696243381275,-0.9970703,-0.09765625,-0.06347656,60.4375,24.3125,5.34375,0.0,0.0,0.0
1696243381332,-0.9863281,0.046875,0.03125,66.15625,32.375,4.71875,0.0,0.0,0.0
1696243381363,-1.0244141,-0.024414062,0.0087890625,52.0625,27.1875,10.875,0.0,0.0,0.0
1696243381397,-1.0390625,-0.018554688,-0.06933594,43.625,22.1875,11.9375,-93.125,14.0,-92.4375
1696243381452,-0.9824219,0.029296875,-0.12597656,44.5,17.71875,6.1875,0.0,0.0,0.0
1696243381483,-0.9501953,0.1484375,-0.09277344,75.5625,19.125,11.4375,0.0,0.0,0.0
1696243381513,-0.9628906,0.16796875,-0.10546875,43.46875,18.40625,13.09375,0.0,0.0,0.0
1696243381574,-0.9716797,0.09277344,0.020507812,39.84375,12.46875,17.59375,0.0,0.0,0.0
1696243381603,-1.0996094,0.005859375,-0.044921875,17.6875,7.46875,18.09375,0.0,0.0,0.0
1696243381632,-1.15625,-0.15136719,-0.06542969,-0.125,-2.40625,11.625,0.0,0.0,0.0
1696243381693,-1.2910156,-0.12695312,-0.10839844,34.71875,-28.40625,4.65625,0.0,0.0,0.0
1696243381722,-1.0791016,0.25390625,0.17675781,75.0625,-55.21875,18.03125,0.0,0.0,0.0
1696243381755,-1.0722656,0.033203125,0.013671875,23.75,-88.78125,40.5,0.0,0.0,0.0
1696243381817,-1.0390625,-0.13671875,0.016601562,20.1875,-122.90625,18.9375,0.0,0.0,0.0
1696243381873,-1.0712891,-0.043945312,-0.06542969,60.0625,-136.625,-2.46875,0.0,0.0,0.0
1696243381878,-1.1464844,-0.19140625,-0.056640625,100.78125,-121.375,-15.71875,0.0,0.0,0.0
1696243381933,-1.2412109,-0.26757812,-0.051757812,113.15625,-87.9375,-53.03125,-98.25,10.6875,-76.5625
1696243381963,-1.0400391,-0.1640625,0.03125,152.46875,-64.3125,-92.03125,0.0,0.0,0.0
1696243382025,-0.8935547,0.026367188,0.0546875,184.03125,-61.0625,-84.28125,0.0,0.0,0.0
1696243382053,-0.89160156,0.00390625,0.036132812,176.40625,-40.75,-70.53125,0.0,0.0,0.0
1696243382081,-0.9140625,0.045898438,0.078125,162.59375,-16.59375,-66.4375,0.0,0.0,0.0
1696243382111,-0.89453125,0.1015625,0.12890625,153.375,-1.875,-52.46875,0.0,0.0,0.0
1696243382171,-0.9404297,0.24316406,0.14355469,139.03125,5.03125,-37.03125,0.0,0.0,0.0
1696243382203,-0.8955078,0.24023438,0.18164062,118.59375,10.8125,-25.125,0.0,0.0,0.0
1696243382234,-0.9091797,0.18554688,0.2890625,91.5625,11.0625,-10.34375,0.0,0.0,0.0
1696243382295,-0.8613281,0.15039062,0.32226562,86.96875,4.90625,-2.53125,0.0,0.0,0.0
1696243382325,-0.953125,-0.048828125,0.3408203,105.34375,-0.71875,6.6875,0.0,0.0,0.0
1696243382357,-1.03125,-0.16113281,0.49023438,119.75,-8.9375,-17.125,0.0,0.0,0.0
1696243382412,-0.95214844,-0.018554688,0.45996094,88.875,-22.3125,-48.625,-92.375,9.5,-56.4375
1696243382444,-0.8417969,0.27148438,0.46191406,88.8125,-7.3125,-38.0,0.0,0.0,0.0
1696243382473,-1.0078125,0.15917969,0.12792969,76.28125,-1.5625,-26.78125,0.0,0.0,0.0
1696243382535,-1.7177734,0.54589844,0.24804688,65.5625,-1.875,-1.1875,0.0,0.0,0.0
1696243382565,-0.64941406,-0.083984375,-0.06738281,43.9375,-30.125,-10.0,0.0,0.0,0.0
1696243382625,-0.7080078,-0.083984375,-0.11230469,-26.96875,49.75,-5.09375,0.0,0.0,0.0
1696243382659,-1.3525391,-0.234375,-0.08496094,31.1875,73.5625,-15.375,0.0,0.0,0.0
1696243382681,-0.90234375,0.22070312,0.03125,50.40625,33.78125,-15.53125,0.0,0.0,0.0
1696243382715,-0.85546875,0.16210938,0.20410156,60.125,31.40625,4.59375,0.0,0.0,0.0
1696243382775,-1.1230469,-0.083984375,0.15429688,2.875,37.6875,7.21875,0.0,0.0,0.0
1696243382803,-1.0244141,-0.034179688,0.08203125,20.4375,15.34375,1.53125,0.0,0.0,0.0
1696243382831,-0.96875,-0.048828125,0.001953125,61.21875,8.125,-1.5625,0.0,0.0,0.0
1696243382891,-1.0107422,0.07128906,0.07324219,65.4375,11.96875,-13.28125,0.0,0.0,0.0
1696243382927,-0.9921875,0.18945312,0.07128906,37.28125,10.21875,-10.0625,-95.875,15.625,-56.625
1696243382957,-0.9921875,0.10449219,0.078125,37.90625,1.0625,-0.03125,0.0,0.0,0.0
1696243383013,-1.0048828,0.01953125,0.12011719,33.75,0.5625,-5.15625,0.0,0.0,0.0
1696243383042,-0.96972656,0.057617188,0.16308594,22.28125,-4.6875,-12.3125,0.0,0.0,0.0
1696243383075,-0.9736328,0.03125,0.10253906,33.875,-9.6875,-6.375,0.0,0.0,0.0
1696243383131,-0.92578125,0.0146484375,0.09082031,18.875,-19.875,-9.375,0.0,0.0,0.0
1696243383161,-0.9736328,0.16015625,0.21289062,23.375,-23.1875,-5.21875,0.0,0.0,0.0
1696243383191,-0.91308594,0.08984375,0.037109375,-5.75,-30.375,0.5,0.0,0.0,0.0
1696243383252,-0.71484375,0.2421875,0.23242188,7.6875,-39.15625,3.0625,0.0,0.0,0.0
1696243383281,-0.90722656,0.06347656,0.01953125,-14.71875,-36.65625,18.8125,0.0,0.0,0.0
1696243383311,-0.92089844,-0.022460938,0.23242188,-22.40625,-47.40625,21.8125,0.0,0.0,0.0
1696243383372,-0.8876953,0.048828125,0.22167969,-5.5,-44.40625,25.84375,0.0,0.0,0.0
1696243383403,-0.9345703,-0.06640625,0.25585938,14.15625,-32.28125,32.75,-93.875,16.5625,-50.75
1696243383431,-1.0292969,-0.0625,0.32226562,25.875,-24.6875,33.65625,0.0,0.0,0.0
1696243383496,-0.9921875,-0.020507812,0.33691406,31.5625,-21.71875,30.65625,0.0,0.0,0.0
1696243383522,-0.7910156,-0.021484375,0.19140625,18.625,-11.625,28.875,0.0,0.0,0.0
1696243383551,-1.0839844,0.055664062,0.15429688,-0.3125,1.90625,15.53125,0.0,0.0,0.0
1696243383612,-1.4296875,0.35546875,0.41796875,-2.9375,-32.15625,-6.4375,0.0,0.0,0.0
1696243383643,-1.3173828,0.26171875,0.35742188,-5.90625,-36.59375,-27.9375,0.0,0.0,0.0
1696243383672,-1.3125,0.22949219,0.4013672,15.1875,-39.71875,-30.1875,0.0,0.0,0.0
1696243383733,-1.0126953,0.3671875,0.4482422,18.1875,-50.5625,-20.5,0.0,0.0,0.0
1696243383762,-1.0458984,0.32128906,0.3466797,-0.375,-41.71875,-38.8125,0.0,0.0,0.0
1696243383792,-0.9472656,0.12597656,0.27246094,66.84375,-52.15625,-49.25,0.0,0.0,0.0
1696243383853,-0.88964844,0.14453125,0.36035156,73.3125,-41.71875,-39.71875,0.0,0.0,0.0
1696243383883,-0.9921875,0.3623047,0.43847656,46.8125,-59.84375,-35.0625,0.0,0.0,0.0
1696243383912,-0.7285156,0.40234375,0.38867188,46.5,-48.0,-27.6875,-82.625,21.1875,-42.375
1696243383971,-0.7890625,0.08691406,0.43554688,48.59375,-49.1875,-7.5625,0.0,0.0,0.0
1696243384003,-0.7832031,0.171875,0.45214844,36.5625,-35.75,-9.25,0.0,0.0,0.0
1696243384031,-0.75,0.2265625,0.47460938,18.90625,-23.34375,-2.96875,0.0,0.0,0.0
1696243384090,-0.75097656,0.16992188,0.51660156,20.6875,-6.3125,-3.59375,0.0,0.0,0.0
1696243384124,-0.765625,0.20703125,0.40722656,17.34375,10.34375,-5.59375,0.0,0.0,0.0
1696243384154,-0.74316406,0.18652344,0.53125,-1.65625,29.1875,-10.0,0.0,0.0,0.0
1696243384213,-0.7246094,0.171875,0.43164062,-8.53125,45.0,-11.34375,0.0,0.0,0.0
1696243384241,-0.7324219,0.09667969,0.375,-27.59375,63.375,-5.71875,0.0,0.0,0.0
1696243384307,-0.8515625,0.083984375,0.37402344,-36.625,87.53125,-7.4375,0.0,0.0,0.0
1696243384334,-0.89746094,0.16503906,0.28808594,-31.90625,100.1875,-7.375,0.0,0.0,0.0
1696243384361,-0.88378906,0.15527344,0.25195312,-43.59375,110.90625,4.0,0.0,0.0,0.0
1696243384390,-1.15625,0.04296875,0.3544922,-41.75,102.3125,5.9375,-88.0625,21.1875,-48.6875
1696243384452,-1.0332031,0.21972656,0.36914062,-22.15625,57.6875,-11.34375,0.0,0.0,0.0
1696243384483,-0.93359375,0.21875,0.29882812,-3.1875,21.6875,-3.21875,0.0,0.0,0.0
1696243384513,-0.89160156,0.06640625,0.25097656,10.9375,-0.84375,-0.84375,0.0,0.0,0.0
1696243384573,-0.6376953,-0.07910156,-0.0625,-9.21875,0.375,-12.125,0.0,0.0,0.0
1696243384608,-0.5908203,-0.026367188,0.045898438,7.3125,25.78125,-4.96875,0.0,0.0,0.0
1696243384632,-0.8310547,0.24414062,0.12109375,26.25,40.5,-10.34375,0.0,0.0,0.0
1696243384695,-0.6933594,0.31445312,0.020507812,-14.65625,33.21875,-6.875,0.0,0.0,0.0
1696243384724,-0.70703125,0.44726562,0.32714844,-46.4375,20.59375,18.6875,0.0,0.0,0.0
1696243384754,-1.4277344,0.0703125,0.29296875,20.09375,14.71875,32.0,0.0,0.0,0.0
1696243384813,-1.8916016,-0.6142578,-0.22949219,-114.625,42.0,-40.6875,0.0,0.0,0.0
1696243384841,-2.0,0.51171875,0.50683594,-19.65625,-50.09375,-4.0,0.0,0.0,0.0
1696243384871,-0.48339844,-0.00390625,-0.265625,-39.25,-87.625,21.4375,0.0,0.0,0.0
1696243384932,-1.1083984,-0.68847656,-0.11230469,-14.46875,26.6875,-15.78125,-93.125,16.0625,-54.375
1696243384963,-1.1728516,0.26464844,-0.13085938,15.9375,64.71875,-55.9375,0.0,0.0,0.0
1696243384997,-0.8925781,0.33007812,0.33789062,-11.28125,24.3125,-15.84375,0.0,0.0,0.0
1696243385055,-0.89746094,0.12402344,0.08984375,-26.5,4.53125,13.75,0.0,0.0,0.0
1696243385086,-1.0380859,-0.34179688,-0.0390625,16.0,8.6875,3.0,0.0,0.0,0.0
1696243385112,-1.0976562,-0.018554688,0.16992188,-9.21875,11.0625,-14.5,0.0,0.0,0.0
1696243385175,-1.0029297,0.068359375,0.1328125,10.375,8.625,3.5,0.0,0.0,0.0
1696243385203,-0.98339844,0.038085938,0.033203125,4.46875,3.625,8.0625,0.0,0.0,0.0
1696243385236,-1.0117188,-0.08691406,0.01171875,19.15625,16.5625,-0.84375,0.0,0.0,0.0
1696243385294,-1.0146484,0.016601562,0.11230469,19.15625,17.28125,-1.03125,0.0,0.0,0.0
1696243385322,-0.98535156,0.10644531,0.15820312,4.46875,11.5625,8.25,0.0,0.0,0.0
1696243385356,-0.94628906,-0.111328125,0.10839844,-1.34375,5.875,10.65625,0.0,0.0,0.0
1696243385414,-0.9765625,-0.013671875,0.10644531,12.28125,2.53125,3.3125,-95.875,14.125,-58.6875
1696243385444,-1.0253906,0.01953125,0.11621094,16.65625,4.78125,6.1875,0.0,0.0,0.0
1696243385474,-0.9628906,0.10546875,0.12988281,29.0,3.25,4.65625,0.0,0.0,0.0
1696243385535,-1.0029297,0.015625,0.0546875,5.625,4.84375,8.625,0.0,0.0,0.0
1696243385564,-0.90722656,0.0126953125,0.11621094,0.0625,-23.21875,3.5625,0.0,0.0,0.0
1696243385595,-0.8828125,0.119140625,0.16308594,9.28125,-41.46875,11.125,0.0,0.0,0.0
1696243385653,-0.8847656,-0.013671875,0.049804688,-13.375,-67.3125,14.96875,0.0,0.0,0.0
1696243385681,-0.81152344,0.07324219,0.19042969,9.65625,-81.71875,22.0,0.0,0.0,0.0
1696243385714,-0.77734375,-0.12402344,0.12597656,8.125,-68.40625,33.03125,0.0,0.0,0.0
1696243385772,-0.8076172,-0.12402344,0.14355469,27.65625,-53.25,19.125,0.0,0.0,0.0
1696243385801,-0.7753906,-0.051757812,0.24707031,55.40625,-59.1875,5.875,0.0,0.0,0.0
1696243385841,-0.7910156,0.107421875,0.3203125,59.75,-81.59375,20.53125,0.0,0.0,0.0
1696243385893,-1.0449219,0.20800781,0.25097656,21.0,-59.71875,17.46875,0.0,0.0,0.0
1696243385923,-1.7558594,0.27734375,0.5390625,15.625,-53.3125,-11.21875,-88.625,21.5,-46.6875
1696243385955,-1.5800781,0.3671875,0.7402344,-44.1875,-49.125,-33.90625,0.0,0.0,0.0
1696243386013,-1.1289062,0.18554688,0.5732422,-23.8125,-19.09375,-40.625,0.0,0.0,0.0
1696243386042,-1.0332031,0.052734375,0.42773438,-0.90625,-30.0625,-38.25,0.0,0.0,0.0
1696243386073,-0.9121094,0.2109375,0.47265625,4.6875,-23.0625,-39.90625,0.0,0.0,0.0
1696243386133,-0.7207031,0.001953125,0.29296875,70.3125,-19.75,-23.59375,0.0,0.0,0.0
1696243386163,-0.7470703,0.040039062,0.3388672,73.78125,-20.59375,-9.8125,0.0,0.0,0.0
1696243386193,-0.7792969,0.3388672,0.36816406,25.625,-9.0,-13.53125,0.0,0.0,0.0
1696243386253,-0.79003906,0.21972656,0.35351562,4.9375,2.84375,-6.5,0.0,0.0,0.0
1696243386282,-0.796875,0.057617188,0.4404297,-8.0,21.8125,2.71875,0.0,0.0,0.0
1696243386313,-0.82910156,0.11816406,0.4326172,-18.4375,35.1875,2.15625,0.0,0.0,0.0
1696243386373,-0.8095703,0.1640625,0.3779297,-26.375,54.28125,5.40625,0.0,0.0,0.0
1696243386404,-0.7607422,0.20703125,0.33789062,-44.125,72.65625,22.25,-88.625,20.0,-43.5625
1696243386432,-0.78125,0.123046875,0.34570312,-46.09375,95.1875,39.875,0.0,0.0,0.0
1696243386495,-0.9902344,-0.02734375,0.2998047,-38.5,99.4375,49.9375,0.0,0.0,0.0
1696243386523,-1.1132812,-0.10058594,0.3935547,-24.15625,90.96875,4.15625,0.0,0.0,0.0
1696243386584,-0.9433594,0.21875,0.4951172,-32.84375,60.75,-16.46875,0.0,0.0,0.0
1696243386614,-0.8408203,9.765625E-4,0.30566406,-3.25,18.40625,-5.15625,0.0,0.0,0.0
1696243386645,-0.69628906,0.10449219,0.19238281,-24.90625,-1.4375,-11.34375,0.0,0.0,0.0
1696243386673,-0.43847656,-0.068359375,0.22363281,50.78125,-9.4375,-0.59375,0.0,0.0,0.0
1696243386736,-0.5751953,0.053710938,0.09667969,-14.65625,-5.59375,11.125,0.0,0.0,0.0
1696243386768,-0.703125,0.16699219,0.0126953125,5.625,28.15625,4.46875,0.0,0.0,0.0
1696243386795,-1.0126953,0.2841797,0.44140625,14.96875,36.875,-2.59375,0.0,0.0,0.0
1696243386855,-1.7734375,0.123046875,-0.15332031,65.84375,-10.28125,3.6875,0.0,0.0,0.0
1696243386885,-1.7929688,0.5185547,1.2802734,-77.28125,-57.0,-30.25,0.0,0.0,0.0
1696243386915,-1.1816406,0.08300781,-0.0068359375,-14.59375,-88.25,11.25,-95.6875,18.3125,-54.6875
1696243386975,-0.9814453,-0.4296875,-0.19042969,-37.21875,-15.53125,4.84375,0.0,0.0,0.0
1696243387002,-1.3173828,-0.15625,-0.021484375,-30.46875,67.53125,-63.28125,0.0,0.0,0.0
1696243387033,-0.9013672,0.41503906,0.030273438,61.40625,56.28125,-34.84375,0.0,0.0,0.0
1696243387091,-0.8125,0.3310547,0.16210938,-21.375,33.21875,-0.78125,0.0,0.0,0.0
1696243387128,-0.9355469,-0.049804688,-0.009765625,-2.875,31.09375,17.28125,0.0,0.0,0.0
1696243387154,-1.0195312,-0.20019531,0.024414062,1.46875,23.59375,-0.28125,0.0,0.0,0.0
1696243387212,-0.9375,0.03515625,0.22167969,-5.1875,9.71875,-2.96875,0.0,0.0,0.0
1696243387245,-1.0361328,-0.025390625,0.1484375,-3.0625,4.0,10.34375,0.0,0.0,0.0
1696243387275,-0.9921875,-0.095703125,0.099609375,5.6875,-0.15625,5.9375,0.0,0.0,0.0
1696243387335,-0.96191406,0.038085938,0.10253906,21.90625,6.25,5.8125,0.0,0.0,0.0
1696243387368,-1.0488281,0.0029296875,0.0859375,7.75,13.15625,7.46875,0.0,0.0,0.0
1696243387404,-0.96191406,-0.0234375,0.107421875,7.25,7.90625,2.46875,-98.875,17.0,-57.0625
1696243387455,-0.9111328,0.016601562,0.12597656,8.78125,1.5,4.90625,0.0,0.0,0.0
1696243387483,-0.91503906,-0.009765625,0.10253906,-7.5625,-17.375,3.0625,0.0,0.0,0.0
1696243387513,-0.8222656,0.07128906,0.24707031,14.46875,-45.15625,2.53125,0.0,0.0,0.0
1696243387573,-0.79589844,0.0859375,0.09765625,-29.34375,-54.3125,19.1875,0.0,0.0,0.0
1696243387605,-0.88671875,0.109375,0.30859375,-33.03125,-77.4375,17.59375,0.0,0.0,0.0
1696243387632,-0.76953125,-0.3251953,-0.0087890625,15.125,-54.25,13.625,0.0,0.0,0.0
1696243387694,-0.7910156,-0.119140625,0.33203125,7.625,-49.71875,-2.78125,0.0,0.0,0.0
1696243387724,-0.6953125,-0.0546875,0.26367188,54.625,-60.21875,-0.71875,0.0,0.0,0.0
1696243387754,-0.96972656,-0.05078125,0.2529297,58.78125,-72.5,12.71875,0.0,0.0,0.0
1696243387813,-1.5390625,0.21386719,0.5957031,66.28125,-100.875,-8.65625,0.0,0.0,0.0
1696243387856,-1.7226562,0.47265625,0.70703125,51.03125,-98.84375,-25.4375,0.0,0.0,0.0
1696243387872,-1.1259766,0.31445312,0.6640625,-27.90625,-52.78125,-26.21875,0.0,0.0,0.0
1696243387934,-1.1386719,-0.005859375,0.3984375,-14.96875,-18.53125,-13.71875,-87.125,24.625,-41.1875
1696243387963,-1.0273438,0.13574219,0.37890625,39.1875,-23.28125,-20.125,0.0,0.0,0.0
1696243388001,-0.74121094,0.24511719,0.2529297,50.84375,-0.90625,-15.78125,0.0,0.0,0.0
1696243388056,-0.69433594,0.09667969,0.31445312,63.28125,-1.1875,-1.4375,0.0,0.0,0.0
1696243388083,-0.61816406,0.2421875,0.31933594,39.5,14.375,0.25,0.0,0.0,0.0
1696243388145,-0.71484375,0.23828125,0.29492188,4.9375,36.15625,3.75,0.0,0.0,0.0
1696243388174,-0.80078125,0.17578125,0.3095703,-20.6875,52.03125,-0.09375,0.0,0.0,0.0
1696243388202,-0.8876953,0.099609375,0.32421875,-25.28125,69.78125,0.25,0.0,0.0,0.0
1696243388233,-0.8388672,0.15429688,0.3173828,-43.28125,88.28125,3.875,0.0,0.0,0.0
1696243388296,-0.95996094,0.19824219,0.3095703,-61.53125,106.96875,25.40625,0.0,0.0,0.0
1696243388325,-1.1513672,0.13378906,0.37109375,-42.40625,105.3125,10.34375,0.0,0.0,0.0
1696243388354,-1.0673828,0.12109375,0.5048828,-9.34375,51.90625,4.15625,0.0,0.0,0.0
1696243388415,-0.97558594,0.06542969,0.3701172,-23.8125,13.5625,-5.84375,-97.0625,26.875,-51.375
1696243388442,-0.9453125,0.08886719,0.3388672,-40.15625,-15.59375,-16.15625,0.0,0.0,0.0
1696243388472,-0.7714844,-0.01953125,0.2685547,-12.4375,-21.46875,-11.875,0.0,0.0,0.0
1696243388535,-0.5058594,0.040039062,0.083984375,-16.0625,-25.625,-1.3125,0.0,0.0,0.0
1696243388572,-0.6533203,0.05078125,0.001953125,9.53125,11.9375,3.875,0.0,0.0,0.0
1696243388591,-0.6660156,-0.04296875,0.076171875,13.625,36.03125,-23.84375,0.0,0.0,0.0
1696243388654,-0.66796875,0.23144531,0.37695312,55.65625,30.84375,-22.1875,0.0,0.0,0.0
1696243388684,-0.77734375,0.65234375,0.40820312,-28.5625,24.5,7.59375,0.0,0.0,0.0
1696243388714,-1.546875,-0.033203125,-0.26953125,3.0,-5.71875,45.8125,0.0,0.0,0.0
1696243388774,-1.8603516,0.022460938,1.0283203,-73.125,-14.75,-46.71875,0.0,0.0,0.0
1696243388803,-1.2333984,0.06738281,-0.25390625,-41.625,-124.90625,-46.71875,0.0,0.0,0.0
1696243388863,-0.50683594,-0.029296875,-0.19140625,5.90625,-31.15625,32.96875,0.0,0.0,0.0
1696243388892,-1.5039062,-0.37597656,0.15039062,-90.5,39.5625,-33.3125,0.0,0.0,0.0
1696243388923,-0.98828125,0.19238281,-0.0048828125,13.375,61.65625,-25.3125,-99.4375,19.0625,-51.5
1696243388956,-0.82128906,0.13378906,0.2421875,-13.5625,29.375,-2.375,0.0,0.0,0.0
1696243389015,-0.9277344,0.032226562,0.049804688,0.96875,29.0,14.0,0.0,0.0,0.0
1696243389043,-1.0332031,-0.23144531,-0.005859375,-4.46875,35.71875,4.46875,0.0,0.0,0.0
1696243389073,-1.03125,-0.06347656,0.2626953,9.9375,22.96875,-2.375,0.0,0.0,0.0
1696243389133,-0.9550781,-0.001953125,0.18164062,0.96875,10.40625,2.875,0.0,0.0,0.0
1696243389168,-0.9746094,-0.091796875,0.0625,23.0,9.84375,4.0,0.0,0.0,0.0
1696243389192,-1.0029297,0.026367188,0.140625,21.84375,5.40625,0.8125,0.0,0.0,0.0
1696243389253,-1.0107422,0.009765625,0.0703125,18.125,13.625,4.40625,0.0,0.0,0.0
1696243389282,-0.9736328,0.0029296875,0.13183594,3.78125,10.53125,0.15625,0.0,0.0,0.0
1696243389315,-0.94433594,0.025390625,0.12402344,4.09375,0.625,5.28125,0.0,0.0,0.0
1696243389372,-0.9902344,-0.0146484375,0.11425781,-1.03125,-3.21875,9.65625,0.0,0.0,0.0
1696243389433,-0.98339844,-0.0859375,0.0390625,4.15625,-9.9375,2.65625,-102.75,20.125,-55.4375
1696243389437,-0.9345703,0.0068359375,0.19824219,31.5,-24.03125,1.1875,0.0,0.0,0.0
1696243389494,-0.8642578,0.005859375,0.10644531,14.53125,-34.40625,3.5625,0.0,0.0,0.0
1696243389522,-0.8222656,0.22363281,0.30859375,8.4375,-57.09375,13.6875,0.0,0.0,0.0
1696243389554,-0.80859375,-0.013671875,0.13964844,-11.84375,-51.84375,27.96875,0.0,0.0,0.0
1696243389613,-0.79785156,-0.23632812,0.1015625,7.875,-32.9375,21.4375,0.0,0.0,0.0
1696243389643,-0.9355469,-0.16503906,0.25976562,30.46875,-35.1875,4.15625,0.0,0.0,0.0
1696243389674,-0.7832031,-0.0703125,0.18359375,62.25,-55.03125,-6.03125,0.0,0.0,0.0
1696243389733,-0.4033203,0.061523438,0.1171875,59.03125,-27.625,7.46875,0.0,0.0,0.0
1696243389764,-1.3603516,0.0703125,0.20214844,15.9375,-19.6875,18.34375,0.0,0.0,0.0
1696243389793,-1.796875,0.18457031,0.5595703,12.28125,-56.6875,-40.125,0.0,0.0,0.0
1696243389859,-1.6748047,0.46679688,0.7167969,58.78125,-130.90625,-44.53125,0.0,0.0,0.0
1696243389914,-1.1835938,0.17480469,0.484375,2.8125,-73.90625,-20.0625,0.0,0.0,0.0
1696243389919,-0.94628906,0.068359375,0.33789062,31.875,-38.0,-2.53125,-89.125,27.8125,-39.8125
1696243389971,-0.8876953,0.14648438,0.22363281,42.0,-17.0,-4.125,0.0,0.0,0.0
1696243390004,-0.8251953,0.12597656,0.28222656,47.0,-12.375,-14.125,0.0,0.0,0.0
1696243390031,-0.6171875,0.12109375,0.25195312,67.625,-1.625,-6.4375,0.0,0.0,0.0
1696243390093,-0.68652344,0.19238281,0.2919922,54.875,16.125,2.78125,0.0,0.0,0.0
1696243390122,-0.78125,0.2861328,0.33691406,-10.625,39.5,2.34375,0.0,0.0,0.0
1696243390156,-0.89746094,0.22363281,0.26757812,-36.75,52.03125,2.84375,0.0,0.0,0.0
1696243390215,-0.86328125,0.17089844,0.3076172,-39.4375,60.625,15.40625,0.0,0.0,0.0
1696243390243,-0.9140625,0.123046875,0.36523438,-47.0625,78.09375,25.03125,0.0,0.0,0.0
1696243390272,-0.9765625,0.16210938,0.3408203,-57.125,80.40625,24.0625,0.0,0.0,0.0
1696243390335,-1.0195312,0.15332031,0.37109375,-45.59375,71.5625,12.15625,0.0,0.0,0.0
1696243390367,-0.9951172,0.020507812,0.41796875,-23.875,47.375,2.53125,0.0,0.0,0.0
1696243390392,-0.9121094,0.0234375,0.2626953,-46.5,14.0,-17.25,-96.625,31.6875,-49.25
1696243390455,-0.83984375,0.040039062,0.29589844,-48.65625,-4.3125,-25.5625,0.0,0.0,0.0
1696243390484,-0.69433594,0.09277344,0.20019531,-22.71875,-15.46875,-18.03125,0.0,0.0,0.0
1696243390513,-0.5878906,0.08300781,0.14550781,-4.46875,-12.25,4.21875,0.0,0.0,0.0
1696243390575,-0.7080078,0.048828125,0.045898438,0.0,17.28125,6.0625,0.0,0.0,0.0
1696243390604,-0.6972656,0.033203125,0.09375,-7.25,49.21875,-7.84375,0.0,0.0,0.0
1696243390635,-0.70996094,0.16601562,0.22167969,9.03125,50.0,-7.5,0.0,0.0,0.0
1696243390695,-1.2802734,0.5234375,0.43359375,-7.1875,41.59375,1.78125,0.0,0.0,0.0
1696243390722,-1.9091797,-0.061523438,0.03125,-2.8125,41.09375,1.90625,0.0,0.0,0.0
1696243390755,-2.0,0.15332031,0.6748047,-73.1875,-91.03125,-17.75,0.0,0.0,0.0
1696243390811,-0.45898438,0.45898438,-0.28222656,-25.8125,-83.53125,-18.21875,0.0,0.0,0.0
1696243390874,-1.1416016,-0.41992188,-0.29492188,-36.9375,4.84375,45.125,0.0,0.0,0.0
1696243390880,-1.2597656,0.01171875,0.01953125,-34.96875,77.65625,-38.3125,0.0,0.0,0.0
1696243390936,-0.8808594,0.19824219,0.14355469,13.125,42.625,-2.84375,-97.0625,21.8125,-50.0
1696243390964,-0.87890625,0.21289062,0.24121094,-38.15625,20.84375,12.46875,0.0,0.0,0.0
1696243390995,-1.015625,-0.11328125,-0.001953125,0.375,14.1875,15.59375,0.0,0.0,0.0
1696243391057,-0.9560547,-0.08984375,0.11816406,-37.46875,18.40625,2.59375,0.0,0.0,0.0
1696243391083,-1.0458984,-0.078125,0.24804688,-0.96875,22.78125,-1.4375,0.0,0.0,0.0
1696243391145,-1.0087891,0.052734375,0.0546875,3.90625,10.21875,1.375,0.0,0.0,0.0
1696243391172,-0.9453125,0.041992188,0.083984375,14.96875,10.75,1.0625,0.0,0.0,0.0
1696243391208,-0.9785156,0.028320312,0.14550781,-12.5625,15.21875,-3.34375,0.0,0.0,0.0
1696243391233,-1.0576172,-0.029296875,0.060546875,-6.78125,12.40625,2.03125,0.0,0.0,0.0
1696243391294,-0.96875,0.038085938,0.13183594,7.25,2.53125,2.71875,0.0,0.0,0.0
1696243391323,-0.9765625,0.06347656,0.11035156,3.71875,4.90625,4.34375,0.0,0.0,0.0
1696243391365,-1.0097656,0.0107421875,0.087890625,7.5,11.5625,2.59375,0.0,0.0,0.0
1696243391412,-1.0,0.0048828125,0.125,13.25,11.4375,0.75,-99.0,20.875,-54.0625
1696243391444,-1.0009766,-0.022460938,0.12890625,11.46875,6.4375,-1.5625,0.0,0.0,0.0
1696243391472,-0.9814453,0.025390625,0.12792969,10.1875,-6.21875,-2.25,0.0,0.0,0.0
1696243391533,-0.8876953,0.0048828125,0.083984375,14.71875,-24.34375,-0.34375,0.0,0.0,0.0
1696243391562,-0.9707031,-0.013671875,0.07324219,12.09375,-40.875,-3.53125,0.0,0.0,0.0
1696243391593,-0.92285156,0.1875,0.23828125,34.4375,-59.5625,6.75,0.0,0.0,0.0
1696243391652,-0.7421875,0.18457031,-0.0146484375,6.59375,-64.125,28.09375,0.0,0.0,0.0
1696243391681,-0.71777344,-0.10839844,-0.044921875,-10.0625,-54.0625,33.59375,0.0,0.0,0.0
1696243391713,-1.0625,-0.13964844,0.119140625,25.8125,-39.34375,15.34375,0.0,0.0,0.0
1696243391774,-0.79296875,-0.078125,0.15527344,32.40625,-31.84375,-20.375,0.0,0.0,0.0
1696243391802,-0.75878906,0.01171875,0.23339844,51.03125,-31.71875,-17.6875,0.0,0.0,0.0
1696243391833,-1.1083984,0.051757812,0.41601562,42.53125,-44.46875,-17.0625,0.0,0.0,0.0
1696243391895,-0.63964844,0.09667969,0.31054688,45.28125,-59.0,-9.9375,0.0,0.0,0.0
1696243391923,-1.2021484,0.03515625,0.38867188,8.25,-67.96875,22.1875,-91.625,27.5,-42.6875
1696243391954,-2.0,0.24902344,0.8027344,-20.03125,-79.9375,-30.375,0.0,0.0,0.0
1696243392014,-0.97265625,0.3330078,0.6738281,6.28125,-66.6875,-68.59375,0.0,0.0,0.0
1696243392043,-0.78222656,-0.18261719,0.31054688,27.53125,-35.375,-29.59375,0.0,0.0,0.0
1696243392072,-0.6201172,0.2265625,0.31933594,24.46875,-41.96875,-16.6875,0.0,0.0,0.0
1696243392139,-0.734375,0.030273438,0.21777344,104.96875,-40.125,-8.9375,0.0,0.0,0.0
1696243392164,-0.62597656,0.18945312,0.390625,79.65625,-25.8125,12.53125,0.0,0.0,0.0
1696243392193,-0.9169922,0.28710938,0.52734375,2.1875,-3.15625,15.09375,0.0,0.0,0.0
1696243392252,-0.9746094,0.06347656,0.47460938,-13.0625,4.90625,-6.21875,0.0,0.0,0.0
1696243392283,-0.7998047,0.080078125,0.47265625,2.5,10.03125,-3.53125,0.0,0.0,0.0
1696243392317,-0.76171875,0.19628906,0.44140625,-38.15625,32.5,4.0,0.0,0.0,0.0
1696243392371,-0.78222656,0.18359375,0.40820312,-27.71875,35.125,18.625,0.0,0.0,0.0
1696243392403,-0.7421875,0.171875,0.36035156,-21.90625,44.15625,28.09375,-83.6875,30.0625,-37.4375
1696243392432,-0.7714844,0.13867188,0.32421875,-39.125,59.34375,35.375,0.0,0.0,0.0
1696243392493,-0.90722656,0.0068359375,0.3984375,-47.0,80.40625,34.625,0.0,0.0,0.0
1696243392522,-0.9824219,0.047851562,0.33691406,-60.96875,92.3125,16.6875,0.0,0.0,0.0
1696243392553,-0.984375,0.072265625,0.38183594,-77.03125,102.9375,-2.0625,0.0,0.0,0.0
1696243392613,-1.0380859,-0.0390625,0.3095703,-57.1875,87.1875,-12.84375,0.0,0.0,0.0
1696243392643,-0.99121094,0.057617188,0.3125,-31.125,51.40625,-19.15625,0.0,0.0,0.0
1696243392672,-0.91015625,0.13574219,0.36328125,-8.4375,9.96875,-15.25,0.0,0.0,0.0
1696243392733,-0.6875,-0.017578125,0.12695312,4.15625,-0.84375,-8.59375,0.0,0.0,0.0
1696243392765,-0.8017578,-0.030273438,0.09667969,-9.03125,8.5,-0.21875,0.0,0.0,0.0
1696243392792,-0.66015625,0.21386719,0.0625,-10.625,26.4375,-8.65625,0.0,0.0,0.0
1696243392853,-0.62597656,0.11425781,0.0546875,6.71875,20.59375,6.25,0.0,0.0,0.0
1696243392883,-0.9033203,0.13085938,0.27246094,-49.5,24.3125,1.3125,0.0,0.0,0.0
1696243392913,-0.68652344,0.12890625,0.19042969,-60.0625,9.59375,11.9375,-96.625,19.5625,-49.5625
1696243392971,-1.4785156,0.11328125,0.3984375,-19.90625,24.875,27.96875,0.0,0.0,0.0
1696243393004,-2.0,-0.3828125,-0.07421875,-68.46875,35.25,-35.875,0.0,0.0,0.0
1696243393033,-1.2148438,0.48242188,-0.4248047,-18.1875,-167.8125,-14.09375,0.0,0.0,0.0
1696243393093,-0.38964844,-0.12597656,-0.44726562,9.9375,-21.21875,57.28125,0.0,0.0,0.0
1696243393124,-1.7275391,-0.921875,0.2919922,-22.78125,53.4375,-31.46875,0.0,0.0,0.0
1696243393155,-0.75097656,0.77441406,0.16601562,10.0,68.0,-35.75,0.0,0.0,0.0
1696243393214,-0.6923828,0.26953125,0.11035156,-12.34375,44.5,19.0,0.0,0.0,0.0
1696243393246,-1.0517578,-0.28710938,-0.022460938,15.1875,38.90625,12.90625,0.0,0.0,0.0
1696243393273,-1.0458984,-0.046875,0.16601562,-19.40625,24.25,-5.21875,0.0,0.0,0.0
1696243393335,-1.0478516,-0.08300781,0.23242188,-14.84375,7.34375,1.5,0.0,0.0,0.0
1696243393368,-0.9609375,0.017578125,0.0390625,2.9375,-6.875,3.5625,0.0,0.0,0.0
1696243393422,-0.9785156,-0.16015625,-0.046875,14.65625,2.59375,-1.03125,-100.1875,14.3125,-56.1875
1696243393453,-1.0214844,0.10644531,0.08886719,23.125,18.28125,-2.0625,0.0,0.0,0.0
1696243393483,-0.99902344,0.032226562,0.0625,18.625,14.5625,12.84375,0.0,0.0,0.0
1696243393516,-1.0039062,-0.047851562,0.025390625,6.90625,18.09375,7.90625,0.0,0.0,0.0
1696243393575,-0.98046875,-0.028320312,0.091796875,17.5625,18.75,5.625,0.0,0.0,0.0
1696243393603,-0.9824219,-0.0048828125,0.034179688,14.53125,18.21875,5.15625,0.0,0.0,0.0
1696243393634,-0.97265625,0.017578125,0.11328125,6.90625,11.625,4.0625,0.0,0.0,0.0
1696243393692,-0.8730469,-0.03125,0.10644531,0.125,-15.0625,3.5625,0.0,0.0,0.0
1696243393723,-0.65722656,0.015625,0.15820312,17.75,-53.3125,4.96875,0.0,0.0,0.0
1696243393756,-0.91308594,0.048828125,0.11816406,-4.6875,-69.875,12.46875,0.0,0.0,0.0
1696243393812,-0.546875,0.25976562,0.24707031,-17.53125,-74.0625,29.1875,0.0,0.0,0.0
1696243393842,-0.5878906,-0.23242188,-0.32421875,1.46875,-23.40625,38.40625,0.0,0.0,0.0
1696243393876,-0.9345703,-0.37109375,0.23242188,17.875,13.21875,8.3125,0.0,0.0,0.0
1696243393934,-1.0009766,-0.01953125,0.296875,29.71875,-4.5625,-1.0625,-101.25,21.625,-52.25
1696243393993,-1.5810547,0.12207031,0.41308594,37.90625,-72.71875,-0.71875,0.0,0.0,0.0
1696243393996,-1.9736328,0.0078125,0.41601562,58.15625,-129.4375,-11.03125,0.0,0.0,0.0
1696243394054,-1.9609375,0.34179688,0.3955078,83.375,-127.375,-13.09375,0.0,0.0,0.0
1696243394082,-1.0810547,-0.13964844,0.2939453,40.28125,-30.25,-77.375,0.0,0.0,0.0
1696243394114,-1.1298828,-0.12402344,0.030273438,106.125,-14.375,-82.125,0.0,0.0,0.0
1696243394173,-0.8720703,0.078125,0.06347656,172.375,-48.0,-74.9375,0.0,0.0,0.0
1696243394201,-0.51953125,0.21289062,0.14257812,208.4375,-36.53125,-66.1875,0.0,0.0,0.0
1696243394233,-0.6357422,0.08984375,0.15917969,126.9375,-16.75,-35.875,0.0,0.0,0.0
1696243394292,-0.8154297,0.1171875,0.05859375,125.78125,-10.78125,-43.375,0.0,0.0,0.0
1696243394321,-0.83984375,0.13574219,0.2421875,125.375,3.125,-41.46875,0.0,0.0,0.0
1696243394357,-0.8515625,0.068359375,0.35253906,120.90625,27.65625,-20.375,0.0,0.0,0.0
1696243394414,-0.95703125,0.06933594,0.2890625,127.6875,38.09375,0.3125,-94.0625,35.0,-46.6875
1696243394441,-1.0087891,0.37890625,0.3984375,129.75,53.3125,9.96875,0.0,0.0,0.0
1696243394474,-1.2695312,0.38964844,0.47460938,137.625,24.4375,7.71875,0.0,0.0,0.0
1696243394532,-0.97265625,0.3544922,0.3232422,112.5,-26.09375,-4.9375,0.0,0.0,0.0
1696243394566,-0.7890625,0.3935547,0.2421875,109.0625,-29.59375,-15.78125,0.0,0.0,0.0
1696243394621,-0.59277344,0.12597656,-0.35351562,71.59375,-14.75,-25.84375,0.0,0.0,0.0
1696243394685,-1.6298828,0.54003906,0.037109375,79.59375,51.03125,-32.4375,0.0,0.0,0.0
1696243394712,-1.3408203,-0.044921875,0.796875,69.75,-3.8125,-7.0,0.0,0.0,0.0
1696243394721,-0.6376953,-0.13964844,-0.2841797,21.25,4.15625,-28.3125,0.0,0.0,0.0
1696243394772,-0.9501953,-0.15332031,0.13574219,151.96875,18.8125,-24.40625,0.0,0.0,0.0
1696243394801,-1.1103516,-0.16796875,-0.036132812,129.6875,22.125,-35.8125,0.0,0.0,0.0
1696243394832,-0.9580078,0.26367188,0.16015625,147.34375,25.46875,-41.1875,0.0,0.0,0.0
