,timestamp,accel_x,accel_y,accel_z,gyro_x,gyro_y,gyro_z,mag_x,mag_y,mag_z,ind
0,1696242955513,0.046875,-0.99609375,0.13769531,-0.09375,-0.03125,0.0625,0.0,0.0,0.0,46
1,1696242955553,0.04296875,-1.0048828,0.13574219,0.46875,0.15625,-0.1875,0.0,0.0,0.0,47
2,1696242955593,0.043945312,-0.9980469,0.14453125,-0.5625,0.15625,-0.125,0.0,0.0,0.0,48
3,1696242955633,0.041015625,-0.99121094,0.13867188,-0.5,0.15625,-0.1875,0.0,0.0,0.0,49
4,1696242955673,0.047851562,-1.0,0.13574219,-0.5,0.03125,-0.25,0.0,0.0,0.0,50
5,1696242955713,0.052734375,-0.98828125,0.1171875,-0.15625,-0.15625,0.1875,0.0,0.0,0.0,51
6,1696242955753,0.043945312,-0.9970703,0.13378906,0.09375,-0.03125,0.0625,0.0,0.0,0.0,52
7,1696242955793,0.04296875,-0.99609375,0.14453125,0.40625,-0.28125,-0.125,0.0,0.0,0.0,53
8,1696242955833,0.037109375,-0.9951172,0.14355469,0.53125,0.03125,-0.0625,0.0,0.0,0.0,54
9,1696242955873,0.053710938,-0.9921875,0.14941406,0.46875,0.09375,-0.0625,0.0,0.0,0.0,55
10,1696242955913,0.05078125,-0.99316406,0.13085938,0.40625,0.03125,-0.3125,-51.4375,-38.6875,-62.125,56
11,1696242955953,0.044921875,-0.98828125,0.14355469,0.03125,0.03125,-0.0625,0.0,0.0,0.0,57
12,1696242955993,0.047851562,-0.984375,0.1484375,-0.34375,0.03125,-0.0625,0.0,0.0,0.0,58
13,1696242956033,0.044921875,-0.9980469,0.13378906,-0.21875,-0.09375,0.0,0.0,0.0,0.0,59
14,1696242956073,0.05078125,-0.99316406,0.1484375,-0.40625,-0.09375,0.0625,0.0,0.0,0.0,60
15,1696242956113,0.049804688,-1.0019531,0.12695312,-0.09375,-0.09375,0.0,0.0,0.0,0.0,61
16,1696242956153,0.05078125,-0.9980469,0.12597656,-0.09375,0.03125,-0.1875,0.0,0.0,0.0,62
17,1696242956193,0.049804688,-0.9951172,0.14257812,0.03125,-0.03125,0.0,0.0,0.0,0.0,63
18,1696242956233,0.045898438,-0.9970703,0.1484375,-0.03125,0.21875,-0.0625,0.0,0.0,0.0,64
19,1696242956273,0.052734375,-0.98828125,0.13769531,-0.15625,0.03125,-0.1875,0.0,0.0,0.0,65
20,1696242956313,0.049804688,-0.9941406,0.13574219,-0.46875,-0.09375,-0.1875,0.0,0.0,0.0,66
21,1696242956353,0.047851562,-0.9892578,0.13769531,0.03125,-0.15625,-0.0625,0.0,0.0,0.0,67
22,1696242956393,0.04296875,-1.0,0.13476562,0.21875,-0.03125,0.0,-51.0,-38.1875,-62.625,68
23,1696242956433,0.049804688,-0.9902344,0.13964844,0.28125,-0.15625,-0.0625,0.0,0.0,0.0,69
24,1696242956473,0.056640625,-0.9863281,0.13574219,0.53125,-0.28125,0.125,0.0,0.0,0.0,111
25,1696242956513,0.038085938,-0.99609375,0.16210938,0.65625,-0.15625,0.125,0.0,0.0,0.0,112
26,1696242956553,0.038085938,-0.99316406,0.15527344,0.34375,0.03125,-0.125,0.0,0.0,0.0,113
27,1696242956593,0.047851562,-0.9951172,0.15820312,-0.5,-0.03125,-0.3125,0.0,0.0,0.0,114
28,1696242956633,0.052734375,-1.0009766,0.15527344,-0.46875,-0.15625,0.125,0.0,0.0,0.0,115
29,1696242956673,0.043945312,-0.9941406,0.140625,-0.28125,-0.03125,-0.125,0.0,0.0,0.0,116
30,1696242956713,0.047851562,-0.9951172,0.13964844,-0.15625,-0.15625,0.125,0.0,0.0,0.0,117
31,1696242956753,0.052734375,-0.9951172,0.14648438,-0.21875,-0.09375,0.0,-51.0,-37.75,-61.5625,118
32,1696242956793,0.044921875,-0.99902344,0.14941406,0.28125,0.09375,-0.125,0.0,0.0,0.0,119
33,1696242956833,0.052734375,-1.0009766,0.16015625,-0.28125,-0.09375,-0.1875,0.0,0.0,0.0,120
34,1696242956873,0.049804688,-0.9951172,0.140625,-0.28125,-0.09375,-0.1875,0.0,0.0,0.0,121
35,1696242956913,0.05078125,-0.99316406,0.16992188,-0.34375,0.03125,-0.3125,0.0,0.0,0.0,122
36,1696242956953,0.048828125,-0.9951172,0.14160156,-0.5625,-0.03125,-0.0625,0.0,0.0,0.0,123
37,1696242956993,0.041015625,-0.99121094,0.14257812,-0.40625,-0.03125,0.0,0.0,0.0,0.0,124
38,1696242957033,0.048828125,-0.9902344,0.14648438,-0.34375,-0.03125,-0.1875,0.0,0.0,0.0,125
39,1696242957073,0.053710938,-0.99316406,0.15625,0.03125,0.15625,-0.0625,0.0,0.0,0.0,126
40,1696242957113,0.04296875,-0.99902344,0.15234375,0.03125,-0.15625,-0.1875,0.0,0.0,0.0,127
41,1696242957153,0.049804688,-0.9941406,0.15527344,0.28125,0.03125,-0.1875,0.0,0.0,0.0,128
42,1696242957193,0.045898438,-0.99609375,0.14941406,0.65625,0.09375,0.0,0.0,0.0,0.0,129
43,1696242957233,0.052734375,-0.99316406,0.14257812,-0.21875,0.21875,-0.3125,0.0,0.0,0.0,130
44,1696242957273,0.052734375,-0.98339844,0.14355469,-0.5625,-0.09375,-0.125,-48.625,-38.6875,-60.625,131
45,1696242957313,0.046875,-0.9951172,0.14648438,-0.40625,0.03125,-0.3125,0.0,0.0,0.0,132
46,1696242957353,0.04296875,-0.9902344,0.14453125,0.09375,-0.03125,0.0625,0.0,0.0,0.0,133
47,1696242957393,0.0390625,-0.99316406,0.16308594,0.15625,0.03125,0.0,0.0,0.0,0.0,134
48,1696242957433,0.047851562,-0.99609375,0.15136719,0.40625,-0.09375,0.125,0.0,0.0,0.0,151
49,1696242957473,0.045898438,-0.99121094,0.14550781,0.21875,-0.21875,0.0,0.0,0.0,0.0,152
50,1696242957513,0.053710938,-0.9980469,0.140625,0.28125,0.03125,0.0,0.0,0.0,0.0,153
51,1696242957553,0.049804688,-0.9892578,0.14257812,-0.15625,0.09375,-0.4375,0.0,0.0,0.0,154
52,1696242957593,0.056640625,-0.9892578,0.14648438,0.03125,0.03125,-0.3125,0.0,0.0,0.0,155
53,1696242957633,0.045898438,-0.99316406,0.14355469,-0.46875,-0.03125,-0.125,-50.375,-38.375,-62.4375,156
54,1696242957673,0.0546875,-0.99902344,0.13964844,-0.40625,0.03125,0.0,0.0,0.0,0.0,157
55,1696242957713,0.053710938,-0.9980469,0.123046875,-0.09375,-0.09375,-0.0625,0.0,0.0,0.0,158
56,1696242957753,0.05078125,-1.0,0.14648438,-0.03125,-0.03125,0.0625,0.0,0.0,0.0,159
57,1696242957793,0.051757812,-0.99121094,0.13574219,0.03125,-0.03125,0.125,0.0,0.0,0.0,160
58,1696242957833,0.043945312,-0.99609375,0.15136719,-0.09375,-0.03125,-0.1875,0.0,0.0,0.0,161
59,1696242957873,0.048828125,-0.9970703,0.14746094,-0.09375,-0.03125,-0.1875,0.0,0.0,0.0,162
60,1696242957913,0.04296875,-0.9863281,0.14355469,0.21875,0.09375,-0.0625,0.0,0.0,0.0,163
61,1696242957953,0.05078125,-1.0029297,0.13476562,0.15625,0.03125,-0.125,0.0,0.0,0.0,164
62,1696242957993,0.044921875,-0.9970703,0.14746094,0.34375,-0.09375,0.0625,0.0,0.0,0.0,165
63,1696242958033,0.044921875,-0.9941406,0.14355469,-0.09375,-0.03125,-0.1875,0.0,0.0,0.0,166
64,1696242958073,0.043945312,-0.9902344,0.13769531,0.09375,0.03125,-0.0625,0.0,0.0,0.0,167
65,1696242958113,0.0390625,-0.9902344,0.13769531,-0.625,-0.03125,-0.1875,-49.375,-38.6875,-61.375,168
66,1696242958153,0.045898438,-0.99609375,0.14648438,-0.34375,-0.15625,-0.0625,0.0,0.0,0.0,169
67,1696242958193,0.053710938,-0.9951172,0.13964844,0.15625,0.03125,0.125,0.0,0.0,0.0,170
68,1696242958233,0.052734375,-0.99121094,0.13085938,0.40625,-0.09375,0.25,0.0,0.0,0.0,171
69,1696242958273,0.046875,-0.9863281,0.14941406,0.53125,-0.03125,0.0625,0.0,0.0,0.0,172
70,1696242958313,0.052734375,-0.9873047,0.13476562,0.59375,-0.21875,-0.0625,0.0,0.0,0.0,173
71,1696242958353,0.047851562,-0.9980469,0.1484375,0.15625,-0.03125,-0.125,0.0,0.0,0.0,174
72,1696242958393,0.055664062,-0.99121094,0.14941406,0.21875,0.03125,0.0,0.0,0.0,0.0,175
73,1696242958433,0.0546875,-0.98828125,0.13671875,-0.40625,-0.09375,-0.0625,0.0,0.0,0.0,176
74,1696242958473,0.052734375,-0.99609375,0.15136719,-0.46875,-0.21875,0.125,0.0,0.0,0.0,177
75,1696242958513,0.040039062,-0.9970703,0.13183594,-0.03125,-0.09375,0.125,0.0,0.0,0.0,178
76,1696242958553,0.047851562,-0.9980469,0.12597656,0.40625,-0.15625,0.0625,0.0,0.0,0.0,179
77,1696242958593,0.046875,-0.9902344,0.14160156,0.21875,-0.03125,0.0625,0.0,0.0,0.0,180
78,1696242958633,0.05078125,-0.9892578,0.14550781,0.40625,-0.09375,0.1875,-51.125,-38.0625,-61.6875,181
79,1696242958673,0.052734375,-0.9902344,0.14550781,0.28125,-0.03125,0.0625,0.0,0.0,0.0,182
80,1696242958713,0.048828125,-0.99121094,0.13964844,-0.03125,0.03125,0.0625,0.0,0.0,0.0,183
81,1696242958753,0.046875,-0.99609375,0.15527344,0.03125,-0.03125,0.125,0.0,0.0,0.0,184
82,1696242958793,0.044921875,-0.9921875,0.13964844,0.34375,-0.09375,0.0625,0.0,0.0,0.0,185
83,1696242958833,0.044921875,-0.9921875,0.13867188,-0.09375,-0.21875,-0.125,0.0,0.0,0.0,186
84,1696242958873,0.046875,-0.9980469,0.14160156,0.65625,-0.21875,0.1875,0.0,0.0,0.0,187
85,1696242958913,0.045898438,-1.0019531,0.140625,-0.03125,0.03125,-0.0625,0.0,0.0,0.0,188
86,1696242958953,0.048828125,-1.0019531,0.13574219,0.40625,-0.03125,0.0625,0.0,0.0,0.0,189
87,1696242958993,0.047851562,-0.9951172,0.14941406,-0.21875,-0.09375,-0.0625,0.0,0.0,0.0,190
88,1696242959033,0.055664062,-0.9941406,0.14746094,-0.21875,-0.15625,0.375,0.0,0.0,0.0,191
89,1696242959073,0.0390625,-1.0009766,0.13378906,0.28125,-0.09375,0.3125,0.0,0.0,0.0,192
90,1696242959113,0.055664062,-0.9951172,0.15332031,0.46875,-0.28125,0.0,-49.8125,-37.75,-62.3125,193
91,1696242959153,0.047851562,-0.99316406,0.14746094,0.53125,-0.15625,0.1875,0.0,0.0,0.0,194
92,1696242959193,0.041015625,-0.9902344,0.13867188,0.21875,-0.09375,0.0625,0.0,0.0,0.0,195
93,1696242959233,0.046875,-0.9951172,0.14355469,0.21875,-0.03125,-0.0625,0.0,0.0,0.0,196
94,1696242959273,0.051757812,-1.0009766,0.14355469,0.15625,-0.09375,0.1875,0.0,0.0,0.0,197
95,1696242959313,0.043945312,-0.99316406,0.15039062,-0.09375,-0.03125,0.1875,0.0,0.0,0.0,198
96,1696242959353,0.053710938,-0.9980469,0.14746094,-0.03125,-0.15625,0.25,0.0,0.0,0.0,199
97,1696242959393,0.05078125,-0.9970703,0.14257812,0.03125,-0.03125,0.125,0.0,0.0,0.0,200
98,1696242959433,0.047851562,-0.99316406,0.13476562,0.40625,-0.09375,-0.125,0.0,0.0,0.0,201
99,1696242959473,0.051757812,-0.9941406,0.14257812,0.65625,0.03125,-0.125,0.0,0.0,0.0,202
100,1696242959513,0.048828125,-0.99121094,0.13671875,0.40625,0.03125,0.0,0.0,0.0,0.0,203
101,1696242959553,0.0546875,-0.99121094,0.15039062,0.40625,-0.15625,0.0625,0.0,0.0,0.0,204
102,1696242959593,0.049804688,-0.9941406,0.15136719,1.0,-0.15625,0.125,0.0,0.0,0.0,205
103,1696242959633,0.043945312,-0.99121094,0.14648438,0.71875,-0.15625,0.0,-49.375,-38.6875,-62.125,206
104,1696242959673,0.051757812,-0.9941406,0.15625,-0.5,-0.03125,-0.3125,0.0,0.0,0.0,207
105,1696242959713,0.052734375,-0.9951172,0.15332031,-0.15625,0.03125,-0.0625,0.0,0.0,0.0,208
106,1696242959753,0.046875,-0.9941406,0.15429688,-0.15625,-0.03125,-0.1875,0.0,0.0,0.0,209
107,1696242959793,0.047851562,-0.9941406,0.15234375,-0.8125,-0.03125,0.125,0.0,0.0,0.0,210
108,1696242959833,0.048828125,-0.9951172,0.13378906,-0.28125,-0.09375,0.0625,0.0,0.0,0.0,211
109,1696242959873,0.044921875,-1.0,0.140625,-0.21875,-0.03125,-0.125,0.0,0.0,0.0,212
110,1696242959913,0.04296875,-0.99316406,0.15625,0.09375,-0.09375,0.125,0.0,0.0,0.0,213
111,1696242959953,0.046875,-0.9921875,0.14746094,-0.03125,0.09375,-0.1875,0.0,0.0,0.0,214
112,1696242959993,0.049804688,-0.9814453,0.14746094,-0.21875,-0.03125,-0.125,0.0,0.0,0.0,215
113,1696242960033,0.04296875,-0.9951172,0.15136719,-0.625,0.03125,-0.0625,0.0,0.0,0.0,216
114,1696242960073,0.046875,-0.9941406,0.15917969,-0.21875,0.09375,-0.0625,0.0,0.0,0.0,217
115,1696242960113,0.04296875,-0.99316406,0.14257812,-0.03125,0.09375,-0.1875,-48.4375,-38.9375,-61.25,218
116,1696242960153,0.043945312,-0.9970703,0.15039062,-0.28125,-0.09375,-0.125,0.0,0.0,0.0,219
117,1696242960193,0.047851562,-1.0019531,0.14746094,-0.5,-0.09375,-0.0625,0.0,0.0,0.0,220
118,1696242960233,0.04296875,-0.9902344,0.13867188,0.03125,-0.15625,0.0625,0.0,0.0,0.0,221
119,1696242960273,0.045898438,-0.99609375,0.14550781,0.03125,-0.03125,-0.125,0.0,0.0,0.0,222
120,1696242960313,0.044921875,-0.9951172,0.14648438,0.09375,-0.03125,-0.0625,0.0,0.0,0.0,223
121,1696242960353,0.047851562,-0.9970703,0.14453125,0.21875,0.15625,0.0625,0.0,0.0,0.0,224
122,1696242960393,0.045898438,-0.98828125,0.15332031,-0.34375,0.03125,-0.375,0.0,0.0,0.0,225
123,1696242960433,0.045898438,-0.9951172,0.13574219,-0.34375,-0.03125,-0.1875,0.0,0.0,0.0,226
124,1696242960473,0.043945312,-0.99609375,0.140625,-0.5625,-0.15625,-0.3125,0.0,0.0,0.0,227
125,1696242960513,0.052734375,-0.9951172,0.15625,-0.625,-0.21875,0.0,0.0,0.0,0.0,228
126,1696242960553,0.048828125,-1.0029297,0.13867188,-0.34375,-0.09375,0.1875,0.0,0.0,0.0,229
127,1696242960593,0.047851562,-0.9951172,0.14160156,-0.28125,-0.09375,0.125,0.0,0.0,0.0,230
128,1696242960633,0.041992188,-0.9951172,0.14746094,0.40625,0.03125,-0.125,-48.75,-38.9375,-63.0625,231
129,1696242960673,0.046875,-0.9970703,0.15136719,0.40625,0.03125,-0.375,0.0,0.0,0.0,232
130,1696242960713,0.052734375,-1.0,0.14453125,0.28125,0.03125,-0.3125,0.0,0.0,0.0,233
131,1696242960753,0.043945312,-0.9921875,0.15136719,0.09375,-0.03125,-0.3125,0.0,0.0,0.0,234
132,1696242960793,0.053710938,-0.99316406,0.15234375,-0.09375,-0.09375,0.0625,0.0,0.0,0.0,235
133,1696242960833,0.049804688,-0.99316406,0.15136719,-0.15625,-0.09375,0.0625,0.0,0.0,0.0,236
134,1696242960873,0.048828125,-1.0009766,0.14355469,-0.40625,-0.03125,0.0625,0.0,0.0,0.0,237
135,1696242960913,0.05078125,-0.9980469,0.15332031,-0.03125,0.03125,0.0625,0.0,0.0,0.0,238
136,1696242960953,0.049804688,-0.9921875,0.14453125,-0.28125,-0.03125,0.0,0.0,0.0,0.0,239
137,1696242960993,0.045898438,-0.99316406,0.13671875,-0.15625,-0.09375,0.0,0.0,0.0,0.0,240
138,1696242961033,0.043945312,-0.9941406,0.14550781,0.03125,0.21875,-0.1875,0.0,0.0,0.0,241
139,1696242961073,0.052734375,-0.9902344,0.14257812,0.15625,0.09375,-0.25,0.0,0.0,0.0,242
140,1696242961113,0.048828125,-1.0019531,0.15039062,0.21875,-0.09375,-0.1875,-50.25,-38.9375,-62.625,243
141,1696242961153,0.040039062,-1.0009766,0.13671875,0.34375,0.09375,-0.0625,0.0,0.0,0.0,244
142,1696242961193,0.043945312,-0.9921875,0.14746094,-0.15625,0.03125,-0.1875,0.0,0.0,0.0,245
143,1696242961233,0.053710938,-0.9902344,0.13183594,-0.46875,-0.09375,-0.0625,0.0,0.0,0.0,246
144,1696242961273,0.056640625,-0.9970703,0.14648438,-0.15625,-0.03125,0.1875,0.0,0.0,0.0,247
145,1696242961313,0.046875,-0.9921875,0.13085938,-0.34375,-0.03125,-0.0625,0.0,0.0,0.0,248
146,1696242961353,0.047851562,-0.9941406,0.14355469,0.03125,-0.03125,0.25,0.0,0.0,0.0,249
147,1696242961393,0.045898438,-0.9902344,0.14160156,0.15625,0.15625,-0.0625,0.0,0.0,0.0,250
148,1696242961433,0.047851562,-1.0029297,0.14160156,0.53125,0.03125,-0.1875,0.0,0.0,0.0,251
149,1696242961473,0.045898438,-0.99902344,0.15332031,0.34375,0.03125,-0.375,0.0,0.0,0.0,252
150,1696242961513,0.052734375,-0.98828125,0.15332031,-0.03125,0.09375,-0.3125,0.0,0.0,0.0,253
151,1696242961553,0.045898438,-0.984375,0.14648438,-0.34375,0.03125,-0.3125,0.0,0.0,0.0,254
152,1696242961593,0.049804688,-0.98339844,0.14550781,-0.28125,-0.15625,-0.0625,0.0,0.0,0.0,255
153,1696242961633,0.0546875,-1.0009766,0.14453125,0.09375,0.03125,0.125,-48.75,-38.9375,-62.3125,256
154,1696242961673,0.045898438,-0.99121094,0.14941406,0.03125,-0.03125,-0.125,0.0,0.0,0.0,257
155,1696242961713,0.045898438,-1.0,0.15332031,0.21875,0.03125,0.0,0.0,0.0,0.0,258
156,1696242961753,0.047851562,-0.99902344,0.13964844,0.71875,-0.09375,-0.0625,0.0,0.0,0.0,259
157,1696242961793,0.053710938,-1.0,0.15527344,0.65625,0.03125,-0.1875,0.0,0.0,0.0,260
158,1696242961833,0.053710938,-0.99609375,0.13964844,-0.03125,0.09375,0.25,0.0,0.0,0.0,261
159,1696242961873,0.044921875,-0.9970703,0.14550781,0.09375,-0.09375,0.0625,0.0,0.0,0.0,262
160,1696242961913,0.048828125,-0.9941406,0.14257812,0.40625,-0.03125,0.0625,0.0,0.0,0.0,263
161,1696242961953,0.049804688,-0.9970703,0.14550781,0.15625,-0.15625,-0.0625,0.0,0.0,0.0,264
162,1696242961993,0.055664062,-0.9951172,0.15039062,-0.09375,-0.03125,0.0625,0.0,0.0,0.0,265
163,1696242962033,0.046875,-0.9921875,0.14160156,-0.03125,0.09375,-0.125,0.0,0.0,0.0,266
164,1696242962073,0.04296875,-0.99121094,0.13964844,0.03125,-0.09375,0.0625,0.0,0.0,0.0,267
165,1696242962113,0.0546875,-0.9951172,0.13964844,0.46875,-0.03125,0.125,-48.0,-38.1875,-62.3125,268
166,1696242962153,0.049804688,-1.0029297,0.14160156,-0.09375,0.09375,-0.125,0.0,0.0,0.0,269
167,1696242962193,0.059570312,-0.99902344,0.14648438,-0.09375,-0.03125,0.0,0.0,0.0,0.0,270
168,1696242962233,0.048828125,-1.0,0.13964844,-0.28125,-0.15625,0.0625,0.0,0.0,0.0,271
169,1696242962273,0.051757812,-0.99121094,0.13476562,0.21875,-0.28125,0.125,0.0,0.0,0.0,272
170,1696242962313,0.045898438,-0.9902344,0.14550781,0.46875,-0.15625,0.1875,0.0,0.0,0.0,273
171,1696242962353,0.052734375,-0.9941406,0.14355469,0.21875,-0.21875,0.0,0.0,0.0,0.0,274
172,1696242962393,0.045898438,-1.0009766,0.15136719,0.65625,-0.03125,0.0625,0.0,0.0,0.0,275
173,1696242962433,0.04296875,-0.9951172,0.14941406,0.34375,-0.03125,-0.1875,0.0,0.0,0.0,276
174,1696242962473,0.051757812,-0.9892578,0.14257812,0.21875,-0.03125,-0.0625,0.0,0.0,0.0,277
175,1696242962513,0.0546875,-0.98339844,0.15820312,0.15625,-0.09375,0.0,0.0,0.0,0.0,278
176,1696242962553,0.05078125,-1.0019531,0.13769531,-0.03125,0.03125,0.0,0.0,0.0,0.0,279
177,1696242962593,0.048828125,-0.99902344,0.15234375,0.15625,-0.09375,0.25,0.0,0.0,0.0,280
178,1696242962633,0.047851562,-1.0,0.14453125,0.21875,-0.15625,0.125,-50.125,-40.1875,-61.375,281
179,1696242962673,0.0390625,-0.9941406,0.1484375,-0.03125,-0.125,0.1875,0.0,0.0,0.0,282
180,1696242962713,0.0390625,-0.9980469,0.15722656,-0.15625,-0.125,0.0625,0.0,0.0,0.0,283
181,1696242962753,0.037109375,-0.99316406,0.14941406,0.21875,0.0625,-0.0625,0.0,0.0,0.0,284
182,1696242962793,0.05078125,-1.0,0.14355469,0.15625,0.125,0.0,0.0,0.0,0.0,285
183,1696242962833,0.049804688,-0.99316406,0.15527344,-0.21875,0.0625,-0.125,0.0,0.0,0.0,286
184,1696242962873,0.048828125,-0.9941406,0.14453125,-0.28125,-0.0625,0.0625,0.0,0.0,0.0,287
185,1696242962913,0.05078125,-0.9980469,0.15527344,-0.09375,0.0,0.0,0.0,0.0,0.0,288
186,1696242962953,0.052734375,-0.99121094,0.15234375,0.53125,0.0,0.1875,0.0,0.0,0.0,289
187,1696242962993,0.051757812,-0.9941406,0.14257812,-0.4375,-0.0625,-0.125,0.0,0.0,0.0,290
188,1696242963033,0.043945312,-0.9941406,0.14355469,-0.75,0.125,-0.0625,0.0,0.0,0.0,291
189,1696242963073,0.049804688,-0.9951172,0.15820312,-0.5,0.0,-0.0625,0.0,0.0,0.0,292
190,1696242963113,0.046875,-0.99121094,0.14648438,-0.5625,-0.25,-0.1875,-49.5,-38.1875,-63.0625,293
191,1696242963153,0.052734375,-0.99316406,0.14550781,-0.03125,-0.125,0.3125,0.0,0.0,0.0,294
192,1696242963193,0.047851562,-1.0,0.16894531,0.15625,0.0625,0.125,0.0,0.0,0.0,295
193,1696242963233,0.045898438,-0.9873047,0.15429688,0.28125,-0.0625,-0.125,0.0,0.0,0.0,296
194,1696242963273,0.047851562,-0.9921875,0.14160156,-0.03125,0.0625,-0.1875,0.0,0.0,0.0,297
195,1696242963313,0.052734375,-0.98828125,0.13671875,-0.375,-0.0625,-0.3125,0.0,0.0,0.0,298
196,1696242963353,0.05078125,-0.9921875,0.15136719,-0.875,0.0625,-0.1875,0.0,0.0,0.0,299
197,1696242963393,0.05078125,-0.9951172,0.13964844,-1.1875,0.0,-0.1875,0.0,0.0,0.0,300
198,1696242963433,0.051757812,-0.99121094,0.1484375,-0.6875,0.0,-0.125,0.0,0.0,0.0,301
199,1696242963473,0.052734375,-1.0,0.14941406,-0.34375,0.0,0.0,0.0,0.0,0.0,302
200,1696242963513,0.048828125,-1.0039062,0.15625,-0.28125,-0.0625,0.0625,0.0,0.0,0.0,303
201,1696242963553,0.052734375,-0.9951172,0.13867188,-0.28125,-0.0625,-0.125,0.0,0.0,0.0,304
202,1696242963593,0.046875,-1.0009766,0.14746094,-0.15625,0.0625,0.0,0.0,0.0,0.0,305
203,1696242963633,0.047851562,-0.9941406,0.15722656,-0.34375,0.0625,-0.1875,-49.8125,-38.1875,-61.5625,306
204,1696242963673,0.047851562,-0.99316406,0.15136719,-0.375,0.0625,-0.25,0.0,0.0,0.0,307
205,1696242963713,0.0546875,-0.9970703,0.14453125,-0.28125,-0.125,-0.125,0.0,0.0,0.0,308
206,1696242963753,0.036132812,-0.98339844,0.13867188,-0.28125,0.125,-0.0625,0.0,0.0,0.0,309
207,1696242963793,0.055664062,-0.99316406,0.1640625,-0.5,0.0625,-0.0625,0.0,0.0,0.0,310
208,1696242963833,0.055664062,-0.98828125,0.1484375,-0.34375,0.125,-0.125,0.0,0.0,0.0,311
209,1696242963873,0.055664062,-0.99902344,0.14648438,-0.375,-0.0625,-0.0625,0.0,0.0,0.0,312
210,1696242963913,0.041015625,-0.9921875,0.15820312,-0.28125,0.0,0.0625,0.0,0.0,0.0,313
211,1696242963953,0.040039062,-1.0019531,0.1484375,-0.34375,0.125,-0.125,0.0,0.0,0.0,314
212,1696242963993,0.043945312,-0.9921875,0.140625,-0.21875,0.0,0.0625,0.0,0.0,0.0,315
213,1696242964033,0.041992188,-0.99609375,0.14160156,-0.09375,0.125,-0.0625,0.0,0.0,0.0,316
214,1696242964073,0.052734375,-0.98535156,0.14355469,-0.4375,-0.125,-0.1875,0.0,0.0,0.0,317
215,1696242964113,0.048828125,-1.0,0.16894531,-0.5,0.0625,-0.25,-51.125,-39.125,-62.4375,318
216,1696242964153,0.049804688,-0.9980469,0.15332031,-0.9375,0.0625,-0.1875,0.0,0.0,0.0,319
217,1696242964193,0.047851562,-1.0009766,0.14355469,-0.5625,-0.0625,-0.0625,0.0,0.0,0.0,320
218,1696242964233,0.049804688,-0.99121094,0.13867188,-0.15625,0.0,0.0,0.0,0.0,0.0,321
219,1696242964273,0.045898438,-0.99121094,0.14746094,-0.03125,0.0625,0.0625,0.0,0.0,0.0,322
220,1696242964313,0.05078125,-0.98828125,0.14648438,-0.4375,-0.0625,-0.125,0.0,0.0,0.0,323
221,1696242964353,0.043945312,-0.99609375,0.13671875,-0.28125,-0.0625,-0.25,0.0,0.0,0.0,324
222,1696242964393,0.05078125,-0.99609375,0.15527344,0.21875,0.0625,-0.3125,0.0,0.0,0.0,325
223,1696242964433,0.044921875,-0.99121094,0.15039062,0.15625,-0.0625,-0.0625,0.0,0.0,0.0,326
224,1696242964473,0.044921875,-1.0009766,0.14648438,-0.03125,0.0,-0.125,0.0,0.0,0.0,327
225,1696242964513,0.051757812,-0.9980469,0.15820312,-0.4375,0.0,-0.1875,0.0,0.0,0.0,328
226,1696242964553,0.04296875,-1.0,0.15234375,-0.21875,0.0,-0.125,0.0,0.0,0.0,329
227,1696242964593,0.048828125,-0.98828125,0.15527344,-0.5625,0.0625,0.0,0.0,0.0,0.0,330
228,1696242964633,0.041015625,-0.9941406,0.140625,-0.8125,0.0625,-0.125,-49.8125,-38.5,-61.875,331
229,1696242964673,0.05078125,-0.9980469,0.14746094,-0.9375,0.1875,0.0,0.0,0.0,0.0,332
230,1696242964713,0.051757812,-0.98535156,0.14550781,-0.5625,-0.125,-0.0625,0.0,0.0,0.0,333
231,1696242964753,0.051757812,-0.9951172,0.14453125,-0.34375,-0.1875,0.125,0.0,0.0,0.0,334
232,1696242964793,0.047851562,-0.9980469,0.14550781,-0.15625,0.0,0.1875,0.0,0.0,0.0,335
233,1696242964833,0.045898438,-0.9873047,0.15039062,0.15625,0.0625,-0.0625,0.0,0.0,0.0,336
234,1696242964873,0.044921875,-0.9980469,0.15917969,0.21875,0.0625,-0.0625,0.0,0.0,0.0,337
235,1696242964913,0.053710938,-0.9921875,0.14550781,-0.21875,0.0625,-0.25,0.0,0.0,0.0,338
236,1696242964953,0.037109375,-0.99316406,0.15527344,-0.21875,0.0625,-0.25,0.0,0.0,0.0,339
237,1696242964993,0.045898438,-0.9921875,0.13867188,-0.4375,0.0625,-0.1875,0.0,0.0,0.0,340
238,1696242965033,0.043945312,-0.9941406,0.14648438,-0.34375,0.0,-0.0625,0.0,0.0,0.0,341
239,1696242965073,0.049804688,-1.0009766,0.14648438,-0.21875,0.0,0.125,0.0,0.0,0.0,342
240,1696242965113,0.043945312,-0.99609375,0.1484375,-0.09375,0.0,-0.0625,-49.375,-36.875,-62.75,343
241,1696242965153,0.052734375,-0.9970703,0.14550781,-0.09375,0.0625,-0.0625,0.0,0.0,0.0,344
242,1696242965193,0.044921875,-0.99121094,0.14648438,-0.03125,0.0,0.0,0.0,0.0,0.0,345
243,1696242965233,0.043945312,-0.99316406,0.15039062,-0.21875,0.0,-0.25,0.0,0.0,0.0,346
244,1696242965273,0.047851562,-0.98828125,0.15136719,-0.15625,0.0625,-0.1875,0.0,0.0,0.0,347
245,1696242965313,0.0546875,-1.0,0.15039062,-0.28125,0.0,-0.25,0.0,0.0,0.0,348
246,1696242965353,0.053710938,-0.99316406,0.140625,-0.34375,0.0,0.0625,0.0,0.0,0.0,349
247,1696242965393,0.051757812,-1.0009766,0.14648438,-0.15625,0.0625,-0.125,0.0,0.0,0.0,350
248,1696242965433,0.048828125,-0.99121094,0.140625,0.09375,0.0625,0.125,0.0,0.0,0.0,351
249,1696242965473,0.046875,-0.9980469,0.13964844,0.09375,0.125,0.125,0.0,0.0,0.0,352
250,1696242965513,0.051757812,-1.0078125,0.15332031,0.21875,0.0,-0.0625,0.0,0.0,0.0,353
251,1696242965553,0.048828125,-0.99609375,0.15039062,0.03125,0.125,-0.125,0.0,0.0,0.0,354
252,1696242965593,0.047851562,-0.984375,0.15625,-0.4375,0.0625,-0.0625,0.0,0.0,0.0,355
253,1696242965633,0.057617188,-1.0019531,0.14746094,-0.625,0.0,0.0625,-50.125,-38.375,-62.4375,356
254,1696242965673,0.0546875,-0.9980469,0.1484375,-0.5,0.0,0.0,0.0,0.0,0.0,357
255,1696242965713,0.048828125,-0.9921875,0.14648438,0.09375,-0.1875,0.25,0.0,0.0,0.0,358
256,1696242965753,0.047851562,-1.0009766,0.13476562,0.09375,-0.0625,0.125,0.0,0.0,0.0,359
257,1696242965793,0.049804688,-0.99121094,0.14648438,0.40625,-0.0625,0.0625,0.0,0.0,0.0,360
258,1696242965833,0.045898438,-0.9951172,0.14160156,0.59375,-0.0625,0.0625,0.0,0.0,0.0,361
259,1696242965873,0.041992188,-0.98828125,0.15527344,0.46875,0.0625,-0.25,0.0,0.0,0.0,362
260,1696242965913,0.051757812,-0.99902344,0.14648438,0.21875,0.0625,-0.1875,0.0,0.0,0.0,363
261,1696242965953,0.046875,-0.9921875,0.140625,-0.03125,0.0625,0.0625,0.0,0.0,0.0,364
262,1696242965993,0.045898438,-0.9951172,0.14355469,-0.09375,0.0625,0.0625,0.0,0.0,0.0,365
263,1696242966033,0.049804688,-0.9980469,0.15429688,0.09375,-0.0625,0.1875,0.0,0.0,0.0,366
264,1696242966073,0.040039062,-0.9970703,0.15820312,-0.09375,0.0,0.125,0.0,0.0,0.0,367
265,1696242966113,0.041992188,-1.0,0.15332031,0.15625,0.0625,-0.0625,-49.5,-37.75,-62.625,368
266,1696242966153,0.045898438,-0.9892578,0.13671875,-0.03125,0.0,0.0625,0.0,0.0,0.0,369
267,1696242966193,0.05078125,-1.0019531,0.16113281,0.15625,0.0,0.0,0.0,0.0,0.0,370
268,1696242966233,0.0546875,-0.9873047,0.15429688,0.03125,0.0,-0.0625,0.0,0.0,0.0,371
269,1696242966273,0.052734375,-0.99902344,0.13867188,0.21875,-0.125,0.1875,0.0,0.0,0.0,372
270,1696242966313,0.05078125,-0.9941406,0.15332031,-0.03125,-0.125,0.1875,0.0,0.0,0.0,373
271,1696242966353,0.051757812,-0.99902344,0.15332031,0.15625,-0.25,0.125,0.0,0.0,0.0,374
272,1696242966393,0.041015625,-0.99609375,0.14941406,0.15625,-0.125,0.125,0.0,0.0,0.0,375
273,1696242966433,0.053710938,-0.99121094,0.15039062,0.15625,0.1875,0.0,0.0,0.0,0.0,376
274,1696242966473,0.044921875,-0.99609375,0.1484375,-0.5625,0.0,-0.1875,0.0,0.0,0.0,377
275,1696242966513,0.053710938,-0.99902344,0.14941406,-0.375,0.0,0.0,0.0,0.0,0.0,378
276,1696242966553,0.05078125,-0.98828125,0.15234375,-0.34375,-0.1875,0.0625,0.0,0.0,0.0,379
277,1696242966593,0.051757812,-0.9824219,0.15625,0.09375,0.0625,0.25,0.0,0.0,0.0,380
278,1696242966633,0.047851562,-0.99121094,0.15527344,0.03125,-0.125,0.125,-50.6875,-38.0625,-61.6875,381
279,1696242966673,0.043945312,-0.9863281,0.1640625,-0.21875,0.0625,-0.0625,0.0,0.0,0.0,382
280,1696242966713,0.044921875,-0.99121094,0.14746094,-0.28125,0.0625,-0.125,0.0,0.0,0.0,383
281,1696242966753,0.05078125,-0.9921875,0.14453125,-0.4375,0.0625,-0.25,0.0,0.0,0.0,384
282,1696242966793,0.0546875,-0.98828125,0.16113281,-0.625,0.0,-0.3125,0.0,0.0,0.0,385
283,1696242966833,0.041015625,-0.9902344,0.15722656,-0.875,0.125,-0.125,0.0,0.0,0.0,386
284,1696242966873,0.052734375,-0.98535156,0.15917969,-0.5,0.0,0.0625,0.0,0.0,0.0,387
285,1696242966913,0.052734375,-1.0,0.14453125,-0.09375,0.125,0.0625,0.0,0.0,0.0,388
286,1696242966953,0.045898438,-0.99609375,0.15527344,-0.28125,0.0,0.0,0.0,0.0,0.0,389
287,1696242966993,0.048828125,-0.9902344,0.14746094,-0.28125,-0.125,0.0625,0.0,0.0,0.0,390
288,1696242967033,0.04296875,-0.9941406,0.1484375,-0.28125,0.0625,-0.1875,0.0,0.0,0.0,391
289,1696242967073,0.052734375,-1.0019531,0.15136719,-0.4375,0.0,-0.0625,0.0,0.0,0.0,392
290,1696242967113,0.052734375,-0.99609375,0.13769531,-0.375,0.1875,-0.0625,-49.5,-38.9375,-61.5625,393
291,1696242967153,0.057617188,-1.0009766,0.14550781,-0.5625,0.0,-0.125,0.0,0.0,0.0,394
292,1696242967193,0.045898438,-0.9941406,0.15625,0.09375,0.0,0.0,0.0,0.0,0.0,395
293,1696242967233,0.04296875,-0.99316406,0.15332031,-0.21875,0.125,-0.125,0.0,0.0,0.0,396
294,1696242967273,0.045898438,-0.9921875,0.14941406,-0.5625,0.0625,-0.125,0.0,0.0,0.0,397
295,1696242967313,0.046875,-1.0019531,0.15136719,-0.8125,-0.0625,0.0625,0.0,0.0,0.0,398
296,1696242967353,0.043945312,-0.9921875,0.15136719,-0.9375,0.0,-0.0625,0.0,0.0,0.0,399
297,1696242967393,0.047851562,-0.9921875,0.14257812,-0.4375,-0.0625,0.0625,0.0,0.0,0.0,400
298,1696242967433,0.043945312,-1.0,0.14648438,-0.15625,0.0625,0.0625,0.0,0.0,0.0,401
299,1696242967473,0.051757812,-0.9970703,0.14746094,0.03125,0.0,-0.125,0.0,0.0,0.0,402
300,1696242967513,0.0546875,-0.99121094,0.15234375,-0.03125,0.25,-0.0625,0.0,0.0,0.0,403
301,1696242967553,0.044921875,-0.9941406,0.15429688,-0.28125,0.0,-0.125,0.0,0.0,0.0,404
302,1696242967593,0.044921875,-0.9970703,0.16113281,-0.15625,0.0,-0.0625,0.0,0.0,0.0,421
303,1696242967633,0.048828125,-0.9902344,0.13867188,-0.34375,0.0,-0.125,0.0,0.0,0.0,422
304,1696242967673,0.052734375,-0.9902344,0.15625,-0.21875,0.0625,0.0,0.0,0.0,0.0,423
305,1696242967713,0.049804688,-0.9951172,0.15625,-0.28125,0.1875,-0.25,0.0,0.0,0.0,424
306,1696242967753,0.048828125,-0.99121094,0.15625,-0.03125,0.0625,-0.125,0.0,0.0,0.0,425
307,1696242967793,0.056640625,-1.0,0.14648438,-0.34375,0.0,-0.125,0.0,0.0,0.0,426
308,1696242967833,0.04296875,-0.99609375,0.14257812,-0.34375,-0.1875,0.0625,0.0,0.0,0.0,427
309,1696242967873,0.052734375,-0.9980469,0.15332031,-0.4375,0.0,-0.0625,0.0,0.0,0.0,428
310,1696242967913,0.056640625,-0.99121094,0.15625,-0.28125,0.0,-0.0625,0.0,0.0,0.0,429
311,1696242967953,0.053710938,-0.9941406,0.15625,-0.21875,0.0,0.0,0.0,0.0,0.0,430
312,1696242967993,0.052734375,-0.9980469,0.13964844,-0.5625,0.0,0.0,-48.4375,-38.5,-61.5625,431
313,1696242968033,0.048828125,-0.9980469,0.15234375,-0.21875,0.125,0.0625,0.0,0.0,0.0,432
314,1696242968073,0.055664062,-1.0,0.171875,-0.09375,0.0625,-0.0625,0.0,0.0,0.0,433
315,1696242968113,0.051757812,-1.0,0.15527344,-0.28125,-0.0625,0.0625,0.0,0.0,0.0,434
316,1696242968153,0.055664062,-0.98828125,0.14453125,-0.03125,0.0625,-0.1875,0.0,0.0,0.0,435
317,1696242968193,0.053710938,-0.98046875,0.140625,-0.28125,0.0,-0.1875,0.0,0.0,0.0,436
318,1696242968233,0.05078125,-0.99609375,0.13867188,-0.6875,-0.125,-0.1875,0.0,0.0,0.0,437
319,1696242968273,0.048828125,-0.99609375,0.15234375,-0.09375,0.1875,-0.125,0.0,0.0,0.0,438
320,1696242968313,0.051757812,-0.9921875,0.15527344,-0.21875,0.0625,0.0,0.0,0.0,0.0,439
321,1696242968353,0.044921875,-0.9873047,0.13378906,-0.09375,0.0,0.125,0.0,0.0,0.0,440
322,1696242968393,0.043945312,-0.9892578,0.15234375,-0.34375,-0.0625,0.1875,0.0,0.0,0.0,441
323,1696242968433,0.060546875,-0.99609375,0.13769531,-0.15625,-0.125,0.1875,0.0,0.0,0.0,442
324,1696242968473,0.040039062,-1.0,0.15625,0.03125,-0.125,0.125,-49.5,-37.75,-61.5625,443
325,1696242968513,0.051757812,-0.9970703,0.15332031,-0.4375,-0.0625,0.0,0.0,0.0,0.0,444
326,1696242968553,0.044921875,-1.0097656,0.14550781,-0.03125,-0.0625,-0.0625,0.0,0.0,0.0,445
327,1696242968593,0.052734375,-0.9951172,0.16308594,0.03125,0.1875,-0.125,0.0,0.0,0.0,446
328,1696242968633,0.052734375,-0.9951172,0.16308594,-0.03125,0.0,-0.25,0.0,0.0,0.0,447
329,1696242968673,0.045898438,-0.9921875,0.15039062,-0.15625,0.125,-0.0625,0.0,0.0,0.0,448
330,1696242968713,0.060546875,-0.99121094,0.14941406,-0.21875,0.0,0.125,0.0,0.0,0.0,449
331,1696242968753,0.040039062,-1.0019531,0.16308594,0.40625,-0.125,0.0625,0.0,0.0,0.0,450
332,1696242968793,0.046875,-0.99902344,0.16210938,0.65625,-0.0625,0.1875,0.0,0.0,0.0,451
333,1696242968833,0.053710938,-0.9970703,0.15039062,0.15625,0.0,0.125,0.0,0.0,0.0,452
334,1696242968873,0.045898438,-0.99609375,0.15039062,-0.21875,0.125,-0.1875,0.0,0.0,0.0,453
335,1696242968913,0.053710938,-0.99121094,0.15527344,-0.21875,0.125,0.0,0.0,0.0,0.0,454
336,1696242968953,0.053710938,-0.9951172,0.15429688,-0.21875,0.0,0.0,0.0,0.0,0.0,455
337,1696242968993,0.048828125,-0.99121094,0.14941406,-0.09375,0.0,-0.0625,-50.25,-38.5,-61.25,456
338,1696242969033,0.041015625,-0.99121094,0.15136719,0.03125,-0.0625,0.125,0.0,0.0,0.0,457
339,1696242969073,0.05859375,-0.98535156,0.14746094,0.78125,-0.25,0.1875,0.0,0.0,0.0,458
340,1696242969113,0.041992188,-0.99316406,0.16796875,0.40625,0.125,0.0,0.0,0.0,0.0,459
341,1696242969153,0.044921875,-0.98535156,0.15722656,-0.28125,0.0,-0.0625,0.0,0.0,0.0,460
342,1696242969193,0.047851562,-1.0029297,0.14160156,-0.5625,-0.0625,0.0625,0.0,0.0,0.0,461
343,1696242969233,0.0546875,-0.9902344,0.16015625,-0.5625,-0.3125,-0.0625,0.0,0.0,0.0,462
344,1696242969273,0.057617188,-0.99609375,0.14257812,-0.375,-0.0625,0.25,0.0,0.0,0.0,463
345,1696242969313,0.0546875,-0.99316406,0.13183594,-0.15625,0.0,0.125,0.0,0.0,0.0,464
346,1696242969353,0.057617188,-1.0019531,0.16113281,0.28125,0.0,-0.125,0.0,0.0,0.0,465
347,1696242969393,0.052734375,-0.9941406,0.16015625,0.59375,0.0625,0.0,0.0,0.0,0.0,466
348,1696242969433,0.047851562,-0.9863281,0.14453125,0.59375,-0.125,-0.1875,0.0,0.0,0.0,467
349,1696242969473,0.045898438,-0.99121094,0.14941406,-0.03125,0.0,-0.1875,-49.8125,-38.1875,-60.5,468
350,1696242969513,0.049804688,-0.9902344,0.14746094,-0.75,0.0,-0.0625,0.0,0.0,0.0,469
351,1696242969553,0.044921875,-0.9941406,0.16894531,-0.4375,-0.0625,-0.0625,0.0,0.0,0.0,470
352,1696242969593,0.051757812,-0.99316406,0.16308594,-0.8125,0.0,0.0625,0.0,0.0,0.0,471
353,1696242969633,0.044921875,-0.9951172,0.15527344,-0.875,-0.0625,-0.0625,0.0,0.0,0.0,472
354,1696242969673,0.05078125,-0.9980469,0.14648438,-0.625,-0.0625,0.0,0.0,0.0,0.0,473
355,1696242969713,0.053710938,-0.99902344,0.13378906,-0.5,-0.0625,-0.1875,0.0,0.0,0.0,474
356,1696242969753,0.048828125,-0.99121094,0.140625,-0.21875,0.125,-0.1875,0.0,0.0,0.0,475
357,1696242969793,0.043945312,-0.99609375,0.15234375,0.15625,-0.0625,0.0625,0.0,0.0,0.0,476
358,1696242969833,0.05078125,-0.99902344,0.15429688,-0.375,0.0,-0.1875,0.0,0.0,0.0,477
359,1696242969873,0.053710938,-0.9892578,0.15722656,-0.8125,0.0625,0.0,0.0,0.0,0.0,478
360,1696242969913,0.037109375,-0.9902344,0.15039062,-0.6875,0.0625,-0.125,0.0,0.0,0.0,479
361,1696242969953,0.0546875,-0.9892578,0.14257812,-0.625,-0.125,0.0,0.0,0.0,0.0,480
362,1696242969993,0.047851562,-0.99316406,0.15917969,-0.4375,-0.25,0.1875,-50.125,-39.125,-59.625,481
363,1696242970033,0.046875,-0.99316406,0.15332031,0.03125,0.0625,-0.0625,0.0,0.0,0.0,482
364,1696242970073,0.056640625,-0.9824219,0.15136719,0.09375,0.0,-0.3125,0.0,0.0,0.0,483
365,1696242970113,0.048828125,-0.9892578,0.14355469,-0.28125,0.125,-0.1875,0.0,0.0,0.0,484
366,1696242970153,0.04296875,-0.99121094,0.14648438,-0.28125,-0.0625,-0.1875,0.0,0.0,0.0,485
367,1696242970193,0.047851562,-0.99902344,0.1484375,-0.5,-0.0625,-0.0625,0.0,0.0,0.0,486
368,1696242970233,0.05078125,-0.9863281,0.14746094,-1.0,0.0,-0.0625,0.0,0.0,0.0,487
369,1696242970273,0.048828125,-0.9921875,0.14746094,-0.75,0.0625,0.0,0.0,0.0,0.0,488
370,1696242970313,0.051757812,-0.99609375,0.15429688,-0.625,0.125,-0.0625,0.0,0.0,0.0,489
371,1696242970353,0.05078125,-0.9941406,0.16503906,-0.5,0.125,-0.0625,0.0,0.0,0.0,490
372,1696242970393,0.040039062,-0.99316406,0.15625,-0.09375,0.0625,0.125,0.0,0.0,0.0,491
373,1696242970433,0.044921875,-0.9921875,0.16210938,-0.15625,0.0625,0.0,0.0,0.0,0.0,492
374,1696242970473,0.048828125,-1.0,0.15234375,-0.34375,0.0625,-0.0625,-49.375,-38.375,-60.625,493
375,1696242970513,0.045898438,-0.99121094,0.15234375,-0.6875,-0.0625,-0.0625,0.0,0.0,0.0,494
376,1696242970553,0.053710938,-0.9824219,0.15039062,0.5625,0.0625,-0.0625,0.0,0.0,0.0,511
377,1696242970593,0.046875,-0.9921875,0.14355469,0.5,0.21875,-0.0625,0.0,0.0,0.0,512
378,1696242970633,0.05078125,-1.0009766,0.15039062,0.5,0.0,-0.125,0.0,0.0,0.0,513
379,1696242970673,0.052734375,-1.0019531,0.13964844,0.3125,0.0,0.125,0.0,0.0,0.0,514
380,1696242970713,0.047851562,-0.9902344,0.15136719,0.375,-0.0625,-0.21875,0.0,0.0,0.0,515
381,1696242970753,0.060546875,-0.9892578,0.15429688,0.25,-0.0625,-0.1875,0.0,0.0,0.0,516
382,1696242970793,0.051757812,-0.9941406,0.15332031,-0.125,-0.0625,-0.21875,0.0,0.0,0.0,517
383,1696242970833,0.044921875,-0.99316406,0.15429688,-0.5625,0.0,0.0625,-49.625,-38.375,-62.125,518
384,1696242970873,0.046875,-0.99609375,0.12109375,-0.5625,-0.0625,0.125,0.0,0.0,0.0,519
385,1696242970913,0.057617188,-0.9941406,0.14941406,0.125,-0.0625,0.25,0.0,0.0,0.0,520
386,1696242970953,0.04296875,-0.9970703,0.15039062,0.0625,0.0,0.1875,0.0,0.0,0.0,521
387,1696242970993,0.047851562,-1.0009766,0.13378906,0.25,0.0625,0.0,0.0,0.0,0.0,522
388,1696242971033,0.053710938,-0.9941406,0.13769531,0.625,0.0,-0.1875,0.0,0.0,0.0,523
389,1696242971073,0.05859375,-0.9873047,0.14550781,0.3125,0.09375,-0.125,0.0,0.0,0.0,524
390,1696242971113,0.047851562,-0.99609375,0.15234375,0.0625,0.0625,0.0,0.0,0.0,0.0,525
391,1696242971153,0.046875,-1.0,0.15332031,-0.0625,0.0625,-0.125,0.0,0.0,0.0,526
392,1696242971193,0.053710938,-0.9921875,0.14550781,0.1875,0.0625,0.0625,0.0,0.0,0.0,527
393,1696242971233,0.051757812,-0.99121094,0.13867188,0.3125,0.0625,0.125,0.0,0.0,0.0,528
394,1696242971273,0.051757812,-0.9902344,0.13964844,0.4375,0.0,0.25,0.0,0.0,0.0,529
395,1696242971313,0.0546875,-0.99609375,0.1484375,0.375,0.0,0.0625,0.0,0.0,0.0,530
396,1696242971353,0.0546875,-1.0009766,0.14746094,0.375,0.09375,0.0,-50.25,-38.9375,-61.25,531
397,1696242971393,0.049804688,-0.99316406,0.14648438,0.3125,0.0,-0.125,0.0,0.0,0.0,532
398,1696242971433,0.045898438,-0.99902344,0.15136719,0.1875,0.0,0.0,0.0,0.0,0.0,533
399,1696242971473,0.051757812,-0.9980469,0.16015625,0.1875,0.0,0.0,0.0,0.0,0.0,534
400,1696242971513,0.043945312,-0.99902344,0.14746094,0.625,-0.0625,0.0625,0.0,0.0,0.0,535
401,1696242971553,0.053710938,-0.99121094,0.14648438,0.71875,0.0625,0.0,0.0,0.0,0.0,536
402,1696242971593,0.051757812,-0.9892578,0.15722656,0.5625,-0.125,0.0625,0.0,0.0,0.0,537
403,1696242971633,0.045898438,-0.9921875,0.14648438,0.5,-0.0625,0.125,0.0,0.0,0.0,538
404,1696242971673,0.045898438,-0.9951172,0.15625,0.0625,0.09375,-0.0625,0.0,0.0,0.0,539
405,1696242971713,0.049804688,-0.9951172,0.1484375,-0.3125,-0.0625,-0.28125,0.0,0.0,0.0,540
406,1696242971753,0.056640625,-0.99609375,0.14648438,-0.65625,-0.0625,0.0,0.0,0.0,0.0,541
407,1696242971793,0.048828125,-0.9951172,0.14257812,-0.25,-0.0625,0.1875,0.0,0.0,0.0,542
408,1696242971833,0.052734375,-0.9970703,0.1484375,0.5625,-0.125,0.3125,-49.8125,-38.5,-61.5625,543
409,1696242971873,0.053710938,-0.98535156,0.16210938,0.84375,-0.0625,0.375,0.0,0.0,0.0,544
410,1696242971913,0.053710938,-0.9921875,0.15527344,1.15625,0.0625,-0.1875,0.0,0.0,0.0,545
411,1696242971953,0.044921875,-0.9970703,0.15722656,1.09375,0.0625,-0.125,0.0,0.0,0.0,546
412,1696242971993,0.040039062,-0.9863281,0.15625,0.90625,-0.0625,-0.1875,0.0,0.0,0.0,547
413,1696242972033,0.0546875,-0.98535156,0.14355469,0.4375,0.0625,-0.21875,0.0,0.0,0.0,548
414,1696242972073,0.053710938,-0.9902344,0.16113281,-0.25,0.0,-0.0625,0.0,0.0,0.0,549
415,1696242972113,0.0546875,-0.9951172,0.14355469,-0.1875,0.0,0.0625,0.0,0.0,0.0,550
416,1696242972153,0.047851562,-0.9921875,0.13476562,0.4375,-0.0625,0.375,0.0,0.0,0.0,551
417,1696242972193,0.052734375,-0.9941406,0.15234375,0.5625,-0.125,0.25,0.0,0.0,0.0,552
418,1696242972233,0.051757812,-0.99316406,0.15722656,0.65625,-0.125,-0.0625,0.0,0.0,0.0,553
419,1696242972273,0.045898438,-0.99316406,0.15917969,0.5625,0.0,-0.125,0.0,0.0,0.0,554
420,1696242972313,0.05078125,-0.99316406,0.15625,0.3125,0.09375,-0.0625,0.0,0.0,0.0,555
421,1696242972353,0.0546875,-0.9970703,0.15722656,0.5,0.0,0.0,-51.3125,-37.0,-61.5625,556
422,1696242972393,0.051757812,-0.99609375,0.15625,0.3125,0.09375,0.125,0.0,0.0,0.0,557
423,1696242972433,0.049804688,-0.9921875,0.13574219,-0.0625,-0.0625,0.0625,0.0,0.0,0.0,558
424,1696242972473,0.045898438,-0.9814453,0.15234375,1.03125,-0.125,0.25,0.0,0.0,0.0,559
425,1696242972513,0.051757812,-0.9980469,0.15917969,0.5625,0.0,-0.0625,0.0,0.0,0.0,560
426,1696242972553,0.051757812,-0.9902344,0.1484375,0.0,0.0625,-0.0625,0.0,0.0,0.0,561
427,1696242972593,0.045898438,-0.9921875,0.15527344,-0.375,0.0,-0.125,0.0,0.0,0.0,562
428,1696242972633,0.04296875,-0.98828125,0.14648438,0.0625,-0.0625,-0.0625,0.0,0.0,0.0,563
429,1696242972673,0.047851562,-0.9970703,0.15332031,0.375,0.0,0.1875,0.0,0.0,0.0,564
430,1696242972713,0.05078125,-0.99609375,0.15136719,0.3125,0.0,0.125,0.0,0.0,0.0,565
431,1696242972753,0.049804688,-0.99902344,0.1484375,0.84375,-0.125,0.0625,0.0,0.0,0.0,566
432,1696242972793,0.0546875,-0.9892578,0.16601562,0.4375,0.0,-0.0625,0.0,0.0,0.0,567
433,1696242972833,0.05078125,-0.9941406,0.14941406,0.4375,0.09375,-0.0625,-50.5625,-38.1875,-61.25,568
434,1696242972873,0.047851562,-0.9863281,0.16699219,0.25,0.15625,-0.28125,0.0,0.0,0.0,569
435,1696242972913,0.052734375,-0.9951172,0.15234375,-0.3125,-0.0625,-0.125,0.0,0.0,0.0,570
436,1696242972953,0.048828125,-0.9921875,0.15722656,-0.5625,-0.125,-0.0625,0.0,0.0,0.0,571
437,1696242972993,0.044921875,-0.9970703,0.15039062,-0.5,0.0,-0.125,0.0,0.0,0.0,572
438,1696242973033,0.051757812,-1.0,0.15136719,-0.3125,0.09375,0.0625,0.0,0.0,0.0,573
439,1696242973073,0.046875,-0.9941406,0.1484375,-0.0625,-0.125,-0.0625,0.0,0.0,0.0,574
440,1696242973113,0.0546875,-1.0,0.16699219,0.0625,0.0625,-0.1875,0.0,0.0,0.0,575
441,1696242973153,0.048828125,-0.9892578,0.16113281,0.125,0.0,0.0,0.0,0.0,0.0,576
442,1696242973193,0.049804688,-0.99316406,0.16015625,0.3125,0.09375,-0.125,0.0,0.0,0.0,577
443,1696242973233,0.047851562,-0.9941406,0.15527344,0.25,0.0625,-0.0625,0.0,0.0,0.0,578
444,1696242973273,0.043945312,-1.0029297,0.15039062,0.90625,0.0,0.0,0.0,0.0,0.0,579
445,1696242973313,0.043945312,-0.9921875,0.15527344,0.25,0.0625,-0.34375,0.0,0.0,0.0,580
446,1696242973353,0.047851562,-0.99121094,0.14648438,-0.3125,-0.125,-0.28125,-48.625,-38.375,-61.375,581
447,1696242973393,0.049804688,-0.99316406,0.14160156,-0.5,0.0,-0.1875,0.0,0.0,0.0,582
448,1696242973433,0.05078125,-0.9980469,0.14941406,-0.375,-0.1875,0.0625,0.0,0.0,0.0,583
449,1696242973473,0.061523438,-1.0019531,0.15429688,-0.125,-0.0625,0.25,0.0,0.0,0.0,584
450,1696242973513,0.055664062,-0.99609375,0.15527344,0.3125,0.0625,0.25,0.0,0.0,0.0,585
451,1696242973553,0.053710938,-0.98339844,0.16699219,0.5625,-0.0625,0.0,0.0,0.0,0.0,586
452,1696242973593,0.053710938,-0.99316406,0.16015625,0.4375,0.0625,-0.1875,0.0,0.0,0.0,587
453,1696242973633,0.043945312,-0.9951172,0.15332031,0.84375,-0.1875,-0.1875,0.0,0.0,0.0,588
454,1696242973673,0.05859375,-0.9892578,0.16015625,-0.3125,0.21875,-0.1875,0.0,0.0,0.0,589
455,1696242973713,0.044921875,-0.9921875,0.15820312,-0.90625,0.0625,-0.1875,0.0,0.0,0.0,590
456,1696242973753,0.056640625,-0.99316406,0.15332031,-0.71875,-0.125,0.0625,0.0,0.0,0.0,591
457,1696242973793,0.049804688,-1.0019531,0.14648438,-0.25,0.0,0.25,0.0,0.0,0.0,592
458,1696242973833,0.056640625,-1.0068359,0.14648438,0.0,-0.0625,0.125,-48.875,-37.3125,-61.125,593
459,1696242973873,0.052734375,-1.0029297,0.15429688,0.375,-0.125,-0.1875,0.0,0.0,0.0,594
460,1696242973913,0.047851562,-0.99316406,0.14550781,0.5625,0.0625,-0.1875,0.0,0.0,0.0,595
461,1696242973953,0.053710938,-0.99609375,0.15917969,0.4375,0.09375,-0.125,0.0,0.0,0.0,596
462,1696242973993,0.05078125,-0.9902344,0.15136719,0.4375,0.0625,-0.0625,0.0,0.0,0.0,597
463,1696242974033,0.047851562,-0.98828125,0.15039062,0.0,0.0,-0.125,0.0,0.0,0.0,598
464,1696242974073,0.05859375,-0.98828125,0.16113281,-0.0625,0.0,-0.125,0.0,0.0,0.0,599
465,1696242974113,0.044921875,-0.99316406,0.14746094,0.0,0.09375,-0.125,0.0,0.0,0.0,600
466,1696242974153,0.053710938,-0.9902344,0.15136719,-0.1875,-0.0625,0.0625,0.0,0.0,0.0,601
467,1696242974193,0.051757812,-0.9951172,0.14355469,-0.4375,0.0,-0.0625,0.0,0.0,0.0,602
468,1696242974233,0.0546875,-0.9941406,0.14648438,-0.1875,-0.125,0.0625,0.0,0.0,0.0,603
469,1696242974273,0.05859375,-1.0029297,0.15625,0.4375,0.0625,0.0625,0.0,0.0,0.0,604
470,1696242974313,0.045898438,-0.9951172,0.14453125,0.25,0.0625,-0.1875,0.0,0.0,0.0,605
471,1696242974353,0.052734375,-0.9892578,0.140625,0.4375,0.09375,-0.1875,-50.125,-39.4375,-60.375,606
472,1696242974393,0.048828125,-0.98535156,0.15527344,0.5625,0.0,-0.0625,0.0,0.0,0.0,607
473,1696242974433,0.045898438,-1.0019531,0.14160156,0.1875,0.0625,-0.125,0.0,0.0,0.0,608
474,1696242974473,0.05859375,-0.98339844,0.14648438,-0.0625,-0.125,-0.125,0.0,0.0,0.0,609
475,1696242974513,0.048828125,-0.99121094,0.15625,-0.1875,0.09375,-0.125,0.0,0.0,0.0,610
476,1696242974553,0.048828125,-0.9951172,0.14746094,-0.1875,0.0,-0.125,0.0,0.0,0.0,611
477,1696242974593,0.051757812,-0.9902344,0.16113281,0.125,0.0625,0.0625,0.0,0.0,0.0,612
478,1696242974633,0.05078125,-0.9970703,0.14746094,0.25,0.0625,0.125,0.0,0.0,0.0,613
479,1696242974673,0.045898438,-0.99902344,0.15332031,0.25,0.0625,0.0,0.0,0.0,0.0,614
480,1696242974713,0.048828125,-0.9941406,0.13574219,0.5,0.0625,-0.125,0.0,0.0,0.0,615
481,1696242974753,0.056640625,-0.99316406,0.15234375,0.25,0.09375,-0.125,0.0,0.0,0.0,616
482,1696242974793,0.045898438,-0.9941406,0.15332031,0.1875,-0.125,-0.0625,0.0,0.0,0.0,617
483,1696242974833,0.05078125,-0.9970703,0.15625,0.0,-0.125,-0.125,-50.125,-36.5625,-62.4375,618
484,1696242974873,0.048828125,-0.9941406,0.15527344,0.1875,-0.125,-0.0625,0.0,0.0,0.0,619
485,1696242974913,0.046875,-0.99902344,0.14746094,0.1875,0.0,-0.0625,0.0,0.0,0.0,620
486,1696242974953,0.053710938,-1.0019531,0.14550781,0.125,-0.0625,-0.0625,0.0,0.0,0.0,621
487,1696242974993,0.041015625,-0.98339844,0.15625,0.5,0.0,-0.0625,0.0,0.0,0.0,622
488,1696242975033,0.051757812,-0.98828125,0.15136719,0.0625,0.09375,0.0625,0.0,0.0,0.0,623
489,1696242975073,0.043945312,-0.98828125,0.15625,0.1875,0.0625,0.125,0.0,0.0,0.0,624
490,1696242975113,0.052734375,-0.9951172,0.14550781,-0.25,-0.0625,0.0,0.0,0.0,0.0,625
491,1696242975153,0.053710938,-0.99121094,0.13867188,0.0625,-0.25,0.1875,0.0,0.0,0.0,626
492,1696242975193,0.041992188,-1.0,0.1484375,0.1875,-0.0625,-0.125,0.0,0.0,0.0,627
493,1696242975233,0.049804688,-0.9980469,0.15429688,0.1875,0.0,0.0,0.0,0.0,0.0,628
494,1696242975273,0.052734375,-0.9902344,0.15625,0.3125,0.0,-0.125,0.0,0.0,0.0,629
495,1696242975313,0.047851562,-0.9941406,0.15136719,0.78125,0.0,-0.1875,0.0,0.0,0.0,630
496,1696242975353,0.052734375,-0.9892578,0.15625,0.4375,0.09375,-0.1875,-48.875,-38.6875,-61.375,631
497,1696242975393,0.044921875,-0.9921875,0.14550781,0.125,0.0,-0.125,0.0,0.0,0.0,632
498,1696242975433,0.0546875,-0.9951172,0.13964844,0.0625,0.0,0.0,0.0,0.0,0.0,633
499,1696242975473,0.057617188,-0.9941406,0.15722656,0.375,-0.0625,0.125,0.0,0.0,0.0,634
500,1696242975513,0.052734375,-0.99902344,0.14746094,0.1875,0.0,0.125,0.0,0.0,0.0,635
501,1696242975553,0.056640625,-0.9902344,0.14941406,0.1875,0.0,0.0625,0.0,0.0,0.0,636
502,1696242975593,0.047851562,-0.99609375,0.15039062,0.25,-0.0625,-0.0625,0.0,0.0,0.0,637
503,1696242975633,0.048828125,-1.0019531,0.14746094,0.125,0.0,-0.0625,0.0,0.0,0.0,638
504,1696242975673,0.045898438,-1.0,0.15429688,0.125,0.0,0.0,0.0,0.0,0.0,639
505,1696242975713,0.044921875,-0.99609375,0.140625,0.0625,0.0625,-0.03125,0.0,0.0,0.0,640
506,1696242975753,0.051757812,-0.98828125,0.140625,0.40625,-0.125,-0.03125,0.0,0.0,0.0,641
507,1696242975793,0.046875,-1.0019531,0.14160156,0.28125,-0.0625,-0.03125,0.0,0.0,0.0,642
508,1696242975833,0.052734375,-1.0048828,0.15136719,0.21875,-0.125,0.09375,-51.0,-38.1875,-62.625,643
509,1696242975873,0.047851562,-0.9921875,0.15722656,0.84375,0.0,0.1875,0.0,0.0,0.0,644
510,1696242975913,0.0546875,-0.9892578,0.15527344,0.40625,0.1875,-0.15625,0.0,0.0,0.0,645
511,1696242975953,0.051757812,-0.99316406,0.140625,-0.1875,0.0,0.09375,0.0,0.0,0.0,646
512,1696242975993,0.05078125,-1.0,0.15429688,-0.5,0.0625,0.09375,0.0,0.0,0.0,647
513,1696242976033,0.046875,-0.9970703,0.1484375,0.0,-0.125,0.03125,0.0,0.0,0.0,648
514,1696242976073,0.052734375,-1.0009766,0.15917969,0.46875,-0.0625,0.1875,0.0,0.0,0.0,649
515,1696242976113,0.044921875,-0.9951172,0.14257812,0.21875,0.0,0.03125,0.0,0.0,0.0,650
516,1696242976153,0.048828125,-1.0,0.15722656,0.53125,-0.0625,0.03125,0.0,0.0,0.0,651
517,1696242976193,0.043945312,-0.9921875,0.1640625,0.59375,0.0,-0.03125,0.0,0.0,0.0,652
518,1696242976233,0.05078125,-0.9892578,0.1484375,0.21875,-0.0625,-0.09375,0.0,0.0,0.0,653
519,1696242976273,0.046875,-0.9902344,0.15234375,-0.0625,0.0625,-0.09375,0.0,0.0,0.0,654
520,1696242976313,0.053710938,-0.9941406,0.16015625,-0.3125,0.0625,-0.03125,0.0,0.0,0.0,655
521,1696242976353,0.05078125,-0.9951172,0.15625,0.125,0.0625,-0.03125,-50.375,-38.375,-62.75,656
522,1696242976393,0.052734375,-0.99316406,0.15332031,0.1875,0.0,0.1875,0.0,0.0,0.0,657
523,1696242976433,0.048828125,-0.9970703,0.14746094,0.28125,0.0,0.15625,0.0,0.0,0.0,658
524,1696242976473,0.051757812,-0.99609375,0.15820312,0.1875,-0.0625,0.09375,0.0,0.0,0.0,659
525,1696242976513,0.047851562,-0.9902344,0.14648438,0.1875,0.0625,-0.09375,0.0,0.0,0.0,660
526,1696242976553,0.051757812,-0.9970703,0.15429688,0.0,-0.0625,-0.09375,0.0,0.0,0.0,661
527,1696242976593,0.055664062,-0.9941406,0.15429688,0.0625,0.125,0.15625,0.0,0.0,0.0,662
528,1696242976633,0.044921875,-0.99121094,0.15820312,0.125,0.0,-0.03125,0.0,0.0,0.0,663
529,1696242976673,0.041015625,-0.9951172,0.15625,0.40625,-0.0625,0.09375,0.0,0.0,0.0,664
530,1696242976713,0.0546875,-0.9941406,0.17480469,0.0625,0.1875,0.03125,0.0,0.0,0.0,665
531,1696242976753,0.0546875,-0.99609375,0.14355469,-0.8125,0.1875,-0.03125,0.0,0.0,0.0,666
532,1696242976793,0.048828125,-0.9970703,0.15332031,-0.6875,0.125,-0.09375,0.0,0.0,0.0,667
533,1696242976833,0.056640625,-0.9970703,0.15234375,-0.5625,-0.0625,-0.03125,-51.0,-37.75,-62.625,668
534,1696242976873,0.053710938,-0.9921875,0.15332031,-0.0625,0.0625,0.25,0.0,0.0,0.0,669
535,1696242976913,0.046875,-0.99121094,0.15039062,0.125,0.0,0.09375,0.0,0.0,0.0,670
536,1696242976953,0.056640625,-0.9941406,0.16015625,0.1875,-0.0625,-0.03125,0.0,0.0,0.0,671
537,1696242976993,0.04296875,-0.99609375,0.15820312,0.0,0.0,-0.21875,0.0,0.0,0.0,672
538,1696242977033,0.056640625,-0.9902344,0.15527344,-0.125,0.0,-0.15625,0.0,0.0,0.0,673
539,1696242977073,0.045898438,-0.9951172,0.16015625,-0.3125,0.125,-0.21875,0.0,0.0,0.0,674
540,1696242977113,0.05078125,-0.9814453,0.15820312,-0.8125,0.0,-0.03125,0.0,0.0,0.0,675
541,1696242977153,0.05078125,-0.99902344,0.15820312,-0.25,0.125,-0.21875,0.0,0.0,0.0,676
542,1696242977193,0.05078125,-0.9951172,0.15234375,-0.0625,-0.1875,0.09375,0.0,0.0,0.0,677
543,1696242977233,0.05078125,-0.9902344,0.15917969,0.0,0.0,0.03125,0.0,0.0,0.0,678
544,1696242977273,0.045898438,-0.9873047,0.15917969,0.0,0.0,-0.03125,0.0,0.0,0.0,679
545,1696242977313,0.053710938,-0.9980469,0.15625,0.0625,0.0625,-0.15625,0.0,0.0,0.0,680
546,1696242977353,0.041992188,-0.9941406,0.15429688,-0.0625,0.0,-0.09375,-49.0625,-39.25,-63.0625,681
547,1696242977393,0.047851562,-0.9921875,0.15039062,-0.3125,0.125,-0.15625,0.0,0.0,0.0,682
548,1696242977433,0.045898438,-0.99121094,0.15429688,0.0,-0.125,-0.03125,0.0,0.0,0.0,683
549,1696242977473,0.046875,-0.9951172,0.15039062,0.1875,0.0625,-0.15625,0.0,0.0,0.0,684
550,1696242977513,0.0546875,-0.9921875,0.16015625,-0.3125,0.125,-0.15625,0.0,0.0,0.0,685
551,1696242977553,0.057617188,-0.99609375,0.1484375,-0.625,0.0,-0.15625,0.0,0.0,0.0,686
552,1696242977593,0.05859375,-0.9921875,0.15527344,-0.6875,-0.0625,0.09375,0.0,0.0,0.0,687
553,1696242977633,0.057617188,-1.0,0.15429688,0.0,0.0,0.09375,0.0,0.0,0.0,688
554,1696242977673,0.052734375,-0.9921875,0.16113281,0.125,0.0625,0.09375,0.0,0.0,0.0,689
555,1696242977713,0.051757812,-0.9892578,0.15820312,-0.0625,-0.0625,-0.21875,0.0,0.0,0.0,690
556,1696242977753,0.045898438,-0.99121094,0.15820312,0.21875,0.125,0.09375,0.0,0.0,0.0,691
557,1696242977793,0.05078125,-1.0029297,0.1640625,0.1875,0.0625,-0.15625,0.0,0.0,0.0,692
558,1696242977833,0.05078125,-0.9951172,0.16113281,-0.1875,-0.0625,-0.15625,-48.875,-37.3125,-62.4375,693
559,1696242977873,0.0546875,-0.9902344,0.14160156,-0.375,0.125,-0.21875,0.0,0.0,0.0,694
560,1696242977913,0.052734375,-0.99316406,0.15429688,-0.375,-0.0625,0.03125,0.0,0.0,0.0,695
561,1696242977953,0.046875,-0.9921875,0.14257812,-0.0625,0.0,0.15625,0.0,0.0,0.0,696
562,1696242977993,0.043945312,-0.9863281,0.14257812,-0.0625,-0.0625,-0.09375,0.0,0.0,0.0,697
563,1696242978033,0.047851562,-0.9951172,0.15527344,0.125,0.0625,0.09375,0.0,0.0,0.0,698
564,1696242978073,0.051757812,-1.0048828,0.13867188,-0.0625,0.0,-0.15625,0.0,0.0,0.0,699
565,1696242978113,0.046875,-0.99609375,0.14648438,0.0625,0.125,0.15625,0.0,0.0,0.0,700
566,1696242978153,0.057617188,-0.9951172,0.15332031,-0.0625,0.0625,-0.03125,0.0,0.0,0.0,701
567,1696242978193,0.047851562,-0.99121094,0.15234375,-0.125,0.0625,-0.09375,0.0,0.0,0.0,702
568,1696242978233,0.04296875,-1.0,0.1484375,0.0,-0.0625,-0.09375,0.0,0.0,0.0,703
569,1696242978273,0.05078125,-0.9921875,0.15234375,-0.0625,-0.0625,-0.03125,0.0,0.0,0.0,704
570,1696242978313,0.051757812,-0.9941406,0.15625,-0.3125,0.0625,-0.03125,0.0,0.0,0.0,705
571,1696242978353,0.057617188,-0.9921875,0.15234375,-0.1875,-0.03125,0.0625,-51.3125,-38.1875,-60.1875,706
572,1696242978393,0.044921875,-0.9941406,0.140625,-0.5625,-0.15625,0.0625,0.0,0.0,0.0,707
573,1696242978433,0.057617188,-0.99902344,0.15234375,-0.125,-0.09375,0.1875,0.0,0.0,0.0,708
574,1696242978473,0.048828125,-1.0009766,0.15820312,0.125,0.03125,0.0625,0.0,0.0,0.0,709
575,1696242978513,0.048828125,-0.99609375,0.16015625,0.28125,-0.03125,0.0,0.0,0.0,0.0,710
576,1696242978553,0.043945312,-0.9951172,0.16601562,0.53125,-0.03125,-0.0625,0.0,0.0,0.0,711
577,1696242978593,0.045898438,-0.9970703,0.14550781,0.46875,0.03125,0.0,0.0,0.0,0.0,712
578,1696242978633,0.05078125,-0.9921875,0.15234375,0.34375,0.03125,-0.1875,0.0,0.0,0.0,713
579,1696242978673,0.05859375,-0.98535156,0.14941406,-0.0625,-0.03125,-0.1875,0.0,0.0,0.0,714
580,1696242978713,0.05078125,-0.98828125,0.16015625,-0.375,-0.03125,0.1875,0.0,0.0,0.0,715
581,1696242978753,0.053710938,-0.99121094,0.15820312,0.0,0.03125,-0.0625,0.0,0.0,0.0,716
582,1696242978793,0.052734375,-0.9892578,0.14550781,0.0625,-0.09375,0.0,0.0,0.0,0.0,717
583,1696242978833,0.046875,-0.99902344,0.14355469,0.1875,0.03125,0.0625,-50.25,-37.4375,-60.8125,718
584,1696242978873,0.046875,-0.99902344,0.15039062,0.0625,-0.09375,0.0625,0.0,0.0,0.0,719
585,1696242978913,0.048828125,-0.9970703,0.15332031,0.1875,-0.03125,0.0,0.0,0.0,0.0,720
586,1696242978953,0.045898438,-1.0,0.1484375,0.125,0.09375,0.0,0.0,0.0,0.0,721
587,1696242978993,0.047851562,-0.98339844,0.1640625,0.0,-0.09375,-0.0625,0.0,0.0,0.0,722
588,1696242979033,0.051757812,-0.9951172,0.14941406,0.1875,0.03125,0.0625,0.0,0.0,0.0,723
589,1696242979073,0.043945312,-0.9921875,0.1484375,0.0625,-0.03125,-0.125,0.0,0.0,0.0,724
590,1696242979113,0.0546875,-0.9863281,0.1484375,0.125,-0.15625,0.1875,0.0,0.0,0.0,725
591,1696242979153,0.045898438,-0.98535156,0.15917969,0.59375,-0.03125,0.0625,0.0,0.0,0.0,726
592,1696242979193,0.052734375,-0.9892578,0.16308594,0.28125,0.21875,0.25,0.0,0.0,0.0,727
593,1696242979233,0.049804688,-0.99609375,0.16699219,0.1875,0.03125,0.125,0.0,0.0,0.0,728
594,1696242979273,0.05078125,-0.99902344,0.15820312,-0.1875,-0.03125,0.0,0.0,0.0,0.0,729
595,1696242979313,0.049804688,-0.9951172,0.15136719,-0.0625,-0.21875,0.1875,0.0,0.0,0.0,730
596,1696242979353,0.05078125,-0.98535156,0.15234375,0.21875,-0.09375,0.125,-50.5625,-36.6875,-61.25,731
597,1696242979393,0.047851562,-0.99121094,0.17089844,0.53125,0.03125,0.125,0.0,0.0,0.0,732
598,1696242979433,0.051757812,-0.9980469,0.16601562,0.59375,-0.03125,-0.0625,0.0,0.0,0.0,733
599,1696242979473,0.047851562,-0.99316406,0.15332031,0.59375,0.03125,-0.0625,0.0,0.0,0.0,734
600,1696242979513,0.048828125,-0.9892578,0.15429688,0.21875,-0.09375,-0.25,0.0,0.0,0.0,735
601,1696242979553,0.0546875,-0.9824219,0.15820312,0.125,-0.03125,0.0625,0.0,0.0,0.0,736
602,1696242979593,0.047851562,-0.9970703,0.14453125,0.125,-0.03125,0.0625,0.0,0.0,0.0,737
603,1696242979633,0.051757812,-0.9902344,0.16308594,0.40625,-0.03125,0.25,0.0,0.0,0.0,738
604,1696242979673,0.053710938,-0.9970703,0.15234375,0.1875,0.03125,0.1875,0.0,0.0,0.0,739
605,1696242979713,0.056640625,-0.98828125,0.15332031,0.28125,-0.03125,0.125,0.0,0.0,0.0,740
606,1696242979753,0.0546875,-1.0029297,0.15429688,0.125,-0.03125,0.1875,0.0,0.0,0.0,741
607,1696242979793,0.05078125,-0.99316406,0.16308594,0.21875,0.03125,-0.0625,0.0,0.0,0.0,742
608,1696242979833,0.043945312,-1.0,0.16113281,0.59375,0.09375,0.0625,-50.25,-38.9375,-59.4375,743
609,1696242979873,0.051757812,-0.9951172,0.15234375,0.40625,0.03125,-0.1875,0.0,0.0,0.0,744
610,1696242979913,0.048828125,-0.9902344,0.15234375,0.40625,-0.09375,0.0625,0.0,0.0,0.0,745
611,1696242979953,0.04296875,-0.98828125,0.13964844,0.28125,-0.03125,0.0625,0.0,0.0,0.0,746
612,1696242979993,0.05859375,-0.99316406,0.15429688,0.28125,-0.09375,0.125,0.0,0.0,0.0,747
613,1696242980033,0.04296875,-0.9824219,0.14550781,0.90625,0.03125,0.125,0.0,0.0,0.0,748
614,1696242980073,0.051757812,-1.0009766,0.15527344,0.1875,0.03125,-0.3125,0.0,0.0,0.0,749
615,1696242980113,0.043945312,-0.984375,0.17285156,-0.0625,-0.03125,0.0,0.0,0.0,0.0,750
616,1696242980153,0.041992188,-0.98828125,0.15527344,0.0,-0.21875,0.0,0.0,0.0,0.0,751
617,1696242980193,0.047851562,-0.9892578,0.15625,0.0625,-0.03125,0.125,0.0,0.0,0.0,752
618,1696242980233,0.041992188,-0.99316406,0.1640625,0.21875,-0.15625,0.3125,0.0,0.0,0.0,753
619,1696242980273,0.041015625,-0.9970703,0.15917969,0.46875,0.03125,0.1875,0.0,0.0,0.0,754
620,1696242980313,0.053710938,-0.9951172,0.15625,0.59375,-0.03125,0.0625,0.0,0.0,0.0,755
621,1696242980353,0.05078125,-0.9970703,0.15234375,0.125,-0.03125,-0.125,-50.375,-37.625,-62.4375,756
622,1696242980393,0.053710938,-0.99316406,0.15820312,0.125,-0.15625,-0.0625,0.0,0.0,0.0,757
623,1696242980433,0.043945312,-0.9980469,0.16015625,-0.0625,-0.15625,-0.0625,0.0,0.0,0.0,758
624,1696242980473,0.052734375,-1.0009766,0.16699219,-0.0625,-0.03125,0.1875,0.0,0.0,0.0,759
625,1696242980513,0.045898438,-0.9941406,0.14160156,0.0,-0.03125,0.0625,0.0,0.0,0.0,760
626,1696242980553,0.052734375,-0.9941406,0.15625,-0.0625,-0.09375,0.0625,0.0,0.0,0.0,761
627,1696242980593,0.0546875,-0.9941406,0.15332031,0.0625,0.03125,0.0625,0.0,0.0,0.0,762
628,1696242980633,0.051757812,-0.99609375,0.15332031,0.0625,-0.09375,-0.0625,0.0,0.0,0.0,763
629,1696242980673,0.051757812,-0.99316406,0.15722656,-0.0625,-0.03125,0.0,0.0,0.0,0.0,764
630,1696242980713,0.05078125,-0.99316406,0.14941406,-0.1875,-0.03125,-0.1875,0.0,0.0,0.0,765
631,1696242980753,0.046875,-0.99316406,0.15136719,0.0,0.03125,0.1875,0.0,0.0,0.0,766
632,1696242980793,0.045898438,-0.99902344,0.15917969,0.125,-0.03125,0.0,0.0,0.0,0.0,767
633,1696242980833,0.052734375,-0.98339844,0.14746094,-0.125,-0.03125,0.0625,-49.8125,-38.1875,-60.5,768
634,1696242980873,0.043945312,-0.99902344,0.1640625,0.40625,-0.09375,0.0,0.0,0.0,0.0,769
635,1696242980913,0.051757812,-0.9941406,0.15429688,-0.0625,0.03125,-0.0625,0.0,0.0,0.0,770
636,1696242980953,0.044921875,-0.9902344,0.15917969,-0.375,0.09375,-0.125,0.0,0.0,0.0,771
637,1696242980993,0.051757812,-1.0019531,0.14941406,-0.59375,0.09375,0.03125,0.0,0.0,0.0,772
638,1696242981033,0.055664062,-0.9902344,0.14257812,-0.59375,0.0,-0.09375,0.0,0.0,0.0,773
639,1696242981073,0.048828125,-0.9970703,0.16113281,-0.03125,-0.1875,0.15625,0.0,0.0,0.0,774
640,1696242981113,0.048828125,-0.9892578,0.15332031,0.03125,0.09375,-0.09375,0.0,0.0,0.0,775
641,1696242981153,0.048828125,-0.99121094,0.16699219,0.34375,0.09375,0.03125,0.0,0.0,0.0,776
642,1696242981193,0.049804688,-0.9970703,0.14160156,0.21875,0.0,0.09375,0.0,0.0,0.0,777
643,1696242981233,0.047851562,-0.99902344,0.16992188,-0.09375,-0.0625,-0.09375,0.0,0.0,0.0,778
644,1696242981273,0.05078125,-0.9873047,0.15722656,-0.21875,0.03125,-0.09375,0.0,0.0,0.0,779
645,1696242981313,0.047851562,-0.99316406,0.15625,-0.65625,0.03125,-0.09375,0.0,0.0,0.0,780
646,1696242981353,0.046875,-0.9941406,0.15136719,-0.34375,0.03125,0.15625,-49.625,-37.3125,-60.625,781
647,1696242981393,0.044921875,-0.9921875,0.14550781,-0.15625,0.03125,0.09375,0.0,0.0,0.0,782
648,1696242981433,0.053710938,-0.9921875,0.15722656,-0.21875,0.03125,0.21875,0.0,0.0,0.0,783
649,1696242981473,0.043945312,-1.0009766,0.1484375,0.03125,0.03125,0.15625,0.0,0.0,0.0,784
650,1696242981513,0.045898438,-0.9951172,0.1640625,-0.03125,0.0,-0.09375,0.0,0.0,0.0,785
651,1696242981553,0.051757812,-0.98339844,0.16210938,-0.15625,0.0,-0.09375,0.0,0.0,0.0,786
652,1696242981593,0.044921875,-0.9970703,0.16210938,-0.21875,0.03125,-0.09375,0.0,0.0,0.0,787
653,1696242981633,0.052734375,-0.99316406,0.15527344,0.09375,0.0,-0.03125,0.0,0.0,0.0,788
654,1696242981673,0.052734375,-0.99609375,0.15722656,0.21875,-0.0625,-0.03125,0.0,0.0,0.0,789
655,1696242981713,0.047851562,-0.9921875,0.15234375,-0.03125,0.03125,-0.03125,0.0,0.0,0.0,790
656,1696242981753,0.051757812,-0.99609375,0.15332031,0.03125,0.0,-0.03125,0.0,0.0,0.0,791
657,1696242981793,0.04296875,-0.9970703,0.1484375,-0.09375,0.03125,-0.03125,0.0,0.0,0.0,792
658,1696242981833,0.052734375,-0.99121094,0.15527344,-0.40625,0.03125,-0.09375,-49.5,-37.75,-61.5625,793
659,1696242981873,0.044921875,-0.9921875,0.14648438,-0.6875,0.09375,0.09375,0.0,0.0,0.0,794
660,1696242981913,0.043945312,-0.9892578,0.14648438,-0.65625,0.0,-0.09375,0.0,0.0,0.0,795
661,1696242981953,0.060546875,-0.9941406,0.16113281,-0.15625,0.03125,0.15625,0.0,0.0,0.0,796
662,1696242981993,0.043945312,-0.9921875,0.16308594,0.09375,0.03125,0.03125,0.0,0.0,0.0,797
663,1696242982033,0.049804688,-0.9892578,0.16308594,0.28125,0.0,-0.15625,0.0,0.0,0.0,798
664,1696242982073,0.043945312,-0.9941406,0.14550781,0.40625,0.0,-0.03125,0.0,0.0,0.0,799
665,1696242982113,0.051757812,-0.9951172,0.15820312,0.28125,0.15625,-0.03125,0.0,0.0,0.0,800
666,1696242982153,0.0546875,-0.9951172,0.15039062,-0.15625,0.0,-0.09375,0.0,0.0,0.0,801
667,1696242982193,0.040039062,-0.9941406,0.15722656,-0.46875,0.03125,-0.15625,0.0,0.0,0.0,802
668,1696242982233,0.049804688,-0.9980469,0.15820312,-0.46875,0.03125,-0.03125,0.0,0.0,0.0,803
669,1696242982273,0.045898438,-0.99609375,0.13574219,-0.09375,0.03125,0.15625,0.0,0.0,0.0,804
670,1696242982313,0.048828125,-0.99609375,0.15527344,-0.03125,0.0,-0.03125,0.0,0.0,0.0,805
671,1696242982353,0.053710938,-1.0019531,0.16015625,0.03125,0.09375,0.09375,-48.875,-38.6875,-61.6875,806
672,1696242982393,0.047851562,-1.0,0.1484375,-0.09375,0.0,-0.03125,0.0,0.0,0.0,807
673,1696242982433,0.046875,-1.0058594,0.15625,-0.03125,0.0,0.03125,0.0,0.0,0.0,808
674,1696242982473,0.053710938,-1.0,0.15039062,-0.21875,-0.0625,-0.15625,0.0,0.0,0.0,809
675,1696242982513,0.051757812,-0.99316406,0.14160156,-0.15625,-0.0625,-0.21875,0.0,0.0,0.0,810
676,1696242982553,0.057617188,-1.0009766,0.14550781,-0.03125,-0.0625,-0.21875,0.0,0.0,0.0,811
677,1696242982593,0.048828125,-0.99609375,0.15527344,0.03125,0.03125,-0.03125,0.0,0.0,0.0,812
678,1696242982633,0.041992188,-0.9921875,0.15625,0.15625,0.03125,0.03125,0.0,0.0,0.0,813
679,1696242982673,0.049804688,-0.9941406,0.140625,-0.03125,0.03125,0.03125,0.0,0.0,0.0,814
680,1696242982713,0.053710938,-1.0039062,0.15234375,0.15625,0.03125,0.03125,0.0,0.0,0.0,815
681,1696242982753,0.05078125,-0.9902344,0.15722656,-0.21875,0.03125,-0.15625,0.0,0.0,0.0,816
682,1696242982793,0.045898438,-0.9873047,0.16601562,-0.34375,0.03125,0.03125,0.0,0.0,0.0,817
683,1696242982833,0.049804688,-0.99316406,0.15527344,-0.53125,0.03125,-0.03125,-49.5,-38.9375,-60.8125,818
684,1696242982873,0.055664062,-0.99902344,0.15039062,-0.03125,-0.0625,0.15625,0.0,0.0,0.0,819
685,1696242982913,0.056640625,-1.0029297,0.15527344,0.28125,0.0,0.09375,0.0,0.0,0.0,820
686,1696242982953,0.046875,-0.9921875,0.15722656,0.34375,0.0,0.09375,0.0,0.0,0.0,821
687,1696242982993,0.052734375,-0.9941406,0.15234375,0.625,0.0,0.09375,0.0,0.0,0.0,822
688,1696242983033,0.052734375,-0.99609375,0.16601562,0.59375,0.0,-0.03125,0.0,0.0,0.0,823
689,1696242983073,0.048828125,-0.99121094,0.16113281,0.03125,0.09375,0.03125,0.0,0.0,0.0,824
690,1696242983113,0.055664062,-0.9921875,0.15332031,-0.15625,-0.125,-0.03125,0.0,0.0,0.0,825
691,1696242983153,0.05078125,-0.9980469,0.13964844,-0.34375,0.0,0.09375,0.0,0.0,0.0,826
692,1696242983193,0.051757812,-0.99902344,0.15136719,-0.03125,-0.0625,0.03125,0.0,0.0,0.0,827
693,1696242983233,0.043945312,-0.9970703,0.1484375,0.15625,0.03125,0.21875,0.0,0.0,0.0,828
694,1696242983273,0.053710938,-1.0078125,0.15136719,0.21875,0.03125,0.21875,0.0,0.0,0.0,829
695,1696242983313,0.046875,-0.99121094,0.15136719,0.40625,0.0,0.09375,0.0,0.0,0.0,830
696,1696242983353,0.051757812,-1.0029297,0.14355469,0.40625,-0.0625,-0.03125,-49.0625,-36.4375,-63.375,831
697,1696242983393,0.049804688,-0.9941406,0.15820312,0.625,0.03125,-0.15625,0.0,0.0,0.0,832
698,1696242983433,0.0546875,-0.9951172,0.14355469,0.15625,-0.0625,-0.09375,0.0,0.0,0.0,833
699,1696242983473,0.06347656,-1.0009766,0.1640625,0.28125,0.03125,0.09375,0.0,0.0,0.0,834
700,1696242983513,0.047851562,-0.99609375,0.16699219,0.15625,0.0,0.09375,0.0,0.0,0.0,835
701,1696242983553,0.060546875,-0.9814453,0.15234375,0.15625,-0.0625,0.03125,0.0,0.0,0.0,836
702,1696242983593,0.0546875,-0.9824219,0.15820312,0.40625,-0.125,0.15625,0.0,0.0,0.0,837
703,1696242983633,0.047851562,-0.99609375,0.15234375,0.09375,-0.03125,-0.0625,0.0,0.0,0.0,838
704,1696242983673,0.0546875,-0.9902344,0.15527344,-0.375,-0.03125,0.0,0.0,0.0,0.0,839
705,1696242983713,0.052734375,-0.99609375,0.15625,-0.375,0.03125,0.0625,0.0,0.0,0.0,840
706,1696242983753,0.044921875,-0.9873047,0.15136719,-0.5,-0.09375,-0.0625,0.0,0.0,0.0,841
707,1696242983793,0.055664062,-0.99121094,0.14355469,-0.03125,-0.125,0.1875,0.0,0.0,0.0,842
708,1696242983833,0.049804688,-0.9970703,0.140625,0.40625,0.03125,0.0625,-49.8125,-37.75,-61.5625,843
709,1696242983873,0.045898438,-0.9824219,0.14550781,0.59375,-0.09375,0.0625,0.0,0.0,0.0,844
710,1696242983913,0.049804688,-1.0009766,0.15527344,0.40625,-0.09375,0.0,0.0,0.0,0.0,845
711,1696242983953,0.043945312,-1.0,0.15625,0.09375,0.09375,-0.0625,0.0,0.0,0.0,846
712,1696242983993,0.0546875,-0.99121094,0.15917969,0.03125,-0.03125,-0.25,0.0,0.0,0.0,847
713,1696242984033,0.055664062,-0.9902344,0.1640625,-0.28125,-0.03125,-0.125,0.0,0.0,0.0,848
714,1696242984073,0.048828125,-0.9970703,0.14648438,-0.15625,-0.03125,0.0625,0.0,0.0,0.0,849
715,1696242984113,0.047851562,-0.9902344,0.15429688,-0.21875,-0.03125,-0.0625,0.0,0.0,0.0,850
716,1696242984153,0.053710938,-0.9980469,0.13867188,-0.21875,0.03125,0.125,0.0,0.0,0.0,851
717,1696242984193,0.04296875,-0.9951172,0.15136719,-0.15625,-0.03125,0.125,0.0,0.0,0.0,852
718,1696242984233,0.052734375,-0.9970703,0.171875,-0.375,0.03125,-0.0625,0.0,0.0,0.0,853
719,1696242984273,0.046875,-0.9941406,0.16210938,-0.625,-0.03125,-0.125,0.0,0.0,0.0,854
720,1696242984313,0.047851562,-0.99609375,0.16113281,-0.5,0.03125,0.0,0.0,0.0,0.0,855
721,1696242984353,0.056640625,-0.9814453,0.16210938,-0.28125,-0.03125,-0.1875,-50.125,-38.6875,-61.375,856
722,1696242984393,0.051757812,-0.99609375,0.1484375,-0.21875,-0.125,0.125,0.0,0.0,0.0,857
723,1696242984433,0.05078125,-0.9941406,0.15527344,0.34375,0.03125,0.0,0.0,0.0,0.0,858
724,1696242984473,0.045898438,-0.98535156,0.15429688,-0.375,0.03125,-0.3125,0.0,0.0,0.0,859
725,1696242984513,0.051757812,-0.9873047,0.15039062,-0.375,-0.09375,-0.25,0.0,0.0,0.0,860
726,1696242984553,0.051757812,-1.0078125,0.15039062,-0.75,-0.03125,-0.0625,0.0,0.0,0.0,861
727,1696242984593,0.052734375,-0.9892578,0.14941406,-0.75,-0.03125,-0.125,0.0,0.0,0.0,862
728,1696242984633,0.0546875,-0.9892578,0.16015625,-0.15625,-0.03125,0.0625,0.0,0.0,0.0,863
729,1696242984673,0.049804688,-0.9921875,0.15039062,-0.09375,0.09375,-0.125,0.0,0.0,0.0,864
730,1696242984713,0.043945312,-0.9941406,0.15429688,0.09375,-0.09375,-0.0625,0.0,0.0,0.0,865
731,1696242984753,0.048828125,-0.9892578,0.14941406,-0.21875,-0.03125,0.0625,0.0,0.0,0.0,866
732,1696242984793,0.052734375,-0.99316406,0.16210938,-0.375,-0.09375,-0.1875,0.0,0.0,0.0,867
733,1696242984833,0.05078125,-0.99316406,0.14550781,-0.625,-0.03125,-0.0625,-50.375,-38.0625,-61.6875,868
734,1696242984873,0.052734375,-0.99609375,0.16503906,-0.75,-0.03125,-0.1875,0.0,0.0,0.0,869
735,1696242984913,0.0546875,-0.99902344,0.15039062,-0.34375,0.03125,-0.125,0.0,0.0,0.0,870
736,1696242984953,0.05078125,-1.0,0.15332031,-0.28125,0.09375,0.0,0.0,0.0,0.0,871
737,1696242984993,0.049804688,-0.9951172,0.15332031,-0.09375,-0.03125,0.125,0.0,0.0,0.0,872
738,1696242985033,0.052734375,-0.9941406,0.15039062,0.09375,0.09375,0.0625,0.0,0.0,0.0,873
739,1696242985073,0.051757812,-0.9970703,0.14160156,-0.34375,-0.03125,-0.0625,0.0,0.0,0.0,874
740,1696242985113,0.041992188,-0.9902344,0.15917969,-0.09375,-0.03125,0.0,0.0,0.0,0.0,875
741,1696242985153,0.048828125,-0.99316406,0.15722656,0.09375,0.03125,-0.0625,0.0,0.0,0.0,876
742,1696242985193,0.057617188,-0.9902344,0.13867188,-0.09375,0.21875,-0.25,0.0,0.0,0.0,877
743,1696242985233,0.047851562,-0.9951172,0.15039062,-0.15625,-0.09375,0.0,0.0,0.0,0.0,878
744,1696242985273,0.0546875,-0.9902344,0.16503906,-0.09375,0.09375,-0.125,0.0,0.0,0.0,879
745,1696242985313,0.051757812,-0.99316406,0.15039062,-0.34375,0.03125,-0.0625,0.0,0.0,0.0,880
746,1696242985353,0.053710938,-0.99609375,0.15039062,-0.75,-0.09375,0.0,-50.5625,-36.6875,-60.8125,881
747,1696242985393,0.0546875,-0.98828125,0.15234375,-0.75,-0.125,0.0,0.0,0.0,0.0,882
748,1696242985433,0.051757812,-1.0019531,0.15625,-0.28125,-0.09375,0.25,0.0,0.0,0.0,883
749,1696242985473,0.047851562,-0.99121094,0.14257812,-0.21875,0.03125,-0.0625,0.0,0.0,0.0,884
750,1696242985513,0.041992188,-0.99121094,0.15820312,-0.21875,0.03125,0.0,0.0,0.0,0.0,885
751,1696242985553,0.041015625,-0.99609375,0.15722656,-0.21875,-0.03125,-0.1875,0.0,0.0,0.0,886
752,1696242985593,0.045898438,-0.9951172,0.16308594,-0.21875,-0.09375,-0.0625,0.0,0.0,0.0,887
753,1696242985633,0.0546875,-0.9921875,0.16210938,-0.4375,-0.03125,-0.0625,0.0,0.0,0.0,888
754,1696242985673,0.048828125,-0.99902344,0.15917969,-0.5625,-0.03125,-0.0625,0.0,0.0,0.0,889
755,1696242985713,0.05078125,-0.99609375,0.15429688,-0.34375,-0.03125,-0.0625,0.0,0.0,0.0,890
756,1696242985753,0.05078125,-0.9892578,0.16308594,-0.09375,0.03125,0.0625,0.0,0.0,0.0,891
757,1696242985793,0.046875,-0.99609375,0.15625,-0.15625,-0.03125,0.0625,0.0,0.0,0.0,892
758,1696242985833,0.055664062,-1.0009766,0.15332031,0.03125,0.09375,0.0,-49.625,-38.375,-61.125,893
759,1696242985873,0.048828125,-0.9941406,0.15429688,-0.15625,-0.03125,-0.0625,0.0,0.0,0.0,894
