# Sensor type: Thingy
# Activity type: Sitting
# Activity subtype: Normal
# Subject id: s2104454
# Notes: unprocessed
timestamp,accel_x,accel_y,accel_z,gyro_x,gyro_y,gyro_z,mag_x,mag_y,mag_z
1696242784964,-0.13378906,-0.13476562,0.9941406,-0.09375,-0.0625,0.15625,0.0,0.0,0.0
1696242785026,-0.140625,-0.13574219,1.0058594,-0.46875,-0.125,0.15625,0.0,0.0,0.0
1696242785051,-0.13671875,-0.13378906,1.0,-0.09375,-0.1875,0.09375,0.0,0.0,0.0
1696242785081,-0.13867188,-0.14257812,0.99121094,-0.46875,-0.0625,-0.34375,0.0,0.0,0.0
1696242785144,-0.13769531,-0.13476562,0.98828125,0.46875,0.0,-0.15625,0.0,0.0,0.0
1696242785175,-0.140625,-0.13183594,0.9824219,-0.40625,0.0625,-0.28125,0.0,0.0,0.0
1696242785203,-0.14257812,-0.13671875,0.9902344,0.15625,0.125,0.09375,0.0,0.0,0.0
1696242785263,-0.13769531,-0.13671875,0.99121094,0.09375,0.0,0.03125,0.0,0.0,0.0
1696242785294,-0.13378906,-0.1328125,0.9892578,-0.40625,0.0625,-0.09375,0.0,0.0,0.0
1696242785320,-0.1328125,-0.14550781,0.9941406,0.28125,0.0625,-0.09375,0.0,0.0,0.0
1696242785381,-0.13867188,-0.14355469,1.0019531,-0.15625,-0.0625,-0.09375,0.0,0.0,0.0
1696242785412,-0.13769531,-0.13574219,0.9970703,-0.21875,0.125,-0.21875,-66.625,-2.375,-30.1875
1696242785442,-0.13964844,-0.14257812,1.0009766,-0.03125,0.1875,0.03125,0.0,0.0,0.0
1696242785534,-0.13867188,-0.13964844,0.9902344,-0.15625,0.25,-0.28125,0.0,0.0,0.0
1696242785541,-0.13867188,-0.14355469,0.98828125,0.53125,0.125,-0.09375,0.0,0.0,0.0
1696242785563,-0.13867188,-0.13671875,0.98339844,0.03125,0.0625,-0.03125,0.0,0.0,0.0
1696242785625,-0.13964844,-0.13769531,1.0068359,-0.09375,-0.0625,-0.09375,0.0,0.0,0.0
1696242785655,-0.13867188,-0.13671875,0.9951172,-0.03125,0.0,0.03125,0.0,0.0,0.0
1696242785683,-0.13378906,-0.14257812,0.99316406,0.28125,0.0625,0.09375,0.0,0.0,0.0
1696242785743,-0.13769531,-0.14355469,1.0009766,0.15625,0.0,-0.03125,0.0,0.0,0.0
1696242785773,-0.13867188,-0.13574219,0.9902344,0.28125,0.125,-0.28125,0.0,0.0,0.0
1696242785803,-0.13769531,-0.13769531,0.99902344,0.09375,0.125,0.03125,0.0,0.0,0.0
1696242785863,-0.12890625,-0.13671875,0.9902344,0.21875,0.0,0.09375,0.0,0.0,0.0
1696242785892,-0.14160156,-0.14257812,0.9892578,0.15625,0.0,0.03125,-66.625,-3.875,-28.4375
1696242785926,-0.12890625,-0.13964844,1.0019531,0.15625,-0.0625,0.03125,0.0,0.0,0.0
1696242785981,-0.13769531,-0.14160156,0.9951172,0.46875,0.1875,-0.09375,0.0,0.0,0.0
1696242786013,-0.13964844,-0.12695312,0.99316406,0.21875,0.125,-0.03125,0.0,0.0,0.0
1696242786043,-0.14160156,-0.140625,0.99121094,0.40625,0.1875,0.15625,0.0,0.0,0.0
1696242786104,-0.13964844,-0.13476562,0.9951172,0.15625,0.0,0.03125,0.0,0.0,0.0
1696242786194,-0.140625,-0.14160156,0.9873047,0.53125,0.125,-0.09375,0.0,0.0,0.0
1696242786200,-0.13574219,-0.13964844,0.9980469,0.21875,0.0625,0.09375,0.0,0.0,0.0
1696242786222,-0.13769531,-0.12988281,0.99121094,0.09375,0.0,0.15625,0.0,0.0,0.0
1696242786251,-0.12695312,-0.13867188,1.0,0.59375,-0.1875,-0.03125,0.0,0.0,0.0
1696242786314,-0.140625,-0.13964844,1.0009766,-0.34375,0.125,0.09375,0.0,0.0,0.0
1696242786343,-0.12695312,-0.14355469,1.0039062,0.875,0.1875,-0.21875,0.0,0.0,0.0
1696242786372,-0.1484375,-0.12597656,0.99316406,0.09375,0.375,-0.09375,0.0,0.0,0.0
1696242786403,-0.13769531,-0.13378906,0.9941406,0.40625,0.1875,-0.21875,-66.3125,-2.6875,-30.1875
1696242786463,-0.14257812,-0.12988281,1.0058594,0.28125,-0.0625,-0.15625,0.0,0.0,0.0
1696242786492,-0.13769531,-0.13769531,1.0009766,-0.03125,0.125,-0.03125,0.0,0.0,0.0
1696242786553,-0.13964844,-0.13378906,0.98828125,0.34375,0.0,0.03125,0.0,0.0,0.0
1696242786582,-0.13671875,-0.13476562,0.9873047,0.34375,0.0625,0.03125,0.0,0.0,0.0
1696242786613,-0.14355469,-0.14257812,0.9951172,0.09375,0.125,-0.21875,0.0,0.0,0.0
1696242786679,-0.13769531,-0.13476562,0.99121094,0.21875,0.125,-0.21875,0.0,0.0,0.0
1696242786732,-0.1328125,-0.1328125,0.984375,0.09375,0.125,-0.09375,0.0,0.0,0.0
1696242786737,-0.14257812,-0.13769531,0.9902344,0.03125,0.0625,0.03125,0.0,0.0,0.0
1696242786823,-0.13769531,-0.1328125,0.97558594,0.15625,0.0625,0.09375,0.0,0.0,0.0
1696242786853,-0.14160156,-0.12792969,1.0039062,0.28125,0.0625,-0.03125,0.0,0.0,0.0
1696242786882,-0.14355469,-0.14648438,1.0009766,0.09375,0.25,-0.21875,0.0,0.0,0.0
1696242786940,-0.13378906,-0.12792969,0.9951172,0.34375,0.375,-0.03125,-65.6875,-2.9375,-30.0625
1696242786945,-0.13769531,-0.12695312,0.9765625,-0.03125,-0.125,-0.03125,0.0,0.0,0.0
1696242786972,-0.14160156,-0.13671875,0.9941406,-0.03125,-0.125,-0.03125,0.0,0.0,0.0
1696242787002,-0.140625,-0.12988281,0.9980469,-0.34375,-0.125,-0.09375,0.0,0.0,0.0
1696242787063,-0.13964844,-0.13769531,0.99609375,-0.875,-0.125,0.21875,0.0,0.0,0.0
1696242787123,-0.14160156,-0.13574219,0.9921875,-0.21875,-0.125,0.15625,0.0,0.0,0.0
1696242787128,-0.13769531,-0.13867188,0.98339844,-0.59375,0.0,0.03125,0.0,0.0,0.0
1696242787190,-0.13476562,-0.1328125,1.0,-0.53125,0.25,-0.34375,0.0,0.0,0.0
1696242787212,-0.14453125,-0.13183594,0.9814453,-0.03125,0.0625,-0.15625,0.0,0.0,0.0
1696242787243,-0.13867188,-0.14355469,0.9951172,-0.09375,0.1875,-0.09375,0.0,0.0,0.0
1696242787303,-0.13867188,-0.13183594,0.9873047,-0.40625,-0.125,-0.21875,0.0,0.0,0.0
1696242787332,-0.14453125,-0.13476562,0.9921875,-0.15625,0.0,0.03125,0.0,0.0,0.0
1696242787368,-0.14648438,-0.13769531,0.9892578,-0.46875,0.0,0.03125,0.0,0.0,0.0
1696242787428,-0.13769531,-0.13671875,0.99902344,-0.09375,0.0,0.09375,-66.875,-2.5,-28.5625
1696242787453,-0.13085938,-0.14257812,0.9892578,-0.09375,-0.0625,0.09375,0.0,0.0,0.0
1696242787484,-0.12597656,-0.1328125,0.99121094,-0.46875,-0.0625,-0.03125,0.0,0.0,0.0
1696242787546,-0.14355469,-0.13574219,0.9951172,0.03125,0.0,-0.03125,0.0,0.0,0.0
1696242787579,-0.14453125,-0.14257812,1.0058594,-0.53125,0.3125,0.09375,0.0,0.0,0.0
1696242787601,-0.1328125,-0.13183594,0.97558594,1.9375,-0.6875,-0.21875,0.0,0.0,0.0
1696242787662,-0.14746094,-0.12597656,0.99902344,-0.21875,0.84375,-0.09375,0.0,0.0,0.0
1696242787691,-0.14160156,-0.13867188,0.98535156,0.09375,-0.3125,-0.40625,0.0,0.0,0.0
1696242787721,-0.13769531,-0.13378906,1.0146484,-0.09375,-0.25,0.09375,0.0,0.0,0.0
1696242787786,-0.14355469,-0.13964844,0.9785156,0.09375,-0.0625,0.15625,0.0,0.0,0.0
1696242787812,-0.14648438,-0.13476562,0.9951172,-0.625,0.65625,-0.03125,0.0,0.0,0.0
1696242787845,-0.140625,-0.1328125,0.99316406,0.40625,-0.375,0.15625,0.0,0.0,0.0
1696242787904,-0.14550781,-0.13378906,0.99316406,0.15625,-0.1875,-0.28125,-66.4375,-1.4375,-28.5625
1696242787935,-0.14160156,-0.13671875,0.9785156,-0.09375,0.25,-0.15625,0.0,0.0,0.0
1696242787968,-0.140625,-0.1328125,0.98535156,-0.34375,-0.3125,0.21875,0.0,0.0,0.0
1696242788023,-0.12988281,-0.13378906,1.0214844,0.34375,0.3125,0.59375,0.0,0.0,0.0
1696242788054,-0.14160156,-0.12890625,0.9326172,2.53125,-1.71875,-0.15625,0.0,0.0,0.0
1696242788083,-0.14355469,-0.14550781,1.0439453,-3.625,2.8125,0.03125,0.0,0.0,0.0
1696242788144,-0.1171875,-0.13378906,0.9736328,2.96875,-3.25,-0.34375,0.0,0.0,0.0
1696242788203,-0.16601562,-0.13378906,0.98046875,-1.90625,1.9375,0.59375,0.0,0.0,0.0
1696242788231,-0.12988281,-0.14746094,0.99121094,0.71875,0.1875,-0.28125,0.0,0.0,0.0
1696242788261,-0.13769531,-0.13183594,1.0166016,-1.5,-0.4375,-0.03125,0.0,0.0,0.0
1696242788293,-0.13378906,-0.12792969,0.9736328,1.5,-0.3125,0.40625,0.0,0.0,0.0
1696242788322,-0.13867188,-0.13476562,0.98535156,-1.125,0.4375,0.15625,0.0,0.0,0.0
1696242788381,-0.13085938,-0.13671875,0.98828125,-0.15625,0.25,0.03125,0.0,0.0,0.0
1696242788411,-0.13574219,-0.12988281,1.0039062,-0.03125,-0.625,-0.15625,-66.4375,-2.1875,-28.5625
1696242788473,-0.13769531,-0.13476562,0.984375,-0.09375,0.1875,0.09375,0.0,0.0,0.0
1696242788536,-0.14550781,-0.1328125,0.98535156,-0.6875,0.25,0.09375,0.0,0.0,0.0
1696242788548,-0.13085938,-0.15136719,1.0009766,-0.21875,0.0,0.28125,0.0,0.0,0.0
1696242788594,-0.13574219,-0.13671875,0.9863281,0.15625,-0.25,-0.21875,0.0,0.0,0.0
1696242788628,-0.13671875,-0.13671875,1.0087891,-0.15625,0.53125,0.09375,0.0,0.0,0.0
1696242788651,-0.13183594,-0.13183594,0.9951172,0.03125,-0.3125,0.09375,0.0,0.0,0.0
1696242788716,-0.140625,-0.1328125,0.99121094,-0.03125,-0.25,0.03125,0.0,0.0,0.0
1696242788743,-0.14453125,-0.13574219,0.9921875,-0.09375,0.0,0.03125,0.0,0.0,0.0
1696242788773,-0.12988281,-0.14160156,0.99902344,-0.15625,0.125,0.09375,0.0,0.0,0.0
1696242788834,-0.1328125,-0.13378906,0.9980469,-0.03125,-0.3125,-0.03125,0.0,0.0,0.0
1696242788866,-0.12890625,-0.13769531,0.99316406,0.03125,0.0,-0.15625,0.0,0.0,0.0
1696242788891,-0.140625,-0.13183594,0.9873047,-0.15625,0.125,0.03125,-65.375,-1.75,-28.5625
1696242788954,-0.12988281,-0.140625,1.0019531,0.09375,0.0,0.21875,0.0,0.0,0.0
1696242788983,-0.13378906,-0.13183594,0.9980469,-0.59375,0.0625,0.21875,0.0,0.0,0.0
1696242789011,-0.13378906,-0.13183594,0.9921875,0.65625,-0.0625,0.03125,0.0,0.0,0.0
1696242789072,-0.14355469,-0.13574219,0.98535156,-0.15625,0.125,-0.03125,0.0,0.0,0.0
1696242789101,-0.14257812,-0.13671875,0.9794922,-0.03125,0.0625,-0.09375,0.0,0.0,0.0
1696242789132,-0.13964844,-0.12597656,0.9970703,0.03125,0.125,0.15625,0.0,0.0,0.0
1696242789225,-0.13769531,-0.14355469,0.9892578,0.46875,-0.0625,0.03125,0.0,0.0,0.0
1696242789232,-0.12011719,-0.13769531,1.0097656,1.8125,0.25,0.03125,0.0,0.0,0.0
1696242789252,-0.13574219,-0.13574219,0.9941406,-0.28125,-0.125,0.09375,0.0,0.0,0.0
1696242789314,-0.140625,-0.140625,1.0263672,-0.75,0.46875,0.09375,0.0,0.0,0.0
1696242789372,-0.13769531,-0.12890625,0.9892578,0.46875,-1.09375,0.21875,0.0,0.0,0.0
1696242789376,-0.13867188,-0.13378906,0.9863281,-0.34375,1.34375,0.28125,0.0,0.0,0.0
1696242789432,-0.13769531,-0.140625,1.0,-0.15625,-0.1875,0.21875,-66.4375,-1.75,-28.5625
1696242789463,-0.13867188,-0.12988281,1.0029297,-0.15625,0.25,0.03125,0.0,0.0,0.0
1696242789492,-0.13574219,-0.13183594,0.97558594,1.3125,-0.375,0.09375,0.0,0.0,0.0
1696242789555,-0.14160156,-0.123046875,0.9873047,-0.46875,0.25,-0.15625,0.0,0.0,0.0
1696242789582,-0.12890625,-0.13183594,1.0048828,0.65625,-0.1875,-0.15625,0.0,0.0,0.0
1696242789612,-0.14257812,-0.13574219,1.0068359,0.21875,-0.375,0.09375,0.0,0.0,0.0
1696242789673,-0.13769531,-0.13476562,0.97558594,0.59375,0.1875,0.15625,0.0,0.0,0.0
1696242789703,-0.1328125,-0.13769531,0.9970703,0.09375,0.3125,-0.09375,0.0,0.0,0.0
1696242789733,-0.14160156,-0.14550781,1.0048828,0.28125,-0.125,-0.15625,0.0,0.0,0.0
1696242789793,-0.13378906,-0.12890625,1.0019531,-0.09375,-0.0625,-0.03125,0.0,0.0,0.0
1696242789828,-0.14257812,-0.13867188,0.9980469,0.34375,0.1875,0.03125,0.0,0.0,0.0
1696242789852,-0.14160156,-0.1328125,0.9951172,0.28125,0.0625,0.03125,0.0,0.0,0.0
1696242789911,-0.13867188,-0.13085938,1.0039062,-0.03125,-0.0625,0.34375,-67.0625,-3.4375,-28.6875
1696242789942,-0.13085938,-0.12792969,1.0,0.40625,0.0,0.15625,0.0,0.0,0.0
1696242789973,-0.140625,-0.1328125,1.0009766,0.21875,0.1875,-0.09375,0.0,0.0,0.0
1696242790064,-0.15039062,-0.12890625,0.9863281,-0.21875,0.125,-0.15625,0.0,0.0,0.0
1696242790069,-0.13574219,-0.12988281,0.9941406,0.15625,0.125,0.03125,0.0,0.0,0.0
1696242790091,-0.14257812,-0.12792969,0.9873047,-0.46875,0.0625,-0.09375,0.0,0.0,0.0
1696242790154,-0.14453125,-0.13378906,0.9941406,-0.6875,0.25,0.34375,0.0,0.0,0.0
1696242790183,-0.1328125,-0.13574219,0.99609375,-0.34375,-0.0625,0.34375,0.0,0.0,0.0
1696242790246,-0.14160156,-0.13867188,0.9921875,-0.03125,-0.125,0.03125,0.0,0.0,0.0
1696242790276,-0.12988281,-0.12792969,0.99609375,-0.625,0.0,0.03125,0.0,0.0,0.0
1696242790303,-0.13964844,-0.13867188,0.9941406,-0.59375,0.375,0.03125,0.0,0.0,0.0
1696242790333,-0.13671875,-0.13378906,0.9892578,0.21875,-0.125,0.15625,0.0,0.0,0.0
1696242790393,-0.140625,-0.12988281,0.9921875,-0.53125,0.0625,0.28125,0.0,0.0,0.0
1696242790424,-0.13671875,-0.12597656,0.9951172,-0.28125,0.0,0.09375,-67.0625,-3.125,-29.75
1696242790453,-0.13476562,-0.12988281,0.98535156,-0.40625,-0.25,0.21875,0.0,0.0,0.0
1696242790513,-0.13378906,-0.13183594,1.0117188,-0.40625,-0.125,0.40625,0.0,0.0,0.0
1696242790542,-0.14160156,-0.13574219,1.0019531,0.03125,-0.0625,-0.09375,0.0,0.0,0.0
1696242790571,-0.13867188,-0.13671875,0.984375,-0.09375,0.0625,-0.21875,0.0,0.0,0.0
1696242790695,-0.1328125,-0.14746094,0.9785156,-0.46875,0.0,0.03125,0.0,0.0,0.0
1696242790704,-0.13867188,-0.1328125,1.0009766,-0.21875,-0.0625,0.03125,0.0,0.0,0.0
1696242790708,-0.14453125,-0.13671875,0.984375,-0.40625,-0.25,0.03125,0.0,0.0,0.0
1696242790753,-0.13867188,-0.13574219,0.9980469,-0.28125,0.125,0.21875,0.0,0.0,0.0
1696242790783,-0.14648438,-0.14257812,1.0,-0.15625,-0.25,0.09375,0.0,0.0,0.0
1696242790843,-0.14355469,-0.13769531,1.0,-0.09375,-0.0625,-0.15625,0.0,0.0,0.0
1696242790872,-0.14355469,-0.140625,0.9863281,-0.28125,-0.0625,-0.09375,0.0,0.0,0.0
1696242790902,-0.14257812,-0.13574219,1.0126953,-0.59375,0.125,0.15625,-66.625,-3.875,-29.4375
1696242790933,-0.13378906,-0.13769531,0.9873047,0.15625,-0.3125,0.28125,0.0,0.0,0.0
1696242790994,-0.140625,-0.14355469,0.98046875,-0.15625,0.1875,0.21875,0.0,0.0,0.0
1696242791022,-0.140625,-0.140625,0.99609375,-0.15625,0.25,-0.15625,0.0,0.0,0.0
1696242791060,-0.13671875,-0.13476562,1.0068359,-0.40625,-0.15625,-0.25,0.0,0.0,0.0
1696242791113,-0.1328125,-0.13378906,0.98046875,0.9375,-0.09375,-0.1875,0.0,0.0,0.0
1696242791141,-0.140625,-0.13769531,0.9970703,-0.34375,0.34375,0.0625,0.0,0.0,0.0
1696242791172,-0.1328125,-0.15039062,1.0,-0.34375,0.15625,0.1875,0.0,0.0,0.0
1696242791263,-0.14257812,-0.14160156,1.0068359,0.40625,-0.5,-0.125,0.0,0.0,0.0
1696242791268,-0.13769531,-0.14160156,0.97265625,0.09375,0.46875,-0.0625,0.0,0.0,0.0
1696242791292,-0.13769531,-0.14453125,0.9941406,0.03125,-0.03125,-0.25,0.0,0.0,0.0
1696242791351,-0.13476562,-0.12695312,0.99609375,0.34375,-0.375,-0.1875,0.0,0.0,0.0
1696242791381,-0.13964844,-0.12207031,0.9824219,-0.09375,-0.28125,0.125,0.0,0.0,0.0
1696242791426,-0.14160156,-0.14257812,0.99121094,0.46875,0.03125,0.3125,-65.25,-3.875,-28.6875
1696242791536,-0.13085938,-0.1484375,0.98828125,0.21875,-0.21875,-0.125,0.0,0.0,0.0
1696242791543,-0.14355469,-0.13867188,1.0068359,-0.40625,-0.03125,-0.125,0.0,0.0,0.0
1696242791545,-0.140625,-0.13378906,0.984375,0.625,0.15625,-0.25,0.0,0.0,0.0
1696242791592,-0.13769531,-0.13769531,0.9941406,0.09375,-0.28125,0.125,0.0,0.0,0.0
1696242791623,-0.13183594,-0.13964844,0.9970703,-0.03125,0.40625,0.0625,0.0,0.0,0.0
1696242791654,-0.140625,-0.1328125,0.99609375,0.03125,-0.5,0.0625,0.0,0.0,0.0
1696242791712,-0.140625,-0.13378906,0.9873047,0.03125,0.09375,-0.0625,0.0,0.0,0.0
1696242791742,-0.140625,-0.12988281,0.99316406,0.09375,-0.09375,-0.25,0.0,0.0,0.0
1696242791771,-0.140625,-0.14355469,0.99316406,-0.21875,0.28125,-0.125,0.0,0.0,0.0
1696242791833,-0.13476562,-0.13574219,0.9902344,0.09375,-0.28125,-0.1875,0.0,0.0,0.0
1696242791862,-0.13964844,-0.140625,0.99316406,0.28125,-0.03125,0.25,0.0,0.0,0.0
1696242791893,-0.13183594,-0.140625,0.9941406,-0.03125,0.28125,0.0625,-66.0,-3.125,-30.5
1696242791953,-0.13769531,-0.14355469,0.99902344,0.09375,-0.21875,-0.1875,0.0,0.0,0.0
1696242791981,-0.140625,-0.13085938,0.98339844,-0.09375,0.09375,0.125,0.0,0.0,0.0
1696242792013,-0.13964844,-0.14257812,0.99609375,-0.03125,-0.09375,-0.0625,0.0,0.0,0.0
1696242792102,-0.13671875,-0.13378906,0.9951172,0.15625,0.15625,-0.125,0.0,0.0,0.0
1696242792107,-0.12988281,-0.13867188,0.99121094,0.09375,-0.15625,-0.125,0.0,0.0,0.0
1696242792131,-0.13183594,-0.140625,1.0039062,-0.34375,0.15625,0.125,0.0,0.0,0.0
1696242792226,-0.13671875,-0.1328125,0.99316406,0.28125,-0.15625,-0.0625,0.0,0.0,0.0
1696242792253,-0.1484375,-0.13574219,1.0,0.09375,0.03125,-0.125,0.0,0.0,0.0
1696242792257,-0.13769531,-0.14453125,1.0009766,0.5,0.15625,-0.125,0.0,0.0,0.0
1696242792313,-0.13476562,-0.13964844,1.0029297,0.09375,-0.34375,-0.125,0.0,0.0,0.0
1696242792343,-0.13769531,-0.13964844,1.0029297,-0.03125,-0.03125,0.125,0.0,0.0,0.0
1696242792372,-0.13769531,-0.13964844,0.9863281,0.5625,-0.21875,0.0,0.0,0.0,0.0
1696242792468,-0.13671875,-0.14160156,1.0019531,0.03125,-0.09375,0.0,-66.3125,-3.4375,-29.1875
1696242792491,-0.13769531,-0.14160156,0.9921875,0.09375,-0.09375,-0.1875,0.0,0.0,0.0
1696242792497,-0.12695312,-0.14257812,0.98828125,0.15625,-0.03125,0.0625,0.0,0.0,0.0
1696242792552,-0.13769531,-0.14550781,0.9892578,-0.09375,0.03125,0.0,0.0,0.0,0.0
1696242792612,-0.13671875,-0.140625,0.984375,-0.03125,-0.09375,0.125,0.0,0.0,0.0
1696242792618,-0.14160156,-0.14355469,1.0019531,0.15625,0.03125,-0.1875,0.0,0.0,0.0
1696242792675,-0.140625,-0.13671875,0.984375,0.46875,0.09375,-0.0625,0.0,0.0,0.0
1696242792702,-0.13574219,-0.13574219,0.9921875,0.28125,0.15625,-0.0625,0.0,0.0,0.0
1696242792735,-0.13769531,-0.13964844,0.9951172,0.28125,0.21875,-0.1875,0.0,0.0,0.0
1696242792826,-0.13769531,-0.14160156,0.99121094,0.40625,-0.09375,-0.0625,0.0,0.0,0.0
1696242792833,-0.14453125,-0.13183594,0.9892578,0.28125,0.15625,-0.125,0.0,0.0,0.0
1696242792851,-0.13671875,-0.14257812,1.0009766,0.5625,0.15625,-0.0625,0.0,0.0,0.0
1696242792945,-0.13867188,-0.14160156,0.99609375,0.46875,-0.03125,0.0,-66.3125,-1.9375,-29.75
1696242792952,-0.13769531,-0.13476562,0.9794922,0.46875,0.09375,-0.1875,0.0,0.0,0.0
1696242792972,-0.13574219,-0.140625,0.99609375,0.75,0.03125,-0.0625,0.0,0.0,0.0
1696242793033,-0.14160156,-0.14160156,0.99316406,0.21875,0.15625,-0.125,0.0,0.0,0.0
1696242793061,-0.12890625,-0.14160156,1.0117188,0.34375,-0.09375,-0.0625,0.0,0.0,0.0
1696242793093,-0.13378906,-0.14160156,0.99609375,0.34375,0.28125,0.125,0.0,0.0,0.0
1696242793155,-0.13574219,-0.13769531,0.99609375,0.40625,0.21875,-0.25,0.0,0.0,0.0
1696242793183,-0.13378906,-0.13574219,0.9951172,0.34375,-0.03125,-0.1875,0.0,0.0,0.0
1696242793213,-0.13085938,-0.13378906,0.9902344,0.5625,0.09375,-0.1875,0.0,0.0,0.0
1696242793274,-0.14160156,-0.12792969,0.98339844,0.46875,-0.15625,-0.1875,0.0,0.0,0.0
1696242793303,-0.13671875,-0.125,0.97753906,-0.03125,-0.03125,0.1875,0.0,0.0,0.0
1696242793337,-0.1328125,-0.123046875,1.0019531,0.5,-0.09375,0.0,0.0,0.0,0.0
1696242793394,-0.13476562,-0.13476562,0.9980469,0.15625,0.34375,-0.125,0.0,0.0,0.0
1696242793433,-0.13574219,-0.1328125,1.0039062,0.46875,0.09375,-0.125,-66.0,-3.125,-29.75
1696242793455,-0.13085938,-0.12695312,0.99609375,0.625,-0.03125,-0.0625,0.0,0.0,0.0
1696242793513,-0.14355469,-0.13183594,0.9970703,0.21875,0.09375,0.0,0.0,0.0,0.0
1696242793541,-0.13867188,-0.13671875,1.0009766,0.03125,-0.09375,0.125,0.0,0.0,0.0
1696242793572,-0.13671875,-0.1328125,0.99121094,0.5,-0.03125,0.125,0.0,0.0,0.0
1696242793636,-0.13769531,-0.13378906,0.9863281,0.03125,0.03125,-0.0625,0.0,0.0,0.0
1696242793664,-0.12988281,-0.1328125,0.99121094,0.28125,-0.03125,-0.125,0.0,0.0,0.0
1696242793786,-0.14453125,-0.13378906,0.9970703,0.5,0.09375,0.0625,0.0,0.0,0.0
1696242793792,-0.13671875,-0.13964844,0.9970703,-0.21875,-0.15625,-0.1875,0.0,0.0,0.0
1696242793795,-0.13769531,-0.1328125,0.9941406,-0.28125,0.03125,-0.125,0.0,0.0,0.0
1696242793818,-0.13378906,-0.13964844,0.99609375,-0.09375,-0.21875,-0.1875,0.0,0.0,0.0
1696242793872,-0.13574219,-0.1328125,0.99609375,-0.21875,-0.09375,0.0,0.0,0.0,0.0
1696242793934,-0.140625,-0.13964844,0.9941406,0.03125,-0.15625,0.125,-67.1875,-2.5,-29.0
1696242793940,-0.13574219,-0.13671875,0.9863281,-0.34375,-0.09375,0.0,0.0,0.0,0.0
1696242793994,-0.1484375,-0.12890625,0.98828125,-0.28125,0.21875,0.125,0.0,0.0,0.0
1696242794022,-0.13183594,-0.14355469,1.0048828,-0.09375,-0.03125,-0.0625,0.0,0.0,0.0
1696242794052,-0.12890625,-0.13769531,0.9980469,-0.09375,0.09375,0.0,0.0,0.0,0.0
1696242794112,-0.13964844,-0.13574219,0.9921875,-0.03125,-0.09375,-0.25,0.0,0.0,0.0
1696242794143,-0.13769531,-0.13964844,0.99902344,-0.40625,-0.09375,0.0625,0.0,0.0,0.0
1696242794174,-0.13671875,-0.12988281,0.9941406,-0.21875,-0.21875,0.1875,0.0,0.0,0.0
1696242794265,-0.13671875,-0.12792969,0.9902344,-0.15625,-0.09375,0.125,0.0,0.0,0.0
1696242794272,-0.14746094,-0.13964844,0.9951172,-0.21875,0.03125,0.0,0.0,0.0,0.0
1696242794293,-0.13574219,-0.13476562,1.0029297,0.03125,-0.03125,0.0,0.0,0.0,0.0
1696242794354,-0.12695312,-0.13183594,0.98828125,0.09375,-0.03125,0.0,0.0,0.0,0.0
1696242794385,-0.13769531,-0.13378906,0.9970703,-0.21875,0.03125,-0.0625,0.0,0.0,0.0
1696242794412,-0.1328125,-0.14257812,1.0019531,-0.40625,0.03125,-0.1875,-65.6875,-3.25,-28.5625
1696242794475,-0.140625,-0.14941406,1.0068359,0.34375,-0.15625,0.25,0.0,0.0,0.0
1696242794503,-0.13671875,-0.14160156,0.984375,-0.03125,-0.03125,0.0,0.0,0.0,0.0
1696242794536,-0.12792969,-0.14257812,0.9824219,-0.34375,-0.03125,0.1875,0.0,0.0,0.0
1696242794594,-0.1328125,-0.13378906,0.9970703,0.09375,-0.09375,0.6875,0.0,0.0,0.0
1696242794627,-0.13867188,-0.13769531,1.0029297,-0.03125,-0.21875,0.375,0.0,0.0,0.0
1696242794652,-0.14257812,-0.14160156,0.9980469,-0.15625,-0.03125,0.0,0.0,0.0,0.0
1696242794721,-0.12988281,-0.13574219,0.99121094,0.09375,0.03125,-0.25,0.0,0.0,0.0
1696242794746,-0.140625,-0.14160156,0.9902344,-0.15625,-0.15625,-0.25,0.0,0.0,0.0
1696242794783,-0.13671875,-0.13671875,0.9902344,0.03125,-0.03125,0.25,0.0,0.0,0.0
1696242794831,-0.14746094,-0.13671875,0.9873047,-0.34375,0.09375,0.3125,0.0,0.0,0.0
1696242794860,-0.13964844,-0.140625,1.0,-0.21875,-0.15625,-0.0625,0.0,0.0,0.0
1696242794907,-0.14160156,-0.13964844,0.98535156,-0.09375,-0.03125,-0.0625,-66.125,-3.25,-29.3125
1696242794953,-0.13867188,-0.14453125,1.0058594,0.03125,-0.03125,-0.1875,0.0,0.0,0.0
1696242794980,-0.14160156,-0.14355469,0.98339844,-0.03125,-0.21875,0.0625,0.0,0.0,0.0
1696242795011,-0.140625,-0.14355469,0.9921875,0.09375,-0.09375,0.1875,0.0,0.0,0.0
1696242795073,-0.12988281,-0.14550781,1.0068359,-0.03125,-0.09375,-0.0625,0.0,0.0,0.0
1696242795103,-0.14160156,-0.13769531,1.0019531,-0.15625,-0.03125,-0.125,0.0,0.0,0.0
1696242795133,-0.14355469,-0.14257812,0.99316406,0.34375,-0.03125,-0.0625,0.0,0.0,0.0
1696242795195,-0.13867188,-0.14550781,0.99902344,-0.15625,-0.21875,0.0,0.0,0.0,0.0
1696242795224,-0.14453125,-0.140625,1.0019531,0.21875,0.09375,0.0625,0.0,0.0,0.0
1696242795252,-0.13964844,-0.14550781,0.98046875,-0.03125,-0.03125,0.0,0.0,0.0,0.0
1696242795348,-0.13378906,-0.13867188,0.9941406,-0.15625,-0.03125,-0.1875,0.0,0.0,0.0
1696242795355,-0.14160156,-0.14355469,1.0068359,0.34375,-0.15625,-0.125,0.0,0.0,0.0
1696242795372,-0.13867188,-0.14355469,0.98828125,-0.09375,0.09375,-0.25,0.0,0.0,0.0
1696242795433,-0.13769531,-0.13964844,0.9970703,0.40625,0.09375,-0.125,-67.0625,-2.6875,-29.1875
1696242795462,-0.140625,-0.1484375,0.99316406,0.15625,-0.09375,0.0625,0.0,0.0,0.0
1696242795496,-0.13671875,-0.15332031,1.0107422,0.09375,-0.09375,0.0,0.0,0.0,0.0
1696242795554,-0.13574219,-0.13964844,0.99609375,0.09375,-0.34375,0.0625,0.0,0.0,0.0
1696242795581,-0.1328125,-0.1484375,0.99121094,0.15625,0.03125,-0.0625,0.0,0.0,0.0
1696242795610,-0.14160156,-0.1484375,1.0039062,0.15625,0.21875,0.0,0.0,0.0,0.0
1696242795672,-0.14257812,-0.14550781,0.9941406,0.21875,0.03125,-0.3125,0.0,0.0,0.0
1696242795701,-0.140625,-0.15234375,0.9980469,0.09375,-0.03125,-0.1875,0.0,0.0,0.0
1696242795731,-0.140625,-0.13574219,0.99121094,0.34375,0.03125,-0.125,0.0,0.0,0.0
1696242795792,-0.14355469,-0.13574219,1.0009766,-0.28125,-0.15625,-0.0625,0.0,0.0,0.0
1696242795828,-0.1328125,-0.14550781,0.98535156,0.40625,-0.09375,0.125,0.0,0.0,0.0
1696242795852,-0.14257812,-0.13964844,0.9765625,0.46875,0.03125,-0.0625,0.0,0.0,0.0
1696242795943,-0.13867188,-0.14941406,0.9941406,0.40625,0.03125,-0.125,-66.4375,-3.5625,-29.3125
1696242795948,-0.13476562,-0.13867188,1.0068359,0.5,0.09375,-0.1875,0.0,0.0,0.0
1696242795971,-0.13574219,-0.140625,0.984375,0.34375,0.15625,-0.25,0.0,0.0,0.0
1696242796064,-0.13671875,-0.140625,0.9892578,0.5,0.03125,-0.125,0.0,0.0,0.0
1696242796069,-0.13183594,-0.13964844,0.9970703,0.5625,-0.09375,-0.0625,0.0,0.0,0.0
1696242796094,-0.14257812,-0.14160156,0.9873047,0.34375,0.03125,-0.125,0.0,0.0,0.0
1696242796153,-0.13671875,-0.14355469,1.0,0.5625,0.03125,-0.3125,0.0,0.0,0.0
1696242796183,-0.13964844,-0.14160156,0.9970703,0.875,0.03125,-0.25,0.0,0.0,0.0
1696242796213,-0.140625,-0.13867188,0.9970703,0.21875,0.09375,-0.3125,0.0,0.0,0.0
1696242796274,-0.12988281,-0.13867188,1.0019531,1.0625,0.03125,0.125,0.0,0.0,0.0
1696242796309,-0.1328125,-0.13574219,0.98828125,0.5,-0.09375,-0.125,0.0,0.0,0.0
1696242796336,-0.14453125,-0.13769531,1.0,0.5,0.03125,-0.25,0.0,0.0,0.0
1696242796394,-0.1328125,-0.13378906,0.9921875,0.34375,-0.03125,-0.1875,0.0,0.0,0.0
1696242796422,-0.140625,-0.13867188,1.0068359,0.625,0.34375,0.0,-66.0,-3.875,-29.1875
1696242796454,-0.13671875,-0.14355469,0.98046875,0.75,0.09375,-0.1875,0.0,0.0,0.0
1696242796512,-0.14160156,-0.13964844,0.9951172,0.34375,0.09375,-0.25,0.0,0.0,0.0
1696242796541,-0.1328125,-0.125,0.98339844,0.6875,0.09375,-0.25,0.0,0.0,0.0
1696242796574,-0.12792969,-0.13378906,1.0019531,0.40625,-0.09375,-0.125,0.0,0.0,0.0
1696242796661,-0.13574219,-0.14550781,1.0048828,0.34375,0.28125,-0.1875,0.0,0.0,0.0
1696242796690,-0.13574219,-0.13964844,0.9892578,0.875,-0.03125,-0.0625,0.0,0.0,0.0
1696242796694,-0.14160156,-0.14160156,1.0009766,0.28125,0.09375,-0.0625,0.0,0.0,0.0
1696242796751,-0.13671875,-0.14550781,0.9970703,0.5625,-0.09375,-0.0625,0.0,0.0,0.0
1696242796781,-0.14160156,-0.14160156,0.99121094,0.625,0.03125,-0.125,0.0,0.0,0.0
1696242796811,-0.140625,-0.14355469,0.9941406,-0.03125,-0.03125,0.0,0.0,0.0,0.0
1696242796875,-0.13574219,-0.12988281,1.0078125,0.28125,-0.03125,-0.0625,0.0,0.0,0.0
1696242796902,-0.14355469,-0.13574219,0.9873047,0.09375,-0.03125,-0.0625,-66.3125,-3.125,-30.9375
1696242796932,-0.14257812,-0.13476562,0.9941406,-0.34375,0.09375,-0.375,0.0,0.0,0.0
1696242796993,-0.13867188,-0.13964844,0.9941406,0.15625,0.03125,-0.1875,0.0,0.0,0.0
1696242797024,-0.13964844,-0.13964844,0.984375,-0.53125,-0.09375,-0.125,0.0,0.0,0.0
1696242797082,-0.13085938,-0.13574219,0.9951172,-0.09375,-0.28125,-0.0625,0.0,0.0,0.0
1696242797112,-0.13964844,-0.13183594,0.9873047,-0.21875,-0.03125,0.125,0.0,0.0,0.0
1696242797143,-0.13964844,-0.14941406,0.9951172,-0.15625,0.09375,-0.4375,0.0,0.0,0.0
1696242797171,-0.13378906,-0.13476562,1.0039062,0.28125,0.03125,-0.375,0.0,0.0,0.0
1696242797233,-0.13671875,-0.13476562,0.9892578,-0.28125,-0.15625,-0.25,0.0,0.0,0.0
1696242797261,-0.12988281,-0.13378906,0.99902344,-0.28125,-0.15625,0.25,0.0,0.0,0.0
1696242797296,-0.13671875,-0.14257812,0.99902344,0.03125,-0.375,0.125,0.0,0.0,0.0
1696242797353,-0.13867188,-0.14160156,0.98828125,-0.34375,-0.09375,-0.125,0.0,0.0,0.0
1696242797385,-0.13964844,-0.13183594,1.0009766,-0.28125,0.03125,-0.125,0.0,0.0,0.0
1696242797412,-0.13769531,-0.14160156,0.9921875,-0.09375,-0.09375,-0.3125,-66.4375,-3.25,-30.0625
1696242797479,-0.14648438,-0.14160156,0.9970703,0.09375,-0.15625,-0.25,0.0,0.0,0.0
1696242797502,-0.13574219,-0.13769531,0.98535156,-0.03125,-0.03125,-0.0625,0.0,0.0,0.0
1696242797532,-0.13378906,-0.140625,0.98535156,-0.28125,0.09375,-0.1875,0.0,0.0,0.0
1696242797593,-0.14160156,-0.140625,0.9814453,0.28125,-0.21875,0.0,0.0,0.0,0.0
1696242797623,-0.14355469,-0.140625,0.984375,-0.09375,-0.28125,0.1875,0.0,0.0,0.0
1696242797653,-0.13867188,-0.13769531,0.9902344,-0.03125,-0.21875,-0.0625,0.0,0.0,0.0
1696242797711,-0.12988281,-0.13476562,0.99902344,0.15625,-0.03125,-0.3125,0.0,0.0,0.0
1696242797771,-0.13867188,-0.1328125,0.98828125,-0.15625,0.03125,-0.25,0.0,0.0,0.0
1696242797777,-0.13671875,-0.13574219,0.9951172,0.34375,-0.03125,-0.1875,0.0,0.0,0.0
1696242797832,-0.12792969,-0.1484375,0.99609375,-0.34375,-0.03125,0.0625,0.0,0.0,0.0
1696242797863,-0.13769531,-0.14257812,1.0029297,-0.28125,0.03125,-0.125,0.0,0.0,0.0
1696242797924,-0.13671875,-0.1328125,0.9980469,0.21875,0.03125,-0.1875,-66.625,-2.375,-29.75
1696242797952,-0.13476562,-0.14550781,0.99121094,-0.78125,-0.03125,-0.3125,0.0,0.0,0.0
1696242797986,-0.12695312,-0.14160156,1.0068359,-0.28125,0.09375,-0.1875,0.0,0.0,0.0
1696242798018,-0.13476562,-0.13964844,0.9863281,0.21875,0.03125,-0.125,0.0,0.0,0.0
1696242798072,-0.13671875,-0.14453125,0.98828125,-0.21875,-0.03125,0.0,0.0,0.0,0.0
1696242798102,-0.12695312,-0.14746094,1.0097656,0.40625,-0.03125,0.0,0.0,0.0,0.0
1696242798133,-0.1328125,-0.14941406,1.0029297,0.09375,-0.15625,-0.25,0.0,0.0,0.0
1696242798193,-0.14257812,-0.13867188,0.99121094,0.46875,0.03125,0.0625,0.0,0.0,0.0
1696242798226,-0.1328125,-0.13671875,0.99121094,-0.28125,-0.03125,0.0625,0.0,0.0,0.0
1696242798252,-0.13671875,-0.15039062,0.98828125,-0.09375,-0.09375,0.0,0.0,0.0,0.0
1696242798348,-0.13671875,-0.13964844,0.99121094,0.34375,-0.15625,0.0625,0.0,0.0,0.0
1696242798351,-0.14257812,-0.12792969,0.99316406,0.09375,0.03125,0.0,0.0,0.0,0.0
1696242798373,-0.12890625,-0.14257812,1.0029297,0.21875,0.09375,-0.1875,0.0,0.0,0.0
1696242798434,-0.14257812,-0.13574219,0.9873047,0.21875,0.09375,-0.1875,-65.6875,-1.75,-30.6875
1696242798462,-0.12695312,-0.13574219,0.9873047,0.09375,0.03125,-0.0625,0.0,0.0,0.0
1696242798491,-0.13183594,-0.13671875,0.9902344,0.21875,-0.03125,-0.125,0.0,0.0,0.0
1696242798553,-0.13867188,-0.14453125,0.9951172,0.09375,-0.03125,-0.125,0.0,0.0,0.0
1696242798585,-0.14160156,-0.1484375,1.0048828,0.21875,-0.03125,0.0,0.0,0.0,0.0
1696242798612,-0.13867188,-0.14648438,0.9892578,0.15625,0.03125,-0.0625,0.0,0.0,0.0
1696242798708,-0.13867188,-0.140625,0.9863281,0.34375,0.03125,-0.3125,0.0,0.0,0.0
1696242798715,-0.14160156,-0.140625,0.9902344,-0.21875,0.15625,0.0,0.0,0.0,0.0
1696242798734,-0.13085938,-0.15039062,0.99609375,0.40625,0.03125,-0.1875,0.0,0.0,0.0
1696242798792,-0.13867188,-0.13769531,0.9941406,0.03125,-0.15625,-0.125,0.0,0.0,0.0
1696242798822,-0.12890625,-0.14160156,0.98828125,0.09375,-0.15625,-0.3125,0.0,0.0,0.0
1696242798852,-0.13769531,-0.13671875,1.0078125,0.5,-0.03125,-0.125,0.0,0.0,0.0
1696242798914,-0.13378906,-0.14550781,0.9970703,0.03125,-0.15625,-0.125,-65.125,-2.9375,-28.5625
1696242798943,-0.1328125,-0.1484375,0.9970703,0.5,-0.15625,0.0,0.0,0.0,0.0
1696242798973,-0.13183594,-0.13183594,0.9892578,0.5625,0.03125,-0.1875,0.0,0.0,0.0
1696242799034,-0.125,-0.14257812,0.9951172,0.21875,0.03125,-0.3125,0.0,0.0,0.0
1696242799062,-0.13574219,-0.14160156,0.9951172,0.46875,0.09375,-0.0625,0.0,0.0,0.0
1696242799093,-0.14257812,-0.14257812,0.9980469,0.21875,0.09375,-0.0625,0.0,0.0,0.0
1696242799153,-0.13964844,-0.14746094,0.9970703,-0.03125,0.03125,-0.1875,0.0,0.0,0.0
1696242799184,-0.13378906,-0.1484375,0.9921875,0.875,0.21875,-0.0625,0.0,0.0,0.0
1696242799211,-0.13867188,-0.13769531,0.98828125,0.6875,0.15625,-0.1875,0.0,0.0,0.0
1696242799272,-0.140625,-0.14453125,0.99902344,0.875,0.15625,-0.1875,0.0,0.0,0.0
1696242799301,-0.13574219,-0.14257812,1.0166016,0.75,0.03125,-0.0625,0.0,0.0,0.0
1696242799331,-0.13964844,-0.14550781,0.99121094,0.09375,-0.03125,-0.375,0.0,0.0,0.0
1696242799395,-0.13769531,-0.13769531,0.9921875,0.28125,0.34375,-0.25,0.0,0.0,0.0
1696242799423,-0.1328125,-0.14453125,0.9814453,0.875,-0.03125,-0.1875,-66.625,-2.375,-30.1875
1696242799452,-0.13574219,-0.13574219,0.9902344,0.5625,-0.09375,-0.0625,0.0,0.0,0.0
1696242799542,-0.13574219,-0.13378906,0.97753906,0.6875,0.09375,-0.125,0.0,0.0,0.0
1696242799547,-0.13671875,-0.14160156,0.9921875,0.46875,0.09375,-0.25,0.0,0.0,0.0
1696242799573,-0.13671875,-0.13867188,1.0029297,0.40625,0.34375,-0.0625,0.0,0.0,0.0
1696242799636,-0.15332031,-0.13085938,0.9863281,1.0,0.21875,-0.3125,0.0,0.0,0.0
1696242799663,-0.140625,-0.13671875,0.9921875,0.46875,0.15625,-0.1875,0.0,0.0,0.0
1696242799694,-0.14550781,-0.13867188,0.99902344,0.625,0.03125,-0.125,0.0,0.0,0.0
1696242799759,-0.13964844,-0.14355469,1.0058594,0.5625,0.03125,-0.125,0.0,0.0,0.0
1696242799782,-0.13769531,-0.14160156,0.98339844,0.21875,0.09375,0.0,0.0,0.0,0.0
1696242799813,-0.13769531,-0.13183594,1.0087891,0.5,0.03125,-0.1875,0.0,0.0,0.0
1696242799878,-0.13867188,-0.140625,1.0019531,0.40625,0.15625,-0.125,0.0,0.0,0.0
1696242799903,-0.13769531,-0.13671875,1.0048828,0.34375,0.09375,-0.1875,-66.125,-3.5625,-29.0
1696242799933,-0.13964844,-0.13378906,0.9921875,0.6875,0.03125,-0.1875,0.0,0.0,0.0
1696242799995,-0.13476562,-0.13476562,0.9892578,0.15625,0.21875,-0.0625,0.0,0.0,0.0
1696242800022,-0.14160156,-0.13769531,0.98535156,0.15625,-0.09375,0.0,0.0,0.0,0.0
1696242800055,-0.13964844,-0.14550781,0.9970703,0.5625,0.03125,0.0,0.0,0.0,0.0
1696242800113,-0.13378906,-0.14355469,0.99609375,0.09375,0.09375,-0.0625,0.0,0.0,0.0
1696242800142,-0.13867188,-0.13769531,0.9873047,-0.03125,0.03125,-0.125,0.0,0.0,0.0
1696242800172,-0.13867188,-0.1484375,1.0,0.34375,-0.03125,-0.3125,0.0,0.0,0.0
1696242800232,-0.14746094,-0.1328125,0.9921875,-0.21875,-0.03125,-0.125,0.0,0.0,0.0
1696242800292,-0.13964844,-0.13671875,0.984375,0.09375,-0.15625,0.0,0.0,0.0,0.0
1696242800296,-0.13671875,-0.140625,0.9951172,0.03125,-0.09375,0.0,0.0,0.0,0.0
1696242800354,-0.1328125,-0.14160156,0.9863281,-0.09375,-0.21875,-0.3125,0.0,0.0,0.0
1696242800382,-0.13964844,-0.12988281,0.9794922,-0.59375,-0.09375,-0.3125,0.0,0.0,0.0
1696242800413,-0.13378906,-0.14746094,0.9951172,0.15625,0.09375,0.0,-66.3125,-3.875,-28.4375
1696242800472,-0.13671875,-0.13476562,0.98339844,-0.15625,-0.03125,-0.0625,0.0,0.0,0.0
1696242800502,-0.14160156,-0.1328125,0.9863281,-0.53125,-0.15625,0.1875,0.0,0.0,0.0
1696242800533,-0.1328125,-0.13867188,0.98339844,-0.03125,-0.09375,-0.0625,0.0,0.0,0.0
1696242800623,-0.12890625,-0.14257812,0.9873047,-0.34375,-0.15625,-0.125,0.0,0.0,0.0
1696242800629,-0.13769531,-0.14550781,0.9863281,-0.40625,-0.15625,-0.0625,0.0,0.0,0.0
1696242800655,-0.13769531,-0.14257812,0.9941406,0.09375,-0.09375,0.0,0.0,0.0,0.0
1696242800713,-0.13574219,-0.14160156,0.9921875,-0.28125,0.15625,-0.25,0.0,0.0,0.0
1696242800743,-0.13476562,-0.13574219,0.98339844,0.15625,-0.15625,-0.125,0.0,0.0,0.0
1696242800770,-0.13671875,-0.14453125,0.9941406,-0.03125,-0.21875,-0.0625,0.0,0.0,0.0
1696242800834,-0.14550781,-0.14550781,0.98535156,-0.84375,-0.15625,-0.0625,0.0,0.0,0.0
1696242800863,-0.1328125,-0.13867188,0.99316406,0.28125,-0.03125,0.0,0.0,0.0,0.0
1696242800894,-0.13769531,-0.14550781,0.9941406,0.15625,0.15625,0.0,-66.4375,-4.3125,-29.625
1696242800954,-0.14160156,-0.15234375,0.9902344,0.21875,0.15625,-0.375,0.0,0.0,0.0
1696242800986,-0.13085938,-0.14453125,0.9951172,0.09375,-0.09375,-0.25,0.0,0.0,0.0
1696242801013,-0.13867188,-0.14257812,0.9970703,0.21875,0.03125,-0.125,0.0,0.0,0.0
1696242801073,-0.13671875,-0.14453125,1.0009766,-0.15625,-0.09375,-0.0625,0.0,0.0,0.0
1696242801104,-0.1328125,-0.14355469,0.99121094,-0.875,-0.09375,-0.1875,0.0,0.0,0.0
1696242801132,-0.14648438,-0.14746094,0.9902344,0.09375,-0.15625,0.125,0.0,0.0,0.0
1696242801193,-0.125,-0.140625,0.9863281,0.03125,-0.34375,-0.25,0.0,0.0,0.0
1696242801223,-0.13574219,-0.13964844,0.9980469,-0.21875,-0.09375,-0.4375,0.0,0.0,0.0
1696242801253,-0.12695312,-0.15332031,1.0009766,-0.03125,0.09375,-0.0625,0.0,0.0,0.0
1696242801348,-0.13867188,-0.14257812,0.9902344,0.40625,0.34375,-0.0625,0.0,0.0,0.0
1696242801355,-0.12890625,-0.14355469,0.98535156,0.8125,0.03125,-0.125,0.0,0.0,0.0
1696242801372,-0.13378906,-0.140625,0.99316406,0.46875,-0.03125,-0.4375,0.0,0.0,0.0
1696242801431,-0.13769531,-0.13671875,0.9794922,0.34375,-0.03125,-0.5,-65.6875,-2.5,-30.375
1696242801461,-0.13476562,-0.13867188,0.9941406,-0.03125,-0.15625,-0.0625,0.0,0.0,0.0
1696242801501,-0.13964844,-0.14550781,0.99902344,0.40625,-0.09375,0.125,0.0,0.0,0.0
1696242801554,-0.13964844,-0.15527344,0.9902344,0.40625,-0.03125,-0.25,0.0,0.0,0.0
1696242801581,-0.14550781,-0.13867188,0.9814453,-0.28125,-0.03125,-0.4375,0.0,0.0,0.0
1696242801615,-0.14257812,-0.140625,1.0097656,0.5625,-0.03125,-0.25,0.0,0.0,0.0
1696242801676,-0.13867188,-0.13964844,0.9814453,0.09375,-0.03125,0.125,0.0,0.0,0.0
1696242801704,-0.13671875,-0.13964844,1.0078125,-0.15625,0.03125,0.0,0.0,0.0,0.0
1696242801740,-0.13476562,-0.14453125,0.9902344,0.46875,-0.03125,-0.125,0.0,0.0,0.0
1696242801794,-0.13378906,-0.14550781,0.99316406,0.03125,0.15625,-0.1875,0.0,0.0,0.0
1696242801824,-0.13964844,-0.13964844,1.0,0.15625,0.03125,-0.3125,0.0,0.0,0.0
1696242801856,-0.140625,-0.14453125,0.9873047,0.40625,0.15625,-0.0625,0.0,0.0,0.0
1696242801915,-0.15039062,-0.1484375,1.0019531,-0.09375,-0.15625,-0.125,-66.3125,-3.125,-27.375
1696242801941,-0.140625,-0.14453125,0.9921875,0.21875,-0.09375,-0.3125,0.0,0.0,0.0
1696242801977,-0.140625,-0.14746094,0.9941406,0.21875,0.03125,0.0,0.0,0.0,0.0
1696242802035,-0.13378906,-0.13085938,0.99609375,-0.09375,0.03125,-0.125,0.0,0.0,0.0
1696242802064,-0.13378906,-0.13769531,0.98046875,0.75,-0.09375,-0.125,0.0,0.0,0.0
1696242802154,-0.14550781,-0.14941406,0.98828125,-0.28125,0.28125,0.0,0.0,0.0,0.0
1696242802162,-0.13085938,-0.13574219,0.9980469,0.34375,-0.28125,-0.1875,0.0,0.0,0.0
1696242802212,-0.13867188,-0.14257812,0.9951172,-0.15625,0.28125,0.1875,0.0,0.0,0.0
1696242802220,-0.13574219,-0.13671875,0.9892578,0.46875,-0.03125,-0.4375,0.0,0.0,0.0
1696242802273,-0.1328125,-0.14648438,0.9824219,0.09375,0.03125,-0.125,0.0,0.0,0.0
1696242802301,-0.140625,-0.13671875,0.98828125,0.5,-0.03125,-0.25,0.0,0.0,0.0
1696242802332,-0.13867188,-0.13867188,0.98535156,0.28125,-0.21875,-0.0625,0.0,0.0,0.0
1696242802394,-0.13183594,-0.14355469,1.0019531,0.34375,-0.09375,-0.0625,0.0,0.0,0.0
1696242802422,-0.13476562,-0.14355469,0.9873047,0.6875,-0.09375,-0.125,-66.3125,-3.125,-28.4375
1696242802452,-0.13183594,-0.14550781,0.984375,0.28125,0.28125,-0.3125,0.0,0.0,0.0
1696242802513,-0.13964844,-0.14941406,0.9951172,0.21875,0.03125,-0.25,0.0,0.0,0.0
1696242802543,-0.13085938,-0.14355469,0.9814453,0.9375,-0.21875,-0.125,0.0,0.0,0.0
1696242802573,-0.14160156,-0.140625,0.9970703,0.03125,0.15625,0.0,0.0,0.0,0.0
1696242802634,-0.13769531,-0.14257812,0.99316406,0.34375,-0.28125,-0.0625,0.0,0.0,0.0
1696242802663,-0.13574219,-0.13867188,0.9892578,0.40625,0.09375,0.0,0.0,0.0,0.0
1696242802692,-0.13085938,-0.13867188,0.9785156,0.625,0.03125,-0.125,0.0,0.0,0.0
1696242802754,-0.1328125,-0.140625,1.0,0.0625,-0.03125,-0.0625,0.0,0.0,0.0
1696242802783,-0.140625,-0.14355469,0.99609375,0.59375,0.09375,-0.125,0.0,0.0,0.0
1696242802813,-0.13574219,-0.13964844,0.98828125,0.3125,0.09375,-0.0625,0.0,0.0,0.0
1696242802904,-0.13964844,-0.14355469,0.98828125,0.125,-0.09375,0.125,0.0,0.0,0.0
1696242802912,-0.14355469,-0.13671875,0.99902344,0.3125,0.03125,-0.1875,-67.8125,-3.4375,-30.5
1696242802932,-0.14355469,-0.14453125,0.98828125,0.34375,0.09375,0.0,0.0,0.0,0.0
1696242802992,-0.140625,-0.14257812,0.99316406,0.40625,0.09375,0.125,0.0,0.0,0.0
1696242803027,-0.14550781,-0.1484375,1.0029297,0.3125,0.09375,0.0,0.0,0.0,0.0
1696242803053,-0.12792969,-0.13671875,0.99902344,-0.125,0.03125,-0.0625,0.0,0.0,0.0
1696242803146,-0.14648438,-0.14453125,0.98535156,0.3125,0.15625,0.0625,0.0,0.0,0.0
1696242803153,-0.13671875,-0.14160156,0.9873047,0.3125,0.15625,-0.125,0.0,0.0,0.0
1696242803172,-0.14355469,-0.12988281,0.9921875,0.25,0.15625,-0.125,0.0,0.0,0.0
1696242803233,-0.14257812,-0.12988281,0.99316406,0.3125,-0.03125,-0.25,0.0,0.0,0.0
1696242803266,-0.140625,-0.140625,1.0,0.0625,-0.09375,0.0,0.0,0.0,0.0
1696242803293,-0.13476562,-0.140625,0.9765625,0.78125,0.15625,-0.0625,0.0,0.0,0.0
1696242803355,-0.14355469,-0.140625,0.9873047,-0.125,0.09375,-0.25,0.0,0.0,0.0
1696242803383,-0.13378906,-0.13769531,1.0,0.125,0.15625,0.0,0.0,0.0,0.0
1696242803412,-0.140625,-0.14550781,0.99121094,0.125,-0.03125,0.0625,-67.0625,-3.125,-29.4375
1696242803475,-0.13671875,-0.14453125,1.0048828,-0.1875,0.03125,-0.0625,0.0,0.0,0.0
1696242803503,-0.13574219,-0.13769531,1.0019531,-0.5,0.03125,0.125,0.0,0.0,0.0
1696242803533,-0.1328125,-0.13574219,0.9970703,-0.6875,0.03125,0.1875,0.0,0.0,0.0
1696242803592,-0.13964844,-0.140625,0.9941406,-0.8125,-0.03125,0.0,0.0,0.0,0.0
1696242803626,-0.1328125,-0.14355469,0.9980469,-0.25,-0.15625,0.125,0.0,0.0,0.0
1696242803683,-0.13378906,-0.1484375,0.9921875,-0.625,0.03125,0.0625,0.0,0.0,0.0
1696242803713,-0.1328125,-0.14550781,0.9941406,-0.4375,0.03125,-0.0625,0.0,0.0,0.0
1696242803741,-0.1484375,-0.13769531,0.99609375,-0.3125,-0.15625,0.125,0.0,0.0,0.0
1696242803771,-0.13867188,-0.13378906,0.9980469,-0.625,0.15625,0.0625,0.0,0.0,0.0
1696242803833,-0.13867188,-0.13867188,0.99121094,-0.1875,-0.15625,0.21875,0.0,0.0,0.0
1696242803865,-0.12890625,-0.14355469,0.9941406,-0.5,-0.09375,0.0,0.0,0.0,0.0
1696242803891,-0.14453125,-0.13671875,1.0019531,-1.0,-0.03125,0.28125,-66.125,-4.0,-29.625
1696242803955,-0.13964844,-0.12988281,0.9892578,-0.375,-0.03125,-0.0625,0.0,0.0,0.0
1696242803984,-0.13378906,-0.13671875,0.9941406,-0.25,0.09375,0.21875,0.0,0.0,0.0
1696242804014,-0.1328125,-0.13964844,1.0,-0.4375,0.03125,-0.0625,0.0,0.0,0.0
1696242804106,-0.12695312,-0.13769531,0.99316406,-0.625,-0.15625,-0.0625,0.0,0.0,0.0
1696242804115,-0.13964844,-0.14257812,0.9921875,-0.375,0.03125,0.125,0.0,0.0,0.0
1696242804172,-0.13964844,-0.12890625,0.9814453,-0.5625,-0.15625,0.0625,0.0,0.0,0.0
1696242804192,-0.13867188,-0.14160156,0.9921875,-0.5625,-0.09375,0.125,0.0,0.0,0.0
1696242804225,-0.13867188,-0.13769531,0.9970703,0.125,-0.03125,-0.0625,0.0,0.0,0.0
1696242804252,-0.14648438,-0.13964844,1.0029297,-0.8125,-0.09375,-0.1875,0.0,0.0,0.0
1696242804318,-0.12109375,-0.13671875,0.9921875,-0.4375,-0.09375,0.0625,0.0,0.0,0.0
1696242804358,-0.13378906,-0.14648438,0.98828125,-0.4375,-0.09375,0.1875,0.0,0.0,0.0
1696242804372,-0.13964844,-0.140625,1.0,-0.6875,-0.03125,0.1875,0.0,0.0,0.0
1696242804432,-0.14355469,-0.1484375,0.98046875,-0.125,0.09375,0.28125,-66.0,-1.9375,-30.1875
1696242804462,-0.1328125,-0.14648438,0.99121094,-0.5,0.09375,-0.125,0.0,0.0,0.0
1696242804491,-0.13378906,-0.1328125,1.0126953,-0.625,0.03125,-0.0625,0.0,0.0,0.0
1696242804553,-0.14550781,-0.13769531,0.99609375,-0.0625,0.03125,0.21875,0.0,0.0,0.0
1696242804584,-0.13769531,-0.14746094,0.9902344,-0.625,-0.09375,-0.0625,0.0,0.0,0.0
1696242804615,-0.140625,-0.140625,0.984375,-0.5625,-0.15625,0.125,0.0,0.0,0.0
1696242804675,-0.13378906,-0.13769531,0.98535156,-0.75,-0.15625,0.1875,0.0,0.0,0.0
1696242804704,-0.14160156,-0.14550781,0.99609375,-0.6875,0.09375,0.0625,0.0,0.0,0.0
1696242804733,-0.13671875,-0.14355469,0.9980469,-0.375,0.09375,0.0625,0.0,0.0,0.0
1696242804794,-0.12988281,-0.13671875,0.9794922,-0.625,-0.03125,0.0625,0.0,0.0,0.0
1696242804823,-0.13769531,-0.14160156,0.9951172,-0.3125,-0.03125,0.0,0.0,0.0,0.0
1696242804853,-0.13476562,-0.14648438,0.99316406,-0.5,-0.15625,0.125,0.0,0.0,0.0
1696242804915,-0.14160156,-0.14550781,0.99902344,-0.6875,-0.15625,0.0625,-65.6875,-2.9375,-29.625
1696242804944,-0.13085938,-0.14648438,0.9941406,-0.3125,-0.28125,0.0625,0.0,0.0,0.0
1696242804974,-0.13085938,-0.14941406,1.0087891,-0.375,-0.15625,-0.0625,0.0,0.0,0.0
1696242805030,-0.13183594,-0.15527344,0.9863281,-0.875,0.03125,-0.3125,0.0,0.0,0.0
1696242805061,-0.12988281,-0.13964844,0.9921875,0.0,-0.09375,0.125,0.0,0.0,0.0
1696242805094,-0.13867188,-0.13769531,0.9892578,-0.5625,-0.15625,0.1875,0.0,0.0,0.0
1696242805183,-0.13769531,-0.140625,1.0019531,-0.5,-0.09375,0.0625,0.0,0.0,0.0
1696242805189,-0.1328125,-0.14160156,0.9902344,-0.0625,-0.09375,0.1875,0.0,0.0,0.0
1696242805212,-0.13378906,-0.15917969,1.0,-0.25,-0.03125,0.0,0.0,0.0,0.0
1696242805273,-0.13867188,-0.14648438,0.99316406,-0.5,0.15625,0.0625,0.0,0.0,0.0
1696242805304,-0.13085938,-0.15039062,0.9980469,0.1875,-0.03125,0.0,0.0,0.0,0.0
1696242805333,-0.15234375,-0.14257812,0.98339844,-0.5625,-0.03125,0.0,0.0,0.0,0.0
1696242805396,-0.14648438,-0.14550781,0.9941406,-0.875,-0.09375,0.125,0.0,0.0,0.0
1696242805427,-0.13476562,-0.15136719,0.984375,-0.5,-0.09375,0.21875,-66.125,-4.0,-29.3125
1696242805452,-0.140625,-0.14648438,0.9951172,-0.5625,0.15625,0.1875,0.0,0.0,0.0
1696242805546,-0.13671875,-0.14941406,0.9970703,-0.375,0.03125,0.0,0.0,0.0,0.0
1696242805552,-0.13574219,-0.14648438,0.9873047,-0.125,0.15625,0.1875,0.0,0.0,0.0
1696242805572,-0.14160156,-0.15136719,0.98046875,-0.125,0.09375,-0.125,0.0,0.0,0.0
1696242805636,-0.13671875,-0.14550781,1.0029297,-0.125,-0.09375,0.28125,0.0,0.0,0.0
1696242805662,-0.13085938,-0.14257812,0.99902344,-0.25,-0.09375,0.1875,0.0,0.0,0.0
1696242805693,-0.1328125,-0.14746094,0.9970703,-0.25,-0.21875,0.0625,0.0,0.0,0.0
1696242805783,-0.13574219,-0.140625,1.0,0.34375,-0.03125,0.1875,0.0,0.0,0.0
1696242805789,-0.12988281,-0.14550781,0.98535156,0.0625,0.15625,-0.25,0.0,0.0,0.0
1696242805813,-0.13085938,-0.1484375,0.9980469,0.0,0.09375,0.125,0.0,0.0,0.0
1696242805876,-0.13867188,-0.14355469,0.9863281,0.1875,0.15625,0.0,0.0,0.0,0.0
1696242805901,-0.13574219,-0.14941406,0.9970703,-0.5,-0.15625,0.0,-66.4375,-3.25,-29.3125
1696242805934,-0.13867188,-0.14257812,0.9951172,0.25,0.09375,0.0625,0.0,0.0,0.0
1696242806027,-0.13671875,-0.14257812,0.98828125,0.3125,-0.03125,0.0625,0.0,0.0,0.0
1696242806033,-0.13964844,-0.14257812,0.9980469,-0.25,0.09375,0.0625,0.0,0.0,0.0
1696242806051,-0.14355469,-0.140625,0.9921875,-0.0625,-0.15625,0.0,0.0,0.0,0.0
1696242806175,-0.13964844,-0.14550781,1.0097656,0.40625,0.15625,0.0625,0.0,0.0,0.0
1696242806181,-0.15136719,-0.1484375,0.9794922,-0.125,0.15625,-0.0625,0.0,0.0,0.0
1696242806184,-0.14648438,-0.14746094,0.9941406,0.1875,0.03125,0.0,0.0,0.0,0.0
1696242806233,-0.13769531,-0.140625,0.9941406,0.25,0.09375,0.125,0.0,0.0,0.0
1696242806263,-0.15039062,-0.13867188,1.0097656,-0.0625,0.15625,0.1875,0.0,0.0,0.0
1696242806292,-0.13867188,-0.15039062,1.0048828,0.25,0.09375,-0.0625,0.0,0.0,0.0
1696242806416,-0.13476562,-0.13769531,1.0,0.1875,0.03125,-0.0625,0.0,0.0,0.0
1696242806419,-0.14453125,-0.13964844,0.9980469,0.25,0.03125,-0.1875,0.0,0.0,0.0
1696242806421,-0.13769531,-0.14941406,0.99121094,-0.0625,0.09375,0.125,-66.625,-3.875,-29.75
1696242806473,-0.13574219,-0.15136719,0.984375,0.40625,0.03125,0.28125,0.0,0.0,0.0
1696242806501,-0.14453125,-0.14160156,0.9794922,0.25,0.03125,0.21875,0.0,0.0,0.0
1696242806533,-0.14257812,-0.13769531,0.9785156,-0.375,0.28125,-0.125,0.0,0.0,0.0
1696242806592,-0.14257812,-0.14648438,0.9863281,0.25,0.15625,-0.0625,0.0,0.0,0.0
1696242806652,-0.13671875,-0.13769531,0.9785156,-0.0625,0.03125,0.0625,0.0,0.0,0.0
1696242806654,-0.1328125,-0.14355469,0.99902344,-0.1875,0.03125,0.0,0.0,0.0,0.0
1696242806712,-0.13476562,-0.1484375,1.0019531,0.125,0.03125,0.0,0.0,0.0,0.0
1696242806742,-0.13671875,-0.13183594,0.9941406,-0.25,-0.03125,0.125,0.0,0.0,0.0
1696242806772,-0.13574219,-0.13574219,0.9892578,-0.1875,-0.03125,0.0,0.0,0.0,0.0
1696242806833,-0.13867188,-0.14355469,0.99121094,0.0,-0.09375,0.0,0.0,0.0,0.0
1696242806866,-0.14648438,-0.13964844,1.0009766,-0.6875,0.09375,-0.125,0.0,0.0,0.0
1696242806892,-0.14355469,-0.13867188,0.9873047,-0.1875,-0.15625,0.21875,-66.875,-2.5,-31.4375
1696242806952,-0.140625,-0.1328125,0.9902344,-0.5625,-0.28125,0.34375,0.0,0.0,0.0
1696242806983,-0.13769531,-0.14746094,0.98828125,-1.21875,-0.09375,0.21875,0.0,0.0,0.0
1696242807010,-0.13867188,-0.14160156,0.9892578,-0.8125,-0.15625,0.0,0.0,0.0,0.0
1696242807074,-0.13574219,-0.14648438,0.984375,-0.75,0.28125,0.0625,0.0,0.0,0.0
1696242807106,-0.13671875,-0.13476562,0.9863281,-0.625,-0.09375,0.0,0.0,0.0,0.0
1696242807132,-0.13476562,-0.13867188,0.98828125,-0.3125,-0.15625,0.125,0.0,0.0,0.0
1696242807193,-0.13671875,-0.14648438,0.9863281,-0.9375,-0.03125,0.1875,0.0,0.0,0.0
1696242807223,-0.12792969,-0.13574219,0.99121094,-0.75,-0.03125,0.125,0.0,0.0,0.0
1696242807253,-0.1328125,-0.14355469,0.9873047,-0.3125,0.03125,0.1875,0.0,0.0,0.0
1696242807343,-0.13867188,-0.14453125,0.99609375,-0.3125,-0.03125,-0.0625,0.0,0.0,0.0
1696242807346,-0.13769531,-0.14550781,0.98535156,-0.5,-0.21875,0.0625,0.0,0.0,0.0
1696242807373,-0.14257812,-0.1484375,0.9921875,-0.5,-0.03125,-0.0625,0.0,0.0,0.0
1696242807462,-0.140625,-0.140625,1.0,-0.6875,0.03125,0.1875,-66.625,-4.625,-28.6875
1696242807468,-0.14453125,-0.14355469,0.9951172,-0.75,-0.15625,0.1875,0.0,0.0,0.0
1696242807492,-0.13378906,-0.15332031,0.99121094,0.0,0.15625,0.125,0.0,0.0,0.0
1696242807553,-0.14257812,-0.140625,0.99121094,-0.6875,-0.03125,-0.125,0.0,0.0,0.0
1696242807583,-0.12792969,-0.15234375,0.984375,-1.03125,-0.03125,0.0,0.0,0.0,0.0
1696242807612,-0.140625,-0.14257812,0.9951172,0.0,0.03125,-0.125,0.0,0.0,0.0
1696242807672,-0.14453125,-0.1484375,0.9980469,-0.1875,0.3125,0.1875,0.0,0.0,0.0
1696242807702,-0.14453125,-0.14160156,1.0048828,-2.03125,0.3125,-0.3125,0.0,0.0,0.0
1696242807733,-0.13671875,-0.1484375,1.0029297,0.65625,0.28125,-0.0625,0.0,0.0,0.0
1696242807794,-0.1328125,-0.14257812,0.984375,-1.0,-0.09375,-0.0625,0.0,0.0,0.0
1696242807829,-0.13867188,-0.14746094,1.0097656,-0.1875,0.03125,0.28125,0.0,0.0,0.0
1696242807852,-0.13671875,-0.14355469,0.9814453,0.0,-0.09375,0.0625,0.0,0.0,0.0
1696242807917,-0.13574219,-0.13769531,0.9921875,-0.875,-0.03125,0.0,-66.625,-3.125,-28.4375
1696242807947,-0.13769531,-0.14453125,1.0019531,0.0625,-0.15625,0.0625,0.0,0.0,0.0
1696242807971,-0.13867188,-0.14746094,0.99316406,-0.4375,-0.21875,0.0625,0.0,0.0,0.0
1696242808033,-0.13378906,-0.14453125,0.9921875,-0.75,-0.21875,0.28125,0.0,0.0,0.0
1696242808062,-0.13671875,-0.15136719,0.9892578,0.1875,-0.09375,0.1875,0.0,0.0,0.0
1696242808091,-0.14355469,-0.13867188,0.98535156,-0.5625,-0.03125,-0.1875,0.0,0.0,0.0
1696242808151,-0.1328125,-0.14355469,0.9921875,-0.5,-0.15625,0.0,0.0,0.0,0.0
1696242808181,-0.13183594,-0.14355469,0.98535156,-0.375,-0.15625,0.1875,0.0,0.0,0.0
1696242808212,-0.13671875,-0.14550781,0.984375,-0.5625,0.09375,0.1875,0.0,0.0,0.0
1696242808272,-0.14550781,-0.14355469,0.98535156,-0.5625,-0.09375,0.125,0.0,0.0,0.0
1696242808303,-0.13769531,-0.14160156,0.9970703,-0.3125,-0.09375,-0.0625,0.0,0.0,0.0
1696242808332,-0.13671875,-0.14746094,0.9873047,-0.1875,-0.03125,-0.1875,0.0,0.0,0.0
1696242808393,-0.140625,-0.14453125,0.9902344,-0.375,-0.03125,0.0625,0.0,0.0,0.0
1696242808422,-0.13769531,-0.14160156,1.0,-0.5625,-0.09375,0.125,-66.0,-4.9375,-30.1875
1696242808453,-0.12988281,-0.15039062,0.9892578,-0.125,-0.15625,0.21875,0.0,0.0,0.0
1696242808512,-0.14453125,-0.1484375,0.9785156,-0.5625,-0.09375,0.0625,0.0,0.0,0.0
1696242808545,-0.13671875,-0.14257812,0.9873047,-0.4375,0.03125,0.0625,0.0,0.0,0.0
1696242808602,-0.14648438,-0.14941406,0.9824219,-0.1875,-0.03125,0.0,0.0,0.0,0.0
1696242808633,-0.13769531,-0.14550781,0.9892578,-0.5,0.09375,0.0,0.0,0.0,0.0
1696242808664,-0.13574219,-0.14648438,0.9873047,-0.625,-0.03125,0.21875,0.0,0.0,0.0
1696242808693,-0.13476562,-0.14550781,0.99121094,-0.125,0.09375,0.21875,0.0,0.0,0.0
1696242808751,-0.13769531,-0.14648438,0.98828125,-0.375,-0.03125,-0.125,0.0,0.0,0.0
1696242808782,-0.14550781,-0.15527344,0.98535156,-0.3125,0.03125,0.0625,0.0,0.0,0.0
1696242808812,-0.14257812,-0.14648438,0.98535156,0.0625,-0.09375,0.125,0.0,0.0,0.0
1696242808873,-0.14746094,-0.14257812,0.9863281,-0.3125,-0.21875,0.125,0.0,0.0,0.0
1696242808901,-0.140625,-0.15332031,0.984375,-0.4375,0.03125,0.1875,-66.4375,-4.75,-29.625
1696242808933,-0.13085938,-0.15429688,1.0029297,0.25,-0.09375,0.21875,0.0,0.0,0.0
1696242808995,-0.14355469,-0.15429688,0.9814453,-0.25,0.03125,-0.125,0.0,0.0,0.0
1696242809024,-0.13378906,-0.14941406,0.9970703,-0.5,-0.09375,0.0,0.0,0.0,0.0
1696242809052,-0.14355469,-0.14453125,0.9980469,0.1875,-0.15625,0.1875,0.0,0.0,0.0
1696242809115,-0.1328125,-0.14941406,0.99316406,-0.625,0.09375,0.1875,0.0,0.0,0.0
1696242809148,-0.12988281,-0.1484375,0.99902344,-0.1875,-0.03125,0.1875,0.0,0.0,0.0
1696242809174,-0.13671875,-0.140625,0.984375,0.125,0.15625,0.0,0.0,0.0,0.0
1696242809235,-0.14746094,-0.14746094,0.99609375,-0.5,0.03125,-0.0625,0.0,0.0,0.0
1696242809263,-0.140625,-0.14257812,0.9892578,-0.125,0.15625,0.0625,0.0,0.0,0.0
1696242809293,-0.13964844,-0.14550781,0.9941406,0.0625,-0.15625,0.1875,0.0,0.0,0.0
1696242809353,-0.14257812,-0.14746094,0.99316406,0.53125,0.21875,0.21875,0.0,0.0,0.0
1696242809384,-0.13671875,-0.1484375,1.0019531,0.46875,-0.09375,0.0625,0.0,0.0,0.0
1696242809413,-0.14160156,-0.14941406,0.9941406,-0.25,-0.03125,0.0625,-67.0625,-3.4375,-28.6875
1696242809472,-0.13183594,-0.14453125,0.9902344,0.125,-0.03125,0.1875,0.0,0.0,0.0
1696242809505,-0.14550781,-0.14257812,0.97753906,0.125,0.03125,0.0,0.0,0.0,0.0
1696242809561,-0.13378906,-0.140625,0.9921875,0.125,0.09375,0.0,0.0,0.0,0.0
1696242809598,-0.13964844,-0.14550781,0.99902344,0.0625,-0.09375,0.0,0.0,0.0,0.0
1696242809620,-0.13964844,-0.13769531,0.99316406,-0.125,0.03125,0.0625,0.0,0.0,0.0
1696242809659,-0.13964844,-0.14941406,1.0009766,0.125,0.28125,0.0625,0.0,0.0,0.0
1696242809745,-0.13574219,-0.14453125,0.9863281,0.78125,-0.03125,0.0,0.0,0.0,0.0
1696242809753,-0.13867188,-0.14355469,1.0019531,0.125,0.03125,-0.1875,0.0,0.0,0.0
1696242809770,-0.13476562,-0.1328125,0.9980469,0.3125,-0.09375,-0.0625,0.0,0.0,0.0
1696242809832,-0.13183594,-0.13964844,0.99316406,0.125,-0.09375,0.21875,0.0,0.0,0.0
1696242809864,-0.13769531,-0.14648438,0.98535156,0.46875,-0.03125,0.21875,0.0,0.0,0.0
1696242809926,-0.13867188,-0.14746094,1.0,-0.125,0.03125,0.125,-66.0,-2.375,-29.75
1696242809983,-0.140625,-0.14160156,0.99316406,0.46875,0.03125,0.0,0.0,0.0,0.0
1696242809988,-0.13378906,-0.14355469,0.99902344,0.0,-0.03125,0.125,0.0,0.0,0.0
1696242810011,-0.14160156,-0.1328125,0.99316406,0.125,0.15625,0.0,0.0,0.0,0.0
1696242810073,-0.140625,-0.14257812,1.0068359,-0.0625,-0.03125,0.0625,0.0,0.0,0.0
1696242810132,-0.13964844,-0.1328125,1.0029297,-0.25,-0.09375,0.0625,0.0,0.0,0.0
1696242810138,-0.14257812,-0.14453125,1.0029297,0.125,0.03125,0.0625,0.0,0.0,0.0
1696242810194,-0.1328125,-0.14453125,0.98828125,0.1875,0.03125,-0.125,0.0,0.0,0.0
1696242810251,-0.13378906,-0.13769531,0.99316406,0.0625,0.15625,-0.0625,0.0,0.0,0.0
1696242810256,-0.140625,-0.13378906,0.9980469,0.1875,0.03125,0.125,0.0,0.0,0.0
1696242810312,-0.14160156,-0.140625,0.9941406,0.0625,-0.03125,0.0625,0.0,0.0,0.0
1696242810342,-0.13183594,-0.140625,1.0009766,-0.125,0.15625,0.0625,0.0,0.0,0.0
1696242810372,-0.14355469,-0.14355469,0.9951172,-0.1875,-0.15625,0.1875,0.0,0.0,0.0
1696242810437,-0.13964844,-0.14453125,0.9970703,-0.5,-0.09375,0.0,-65.5625,-3.4375,-28.6875
1696242810461,-0.14746094,-0.14648438,0.9873047,-0.625,-0.09375,0.125,0.0,0.0,0.0
1696242810492,-0.13574219,-0.14355469,0.9951172,-0.5625,0.03125,0.0625,0.0,0.0,0.0
1696242810553,-0.13964844,-0.13183594,0.99316406,-0.75,0.09375,0.21875,0.0,0.0,0.0
1696242810583,-0.13769531,-0.13476562,1.0009766,-0.375,-0.03125,0.21875,0.0,0.0,0.0
1696242810676,-0.13671875,-0.13867188,0.9941406,-0.5625,-0.09375,0.1875,0.0,0.0,0.0
1696242810685,-0.14648438,-0.13769531,1.0009766,-0.5,0.03125,-0.1875,0.0,0.0,0.0
1696242810703,-0.14746094,-0.14746094,1.0019531,-0.5625,-0.03125,0.0625,0.0,0.0,0.0
1696242810733,-0.13183594,-0.14160156,0.9902344,-0.1875,-0.15625,0.21875,0.0,0.0,0.0
1696242810826,-0.13964844,-0.13476562,0.98535156,-0.6875,-0.09375,0.125,0.0,0.0,0.0
1696242810835,-0.13378906,-0.14941406,1.0009766,-0.375,-0.15625,0.0,0.0,0.0,0.0
1696242810852,-0.14355469,-0.13769531,0.9863281,-0.4375,-0.15625,0.0625,0.0,0.0,0.0
1696242810913,-0.14550781,-0.140625,0.9863281,-0.75,0.03125,0.0,-66.3125,-2.375,-29.1875
1696242810943,-0.13867188,-0.14648438,0.98339844,-0.375,-0.21875,0.21875,0.0,0.0,0.0
1696242810972,-0.13964844,-0.15429688,0.98828125,-0.5,-0.09375,0.125,0.0,0.0,0.0
1696242811032,-0.13867188,-0.140625,0.9824219,-0.4375,-0.09375,0.0625,0.0,0.0,0.0
1696242811092,-0.14257812,-0.14453125,0.9921875,-0.375,0.15625,0.0625,0.0,0.0,0.0
1696242811095,-0.14160156,-0.14550781,0.9736328,-0.5,-0.03125,-0.0625,0.0,0.0,0.0
1696242811152,-0.140625,-0.14648438,0.9921875,-0.6875,-0.09375,0.1875,0.0,0.0,0.0
1696242811183,-0.14257812,-0.15039062,0.99316406,-0.125,-0.03125,0.125,0.0,0.0,0.0
1696242811272,-0.13769531,-0.13769531,0.9902344,-0.5,-0.03125,-0.0625,0.0,0.0,0.0
1696242811281,-0.140625,-0.14257812,0.9980469,-0.5625,-0.21875,-0.125,0.0,0.0,0.0
1696242811302,-0.13574219,-0.13867188,1.0,-0.25,-0.03125,0.125,0.0,0.0,0.0
1696242811332,-0.14160156,-0.14453125,0.99609375,-0.625,-0.15625,0.0,0.0,0.0,0.0
1696242811395,-0.13378906,-0.15332031,1.0126953,-0.375,0.21875,0.28125,0.0,0.0,0.0
1696242811424,-0.13964844,-0.14550781,0.98535156,-0.25,0.09375,-0.0625,-66.125,-3.25,-29.0
1696242811452,-0.13671875,-0.14550781,0.99121094,-0.6875,0.15625,-0.0625,0.0,0.0,0.0
1696242811514,-0.13476562,-0.14453125,0.9951172,0.34375,0.03125,-0.125,0.0,0.0,0.0
1696242811543,-0.14355469,-0.14160156,0.9892578,-0.4375,-0.21875,-0.125,0.0,0.0,0.0
1696242811575,-0.14160156,-0.15136719,0.9970703,-0.3125,-0.21875,0.125,0.0,0.0,0.0
1696242811634,-0.14648438,-0.14648438,0.99316406,0.25,-0.21875,0.28125,0.0,0.0,0.0
1696242811661,-0.13964844,-0.1484375,0.99316406,-0.625,-0.03125,-0.1875,0.0,0.0,0.0
1696242811691,-0.13183594,-0.13867188,0.99609375,0.1875,0.03125,0.0,0.0,0.0,0.0
1696242811755,-0.14550781,-0.14550781,0.9921875,0.0625,0.09375,-0.1875,0.0,0.0,0.0
1696242811782,-0.14257812,-0.14550781,0.98535156,-0.6875,-0.15625,0.0625,0.0,0.0,0.0
1696242811813,-0.140625,-0.13769531,0.98535156,-0.125,0.09375,0.1875,0.0,0.0,0.0
1696242811873,-0.13964844,-0.13867188,0.98046875,-0.3125,-0.09375,0.125,0.0,0.0,0.0
1696242811902,-0.13769531,-0.14550781,0.9902344,-0.125,0.03125,0.0625,-65.6875,-1.75,-29.625
1696242811932,-0.14257812,-0.14941406,0.984375,0.0,0.09375,0.0,0.0,0.0,0.0
1696242812027,-0.14550781,-0.15039062,0.9921875,-0.5625,-0.03125,-0.0625,0.0,0.0,0.0
1696242812033,-0.13574219,-0.14257812,0.9892578,-0.0625,0.03125,0.125,0.0,0.0,0.0
1696242812052,-0.13867188,-0.14453125,1.0,-0.1875,-0.09375,0.0,0.0,0.0,0.0
1696242812113,-0.13964844,-0.1484375,0.9970703,-0.25,0.03125,-0.0625,0.0,0.0,0.0
1696242812145,-0.12597656,-0.14355469,0.99316406,0.125,0.03125,0.0,0.0,0.0,0.0
1696242812172,-0.140625,-0.13769531,0.9921875,-0.25,-0.03125,0.1875,0.0,0.0,0.0
1696242812235,-0.12988281,-0.1484375,1.0136719,-0.1875,-0.03125,-0.125,0.0,0.0,0.0
1696242812264,-0.14257812,-0.14941406,0.99902344,-0.25,0.21875,0.21875,0.0,0.0,0.0
1696242812296,-0.13964844,-0.14550781,0.99609375,-0.125,0.03125,-0.25,0.0,0.0,0.0
1696242812355,-0.15136719,-0.14550781,1.0,-0.125,0.09375,0.0,0.0,0.0,0.0
1696242812383,-0.13769531,-0.14453125,0.98535156,0.125,0.03125,-0.1875,0.0,0.0,0.0
1696242812411,-0.14160156,-0.14746094,0.9970703,-0.4375,-0.09375,-0.125,-65.25,-1.9375,-30.9375
1696242812473,-0.14453125,-0.14453125,1.0,0.0,-0.03125,0.1875,0.0,0.0,0.0
1696242812501,-0.13769531,-0.15429688,0.9980469,0.25,-0.09375,0.1875,0.0,0.0,0.0
1696242812533,-0.140625,-0.15722656,0.9970703,-0.1875,0.03125,-0.0625,0.0,0.0,0.0
1696242812595,-0.14257812,-0.14746094,0.9970703,0.0625,0.03125,-0.1875,0.0,0.0,0.0
1696242812627,-0.14746094,-0.14746094,0.9863281,0.1875,-0.03125,0.0625,0.0,0.0,0.0
1696242812653,-0.14550781,-0.14160156,0.99609375,-0.5,-0.15625,0.125,0.0,0.0,0.0
1696242812714,-0.13476562,-0.1484375,0.9921875,-0.1875,-0.15625,0.125,0.0,0.0,0.0
1696242812748,-0.13085938,-0.14257812,0.9863281,0.0625,0.21875,-0.125,0.0,0.0,0.0
1696242812775,-0.13574219,-0.14550781,0.9863281,-0.375,-0.03125,-0.25,0.0,0.0,0.0
1696242812835,-0.140625,-0.15820312,0.99316406,0.1875,0.15625,0.0625,0.0,0.0,0.0
1696242812865,-0.13964844,-0.14746094,0.98046875,-0.3125,-0.03125,-0.1875,0.0,0.0,0.0
1696242812928,-0.13964844,-0.14453125,0.9951172,0.0625,0.03125,0.0625,-65.125,-2.1875,-29.625
1696242812952,-0.13378906,-0.14941406,0.99121094,0.25,0.09375,0.0,0.0,0.0,0.0
1696242812982,-0.13183594,-0.14355469,0.99609375,-0.1875,-0.09375,0.125,0.0,0.0,0.0
1696242813013,-0.14550781,-0.1484375,0.9921875,0.3125,-0.03125,0.125,0.0,0.0,0.0
1696242813076,-0.14355469,-0.15039062,1.0029297,0.25,0.09375,0.0625,0.0,0.0,0.0
1696242813103,-0.14257812,-0.14746094,0.9892578,0.0,0.21875,-0.125,0.0,0.0,0.0
1696242813131,-0.13378906,-0.1484375,1.0,-0.125,0.09375,0.125,0.0,0.0,0.0
1696242813193,-0.14257812,-0.15039062,1.0,0.71875,0.09375,0.0625,0.0,0.0,0.0
1696242813224,-0.13769531,-0.13964844,0.9814453,0.46875,0.09375,-0.0625,0.0,0.0,0.0
1696242813282,-0.14453125,-0.13574219,1.0087891,0.125,0.09375,-0.1875,0.0,0.0,0.0
1696242813313,-0.13867188,-0.13867188,0.9921875,0.59375,-0.03125,0.0,0.0,0.0,0.0
1696242813343,-0.14257812,-0.14160156,1.0009766,0.0,-0.03125,0.0,0.0,0.0,0.0
1696242813372,-0.13964844,-0.14160156,0.9941406,0.40625,0.09375,-0.0625,0.0,0.0,0.0
1696242813435,-0.13476562,-0.14941406,0.99316406,0.25,-0.03125,0.125,-66.0,-3.4375,-30.5
1696242813468,-0.14355469,-0.14355469,0.9941406,0.34375,-0.03125,-0.125,0.0,0.0,0.0
1696242813494,-0.13085938,-0.14355469,0.99902344,0.25,-0.03125,0.125,0.0,0.0,0.0
1696242813554,-0.140625,-0.15039062,0.99902344,0.25,0.03125,-0.125,0.0,0.0,0.0
1696242813582,-0.140625,-0.14648438,0.9941406,0.0625,0.09375,-0.125,0.0,0.0,0.0
1696242813613,-0.13964844,-0.13574219,0.9785156,0.3125,0.03125,0.0625,0.0,0.0,0.0
1696242813674,-0.13574219,-0.140625,0.9902344,0.40625,0.09375,0.0,0.0,0.0,0.0
1696242813703,-0.13769531,-0.14355469,0.99121094,0.34375,0.09375,-0.125,0.0,0.0,0.0
1696242813733,-0.13867188,-0.140625,0.9951172,0.0625,0.09375,0.0,0.0,0.0,0.0
1696242813792,-0.13574219,-0.14453125,0.9902344,0.3125,-0.03125,0.0,0.0,0.0,0.0
1696242813824,-0.140625,-0.1484375,1.0,-0.125,0.03125,0.0625,0.0,0.0,0.0
1696242813851,-0.13085938,-0.13964844,0.9970703,0.1875,0.15625,-0.25,0.0,0.0,0.0
1696242813912,-0.14453125,-0.13574219,0.9863281,0.0,0.03125,-0.0625,-66.4375,-1.75,-30.375
1696242813943,-0.14648438,-0.13867188,0.984375,-0.3125,-0.15625,0.0625,0.0,0.0,0.0
1696242813973,-0.14355469,-0.13574219,0.99316406,-0.375,0.15625,0.34375,0.0,0.0,0.0
1696242814036,-0.1484375,-0.140625,0.9873047,-0.1875,-0.09375,-0.125,0.0,0.0,0.0
1696242814063,-0.13183594,-0.13476562,0.99121094,-0.625,-0.03125,0.0,0.0,0.0,0.0
1696242814099,-0.14550781,-0.13769531,0.9892578,-0.125,-0.21875,-0.25,0.0,0.0,0.0
1696242814188,-0.14746094,-0.13574219,1.0019531,-0.6875,-0.03125,0.0,0.0,0.0,0.0
1696242814195,-0.13769531,-0.14453125,0.9921875,-0.5,0.03125,0.1875,0.0,0.0,0.0
1696242814212,-0.13183594,-0.14355469,0.99121094,-0.3125,-0.21875,0.125,0.0,0.0,0.0
1696242814306,-0.13867188,-0.14257812,0.99609375,-0.625,0.03125,-0.0625,0.0,0.0,0.0
1696242814312,-0.14160156,-0.14746094,0.9970703,-0.1875,-0.28125,-0.125,0.0,0.0,0.0
1696242814333,-0.13867188,-0.13476562,0.9863281,-0.625,-0.09375,-0.0625,0.0,0.0,0.0
1696242814395,-0.13769531,-0.14355469,0.9892578,-0.375,0.09375,0.0,0.0,0.0,0.0
1696242814423,-0.13574219,-0.140625,0.9794922,-0.375,-0.09375,0.125,-65.6875,-3.5625,-30.0625
1696242814454,-0.14453125,-0.1328125,0.98339844,-0.5625,0.03125,0.0,0.0,0.0,0.0
1696242814515,-0.15039062,-0.14550781,0.9902344,0.0,-0.09375,-0.1875,0.0,0.0,0.0
1696242814605,-0.14550781,-0.14355469,0.984375,-0.25,0.15625,-0.25,0.0,0.0,0.0
1696242814613,-0.13964844,-0.13769531,0.984375,-0.0625,0.09375,-0.0625,0.0,0.0,0.0
1696242814631,-0.13085938,-0.14648438,0.99902344,-0.25,-0.09375,0.0625,0.0,0.0,0.0
1696242814661,-0.125,-0.14257812,0.9794922,-0.25,-0.09375,0.0625,0.0,0.0,0.0
1696242814695,-0.12695312,-0.14453125,0.99121094,-0.1875,-0.09375,-0.1875,0.0,0.0,0.0
1696242814754,-0.13574219,-0.13476562,0.9863281,-0.8125,-0.09375,0.0625,0.0,0.0,0.0
1696242814784,-0.13671875,-0.14648438,0.9824219,-0.4375,0.21875,0.28125,0.0,0.0,0.0
1696242814815,-0.13671875,-0.14941406,0.9794922,0.125,0.09375,0.0,0.0,0.0,0.0
1696242814875,-0.14550781,-0.13671875,0.9921875,-0.4375,0.09375,-0.1875,0.0,0.0,0.0
1696242814903,-0.13769531,-0.14355469,0.9921875,-0.125,0.03125,-0.25,-66.4375,-1.4375,-29.625
1696242814934,-0.13671875,-0.14355469,0.99121094,-0.375,-0.15625,0.125,0.0,0.0,0.0
1696242814996,-0.14160156,-0.14648438,0.9863281,-0.375,-0.21875,0.125,0.0,0.0,0.0
1696242815026,-0.13085938,-0.14257812,0.9921875,-0.4375,-0.21875,0.0625,0.0,0.0,0.0
1696242815053,-0.14550781,-0.14355469,0.9794922,-0.6875,-0.03125,-0.3125,0.0,0.0,0.0
1696242815115,-0.15039062,-0.14257812,0.99609375,0.1875,-0.15625,0.0625,0.0,0.0,0.0
1696242815147,-0.13574219,-0.14648438,0.9746094,-0.3125,-0.09375,0.1875,0.0,0.0,0.0
1696242815177,-0.140625,-0.1484375,0.9824219,-0.5625,-0.09375,-0.1875,0.0,0.0,0.0
1696242815232,-0.13671875,-0.14941406,0.9941406,-0.3125,0.03125,0.0,0.0,0.0,0.0
1696242815263,-0.13867188,-0.14648438,0.9970703,-0.5625,-0.09375,0.0625,0.0,0.0,0.0
1696242815327,-0.13574219,-0.14355469,0.9863281,-0.0625,0.09375,0.0,0.0,0.0,0.0
1696242815354,-0.14355469,-0.14257812,0.99316406,-0.25,-0.09375,-0.0625,0.0,0.0,0.0
1696242815382,-0.14257812,-0.15039062,0.9941406,-0.25,-0.09375,0.1875,0.0,0.0,0.0
1696242815412,-0.13769531,-0.14941406,1.0029297,-0.25,-0.03125,0.0625,-66.4375,-3.25,-28.25
1696242815475,-0.13769531,-0.14746094,0.99121094,-0.25,0.03125,0.0625,0.0,0.0,0.0
1696242815503,-0.13671875,-0.1484375,1.0,-0.1875,-0.09375,0.0,0.0,0.0,0.0
1696242815535,-0.14550781,-0.14257812,0.9980469,-0.6875,0.15625,0.21875,0.0,0.0,0.0
1696242815592,-0.13671875,-0.1484375,0.9902344,0.125,0.15625,0.0625,0.0,0.0,0.0
1696242815622,-0.13476562,-0.140625,1.0029297,-0.125,0.03125,-0.0625,0.0,0.0,0.0
1696242815652,-0.13769531,-0.15136719,1.0019531,-0.125,0.03125,-0.25,0.0,0.0,0.0
1696242815747,-0.13183594,-0.1484375,0.984375,-0.1875,-0.15625,0.0,0.0,0.0,0.0
1696242815753,-0.13574219,-0.14355469,0.99316406,-0.375,-0.09375,0.21875,0.0,0.0,0.0
1696242815838,-0.14453125,-0.14941406,0.9873047,0.0,-0.03125,-0.0625,0.0,0.0,0.0
1696242815845,-0.13867188,-0.15039062,0.9941406,-0.0625,0.09375,-0.125,0.0,0.0,0.0
1696242815861,-0.13183594,-0.14941406,0.99121094,-0.1875,-0.09375,0.0,0.0,0.0,0.0
1696242815926,-0.14746094,-0.14355469,0.9980469,-0.1875,-0.03125,0.0,-66.0,-3.125,-29.4375
1696242815952,-0.1328125,-0.14746094,0.9980469,-0.25,-0.03125,0.0,0.0,0.0,0.0
1696242815981,-0.13769531,-0.14257812,0.98046875,-0.4375,-0.09375,0.1875,0.0,0.0,0.0
1696242816073,-0.13378906,-0.14355469,0.9902344,-0.125,0.09375,-0.1875,0.0,0.0,0.0
1696242816080,-0.13378906,-0.15625,0.98828125,0.1875,-0.03125,-0.125,0.0,0.0,0.0
1696242816121,-0.13769531,-0.14648438,0.9863281,-0.625,-0.03125,0.0625,0.0,0.0,0.0
1696242816133,-0.13671875,-0.14746094,0.99121094,0.0,-0.03125,-0.125,0.0,0.0,0.0
1696242816193,-0.13964844,-0.1484375,0.99121094,0.0,0.09375,0.0,0.0,0.0,0.0
1696242816222,-0.13574219,-0.14550781,0.9892578,-0.1875,-0.03125,-0.0625,0.0,0.0,0.0
1696242816317,-0.13183594,-0.1484375,0.984375,0.125,-0.03125,-0.0625,0.0,0.0,0.0
1696242816323,-0.1328125,-0.13867188,0.9951172,-0.3125,0.09375,0.0625,0.0,0.0,0.0
1696242816341,-0.14453125,-0.14941406,0.9824219,0.25,0.21875,0.125,0.0,0.0,0.0
1696242816376,-0.13867188,-0.14648438,0.9921875,0.59375,0.15625,-0.1875,0.0,0.0,0.0
1696242816466,-0.14160156,-0.1484375,0.9921875,0.1875,0.15625,-0.0625,-67.375,-3.875,-29.4375
1696242816475,-0.13964844,-0.15039062,0.9980469,0.1875,-0.09375,-0.0625,0.0,0.0,0.0
1696242816493,-0.14648438,-0.14941406,1.0,0.3125,-0.21875,0.0625,0.0,0.0,0.0
1696242816586,-0.13867188,-0.14941406,1.0009766,0.25,-0.03125,0.0625,0.0,0.0,0.0
1696242816593,-0.13378906,-0.13671875,0.9941406,0.25,0.03125,-0.125,0.0,0.0,0.0
1696242816612,-0.13867188,-0.15332031,0.984375,0.65625,0.03125,-0.3125,0.0,0.0,0.0
1696242816674,-0.14453125,-0.14550781,0.98828125,0.125,-0.03125,0.1875,0.0,0.0,0.0
1696242816702,-0.13378906,-0.13867188,0.99121094,0.59375,0.15625,0.0,0.0,0.0,0.0
1696242816731,-0.13671875,-0.13964844,1.0009766,0.0625,0.15625,0.1875,0.0,0.0,0.0
1696242816792,-0.1328125,-0.14355469,0.9970703,0.3125,-0.03125,0.0,0.0,0.0,0.0
1696242816823,-0.14160156,-0.13476562,0.9873047,0.1875,-0.03125,0.0625,0.0,0.0,0.0
1696242816854,-0.13964844,-0.13964844,0.9824219,0.1875,-0.09375,-0.0625,0.0,0.0,0.0
1696242816913,-0.12792969,-0.13769531,1.0048828,-0.0625,0.09375,-0.125,-66.3125,-3.875,-29.4375
1696242816973,-0.140625,-0.1484375,0.98535156,0.1875,0.09375,-0.0625,0.0,0.0,0.0
1696242816982,-0.13378906,-0.14550781,0.9941406,0.3125,0.28125,0.0625,0.0,0.0,0.0
1696242817032,-0.14746094,-0.13964844,1.0009766,0.0,0.15625,-0.1875,0.0,0.0,0.0
1696242817062,-0.13769531,-0.13867188,1.0019531,-0.09375,-0.0625,-0.0625,0.0,0.0,0.0
1696242817095,-0.14453125,-0.14160156,0.98046875,-0.03125,-0.125,0.3125,0.0,0.0,0.0
1696242817154,-0.13867188,-0.140625,0.99121094,0.03125,0.0625,0.0,0.0,0.0,0.0
1696242817214,-0.14257812,-0.14550781,0.9824219,-0.03125,0.21875,-0.0625,0.0,0.0,0.0
1696242817217,-0.13769531,-0.13476562,0.9873047,0.15625,0.0,-0.21875,0.0,0.0,0.0
1696242817273,-0.14257812,-0.14160156,0.99316406,-0.28125,-0.0625,-0.0625,0.0,0.0,0.0
1696242817302,-0.14257812,-0.13378906,0.98046875,-0.09375,0.0625,0.0625,0.0,0.0,0.0
1696242817333,-0.14746094,-0.13769531,1.0019531,-0.46875,-0.1875,0.0625,0.0,0.0,0.0
1696242817427,-0.13769531,-0.140625,0.9951172,-0.46875,-0.125,0.0,0.0,0.0,0.0
1696242817429,-0.140625,-0.14941406,0.99316406,-0.15625,0.0,0.0625,-66.125,-3.25,-29.0
1696242817452,-0.13867188,-0.14453125,0.9873047,-0.53125,-0.0625,0.0625,0.0,0.0,0.0
1696242817513,-0.14453125,-0.13671875,1.0048828,-0.65625,-0.0625,-0.0625,0.0,0.0,0.0
1696242817577,-0.14941406,-0.14355469,0.9970703,-0.40625,-0.1875,0.1875,0.0,0.0,0.0
1696242817584,-0.13671875,-0.13867188,0.9902344,-0.28125,-0.0625,0.125,0.0,0.0,0.0
1696242817636,-0.140625,-0.13378906,0.9970703,-0.59375,0.0,0.1875,0.0,0.0,0.0
1696242817666,-0.14453125,-0.14453125,0.98339844,-0.40625,-0.0625,-0.125,0.0,0.0,0.0
1696242817724,-0.13964844,-0.14257812,1.0029297,-0.34375,-0.0625,-0.0625,0.0,0.0,0.0
1696242817753,-0.13769531,-0.13867188,0.9863281,-0.875,-0.125,-0.0625,0.0,0.0,0.0
1696242817784,-0.14257812,-0.14550781,0.9892578,-0.03125,-0.0625,0.0625,0.0,0.0,0.0
1696242817845,-0.13964844,-0.13867188,0.9921875,-0.875,-0.0625,0.0625,0.0,0.0,0.0
1696242817875,-0.13574219,-0.14746094,0.99609375,-0.53125,-0.0625,0.0625,0.0,0.0,0.0
1696242817934,-0.14160156,-0.14941406,0.9941406,-0.28125,-0.125,0.25,-65.125,-2.9375,-29.625
1696242817995,-0.13769531,-0.13476562,1.0,-0.46875,0.0,-0.21875,0.0,0.0,0.0
1696242818001,-0.14746094,-0.13867188,0.9941406,-0.28125,-0.0625,-0.1875,0.0,0.0,0.0
1696242818022,-0.14550781,-0.13671875,0.9863281,-0.28125,-0.25,0.125,0.0,0.0,0.0
1696242818146,-0.14355469,-0.14453125,0.9951172,-0.71875,-0.25,0.25,0.0,0.0,0.0
1696242818174,-0.13085938,-0.14550781,0.9921875,-0.59375,-0.0625,0.0,0.0,0.0,0.0
1696242818183,-0.13671875,-0.14746094,0.99121094,0.03125,0.0625,-0.125,0.0,0.0,0.0
1696242818187,-0.14550781,-0.14355469,0.9921875,-0.53125,0.0,-0.21875,0.0,0.0,0.0
1696242818261,-0.13574219,-0.14160156,0.99902344,0.03125,0.0625,-0.0625,0.0,0.0,0.0
1696242818267,-0.13769531,-0.13964844,0.9785156,-0.59375,-0.125,0.1875,0.0,0.0,0.0
1696242818325,-0.13671875,-0.1484375,1.0009766,-0.46875,-0.125,0.3125,0.0,0.0,0.0
1696242818353,-0.13574219,-0.1484375,0.99902344,-0.28125,-0.0625,0.1875,0.0,0.0,0.0
1696242818382,-0.14355469,-0.15039062,0.9941406,-0.875,-0.125,-0.0625,0.0,0.0,0.0
1696242818477,-0.14355469,-0.14257812,1.0,-0.40625,-0.125,-0.1875,-66.625,-5.1875,-28.125
1696242818484,-0.12695312,-0.14648438,1.0048828,0.03125,0.0625,0.0625,0.0,0.0,0.0
1696242818532,-0.1328125,-0.13964844,0.9873047,-0.46875,-0.125,-0.0625,0.0,0.0,0.0
1696242818564,-0.140625,-0.14550781,0.9892578,-0.34375,-0.1875,-0.125,0.0,0.0,0.0
1696242818591,-0.140625,-0.14746094,1.0009766,-0.03125,0.0,0.125,0.0,0.0,0.0
1696242818623,-0.14355469,-0.15039062,0.99121094,-0.59375,-0.0625,0.0625,0.0,0.0,0.0
1696242818718,-0.13769531,-0.14453125,0.99609375,-0.59375,0.0,0.0625,0.0,0.0,0.0
1696242818725,-0.14355469,-0.14453125,0.9873047,-0.21875,0.21875,0.1875,0.0,0.0,0.0
1696242818743,-0.14160156,-0.14648438,0.99609375,-0.53125,-0.125,0.0,0.0,0.0,0.0
1696242818866,-0.13671875,-0.14550781,1.0,-0.03125,0.09375,-0.125,0.0,0.0,0.0
1696242818876,-0.13671875,-0.14355469,0.984375,-0.21875,-0.125,-0.125,0.0,0.0,0.0
1696242818882,-0.14550781,-0.14257812,0.9892578,-0.65625,-0.3125,-0.0625,0.0,0.0,0.0
1696242818951,-0.13574219,-0.14355469,0.9921875,0.03125,-0.1875,0.25,-67.0625,-3.4375,-29.1875
1696242818958,-0.14160156,-0.14648438,0.9980469,-0.28125,-0.1875,0.0,0.0,0.0,0.0
1696242818988,-0.14257812,-0.13867188,0.99121094,-0.28125,-0.0625,-0.125,0.0,0.0,0.0
1696242819043,-0.140625,-0.14257812,1.0039062,-0.21875,0.0625,0.125,0.0,0.0,0.0
1696242819104,-0.13574219,-0.14355469,0.9951172,-0.40625,-0.0625,0.0,0.0,0.0,0.0
1696242819132,-0.13574219,-0.14746094,0.9892578,-0.09375,0.0,0.125,0.0,0.0,0.0
1696242819166,-0.13769531,-0.14355469,1.0,-0.46875,0.0,0.1875,0.0,0.0,0.0
1696242819286,-0.13671875,-0.14453125,0.98535156,-0.21875,0.0625,-0.1875,0.0,0.0,0.0
1696242819294,-0.13476562,-0.14550781,0.9902344,-0.15625,0.0,0.0625,0.0,0.0,0.0
1696242819313,-0.14355469,-0.15039062,0.99121094,-0.21875,0.0625,-0.125,0.0,0.0,0.0
1696242819317,-0.13964844,-0.14355469,1.0009766,-0.21875,0.0,0.0,0.0,0.0,0.0
1696242819343,-0.14160156,-0.15722656,0.9921875,-0.21875,0.0,0.1875,0.0,0.0,0.0
1696242819405,-0.140625,-0.14941406,0.9941406,-0.46875,-0.0625,0.0,0.0,0.0,0.0
1696242819433,-0.13867188,-0.14941406,0.9921875,0.15625,0.0625,-0.0625,-66.0,-2.6875,-29.75
1696242819463,-0.140625,-0.14550781,0.99316406,-0.21875,0.0625,0.0,0.0,0.0,0.0
1696242819526,-0.14257812,-0.140625,0.98339844,-0.28125,0.0,0.0625,0.0,0.0,0.0
1696242819553,-0.1484375,-0.1484375,0.98828125,-0.28125,-0.0625,0.125,0.0,0.0,0.0
1696242819584,-0.13476562,-0.14746094,0.9980469,-0.28125,0.0625,0.0625,0.0,0.0,0.0
1696242819643,-0.13183594,-0.14648438,0.9941406,0.15625,0.0625,-0.21875,0.0,0.0,0.0
1696242819673,-0.14160156,-0.15527344,1.0009766,0.09375,0.0625,-0.1875,0.0,0.0,0.0
1696242819704,-0.14453125,-0.140625,0.9746094,0.53125,0.0,-0.25,0.0,0.0,0.0
1696242819795,-0.13964844,-0.15039062,1.0009766,-0.0625,-0.125,0.0,0.0,0.0,0.0
1696242819804,-0.13769531,-0.15332031,0.9794922,0.0625,0.0,0.15625,0.0,0.0,0.0
1696242819828,-0.13378906,-0.15722656,0.9863281,0.59375,-0.125,0.03125,0.0,0.0,0.0
1696242819884,-0.13183594,-0.14550781,0.9921875,-0.0625,-0.0625,-0.4375,0.0,0.0,0.0
1696242819945,-0.13769531,-0.14160156,0.9980469,0.1875,-0.0625,-0.1875,-66.3125,-4.1875,-29.1875
1696242819951,-0.14160156,-0.13867188,0.9970703,0.71875,-0.25,0.03125,0.0,0.0,0.0
1696242820005,-0.14160156,-0.13574219,0.99121094,0.0625,0.0625,0.0,0.0,0.0,0.0
1696242820063,-0.13574219,-0.14160156,1.0009766,0.21875,0.0,0.03125,0.0,0.0,0.0
1696242820069,-0.13378906,-0.14257812,0.9921875,0.46875,-0.0625,-0.0625,0.0,0.0,0.0
1696242820123,-0.13671875,-0.14355469,0.9902344,0.125,0.125,-0.0625,0.0,0.0,0.0
1696242820153,-0.13574219,-0.140625,0.9951172,0.84375,0.1875,-0.0625,0.0,0.0,0.0
1696242820213,-0.13867188,-0.14257812,0.97558594,0.40625,0.0625,-0.125,0.0,0.0,0.0
1696242820273,-0.14648438,-0.13769531,1.0029297,-0.0625,-0.1875,-0.0625,0.0,0.0,0.0
1696242820278,-0.14257812,-0.14257812,1.0019531,0.71875,0.125,-0.0625,0.0,0.0,0.0
1696242820306,-0.13769531,-0.14355469,1.0009766,0.0,-0.0625,-0.125,0.0,0.0,0.0
1696242820393,-0.13769531,-0.14550781,0.9941406,0.0625,0.0,0.03125,0.0,0.0,0.0
1696242820399,-0.12988281,-0.13671875,0.99609375,0.28125,-0.125,0.0,0.0,0.0,0.0
1696242820425,-0.13867188,-0.14746094,0.9892578,-0.1875,0.0625,0.0,-66.625,-2.375,-29.1875
1696242820482,-0.12890625,-0.140625,1.0,0.0625,0.0625,0.0,0.0,0.0,0.0
1696242820513,-0.14746094,-0.14550781,0.99609375,0.0625,0.1875,0.28125,0.0,0.0,0.0
1696242820548,-0.140625,-0.15136719,0.984375,0.0,0.125,-0.125,0.0,0.0,0.0
1696242820636,-0.13964844,-0.140625,0.9814453,-0.1875,-0.125,0.03125,0.0,0.0,0.0
1696242820642,-0.13769531,-0.14453125,0.98828125,-0.0625,-0.0625,-0.1875,0.0,0.0,0.0
1696242820663,-0.14160156,-0.13867188,0.99902344,-0.5625,-0.125,0.03125,0.0,0.0,0.0
1696242820756,-0.12988281,-0.1484375,0.9921875,-0.375,-0.125,0.09375,0.0,0.0,0.0
1696242820767,-0.1328125,-0.14257812,0.9941406,-0.0625,-0.0625,0.09375,0.0,0.0,0.0
1696242820844,-0.14355469,-0.14550781,0.984375,-0.125,-0.0625,-0.0625,0.0,0.0,0.0
1696242820850,-0.14746094,-0.14746094,1.0039062,-0.0625,-0.125,-0.0625,0.0,0.0,0.0
1696242820903,-0.14550781,-0.14648438,0.98828125,-0.0625,-0.25,0.03125,0.0,0.0,0.0
1696242820911,-0.14550781,-0.14746094,0.9921875,-0.375,-0.125,0.0,-67.0625,-3.125,-29.4375
1696242820965,-0.13769531,-0.14160156,1.0029297,-0.125,-0.0625,0.03125,0.0,0.0,0.0
1696242820992,-0.13769531,-0.14648438,0.9873047,-0.0625,-0.0625,0.03125,0.0,0.0,0.0
1696242821023,-0.13671875,-0.14550781,1.0019531,-0.25,-0.125,0.03125,0.0,0.0,0.0
1696242821084,-0.13671875,-0.13671875,1.0009766,-0.125,0.0,-0.1875,0.0,0.0,0.0
1696242821142,-0.13574219,-0.14355469,0.9970703,-0.5,-0.125,0.0,0.0,0.0,0.0
1696242821147,-0.14648438,-0.14355469,0.98535156,-0.5,-0.0625,0.15625,0.0,0.0,0.0
1696242821202,-0.14550781,-0.140625,1.0039062,-0.25,-0.0625,-0.125,0.0,0.0,0.0
1696242821264,-0.13574219,-0.14355469,1.0009766,0.0,0.0625,-0.125,0.0,0.0,0.0
1696242821272,-0.14160156,-0.14746094,0.9921875,0.0,-0.125,0.03125,0.0,0.0,0.0
1696242821354,-0.13867188,-0.13867188,0.9951172,0.0625,0.0625,0.0,0.0,0.0,0.0
1696242821357,-0.13671875,-0.15136719,0.9970703,0.1875,-0.25,-0.0625,0.0,0.0,0.0
1696242821413,-0.13476562,-0.15136719,1.0029297,-0.25,-0.0625,0.21875,0.0,0.0,0.0
1696242821476,-0.13574219,-0.14550781,0.98828125,0.21875,0.0625,-0.125,-67.1875,-2.9375,-29.0
1696242821479,-0.13964844,-0.13769531,0.99316406,-0.0625,-0.125,0.28125,0.0,0.0,0.0
1696242821504,-0.13964844,-0.14941406,1.0019531,0.0625,0.0,-0.125,0.0,0.0,0.0
1696242821563,-0.14257812,-0.14257812,0.9980469,-0.0625,-0.1875,-0.0625,0.0,0.0,0.0
1696242821601,-0.14160156,-0.14355469,0.99316406,-0.375,-0.125,0.0,0.0,0.0,0.0
1696242821626,-0.13378906,-0.14648438,0.9980469,0.0625,-0.125,-0.0625,0.0,0.0,0.0
1696242821683,-0.14355469,-0.14746094,0.9892578,-0.1875,-0.25,-0.0625,0.0,0.0,0.0
1696242821744,-0.13671875,-0.15136719,0.9941406,-0.0625,-0.25,0.0,0.0,0.0,0.0
1696242821747,-0.13867188,-0.14453125,0.9902344,-0.0625,-0.0625,0.15625,0.0,0.0,0.0
1696242821802,-0.13574219,-0.1484375,0.99316406,-0.3125,-0.0625,0.03125,0.0,0.0,0.0
1696242821838,-0.1484375,-0.14355469,0.9951172,-0.0625,-0.1875,0.09375,0.0,0.0,0.0
1696242821892,-0.13867188,-0.14746094,0.984375,-0.0625,-0.0625,0.21875,0.0,0.0,0.0
1696242821952,-0.15234375,-0.14355469,0.99609375,-0.625,-0.0625,-0.125,-67.1875,-4.0,-30.6875
1696242821957,-0.1328125,-0.14453125,1.0009766,0.0,-0.0625,0.09375,0.0,0.0,0.0
1696242821982,-0.14550781,-0.14257812,0.99902344,0.0,-0.125,-0.125,0.0,0.0,0.0
1696242822076,-0.13964844,-0.14453125,0.9824219,-0.375,-0.1875,0.0,0.0,0.0,0.0
1696242822084,-0.13867188,-0.14648438,0.9951172,0.21875,0.0,0.09375,0.0,0.0,0.0
1696242822101,-0.14550781,-0.15429688,0.9921875,-0.1875,-0.0625,-0.25,0.0,0.0,0.0
1696242822163,-0.14648438,-0.14648438,0.9941406,-0.4375,-0.0625,-0.25,0.0,0.0,0.0
1696242822192,-0.13964844,-0.14746094,0.9970703,0.21875,0.1875,0.03125,0.0,0.0,0.0
1696242822223,-0.14648438,-0.14453125,1.0029297,-0.375,-0.1875,0.15625,0.0,0.0,0.0
1696242822284,-0.14257812,-0.14746094,1.0009766,0.0,-0.0625,-0.0625,0.0,0.0,0.0
1696242822312,-0.14648438,-0.14453125,0.9902344,-0.4375,0.25,0.09375,0.0,0.0,0.0
1696242822343,-0.14257812,-0.13964844,0.99121094,0.0,0.0625,-0.1875,0.0,0.0,0.0
1696242822406,-0.14355469,-0.1484375,0.99121094,0.0625,0.125,0.0,0.0,0.0,0.0
1696242822432,-0.12988281,-0.14550781,0.9921875,-0.0625,-0.125,-0.1875,-65.375,-3.25,-29.625
1696242822463,-0.140625,-0.14160156,1.0009766,-0.0625,-0.125,-0.125,0.0,0.0,0.0
1696242822524,-0.13476562,-0.15234375,0.9951172,-0.0625,-0.1875,0.15625,0.0,0.0,0.0
1696242822581,-0.13183594,-0.14746094,0.99316406,0.21875,-0.1875,0.0,0.0,0.0,0.0
1696242822587,-0.13964844,-0.14355469,0.99316406,-0.0625,-0.0625,-0.1875,0.0,0.0,0.0
1696242822673,-0.1484375,-0.14257812,0.99316406,0.0625,-0.125,-0.125,0.0,0.0,0.0
1696242822682,-0.13964844,-0.14550781,0.9980469,0.0,0.0625,0.03125,0.0,0.0,0.0
1696242822702,-0.13769531,-0.14453125,0.9873047,0.0,-0.0625,0.09375,0.0,0.0,0.0
1696242822764,-0.13867188,-0.14355469,0.99121094,-0.0625,-0.125,0.03125,0.0,0.0,0.0
1696242822793,-0.1328125,-0.14746094,0.9951172,0.0625,0.0625,-0.0625,0.0,0.0,0.0
1696242822830,-0.1328125,-0.1484375,1.0009766,-0.0625,-0.0625,0.0,0.0,0.0,0.0
1696242822885,-0.13085938,-0.15136719,0.99316406,0.1875,0.0625,0.0,0.0,0.0,0.0
1696242822913,-0.1484375,-0.13964844,0.98046875,0.0,-0.0625,-0.0625,-67.375,-3.4375,-29.4375
1696242822944,-0.140625,-0.14941406,0.9892578,-0.1875,-0.125,-0.0625,0.0,0.0,0.0
1696242823004,-0.13964844,-0.14453125,0.99316406,0.0,0.125,0.0,0.0,0.0,0.0
1696242823033,-0.140625,-0.14160156,1.0009766,0.125,0.0,0.0,0.0,0.0,0.0
1696242823063,-0.1328125,-0.14453125,0.99316406,0.0,0.0,0.03125,0.0,0.0,0.0
1696242823125,-0.13378906,-0.140625,1.0,0.28125,-0.0625,-0.0625,0.0,0.0,0.0
1696242823153,-0.14746094,-0.14746094,0.98339844,0.125,-0.0625,-0.0625,0.0,0.0,0.0
1696242823181,-0.14257812,-0.14453125,1.0039062,-0.0625,0.0,0.09375,0.0,0.0,0.0
1696242823244,-0.14355469,-0.14941406,0.984375,0.34375,0.125,0.0,0.0,0.0,0.0
1696242823275,-0.14160156,-0.1484375,0.98535156,0.46875,-0.125,0.03125,0.0,0.0,0.0
1696242823314,-0.13867188,-0.14453125,1.0,0.125,0.0625,-0.1875,0.0,0.0,0.0
1696242823362,-0.1328125,-0.1484375,0.9921875,0.46875,-0.125,-0.0625,0.0,0.0,0.0
1696242823423,-0.13769531,-0.14453125,1.0068359,0.0625,0.0,0.03125,0.0,0.0,0.0
1696242823428,-0.13085938,-0.14746094,1.0009766,0.1875,0.0625,-0.0625,-66.3125,-4.625,-29.4375
1696242823482,-0.14160156,-0.13867188,1.0048828,0.40625,0.0,-0.125,0.0,0.0,0.0
1696242823513,-0.13574219,-0.14453125,0.98535156,0.21875,0.0,-0.25,0.0,0.0,0.0
1696242823542,-0.14355469,-0.14941406,0.99121094,0.1875,0.1875,-0.0625,0.0,0.0,0.0
1696242823636,-0.13183594,-0.13964844,0.9892578,0.34375,0.0625,-0.0625,0.0,0.0,0.0
1696242823643,-0.13574219,-0.14453125,1.0009766,-0.1875,-0.125,0.09375,0.0,0.0,0.0
1696242823661,-0.14550781,-0.14160156,0.98535156,0.1875,-0.125,0.21875,0.0,0.0,0.0
1696242823722,-0.14550781,-0.14453125,0.9951172,0.34375,0.125,0.0,0.0,0.0,0.0
1696242823752,-0.14648438,-0.14941406,0.984375,0.1875,0.0625,-0.0625,0.0,0.0,0.0
1696242823783,-0.14550781,-0.14648438,0.9794922,0.21875,0.125,-0.1875,0.0,0.0,0.0
1696242823846,-0.13867188,-0.14355469,0.9902344,0.21875,0.0,-0.125,0.0,0.0,0.0
1696242823872,-0.13867188,-0.13964844,0.984375,0.21875,0.0,0.0,0.0,0.0,0.0
1696242823902,-0.13378906,-0.14746094,0.98828125,0.125,0.0625,0.09375,-66.3125,-3.875,-30.9375
1696242823966,-0.13867188,-0.14355469,0.9951172,0.40625,0.125,0.0,0.0,0.0,0.0
1696242823991,-0.15039062,-0.13964844,0.9921875,0.21875,0.0625,-0.0625,0.0,0.0,0.0
1696242824025,-0.13867188,-0.140625,0.9863281,0.21875,-0.1875,-0.0625,0.0,0.0,0.0
1696242824084,-0.13574219,-0.140625,0.9902344,-0.3125,0.0625,0.03125,0.0,0.0,0.0
1696242824112,-0.12988281,-0.14746094,0.98535156,0.1875,-0.0625,-0.0625,0.0,0.0,0.0
1696242824142,-0.14355469,-0.15136719,0.9873047,0.21875,0.1875,-0.1875,0.0,0.0,0.0
1696242824205,-0.13476562,-0.14550781,0.9863281,-0.125,0.0,-0.3125,0.0,0.0,0.0
1696242824234,-0.14257812,-0.140625,1.0097656,-0.125,-0.125,-0.0625,0.0,0.0,0.0
1696242824266,-0.13867188,-0.14355469,0.9746094,-0.4375,-0.1875,0.03125,0.0,0.0,0.0
1696242824324,-0.13574219,-0.14746094,1.0,-0.375,-0.0625,0.03125,0.0,0.0,0.0
1696242824354,-0.13867188,-0.15039062,0.99902344,-0.4375,-0.1875,0.21875,0.0,0.0,0.0
1696242824384,-0.13867188,-0.14355469,0.99609375,-0.4375,-0.3125,0.03125,0.0,0.0,0.0
1696242824445,-0.14160156,-0.15039062,0.9951172,-0.25,-0.0625,0.09375,-66.125,-3.25,-30.0625
1696242824472,-0.13671875,-0.14550781,0.9892578,-0.5,-0.1875,-0.0625,0.0,0.0,0.0
1696242824503,-0.13964844,-0.14355469,0.99121094,-0.6875,-0.25,0.21875,0.0,0.0,0.0
1696242824567,-0.13574219,-0.15039062,0.9921875,-0.3125,-0.1875,0.40625,0.0,0.0,0.0
1696242824592,-0.13867188,-0.14355469,0.984375,-0.8125,0.0625,-0.1875,0.0,0.0,0.0
1696242824653,-0.14160156,-0.14746094,0.9941406,-0.9375,0.125,-0.625,0.0,0.0,0.0
1696242824682,-0.1484375,-0.14257812,1.0029297,0.0625,0.25,-0.3125,0.0,0.0,0.0
1696242824712,-0.14746094,-0.1484375,0.9951172,-0.3125,-0.125,0.28125,0.0,0.0,0.0
1696242824742,-0.13964844,-0.15332031,0.99902344,-0.0625,-0.125,0.03125,0.0,0.0,0.0
1696242824861,-0.14550781,-0.14746094,1.0,-0.25,-0.0625,0.0,0.0,0.0,0.0
1696242824869,-0.13964844,-0.14550781,0.9980469,-0.75,-0.0625,-0.0625,0.0,0.0,0.0
1696242824875,-0.13378906,-0.14453125,0.99609375,0.0625,-0.0625,0.21875,0.0,0.0,0.0
1696242824953,-0.14160156,-0.14648438,0.9970703,0.0,0.1875,0.28125,-65.5625,-2.6875,-30.1875
1696242824961,-0.13476562,-0.13671875,0.9902344,-0.25,0.1875,-0.3125,0.0,0.0,0.0
1696242824983,-0.140625,-0.14453125,0.98535156,0.46875,0.0,-0.0625,0.0,0.0,0.0
1696242825045,-0.1484375,-0.14746094,0.99902344,-0.25,0.0,-0.1875,0.0,0.0,0.0
1696242825073,-0.13085938,-0.14550781,1.0029297,0.0625,-0.375,0.03125,0.0,0.0,0.0
1696242825104,-0.13671875,-0.14160156,0.99316406,-0.25,-0.1875,0.15625,0.0,0.0,0.0
1696242825165,-0.14355469,-0.14550781,0.99121094,-0.0625,-0.0625,0.0,0.0,0.0,0.0
1696242825193,-0.13769531,-0.15429688,0.9902344,0.0625,-0.125,-0.0625,0.0,0.0,0.0
1696242825223,-0.13964844,-0.14160156,0.9970703,-0.1875,-0.125,-0.125,0.0,0.0,0.0
1696242825286,-0.14257812,-0.1484375,0.9902344,0.0,-0.1875,0.09375,0.0,0.0,0.0
1696242825313,-0.13378906,-0.14453125,0.99316406,-0.0625,-0.125,0.03125,0.0,0.0,0.0
1696242825343,-0.13476562,-0.14941406,0.99609375,-0.1875,-0.0625,0.09375,0.0,0.0,0.0
1696242825403,-0.13574219,-0.14648438,0.98046875,-0.1875,-0.125,-0.0625,0.0,0.0,0.0
1696242825431,-0.13671875,-0.14550781,0.9902344,-0.0625,0.0625,-0.0625,-66.4375,-2.9375,-30.0625
1696242825472,-0.13476562,-0.14941406,0.9921875,-0.0625,-0.0625,-0.125,0.0,0.0,0.0
1696242825523,-0.14257812,-0.14746094,0.99902344,-0.25,-0.125,-0.1875,0.0,0.0,0.0
1696242825553,-0.13574219,-0.140625,0.99121094,0.0625,0.0625,-0.0625,0.0,0.0,0.0
1696242825584,-0.13671875,-0.15136719,0.9980469,-0.0625,-0.1875,0.03125,0.0,0.0,0.0
1696242825641,-0.14355469,-0.14453125,0.98535156,-0.375,-0.0625,0.03125,0.0,0.0,0.0
1696242825706,-0.13671875,-0.140625,0.9970703,0.28125,0.125,0.03125,0.0,0.0,0.0
1696242825713,-0.13378906,-0.14453125,0.9814453,-0.375,-0.125,0.03125,0.0,0.0,0.0
1696242825764,-0.14160156,-0.15234375,1.0029297,-0.8125,0.0,0.09375,0.0,0.0,0.0
1696242825794,-0.14160156,-0.14648438,0.9902344,0.34375,0.0,-0.0625,0.0,0.0,0.0
1696242825830,-0.14550781,-0.14941406,0.984375,0.0,0.0,-0.1875,0.0,0.0,0.0
1696242825886,-0.13867188,-0.14746094,0.99121094,-0.0625,-0.0625,-0.125,0.0,0.0,0.0
1696242825914,-0.13867188,-0.14941406,0.98535156,0.21875,-0.125,0.09375,-66.125,-3.25,-28.5625
