,timestamp,accel_x,accel_y,accel_z,gyro_x,gyro_y,gyro_z,mag_x,mag_y,mag_z,ind
0,1696242836353,-1.0117188,0.051757812,-0.10839844,-1.09375,-0.78125,-0.375,0.0,0.0,0.0,90
1,1696242836393,-1.0009766,0.05078125,-0.091796875,-0.5625,-0.84375,-0.375,0.0,0.0,0.0,91
2,1696242836433,-1.0039062,0.055664062,-0.091796875,-0.375,-0.5,-0.5625,-103.8125,35.875,-67.375,92
3,1696242836473,-1.0117188,0.057617188,-0.107421875,-0.1875,0.0,0.03125,0.0,0.0,0.0,93
4,1696242836513,-1.0039062,0.052734375,-0.09863281,0.21875,0.0625,0.03125,0.0,0.0,0.0,94
5,1696242836553,-1.0009766,0.046875,-0.09765625,-1.09375,-0.5,-0.125,0.0,0.0,0.0,95
6,1696242836593,-0.9980469,0.055664062,-0.10058594,-1.0625,-0.5,0.28125,0.0,0.0,0.0,96
7,1696242836633,-1.0019531,0.05078125,-0.111328125,-0.5,0.125,0.15625,0.0,0.0,0.0,97
8,1696242836673,-0.99902344,0.049804688,-0.09863281,-0.875,0.1875,-0.1875,0.0,0.0,0.0,98
9,1696242836713,-1.0068359,0.051757812,-0.09667969,-0.1875,-0.1875,-0.3125,0.0,0.0,0.0,99
10,1696242836753,-1.0048828,0.048828125,-0.11035156,-0.0625,-0.0625,0.03125,0.0,0.0,0.0,100
11,1696242836793,-1.0117188,0.055664062,-0.087890625,0.0625,0.1875,-0.0625,0.0,0.0,0.0,101
12,1696242836833,-1.0,0.056640625,-0.10546875,0.21875,-0.125,-0.25,0.0,0.0,0.0,102
13,1696242836873,-1.0058594,0.05078125,-0.111328125,-0.375,-0.25,-0.0625,0.0,0.0,0.0,103
14,1696242836913,-0.99902344,0.048828125,-0.09667969,0.46875,-0.3125,0.0,-103.8125,35.875,-66.375,104
15,1696242836953,-0.99121094,0.05078125,-0.095703125,0.28125,-0.1875,-0.1875,0.0,0.0,0.0,105
16,1696242836993,-1.0039062,0.060546875,-0.103515625,0.46875,0.25,0.15625,0.0,0.0,0.0,106
17,1696242837033,-1.0019531,0.055664062,-0.095703125,0.34375,0.3125,0.03125,0.0,0.0,0.0,107
18,1696242837073,-1.0078125,0.059570312,-0.10058594,0.0,0.0625,-0.3125,0.0,0.0,0.0,108
19,1696242837113,-1.0048828,0.057617188,-0.10058594,0.34375,-0.0625,-0.125,0.0,0.0,0.0,109
20,1696242837153,-0.9970703,0.051757812,-0.10253906,0.1875,0.25,0.09375,0.0,0.0,0.0,110
21,1696242837193,-1.0048828,0.06640625,-0.111328125,-0.0625,0.3125,-0.1875,0.0,0.0,0.0,111
22,1696242837233,-1.0,0.045898438,-0.107421875,-0.125,0.3125,-0.125,0.0,0.0,0.0,112
23,1696242837273,-1.0039062,0.055664062,-0.09472656,-0.375,0.25,-0.1875,0.0,0.0,0.0,113
24,1696242837313,-1.0078125,0.0546875,-0.1171875,-1.09375,-0.25,-0.25,0.0,0.0,0.0,114
25,1696242837353,-0.9951172,0.051757812,-0.09082031,-0.75,-0.3125,0.0,0.0,0.0,0.0,115
26,1696242837393,-1.0078125,0.0546875,-0.09863281,-1.0625,-0.4375,-0.125,0.0,0.0,0.0,116
27,1696242837433,-0.99609375,0.056640625,-0.10253906,-0.5,-0.4375,0.0,-103.625,36.0625,-66.5,117
28,1696242837473,-1.0,0.0546875,-0.10546875,-0.3125,-0.375,0.09375,0.0,0.0,0.0,118
29,1696242837513,-1.0087891,0.044921875,-0.08300781,-0.0625,-0.4375,0.0,0.0,0.0,0.0,119
30,1696242837553,-1.0087891,0.041992188,-0.10449219,0.46875,-1.03125,-0.0625,0.0,0.0,0.0,120
31,1696242837593,-1.0039062,0.052734375,-0.115234375,0.71875,-0.5,0.03125,0.0,0.0,0.0,121
32,1696242837633,-1.0078125,0.052734375,-0.11230469,0.40625,-0.25,-0.25,0.0,0.0,0.0,122
33,1696242837673,-1.0009766,0.05859375,-0.10449219,0.0,-0.5,0.0,0.0,0.0,0.0,123
34,1696242837713,-1.0019531,0.06640625,-0.099609375,-0.5625,-0.5,0.03125,0.0,0.0,0.0,124
35,1696242837753,-1.0117188,0.064453125,-0.09472656,-0.8125,-0.25,-0.125,0.0,0.0,0.0,125
36,1696242837793,-1.0019531,0.051757812,-0.09277344,-0.3125,-0.375,0.09375,0.0,0.0,0.0,126
37,1696242837833,-0.9980469,0.048828125,-0.08496094,0.21875,-0.125,0.28125,0.0,0.0,0.0,127
38,1696242837873,-1.0068359,0.043945312,-0.11035156,0.1875,-0.25,0.03125,0.0,0.0,0.0,128
39,1696242837913,-1.0117188,0.052734375,-0.09277344,0.40625,-0.4375,0.0,-101.5625,36.9375,-68.125,129
40,1696242837953,-1.0166016,0.053710938,-0.103515625,0.125,-0.3125,0.21875,0.0,0.0,0.0,130
41,1696242837993,-1.0019531,0.049804688,-0.09472656,-0.0625,-0.3125,0.09375,0.0,0.0,0.0,131
42,1696242838033,-1.0019531,0.0546875,-0.09472656,-0.0625,-0.4375,0.15625,0.0,0.0,0.0,132
43,1696242838073,-1.0048828,0.06542969,-0.09277344,0.28125,-0.4375,0.03125,0.0,0.0,0.0,133
44,1696242838113,-1.0019531,0.052734375,-0.095703125,0.40625,-0.3125,0.15625,0.0,0.0,0.0,134
45,1696242838153,-0.9970703,0.06347656,-0.103515625,0.34375,-0.25,0.15625,0.0,0.0,0.0,135
46,1696242838193,-1.0039062,0.056640625,-0.09277344,0.28125,-0.3125,0.0,0.0,0.0,0.0,136
47,1696242838233,-0.9980469,0.055664062,-0.0859375,0.0625,-0.125,-0.125,0.0,0.0,0.0,137
48,1696242838273,-1.0068359,0.060546875,-0.10546875,-0.3125,-0.3125,0.0,0.0,0.0,0.0,138
49,1696242838313,-1.0029297,0.049804688,-0.08984375,-0.125,-0.375,0.03125,0.0,0.0,0.0,139
50,1696242838353,-1.0019531,0.044921875,-0.09667969,-0.0625,-0.1875,0.03125,0.0,0.0,0.0,140
51,1696242838393,-0.99609375,0.060546875,-0.099609375,0.1875,-0.5,0.0,-102.75,35.4375,-67.125,141
52,1696242838433,-0.9970703,0.05078125,-0.09277344,-0.1875,-0.71875,0.09375,0.0,0.0,0.0,142
53,1696242838473,-1.0078125,0.051757812,-0.08984375,0.21875,-0.4375,0.15625,0.0,0.0,0.0,143
54,1696242838513,-1.0,0.05859375,-0.09472656,0.0,-0.53125,0.15625,0.0,0.0,0.0,144
55,1696242838553,-1.0,0.057617188,-0.09472656,0.34375,-0.25,0.40625,0.0,0.0,0.0,145
56,1696242838593,-1.0048828,0.059570312,-0.08886719,-0.25,-0.375,-0.1875,0.0,0.0,0.0,146
57,1696242838633,-0.99902344,0.056640625,-0.08300781,-0.125,-0.53125,0.0,0.0,0.0,0.0,147
58,1696242838673,-1.0009766,0.059570312,-0.10253906,-0.3125,-0.4375,0.03125,0.0,0.0,0.0,148
59,1696242838713,-0.99609375,0.056640625,-0.08984375,0.0,-0.25,0.03125,0.0,0.0,0.0,149
60,1696242838753,-0.99609375,0.05078125,-0.0859375,0.125,-0.25,0.09375,0.0,0.0,0.0,150
61,1696242838793,-1.0058594,0.049804688,-0.095703125,-0.1875,-0.0625,0.03125,0.0,0.0,0.0,151
62,1696242838833,-1.0097656,0.044921875,-0.09765625,0.46875,0.0,0.0,0.0,0.0,0.0,152
63,1696242838873,-1.0087891,0.0546875,-0.10546875,-0.0625,-0.1875,-0.1875,0.0,0.0,0.0,153
64,1696242838913,-1.0048828,0.048828125,-0.09472656,0.34375,0.0,0.09375,-104.375,36.3125,-67.5625,154
65,1696242838953,-1.0029297,0.053710938,-0.08984375,0.28125,0.125,0.15625,0.0,0.0,0.0,155
66,1696242838993,-1.0166016,0.04296875,-0.10253906,0.34375,0.0625,0.0,0.0,0.0,0.0,156
67,1696242839033,-0.9980469,0.057617188,-0.09667969,0.0625,0.0625,0.15625,0.0,0.0,0.0,157
68,1696242839073,-1.0087891,0.059570312,-0.10058594,0.21875,0.0,0.0,0.0,0.0,0.0,158
69,1696242839113,-0.9921875,0.053710938,-0.09667969,-0.0625,-0.1875,0.09375,0.0,0.0,0.0,159
70,1696242839153,-1.0029297,0.041015625,-0.09277344,-0.1875,-0.0625,0.21875,0.0,0.0,0.0,160
71,1696242839193,-1.0019531,0.05078125,-0.08496094,0.78125,0.0625,0.21875,0.0,0.0,0.0,161
72,1696242839233,-0.99902344,0.053710938,-0.10058594,0.46875,0.125,0.28125,0.0,0.0,0.0,162
73,1696242839273,-1.0029297,0.0546875,-0.087890625,0.40625,0.0,0.0,0.0,0.0,0.0,163
74,1696242839313,-1.0019531,0.064453125,-0.1015625,-0.25,-0.3125,0.0,0.0,0.0,0.0,164
75,1696242839353,-1.0087891,0.056640625,-0.091796875,0.125,-0.25,0.03125,0.0,0.0,0.0,165
76,1696242839393,-1.0009766,0.055664062,-0.09765625,0.0,-0.1875,0.09375,-103.9375,36.8125,-65.75,166
77,1696242839433,-1.0117188,0.046875,-0.10644531,0.28125,0.1875,0.03125,0.0,0.0,0.0,167
78,1696242839473,-1.0058594,0.0546875,-0.099609375,0.53125,-0.125,0.0,0.0,0.0,0.0,168
79,1696242839513,-1.0019531,0.052734375,-0.09472656,0.28125,-0.25,0.09375,0.0,0.0,0.0,169
80,1696242839553,-0.9902344,0.064453125,-0.09667969,0.21875,0.0625,0.21875,0.0,0.0,0.0,170
81,1696242839593,-1.0097656,0.06347656,-0.08886719,0.0625,0.25,-0.0625,0.0,0.0,0.0,171
82,1696242839633,-1.0039062,0.052734375,-0.09765625,0.34375,0.0625,0.0,0.0,0.0,0.0,172
83,1696242839673,-1.0,0.060546875,-0.087890625,-0.3125,-0.125,-0.125,0.0,0.0,0.0,173
84,1696242839713,-1.0039062,0.051757812,-0.09375,-0.0625,-0.1875,0.09375,0.0,0.0,0.0,174
85,1696242839753,-1.0029297,0.060546875,-0.10449219,-0.0625,-0.0625,0.09375,0.0,0.0,0.0,175
86,1696242839793,-1.0087891,0.059570312,-0.109375,-0.375,-0.1875,0.0,0.0,0.0,0.0,176
87,1696242839833,-1.0068359,0.053710938,-0.1015625,0.34375,-0.0625,0.21875,0.0,0.0,0.0,177
88,1696242839873,-1.0058594,0.060546875,-0.095703125,-0.0625,-0.375,-0.1875,0.0,0.0,0.0,178
89,1696242839913,-1.0097656,0.046875,-0.09277344,-0.25,-0.25,0.09375,-103.0625,36.625,-66.375,179
90,1696242839953,-1.0039062,0.057617188,-0.095703125,0.21875,0.0,0.34375,0.0,0.0,0.0,180
91,1696242839993,-1.0029297,0.057617188,-0.09863281,0.0,-0.0625,0.0,0.0,0.0,0.0,181
92,1696242840033,-1.0029297,0.055664062,-0.10644531,0.0625,-0.0625,0.03125,0.0,0.0,0.0,182
93,1696242840073,-1.0097656,0.056640625,-0.08984375,0.59375,-0.1875,0.15625,0.0,0.0,0.0,183
94,1696242840113,-1.0048828,0.056640625,-0.09082031,0.40625,-0.1875,0.03125,0.0,0.0,0.0,184
95,1696242840153,-1.0107422,0.048828125,-0.09863281,0.71875,-0.1875,0.03125,0.0,0.0,0.0,185
96,1696242840193,-1.0019531,0.059570312,-0.095703125,0.71875,-0.3125,0.15625,0.0,0.0,0.0,186
97,1696242840233,-1.0009766,0.053710938,-0.09082031,0.46875,-0.0625,0.28125,0.0,0.0,0.0,187
98,1696242840273,-1.0019531,0.06347656,-0.083984375,0.40625,-0.0625,0.15625,0.0,0.0,0.0,188
99,1696242840313,-1.0078125,0.055664062,-0.08105469,0.71875,0.125,0.21875,0.0,0.0,0.0,189
100,1696242840353,-1.0019531,0.056640625,-0.09375,0.59375,-0.0625,0.09375,0.0,0.0,0.0,190
101,1696242840393,-1.0029297,0.060546875,-0.10839844,0.46875,-0.125,0.03125,-104.375,36.8125,-66.8125,191
102,1696242840433,-0.99609375,0.061523438,-0.08105469,0.125,0.0,0.03125,0.0,0.0,0.0,192
103,1696242840473,-0.9970703,0.06933594,-0.099609375,-0.0625,-0.0625,-0.0625,0.0,0.0,0.0,193
104,1696242840513,-1.0029297,0.0625,-0.09667969,-0.375,-0.125,0.0,0.0,0.0,0.0,194
105,1696242840553,-0.9951172,0.056640625,-0.10644531,0.0,0.125,-0.0625,0.0,0.0,0.0,195
106,1696242840593,-1.0019531,0.064453125,-0.08984375,-0.0625,-0.1875,-0.1875,0.0,0.0,0.0,196
107,1696242840633,-1.0058594,0.059570312,-0.08691406,0.0625,-0.0625,-0.1875,0.0,0.0,0.0,197
108,1696242840673,-1.0048828,0.052734375,-0.09082031,0.53125,0.1875,0.09375,0.0,0.0,0.0,198
109,1696242840713,-0.9980469,0.057617188,-0.09667969,0.21875,-0.0625,-0.25,0.0,0.0,0.0,199
110,1696242840753,-1.0019531,0.06933594,-0.11328125,0.34375,-0.1875,-0.25,0.0,0.0,0.0,200
111,1696242840793,-1.0029297,0.056640625,-0.08496094,-0.375,-0.1875,-0.0625,0.0,0.0,0.0,201
112,1696242840833,-1.0048828,0.059570312,-0.10058594,-0.4375,0.0,-0.25,0.0,0.0,0.0,202
113,1696242840873,-1.0087891,0.053710938,-0.09472656,-0.0625,-0.1875,-0.25,0.0,0.0,0.0,203
114,1696242840913,-1.0019531,0.05859375,-0.09863281,-0.3125,-0.3125,-0.375,-103.9375,35.3125,-65.4375,204
115,1696242840953,-0.9980469,0.059570312,-0.087890625,0.0625,0.25,0.0,0.0,0.0,0.0,205
116,1696242840993,-1.0058594,0.059570312,-0.10839844,0.53125,0.25,-0.03125,0.0,0.0,0.0,206
117,1696242841033,-1.0019531,0.0546875,-0.076171875,-0.4375,-0.0625,-0.53125,0.0,0.0,0.0,207
118,1696242841073,-1.0,0.064453125,-0.09375,-0.25,-0.125,-0.34375,0.0,0.0,0.0,208
119,1696242841113,-1.0019531,0.057617188,-0.09667969,-0.4375,0.0625,-0.21875,0.0,0.0,0.0,209
120,1696242841153,-1.0068359,0.059570312,-0.091796875,-0.5,0.25,-0.34375,0.0,0.0,0.0,210
121,1696242841193,-1.0029297,0.055664062,-0.09765625,-0.125,0.1875,-0.34375,0.0,0.0,0.0,211
122,1696242841233,-1.0,0.055664062,-0.087890625,-0.25,-0.1875,-0.46875,0.0,0.0,0.0,212
123,1696242841273,-1.0029297,0.047851562,-0.08984375,-0.8125,-0.34375,-0.40625,0.0,0.0,0.0,213
124,1696242841313,-0.99609375,0.0546875,-0.1015625,0.0,0.0625,-0.34375,0.0,0.0,0.0,214
125,1696242841353,-1.0009766,0.059570312,-0.10839844,-0.625,-0.3125,-0.46875,0.0,0.0,0.0,215
126,1696242841393,-0.99902344,0.048828125,-0.08203125,-0.6875,-0.25,-0.46875,-102.875,36.8125,-66.5,216
127,1696242841433,-1.0,0.048828125,-0.0859375,-0.9375,-0.59375,-0.03125,0.0,0.0,0.0,217
128,1696242841473,-1.0029297,0.05078125,-0.08105469,-1.0625,-0.96875,0.09375,0.0,0.0,0.0,218
129,1696242841513,-1.0029297,0.05078125,-0.1015625,-0.125,-0.46875,-0.59375,0.0,0.0,0.0,219
130,1696242841553,-0.99902344,0.05859375,-0.0859375,0.53125,-0.65625,-0.53125,0.0,0.0,0.0,220
131,1696242841593,-1.0009766,0.0625,-0.09375,0.53125,-0.53125,-0.09375,0.0,0.0,0.0,221
132,1696242841633,-1.0078125,0.052734375,-0.09472656,-0.0625,-0.0625,0.03125,0.0,0.0,0.0,222
133,1696242841673,-1.0019531,0.05859375,-0.09472656,-0.375,0.0625,-0.15625,0.0,0.0,0.0,223
134,1696242841713,-1.0107422,0.059570312,-0.09375,-0.0625,0.0625,0.15625,0.0,0.0,0.0,224
135,1696242841753,-1.0058594,0.059570312,-0.0859375,0.1875,-0.125,-0.03125,0.0,0.0,0.0,225
136,1696242841793,-1.0039062,0.051757812,-0.10546875,-0.75,-0.3125,-0.15625,0.0,0.0,0.0,226
137,1696242841833,-0.9980469,0.051757812,-0.09375,0.1875,-0.3125,-0.03125,0.0,0.0,0.0,227
138,1696242841873,-1.0029297,0.05078125,-0.087890625,0.1875,0.125,0.09375,0.0,0.0,0.0,228
139,1696242841913,-1.0087891,0.06347656,-0.09277344,-0.25,-0.1875,-0.03125,-103.625,36.0625,-66.8125,229
140,1696242841953,-1.0009766,0.055664062,-0.08496094,-0.5,-0.40625,0.15625,0.0,0.0,0.0,230
141,1696242841993,-1.0107422,0.055664062,-0.09082031,-0.125,-0.3125,0.03125,0.0,0.0,0.0,231
142,1696242842033,-1.0029297,0.055664062,-0.08984375,-0.125,-0.34375,0.21875,0.0,0.0,0.0,232
143,1696242842073,-1.0,0.05078125,-0.1015625,0.0625,-0.125,0.15625,0.0,0.0,0.0,233
144,1696242842113,-1.0029297,0.056640625,-0.080078125,0.28125,-0.3125,0.46875,0.0,0.0,0.0,234
145,1696242842153,-1.0039062,0.057617188,-0.08886719,0.53125,-0.125,0.40625,0.0,0.0,0.0,235
146,1696242842193,-1.0068359,0.051757812,-0.08105469,0.125,0.1875,0.03125,0.0,0.0,0.0,236
147,1696242842233,-1.0117188,0.060546875,-0.08203125,-0.0625,0.375,0.15625,0.0,0.0,0.0,237
148,1696242842273,-0.99902344,0.06542969,-0.09765625,-0.75,0.1875,0.15625,0.0,0.0,0.0,238
149,1696242842313,-1.0,0.047851562,-0.09765625,-0.5625,0.375,0.28125,0.0,0.0,0.0,239
150,1696242842353,-1.0136719,0.051757812,-0.08984375,-0.625,0.375,0.03125,0.0,0.0,0.0,240
151,1696242842393,-0.9980469,0.056640625,-0.09082031,-0.375,0.0,0.03125,-103.1875,36.8125,-67.25,241
152,1696242842433,-1.0048828,0.049804688,-0.11035156,0.125,0.0625,0.15625,0.0,0.0,0.0,242
153,1696242842473,-1.0078125,0.05859375,-0.08691406,-0.1875,0.125,0.21875,0.0,0.0,0.0,243
154,1696242842513,-1.0058594,0.052734375,-0.08886719,0.34375,0.6875,0.34375,0.0,0.0,0.0,244
155,1696242842553,-1.0048828,0.0625,-0.08984375,0.125,0.5625,0.34375,0.0,0.0,0.0,245
156,1696242842593,-1.0019531,0.06738281,-0.080078125,-0.1875,0.25,0.15625,0.0,0.0,0.0,246
157,1696242842633,-1.0039062,0.059570312,-0.0859375,0.21875,0.1875,0.28125,0.0,0.0,0.0,247
158,1696242842673,-1.0029297,0.05859375,-0.0859375,0.0,0.25,0.21875,0.0,0.0,0.0,248
159,1696242842713,-0.9951172,0.055664062,-0.09863281,0.21875,0.125,0.15625,0.0,0.0,0.0,249
160,1696242842753,-1.0048828,0.06933594,-0.10253906,-0.1875,0.125,0.28125,0.0,0.0,0.0,250
161,1696242842793,-1.0068359,0.057617188,-0.09667969,-0.0625,0.4375,0.09375,0.0,0.0,0.0,251
162,1696242842833,-1.0048828,0.06347656,-0.11035156,-0.5,0.5,0.09375,0.0,0.0,0.0,252
163,1696242842873,-1.0078125,0.059570312,-0.10546875,-0.25,0.3125,0.15625,0.0,0.0,0.0,253
164,1696242842913,-1.0019531,0.059570312,-0.09082031,0.0625,0.125,0.03125,-103.9375,37.5625,-66.5,254
165,1696242842953,-1.0058594,0.06542969,-0.078125,-0.1875,0.0625,0.03125,0.0,0.0,0.0,255
166,1696242842993,-1.0068359,0.056640625,-0.08496094,-0.25,0.3125,0.15625,0.0,0.0,0.0,256
167,1696242843033,-1.0185547,0.0625,-0.08300781,0.0625,0.25,0.28125,0.0,0.0,0.0,257
168,1696242843073,-1.0126953,0.055664062,-0.09082031,-0.3125,0.375,-0.03125,0.0,0.0,0.0,258
169,1696242843113,-0.9970703,0.055664062,-0.087890625,-0.25,0.125,-0.03125,0.0,0.0,0.0,259
170,1696242843153,-0.9951172,0.06542969,-0.10058594,0.0625,0.125,0.03125,0.0,0.0,0.0,260
171,1696242843193,-1.0078125,0.05078125,-0.09277344,-0.375,0.125,0.03125,0.0,0.0,0.0,261
172,1696242843233,-1.0039062,0.06542969,-0.09472656,-0.125,0.125,-0.03125,0.0,0.0,0.0,262
173,1696242843273,-1.0029297,0.0546875,-0.09863281,0.0,0.125,-0.09375,0.0,0.0,0.0,263
174,1696242843313,-1.0058594,0.068359375,-0.08496094,0.0,0.0,-0.09375,0.0,0.0,0.0,264
175,1696242843353,-1.0039062,0.06738281,-0.10253906,0.0,-0.0625,-0.09375,0.0,0.0,0.0,265
176,1696242843393,-1.0009766,0.059570312,-0.09863281,-0.25,-0.0625,-0.09375,-104.125,38.75,-66.625,266
177,1696242843433,-1.0048828,0.055664062,-0.095703125,-0.75,0.0,-0.28125,0.0,0.0,0.0,267
178,1696242843473,-1.0166016,0.052734375,-0.09472656,-0.1875,0.25,-0.03125,0.0,0.0,0.0,268
179,1696242843513,-1.0048828,0.056640625,-0.095703125,-0.3125,-0.34375,-0.15625,0.0,0.0,0.0,269
180,1696242843553,-1.0039062,0.0625,-0.1015625,-0.375,-0.34375,-0.28125,0.0,0.0,0.0,270
181,1696242843593,-1.0019531,0.057617188,-0.091796875,0.0,-0.1875,-0.21875,0.0,0.0,0.0,271
182,1696242843633,-0.99121094,0.064453125,-0.099609375,-1.15625,-0.40625,-0.34375,0.0,0.0,0.0,272
183,1696242843673,-0.9902344,0.059570312,-0.1015625,-0.4375,-0.3125,-0.09375,0.0,0.0,0.0,273
184,1696242843713,-1.0029297,0.0546875,-0.08691406,-0.25,-0.1875,-0.03125,0.0,0.0,0.0,274
185,1696242843753,-1.0019531,0.059570312,-0.09277344,-0.4375,-0.1875,-0.40625,0.0,0.0,0.0,275
186,1696242843793,-1.0009766,0.05078125,-0.09863281,0.0625,-0.40625,-0.21875,0.0,0.0,0.0,276
187,1696242843833,-1.0087891,0.051757812,-0.087890625,0.40625,-0.125,-0.15625,0.0,0.0,0.0,277
188,1696242843873,-1.0039062,0.057617188,-0.08691406,-0.375,-0.34375,-0.34375,0.0,0.0,0.0,278
189,1696242843913,-1.0058594,0.05859375,-0.083984375,-0.1875,-0.53125,-0.46875,-103.625,36.3125,-66.5,279
190,1696242843953,-1.0009766,0.0546875,-0.10058594,-0.75,-0.65625,-0.34375,0.0,0.0,0.0,280
191,1696242843993,-1.0058594,0.06347656,-0.10058594,-0.25,-0.40625,-0.28125,0.0,0.0,0.0,281
192,1696242844033,-1.0009766,0.059570312,-0.0859375,-0.25,-0.3125,-0.40625,0.0,0.0,0.0,282
193,1696242844073,-1.0107422,0.0546875,-0.08984375,-0.25,-0.40625,-0.15625,0.0,0.0,0.0,283
194,1696242844113,-1.0087891,0.055664062,-0.09082031,-0.125,-0.59375,-0.15625,0.0,0.0,0.0,284
195,1696242844153,-1.0039062,0.055664062,-0.09667969,-0.25,-0.53125,-0.40625,0.0,0.0,0.0,285
196,1696242844193,-0.99902344,0.060546875,-0.08984375,-0.4375,-0.59375,-0.28125,0.0,0.0,0.0,286
197,1696242844233,-1.0009766,0.0546875,-0.095703125,-0.75,-0.65625,-0.34375,0.0,0.0,0.0,287
198,1696242844273,-1.0009766,0.057617188,-0.078125,-0.75,-0.59375,-0.34375,0.0,0.0,0.0,288
199,1696242844313,-1.0068359,0.046875,-0.08300781,-0.625,-0.46875,-0.21875,0.0,0.0,0.0,289
200,1696242844353,-1.0058594,0.05859375,-0.07421875,-0.3125,-0.34375,-0.28125,0.0,0.0,0.0,290
201,1696242844393,-1.0126953,0.055664062,-0.07324219,-0.1875,-0.65625,-0.34375,-103.375,35.875,-66.0625,291
202,1696242844433,-0.9980469,0.052734375,-0.0859375,-0.3125,-1.15625,-0.15625,0.0,0.0,0.0,292
203,1696242844473,-1.0078125,0.049804688,-0.06933594,-0.1875,-1.09375,-0.09375,0.0,0.0,0.0,293
204,1696242844513,-0.99902344,0.049804688,-0.09375,-0.25,-0.90625,-0.03125,0.0,0.0,0.0,294
205,1696242844553,-1.0068359,0.056640625,-0.09667969,-0.0625,-0.96875,0.21875,0.0,0.0,0.0,295
206,1696242844593,-1.0068359,0.0546875,-0.08984375,-0.1875,-1.15625,0.09375,0.0,0.0,0.0,296
207,1696242844633,-1.0058594,0.05078125,-0.091796875,-1.21875,-0.46875,0.15625,0.0,0.0,0.0,297
208,1696242844673,-1.0126953,0.041992188,-0.08203125,-0.25,-0.0625,0.09375,0.0,0.0,0.0,298
209,1696242844713,-1.0029297,0.051757812,-0.08300781,-0.3125,-0.3125,0.09375,0.0,0.0,0.0,299
210,1696242844753,-1.0078125,0.049804688,-0.06542969,-0.1875,-0.1875,0.03125,0.0,0.0,0.0,300
211,1696242844793,-1.0068359,0.049804688,-0.08300781,-0.5,-0.3125,-0.21875,0.0,0.0,0.0,301
212,1696242844833,-1.0078125,0.053710938,-0.08984375,0.0625,-0.1875,-0.09375,0.0,0.0,0.0,302
213,1696242844873,-0.9980469,0.052734375,-0.07519531,0.0,0.0,-0.03125,0.0,0.0,0.0,303
214,1696242844913,-1.0009766,0.048828125,-0.099609375,-0.25,0.0625,0.03125,-103.1875,36.8125,-66.1875,304
215,1696242844953,-1.0107422,0.049804688,-0.07910156,-0.3125,0.25,0.09375,0.0,0.0,0.0,305
216,1696242844993,-1.0058594,0.059570312,-0.0859375,-0.625,0.125,-0.03125,0.0,0.0,0.0,306
217,1696242845033,-1.0068359,0.0546875,-0.083984375,-0.4375,0.1875,0.03125,0.0,0.0,0.0,307
218,1696242845073,-1.0039062,0.05078125,-0.07421875,-0.5,0.25,0.21875,0.0,0.0,0.0,308
219,1696242845113,-1.0019531,0.044921875,-0.091796875,0.1875,0.8125,0.34375,0.0,0.0,0.0,309
220,1696242845153,-1.0107422,0.0546875,-0.08203125,-0.6875,0.375,-0.15625,0.0,0.0,0.0,310
221,1696242845193,-1.0068359,0.051757812,-0.076171875,-0.4375,0.25,0.15625,0.0,0.0,0.0,311
222,1696242845233,-1.0087891,0.048828125,-0.08203125,-0.3125,0.125,0.21875,0.0,0.0,0.0,312
223,1696242845273,-0.9970703,0.055664062,-0.07714844,-0.1875,0.125,-0.03125,0.0,0.0,0.0,313
224,1696242845313,-1.0019531,0.064453125,-0.08496094,-0.0625,0.125,0.03125,0.0,0.0,0.0,314
225,1696242845353,-1.0029297,0.0546875,-0.08203125,-0.25,0.0625,0.03125,0.0,0.0,0.0,315
226,1696242845393,-1.0058594,0.045898438,-0.095703125,0.28125,0.25,0.28125,-102.3125,35.875,-65.625,316
227,1696242845433,-1.0009766,0.0546875,-0.08105469,-0.125,0.625,-0.09375,0.0,0.0,0.0,317
228,1696242845473,-1.0078125,0.0546875,-0.07519531,-0.125,0.375,-0.09375,0.0,0.0,0.0,318
229,1696242845513,-1.0097656,0.057617188,-0.056640625,-0.125,0.0,-0.21875,0.0,0.0,0.0,319
230,1696242845553,-1.0117188,0.048828125,-0.059570312,-0.0625,-0.125,-0.28125,0.0,0.0,0.0,320
231,1696242845593,-1.0,0.06347656,-0.07910156,0.59375,-0.1875,-0.21875,0.0,0.0,0.0,321
232,1696242845633,-1.0009766,0.052734375,-0.0859375,0.34375,0.125,-0.09375,0.0,0.0,0.0,322
233,1696242845673,-1.0078125,0.060546875,-0.08691406,0.34375,0.375,-0.03125,0.0,0.0,0.0,323
234,1696242845713,-1.0029297,0.06542969,-0.08203125,0.0625,0.25,-0.15625,0.0,0.0,0.0,324
235,1696242845753,-1.0087891,0.05078125,-0.08496094,-0.375,0.25,-0.09375,0.0,0.0,0.0,325
236,1696242845793,-1.0097656,0.0546875,-0.080078125,-0.375,0.25,0.03125,0.0,0.0,0.0,326
237,1696242845833,-0.99902344,0.0546875,-0.09277344,-0.0625,0.6875,-0.03125,0.0,0.0,0.0,327
238,1696242845873,-1.0058594,0.0546875,-0.087890625,0.46875,0.5,0.15625,0.0,0.0,0.0,328
239,1696242845913,-0.9970703,0.049804688,-0.080078125,-0.75,0.25,-0.15625,-103.8125,35.875,-65.625,329
240,1696242845953,-1.0117188,0.048828125,-0.07910156,-0.4375,0.25,-0.15625,0.0,0.0,0.0,330
241,1696242845993,-0.99902344,0.051757812,-0.08984375,-0.375,0.1875,-0.09375,0.0,0.0,0.0,331
242,1696242846033,-1.0068359,0.047851562,-0.07324219,-0.25,0.375,-0.09375,0.0,0.0,0.0,332
243,1696242846073,-1.0146484,0.056640625,-0.08984375,-0.9375,-0.34375,0.28125,0.0,0.0,0.0,333
244,1696242846113,-0.99902344,0.046875,-0.08105469,-0.375,-0.46875,-0.03125,0.0,0.0,0.0,334
245,1696242846153,-1.0019531,0.051757812,-0.08984375,0.53125,0.25,-0.03125,0.0,0.0,0.0,335
246,1696242846193,-1.0087891,0.047851562,-0.09082031,0.71875,0.5625,0.40625,0.0,0.0,0.0,336
247,1696242846233,-1.0117188,0.0546875,-0.09082031,0.34375,0.5,0.46875,0.0,0.0,0.0,337
248,1696242846273,-1.0029297,0.05078125,-0.08300781,0.1875,0.125,0.53125,0.0,0.0,0.0,338
249,1696242846313,-0.99902344,0.041015625,-0.07714844,-0.375,0.0625,0.15625,0.0,0.0,0.0,339
250,1696242846353,-1.0,0.041992188,-0.087890625,-0.125,0.1875,0.34375,0.0,0.0,0.0,340
251,1696242846393,-1.0058594,0.046875,-0.087890625,0.0,0.4375,0.15625,-104.5625,37.375,-67.125,341
252,1696242846433,-0.99902344,0.0546875,-0.07910156,0.0625,0.5625,0.21875,0.0,0.0,0.0,342
253,1696242846473,-1.0019531,0.055664062,-0.08496094,-0.1875,0.1875,0.03125,0.0,0.0,0.0,343
254,1696242846513,-1.0009766,0.057617188,-0.09277344,0.0,0.125,0.09375,0.0,0.0,0.0,344
255,1696242846553,-1.0087891,0.049804688,-0.083984375,-0.25,-0.1875,0.15625,0.0,0.0,0.0,345
256,1696242846593,-1.0097656,0.0546875,-0.0703125,0.90625,-1.03125,0.15625,0.0,0.0,0.0,346
257,1696242846633,-0.9951172,0.051757812,-0.08496094,0.59375,-1.03125,0.03125,0.0,0.0,0.0,347
258,1696242846673,-0.9951172,0.060546875,-0.08984375,-0.3125,-0.3125,-0.21875,0.0,0.0,0.0,348
259,1696242846713,-1.0126953,0.056640625,-0.080078125,-0.25,0.4375,0.28125,0.0,0.0,0.0,349
260,1696242846753,-1.0009766,0.06347656,-0.09277344,-0.875,0.1875,0.34375,0.0,0.0,0.0,350
261,1696242846793,-1.0058594,0.049804688,-0.08496094,-0.875,0.25,0.15625,0.0,0.0,0.0,351
262,1696242846833,-1.0019531,0.0546875,-0.087890625,-0.625,0.25,-0.03125,0.0,0.0,0.0,352
263,1696242846873,-1.0048828,0.05859375,-0.08984375,0.0625,0.1875,0.09375,0.0,0.0,0.0,353
264,1696242846913,-0.99902344,0.053710938,-0.08984375,0.125,0.4375,0.40625,-103.8125,35.875,-67.6875,354
265,1696242846953,-1.0058594,0.051757812,-0.08496094,-0.0625,0.3125,0.15625,0.0,0.0,0.0,355
266,1696242846993,-1.0068359,0.057617188,-0.08984375,-0.1875,0.25,0.34375,0.0,0.0,0.0,356
267,1696242847033,-1.0058594,0.045898438,-0.08984375,-0.1875,0.4375,0.34375,0.0,0.0,0.0,357
268,1696242847073,-1.0009766,0.051757812,-0.083984375,-0.3125,0.1875,0.21875,0.0,0.0,0.0,358
269,1696242847113,-1.0039062,0.052734375,-0.076171875,-0.3125,-0.0625,0.09375,0.0,0.0,0.0,359
270,1696242847153,-1.0048828,0.0546875,-0.09667969,-0.375,0.0625,0.21875,0.0,0.0,0.0,360
271,1696242847193,-1.0009766,0.0625,-0.08496094,-0.4375,0.0,0.21875,0.0,0.0,0.0,361
272,1696242847233,-1.0107422,0.053710938,-0.080078125,-0.6875,-0.1875,0.03125,0.0,0.0,0.0,362
273,1696242847273,-1.0029297,0.061523438,-0.072265625,-0.75,-0.0625,0.34375,0.0,0.0,0.0,363
274,1696242847313,-1.0048828,0.047851562,-0.078125,-0.5,0.125,0.59375,0.0,0.0,0.0,364
275,1696242847353,-1.0058594,0.05859375,-0.09277344,-0.4375,0.125,0.40625,0.0,0.0,0.0,365
276,1696242847393,-1.0117188,0.053710938,-0.07910156,-0.5,-0.0625,0.15625,-102.3125,37.6875,-66.375,366
277,1696242847433,-1.0029297,0.057617188,-0.08886719,-0.5625,-0.3125,0.21875,0.0,0.0,0.0,367
278,1696242847473,-0.9921875,0.057617188,-0.080078125,-0.8125,-0.53125,0.28125,0.0,0.0,0.0,368
279,1696242847513,-1.0,0.056640625,-0.076171875,-0.25,-0.1875,0.34375,0.0,0.0,0.0,369
280,1696242847553,-1.0009766,0.053710938,-0.080078125,-0.1875,-0.1875,0.21875,0.0,0.0,0.0,370
281,1696242847593,-1.0009766,0.0625,-0.072265625,-0.1875,-0.1875,0.53125,0.0,0.0,0.0,371
282,1696242847633,-1.0039062,0.051757812,-0.07128906,0.0,-0.125,0.34375,0.0,0.0,0.0,372
283,1696242847673,-1.0068359,0.064453125,-0.08105469,-0.3125,-0.125,-0.03125,0.0,0.0,0.0,373
284,1696242847713,-1.0048828,0.064453125,-0.06542969,-0.25,0.0,0.34375,0.0,0.0,0.0,374
285,1696242847753,-0.99609375,0.049804688,-0.087890625,0.0,0.0,0.21875,0.0,0.0,0.0,375
286,1696242847793,-1.0039062,0.046875,-0.07128906,-0.25,-0.0625,0.15625,0.0,0.0,0.0,376
287,1696242847833,-0.99902344,0.05078125,-0.087890625,0.34375,0.1875,0.28125,0.0,0.0,0.0,377
288,1696242847873,-1.0058594,0.051757812,-0.080078125,-0.125,0.0625,0.28125,0.0,0.0,0.0,378
289,1696242847913,-0.99316406,0.048828125,-0.080078125,-0.0625,0.0,0.34375,-104.375,36.3125,-65.75,379
290,1696242847953,-1.0097656,0.060546875,-0.078125,-0.3125,-0.0625,0.28125,0.0,0.0,0.0,380
291,1696242847993,-1.0039062,0.0546875,-0.072265625,-0.375,-0.125,0.28125,0.0,0.0,0.0,381
292,1696242848033,-1.0019531,0.053710938,-0.07910156,-0.125,0.25,0.34375,0.0,0.0,0.0,382
293,1696242848073,-1.0107422,0.053710938,-0.087890625,-0.25,0.125,-0.03125,0.0,0.0,0.0,383
294,1696242848113,-1.0078125,0.0546875,-0.078125,-0.25,0.0,0.09375,0.0,0.0,0.0,384
295,1696242848153,-1.0058594,0.060546875,-0.068359375,-0.375,-0.125,0.15625,0.0,0.0,0.0,385
296,1696242848193,-1.0,0.053710938,-0.083984375,-0.1875,0.0625,0.21875,0.0,0.0,0.0,386
297,1696242848233,-1.0,0.052734375,-0.07910156,0.0,0.25,0.09375,0.0,0.0,0.0,387
298,1696242848273,-0.9980469,0.053710938,-0.07714844,0.90625,0.5,0.46875,0.0,0.0,0.0,388
299,1696242848313,-1.0078125,0.060546875,-0.076171875,0.59375,0.4375,0.40625,0.0,0.0,0.0,389
300,1696242848353,-1.0078125,0.055664062,-0.07421875,0.0,0.0625,0.03125,0.0,0.0,0.0,390
301,1696242848393,-0.99316406,0.057617188,-0.08300781,-0.375,0.0,0.09375,-104.6875,35.0,-66.8125,391
302,1696242848433,-1.0117188,0.05859375,-0.06933594,-0.6875,-0.1875,0.21875,0.0,0.0,0.0,392
303,1696242848473,-0.9951172,0.06347656,-0.083984375,-0.9375,-0.1875,0.15625,0.0,0.0,0.0,393
304,1696242848513,-1.0009766,0.064453125,-0.08300781,-0.5625,-0.1875,0.28125,0.0,0.0,0.0,394
305,1696242848553,-1.0029297,0.059570312,-0.07324219,-0.25,-0.25,0.03125,0.0,0.0,0.0,395
306,1696242848593,-1.0058594,0.06347656,-0.08105469,0.0,0.125,0.28125,0.0,0.0,0.0,396
307,1696242848633,-0.99902344,0.060546875,-0.07519531,0.78125,0.4375,0.65625,0.0,0.0,0.0,397
308,1696242848673,-1.0039062,0.0625,-0.083984375,0.53125,0.25,0.34375,0.0,0.0,0.0,398
309,1696242848713,-1.0039062,0.057617188,-0.07519531,0.1875,0.1875,0.28125,0.0,0.0,0.0,399
310,1696242848753,-1.0009766,0.052734375,-0.07910156,-0.125,0.1875,0.09375,0.0,0.0,0.0,400
311,1696242848793,-1.0039062,0.060546875,-0.08496094,0.1875,0.1875,0.34375,0.0,0.0,0.0,401
312,1696242848833,-1.0087891,0.0625,-0.0703125,0.1875,0.125,-0.03125,0.0,0.0,0.0,402
313,1696242848873,-0.99902344,0.060546875,-0.08496094,0.125,0.0625,0.21875,0.0,0.0,0.0,403
314,1696242848913,-1.0048828,0.055664062,-0.07324219,-0.0625,0.0625,0.21875,-103.0625,35.125,-65.3125,404
315,1696242848953,-1.0,0.056640625,-0.07910156,-0.375,0.125,0.03125,0.0,0.0,0.0,405
316,1696242848993,-1.0068359,0.051757812,-0.072265625,0.0,0.0625,0.03125,0.0,0.0,0.0,406
317,1696242849033,-1.0048828,0.056640625,-0.07421875,-0.0625,-0.0625,-0.03125,0.0,0.0,0.0,407
318,1696242849073,-1.0048828,0.051757812,-0.080078125,-0.1875,0.25,0.15625,0.0,0.0,0.0,408
319,1696242849113,-0.9980469,0.0703125,-0.07910156,0.0,0.4375,0.03125,0.0,0.0,0.0,409
320,1696242849153,-0.99902344,0.051757812,-0.08105469,0.0,0.0625,-0.03125,0.0,0.0,0.0,410
321,1696242849193,-0.9980469,0.05859375,-0.078125,-0.6875,-0.1875,-0.09375,0.0,0.0,0.0,411
322,1696242849233,-0.99902344,0.0625,-0.064453125,-0.1875,0.1875,0.15625,0.0,0.0,0.0,412
323,1696242849273,-1.0019531,0.059570312,-0.06933594,0.1875,-0.0625,0.21875,0.0,0.0,0.0,413
324,1696242849313,-1.0019531,0.055664062,-0.080078125,0.0625,0.1875,-0.03125,0.0,0.0,0.0,414
325,1696242849353,-1.0068359,0.05859375,-0.078125,-0.0625,0.1875,-0.03125,0.0,0.0,0.0,415
326,1696242849393,-1.0039062,0.061523438,-0.06933594,-0.125,0.0,0.15625,-104.375,36.8125,-66.5,416
327,1696242849433,-1.0029297,0.0546875,-0.07128906,-0.4375,0.0,-0.03125,0.0,0.0,0.0,417
328,1696242849473,-1.0,0.06347656,-0.08203125,-1.0,0.125,0.03125,0.0,0.0,0.0,418
329,1696242849513,-1.0097656,0.056640625,-0.06542969,-0.625,-0.0625,-0.03125,0.0,0.0,0.0,419
330,1696242849553,-1.0009766,0.061523438,-0.078125,-0.6875,-0.0625,0.03125,0.0,0.0,0.0,420
331,1696242849593,-1.0068359,0.048828125,-0.0703125,-0.25,-0.1875,-0.15625,0.0,0.0,0.0,421
332,1696242849633,-1.0048828,0.053710938,-0.076171875,-0.375,-0.0625,0.09375,0.0,0.0,0.0,422
333,1696242849673,-0.99902344,0.06738281,-0.08300781,-0.1875,0.25,0.03125,0.0,0.0,0.0,423
334,1696242849713,-1.0097656,0.060546875,-0.08984375,-0.1875,0.25,0.03125,0.0,0.0,0.0,424
335,1696242849753,-1.0019531,0.056640625,-0.07324219,-0.1875,0.125,0.15625,0.0,0.0,0.0,425
336,1696242849793,-1.0009766,0.056640625,-0.068359375,-0.375,-0.125,0.28125,0.0,0.0,0.0,426
337,1696242849833,-1.0019531,0.056640625,-0.0859375,-0.3125,0.0625,0.03125,0.0,0.0,0.0,427
338,1696242849873,-1.0029297,0.057617188,-0.06347656,-0.0625,0.0,0.09375,0.0,0.0,0.0,428
339,1696242849913,-1.0068359,0.060546875,-0.07519531,0.1875,0.3125,0.09375,-102.4375,36.3125,-68.625,429
340,1696242849953,-1.0078125,0.0625,-0.08691406,-0.25,0.0,0.03125,0.0,0.0,0.0,430
341,1696242849993,-1.0009766,0.052734375,-0.06933594,-0.1875,0.0,-0.09375,0.0,0.0,0.0,431
342,1696242850033,-1.0078125,0.047851562,-0.091796875,0.59375,-0.09375,-0.09375,0.0,0.0,0.0,432
343,1696242850073,-1.0029297,0.0546875,-0.080078125,0.625,-0.09375,0.09375,0.0,0.0,0.0,433
344,1696242850113,-1.0019531,0.053710938,-0.08105469,0.21875,0.40625,0.25,0.0,0.0,0.0,434
345,1696242850153,-1.0078125,0.047851562,-0.07519531,0.53125,0.40625,0.03125,0.0,0.0,0.0,435
346,1696242850193,-1.0107422,0.06738281,-0.076171875,-0.21875,-0.03125,-0.09375,0.0,0.0,0.0,436
347,1696242850233,-1.0039062,0.05859375,-0.07519531,-0.6875,-0.15625,-0.09375,0.0,0.0,0.0,437
348,1696242850273,-1.0029297,0.059570312,-0.068359375,-0.28125,-0.15625,-0.03125,0.0,0.0,0.0,438
349,1696242850313,-1.0087891,0.0625,-0.07421875,-0.46875,0.09375,-0.09375,0.0,0.0,0.0,439
350,1696242850353,-1.0048828,0.05859375,-0.08105469,-0.03125,0.21875,-0.03125,0.0,0.0,0.0,440
351,1696242850393,-0.99316406,0.05078125,-0.08203125,-0.09375,-0.09375,-0.09375,-102.75,37.6875,-66.625,441
352,1696242850433,-1.0019531,0.055664062,-0.07421875,-0.28125,0.09375,-0.15625,0.0,0.0,0.0,442
353,1696242850473,-1.0068359,0.057617188,-0.07910156,-0.28125,0.15625,-0.15625,0.0,0.0,0.0,443
354,1696242850513,-1.0048828,0.05859375,-0.06933594,-0.21875,-0.03125,-0.15625,0.0,0.0,0.0,444
355,1696242850553,-1.0107422,0.055664062,-0.072265625,-0.09375,-0.09375,-0.15625,0.0,0.0,0.0,445
356,1696242850593,-1.0009766,0.05078125,-0.06933594,-0.59375,-0.09375,-0.09375,0.0,0.0,0.0,446
357,1696242850633,-1.0078125,0.056640625,-0.080078125,0.40625,0.28125,-0.09375,0.0,0.0,0.0,447
358,1696242850673,-1.0126953,0.053710938,-0.08300781,-0.03125,0.15625,-0.03125,0.0,0.0,0.0,448
359,1696242850713,-1.0019531,0.057617188,-0.07519531,-0.03125,0.15625,0.03125,0.0,0.0,0.0,449
360,1696242850753,-1.0019531,0.05078125,-0.08496094,0.34375,0.15625,-0.03125,0.0,0.0,0.0,450
361,1696242850793,-0.99609375,0.060546875,-0.07421875,-0.03125,0.21875,-0.09375,0.0,0.0,0.0,451
362,1696242850833,-1.0078125,0.057617188,-0.09277344,0.28125,0.46875,0.03125,0.0,0.0,0.0,452
363,1696242850873,-1.0058594,0.05078125,-0.068359375,0.28125,0.46875,-0.09375,0.0,0.0,0.0,453
364,1696242850913,-0.99902344,0.056640625,-0.08496094,0.21875,0.09375,-0.21875,-102.4375,35.3125,-65.75,454
365,1696242850953,-1.0087891,0.05078125,-0.07421875,0.28125,0.21875,0.09375,0.0,0.0,0.0,455
366,1696242850993,-1.0029297,0.057617188,-0.080078125,-0.03125,0.03125,-0.15625,0.0,0.0,0.0,456
367,1696242851033,-1.0048828,0.048828125,-0.068359375,-0.03125,0.09375,-0.15625,0.0,0.0,0.0,457
368,1696242851073,-0.9980469,0.059570312,-0.07519531,-0.53125,-0.15625,-0.09375,0.0,0.0,0.0,458
369,1696242851113,-1.0019531,0.049804688,-0.08984375,-0.03125,0.09375,-0.21875,0.0,0.0,0.0,459
370,1696242851153,-0.9970703,0.056640625,-0.08105469,-0.03125,0.34375,0.03125,0.0,0.0,0.0,460
371,1696242851193,-1.0039062,0.0625,-0.080078125,0.21875,0.46875,0.03125,0.0,0.0,0.0,461
372,1696242851233,-1.0029297,0.060546875,-0.06542969,0.09375,0.15625,-0.03125,0.0,0.0,0.0,462
373,1696242851273,-1.0078125,0.061523438,-0.080078125,-0.03125,0.03125,0.03125,0.0,0.0,0.0,463
374,1696242851313,-1.0097656,0.056640625,-0.07519531,-0.03125,0.46875,0.03125,0.0,0.0,0.0,464
375,1696242851353,-1.0019531,0.060546875,-0.0703125,-0.03125,0.34375,0.03125,0.0,0.0,0.0,465
376,1696242851393,-1.0058594,0.041992188,-0.08886719,0.28125,0.28125,0.15625,-102.0,36.1875,-66.625,466
377,1696242851433,-0.99121094,0.060546875,-0.076171875,-0.03125,-0.28125,-0.21875,0.0,0.0,0.0,467
378,1696242851473,-1.0048828,0.055664062,-0.08203125,0.53125,0.53125,-0.03125,0.0,0.0,0.0,468
379,1696242851513,-1.0087891,0.060546875,-0.08105469,0.40625,0.53125,0.25,0.0,0.0,0.0,469
380,1696242851553,-1.0,0.05078125,-0.0859375,-0.40625,0.34375,0.09375,0.0,0.0,0.0,470
381,1696242851593,-1.0058594,0.05859375,-0.06640625,-0.46875,0.53125,0.03125,0.0,0.0,0.0,471
382,1696242851633,-1.0087891,0.0546875,-0.07714844,-0.46875,0.28125,0.09375,0.0,0.0,0.0,472
383,1696242851673,-1.0029297,0.05859375,-0.087890625,-0.34375,-0.03125,0.09375,0.0,0.0,0.0,473
384,1696242851713,-0.9951172,0.059570312,-0.08886719,-0.09375,0.34375,0.3125,0.0,0.0,0.0,474
385,1696242851753,-1.0078125,0.064453125,-0.07910156,0.09375,0.15625,-0.03125,0.0,0.0,0.0,475
386,1696242851793,-0.99902344,0.06640625,-0.07421875,-0.34375,0.21875,0.03125,0.0,0.0,0.0,476
387,1696242851833,-1.0009766,0.056640625,-0.08886719,-0.46875,0.34375,0.15625,0.0,0.0,0.0,477
388,1696242851873,-1.0136719,0.055664062,-0.076171875,-0.28125,0.59375,0.1875,0.0,0.0,0.0,478
389,1696242851913,-1.0019531,0.052734375,-0.07421875,0.34375,0.40625,0.1875,-104.375,37.0625,-66.5,479
390,1696242851953,-1.0029297,0.055664062,-0.08496094,-0.21875,0.09375,0.09375,0.0,0.0,0.0,480
391,1696242851993,-1.0048828,0.06347656,-0.08886719,-0.03125,-0.09375,0.03125,0.0,0.0,0.0,481
392,1696242852033,-1.0087891,0.0546875,-0.080078125,0.28125,-0.03125,0.03125,0.0,0.0,0.0,482
393,1696242852073,-0.99316406,0.055664062,-0.08105469,-0.15625,0.21875,0.09375,0.0,0.0,0.0,483
394,1696242852113,-1.0048828,0.05859375,-0.078125,0.34375,0.34375,0.3125,0.0,0.0,0.0,484
395,1696242852153,-1.0048828,0.06347656,-0.08300781,0.28125,0.03125,0.09375,0.0,0.0,0.0,485
396,1696242852193,-1.0058594,0.0625,-0.078125,-0.21875,-0.03125,-0.03125,0.0,0.0,0.0,486
397,1696242852233,-1.0048828,0.06738281,-0.07714844,-0.21875,-0.09375,0.15625,0.0,0.0,0.0,487
398,1696242852273,-1.0107422,0.057617188,-0.080078125,0.03125,0.15625,0.15625,0.0,0.0,0.0,488
399,1696242852313,-1.0009766,0.057617188,-0.07421875,-0.15625,0.03125,-0.03125,0.0,0.0,0.0,489
400,1696242852353,-1.0126953,0.055664062,-0.08300781,-0.46875,0.28125,-0.03125,0.0,0.0,0.0,490
401,1696242852393,-0.99902344,0.06542969,-0.08300781,-0.09375,0.03125,0.1875,-103.375,36.9375,-66.625,491
402,1696242852433,-1.0039062,0.047851562,-0.07910156,0.21875,0.34375,0.03125,0.0,0.0,0.0,492
403,1696242852473,-1.0029297,0.05859375,-0.09765625,-0.34375,-0.09375,-0.03125,0.0,0.0,0.0,493
404,1696242852513,-1.0068359,0.05859375,-0.091796875,0.15625,-0.15625,0.03125,0.0,0.0,0.0,494
405,1696242852553,-1.0068359,0.0546875,-0.087890625,-0.03125,0.03125,0.03125,0.0,0.0,0.0,495
406,1696242852593,-1.0048828,0.06347656,-0.08203125,-0.03125,0.03125,-0.09375,0.0,0.0,0.0,496
407,1696242852633,-1.0068359,0.061523438,-0.08984375,-0.34375,0.03125,0.15625,0.0,0.0,0.0,497
408,1696242852673,-1.0009766,0.05859375,-0.08984375,-0.21875,0.03125,-0.03125,0.0,0.0,0.0,498
409,1696242852713,-1.0078125,0.05859375,-0.08496094,0.03125,-0.15625,0.15625,0.0,0.0,0.0,499
410,1696242852753,-1.0048828,0.05859375,-0.08300781,-0.28125,-0.28125,0.09375,0.0,0.0,0.0,500
411,1696242852793,-1.0029297,0.0625,-0.08105469,-0.09375,-0.34375,-0.03125,0.0,0.0,0.0,501
412,1696242852833,-0.9980469,0.0546875,-0.08496094,-0.21875,-0.375,-0.03125,0.0,0.0,0.0,502
413,1696242852873,-1.0019531,0.052734375,-0.078125,-0.46875,-0.34375,-0.21875,0.0,0.0,0.0,503
414,1696242852913,-1.0126953,0.059570312,-0.08203125,-0.40625,-0.375,0.09375,-103.9375,36.0625,-67.25,504
415,1696242852953,-1.0058594,0.061523438,-0.09375,-0.21875,-0.5625,0.03125,0.0,0.0,0.0,505
416,1696242852993,-1.0107422,0.0625,-0.087890625,-0.28125,-0.375,-0.03125,0.0,0.0,0.0,506
417,1696242853033,-1.0087891,0.056640625,-0.08105469,-0.09375,-0.34375,0.1875,0.0,0.0,0.0,507
418,1696242853073,-1.0126953,0.06542969,-0.09277344,-0.21875,-0.375,0.03125,0.0,0.0,0.0,508
419,1696242853113,-1.0009766,0.055664062,-0.08496094,-0.21875,-0.5,-0.03125,0.0,0.0,0.0,509
420,1696242853153,-1.0097656,0.06640625,-0.07714844,-0.03125,-0.34375,-0.15625,0.0,0.0,0.0,510
421,1696242853193,-1.0039062,0.06347656,-0.08496094,-0.09375,-0.5,-0.09375,0.0,0.0,0.0,511
422,1696242853233,-1.0009766,0.061523438,-0.07421875,-0.28125,-0.4375,0.03125,0.0,0.0,0.0,512
423,1696242853273,-1.0019531,0.06347656,-0.07714844,0.46875,-0.375,-0.09375,0.0,0.0,0.0,513
424,1696242853313,-1.0039062,0.05859375,-0.080078125,-0.21875,-0.625,-0.09375,0.0,0.0,0.0,514
425,1696242853353,-0.9941406,0.0625,-0.07421875,0.03125,-0.28125,-0.15625,0.0,0.0,0.0,515
426,1696242853393,-0.99902344,0.059570312,-0.078125,-0.03125,-0.375,-0.15625,-102.4375,36.3125,-65.125,516
427,1696242853433,-1.0107422,0.056640625,-0.08300781,-0.09375,-0.375,-0.15625,0.0,0.0,0.0,517
428,1696242853473,-1.0048828,0.049804688,-0.07128906,-0.03125,-0.5,-0.03125,0.0,0.0,0.0,518
429,1696242853513,-0.9921875,0.053710938,-0.09277344,-0.34375,-0.6875,-0.15625,0.0,0.0,0.0,519
430,1696242853553,-1.0097656,0.052734375,-0.08691406,-0.09375,-0.375,-0.15625,0.0,0.0,0.0,520
431,1696242853593,-0.9980469,0.059570312,-0.08300781,-0.15625,-0.4375,-0.09375,0.0,0.0,0.0,521
432,1696242853633,-1.0107422,0.0625,-0.07714844,0.03125,-0.34375,-0.03125,0.0,0.0,0.0,522
433,1696242853673,-1.0048828,0.048828125,-0.072265625,-0.03125,-0.75,-0.03125,0.0,0.0,0.0,523
434,1696242853713,-1.0068359,0.060546875,-0.076171875,-0.03125,-0.34375,-0.09375,0.0,0.0,0.0,524
435,1696242853753,-1.0048828,0.0546875,-0.07910156,-0.03125,-0.4375,-0.28125,0.0,0.0,0.0,525
436,1696242853793,-1.0068359,0.055664062,-0.08691406,-0.21875,-0.375,-0.09375,0.0,0.0,0.0,526
437,1696242853833,-1.0048828,0.051757812,-0.08984375,-0.28125,-0.34375,-0.21875,0.0,0.0,0.0,527
438,1696242853873,-0.9970703,0.053710938,-0.08105469,-0.03125,-0.15625,-0.09375,0.0,0.0,0.0,528
439,1696242853913,-1.0126953,0.055664062,-0.08300781,-0.03125,-0.28125,-0.15625,-103.625,36.3125,-65.4375,529
440,1696242853953,-1.0068359,0.055664062,-0.07714844,-0.8125,-0.5,-0.28125,0.0,0.0,0.0,530
441,1696242853993,-1.0029297,0.057617188,-0.08203125,0.09375,-0.375,-0.03125,0.0,0.0,0.0,531
442,1696242854033,-1.0107422,0.059570312,-0.080078125,0.03125,-0.375,-0.09375,0.0,0.0,0.0,532
443,1696242854073,-1.0058594,0.057617188,-0.08105469,-0.09375,-0.34375,-0.21875,0.0,0.0,0.0,533
444,1696242854113,-1.0078125,0.055664062,-0.08300781,0.28125,-0.625,-0.03125,0.0,0.0,0.0,534
445,1696242854153,-0.99902344,0.057617188,-0.08886719,0.03125,-0.5625,-0.34375,0.0,0.0,0.0,535
446,1696242854193,-1.0009766,0.049804688,-0.083984375,-0.21875,-0.4375,-0.15625,0.0,0.0,0.0,536
447,1696242854233,-1.0,0.068359375,-0.07324219,-0.09375,-0.21875,0.03125,0.0,0.0,0.0,537
448,1696242854273,-1.0048828,0.049804688,-0.06933594,-0.15625,-0.34375,-0.09375,0.0,0.0,0.0,538
449,1696242854313,-1.0136719,0.06347656,-0.06542969,-0.03125,-0.15625,-0.03125,0.0,0.0,0.0,539
450,1696242854353,-1.0,0.059570312,-0.06640625,-0.03125,-0.34375,-0.03125,0.0,0.0,0.0,540
451,1696242854393,-0.99902344,0.064453125,-0.0703125,-0.03125,-0.5,-0.15625,-103.9375,36.8125,-64.6875,541
452,1696242854433,-0.99902344,0.056640625,-0.07714844,0.09375,-0.34375,0.09375,0.0,0.0,0.0,542
453,1696242854473,-1.0097656,0.059570312,-0.07519531,-0.15625,-0.15625,-0.09375,0.0,0.0,0.0,543
454,1696242854513,-1.0087891,0.056640625,-0.06933594,-0.34375,-0.375,-0.09375,0.0,0.0,0.0,544
455,1696242854553,-1.0107422,0.053710938,-0.076171875,-0.28125,-0.15625,0.09375,0.0,0.0,0.0,545
456,1696242854593,-1.0117188,0.059570312,-0.07519531,0.03125,0.09375,0.15625,0.0,0.0,0.0,546
457,1696242854633,-1.0039062,0.044921875,-0.07910156,0.03125,0.09375,0.09375,0.0,0.0,0.0,547
458,1696242854673,-1.0039062,0.05078125,-0.091796875,-0.03125,0.03125,-0.15625,0.0,0.0,0.0,548
459,1696242854713,-1.0039062,0.06347656,-0.083984375,-0.03125,-0.03125,-0.09375,0.0,0.0,0.0,549
460,1696242854753,-0.9980469,0.059570312,-0.068359375,0.28125,-0.03125,0.25,0.0,0.0,0.0,550
461,1696242854793,-1.0126953,0.061523438,-0.08203125,0.21875,0.28125,0.09375,0.0,0.0,0.0,551
462,1696242854833,-0.9980469,0.059570312,-0.07714844,0.15625,0.09375,-0.03125,0.0,0.0,0.0,552
463,1696242854873,-1.0009766,0.051757812,-0.07324219,0.15625,0.15625,0.15625,0.0,0.0,0.0,553
464,1696242854913,-0.99609375,0.068359375,-0.08496094,-0.21875,-0.03125,-0.09375,-102.4375,36.0625,-66.5,554
465,1696242854953,-0.99902344,0.053710938,-0.083984375,-0.40625,0.03125,0.09375,0.0,0.0,0.0,555
466,1696242854993,-1.0019531,0.05859375,-0.080078125,-0.03125,0.34375,0.1875,0.0,0.0,0.0,556
467,1696242855033,-0.9980469,0.05078125,-0.08105469,-0.53125,-0.03125,-0.03125,0.0,0.0,0.0,557
468,1696242855073,-1.0029297,0.053710938,-0.07324219,-0.46875,0.09375,-0.03125,0.0,0.0,0.0,558
469,1696242855113,-1.0097656,0.057617188,-0.06640625,-0.21875,-0.28125,0.03125,0.0,0.0,0.0,559
470,1696242855153,-1.0039062,0.056640625,-0.08496094,0.15625,-0.09375,-0.03125,0.0,0.0,0.0,560
471,1696242855193,-1.0087891,0.064453125,-0.072265625,-0.34375,-0.28125,-0.34375,0.0,0.0,0.0,561
472,1696242855233,-1.0107422,0.05859375,-0.083984375,0.21875,-0.34375,-0.09375,0.0,0.0,0.0,562
473,1696242855273,-1.0048828,0.059570312,-0.08203125,-0.28125,-0.09375,-0.09375,0.0,0.0,0.0,563
474,1696242855313,-1.0029297,0.06738281,-0.08691406,-0.21875,0.09375,-0.03125,0.0,0.0,0.0,564
475,1696242855353,-1.0009766,0.057617188,-0.08203125,0.28125,0.15625,0.03125,0.0,0.0,0.0,565
476,1696242855393,-1.0039062,0.055664062,-0.06542969,-0.15625,-0.03125,-0.15625,-103.9375,35.3125,-65.75,566
477,1696242855433,-1.0039062,0.057617188,-0.0625,-0.34375,-0.09375,-0.21875,0.0,0.0,0.0,567
478,1696242855473,-1.0039062,0.05078125,-0.080078125,-0.09375,-0.09375,0.09375,0.0,0.0,0.0,568
479,1696242855513,-1.0009766,0.052734375,-0.078125,0.15625,-0.15625,-0.03125,0.0,0.0,0.0,569
480,1696242855553,-1.0058594,0.057617188,-0.091796875,0.28125,-0.28125,-0.15625,0.0,0.0,0.0,570
481,1696242855593,-1.0,0.06542969,-0.095703125,-0.03125,-0.15625,-0.28125,0.0,0.0,0.0,571
482,1696242855633,-0.9951172,0.06347656,-0.078125,0.09375,-0.15625,-0.15625,0.0,0.0,0.0,572
483,1696242855673,-1.0136719,0.059570312,-0.09863281,-0.46875,-0.03125,0.03125,0.0,0.0,0.0,573
484,1696242855713,-1.0068359,0.060546875,-0.0703125,-0.28125,-0.21875,-0.09375,0.0,0.0,0.0,574
485,1696242855753,-1.0146484,0.05859375,-0.07519531,-0.28125,-0.21875,-0.03125,0.0,0.0,0.0,575
486,1696242855793,-1.0097656,0.0546875,-0.078125,0.03125,-0.15625,-0.21875,0.0,0.0,0.0,576
487,1696242855833,-1.0039062,0.053710938,-0.09082031,0.09375,-0.34375,-0.09375,0.0,0.0,0.0,577
488,1696242855873,-1.0019531,0.059570312,-0.07519531,0.21875,-0.375,-0.09375,0.0,0.0,0.0,578
489,1696242855913,-0.99316406,0.049804688,-0.076171875,0.15625,-0.5625,-0.21875,-103.625,36.3125,-66.5,579
490,1696242855953,-0.99902344,0.056640625,-0.06933594,0.34375,-0.28125,-0.28125,0.0,0.0,0.0,580
491,1696242855993,-1.0039062,0.06542969,-0.07519531,0.21875,-0.09375,-0.21875,0.0,0.0,0.0,581
492,1696242856033,-1.0009766,0.060546875,-0.06933594,0.21875,-0.21875,-0.15625,0.0,0.0,0.0,582
493,1696242856073,-1.0009766,0.055664062,-0.08105469,-0.03125,-0.15625,-0.15625,0.0,0.0,0.0,583
494,1696242856113,-1.0117188,0.053710938,-0.087890625,-0.15625,-0.34375,-0.21875,0.0,0.0,0.0,584
495,1696242856153,-1.0,0.051757812,-0.068359375,0.15625,-0.28125,-0.21875,0.0,0.0,0.0,585
496,1696242856193,-1.0019531,0.056640625,-0.08496094,0.21875,-0.09375,-0.15625,0.0,0.0,0.0,586
497,1696242856233,-1.0117188,0.053710938,-0.076171875,-0.21875,-0.34375,-0.28125,0.0,0.0,0.0,587
498,1696242856273,-1.0068359,0.049804688,-0.06738281,0.03125,-0.4375,-0.40625,0.0,0.0,0.0,588
499,1696242856313,-1.0048828,0.056640625,-0.07910156,-0.75,-0.5,-0.09375,0.0,0.0,0.0,589
500,1696242856353,-1.0087891,0.053710938,-0.083984375,-0.53125,-0.5,-0.34375,0.0,0.0,0.0,590
501,1696242856393,-1.0078125,0.06347656,-0.091796875,-0.15625,-0.4375,-0.21875,-102.4375,36.3125,-66.5,591
502,1696242856433,-1.0078125,0.055664062,-0.08105469,-0.65625,-0.4375,-0.15625,0.0,0.0,0.0,592
503,1696242856473,-1.0117188,0.056640625,-0.07128906,-0.15625,-0.5,-0.28125,0.0,0.0,0.0,593
504,1696242856513,-1.0097656,0.064453125,-0.06640625,-0.21875,-0.59375,-0.1875,0.0,0.0,0.0,594
505,1696242856553,-1.0058594,0.049804688,-0.06542969,0.21875,-0.40625,-0.125,0.0,0.0,0.0,595
506,1696242856593,-0.99902344,0.059570312,-0.091796875,-0.03125,-0.34375,0.0,0.0,0.0,0.0,596
507,1696242856633,-1.0048828,0.057617188,-0.08691406,0.46875,-0.15625,0.0625,0.0,0.0,0.0,597
508,1696242856673,-1.0136719,0.059570312,-0.09375,0.15625,-0.53125,0.0625,0.0,0.0,0.0,598
509,1696242856713,-1.0058594,0.0546875,-0.07714844,0.09375,-0.71875,0.0625,0.0,0.0,0.0,599
510,1696242856753,-1.0019531,0.0546875,-0.068359375,0.21875,0.28125,0.0,0.0,0.0,0.0,671
511,1696242856793,-0.9951172,0.059570312,-0.078125,0.03125,0.21875,-0.0625,0.0,0.0,0.0,672
512,1696242856833,-1.0195312,0.057617188,-0.07421875,-0.03125,0.15625,0.125,0.0,0.0,0.0,673
513,1696242856873,-1.0087891,0.0546875,-0.05859375,0.03125,0.09375,0.0,0.0,0.0,0.0,674
514,1696242856913,-1.0048828,0.068359375,-0.07421875,-0.09375,0.46875,0.125,0.0,0.0,0.0,675
515,1696242856953,-1.0009766,0.051757812,-0.0625,-0.40625,0.15625,0.0625,0.0,0.0,0.0,676
516,1696242856993,-1.0029297,0.056640625,-0.07128906,-0.09375,0.03125,-0.0625,0.0,0.0,0.0,677
517,1696242857033,-1.0068359,0.06640625,-0.0703125,-0.28125,-0.15625,-0.0625,0.0,0.0,0.0,678
518,1696242857073,-1.0039062,0.05859375,-0.0625,-0.03125,-0.03125,0.0625,-102.4375,36.8125,-65.75,679
519,1696242857113,-1.0,0.060546875,-0.06347656,-0.40625,-0.21875,0.0,0.0,0.0,0.0,680
520,1696242857153,-1.0048828,0.05859375,-0.05078125,0.09375,-0.09375,0.3125,0.0,0.0,0.0,681
521,1696242857193,-1.0068359,0.05859375,-0.07910156,-0.5,-0.03125,-0.0625,0.0,0.0,0.0,682
522,1696242857233,-1.0078125,0.055664062,-0.07714844,-0.5,-0.15625,-0.125,0.0,0.0,0.0,683
523,1696242857273,-1.0087891,0.056640625,-0.06347656,0.28125,0.28125,0.1875,0.0,0.0,0.0,684
524,1696242857313,-1.0048828,0.049804688,-0.068359375,0.03125,0.03125,0.0,0.0,0.0,0.0,685
525,1696242857353,-1.0097656,0.056640625,-0.056640625,0.46875,-0.34375,-0.0625,0.0,0.0,0.0,686
526,1696242857393,-1.0087891,0.05859375,-0.06738281,0.53125,-0.28125,0.0625,0.0,0.0,0.0,687
527,1696242857433,-1.0058594,0.06542969,-0.068359375,0.28125,-0.15625,-0.0625,0.0,0.0,0.0,688
528,1696242857473,-1.0,0.072265625,-0.0703125,-0.03125,-0.09375,-0.125,0.0,0.0,0.0,689
529,1696242857513,-1.0019531,0.059570312,-0.06738281,-0.34375,-0.28125,0.125,0.0,0.0,0.0,690
530,1696242857553,-1.0087891,0.059570312,-0.06933594,-0.40625,-0.40625,0.0,-102.875,36.3125,-65.4375,691
531,1696242857593,-1.0,0.056640625,-0.06738281,-0.34375,-0.21875,-0.25,0.0,0.0,0.0,692
532,1696242857633,-1.0009766,0.05859375,-0.07324219,0.59375,-0.15625,0.3125,0.0,0.0,0.0,693
533,1696242857673,-1.0078125,0.05859375,-0.060546875,0.53125,-0.21875,0.34375,0.0,0.0,0.0,694
534,1696242857713,-1.0029297,0.0625,-0.059570312,-0.34375,-0.03125,0.34375,0.0,0.0,0.0,695
535,1696242857753,-1.0087891,0.047851562,-0.061523438,0.46875,0.28125,0.125,0.0,0.0,0.0,696
536,1696242857793,-1.0097656,0.049804688,-0.06542969,1.125,0.03125,-0.0625,0.0,0.0,0.0,697
537,1696242857833,-1.0087891,0.060546875,-0.0625,0.59375,-0.21875,0.1875,0.0,0.0,0.0,698
538,1696242857873,-1.015625,0.052734375,-0.0625,-0.21875,-0.21875,0.1875,0.0,0.0,0.0,699
539,1696242857913,-1.0019531,0.05859375,-0.05859375,-0.21875,-0.21875,0.0625,0.0,0.0,0.0,700
540,1696242857953,-1.0019531,0.053710938,-0.06933594,-0.5625,-0.09375,0.0,0.0,0.0,0.0,701
541,1696242857993,-0.9921875,0.059570312,-0.06640625,-0.8125,-0.21875,-0.125,0.0,0.0,0.0,702
542,1696242858033,-1.0039062,0.060546875,-0.068359375,-0.75,-0.09375,0.125,0.0,0.0,0.0,703
543,1696242858073,-1.0039062,0.055664062,-0.0703125,-0.46875,-0.21875,0.0,-102.875,36.8125,-66.1875,704
544,1696242858113,-1.0029297,0.06347656,-0.06640625,-0.625,-0.34375,0.0,0.0,0.0,0.0,705
545,1696242858153,-0.99609375,0.051757812,-0.06738281,-0.34375,-0.15625,0.1875,0.0,0.0,0.0,706
546,1696242858193,-1.0029297,0.060546875,-0.0625,-0.03125,-0.21875,0.125,0.0,0.0,0.0,707
547,1696242858233,-1.0019531,0.057617188,-0.072265625,-0.625,-0.15625,-0.0625,0.0,0.0,0.0,708
548,1696242858273,-0.99902344,0.051757812,-0.07519531,-0.15625,-0.03125,0.25,0.0,0.0,0.0,709
549,1696242858313,-1.0087891,0.055664062,-0.07324219,-0.03125,-0.03125,0.125,0.0,0.0,0.0,710
550,1696242858353,-1.0107422,0.053710938,-0.061523438,-0.5,-0.28125,0.0625,0.0,0.0,0.0,711
551,1696242858393,-1.0048828,0.052734375,-0.059570312,0.34375,-0.09375,0.3125,0.0,0.0,0.0,712
552,1696242858433,-1.0039062,0.046875,-0.055664062,-0.15625,0.03125,0.3125,0.0,0.0,0.0,713
553,1696242858473,-1.0078125,0.053710938,-0.064453125,0.21875,0.09375,0.25,0.0,0.0,0.0,714
554,1696242858513,-1.0009766,0.057617188,-0.07128906,0.15625,0.03125,0.25,0.0,0.0,0.0,715
555,1696242858553,-0.9951172,0.05859375,-0.06738281,-0.5625,-0.03125,0.0625,-102.75,36.9375,-66.625,716
556,1696242858593,-1.0087891,0.059570312,-0.068359375,-0.09375,0.09375,0.3125,0.0,0.0,0.0,717
557,1696242858633,-1.0097656,0.059570312,-0.060546875,0.28125,0.03125,0.125,0.0,0.0,0.0,718
558,1696242858673,-0.99609375,0.059570312,-0.0703125,-0.21875,-0.15625,0.125,0.0,0.0,0.0,719
559,1696242858713,-1.0107422,0.05078125,-0.06542969,-0.21875,-0.03125,0.3125,0.0,0.0,0.0,720
560,1696242858753,-1.0097656,0.060546875,-0.06640625,0.34375,0.21875,0.3125,0.0,0.0,0.0,721
561,1696242858793,-1.0,0.059570312,-0.06542969,-0.09375,-0.03125,0.25,0.0,0.0,0.0,722
562,1696242858833,-1.0078125,0.057617188,-0.059570312,-0.40625,0.03125,0.3125,0.0,0.0,0.0,723
563,1696242858873,-1.0039062,0.064453125,-0.0625,0.21875,0.03125,0.34375,0.0,0.0,0.0,724
564,1696242858913,-1.0058594,0.051757812,-0.056640625,0.59375,0.15625,0.3125,0.0,0.0,0.0,725
565,1696242858953,-1.0078125,0.05859375,-0.064453125,0.15625,0.28125,0.125,0.0,0.0,0.0,726
566,1696242858993,-1.0009766,0.057617188,-0.059570312,0.03125,0.21875,0.25,0.0,0.0,0.0,727
567,1696242859033,-1.0078125,0.056640625,-0.061523438,0.03125,0.09375,0.34375,0.0,0.0,0.0,728
568,1696242859073,-1.0087891,0.064453125,-0.06738281,-0.625,0.03125,0.0625,-104.125,36.1875,-66.375,729
569,1696242859113,-0.9970703,0.06347656,-0.064453125,-0.625,0.28125,0.34375,0.0,0.0,0.0,730
570,1696242859153,-1.0136719,0.059570312,-0.07128906,-0.03125,0.15625,0.34375,0.0,0.0,0.0,731
571,1696242859193,-1.0107422,0.052734375,-0.056640625,0.09375,0.46875,0.25,0.0,0.0,0.0,732
572,1696242859233,-1.0087891,0.0625,-0.061523438,0.09375,0.46875,0.34375,0.0,0.0,0.0,733
573,1696242859273,-1.0078125,0.059570312,-0.051757812,-0.21875,0.15625,0.34375,0.0,0.0,0.0,734
574,1696242859313,-0.99902344,0.055664062,-0.068359375,-0.28125,0.03125,0.3125,0.0,0.0,0.0,735
575,1696242859353,-1.0087891,0.059570312,-0.07519531,-0.21875,0.15625,0.25,0.0,0.0,0.0,736
576,1696242859393,-1.0039062,0.056640625,-0.06542969,0.09375,0.28125,0.3125,0.0,0.0,0.0,737
577,1696242859433,-1.0058594,0.07519531,-0.06347656,0.28125,0.28125,0.3125,0.0,0.0,0.0,738
578,1696242859473,-1.0019531,0.06347656,-0.072265625,-0.03125,0.34375,0.34375,0.0,0.0,0.0,739
579,1696242859513,-1.0087891,0.059570312,-0.07128906,0.09375,0.46875,0.3125,0.0,0.0,0.0,740
580,1696242859553,-1.0039062,0.059570312,-0.07519531,-0.15625,0.34375,0.3125,-103.1875,36.8125,-66.5,741
581,1696242859593,-1.0117188,0.059570312,-0.061523438,0.21875,0.40625,0.46875,0.0,0.0,0.0,742
582,1696242859633,-1.0048828,0.06347656,-0.0703125,0.46875,0.28125,0.40625,0.0,0.0,0.0,743
583,1696242859673,-1.0048828,0.06542969,-0.061523438,0.15625,0.28125,0.125,0.0,0.0,0.0,744
584,1696242859713,-1.0009766,0.06933594,-0.06933594,0.40625,0.40625,0.1875,0.0,0.0,0.0,745
585,1696242859753,-1.0087891,0.06738281,-0.07519531,-0.34375,0.28125,0.25,0.0,0.0,0.0,746
586,1696242859793,-1.0019531,0.056640625,-0.06933594,-0.75,0.46875,0.1875,0.0,0.0,0.0,747
587,1696242859833,-1.0039062,0.057617188,-0.060546875,-0.40625,0.46875,0.25,0.0,0.0,0.0,748
588,1696242859873,-1.0097656,0.060546875,-0.068359375,-0.8125,0.40625,0.25,0.0,0.0,0.0,749
589,1696242859913,-1.0068359,0.057617188,-0.06347656,-0.625,0.28125,0.0625,0.0,0.0,0.0,750
590,1696242859953,-1.0126953,0.057617188,-0.06347656,-0.09375,0.28125,0.25,0.0,0.0,0.0,751
591,1696242859993,-1.0048828,0.06738281,-0.076171875,0.03125,0.28125,-0.1875,0.0,0.0,0.0,752
592,1696242860033,-1.0068359,0.0625,-0.06738281,0.03125,0.28125,-0.125,0.0,0.0,0.0,753
593,1696242860073,-1.0029297,0.059570312,-0.06542969,-0.625,0.28125,0.1875,-104.125,36.625,-66.0625,754
594,1696242860113,-1.0058594,0.061523438,-0.076171875,-0.21875,0.28125,0.1875,0.0,0.0,0.0,755
595,1696242860153,-1.0058594,0.055664062,-0.055664062,-0.15625,0.15625,-0.0625,0.0,0.0,0.0,756
596,1696242860193,-1.0009766,0.06347656,-0.068359375,-0.5625,0.21875,0.0,0.0,0.0,0.0,757
597,1696242860233,-1.0019531,0.056640625,-0.061523438,0.15625,0.46875,0.3125,0.0,0.0,0.0,758
598,1696242860273,-1.0,0.0546875,-0.064453125,0.53125,0.34375,0.0625,0.0,0.0,0.0,759
599,1696242860313,-1.0078125,0.06640625,-0.06933594,-0.15625,0.28125,-0.1875,0.0,0.0,0.0,760
600,1696242860353,-1.0097656,0.0703125,-0.06347656,0.34375,0.21875,0.125,0.0,0.0,0.0,761
601,1696242860393,-1.0087891,0.052734375,-0.06640625,0.15625,0.28125,0.0625,0.0,0.0,0.0,762
602,1696242860433,-1.0087891,0.060546875,-0.06640625,0.15625,0.21875,-0.0625,0.0,0.0,0.0,763
603,1696242860473,-1.0039062,0.06738281,-0.064453125,-0.09375,0.03125,0.0,0.0,0.0,0.0,764
604,1696242860513,-1.0039062,0.053710938,-0.072265625,0.09375,0.34375,-0.0625,0.0,0.0,0.0,765
605,1696242860553,-1.0048828,0.0625,-0.061523438,-0.09375,0.34375,-0.0625,-103.625,37.0625,-65.125,766
606,1696242860593,-1.0029297,0.055664062,-0.05859375,-0.09375,0.03125,-0.0625,0.0,0.0,0.0,767
607,1696242860633,-1.0029297,0.064453125,-0.076171875,-0.28125,0.09375,0.125,0.0,0.0,0.0,768
608,1696242860673,-1.0097656,0.056640625,-0.068359375,0.09375,0.34375,0.1875,0.0,0.0,0.0,769
609,1696242860713,-1.0029297,0.059570312,-0.05078125,0.34375,0.28125,-0.3125,0.0,0.0,0.0,770
610,1696242860753,-1.0029297,0.0625,-0.06347656,-0.03125,0.09375,-0.25,0.0,0.0,0.0,771
611,1696242860793,-1.0117188,0.05859375,-0.061523438,-0.03125,0.15625,0.0,0.0,0.0,0.0,772
612,1696242860833,-1.0097656,0.059570312,-0.0703125,0.15625,0.21875,-0.0625,0.0,0.0,0.0,773
613,1696242860873,-0.99609375,0.06347656,-0.07910156,0.21875,0.21875,-0.0625,0.0,0.0,0.0,774
614,1696242860913,-1.0126953,0.064453125,-0.068359375,-0.09375,-0.09375,0.0,0.0,0.0,0.0,775
615,1696242860953,-1.0019531,0.053710938,-0.07714844,0.09375,-0.15625,0.0625,0.0,0.0,0.0,776
616,1696242860993,-0.9980469,0.061523438,-0.068359375,0.09375,-0.03125,-0.4375,0.0,0.0,0.0,777
617,1696242861033,-1.0029297,0.056640625,-0.08203125,0.40625,0.09375,-0.125,0.0,0.0,0.0,778
618,1696242861073,-1.0019531,0.057617188,-0.06933594,0.21875,0.5625,0.34375,-102.4375,39.0625,-67.25,779
619,1696242861113,-1.0078125,0.06738281,-0.072265625,-0.09375,0.53125,0.0,0.0,0.0,0.0,780
620,1696242861153,-1.0058594,0.06542969,-0.06738281,-0.21875,0.40625,-0.125,0.0,0.0,0.0,781
621,1696242861193,-1.0078125,0.057617188,-0.06542969,0.03125,0.34375,0.125,0.0,0.0,0.0,782
622,1696242861233,-0.99902344,0.059570312,-0.087890625,0.21875,0.53125,-0.125,0.0,0.0,0.0,783
623,1696242861273,-1.0068359,0.05859375,-0.07128906,0.34375,0.28125,-0.0625,0.0,0.0,0.0,784
624,1696242861313,-1.0019531,0.06738281,-0.06933594,0.46875,0.5625,0.0,0.0,0.0,0.0,785
625,1696242861353,-1.0039062,0.0625,-0.07519531,-0.15625,0.40625,0.0625,0.0,0.0,0.0,786
626,1696242861393,-0.99902344,0.060546875,-0.076171875,-0.09375,0.625,-0.1875,0.0,0.0,0.0,787
627,1696242861433,-1.0087891,0.06347656,-0.0625,-0.03125,0.6875,-0.125,0.0,0.0,0.0,788
628,1696242861473,-0.99902344,0.059570312,-0.06738281,-0.28125,0.5625,0.0625,0.0,0.0,0.0,789
629,1696242861513,-1.0039062,0.057617188,-0.078125,-0.03125,0.5625,0.125,0.0,0.0,0.0,790
630,1696242861553,-1.0039062,0.055664062,-0.072265625,-0.03125,0.34375,-0.1875,-102.3125,36.9375,-64.875,791
631,1696242861593,-1.0097656,0.0625,-0.07128906,-0.46875,0.15625,-0.25,0.0,0.0,0.0,792
632,1696242861633,-1.0068359,0.056640625,-0.053710938,-0.34375,0.15625,0.0,0.0,0.0,0.0,793
633,1696242861673,-1.0087891,0.0546875,-0.08105469,-0.5,0.21875,-0.125,0.0,0.0,0.0,794
634,1696242861713,-1.0009766,0.055664062,-0.072265625,-0.40625,0.34375,-0.0625,0.0,0.0,0.0,795
635,1696242861753,-0.9980469,0.055664062,-0.08105469,-1.125,0.40625,-0.3125,0.0,0.0,0.0,796
636,1696242861793,-1.0029297,0.049804688,-0.07714844,-1.0,0.15625,0.0,0.0,0.0,0.0,797
637,1696242861833,-1.0,0.059570312,-0.06933594,-0.75,0.34375,0.0625,0.0,0.0,0.0,798
638,1696242861873,-0.99316406,0.060546875,-0.078125,-0.75,0.5625,-0.125,0.0,0.0,0.0,799
639,1696242861913,-1.0097656,0.05859375,-0.061523438,-0.75,-0.15625,0.25,0.0,0.0,0.0,800
640,1696242861953,-1.0029297,0.056640625,-0.07910156,-0.28125,-0.21875,-0.0625,0.0,0.0,0.0,801
641,1696242861993,-1.0107422,0.0546875,-0.07714844,-0.21875,-0.21875,0.25,0.0,0.0,0.0,802
642,1696242862033,-1.0078125,0.051757812,-0.09082031,0.78125,0.03125,0.0,0.0,0.0,0.0,803
643,1696242862073,-1.0058594,0.0625,-0.076171875,0.875,-0.03125,-0.125,-104.375,36.0625,-66.5,804
644,1696242862113,-0.99316406,0.060546875,-0.08691406,0.65625,0.03125,-0.0625,0.0,0.0,0.0,805
645,1696242862153,-1.0,0.07128906,-0.08203125,1.0625,0.28125,0.34375,0.0,0.0,0.0,806
646,1696242862193,-1.0068359,0.055664062,-0.076171875,0.15625,0.53125,0.3125,0.0,0.0,0.0,807
647,1696242862233,-1.0009766,0.051757812,-0.06640625,0.46875,0.6875,0.1875,0.0,0.0,0.0,808
648,1696242862273,-1.0058594,0.060546875,-0.07324219,0.21875,0.34375,0.25,0.0,0.0,0.0,809
649,1696242862313,-1.0097656,0.053710938,-0.056640625,-0.5,-0.09375,-0.125,0.0,0.0,0.0,810
650,1696242862353,-1.0009766,0.049804688,-0.07324219,-0.15625,0.15625,0.25,0.0,0.0,0.0,811
651,1696242862393,-0.9980469,0.0546875,-0.0625,0.28125,0.34375,0.1875,0.0,0.0,0.0,812
652,1696242862433,-1.0029297,0.060546875,-0.078125,0.03125,0.28125,0.3125,0.0,0.0,0.0,813
653,1696242862473,-1.0029297,0.055664062,-0.07714844,0.21875,0.28125,0.25,0.0,0.0,0.0,814
654,1696242862513,-1.0,0.06347656,-0.06738281,0.03125,0.40625,0.0625,0.0,0.0,0.0,815
655,1696242862553,-1.0058594,0.057617188,-0.06738281,-0.03125,0.53125,0.34375,-102.875,36.0625,-66.1875,816
656,1696242862593,-1.0009766,0.060546875,-0.07324219,0.09375,0.6875,0.3125,0.0,0.0,0.0,817
657,1696242862633,-1.0087891,0.05859375,-0.06933594,-0.15625,0.8125,0.34375,0.0,0.0,0.0,818
658,1696242862673,-1.0058594,0.057617188,-0.07519531,-0.28125,0.6875,0.125,0.0,0.0,0.0,819
659,1696242862713,-1.0107422,0.06738281,-0.08496094,-0.15625,0.5625,0.25,0.0,0.0,0.0,820
660,1696242862753,-1.0078125,0.051757812,-0.08203125,0.03125,0.5625,0.25,0.0,0.0,0.0,821
661,1696242862793,-0.99902344,0.056640625,-0.0703125,0.0625,0.09375,0.0,0.0,0.0,0.0,822
662,1696242862833,-1.0097656,0.06347656,-0.078125,0.1875,-0.03125,0.0,0.0,0.0,0.0,823
663,1696242862873,-1.0029297,0.060546875,-0.076171875,0.125,0.03125,0.25,0.0,0.0,0.0,824
664,1696242862913,-1.0058594,0.055664062,-0.078125,0.125,0.15625,0.125,0.0,0.0,0.0,825
665,1696242862953,-1.0,0.057617188,-0.09082031,0.46875,0.09375,0.0625,0.0,0.0,0.0,826
666,1696242862993,-1.0097656,0.056640625,-0.091796875,0.28125,0.09375,0.0625,0.0,0.0,0.0,827
667,1696242863033,-1.0087891,0.055664062,-0.078125,0.34375,-0.03125,0.0625,0.0,0.0,0.0,828
668,1696242863073,-0.99902344,0.051757812,-0.087890625,1.21875,0.15625,0.25,-102.4375,36.3125,-65.75,829
669,1696242863113,-0.9941406,0.060546875,-0.0859375,0.90625,0.21875,0.3125,0.0,0.0,0.0,830
670,1696242863153,-1.0068359,0.0625,-0.07714844,0.90625,-0.03125,0.125,0.0,0.0,0.0,831
671,1696242863193,-0.9980469,0.06542969,-0.09082031,0.46875,0.03125,0.3125,0.0,0.0,0.0,832
672,1696242863233,-1.0068359,0.057617188,-0.09277344,0.28125,0.3125,0.375,0.0,0.0,0.0,833
673,1696242863273,-1.0078125,0.0546875,-0.09277344,-0.0625,0.15625,0.0625,0.0,0.0,0.0,834
674,1696242863313,-1.0048828,0.055664062,-0.08105469,0.34375,-0.03125,0.125,0.0,0.0,0.0,835
675,1696242863353,-1.0029297,0.057617188,-0.07324219,-0.625,-0.28125,0.125,0.0,0.0,0.0,836
676,1696242863393,-1.0029297,0.0546875,-0.09277344,-0.1875,-0.09375,0.0,0.0,0.0,0.0,837
677,1696242863433,-1.0107422,0.064453125,-0.08300781,0.0,-0.03125,-0.125,0.0,0.0,0.0,838
678,1696242863473,-1.015625,0.056640625,-0.08300781,-0.1875,-0.09375,0.1875,0.0,0.0,0.0,839
679,1696242863513,-1.0058594,0.052734375,-0.08300781,-0.4375,-0.28125,-0.34375,0.0,0.0,0.0,840
680,1696242863553,-1.0097656,0.05859375,-0.080078125,0.53125,-0.28125,0.0,-102.125,37.0625,-66.1875,841
681,1696242863593,-1.0068359,0.061523438,-0.09277344,0.40625,0.09375,0.25,0.0,0.0,0.0,842
682,1696242863633,-1.0136719,0.059570312,-0.08984375,0.46875,0.03125,0.0625,0.0,0.0,0.0,843
683,1696242863673,-1.0029297,0.06347656,-0.08203125,0.46875,-0.21875,0.0,0.0,0.0,0.0,844
684,1696242863713,-1.0087891,0.055664062,-0.07714844,0.0625,-0.34375,-0.0625,0.0,0.0,0.0,845
685,1696242863753,-1.0087891,0.05859375,-0.078125,0.59375,-0.28125,0.0,0.0,0.0,0.0,846
686,1696242863793,-1.0029297,0.06347656,-0.08691406,0.59375,-0.28125,-0.1875,0.0,0.0,0.0,847
687,1696242863833,-1.0009766,0.06347656,-0.08300781,0.59375,-0.59375,-0.125,0.0,0.0,0.0,848
688,1696242863873,-1.0,0.0625,-0.10058594,0.0,-0.46875,-0.125,0.0,0.0,0.0,849
689,1696242863913,-1.0,0.056640625,-0.08691406,-0.1875,-0.15625,-0.125,0.0,0.0,0.0,850
690,1696242863953,-1.0058594,0.0625,-0.06542969,-0.5625,-0.15625,0.0,0.0,0.0,0.0,851
691,1696242863993,-1.0009766,0.053710938,-0.08105469,-0.5625,-0.34375,-0.125,0.0,0.0,0.0,852
692,1696242864033,-1.015625,0.053710938,-0.06933594,-0.0625,-0.53125,-0.1875,0.0,0.0,0.0,853
693,1696242864073,-0.99902344,0.046875,-0.08691406,-0.1875,-0.34375,-0.125,-105.0,37.0625,-66.1875,854
694,1696242864113,-1.0019531,0.046875,-0.07519531,0.46875,-0.21875,-0.125,0.0,0.0,0.0,855
695,1696242864153,-1.0097656,0.053710938,-0.07714844,0.28125,-0.40625,-0.1875,0.0,0.0,0.0,856
696,1696242864193,-1.0009766,0.057617188,-0.07421875,-0.25,-0.59375,-0.1875,0.0,0.0,0.0,857
697,1696242864233,-1.0058594,0.05078125,-0.078125,0.28125,-0.53125,-0.0625,0.0,0.0,0.0,858
698,1696242864273,-1.0068359,0.056640625,-0.0859375,0.0625,-0.46875,-0.0625,0.0,0.0,0.0,859
699,1696242864313,-1.0068359,0.057617188,-0.087890625,0.40625,-0.34375,-0.0625,0.0,0.0,0.0,860
700,1696242864353,-1.0068359,0.059570312,-0.08984375,0.40625,-0.28125,0.3125,0.0,0.0,0.0,861
701,1696242864393,-1.0019531,0.05078125,-0.08496094,0.71875,-0.40625,0.125,0.0,0.0,0.0,862
702,1696242864433,-1.0029297,0.051757812,-0.080078125,0.65625,-0.78125,-0.0625,0.0,0.0,0.0,863
703,1696242864473,-1.0029297,0.0625,-0.08886719,0.71875,-1.03125,-0.125,0.0,0.0,0.0,864
704,1696242864513,-1.0087891,0.0546875,-0.07910156,0.46875,-0.78125,0.125,0.0,0.0,0.0,865
705,1696242864553,-1.0078125,0.06933594,-0.076171875,0.34375,-0.53125,0.1875,-103.8125,37.6875,-66.0625,866
706,1696242864593,-0.9970703,0.05078125,-0.076171875,0.21875,-0.46875,0.25,0.0,0.0,0.0,867
707,1696242864633,-0.9892578,0.057617188,-0.08300781,0.53125,-0.53125,0.0625,0.0,0.0,0.0,868
708,1696242864673,-1.0,0.051757812,-0.08203125,0.0,-0.59375,0.125,0.0,0.0,0.0,869
709,1696242864713,-1.0078125,0.06640625,-0.076171875,-0.125,-0.84375,0.0625,0.0,0.0,0.0,870
710,1696242864753,-1.0048828,0.051757812,-0.08203125,-0.3125,-0.78125,0.0,0.0,0.0,0.0,871
711,1696242864793,-0.9970703,0.053710938,-0.08105469,-0.25,-0.65625,-0.0625,0.0,0.0,0.0,872
712,1696242864833,-1.0039062,0.053710938,-0.08203125,-0.5,-0.65625,0.0,0.0,0.0,0.0,873
713,1696242864873,-1.0039062,0.05078125,-0.08984375,0.0,-0.53125,0.25,0.0,0.0,0.0,874
714,1696242864913,-1.0019531,0.053710938,-0.078125,0.0,-0.59375,0.125,0.0,0.0,0.0,875
715,1696242864953,-0.9970703,0.0625,-0.076171875,-0.125,-0.28125,0.1875,0.0,0.0,0.0,876
716,1696242864993,-1.0107422,0.057617188,-0.06542969,0.1875,0.09375,0.1875,0.0,0.0,0.0,877
717,1696242865033,-1.0117188,0.051757812,-0.0625,0.0625,-0.46875,-0.0625,0.0,0.0,0.0,878
718,1696242865073,-1.0068359,0.06640625,-0.06933594,-0.125,-0.90625,0.0625,-102.875,37.5625,-65.75,879
719,1696242865113,-0.9941406,0.046875,-0.083984375,0.125,-0.84375,-0.0625,0.0,0.0,0.0,880
720,1696242865153,-1.0009766,0.064453125,-0.07128906,0.71875,-0.71875,-0.0625,0.0,0.0,0.0,881
721,1696242865193,-1.0009766,0.068359375,-0.068359375,0.78125,-0.46875,0.125,0.0,0.0,0.0,882
722,1696242865233,-1.0126953,0.055664062,-0.07910156,0.21875,-0.40625,0.125,0.0,0.0,0.0,883
723,1696242865273,-1.0029297,0.061523438,-0.08300781,0.40625,-0.71875,0.3125,0.0,0.0,0.0,884
724,1696242865313,-1.0029297,0.0546875,-0.078125,-0.1875,-1.03125,0.0,0.0,0.0,0.0,885
725,1696242865353,-1.0048828,0.0625,-0.08886719,0.0,-1.5,0.125,0.0,0.0,0.0,886
726,1696242865393,-1.0058594,0.053710938,-0.064453125,-0.375,-1.0625,0.1875,0.0,0.0,0.0,887
727,1696242865433,-1.0058594,0.056640625,-0.07421875,-0.375,-0.65625,0.0625,0.0,0.0,0.0,888
728,1696242865473,-1.0068359,0.056640625,-0.072265625,0.125,-0.65625,0.3125,0.0,0.0,0.0,889
729,1696242865513,-1.0068359,0.051757812,-0.07519531,-0.5,-1.03125,0.1875,0.0,0.0,0.0,890
730,1696242865553,-1.0009766,0.05859375,-0.06640625,-0.5,-1.25,0.125,-103.8125,37.375,-64.5625,891
731,1696242865593,-1.0039062,0.053710938,-0.07714844,-0.5625,-1.125,0.1875,0.0,0.0,0.0,892
732,1696242865633,-1.0058594,0.055664062,-0.06640625,-0.0625,-0.78125,-0.0625,0.0,0.0,0.0,893
733,1696242865673,-1.0087891,0.056640625,-0.080078125,-0.3125,-0.90625,0.0,0.0,0.0,0.0,894
734,1696242865713,-1.0136719,0.053710938,-0.07519531,0.125,-0.84375,0.25,0.0,0.0,0.0,895
735,1696242865753,-1.0009766,0.045898438,-0.052734375,-0.4375,-0.96875,0.125,0.0,0.0,0.0,896
736,1696242865793,-1.0097656,0.0546875,-0.055664062,-0.0625,-0.65625,0.1875,0.0,0.0,0.0,897
737,1696242865833,-1.0048828,0.0546875,-0.068359375,0.1875,-0.65625,0.0625,0.0,0.0,0.0,898
738,1696242865873,-1.0039062,0.052734375,-0.07324219,-0.3125,-0.96875,-0.1875,0.0,0.0,0.0,899
739,1696242865913,-1.0048828,0.064453125,-0.07324219,0.28125,0.125,-0.34375,0.0,0.0,0.0,976
740,1696242865953,-1.0039062,0.060546875,-0.07324219,0.40625,0.125,-0.34375,0.0,0.0,0.0,977
741,1696242865993,-1.0068359,0.06347656,-0.06933594,0.71875,0.25,-0.53125,0.0,0.0,0.0,978
742,1696242866033,-1.0068359,0.057617188,-0.076171875,0.40625,0.0,-0.40625,-103.625,37.8125,-65.4375,979
743,1696242866073,-1.0029297,0.056640625,-0.072265625,0.09375,0.0,-0.09375,0.0,0.0,0.0,980
744,1696242866113,-0.99902344,0.0546875,-0.076171875,-0.03125,-0.1875,-0.59375,0.0,0.0,0.0,981
745,1696242866153,-1.0029297,0.0546875,-0.0703125,-0.03125,-0.1875,-0.40625,0.0,0.0,0.0,982
746,1696242866193,-1.0048828,0.05859375,-0.06640625,-0.15625,-0.375,-0.28125,0.0,0.0,0.0,983
747,1696242866233,-1.0039062,0.055664062,-0.08496094,-0.34375,-0.3125,-0.40625,0.0,0.0,0.0,984
748,1696242866273,-1.0019531,0.060546875,-0.0703125,0.15625,-0.0625,-0.28125,0.0,0.0,0.0,985
749,1696242866313,-1.0048828,0.05859375,-0.060546875,0.09375,-0.1875,-0.15625,0.0,0.0,0.0,986
750,1696242866353,-1.0058594,0.061523438,-0.07421875,-0.09375,-0.375,-0.03125,0.0,0.0,0.0,987
751,1696242866393,-1.0009766,0.055664062,-0.076171875,-0.5,-0.3125,-0.34375,0.0,0.0,0.0,988
752,1696242866433,-1.0029297,0.0546875,-0.07128906,-0.15625,-0.3125,-0.28125,0.0,0.0,0.0,989
753,1696242866473,-0.9980469,0.060546875,-0.07324219,-0.5,-0.25,-0.21875,0.0,0.0,0.0,990
754,1696242866513,-1.0039062,0.05078125,-0.072265625,-0.15625,-0.25,-0.09375,-103.0625,36.1875,-66.625,991
755,1696242866553,-1.0048828,0.06640625,-0.06640625,-0.5625,-0.5625,-0.21875,0.0,0.0,0.0,992
756,1696242866593,-1.0078125,0.057617188,-0.07519531,-0.5625,-0.25,-0.34375,0.0,0.0,0.0,993
757,1696242866633,-1.0087891,0.0625,-0.08105469,-0.21875,-0.1875,-0.28125,0.0,0.0,0.0,994
758,1696242866673,-1.0136719,0.0546875,-0.0703125,0.15625,-0.1875,-0.09375,0.0,0.0,0.0,995
759,1696242866713,-1.0009766,0.049804688,-0.06542969,-0.40625,-0.375,-0.28125,0.0,0.0,0.0,996
