# Sensor type: Thingy
# Activity type: Lying down on stomach
# Activity subtype: Normal
# Subject id: s2104454
# Notes: unprocessed
timestamp,accel_x,accel_y,accel_z,gyro_x,gyro_y,gyro_z,mag_x,mag_y,mag_z
1696243053762,-0.015625,0.14550781,-1.0419922,-0.78125,0.3125,0.375,0.0,0.0,0.0
1696243053792,-0.0029296875,0.14550781,-1.0263672,0.4375,-0.90625,-0.15625,0.0,0.0,0.0
1696243053856,-0.0087890625,0.13671875,-0.99609375,1.59375,-1.21875,-0.21875,0.0,0.0,0.0
1696243053884,-0.013671875,0.13183594,-0.9892578,1.53125,-1.21875,-0.40625,0.0,0.0,0.0
1696243053912,-0.020507812,0.13085938,-0.98535156,1.3125,-0.375,-0.15625,-44.875,65.875,-98.4375
1696243053943,-0.01953125,0.13085938,-0.984375,0.4375,0.5,0.03125,0.0,0.0,0.0
1696243054002,-0.020507812,0.13574219,-1.0019531,-0.34375,1.15625,0.125,0.0,0.0,0.0
1696243054032,-0.029296875,0.1328125,-1.0195312,-0.59375,0.90625,0.0625,0.0,0.0,0.0
1696243054093,-0.018554688,0.14453125,-1.0302734,-0.34375,0.125,0.03125,0.0,0.0,0.0
1696243054122,-0.0146484375,0.13574219,-1.0263672,0.03125,-0.53125,-0.09375,0.0,0.0,0.0
1696243054152,-0.017578125,0.1328125,-1.0087891,0.375,-0.65625,-0.03125,0.0,0.0,0.0
1696243054183,-0.017578125,0.13964844,-0.9873047,0.3125,-0.5,-0.09375,0.0,0.0,0.0
1696243054242,-0.02734375,0.12890625,-0.96875,0.25,-0.125,-0.03125,0.0,0.0,0.0
1696243054276,-0.022460938,0.13476562,-0.99316406,-0.03125,0.0,0.03125,0.0,0.0,0.0
1696243054301,-0.018554688,0.13476562,-1.0048828,0.15625,0.5625,0.0625,0.0,0.0,0.0
1696243054362,-0.018554688,0.125,-1.0185547,0.21875,0.625,0.03125,0.0,0.0,0.0
1696243054392,-0.016601562,0.13574219,-1.0146484,0.625,-0.1875,-0.15625,0.0,0.0,0.0
1696243054424,-0.020507812,0.13378906,-1.0068359,0.03125,-0.25,-0.09375,-43.9375,66.8125,-98.3125
1696243054484,-0.016601562,0.13183594,-0.99902344,0.25,-0.59375,-0.15625,0.0,0.0,0.0
1696243054512,-0.018554688,0.1328125,-0.9980469,0.09375,-0.375,0.03125,0.0,0.0,0.0
1696243054543,-0.0146484375,0.12792969,-0.99902344,-0.03125,-0.0625,0.03125,0.0,0.0,0.0
1696243054604,-0.0234375,0.13867188,-1.0009766,-0.09375,0.0625,0.125,0.0,0.0,0.0
1696243054634,-0.01953125,0.13183594,-0.9951172,-0.28125,0.125,0.03125,0.0,0.0,0.0
1696243054665,-0.021484375,0.13769531,-1.0029297,0.15625,0.125,0.03125,0.0,0.0,0.0
1696243054725,-0.0146484375,0.13183594,-1.0097656,0.4375,0.0625,-0.15625,0.0,0.0,0.0
1696243054755,-0.013671875,0.14257812,-1.0058594,0.5625,0.0625,-0.03125,0.0,0.0,0.0
1696243054782,-0.02734375,0.13476562,-1.0009766,0.25,-0.1875,-0.15625,0.0,0.0,0.0
1696243054844,-0.015625,0.13085938,-0.9980469,0.03125,-0.25,0.125,0.0,0.0,0.0
1696243054873,-0.0234375,0.13378906,-1.0,-0.09375,0.0,0.0625,0.0,0.0,0.0
1696243054904,-0.021484375,0.12988281,-1.0019531,-0.03125,0.25,0.125,-45.4375,66.3125,-99.375
1696243054965,-0.026367188,0.13769531,-1.0019531,-0.09375,-0.0625,0.0625,0.0,0.0,0.0
1696243054992,-0.025390625,0.13671875,-1.0146484,0.03125,-0.25,-0.03125,0.0,0.0,0.0
1696243055022,-0.0234375,0.12890625,-0.98828125,0.25,0.1875,-0.03125,0.0,0.0,0.0
1696243055083,-0.01171875,0.13476562,-1.0068359,0.15625,0.0,-0.03125,0.0,0.0,0.0
1696243055113,-0.0146484375,0.125,-0.99121094,0.03125,-0.25,0.03125,0.0,0.0,0.0
1696243055143,-0.016601562,0.13183594,-0.99316406,0.21875,-0.25,-0.03125,0.0,0.0,0.0
1696243055205,-0.015625,0.12792969,-0.9902344,0.09375,0.0,0.03125,0.0,0.0,0.0
1696243055233,-0.020507812,0.13769531,-1.0048828,0.03125,-0.0625,0.0625,0.0,0.0,0.0
1696243055263,-0.0234375,0.13085938,-0.99902344,-0.03125,-0.25,0.125,0.0,0.0,0.0
1696243055325,-0.020507812,0.12695312,-1.0048828,0.03125,-0.25,-0.03125,0.0,0.0,0.0
1696243055354,-0.022460938,0.12792969,-0.9970703,0.03125,-0.0625,0.0625,0.0,0.0,0.0
1696243055382,-0.018554688,0.12695312,-1.0058594,0.15625,0.0,-0.09375,-43.9375,66.0625,-98.3125
1696243055445,-0.024414062,0.13183594,-1.0029297,0.09375,-0.125,0.0625,0.0,0.0,0.0
1696243055472,-0.0234375,0.13378906,-0.9980469,-0.03125,-0.25,0.125,0.0,0.0,0.0
1696243055502,-0.02734375,0.1328125,-1.0039062,0.03125,-0.125,0.125,0.0,0.0,0.0
1696243055565,-0.025390625,0.13183594,-1.0078125,0.03125,-0.1875,0.03125,0.0,0.0,0.0
1696243055593,-0.026367188,0.12792969,-0.99609375,-0.03125,-0.0625,-0.09375,0.0,0.0,0.0
1696243055624,-0.021484375,0.12890625,-0.99902344,0.03125,-0.125,0.03125,0.0,0.0,0.0
1696243055713,-0.02734375,0.13476562,-0.99902344,0.21875,0.0,-0.03125,0.0,0.0,0.0
1696243055720,-0.013671875,0.12988281,-0.98828125,0.25,0.375,0.125,0.0,0.0,0.0
1696243055772,-0.015625,0.13378906,-1.0097656,0.21875,0.0,0.03125,0.0,0.0,0.0
1696243055803,-0.013671875,0.119140625,-1.0068359,-0.09375,0.0,0.0625,0.0,0.0,0.0
1696243055833,-0.020507812,0.13476562,-1.0078125,-0.03125,-0.1875,0.1875,0.0,0.0,0.0
1696243055866,-0.024414062,0.13378906,-0.9941406,-0.03125,-0.25,0.03125,0.0,0.0,0.0
1696243055924,-0.020507812,0.14160156,-1.0058594,0.21875,-0.1875,0.03125,-44.25,65.4375,-98.75
1696243055988,-0.029296875,0.12597656,-1.0029297,0.21875,-0.1875,0.0625,0.0,0.0,0.0
1696243055995,-0.025390625,0.13183594,-1.0048828,0.09375,-0.0625,0.03125,0.0,0.0,0.0
1696243056042,-0.028320312,0.125,-1.0048828,0.15625,0.1875,-0.09375,0.0,0.0,0.0
1696243056071,-0.017578125,0.13378906,-1.0029297,0.03125,0.0,0.0625,0.0,0.0,0.0
1696243056135,-0.022460938,0.13476562,-0.9892578,0.09375,-0.0625,-0.03125,0.0,0.0,0.0
1696243056163,-0.029296875,0.12890625,-1.0039062,0.03125,-0.0625,-0.03125,0.0,0.0,0.0
1696243056193,-0.020507812,0.12597656,-0.9873047,0.03125,-0.1875,-0.03125,0.0,0.0,0.0
1696243056224,-0.020507812,0.12792969,-1.0019531,-0.03125,-0.25,-0.03125,0.0,0.0,0.0
1696243056283,-0.024414062,0.12695312,-1.0019531,0.03125,-0.125,0.0625,0.0,0.0,0.0
1696243056313,-0.021484375,0.13085938,-1.0019531,0.15625,-0.125,0.125,0.0,0.0,0.0
1696243056345,-0.032226562,0.13476562,-0.98828125,0.03125,0.1875,-0.03125,0.0,0.0,0.0
1696243056403,-0.025390625,0.13183594,-1.0058594,0.03125,0.375,0.0625,-46.1875,65.5625,-98.875
1696243056463,-0.017578125,0.12597656,-1.0068359,0.03125,-0.125,-0.03125,0.0,0.0,0.0
1696243056469,-0.022460938,0.12988281,-1.0107422,0.09375,-0.0625,-0.09375,0.0,0.0,0.0
1696243056521,-0.0234375,0.13378906,-1.0087891,-0.03125,-0.3125,-0.03125,0.0,0.0,0.0
1696243056582,-0.021484375,0.13183594,-1.0068359,0.09375,0.0625,0.03125,0.0,0.0,0.0
1696243056612,-0.026367188,0.12695312,-0.9980469,-0.0625,-0.0625,-0.03125,0.0,0.0,0.0
1696243056643,-0.021484375,0.12792969,-0.99316406,-0.1875,-0.125,-0.03125,0.0,0.0,0.0
1696243056672,-0.01953125,0.13574219,-0.9951172,-0.0625,0.28125,-0.03125,0.0,0.0,0.0
1696243056703,-0.0146484375,0.125,-1.0068359,-0.0625,0.15625,0.03125,0.0,0.0,0.0
1696243056763,-0.01171875,0.1328125,-1.0029297,0.0625,0.28125,0.09375,0.0,0.0,0.0
1696243056792,-0.01953125,0.12402344,-1.0068359,0.125,0.15625,-0.1875,0.0,0.0,0.0
1696243056823,-0.015625,0.13476562,-1.0,-0.0625,0.0625,-0.03125,0.0,0.0,0.0
1696243056883,-0.021484375,0.13574219,-0.99902344,0.125,0.0,0.09375,0.0,0.0,0.0
1696243056912,-0.01953125,0.13085938,-0.99609375,-0.0625,0.0,-0.03125,-45.125,66.3125,-98.625
1696243056945,-0.020507812,0.13378906,-1.0019531,-0.1875,0.0625,-0.09375,0.0,0.0,0.0
1696243057005,-0.032226562,0.12597656,-1.0,-0.125,0.09375,-0.03125,0.0,0.0,0.0
1696243057032,-0.017578125,0.13769531,-0.9970703,-0.0625,0.46875,0.03125,0.0,0.0,0.0
1696243057062,-0.021484375,0.13574219,-1.0185547,-0.125,0.34375,-0.03125,0.0,0.0,0.0
1696243057127,-0.015625,0.13476562,-1.0136719,-0.0625,0.09375,-0.09375,0.0,0.0,0.0
1696243057151,-0.026367188,0.13769531,-1.015625,0.0625,0.0625,-0.15625,0.0,0.0,0.0
1696243057181,-0.021484375,0.13574219,-1.0029297,0.0,0.0,-0.15625,0.0,0.0,0.0
1696243057243,-0.025390625,0.13085938,-0.9951172,0.1875,0.0,-0.03125,0.0,0.0,0.0
1696243057275,-0.028320312,0.12988281,-0.9863281,0.0,0.0,-0.15625,0.0,0.0,0.0
1696243057301,-0.0126953125,0.13476562,-0.9902344,-0.0625,0.09375,0.03125,0.0,0.0,0.0
1696243057365,-0.015625,0.125,-1.0087891,-0.40625,0.15625,-0.09375,0.0,0.0,0.0
1696243057391,-0.022460938,0.12890625,-0.99902344,-0.28125,0.21875,-0.09375,-47.125,66.625,-98.4375
1696243057423,-0.0234375,0.13476562,-1.0058594,-0.0625,0.0625,-0.09375,0.0,0.0,0.0
1696243057483,-0.0234375,0.1328125,-1.0117188,0.1875,0.0625,-0.09375,0.0,0.0,0.0
1696243057513,-0.018554688,0.13378906,-1.0039062,0.125,0.0,-0.1875,0.0,0.0,0.0
1696243057544,-0.029296875,0.12988281,-1.0068359,0.125,0.09375,-0.03125,0.0,0.0,0.0
1696243057605,-0.016601562,0.12792969,-0.9980469,0.125,0.0625,-0.09375,0.0,0.0,0.0
1696243057632,-0.021484375,0.13476562,-0.99902344,-0.125,-0.125,0.03125,0.0,0.0,0.0
1696243057667,-0.018554688,0.13574219,-0.9970703,-0.0625,0.21875,0.09375,0.0,0.0,0.0
1696243057723,-0.01953125,0.13671875,-1.0068359,-0.125,0.21875,-0.03125,0.0,0.0,0.0
1696243057754,-0.026367188,0.12988281,-1.0019531,-0.25,0.21875,0.15625,0.0,0.0,0.0
1696243057784,-0.015625,0.12011719,-0.9970703,-0.0625,0.0,0.15625,0.0,0.0,0.0
1696243057844,-0.01953125,0.13378906,-1.0146484,-0.0625,-0.125,0.03125,0.0,0.0,0.0
1696243057873,-0.017578125,0.12597656,-1.0068359,0.3125,0.21875,-0.15625,0.0,0.0,0.0
1696243057901,-0.013671875,0.12890625,-0.99121094,0.375,0.0,-0.15625,-44.875,67.6875,-97.6875
1696243057964,-0.022460938,0.140625,-1.0058594,0.0,-0.125,-0.03125,0.0,0.0,0.0
1696243057992,-0.024414062,0.12890625,-1.0117188,0.0,0.09375,0.09375,0.0,0.0,0.0
1696243058023,-0.017578125,0.123046875,-1.0,-0.34375,0.15625,0.03125,0.0,0.0,0.0
1696243058085,-0.021484375,0.12988281,-0.99316406,-0.46875,0.0625,0.03125,0.0,0.0,0.0
1696243058114,-0.0146484375,0.12792969,-0.9863281,-0.25,0.0,-0.09375,0.0,0.0,0.0
1696243058143,-0.021484375,0.12988281,-1.0068359,-0.0625,0.0625,-0.1875,0.0,0.0,0.0
1696243058204,-0.025390625,0.13476562,-0.99902344,0.375,0.21875,-0.03125,0.0,0.0,0.0
1696243058264,-0.022460938,0.119140625,-0.9970703,0.3125,0.21875,-0.09375,0.0,0.0,0.0
1696243058270,-0.016601562,0.13378906,-1.0107422,0.0625,0.0625,-0.09375,0.0,0.0,0.0
1696243058322,-0.02734375,0.12109375,-1.0078125,-0.0625,-0.0625,-0.03125,0.0,0.0,0.0
1696243058352,-0.029296875,0.12792969,-0.9921875,-0.25,0.0625,-0.09375,0.0,0.0,0.0
1696243058385,-0.025390625,0.12597656,-1.0146484,0.0625,0.15625,0.03125,-45.125,65.5625,-98.625
1696243058441,-0.017578125,0.12402344,-1.0107422,-0.25,0.09375,-0.09375,0.0,0.0,0.0
1696243058471,-0.025390625,0.13671875,-0.99316406,0.0625,0.0,0.03125,0.0,0.0,0.0
1696243058503,-0.01953125,0.12890625,-1.0068359,-0.0625,0.0625,-0.03125,0.0,0.0,0.0
1696243058562,-0.018554688,0.125,-1.0009766,0.125,0.15625,-0.09375,0.0,0.0,0.0
1696243058592,-0.018554688,0.12988281,-0.9980469,-0.125,-0.0625,0.09375,0.0,0.0,0.0
1696243058622,-0.021484375,0.1328125,-0.9921875,-0.0625,-0.0625,-0.15625,0.0,0.0,0.0
1696243058681,-0.029296875,0.13378906,-0.9970703,0.0,0.0625,-0.25,0.0,0.0,0.0
1696243058711,-0.017578125,0.12792969,-1.0263672,0.0,0.15625,0.03125,0.0,0.0,0.0
1696243058744,-0.030273438,0.13574219,-1.0097656,-0.0625,-0.125,-0.09375,0.0,0.0,0.0
1696243058804,-0.020507812,0.13476562,-0.99902344,-0.0625,-0.1875,-0.09375,0.0,0.0,0.0
1696243058833,-0.01953125,0.12988281,-0.9970703,-0.25,0.0,-0.03125,0.0,0.0,0.0
1696243058863,-0.03125,0.12207031,-1.0009766,-0.0625,-0.1875,-0.09375,0.0,0.0,0.0
1696243058924,-0.018554688,0.13378906,-0.9970703,0.0,0.0,-0.09375,-45.875,66.0625,-98.875
1696243058952,-0.020507812,0.12890625,-0.99121094,0.0625,0.09375,-0.09375,0.0,0.0,0.0
1696243058983,-0.024414062,0.12792969,-1.0107422,0.0,0.0,0.03125,0.0,0.0,0.0
1696243059044,-0.022460938,0.12890625,-1.0097656,-0.0625,-0.125,-0.03125,0.0,0.0,0.0
1696243059073,-0.029296875,0.13671875,-1.0078125,0.0,0.15625,-0.03125,0.0,0.0,0.0
1696243059104,-0.028320312,0.13378906,-0.99902344,0.0,0.09375,-0.03125,0.0,0.0,0.0
1696243059163,-0.020507812,0.13378906,-1.0244141,-0.1875,-0.0625,-0.09375,0.0,0.0,0.0
1696243059194,-0.015625,0.13183594,-1.0087891,-0.0625,-0.1875,-0.03125,0.0,0.0,0.0
1696243059222,-0.030273438,0.13183594,-0.9970703,-0.125,-0.125,0.09375,0.0,0.0,0.0
1696243059285,-0.016601562,0.12597656,-1.0039062,-0.0625,0.0,-0.03125,0.0,0.0,0.0
1696243059313,-0.025390625,0.13183594,-0.9980469,0.0,-0.1875,0.09375,0.0,0.0,0.0
1696243059343,-0.022460938,0.13378906,-1.0048828,0.0,-0.0625,-0.09375,0.0,0.0,0.0
1696243059401,-0.017578125,0.13183594,-1.0029297,0.0,0.09375,0.09375,-45.875,66.8125,-98.875
1696243059438,-0.0146484375,0.13183594,-1.0,-0.0625,0.15625,0.03125,0.0,0.0,0.0
1696243059462,-0.020507812,0.13769531,-0.99609375,-0.1875,0.0,-0.03125,0.0,0.0,0.0
1696243059555,-0.033203125,0.1328125,-1.0107422,-0.1875,-0.0625,-0.03125,0.0,0.0,0.0
1696243059561,-0.017578125,0.13183594,-0.99902344,-0.0625,0.0,-0.09375,0.0,0.0,0.0
1696243059583,-0.032226562,0.13085938,-0.9794922,-0.0625,-0.0625,0.03125,0.0,0.0,0.0
1696243059645,-0.025390625,0.1328125,-1.0087891,0.0625,0.0,-0.03125,0.0,0.0,0.0
1696243059673,-0.025390625,0.13476562,-1.0029297,0.125,0.15625,0.09375,0.0,0.0,0.0
1696243059704,-0.020507812,0.12695312,-1.0097656,0.0625,-0.0625,-0.15625,0.0,0.0,0.0
1696243059764,-0.021484375,0.1328125,-1.0019531,0.0625,0.15625,-0.09375,0.0,0.0,0.0
1696243059793,-0.030273438,0.12988281,-0.9980469,0.0,0.34375,0.09375,0.0,0.0,0.0
1696243059828,-0.018554688,0.13769531,-0.9951172,-0.46875,-0.0625,0.03125,0.0,0.0,0.0
1696243059885,-0.0234375,0.12890625,-1.0068359,-0.28125,-0.125,0.03125,0.0,0.0,0.0
1696243059912,-0.022460938,0.13476562,-0.99316406,-0.125,-0.125,0.03125,-44.5625,66.625,-99.5
1696243059942,-0.025390625,0.13085938,-0.99316406,-0.1875,0.09375,0.03125,0.0,0.0,0.0
1696243060006,-0.029296875,0.13378906,-1.0,0.1875,0.09375,-0.09375,0.0,0.0,0.0
1696243060033,-0.032226562,0.12988281,-1.0048828,0.0,-0.1875,-0.09375,0.0,0.0,0.0
1696243060063,-0.026367188,0.13867188,-1.0107422,0.1875,0.0625,-0.09375,0.0,0.0,0.0
1696243060122,-0.02734375,0.12695312,-1.0166016,0.125,0.21875,0.03125,0.0,0.0,0.0
1696243060156,-0.030273438,0.13867188,-1.0078125,-0.1875,0.0,-0.09375,0.0,0.0,0.0
1696243060184,-0.017578125,0.13476562,-1.0068359,-0.40625,-0.1875,-0.15625,0.0,0.0,0.0
1696243060243,-0.01953125,0.13574219,-1.0039062,-0.53125,-0.1875,0.09375,0.0,0.0,0.0
1696243060272,-0.02734375,0.13476562,-1.0,-0.125,-0.1875,0.03125,0.0,0.0,0.0
1696243060305,-0.013671875,0.12207031,-1.0009766,0.25,0.0,-0.09375,0.0,0.0,0.0
1696243060364,-0.021484375,0.12792969,-1.0048828,0.1875,0.28125,-0.15625,0.0,0.0,0.0
1696243060394,-0.025390625,0.12792969,-0.9970703,0.0625,0.15625,-0.09375,-46.375,65.875,-100.25
1696243060425,-0.0126953125,0.12792969,-1.0185547,-0.125,0.09375,0.09375,0.0,0.0,0.0
1696243060485,-0.028320312,0.140625,-1.0048828,-0.1875,0.15625,-0.09375,0.0,0.0,0.0
1696243060550,-0.02734375,0.125,-1.0097656,-0.125,0.0,-0.09375,0.0,0.0,0.0
1696243060556,-0.017578125,0.13378906,-1.0058594,-0.375,-0.09375,0.03125,0.0,0.0,0.0
1696243060604,-0.028320312,0.13671875,-1.0029297,0.0,-0.15625,-0.09375,0.0,0.0,0.0
1696243060633,-0.024414062,0.12402344,-0.98828125,0.0,-0.03125,-0.09375,0.0,0.0,0.0
1696243060664,-0.026367188,0.119140625,-1.0029297,0.40625,0.1875,-0.03125,0.0,0.0,0.0
1696243060725,-0.016601562,0.1328125,-0.99902344,0.40625,0.125,-0.09375,0.0,0.0,0.0
1696243060755,-0.020507812,0.13085938,-0.99902344,0.0625,-0.03125,-0.15625,0.0,0.0,0.0
1696243060781,-0.020507812,0.12597656,-1.0009766,0.0,0.0625,-0.15625,0.0,0.0,0.0
1696243060842,-0.022460938,0.12792969,-0.98828125,-0.3125,0.125,-0.03125,0.0,0.0,0.0
1696243060873,-0.022460938,0.12890625,-0.99316406,-0.0625,-0.09375,-0.03125,0.0,0.0,0.0
1696243060904,-0.022460938,0.12402344,-0.9941406,0.0625,0.0625,0.03125,-45.4375,66.0625,-98.625
1696243060965,-0.0126953125,0.140625,-0.9941406,0.0,0.0,-0.03125,0.0,0.0,0.0
1696243060993,-0.028320312,0.13183594,-0.9980469,0.3125,0.25,-0.03125,0.0,0.0,0.0
1696243061023,-0.021484375,0.13574219,-1.0107422,0.1875,0.0625,0.09375,0.0,0.0,0.0
1696243061087,-0.021484375,0.12597656,-1.0068359,0.0625,0.125,-0.03125,0.0,0.0,0.0
1696243061114,-0.0146484375,0.12597656,-0.9980469,0.0625,0.1875,-0.03125,0.0,0.0,0.0
1696243061143,-0.025390625,0.13085938,-1.0029297,0.0625,0.125,0.15625,0.0,0.0,0.0
1696243061204,-0.01953125,0.13183594,-0.9951172,0.0,-0.09375,-0.15625,0.0,0.0,0.0
1696243061236,-0.029296875,0.123046875,-0.99316406,-0.125,-0.03125,0.03125,0.0,0.0,0.0
1696243061262,-0.017578125,0.13769531,-0.9765625,0.0,0.0625,-0.03125,0.0,0.0,0.0
1696243061324,-0.016601562,0.13476562,-0.99609375,-0.4375,-0.03125,-0.03125,0.0,0.0,0.0
1696243061352,-0.028320312,0.13476562,-1.0,0.125,0.0625,0.03125,0.0,0.0,0.0
1696243061382,-0.02734375,0.12695312,-1.0039062,0.0625,0.125,-0.09375,-45.125,65.0,-101.0
1696243061442,-0.026367188,0.13574219,-1.0029297,0.25,0.1875,-0.09375,0.0,0.0,0.0
1696243061472,-0.02734375,0.13671875,-0.9980469,0.125,0.0625,-0.09375,0.0,0.0,0.0
1696243061532,-0.022460938,0.13769531,-1.0058594,0.0,-0.15625,-0.15625,0.0,0.0,0.0
1696243061561,-0.0048828125,0.13574219,-1.0048828,-0.125,0.0,-0.09375,0.0,0.0,0.0
1696243061592,-0.02734375,0.13867188,-0.99316406,-0.375,0.0,-0.03125,0.0,0.0,0.0
1696243061621,-0.015625,0.1328125,-0.99609375,-0.0625,0.0,0.03125,0.0,0.0,0.0
1696243061682,-0.01171875,0.13476562,-1.0039062,0.125,0.125,-0.09375,0.0,0.0,0.0
1696243061711,-0.02734375,0.13476562,-1.0146484,0.40625,0.0,-0.03125,0.0,0.0,0.0
1696243061743,-0.022460938,0.12695312,-1.0078125,0.1875,0.0,-0.21875,0.0,0.0,0.0
1696243061803,-0.02734375,0.12695312,-0.99902344,0.0625,0.1875,-0.03125,0.0,0.0,0.0
1696243061832,-0.025390625,0.13183594,-1.0087891,-0.125,0.0,-0.09375,0.0,0.0,0.0
1696243061864,-0.018554688,0.13867188,-0.9980469,-0.1875,0.0625,-0.15625,0.0,0.0,0.0
1696243061924,-0.026367188,0.1328125,-1.0185547,-0.125,0.0625,-0.09375,-44.5625,64.6875,-99.1875
1696243061952,-0.021484375,0.1328125,-1.0048828,0.0625,0.0625,-0.03125,0.0,0.0,0.0
1696243061983,-0.01953125,0.1328125,-0.9970703,0.1875,0.0625,-0.25,0.0,0.0,0.0
1696243062044,-0.0146484375,0.13867188,-1.0078125,0.25,0.125,0.15625,0.0,0.0,0.0
1696243062072,-0.026367188,0.12792969,-1.0078125,0.3125,0.125,-0.15625,0.0,0.0,0.0
1696243062103,-0.021484375,0.13574219,-0.9970703,-0.125,-0.21875,-0.03125,0.0,0.0,0.0
1696243062162,-0.021484375,0.13574219,-1.0078125,-0.1875,-0.15625,-0.09375,0.0,0.0,0.0
1696243062192,-0.022460938,0.13183594,-1.0,-0.1875,0.375,0.03125,0.0,0.0,0.0
1696243062221,-0.025390625,0.140625,-1.0019531,-0.25,0.0625,-0.09375,0.0,0.0,0.0
1696243062282,-0.025390625,0.12792969,-1.0078125,0.0625,-0.15625,-0.03125,0.0,0.0,0.0
1696243062314,-0.017578125,0.13378906,-1.0087891,0.125,-0.15625,-0.09375,0.0,0.0,0.0
1696243062342,-0.017578125,0.13671875,-0.99609375,0.1875,-0.03125,-0.03125,0.0,0.0,0.0
1696243062401,-0.018554688,0.12011719,-0.9892578,0.0,-0.15625,0.03125,-46.375,66.625,-98.125
1696243062433,-0.029296875,0.140625,-1.0029297,-0.1875,-0.53125,-0.03125,0.0,0.0,0.0
1696243062463,-0.022460938,0.12597656,-0.9873047,-0.0625,-0.09375,0.03125,0.0,0.0,0.0
1696243062524,-0.021484375,0.13476562,-0.9970703,-0.25,0.125,-0.09375,0.0,0.0,0.0
1696243062552,-0.021484375,0.13378906,-0.99609375,0.125,0.125,-0.09375,0.0,0.0,0.0
1696243062589,-0.020507812,0.13867188,-1.0,0.0625,-0.09375,-0.03125,0.0,0.0,0.0
1696243062644,-0.018554688,0.12792969,-1.0029297,0.125,-0.03125,0.03125,0.0,0.0,0.0
1696243062672,-0.026367188,0.13476562,-0.99902344,0.1875,-0.03125,-0.09375,0.0,0.0,0.0
1696243062703,-0.026367188,0.12402344,-1.0068359,0.0,-0.03125,-0.03125,0.0,0.0,0.0
1696243062763,-0.026367188,0.13476562,-1.0048828,0.0,-0.09375,-0.09375,0.0,0.0,0.0
1696243062824,-0.020507812,0.12988281,-0.99902344,-0.125,-0.03125,-0.03125,0.0,0.0,0.0
1696243062832,-0.01953125,0.12792969,-0.9902344,-0.0625,-0.03125,0.03125,0.0,0.0,0.0
1696243062883,-0.017578125,0.14160156,-1.0,0.0,-0.03125,0.03125,0.0,0.0,0.0
1696243062913,-0.020507812,0.140625,-1.0009766,-0.0625,-0.03125,0.03125,-45.625,67.25,-99.8125
1696243062943,-0.021484375,0.13085938,-0.98828125,0.0625,-0.34375,-0.09375,0.0,0.0,0.0
1696243063003,-0.028320312,0.12695312,-0.984375,0.1875,0.0,-0.03125,0.0,0.0,0.0
1696243063033,-0.025390625,0.12890625,-0.99316406,0.0625,0.1875,0.03125,0.0,0.0,0.0
1696243063063,-0.021484375,0.12988281,-1.0058594,-0.3125,-0.15625,0.21875,0.0,0.0,0.0
1696243063126,-0.021484375,0.12890625,-1.0097656,0.0,0.0,0.03125,0.0,0.0,0.0
1696243063151,-0.026367188,0.1328125,-1.0117188,-0.0625,-0.09375,-0.03125,0.0,0.0,0.0
1696243063183,-0.0146484375,0.12792969,-1.0039062,0.03125,0.15625,-0.09375,0.0,0.0,0.0
1696243063245,-0.024414062,0.13183594,-1.0,0.03125,-0.21875,-0.03125,0.0,0.0,0.0
1696243063273,-0.015625,0.12597656,-0.98828125,0.0,-0.15625,0.03125,0.0,0.0,0.0
1696243063301,-0.026367188,0.13574219,-1.0087891,0.0,0.03125,-0.03125,0.0,0.0,0.0
1696243063370,-0.01953125,0.13183594,-0.99316406,0.09375,0.21875,0.03125,0.0,0.0,0.0
1696243063392,-0.016601562,0.12402344,-1.0048828,-0.0625,0.03125,0.09375,-45.625,66.625,-98.125
1696243063423,-0.016601562,0.13085938,-1.0019531,-0.0625,-0.09375,-0.03125,0.0,0.0,0.0
1696243063484,-0.018554688,0.13378906,-1.0039062,0.0,-0.15625,-0.125,0.0,0.0,0.0
1696243063515,-0.02734375,0.13476562,-0.9970703,0.0,-0.03125,0.03125,0.0,0.0,0.0
1696243063542,-0.0234375,0.14160156,-0.99902344,0.0,-0.15625,-0.09375,0.0,0.0,0.0
1696243063602,-0.021484375,0.1328125,-0.9980469,0.15625,-0.09375,-0.09375,0.0,0.0,0.0
1696243063635,-0.0234375,0.13183594,-0.98339844,0.0,0.03125,-0.09375,0.0,0.0,0.0
1696243063662,-0.02734375,0.13378906,-1.0009766,-0.0625,0.03125,-0.09375,0.0,0.0,0.0
1696243063725,-0.03125,0.12597656,-1.0058594,0.0,-0.09375,-0.09375,0.0,0.0,0.0
1696243063750,-0.02734375,0.12597656,-1.0048828,0.15625,-0.09375,-0.09375,0.0,0.0,0.0
1696243063782,-0.022460938,0.13964844,-1.0029297,0.28125,0.09375,-0.09375,0.0,0.0,0.0
1696243063844,-0.020507812,0.13671875,-1.0019531,0.09375,0.09375,0.03125,0.0,0.0,0.0
1696243063872,-0.020507812,0.13476562,-1.0068359,0.0,-0.03125,-0.03125,0.0,0.0,0.0
1696243063903,-0.026367188,0.125,-1.0,0.0,0.03125,-0.09375,-48.0,66.0625,-99.375
1696243063964,-0.022460938,0.12890625,-1.0087891,0.0,0.15625,-0.1875,0.0,0.0,0.0
1696243063992,-0.022460938,0.140625,-0.98828125,0.09375,0.15625,-0.03125,0.0,0.0,0.0
1696243064021,-0.0234375,0.13476562,-1.0019531,0.0,-0.25,-0.03125,0.0,0.0,0.0
1696243064083,-0.022460938,0.12695312,-0.9941406,0.21875,-0.15625,-0.125,0.0,0.0,0.0
1696243064113,-0.024414062,0.13574219,-0.9892578,0.09375,0.21875,-0.09375,0.0,0.0,0.0
1696243064143,-0.030273438,0.13085938,-1.0029297,0.09375,0.09375,-0.1875,0.0,0.0,0.0
1696243064203,-0.021484375,0.13476562,-1.0,0.15625,0.09375,-0.125,0.0,0.0,0.0
1696243064264,-0.01953125,0.13378906,-0.99902344,-0.0625,-0.03125,-0.09375,0.0,0.0,0.0
1696243064269,-0.01953125,0.12695312,-0.99609375,0.03125,0.21875,-0.1875,0.0,0.0,0.0
1696243064361,-0.02734375,0.12988281,-1.0009766,0.28125,0.15625,-0.03125,0.0,0.0,0.0
1696243064370,-0.021484375,0.12988281,-1.0019531,0.15625,0.09375,-0.1875,0.0,0.0,0.0
1696243064381,-0.02734375,0.12890625,-1.0029297,0.0,-0.09375,-0.125,-45.875,67.5625,-98.625
1696243064444,-0.02734375,0.13574219,-1.0029297,0.03125,0.21875,0.03125,0.0,0.0,0.0
1696243064472,-0.026367188,0.12988281,-1.0009766,0.09375,0.28125,0.03125,0.0,0.0,0.0
1696243064501,-0.013671875,0.123046875,-0.9892578,0.09375,0.15625,-0.125,0.0,0.0,0.0
1696243064564,-0.024414062,0.13671875,-1.0048828,0.0,-0.09375,-0.125,0.0,0.0,0.0
1696243064592,-0.030273438,0.13183594,-1.0019531,0.40625,0.21875,-0.125,0.0,0.0,0.0
1696243064622,-0.01953125,0.13964844,-1.0048828,0.0,0.15625,-0.125,0.0,0.0,0.0
1696243064685,-0.01953125,0.1328125,-0.9951172,0.0,0.03125,-0.1875,0.0,0.0,0.0
1696243064715,-0.01171875,0.12597656,-0.9970703,0.0,-0.03125,-0.03125,0.0,0.0,0.0
1696243064744,-0.025390625,0.1328125,-0.99316406,0.09375,0.09375,-0.125,0.0,0.0,0.0
1696243064805,-0.028320312,0.1328125,-0.9814453,0.15625,0.03125,-0.125,0.0,0.0,0.0
1696243064833,-0.015625,0.1328125,-0.9970703,0.09375,-0.03125,-0.125,0.0,0.0,0.0
1696243064865,-0.026367188,0.13085938,-1.0078125,0.28125,0.09375,-0.09375,0.0,0.0,0.0
1696243064924,-0.022460938,0.12792969,-1.0048828,0.09375,0.21875,-0.1875,-45.125,65.5625,-99.625
1696243064953,-0.017578125,0.12988281,-1.0019531,0.03125,-0.03125,-0.09375,0.0,0.0,0.0
1696243064984,-0.0234375,0.12109375,-1.0117188,0.09375,0.09375,-0.1875,0.0,0.0,0.0
1696243065046,-0.025390625,0.12988281,-1.0087891,0.0,-0.15625,-0.125,0.0,0.0,0.0
1696243065103,-0.030273438,0.13378906,-0.9892578,0.03125,0.15625,-0.09375,0.0,0.0,0.0
1696243065110,-0.022460938,0.13183594,-1.0117188,0.03125,0.03125,-0.03125,0.0,0.0,0.0
1696243065162,-0.026367188,0.13183594,-1.0009766,0.0,0.03125,-0.125,0.0,0.0,0.0
1696243065193,-0.0234375,0.13671875,-0.9921875,0.03125,0.15625,-0.1875,0.0,0.0,0.0
1696243065221,-0.0234375,0.13574219,-1.0058594,0.03125,0.09375,-0.03125,0.0,0.0,0.0
1696243065283,-0.015625,0.13378906,-1.0087891,0.21875,0.21875,-0.09375,0.0,0.0,0.0
1696243065311,-0.025390625,0.12988281,-1.0029297,0.03125,0.09375,-0.125,0.0,0.0,0.0
1696243065344,-0.022460938,0.12988281,-0.9941406,-0.0625,0.03125,-0.03125,0.0,0.0,0.0
1696243065404,-0.01953125,0.1328125,-1.0,0.15625,0.03125,-0.03125,-46.5,66.0625,-98.875
1696243065463,-0.029296875,0.13085938,-0.99609375,0.03125,0.03125,-0.125,0.0,0.0,0.0
1696243065467,-0.013671875,0.13183594,-0.99902344,0.09375,0.53125,-0.09375,0.0,0.0,0.0
1696243065522,-0.022460938,0.13183594,-0.9921875,-0.0625,0.15625,-0.09375,0.0,0.0,0.0
1696243065554,-0.022460938,0.13183594,-1.0039062,0.0,-0.03125,-0.09375,0.0,0.0,0.0
1696243065582,-0.017578125,0.12597656,-0.99902344,0.0,-0.03125,-0.125,0.0,0.0,0.0
1696243065643,-0.025390625,0.13378906,-1.0048828,0.0,0.03125,-0.1875,0.0,0.0,0.0
1696243065672,-0.02734375,0.13964844,-1.0117188,0.09375,0.09375,-0.125,0.0,0.0,0.0
1696243065703,-0.020507812,0.12890625,-1.0078125,0.03125,-0.15625,-0.1875,0.0,0.0,0.0
1696243065763,-0.02734375,0.13183594,-0.9970703,0.15625,0.09375,-0.09375,0.0,0.0,0.0
1696243065793,-0.021484375,0.13671875,-1.0,0.15625,0.21875,-0.25,0.0,0.0,0.0
1696243065824,-0.021484375,0.12988281,-1.0058594,0.03125,0.28125,-0.1875,0.0,0.0,0.0
1696243065882,-0.018554688,0.12792969,-1.0,0.03125,0.15625,-0.1875,0.0,0.0,0.0
1696243065911,-0.015625,0.13183594,-1.0146484,-0.0625,0.03125,-0.125,-45.875,66.0625,-97.875
1696243065943,-0.021484375,0.13378906,-1.0078125,0.0,0.03125,-0.125,0.0,0.0,0.0
1696243066001,-0.026367188,0.12988281,-1.0068359,0.03125,-0.03125,-0.125,0.0,0.0,0.0
1696243066033,-0.028320312,0.12890625,-0.99902344,0.03125,-0.03125,-0.09375,0.0,0.0,0.0
1696243066062,-0.026367188,0.12695312,-1.0048828,0.03125,0.09375,-0.03125,0.0,0.0,0.0
1696243066124,-0.025390625,0.12890625,-1.0009766,0.03125,0.21875,-0.25,0.0,0.0,0.0
1696243066153,-0.0234375,0.13378906,-1.0078125,0.03125,0.15625,-0.125,0.0,0.0,0.0
1696243066183,-0.016601562,0.12890625,-1.0048828,0.09375,0.09375,-0.1875,0.0,0.0,0.0
1696243066244,-0.024414062,0.13476562,-1.0029297,0.09375,0.09375,-0.03125,0.0,0.0,0.0
1696243066274,-0.0234375,0.140625,-1.0019531,0.0,-0.21875,-0.09375,0.0,0.0,0.0
1696243066302,-0.018554688,0.12988281,-1.0009766,0.15625,-0.03125,-0.125,0.0,0.0,0.0
1696243066364,-0.01953125,0.1328125,-0.9980469,0.15625,0.15625,-0.125,0.0,0.0,0.0
1696243066392,-0.01953125,0.13183594,-1.0166016,0.15625,0.15625,-0.09375,-45.625,65.875,-98.75
1696243066423,-0.02734375,0.13183594,-0.9941406,-0.1875,0.09375,-0.09375,0.0,0.0,0.0
1696243066485,-0.0126953125,0.13769531,-1.0,0.0,-0.03125,-0.03125,0.0,0.0,0.0
1696243066512,-0.01953125,0.140625,-0.98828125,0.09375,-0.03125,-0.125,0.0,0.0,0.0
1696243066544,-0.028320312,0.13574219,-1.0039062,0.15625,0.09375,-0.03125,0.0,0.0,0.0
1696243066606,-0.017578125,0.1328125,-0.99609375,0.0,-0.09375,-0.03125,0.0,0.0,0.0
1696243066632,-0.022460938,0.13085938,-1.0029297,0.09375,-0.15625,-0.125,0.0,0.0,0.0
1696243066663,-0.022460938,0.1328125,-1.0019531,0.03125,0.09375,-0.125,0.0,0.0,0.0
1696243066722,-0.03125,0.13378906,-1.0048828,0.03125,0.15625,-0.09375,0.0,0.0,0.0
1696243066754,-0.0146484375,0.13476562,-0.9951172,0.0,-0.03125,-0.03125,0.0,0.0,0.0
1696243066784,-0.025390625,0.13574219,-1.0048828,0.03125,-0.15625,-0.09375,0.0,0.0,0.0
1696243066845,-0.017578125,0.13671875,-0.9970703,0.0,-0.15625,-0.03125,0.0,0.0,0.0
1696243066873,-0.01953125,0.12988281,-1.0087891,0.03125,-0.09375,-0.125,0.0,0.0,0.0
1696243066934,-0.025390625,0.125,-0.9902344,0.21875,0.15625,-0.125,-44.5625,66.1875,-99.8125
1696243066963,-0.02734375,0.13085938,-1.0058594,0.09375,-0.03125,-0.09375,0.0,0.0,0.0
1696243066995,-0.01953125,0.12207031,-1.0087891,0.0,0.03125,-0.09375,0.0,0.0,0.0
1696243067024,-0.015625,0.13378906,-1.0146484,0.0,0.03125,-0.125,0.0,0.0,0.0
1696243067083,-0.018554688,0.13378906,-1.0029297,-0.09375,0.03125,-0.09375,0.0,0.0,0.0
1696243067114,-0.021484375,0.13476562,-1.0009766,-0.125,-0.09375,-0.09375,0.0,0.0,0.0
1696243067146,-0.021484375,0.12402344,-1.0058594,-0.125,-0.3125,-0.09375,0.0,0.0,0.0
1696243067205,-0.032226562,0.13378906,-1.0029297,0.15625,0.15625,0.0625,0.0,0.0,0.0
1696243067233,-0.01953125,0.13085938,-0.984375,0.03125,0.09375,0.0625,0.0,0.0,0.0
1696243067263,-0.020507812,0.13183594,-1.0058594,-0.09375,0.03125,-0.03125,0.0,0.0,0.0
1696243067325,-0.024414062,0.1328125,-0.99902344,-0.09375,-0.15625,-0.03125,0.0,0.0,0.0
1696243067384,-0.01953125,0.13378906,-0.99121094,-0.25,-0.09375,0.1875,0.0,0.0,0.0
1696243067411,-0.024414062,0.12890625,-1.0097656,-0.09375,-0.03125,0.0,-44.5625,65.4375,-98.125
1696243067442,-0.024414062,0.13671875,-0.9921875,0.03125,-0.09375,-0.09375,0.0,0.0,0.0
1696243067474,-0.026367188,0.13183594,-0.9951172,0.03125,-0.25,-0.03125,0.0,0.0,0.0
1696243067561,-0.0234375,0.140625,-0.9970703,-0.09375,-0.03125,0.0,0.0,0.0,0.0
1696243067568,-0.022460938,0.13085938,-0.99316406,-0.03125,0.03125,0.125,0.0,0.0,0.0
1696243067592,-0.021484375,0.1328125,-1.0078125,0.03125,-0.03125,0.0625,0.0,0.0,0.0
1696243067655,-0.016601562,0.1328125,-1.0029297,-0.125,-0.09375,0.0,0.0,0.0,0.0
1696243067684,-0.029296875,0.13867188,-1.0039062,-0.09375,-0.09375,-0.03125,0.0,0.0,0.0
1696243067713,-0.021484375,0.13085938,-1.0058594,-0.09375,-0.15625,0.0625,0.0,0.0,0.0
1696243067774,-0.016601562,0.12890625,-0.9951172,0.15625,0.03125,0.0,0.0,0.0,0.0
1696243067837,-0.018554688,0.13476562,-1.0136719,-0.03125,-0.09375,-0.03125,0.0,0.0,0.0
1696243067842,-0.03125,0.13574219,-1.0019531,-0.03125,0.03125,0.0,0.0,0.0,0.0
1696243067893,-0.022460938,0.13476562,-0.984375,-0.09375,-0.09375,0.0,0.0,0.0,0.0
1696243067924,-0.02734375,0.13378906,-1.0078125,-0.03125,-0.03125,0.0625,-44.25,65.125,-97.375
1696243067954,-0.0234375,0.12597656,-1.0058594,0.03125,0.21875,0.125,0.0,0.0,0.0
1696243068015,-0.018554688,0.13183594,-1.0078125,-0.09375,0.21875,0.0625,0.0,0.0,0.0
1696243068041,-0.024414062,0.13476562,-1.0078125,-0.03125,0.03125,-0.09375,0.0,0.0,0.0
1696243068072,-0.018554688,0.13671875,-0.9951172,0.03125,-0.09375,0.0,0.0,0.0,0.0
1696243068132,-0.022460938,0.13476562,-1.0117188,-0.125,-0.03125,0.125,0.0,0.0,0.0
1696243068163,-0.030273438,0.13476562,-0.9970703,0.15625,0.03125,0.0,0.0,0.0,0.0
1696243068195,-0.021484375,0.13085938,-0.9921875,0.03125,-0.15625,-0.09375,0.0,0.0,0.0
1696243068255,-0.01953125,0.1328125,-0.9970703,-0.09375,-0.25,0.0,0.0,0.0,0.0
1696243068281,-0.021484375,0.13085938,-0.9902344,-0.09375,-0.03125,0.1875,0.0,0.0,0.0
1696243068316,-0.021484375,0.13769531,-1.0166016,-0.09375,-0.03125,-0.03125,0.0,0.0,0.0
1696243068373,-0.028320312,0.1328125,-1.0,-0.03125,-0.03125,-0.09375,0.0,0.0,0.0
1696243068402,-0.018554688,0.13476562,-1.0087891,-0.03125,-0.15625,0.0,-45.125,66.8125,-98.875
1696243068432,-0.021484375,0.13574219,-1.0,-0.03125,-0.03125,-0.09375,0.0,0.0,0.0
1696243068495,-0.013671875,0.13476562,-0.9951172,0.03125,0.03125,-0.09375,0.0,0.0,0.0
1696243068528,-0.020507812,0.1328125,-1.0185547,0.03125,0.09375,-0.15625,0.0,0.0,0.0
1696243068557,-0.022460938,0.13671875,-1.0146484,-0.03125,0.03125,0.125,0.0,0.0,0.0
1696243068615,-0.020507812,0.13671875,-1.0019531,-0.09375,0.09375,0.1875,0.0,0.0,0.0
1696243068686,-0.017578125,0.13183594,-0.99902344,-0.03125,-0.15625,0.0,0.0,0.0,0.0
1696243068691,-0.0234375,0.12890625,-0.9951172,0.15625,0.15625,-0.03125,0.0,0.0,0.0
1696243068732,-0.022460938,0.123046875,-0.99609375,-0.03125,0.46875,0.0,0.0,0.0,0.0
1696243068770,-0.022460938,0.12988281,-0.9970703,-0.125,-0.03125,-0.09375,0.0,0.0,0.0
1696243068791,-0.0234375,0.13671875,-0.9941406,-0.03125,0.09375,-0.03125,0.0,0.0,0.0
1696243068853,-0.022460938,0.13671875,-1.0078125,-0.09375,0.03125,-0.15625,0.0,0.0,0.0
1696243068882,-0.02734375,0.12109375,-0.9970703,-0.03125,0.15625,-0.03125,0.0,0.0,0.0
1696243068913,-0.024414062,0.12792969,-0.98828125,0.03125,-0.09375,0.0,-46.0625,66.9375,-98.125
1696243068977,-0.01953125,0.13769531,-1.0039062,-0.03125,-0.25,-0.09375,0.0,0.0,0.0
1696243069006,-0.021484375,0.13769531,-1.0029297,0.09375,0.03125,-0.09375,0.0,0.0,0.0
1696243069032,-0.015625,0.1328125,-1.0039062,0.03125,0.15625,0.0,0.0,0.0,0.0
1696243069096,-0.0146484375,0.12890625,-0.99121094,-0.03125,0.15625,0.0625,0.0,0.0,0.0
1696243069123,-0.022460938,0.13867188,-0.99902344,-0.03125,0.09375,0.0,0.0,0.0,0.0
1696243069155,-0.022460938,0.12890625,-1.0117188,-0.125,-0.03125,-0.03125,0.0,0.0,0.0
1696243069213,-0.025390625,0.13085938,-0.9951172,-0.03125,-0.03125,0.0,0.0,0.0,0.0
1696243069248,-0.021484375,0.13183594,-1.0009766,0.09375,0.03125,0.125,0.0,0.0,0.0
1696243069272,-0.017578125,0.13964844,-0.9970703,-0.03125,-0.03125,0.0,0.0,0.0,0.0
1696243069336,-0.015625,0.12695312,-0.9941406,0.03125,0.03125,0.0,0.0,0.0,0.0
1696243069364,-0.0234375,0.13183594,-1.0009766,-0.03125,0.09375,0.0,0.0,0.0,0.0
1696243069393,-0.018554688,0.13964844,-1.0107422,-0.03125,0.21875,-0.09375,-45.875,66.3125,-98.3125
1696243069454,-0.02734375,0.12695312,-1.0068359,-0.09375,-0.03125,0.0,0.0,0.0,0.0
1696243069483,-0.01953125,0.12890625,-1.0039062,0.09375,0.03125,-0.03125,0.0,0.0,0.0
1696243069514,-0.02734375,0.13671875,-0.99121094,0.03125,0.21875,-0.03125,0.0,0.0,0.0
1696243069574,-0.013671875,0.13476562,-0.9980469,-0.03125,0.09375,-0.03125,0.0,0.0,0.0
1696243069602,-0.016601562,0.13085938,-0.99121094,0.03125,0.15625,-0.03125,0.0,0.0,0.0
1696243069664,-0.020507812,0.12890625,-1.0039062,-0.09375,-0.09375,0.0,0.0,0.0,0.0
1696243069693,-0.025390625,0.12695312,-0.9941406,-0.03125,0.03125,0.0625,0.0,0.0,0.0
1696243069732,-0.020507812,0.123046875,-1.0019531,0.21875,0.09375,0.0625,0.0,0.0,0.0
1696243069756,-0.021484375,0.13476562,-0.9941406,-0.09375,-0.1875,0.0,0.0,0.0,0.0
1696243069815,-0.03125,0.12792969,-0.9951172,-0.09375,-0.03125,-0.03125,0.0,0.0,0.0
1696243069843,-0.0234375,0.1328125,-0.9951172,-0.03125,0.09375,-0.03125,0.0,0.0,0.0
1696243069906,-0.018554688,0.13769531,-1.0029297,0.03125,0.09375,-0.03125,0.0,0.0,0.0
1696243069962,-0.022460938,0.13183594,-1.0136719,-0.09375,-0.03125,-0.03125,-46.1875,66.3125,-98.625
1696243069966,-0.02734375,0.123046875,-1.0078125,-0.1875,-0.03125,0.0,0.0,0.0,0.0
1696243069992,-0.022460938,0.13671875,-0.99316406,-0.09375,-0.03125,-0.03125,0.0,0.0,0.0
1696243070059,-0.030273438,0.13085938,-1.0097656,0.09375,0.28125,0.0,0.0,0.0,0.0
1696243070086,-0.0146484375,0.125,-1.0009766,0.03125,-0.09375,-0.03125,0.0,0.0,0.0
1696243070113,-0.01953125,0.13183594,-1.0048828,-0.03125,-0.03125,0.0,0.0,0.0,0.0
1696243070174,-0.016601562,0.12597656,-1.0048828,-0.09375,-0.03125,-0.09375,0.0,0.0,0.0
1696243070239,-0.033203125,0.13183594,-1.0029297,0.09375,0.03125,-0.15625,0.0,0.0,0.0
1696243070246,-0.026367188,0.12597656,-0.9970703,0.03125,0.03125,0.125,0.0,0.0,0.0
1696243070294,-0.025390625,0.12890625,-1.0019531,-0.09375,-0.15625,0.0,0.0,0.0,0.0
1696243070324,-0.02734375,0.13476562,-0.9892578,-0.1875,-0.03125,-0.09375,0.0,0.0,0.0
1696243070358,-0.017578125,0.13085938,-0.9980469,0.09375,-0.03125,0.0,0.0,0.0,0.0
1696243070412,-0.020507812,0.12792969,-1.0068359,0.15625,-0.03125,0.0,-46.9375,67.0625,-97.875
1696243070444,-0.021484375,0.13378906,-1.0,0.15625,0.15625,0.0,0.0,0.0,0.0
1696243070472,-0.020507812,0.12597656,-0.9951172,-0.09375,0.28125,0.0,0.0,0.0,0.0
1696243070534,-0.015625,0.12597656,-0.9951172,-0.09375,-0.03125,0.0,0.0,0.0,0.0
1696243070564,-0.022460938,0.1328125,-1.0009766,-0.125,-0.15625,0.0,0.0,0.0,0.0
1696243070592,-0.02734375,0.13574219,-1.0019531,0.09375,0.21875,-0.09375,0.0,0.0,0.0
1696243070655,-0.018554688,0.13476562,-1.0009766,0.03125,0.03125,-0.15625,0.0,0.0,0.0
1696243070684,-0.020507812,0.12792969,-1.0,0.03125,-0.15625,-0.03125,0.0,0.0,0.0
1696243070715,-0.024414062,0.13476562,-0.9980469,0.03125,0.03125,0.125,0.0,0.0,0.0
1696243070778,-0.024414062,0.12695312,-0.99121094,0.03125,0.09375,0.0625,0.0,0.0,0.0
1696243070805,-0.022460938,0.13378906,-0.99609375,-0.03125,0.09375,-0.03125,0.0,0.0,0.0
1696243070835,-0.021484375,0.13964844,-1.0,-0.03125,-0.03125,-0.03125,0.0,0.0,0.0
1696243070895,-0.0234375,0.13183594,-0.9941406,-0.125,-0.25,0.0,0.0,0.0,0.0
1696243070922,-0.018554688,0.12890625,-1.0019531,-0.03125,-0.09375,0.0625,-43.625,66.3125,-99.9375
1696243070953,-0.0234375,0.13183594,-1.0,0.03125,-0.09375,0.0625,0.0,0.0,0.0
1696243071012,-0.018554688,0.13085938,-0.99316406,-0.03125,-0.15625,0.0625,0.0,0.0,0.0
1696243071046,-0.018554688,0.13574219,-1.0019531,-0.03125,-0.03125,0.125,0.0,0.0,0.0
1696243071072,-0.022460938,0.13476562,-1.0,-0.03125,-0.03125,-0.03125,0.0,0.0,0.0
1696243071161,-0.018554688,0.13476562,-1.0,-0.03125,-0.09375,0.0,0.0,0.0,0.0
1696243071165,-0.017578125,0.12695312,-0.9902344,-0.03125,-0.09375,-0.03125,0.0,0.0,0.0
1696243071190,-0.026367188,0.12890625,-1.0019531,-0.09375,-0.09375,0.0,0.0,0.0,0.0
1696243071289,-0.0234375,0.13574219,-1.0097656,-0.09375,-0.25,0.0,0.0,0.0,0.0
1696243071296,-0.025390625,0.13378906,-1.0009766,0.03125,-0.15625,-0.09375,0.0,0.0,0.0
1696243071311,-0.015625,0.13085938,-0.9970703,0.09375,0.34375,0.125,0.0,0.0,0.0
1696243071376,-0.015625,0.13183594,-0.9980469,-0.09375,0.09375,-0.09375,0.0,0.0,0.0
1696243071404,-0.018554688,0.13574219,-1.0048828,-0.3125,-0.03125,0.0625,-45.875,66.8125,-99.625
1696243071437,-0.01953125,0.14355469,-1.0166016,-0.125,-0.15625,0.0625,0.0,0.0,0.0
1696243071526,-0.021484375,0.12695312,-1.0029297,-0.1875,-0.03125,0.125,0.0,0.0,0.0
1696243071536,-0.0146484375,0.12695312,-0.99902344,0.03125,-0.03125,-0.03125,0.0,0.0,0.0
1696243071552,-0.028320312,0.13085938,-1.0039062,-0.03125,-0.375,0.0625,0.0,0.0,0.0
1696243071613,-0.013671875,0.12695312,-1.0117188,-0.09375,-0.1875,0.0,0.0,0.0,0.0
1696243071642,-0.026367188,0.1328125,-1.0107422,-0.03125,0.03125,-0.03125,0.0,0.0,0.0
1696243071675,-0.020507812,0.13574219,-0.99902344,-0.03125,0.09375,0.0625,0.0,0.0,0.0
1696243071732,-0.018554688,0.1328125,-1.0048828,-0.03125,0.03125,0.0625,0.0,0.0,0.0
1696243071762,-0.028320312,0.13769531,-0.99316406,-0.1875,-0.15625,0.1875,0.0,0.0,0.0
1696243071791,-0.01953125,0.12597656,-1.0019531,-0.09375,-0.25,-0.03125,0.0,0.0,0.0
1696243071884,-0.021484375,0.12890625,-1.0,-0.09375,-0.09375,0.125,0.0,0.0,0.0
1696243071891,-0.020507812,0.12988281,-1.0068359,0.03125,-0.15625,0.125,0.0,0.0,0.0
1696243071945,-0.022460938,0.14257812,-1.0078125,-0.03125,-0.03125,0.1875,-46.0625,65.875,-97.6875
1696243071972,-0.02734375,0.12890625,-1.0058594,-0.09375,-0.09375,0.0,0.0,0.0,0.0
1696243072003,-0.01953125,0.12890625,-1.0205078,-0.09375,-0.09375,0.125,0.0,0.0,0.0
1696243072033,-0.03515625,0.13964844,-1.0126953,-0.09375,-0.15625,0.0625,0.0,0.0,0.0
1696243072129,-0.013671875,0.12890625,-0.9941406,-0.03125,0.15625,0.125,0.0,0.0,0.0
1696243072135,-0.026367188,0.125,-1.0068359,-0.09375,-0.1875,0.0,0.0,0.0,0.0
1696243072153,-0.01953125,0.12988281,-0.9892578,-0.09375,-0.1875,0.25,0.0,0.0,0.0
1696243072218,-0.034179688,0.12207031,-1.0039062,-0.1875,-0.15625,0.125,0.0,0.0,0.0
1696243072243,-0.015625,0.1328125,-1.0068359,-0.09375,0.03125,0.0625,0.0,0.0,0.0
1696243072273,-0.0234375,0.12988281,-0.9980469,-0.09375,-0.15625,0.125,0.0,0.0,0.0
1696243072334,-0.0234375,0.12792969,-1.0117188,-0.09375,-0.09375,0.0625,0.0,0.0,0.0
1696243072363,-0.0234375,0.1328125,-0.9951172,-0.125,-0.25,0.125,0.0,0.0,0.0
1696243072393,-0.020507812,0.12597656,-1.0,-0.03125,0.03125,0.0625,-45.3125,64.6875,-99.8125
1696243072452,-0.022460938,0.12792969,-0.99316406,0.03125,-0.03125,0.0,0.0,0.0,0.0
1696243072481,-0.022460938,0.13183594,-0.98339844,-0.09375,-0.15625,0.0625,0.0,0.0,0.0
1696243072511,-0.025390625,0.13476562,-1.0078125,-0.09375,-0.1875,0.0,0.0,0.0,0.0
1696243072572,-0.025390625,0.13769531,-1.0126953,-0.09375,-0.1875,0.0625,0.0,0.0,0.0
1696243072602,-0.022460938,0.12402344,-0.9951172,-0.03125,0.03125,0.125,0.0,0.0,0.0
1696243072633,-0.017578125,0.12792969,-1.0039062,-0.09375,-0.09375,-0.03125,0.0,0.0,0.0
1696243072693,-0.026367188,0.13183594,-0.99902344,-0.09375,-0.09375,0.0625,0.0,0.0,0.0
1696243072723,-0.022460938,0.13085938,-1.0039062,-0.25,-0.15625,0.0625,0.0,0.0,0.0
1696243072752,-0.03125,0.13964844,-1.0029297,-0.09375,-0.09375,0.125,0.0,0.0,0.0
1696243072814,-0.022460938,0.12890625,-1.0068359,0.03125,0.28125,0.125,0.0,0.0,0.0
1696243072849,-0.025390625,0.13183594,-0.99902344,-0.03125,0.09375,0.0625,0.0,0.0,0.0
1696243072873,-0.024414062,0.13476562,-1.0048828,-0.125,-0.09375,0.0625,0.0,0.0,0.0
1696243072937,-0.015625,0.12792969,-0.9970703,-0.09375,-0.09375,0.1875,-45.125,65.5625,-98.625
1696243072963,-0.030273438,0.13183594,-0.9941406,-0.03125,0.09375,0.125,0.0,0.0,0.0
1696243072993,-0.021484375,0.12792969,-0.9970703,0.15625,0.09375,0.0,0.0,0.0,0.0
1696243073053,-0.021484375,0.1328125,-1.0,-0.03125,-0.1875,-0.03125,0.0,0.0,0.0
1696243073084,-0.020507812,0.13671875,-1.0039062,-0.09375,-0.1875,-0.03125,0.0,0.0,0.0
1696243073116,-0.018554688,0.12988281,-0.99902344,0.03125,0.15625,-0.03125,0.0,0.0,0.0
1696243073175,-0.021484375,0.13378906,-1.015625,-0.09375,0.15625,0.1875,0.0,0.0,0.0
1696243073204,-0.01953125,0.12402344,-0.99902344,0.03125,0.03125,0.0,0.0,0.0,0.0
1696243073235,-0.030273438,0.13867188,-1.0019531,-0.03125,0.03125,-0.03125,0.0,0.0,0.0
1696243073292,-0.020507812,0.13378906,-0.9941406,-0.03125,0.09375,0.0625,0.0,0.0,0.0
1696243073321,-0.018554688,0.13476562,-0.9951172,-0.03125,0.09375,0.125,0.0,0.0,0.0
1696243073382,-0.020507812,0.12695312,-1.0087891,0.09375,0.03125,0.0,0.0,0.0,0.0
1696243073414,-0.015625,0.13867188,-1.0009766,-0.03125,0.03125,-0.09375,-46.5,66.3125,-98.875
1696243073444,-0.028320312,0.13769531,-0.9873047,-0.1875,-0.09375,0.125,0.0,0.0,0.0
1696243073474,-0.013671875,0.13574219,-1.0029297,-0.03125,0.03125,0.0,0.0,0.0,0.0
1696243073535,-0.0234375,0.123046875,-1.0107422,0.03125,0.09375,0.0625,0.0,0.0,0.0
1696243073566,-0.030273438,0.13574219,-0.99316406,0.0625,0.5625,0.0,0.0,0.0,0.0
1696243073592,-0.026367188,0.12207031,-0.9814453,-0.25,0.09375,0.0,0.0,0.0,0.0
1696243073655,-0.016601562,0.12988281,-0.98535156,-0.0625,-0.03125,0.0625,0.0,0.0,0.0
1696243073688,-0.021484375,0.12792969,-0.9980469,-0.125,-0.03125,-0.125,0.0,0.0,0.0
1696243073748,-0.024414062,0.13085938,-0.98828125,-0.0625,0.09375,-0.0625,0.0,0.0,0.0
1696243073773,-0.024414062,0.119140625,-1.0087891,0.125,0.09375,0.0625,0.0,0.0,0.0
1696243073806,-0.026367188,0.12792969,-1.0175781,-0.0625,-0.15625,0.0625,0.0,0.0,0.0
1696243073836,-0.020507812,0.13476562,-1.0078125,0.0625,0.09375,-0.0625,0.0,0.0,0.0
1696243073895,-0.024414062,0.13769531,-0.99902344,-0.0625,0.09375,-0.125,0.0,0.0,0.0
1696243073921,-0.015625,0.13476562,-0.99609375,0.0,0.03125,-0.0625,-45.3125,66.9375,-99.8125
1696243073952,-0.021484375,0.1328125,-1.0058594,0.0625,0.03125,-0.125,0.0,0.0,0.0
1696243074015,-0.028320312,0.12890625,-0.9951172,0.0,0.03125,-0.0625,0.0,0.0,0.0
1696243074042,-0.033203125,0.12695312,-1.0048828,-0.0625,-0.09375,-0.125,0.0,0.0,0.0
1696243074071,-0.018554688,0.13378906,-1.0048828,0.125,0.09375,0.125,0.0,0.0,0.0
1696243074137,-0.02734375,0.12890625,-1.0126953,0.0,0.09375,0.125,0.0,0.0,0.0
1696243074163,-0.01171875,0.13085938,-1.0136719,0.0625,0.09375,0.0,0.0,0.0,0.0
1696243074225,-0.015625,0.13085938,-0.99902344,0.0,0.03125,0.0,0.0,0.0,0.0
1696243074258,-0.029296875,0.13378906,-1.0048828,0.0,0.03125,-0.0625,0.0,0.0,0.0
1696243074284,-0.030273438,0.12402344,-1.0039062,-0.125,-0.09375,-0.0625,0.0,0.0,0.0
1696243074313,-0.022460938,0.13378906,-0.9892578,-0.0625,-0.03125,0.0,0.0,0.0,0.0
1696243074408,-0.028320312,0.12792969,-0.9921875,0.125,0.09375,0.0,0.0,0.0,0.0
1696243074414,-0.022460938,0.13183594,-1.0087891,0.1875,0.03125,0.0,-45.625,66.9375,-99.1875
1696243074432,-0.0234375,0.13378906,-0.99609375,-0.25,0.09375,0.0,0.0,0.0,0.0
1696243074495,-0.0126953125,0.13085938,-1.0068359,-0.0625,-0.03125,0.0,0.0,0.0,0.0
1696243074523,-0.0234375,0.13476562,-0.9941406,-0.1875,-0.03125,0.0625,0.0,0.0,0.0
1696243074555,-0.02734375,0.13574219,-1.0205078,0.0,0.09375,0.0,0.0,0.0,0.0
1696243074612,-0.0146484375,0.13476562,-1.0048828,-0.125,-0.09375,0.0625,0.0,0.0,0.0
1696243074643,-0.021484375,0.12792969,-1.0009766,-0.125,-0.15625,-0.0625,0.0,0.0,0.0
1696243074674,-0.034179688,0.1328125,-1.0058594,0.0,-0.03125,-0.0625,0.0,0.0,0.0
1696243074736,-0.0234375,0.13378906,-0.99902344,0.0,0.09375,0.0625,0.0,0.0,0.0
1696243074761,-0.028320312,0.12890625,-1.0195312,0.0,0.09375,0.0,0.0,0.0,0.0
1696243074792,-0.017578125,0.12402344,-0.9980469,0.0,-0.03125,-0.1875,0.0,0.0,0.0
1696243074855,-0.026367188,0.13574219,-1.0039062,-0.0625,0.03125,0.0,0.0,0.0,0.0
1696243074884,-0.018554688,0.13378906,-1.0097656,-0.125,-0.03125,0.125,0.0,0.0,0.0
1696243074912,-0.020507812,0.13671875,-1.0,-0.0625,-0.03125,-0.0625,-45.4375,66.8125,-98.875
1696243074973,-0.0234375,0.12207031,-1.0058594,0.0625,-0.03125,0.0625,0.0,0.0,0.0
1696243075005,-0.022460938,0.13378906,-0.99316406,0.0,0.09375,0.0625,0.0,0.0,0.0
1696243075035,-0.0234375,0.12597656,-1.0097656,0.0625,0.03125,0.0625,0.0,0.0,0.0
1696243075094,-0.01953125,0.13964844,-1.0058594,-0.0625,-0.03125,0.125,0.0,0.0,0.0
1696243075122,-0.0234375,0.12988281,-0.9980469,-0.0625,-0.09375,-0.125,0.0,0.0,0.0
1696243075152,-0.022460938,0.12890625,-1.0019531,-0.0625,-0.21875,0.0625,0.0,0.0,0.0
1696243075215,-0.020507812,0.12597656,-1.0126953,-0.0625,-0.09375,-0.0625,0.0,0.0,0.0
1696243075243,-0.013671875,0.13183594,-1.0009766,0.0,-0.21875,0.0,0.0,0.0,0.0
1696243075271,-0.029296875,0.12695312,-0.9892578,0.1875,0.03125,0.0,0.0,0.0,0.0
1696243075334,-0.025390625,0.12890625,-1.0,0.0625,0.15625,-0.0625,0.0,0.0,0.0
1696243075363,-0.020507812,0.12792969,-1.0039062,-0.25,0.09375,0.0625,0.0,0.0,0.0
1696243075394,-0.015625,0.13476562,-0.99902344,-0.0625,-0.03125,-0.0625,-44.875,66.1875,-99.5
1696243075455,-0.021484375,0.13085938,-1.0078125,-0.125,-0.15625,0.0625,0.0,0.0,0.0
1696243075482,-0.025390625,0.13183594,-0.9921875,0.0,-0.09375,-0.0625,0.0,0.0,0.0
1696243075512,-0.0234375,0.1328125,-1.0039062,-0.0625,-0.34375,-0.0625,0.0,0.0,0.0
1696243075572,-0.028320312,0.12890625,-0.99609375,-0.0625,-0.34375,-0.0625,0.0,0.0,0.0
1696243075601,-0.022460938,0.1328125,-0.99316406,-0.0625,-0.09375,0.125,0.0,0.0,0.0
1696243075631,-0.020507812,0.13085938,-0.98828125,-0.125,0.15625,0.0625,0.0,0.0,0.0
1696243075693,-0.03125,0.13769531,-1.0,-0.0625,-0.03125,0.125,0.0,0.0,0.0
1696243075727,-0.030273438,0.1328125,-1.0126953,-0.0625,-0.15625,-0.125,0.0,0.0,0.0
1696243075752,-0.01953125,0.13964844,-1.0107422,-0.0625,-0.15625,0.0625,0.0,0.0,0.0
1696243075816,-0.01953125,0.1328125,-1.0019531,-0.0625,-0.09375,-0.125,0.0,0.0,0.0
1696243075848,-0.029296875,0.1328125,-1.0087891,-0.0625,-0.15625,0.125,0.0,0.0,0.0
1696243075872,-0.022460938,0.13085938,-1.0068359,-0.0625,-0.09375,-0.125,0.0,0.0,0.0
1696243075935,-0.030273438,0.123046875,-0.98339844,0.0,0.03125,0.0625,-45.4375,66.3125,-99.625
1696243075964,-0.02734375,0.13085938,-1.0048828,-0.125,-0.09375,0.125,0.0,0.0,0.0
1696243076029,-0.018554688,0.13574219,-1.0175781,-0.1875,-0.03125,0.1875,0.0,0.0,0.0
1696243076053,-0.026367188,0.13378906,-1.0087891,-0.0625,-0.15625,0.0625,0.0,0.0,0.0
1696243076084,-0.01953125,0.13085938,-1.0185547,-0.0625,-0.28125,0.125,0.0,0.0,0.0
1696243076111,-0.0234375,0.13183594,-1.0019531,0.0625,0.03125,0.0,0.0,0.0,0.0
1696243076175,-0.0234375,0.13574219,-0.99316406,0.0625,0.3125,0.0,0.0,0.0,0.0
1696243076203,-0.0234375,0.13183594,-0.9951172,-0.21875,-0.09375,-0.09375,0.0,0.0,0.0
1696243076232,-0.030273438,0.1328125,-1.0039062,-0.03125,0.03125,-0.09375,0.0,0.0,0.0
1696243076294,-0.021484375,0.13671875,-0.9951172,-0.21875,-0.03125,-0.03125,0.0,0.0,0.0
1696243076324,-0.028320312,0.12695312,-1.0097656,0.03125,0.09375,0.03125,0.0,0.0,0.0
1696243076354,-0.01953125,0.13574219,-1.0058594,0.09375,-0.09375,-0.03125,0.0,0.0,0.0
1696243076416,-0.026367188,0.13867188,-0.99902344,0.03125,-0.28125,-0.09375,-44.6875,67.8125,-98.875
1696243076446,-0.02734375,0.13769531,-1.0019531,0.03125,-0.03125,0.03125,0.0,0.0,0.0
1696243076537,-0.016601562,0.13574219,-0.99902344,0.03125,0.09375,0.03125,0.0,0.0,0.0
1696243076546,-0.017578125,0.13671875,-1.0019531,0.03125,0.15625,-0.09375,0.0,0.0,0.0
1696243076561,-0.022460938,0.12695312,-1.0058594,-0.09375,-0.03125,-0.03125,0.0,0.0,0.0
1696243076628,-0.0234375,0.12597656,-1.0019531,0.03125,0.09375,0.09375,0.0,0.0,0.0
1696243076653,-0.020507812,0.12890625,-0.9980469,0.03125,-0.03125,0.03125,0.0,0.0,0.0
1696243076684,-0.026367188,0.12695312,-1.0039062,-0.03125,-0.03125,-0.03125,0.0,0.0,0.0
1696243076712,-0.017578125,0.13476562,-1.0009766,-0.03125,-0.09375,-0.09375,0.0,0.0,0.0
1696243076775,-0.01953125,0.12402344,-0.99316406,-0.03125,0.09375,-0.09375,0.0,0.0,0.0
1696243076803,-0.018554688,0.13867188,-1.0048828,-0.03125,-0.03125,0.03125,0.0,0.0,0.0
1696243076833,-0.029296875,0.13769531,-0.99609375,0.03125,-0.03125,0.09375,0.0,0.0,0.0
1696243076891,-0.028320312,0.13867188,-1.015625,0.09375,0.15625,0.03125,0.0,0.0,0.0
1696243076923,-0.026367188,0.1328125,-0.98535156,0.03125,0.375,-0.21875,-45.125,66.8125,-99.9375
1696243076952,-0.017578125,0.13867188,-1.0009766,-0.15625,-0.09375,0.03125,0.0,0.0,0.0
1696243077014,-0.021484375,0.13378906,-1.0039062,-0.03125,0.03125,-0.15625,0.0,0.0,0.0
1696243077043,-0.01953125,0.13378906,-1.0087891,-0.21875,0.03125,0.09375,0.0,0.0,0.0
1696243077074,-0.024414062,0.12890625,-0.99902344,0.03125,0.15625,-0.09375,0.0,0.0,0.0
1696243077133,-0.01953125,0.13671875,-1.0078125,0.21875,-0.03125,0.03125,0.0,0.0,0.0
1696243077164,-0.025390625,0.12890625,-1.0019531,-0.03125,-0.15625,-0.09375,0.0,0.0,0.0
1696243077196,-0.02734375,0.12792969,-0.98828125,0.03125,0.09375,-0.09375,0.0,0.0,0.0
1696243077255,-0.029296875,0.12890625,-0.9951172,0.03125,0.15625,-0.09375,0.0,0.0,0.0
1696243077285,-0.018554688,0.13183594,-1.0078125,-0.09375,0.03125,-0.09375,0.0,0.0,0.0
1696243077314,-0.025390625,0.12695312,-0.9941406,0.03125,0.15625,-0.09375,0.0,0.0,0.0
1696243077374,-0.029296875,0.13671875,-0.9951172,-0.09375,-0.09375,0.03125,0.0,0.0,0.0
1696243077402,-0.018554688,0.12792969,-1.0058594,-0.03125,0.09375,-0.03125,-46.0625,66.9375,-99.8125
1696243077432,-0.026367188,0.13183594,-0.9980469,0.03125,0.09375,-0.09375,0.0,0.0,0.0
1696243077494,-0.022460938,0.12890625,-1.0048828,-0.03125,0.03125,-0.03125,0.0,0.0,0.0
1696243077523,-0.022460938,0.13867188,-1.0117188,0.03125,0.15625,0.03125,0.0,0.0,0.0
1696243077554,-0.015625,0.13378906,-1.0097656,-0.03125,0.15625,-0.09375,0.0,0.0,0.0
1696243077611,-0.024414062,0.13671875,-0.9980469,-0.03125,-0.03125,-0.09375,0.0,0.0,0.0
1696243077641,-0.02734375,0.1328125,-0.9980469,-0.03125,-0.03125,-0.09375,0.0,0.0,0.0
1696243077673,-0.017578125,0.13085938,-1.0117188,0.03125,0.15625,-0.03125,0.0,0.0,0.0
1696243077734,-0.022460938,0.1328125,-1.0058594,-0.21875,0.15625,-0.09375,0.0,0.0,0.0
1696243077763,-0.026367188,0.13964844,-1.0087891,0.09375,0.15625,-0.03125,0.0,0.0,0.0
1696243077793,-0.026367188,0.13671875,-0.9902344,-0.15625,0.03125,-0.09375,0.0,0.0,0.0
1696243077853,-0.021484375,0.1328125,-1.0039062,-0.03125,0.09375,0.03125,0.0,0.0,0.0
1696243077885,-0.026367188,0.12792969,-1.0097656,0.09375,0.09375,-0.09375,0.0,0.0,0.0
1696243077913,-0.01171875,0.1328125,-1.0039062,-0.03125,-0.21875,-0.09375,-46.0625,66.625,-99.1875
1696243077975,-0.029296875,0.125,-0.9970703,0.03125,0.15625,-0.09375,0.0,0.0,0.0
1696243078003,-0.020507812,0.12890625,-0.9824219,-0.03125,0.15625,-0.03125,0.0,0.0,0.0
1696243078034,-0.022460938,0.1328125,-0.9921875,0.03125,0.09375,0.03125,0.0,0.0,0.0
1696243078095,-0.022460938,0.1328125,-1.0039062,0.03125,0.09375,-0.03125,0.0,0.0,0.0
1696243078125,-0.020507812,0.13476562,-1.0117188,-0.09375,-0.03125,-0.03125,0.0,0.0,0.0
1696243078159,-0.0234375,0.125,-1.0,0.03125,0.03125,-0.09375,0.0,0.0,0.0
1696243078213,-0.022460938,0.12890625,-0.9892578,0.09375,0.09375,0.03125,0.0,0.0,0.0
1696243078243,-0.017578125,0.12402344,-1.0058594,0.03125,0.09375,-0.03125,0.0,0.0,0.0
1696243078275,-0.026367188,0.1171875,-1.0009766,-0.03125,0.09375,0.09375,0.0,0.0,0.0
1696243078332,-0.0234375,0.125,-0.9921875,-0.03125,0.03125,-0.15625,0.0,0.0,0.0
1696243078361,-0.0146484375,0.140625,-1.0058594,-0.03125,0.09375,-0.09375,0.0,0.0,0.0
1696243078391,-0.018554688,0.1328125,-1.0097656,-0.15625,0.03125,0.09375,-44.375,66.0625,-97.5625
1696243078483,-0.018554688,0.13085938,-0.9892578,-0.03125,-0.03125,-0.28125,0.0,0.0,0.0
1696243078513,-0.021484375,0.12890625,-1.0029297,0.03125,-0.03125,0.03125,0.0,0.0,0.0
1696243078518,-0.028320312,0.13378906,-0.9921875,0.09375,0.15625,-0.09375,0.0,0.0,0.0
1696243078572,-0.022460938,0.13867188,-1.0126953,0.15625,0.3125,-0.09375,0.0,0.0,0.0
1696243078607,-0.0234375,0.12890625,-1.0097656,-0.09375,0.25,-0.09375,0.0,0.0,0.0
1696243078635,-0.022460938,0.12890625,-1.0126953,0.03125,0.15625,-0.21875,0.0,0.0,0.0
1696243078695,-0.020507812,0.1328125,-1.0048828,-0.03125,0.03125,-0.15625,0.0,0.0,0.0
1696243078725,-0.021484375,0.13769531,-1.0009766,0.03125,0.15625,0.03125,0.0,0.0,0.0
1696243078785,-0.017578125,0.123046875,-0.9970703,-0.03125,-0.03125,-0.21875,0.0,0.0,0.0
1696243078812,-0.016601562,0.12792969,-1.0019531,-0.03125,-0.09375,-0.21875,0.0,0.0,0.0
1696243078844,-0.021484375,0.13964844,-1.0078125,0.09375,0.03125,-0.09375,0.0,0.0,0.0
1696243078872,-0.0234375,0.12792969,-0.9941406,-0.03125,0.15625,-0.09375,0.0,0.0,0.0
1696243078938,-0.030273438,0.123046875,-1.0019531,0.03125,0.15625,-0.09375,-46.0625,65.4375,-98.4375
1696243078965,-0.021484375,0.12597656,-1.0048828,-0.03125,-0.03125,0.03125,0.0,0.0,0.0
1696243078993,-0.020507812,0.1328125,-1.0126953,-0.03125,-0.03125,-0.09375,0.0,0.0,0.0
1696243079055,-0.020507812,0.12597656,-0.99609375,-0.03125,0.09375,-0.09375,0.0,0.0,0.0
1696243079113,-0.020507812,0.12890625,-1.0019531,0.15625,-0.09375,-0.03125,0.0,0.0,0.0
1696243079118,-0.028320312,0.12695312,-0.9941406,0.03125,0.03125,-0.09375,0.0,0.0,0.0
1696243079170,-0.028320312,0.12695312,-0.99902344,-0.03125,-0.03125,-0.03125,0.0,0.0,0.0
1696243079204,-0.030273438,0.1328125,-1.0039062,-0.09375,0.03125,-0.03125,0.0,0.0,0.0
1696243079233,-0.028320312,0.13183594,-1.0,0.03125,0.21875,0.03125,0.0,0.0,0.0
1696243079295,-0.020507812,0.13085938,-1.0048828,0.03125,0.15625,0.03125,0.0,0.0,0.0
1696243079323,-0.0234375,0.12890625,-0.98828125,0.15625,0.09375,0.03125,0.0,0.0,0.0
1696243079357,-0.020507812,0.13476562,-1.0029297,-0.03125,-0.03125,-0.03125,0.0,0.0,0.0
1696243079414,-0.020507812,0.1328125,-1.0019531,0.03125,0.09375,0.09375,-45.625,66.625,-99.1875
1696243079444,-0.020507812,0.13769531,-0.99609375,0.03125,-0.03125,0.03125,0.0,0.0,0.0
1696243079475,-0.032226562,0.13378906,-0.9902344,0.15625,0.15625,0.09375,0.0,0.0,0.0
1696243079535,-0.009765625,0.12890625,-0.9980469,0.21875,0.25,-0.03125,0.0,0.0,0.0
1696243079563,-0.017578125,0.13867188,-1.0,-0.09375,0.15625,-0.15625,0.0,0.0,0.0
1696243079593,-0.0234375,0.13671875,-1.0107422,-0.15625,-0.09375,0.03125,0.0,0.0,0.0
1696243079655,-0.020507812,0.12109375,-1.0234375,-0.09375,-0.09375,0.03125,0.0,0.0,0.0
1696243079684,-0.026367188,0.12792969,-1.0039062,0.03125,-0.03125,0.09375,0.0,0.0,0.0
1696243079714,-0.017578125,0.12597656,-0.9941406,-0.03125,-0.03125,-0.03125,0.0,0.0,0.0
1696243079773,-0.032226562,0.13574219,-1.0019531,0.03125,-0.34375,-0.15625,0.0,0.0,0.0
1696243079802,-0.020507812,0.12207031,-0.9902344,0.09375,-0.03125,-0.09375,0.0,0.0,0.0
1696243079831,-0.022460938,0.12109375,-1.0019531,-0.15625,-0.03125,0.09375,0.0,0.0,0.0
1696243079895,-0.022460938,0.13085938,-1.0039062,0.09375,0.15625,-0.03125,0.0,0.0,0.0
1696243079923,-0.018554688,0.12988281,-1.0087891,-0.03125,0.03125,0.03125,-45.125,67.0625,-96.8125
1696243079958,-0.024414062,0.12988281,-1.015625,-0.03125,-0.15625,-0.15625,0.0,0.0,0.0
1696243080014,-0.021484375,0.13085938,-1.0087891,0.09375,-0.09375,0.03125,0.0,0.0,0.0
1696243080042,-0.02734375,0.13671875,-0.9980469,0.03125,-0.09375,-0.03125,0.0,0.0,0.0
1696243080075,-0.01953125,0.13867188,-1.0029297,0.15625,-0.03125,0.03125,0.0,0.0,0.0
1696243080137,-0.024414062,0.14355469,-0.99902344,-0.03125,-0.09375,-0.03125,0.0,0.0,0.0
1696243080162,-0.022460938,0.1328125,-0.9951172,-0.09375,-0.09375,-0.09375,0.0,0.0,0.0
1696243080193,-0.0234375,0.13378906,-1.0009766,-0.09375,-0.03125,-0.09375,0.0,0.0,0.0
1696243080256,-0.024414062,0.12792969,-0.9970703,-0.09375,0.03125,0.09375,0.0,0.0,0.0
1696243080313,-0.029296875,0.12890625,-0.9941406,0.09375,0.09375,0.09375,0.0,0.0,0.0
1696243080318,-0.022460938,0.13378906,-1.0,-0.03125,-0.21875,-0.03125,0.0,0.0,0.0
1696243080375,-0.026367188,0.13085938,-1.0058594,0.03125,-0.03125,-0.15625,0.0,0.0,0.0
1696243080404,-0.026367188,0.13671875,-0.9892578,0.21875,0.21875,0.03125,-44.25,66.625,-99.5
1696243080432,-0.028320312,0.13183594,-1.0,-0.15625,0.03125,-0.09375,0.0,0.0,0.0
1696243080493,-0.0146484375,0.13183594,-1.0097656,-0.03125,0.03125,-0.03125,0.0,0.0,0.0
1696243080527,-0.021484375,0.12988281,-1.0087891,-0.03125,-0.15625,0.03125,0.0,0.0,0.0
1696243080554,-0.0146484375,0.12890625,-0.9951172,-0.15625,-0.09375,0.03125,0.0,0.0,0.0
1696243080611,-0.022460938,0.13769531,-1.0107422,0.03125,0.03125,0.03125,0.0,0.0,0.0
1696243080641,-0.022460938,0.12792969,-1.0009766,-0.03125,-0.28125,-0.09375,0.0,0.0,0.0
1696243080674,-0.022460938,0.12011719,-1.0058594,-0.09375,-0.03125,-0.03125,0.0,0.0,0.0
1696243080733,-0.015625,0.12890625,-1.0048828,0.03125,0.21875,-0.03125,0.0,0.0,0.0
1696243080768,-0.02734375,0.12890625,-1.0029297,-0.03125,0.15625,-0.03125,0.0,0.0,0.0
1696243080792,-0.021484375,0.13476562,-1.0136719,-0.03125,-0.09375,0.03125,0.0,0.0,0.0
1696243080853,-0.025390625,0.12988281,-0.99316406,-0.15625,-0.09375,0.09375,0.0,0.0,0.0
1696243080887,-0.016601562,0.12988281,-1.0019531,-0.03125,0.03125,-0.09375,0.0,0.0,0.0
1696243080943,-0.024414062,0.1328125,-1.0058594,0.03125,-0.03125,-0.09375,-45.125,65.5625,-98.625
1696243080974,-0.0234375,0.1328125,-0.9980469,-0.09375,-0.03125,-0.09375,0.0,0.0,0.0
1696243081005,-0.021484375,0.12792969,-1.0029297,-0.09375,-0.03125,0.09375,0.0,0.0,0.0
1696243081064,-0.022460938,0.13085938,-0.9765625,-0.09375,0.03125,0.03125,0.0,0.0,0.0
1696243081091,-0.024414062,0.13183594,-1.0078125,-0.09375,0.03125,0.09375,0.0,0.0,0.0
1696243081123,-0.024414062,0.12695312,-1.0087891,0.03125,0.09375,-0.03125,0.0,0.0,0.0
1696243081152,-0.020507812,0.13671875,-1.0,-0.03125,-0.15625,-0.15625,0.0,0.0,0.0
1696243081212,-0.0146484375,0.13378906,-1.0019531,0.09375,0.03125,-0.09375,0.0,0.0,0.0
1696243081243,-0.026367188,0.13378906,-0.9921875,0.03125,0.3125,0.03125,0.0,0.0,0.0
1696243081272,-0.0234375,0.13085938,-1.0087891,-0.21875,-0.09375,-0.03125,0.0,0.0,0.0
1696243081331,-0.016601562,0.13867188,-0.9951172,-0.03125,-0.09375,0.03125,0.0,0.0,0.0
1696243081362,-0.025390625,0.13085938,-0.9941406,-0.09375,0.03125,0.03125,0.0,0.0,0.0
1696243081392,-0.018554688,0.13476562,-0.99121094,0.03125,0.03125,-0.03125,-45.3125,66.1875,-100.5625
1696243081453,-0.0146484375,0.1328125,-0.99902344,0.03125,0.03125,-0.15625,0.0,0.0,0.0
1696243081484,-0.0107421875,0.123046875,-1.0,-0.03125,-0.21875,-0.09375,0.0,0.0,0.0
1696243081513,-0.013671875,0.12695312,-0.99609375,0.03125,0.21875,0.03125,0.0,0.0,0.0
1696243081573,-0.015625,0.13574219,-0.9980469,-0.03125,0.09375,-0.03125,0.0,0.0,0.0
1696243081602,-0.021484375,0.13671875,-1.0009766,0.09375,0.15625,-0.09375,0.0,0.0,0.0
1696243081632,-0.020507812,0.13476562,-1.0253906,-0.09375,0.09375,0.03125,0.0,0.0,0.0
1696243081693,-0.020507812,0.12988281,-0.99316406,-0.09375,0.03125,0.03125,0.0,0.0,0.0
1696243081722,-0.020507812,0.13378906,-0.99902344,0.15625,0.09375,-0.03125,0.0,0.0,0.0
1696243081752,-0.028320312,0.140625,-1.0166016,0.09375,0.25,-0.09375,0.0,0.0,0.0
1696243081814,-0.02734375,0.13378906,-1.0058594,0.09375,0.09375,-0.03125,0.0,0.0,0.0
1696243081841,-0.018554688,0.13476562,-1.0068359,0.03125,0.09375,-0.09375,0.0,0.0,0.0
1696243081872,-0.026367188,0.13964844,-1.0087891,0.03125,0.15625,-0.09375,0.0,0.0,0.0
1696243081934,-0.01953125,0.13085938,-1.0078125,0.09375,0.03125,-0.21875,-46.0625,65.875,-99.5
1696243081963,-0.028320312,0.13085938,-0.9892578,0.03125,0.375,-0.09375,0.0,0.0,0.0
1696243081991,-0.01953125,0.13183594,-1.0048828,0.09375,0.25,0.03125,0.0,0.0,0.0
1696243082051,-0.0146484375,0.12890625,-0.99902344,-0.15625,-0.03125,-0.15625,0.0,0.0,0.0
1696243082082,-0.024414062,0.12402344,-1.0107422,0.09375,-0.09375,-0.09375,0.0,0.0,0.0
1696243082146,-0.026367188,0.12890625,-0.99902344,0.03125,0.15625,-0.03125,0.0,0.0,0.0
1696243082172,-0.030273438,0.13085938,-1.0,0.15625,0.21875,-0.03125,0.0,0.0,0.0
1696243082203,-0.03125,0.12890625,-0.9951172,-0.03125,0.03125,0.03125,0.0,0.0,0.0
1696243082232,-0.02734375,0.1328125,-1.0058594,-0.03125,-0.15625,-0.03125,0.0,0.0,0.0
1696243082292,-0.026367188,0.13964844,-1.0048828,0.15625,0.21875,-0.21875,0.0,0.0,0.0
1696243082322,-0.02734375,0.125,-1.0058594,0.03125,0.09375,-0.09375,0.0,0.0,0.0
1696243082351,-0.0234375,0.12792969,-0.99609375,0.09375,0.09375,-0.09375,0.0,0.0,0.0
1696243082411,-0.022460938,0.125,-0.9980469,-0.09375,0.03125,-0.03125,-45.125,66.8125,-98.3125
1696243082446,-0.016601562,0.13574219,-1.0136719,-0.09375,0.03125,-0.15625,0.0,0.0,0.0
1696243082473,-0.030273438,0.12988281,-0.99902344,0.15625,0.15625,-0.03125,0.0,0.0,0.0
1696243082534,-0.021484375,0.12988281,-0.9970703,0.03125,0.21875,0.03125,0.0,0.0,0.0
1696243082626,-0.017578125,0.13378906,-1.0048828,0.03125,0.03125,-0.21875,0.0,0.0,0.0
1696243082628,-0.016601562,0.13964844,-0.9892578,0.03125,0.09375,-0.09375,0.0,0.0,0.0
1696243082684,-0.028320312,0.13476562,-1.0048828,0.09375,0.15625,-0.03125,0.0,0.0,0.0
1696243082686,-0.018554688,0.13378906,-1.0029297,0.03125,-0.03125,0.03125,0.0,0.0,0.0
1696243082710,-0.02734375,0.12890625,-1.0,0.03125,0.15625,-0.09375,0.0,0.0,0.0
1696243082801,-0.01953125,0.13378906,-1.0019531,0.03125,0.25,-0.03125,0.0,0.0,0.0
1696243082804,-0.021484375,0.12402344,-1.0,0.09375,0.25,-0.09375,0.0,0.0,0.0
1696243082832,-0.025390625,0.13476562,-1.0009766,-0.15625,0.3125,-0.03125,0.0,0.0,0.0
1696243082896,-0.01953125,0.12792969,-1.0019531,0.09375,0.15625,-0.09375,0.0,0.0,0.0
1696243082924,-0.016601562,0.12792969,-1.0019531,-0.09375,0.03125,-0.03125,-44.25,66.9375,-99.1875
1696243082952,-0.022460938,0.13378906,-1.0039062,-0.03125,0.03125,-0.09375,0.0,0.0,0.0
1696243083012,-0.0234375,0.13476562,-1.0009766,0.03125,0.03125,0.03125,0.0,0.0,0.0
1696243083041,-0.021484375,0.12695312,-1.0039062,0.03125,-0.15625,-0.15625,0.0,0.0,0.0
1696243083073,-0.0234375,0.12792969,-0.9941406,0.03125,0.15625,0.09375,0.0,0.0,0.0
1696243083132,-0.017578125,0.125,-1.0009766,0.03125,0.21875,0.09375,0.0,0.0,0.0
1696243083162,-0.026367188,0.12695312,-1.0019531,0.03125,0.09375,-0.03125,0.0,0.0,0.0
1696243083192,-0.020507812,0.12988281,-1.0039062,0.03125,0.09375,-0.15625,0.0,0.0,0.0
1696243083252,-0.026367188,0.13964844,-0.99316406,0.03125,0.09375,-0.03125,0.0,0.0,0.0
1696243083289,-0.018554688,0.1328125,-0.9970703,0.03125,0.09375,-0.09375,0.0,0.0,0.0
1696243083345,-0.01953125,0.13867188,-0.99316406,0.03125,0.15625,0.03125,0.0,0.0,0.0
1696243083382,-0.026367188,0.12402344,-0.9921875,0.03125,0.03125,-0.09375,0.0,0.0,0.0
1696243083401,-0.021484375,0.13183594,-0.99316406,-0.09375,-0.03125,-0.09375,-45.625,66.1875,-98.125
1696243083433,-0.0146484375,0.13183594,-1.0087891,-0.09375,0.03125,-0.03125,0.0,0.0,0.0
1696243083493,-0.0234375,0.13183594,-1.0039062,-0.03125,0.03125,-0.09375,0.0,0.0,0.0
1696243083524,-0.028320312,0.13964844,-0.9951172,-0.03125,0.09375,-0.03125,0.0,0.0,0.0
1696243083552,-0.026367188,0.13574219,-1.0087891,0.03125,0.03125,-0.09375,0.0,0.0,0.0
1696243083613,-0.022460938,0.12792969,-1.0117188,-0.03125,-0.03125,-0.03125,0.0,0.0,0.0
1696243083645,-0.016601562,0.125,-1.0058594,0.15625,0.03125,-0.09375,0.0,0.0,0.0
1696243083674,-0.016601562,0.13964844,-0.9941406,0.09375,0.4375,0.03125,0.0,0.0,0.0
1696243083736,-0.0234375,0.13085938,-1.0029297,0.03125,0.15625,-0.15625,0.0,0.0,0.0
1696243083793,-0.020507812,0.13378906,-1.0048828,0.09375,0.25,-0.15625,0.0,0.0,0.0
1696243083798,-0.021484375,0.13574219,-1.0097656,-0.28125,0.03125,0.03125,0.0,0.0,0.0
1696243083853,-0.022460938,0.13476562,-1.0087891,-0.09375,0.03125,-0.03125,0.0,0.0,0.0
1696243083881,-0.022460938,0.12597656,-0.99902344,-0.03125,0.03125,-0.03125,0.0,0.0,0.0
1696243083915,-0.01953125,0.14257812,-1.0048828,0.09375,-0.15625,-0.21875,-44.875,65.875,-98.75
1696243083971,-0.025390625,0.13378906,-1.0087891,-0.0625,-0.25,-0.15625,0.0,0.0,0.0
1696243084003,-0.030273438,0.13183594,-0.99316406,0.0,0.09375,0.0625,0.0,0.0,0.0
1696243084036,-0.028320312,0.12597656,-1.0,-0.0625,-0.125,0.0625,0.0,0.0,0.0
1696243084094,-0.017578125,0.13085938,-0.9892578,0.0,-0.0625,-0.03125,0.0,0.0,0.0
1696243084122,-0.021484375,0.13183594,-0.9980469,-0.0625,-0.25,0.125,0.0,0.0,0.0
1696243084152,-0.0234375,0.1328125,-1.0029297,-0.09375,-0.1875,0.0,0.0,0.0,0.0
1696243084214,-0.0146484375,0.13574219,-0.9970703,0.0,-0.1875,-0.03125,0.0,0.0,0.0
1696243084241,-0.02734375,0.12988281,-1.0,-0.0625,-0.1875,-0.03125,0.0,0.0,0.0
1696243084271,-0.021484375,0.13183594,-1.0,0.0,-0.0625,-0.03125,0.0,0.0,0.0
1696243084333,-0.024414062,0.12890625,-1.0058594,0.0,0.0,0.0625,0.0,0.0,0.0
1696243084364,-0.015625,0.13476562,-0.9970703,-0.0625,-0.125,0.0,0.0,0.0,0.0
1696243084393,-0.022460938,0.12792969,-1.0058594,0.0,0.0,0.0625,-45.3125,66.625,-98.4375
1696243084453,-0.020507812,0.12792969,-1.0087891,-0.09375,-0.125,0.0625,0.0,0.0,0.0
1696243084482,-0.020507812,0.13085938,-1.0058594,-0.09375,-0.3125,-0.09375,0.0,0.0,0.0
1696243084511,-0.029296875,0.13867188,-0.98339844,0.0,-0.1875,0.0625,0.0,0.0,0.0
1696243084573,-0.021484375,0.13574219,-0.9980469,0.0625,0.15625,0.0625,0.0,0.0,0.0
1696243084603,-0.01953125,0.12011719,-0.99609375,-0.28125,-0.0625,0.125,0.0,0.0,0.0
1696243084633,-0.0126953125,0.13769531,-1.0019531,-0.09375,-0.125,0.125,0.0,0.0,0.0
1696243084694,-0.026367188,0.12988281,-1.0078125,-0.09375,0.0,0.25,0.0,0.0,0.0
1696243084729,-0.021484375,0.12597656,-0.9980469,-0.0625,-0.1875,0.0625,0.0,0.0,0.0
1696243084752,-0.022460938,0.1328125,-0.99316406,0.125,-0.1875,-0.09375,0.0,0.0,0.0
1696243084818,-0.02734375,0.12988281,-0.99902344,-0.0625,-0.3125,0.0,0.0,0.0,0.0
1696243084846,-0.026367188,0.13574219,-1.0078125,-0.0625,-0.0625,0.0,0.0,0.0,0.0
1696243084872,-0.01953125,0.13769531,-0.984375,-0.0625,0.0625,0.1875,0.0,0.0,0.0
1696243084933,-0.029296875,0.1328125,-0.9902344,-0.0625,0.09375,0.0,-44.25,67.25,-98.4375
1696243084975,-0.020507812,0.14160156,-0.99902344,-0.09375,-0.25,0.0625,0.0,0.0,0.0
1696243084991,-0.017578125,0.13183594,-1.0087891,-0.09375,-0.25,0.0,0.0,0.0,0.0
1696243085055,-0.030273438,0.12792969,-0.99902344,0.0,-0.125,-0.03125,0.0,0.0,0.0
1696243085083,-0.028320312,0.13867188,-1.0019531,0.0,-0.125,0.0,0.0,0.0,0.0
1696243085113,-0.0234375,0.12890625,-1.0068359,0.0625,0.0,0.0,0.0,0.0,0.0
1696243085174,-0.0234375,0.13183594,-0.99316406,-0.0625,0.0,0.0625,0.0,0.0,0.0
1696243085203,-0.025390625,0.12695312,-0.99902344,-0.15625,-0.1875,0.0625,0.0,0.0,0.0
1696243085234,-0.01953125,0.13574219,-1.0039062,-0.0625,0.0,0.0625,0.0,0.0,0.0
1696243085297,-0.022460938,0.13769531,-1.0058594,-0.0625,0.0,0.0625,0.0,0.0,0.0
1696243085323,-0.020507812,0.13769531,-1.0058594,0.0,-0.375,0.1875,0.0,0.0,0.0
1696243085351,-0.018554688,0.13964844,-0.99316406,0.0,0.0,0.0,0.0,0.0,0.0
1696243085414,-0.025390625,0.12695312,-0.9873047,0.0625,0.21875,0.0625,-45.625,66.625,-99.1875
1696243085445,-0.018554688,0.13085938,-1.0019531,-0.15625,-0.0625,0.0,0.0,0.0,0.0
1696243085472,-0.026367188,0.12988281,-0.9970703,-0.0625,-0.0625,0.125,0.0,0.0,0.0
1696243085536,-0.024414062,0.123046875,-1.0,-0.28125,-0.0625,-0.03125,0.0,0.0,0.0
1696243085564,-0.017578125,0.13085938,-1.0039062,-0.0625,-0.0625,0.0625,0.0,0.0,0.0
1696243085630,-0.01953125,0.13476562,-0.98828125,-0.0625,-0.25,-0.03125,0.0,0.0,0.0
1696243085683,-0.022460938,0.12597656,-0.99902344,0.0,-0.4375,-0.09375,0.0,0.0,0.0
1696243085713,-0.0234375,0.12597656,-1.0009766,-0.0625,-0.0625,-0.15625,0.0,0.0,0.0
1696243085721,-0.025390625,0.12988281,-0.9980469,0.0,0.09375,0.0625,0.0,0.0,0.0
1696243085771,-0.03125,0.1328125,-1.0078125,0.1875,0.09375,0.0,0.0,0.0,0.0
1696243085801,-0.026367188,0.13867188,-0.9941406,-0.15625,-0.25,0.0,0.0,0.0,0.0
1696243085832,-0.021484375,0.13476562,-1.0175781,0.0,-0.0625,0.125,0.0,0.0,0.0
1696243085896,-0.028320312,0.13671875,-1.0058594,-0.0625,-0.125,0.125,0.0,0.0,0.0
1696243085925,-0.034179688,0.13964844,-1.0009766,0.0,-0.25,0.125,-46.0625,66.625,-98.75
1696243085954,-0.032226562,0.13378906,-0.99609375,-0.0625,-0.1875,-0.09375,0.0,0.0,0.0
1696243086015,-0.021484375,0.1328125,-1.0048828,-0.09375,-0.0625,0.0625,0.0,0.0,0.0
1696243086043,-0.028320312,0.13867188,-1.0019531,-0.09375,0.0625,-0.03125,0.0,0.0,0.0
1696243086107,-0.025390625,0.12890625,-1.0019531,-0.0625,-0.1875,-0.09375,0.0,0.0,0.0
1696243086133,-0.032226562,0.1328125,-1.0146484,0.0625,0.09375,-0.15625,0.0,0.0,0.0
1696243086164,-0.026367188,0.13476562,-0.9892578,0.0,0.21875,0.0625,0.0,0.0,0.0
1696243086194,-0.022460938,0.12890625,-1.0039062,-0.0625,-0.125,0.0625,0.0,0.0,0.0
1696243086254,-0.021484375,0.12597656,-1.0058594,-0.15625,-0.25,0.0,0.0,0.0,0.0
1696243086289,-0.02734375,0.1328125,-1.0039062,0.0,-0.0625,-0.03125,0.0,0.0,0.0
1696243086313,-0.0234375,0.12988281,-1.0078125,-0.0625,0.0,0.125,0.0,0.0,0.0
1696243086371,-0.028320312,0.13183594,-0.9941406,0.125,0.0625,0.0625,0.0,0.0,0.0
1696243086402,-0.024414062,0.13085938,-1.0087891,-0.15625,-0.3125,-0.03125,-46.1875,66.8125,-99.9375
1696243086432,-0.016601562,0.13574219,-0.99902344,-0.0625,-0.1875,-0.03125,0.0,0.0,0.0
1696243086524,-0.028320312,0.1328125,-1.0019531,0.125,0.09375,-0.03125,0.0,0.0,0.0
1696243086532,-0.024414062,0.13769531,-1.0097656,0.0,0.09375,0.0625,0.0,0.0,0.0
1696243086552,-0.0234375,0.13183594,-0.98828125,-0.0625,-0.0625,0.125,0.0,0.0,0.0
1696243086613,-0.030273438,0.12988281,-1.0029297,-0.09375,0.0,-0.09375,0.0,0.0,0.0
1696243086643,-0.021484375,0.13769531,-1.0087891,-0.0625,0.0,-0.09375,0.0,0.0,0.0
1696243086673,-0.022460938,0.13085938,-0.9951172,0.0625,0.09375,0.1875,0.0,0.0,0.0
1696243086733,-0.020507812,0.13574219,-0.98046875,0.0,-0.125,0.0,0.0,0.0,0.0
1696243086762,-0.025390625,0.13183594,-1.0058594,0.0,0.0625,-0.03125,0.0,0.0,0.0
1696243086792,-0.028320312,0.140625,-1.0058594,0.0,0.15625,0.0,0.0,0.0,0.0
1696243086855,-0.018554688,0.13867188,-1.0058594,0.0,0.0,-0.03125,0.0,0.0,0.0
1696243086883,-0.021484375,0.13964844,-0.9951172,0.0,-0.0625,-0.21875,0.0,0.0,0.0
1696243086914,-0.01953125,0.13574219,-0.9970703,0.0625,0.28125,0.0,-44.6875,66.0625,-98.3125
1696243086975,-0.03125,0.13867188,-0.99609375,-0.15625,0.15625,0.0,0.0,0.0,0.0
1696243087004,-0.02734375,0.12890625,-0.9921875,-0.09375,-0.125,0.0625,0.0,0.0,0.0
1696243087031,-0.0146484375,0.13085938,-1.0087891,-0.0625,-0.25,0.125,0.0,0.0,0.0
1696243087096,-0.028320312,0.13378906,-1.0107422,0.125,0.0,-0.09375,0.0,0.0,0.0
1696243087127,-0.0234375,0.13476562,-1.0019531,0.1875,0.09375,0.0625,0.0,0.0,0.0
1696243087151,-0.025390625,0.1328125,-1.0097656,0.0,-0.0625,0.0,0.0,0.0,0.0
1696243087212,-0.02734375,0.140625,-0.9921875,0.0625,0.0,-0.03125,0.0,0.0,0.0
1696243087243,-0.028320312,0.119140625,-0.9970703,-0.15625,0.0,0.0625,0.0,0.0,0.0
1696243087306,-0.018554688,0.13085938,-1.0136719,-0.09375,0.09375,-0.03125,0.0,0.0,0.0
1696243087333,-0.024414062,0.1328125,-0.99902344,0.0625,0.0,0.0625,0.0,0.0,0.0
1696243087397,-0.025390625,0.13964844,-1.0078125,-0.21875,-0.1875,0.0,0.0,0.0,0.0
1696243087404,-0.026367188,0.12890625,-1.0097656,0.0,-0.125,0.0,-45.3125,67.25,-100.25
1696243087452,-0.020507812,0.12890625,-0.98828125,0.125,0.0,0.0,0.0,0.0,0.0
1696243087484,-0.028320312,0.13378906,-0.9951172,0.0625,0.0,-0.03125,0.0,0.0,0.0
1696243087513,-0.021484375,0.13085938,-0.9970703,0.0,0.0,0.0,0.0,0.0,0.0
1696243087574,-0.018554688,0.12890625,-1.0058594,0.0,-0.0625,0.0625,0.0,0.0,0.0
1696243087602,-0.025390625,0.13085938,-1.0117188,-0.09375,0.0625,-0.03125,0.0,0.0,0.0
1696243087632,-0.01953125,0.1328125,-1.0,-0.0625,0.0,0.0625,0.0,0.0,0.0
1696243087693,-0.01953125,0.140625,-0.9980469,-0.0625,-0.0625,-0.09375,0.0,0.0,0.0
1696243087722,-0.025390625,0.1328125,-0.9951172,0.125,0.0,-0.15625,0.0,0.0,0.0
1696243087752,-0.018554688,0.13183594,-1.0,0.125,0.15625,0.0,0.0,0.0,0.0
1696243087812,-0.018554688,0.12792969,-0.9970703,0.125,0.09375,-0.09375,0.0,0.0,0.0
1696243087843,-0.017578125,0.13671875,-1.0185547,-0.0625,0.0625,-0.03125,0.0,0.0,0.0
1696243087902,-0.028320312,0.125,-1.0146484,-0.125,-0.09375,-0.1875,0.0,0.0,0.0
1696243087932,-0.016601562,0.13183594,-1.0009766,-0.0625,0.03125,0.125,-45.125,67.5625,-99.625
1696243087965,-0.024414062,0.12792969,-0.99316406,0.0,-0.03125,0.0,0.0,0.0,0.0
1696243087996,-0.017578125,0.13574219,-1.0058594,0.0,-0.15625,-0.1875,0.0,0.0,0.0
1696243088057,-0.0390625,0.13476562,-1.0048828,0.0,-0.28125,0.0,0.0,0.0,0.0
1696243088084,-0.01953125,0.12597656,-0.9814453,0.0625,0.03125,-0.0625,0.0,0.0,0.0
1696243088113,-0.016601562,0.13769531,-0.9980469,0.0,0.03125,0.0,0.0,0.0,0.0
1696243088173,-0.021484375,0.13769531,-0.99609375,-0.0625,0.03125,0.125,0.0,0.0,0.0
1696243088205,-0.028320312,0.13183594,-1.0009766,-0.0625,-0.15625,0.0625,0.0,0.0,0.0
1696243088234,-0.024414062,0.13378906,-1.0078125,0.0,-0.15625,-0.0625,0.0,0.0,0.0
1696243088293,-0.016601562,0.1328125,-1.0097656,0.0,-0.03125,-0.125,0.0,0.0,0.0
1696243088324,-0.028320312,0.12988281,-0.9814453,-0.0625,-0.09375,-0.0625,0.0,0.0,0.0
1696243088356,-0.020507812,0.13476562,-1.0195312,-0.0625,-0.15625,0.125,0.0,0.0,0.0
1696243088416,-0.022460938,0.13769531,-1.0009766,-0.1875,-0.09375,0.0,-46.8125,65.875,-99.8125
1696243088453,-0.016601562,0.13183594,-1.0087891,-0.0625,-0.03125,0.0,0.0,0.0,0.0
1696243088532,-0.020507812,0.13378906,-0.99902344,0.0,-0.03125,-0.0625,0.0,0.0,0.0
1696243088539,-0.015625,0.1328125,-1.0078125,-0.0625,-0.09375,-0.0625,0.0,0.0,0.0
1696243088565,-0.025390625,0.1328125,-1.0078125,0.0,-0.03125,0.0,0.0,0.0,0.0
1696243088591,-0.022460938,0.13574219,-1.0087891,-0.125,-0.15625,0.125,0.0,0.0,0.0
1696243088653,-0.020507812,0.13476562,-1.0126953,0.0,-0.09375,0.0,0.0,0.0,0.0
1696243088683,-0.0234375,0.12792969,-0.9970703,0.0625,0.28125,0.0625,0.0,0.0,0.0
1696243088712,-0.01953125,0.12597656,-1.0087891,0.0,0.09375,-0.0625,0.0,0.0,0.0
1696243088773,-0.0234375,0.13769531,-1.0068359,-0.0625,0.03125,-0.0625,0.0,0.0,0.0
1696243088803,-0.021484375,0.13085938,-1.0068359,-0.25,-0.15625,-0.125,0.0,0.0,0.0
1696243088832,-0.024414062,0.12890625,-1.0058594,0.0,-0.03125,-0.0625,0.0,0.0,0.0
1696243088893,-0.02734375,0.13085938,-1.0009766,0.0625,-0.09375,0.1875,0.0,0.0,0.0
1696243088923,-0.022460938,0.13867188,-0.99902344,0.0,-0.28125,0.0,-46.0625,66.1875,-97.6875
1696243088953,-0.022460938,0.13378906,-1.0009766,0.0,-0.21875,0.0,0.0,0.0,0.0
1696243089015,-0.020507812,0.12792969,-1.0029297,-0.0625,-0.15625,-0.1875,0.0,0.0,0.0
1696243089043,-0.021484375,0.12890625,-0.9980469,-0.0625,0.03125,0.125,0.0,0.0,0.0
1696243089073,-0.018554688,0.13378906,-0.99609375,-0.0625,-0.15625,0.0,0.0,0.0,0.0
1696243089133,-0.022460938,0.1328125,-1.0029297,-0.0625,-0.21875,0.125,0.0,0.0,0.0
1696243089191,-0.0234375,0.13769531,-0.9980469,-0.0625,-0.21875,0.0,0.0,0.0,0.0
1696243089195,-0.020507812,0.14257812,-1.0,0.0625,-0.21875,-0.0625,0.0,0.0,0.0
1696243089253,-0.013671875,0.13671875,-1.0166016,0.0625,-0.15625,0.0,0.0,0.0,0.0
1696243089281,-0.022460938,0.125,-0.9980469,-0.0625,-0.15625,-0.0625,0.0,0.0,0.0
1696243089312,-0.0234375,0.13378906,-1.0087891,0.0,0.03125,0.0,0.0,0.0,0.0
1696243089377,-0.020507812,0.13378906,-1.0009766,0.0,-0.03125,-0.0625,0.0,0.0,0.0
1696243089403,-0.024414062,0.13378906,-1.0136719,-0.1875,-0.15625,0.0,-43.9375,66.0625,-99.625
1696243089494,-0.022460938,0.13378906,-1.0019531,-0.25,-0.15625,0.0,0.0,0.0,0.0
1696243089501,-0.029296875,0.12988281,-1.0048828,-0.0625,-0.40625,0.0625,0.0,0.0,0.0
1696243089523,-0.021484375,0.12695312,-0.9970703,0.0625,-0.09375,-0.125,0.0,0.0,0.0
1696243089556,-0.0234375,0.13476562,-0.99902344,0.1875,0.34375,0.0625,0.0,0.0,0.0
1696243089615,-0.026367188,0.123046875,-0.9892578,-0.3125,-0.09375,0.0,0.0,0.0,0.0
1696243089650,-0.022460938,0.13085938,-1.0166016,-0.0625,-0.09375,0.0,0.0,0.0,0.0
1696243089679,-0.01953125,0.13769531,-1.0,-0.1875,-0.21875,0.0,0.0,0.0,0.0
1696243089735,-0.026367188,0.13574219,-1.0185547,-0.0625,-0.09375,-0.0625,0.0,0.0,0.0
1696243089764,-0.024414062,0.12890625,-1.0029297,-0.0625,-0.28125,0.0,0.0,0.0,0.0
1696243089793,-0.025390625,0.12988281,-1.0058594,0.0,-0.34375,-0.0625,0.0,0.0,0.0
1696243089856,-0.026367188,0.12988281,-1.0048828,-0.125,-0.21875,0.0625,0.0,0.0,0.0
1696243089883,-0.0146484375,0.12597656,-1.0048828,-0.25,-0.09375,0.0625,0.0,0.0,0.0
1696243089913,-0.013671875,0.13574219,-1.0019531,-0.0625,-0.09375,-0.0625,-45.4375,66.0625,-97.875
1696243089975,-0.017578125,0.13085938,-1.0,0.0,-0.21875,0.0625,0.0,0.0,0.0
1696243090005,-0.025390625,0.13085938,-1.0078125,-0.0625,-0.21875,-0.125,0.0,0.0,0.0
1696243090031,-0.026367188,0.13085938,-1.0097656,-0.0625,-0.15625,0.0625,0.0,0.0,0.0
1696243090093,-0.028320312,0.13574219,-1.0126953,-0.0625,-0.15625,0.125,0.0,0.0,0.0
1696243090122,-0.015625,0.13476562,-1.0126953,0.0625,-0.28125,0.0625,0.0,0.0,0.0
1696243090185,-0.020507812,0.12402344,-1.0029297,0.0,-0.03125,-0.0625,0.0,0.0,0.0
1696243090213,-0.030273438,0.12988281,-1.0039062,-0.1875,-0.09375,0.0625,0.0,0.0,0.0
1696243090243,-0.0146484375,0.13183594,-1.0214844,-0.1875,-0.15625,0.125,0.0,0.0,0.0
1696243090274,-0.017578125,0.1328125,-1.0107422,-0.0625,-0.15625,-0.0625,0.0,0.0,0.0
1696243090335,-0.022460938,0.1328125,-0.9970703,0.0,-0.03125,0.0,0.0,0.0,0.0
1696243090363,-0.020507812,0.12792969,-0.9970703,0.0625,0.09375,0.0,0.0,0.0,0.0
1696243090394,-0.026367188,0.13671875,-1.0048828,-0.0625,-0.34375,0.0625,-45.125,66.3125,-98.875
1696243090453,-0.017578125,0.13476562,-0.9941406,0.0,-0.09375,0.0625,0.0,0.0,0.0
1696243090482,-0.026367188,0.12890625,-0.9980469,-0.1875,-0.09375,0.0,0.0,0.0,0.0
1696243090512,-0.022460938,0.123046875,-1.0039062,-0.0625,-0.03125,0.0,0.0,0.0,0.0
1696243090574,-0.0234375,0.13183594,-1.0087891,0.0,-0.15625,0.0,0.0,0.0,0.0
1696243090603,-0.01953125,0.13769531,-0.9980469,-0.0625,-0.34375,-0.0625,0.0,0.0,0.0
1696243090633,-0.0234375,0.12402344,-0.99902344,-0.0625,-0.09375,0.0625,0.0,0.0,0.0
1696243090692,-0.020507812,0.12597656,-0.99902344,0.0,0.03125,-0.125,0.0,0.0,0.0
1696243090723,-0.022460938,0.13964844,-0.99316406,0.0625,-0.03125,0.0,0.0,0.0,0.0
1696243090760,-0.022460938,0.12792969,-1.0068359,-0.0625,-0.21875,0.0,0.0,0.0,0.0
1696243090814,-0.028320312,0.12792969,-1.0087891,-0.1875,-0.40625,0.0625,0.0,0.0,0.0
1696243090842,-0.025390625,0.12890625,-1.0058594,0.0,-0.03125,0.0625,0.0,0.0,0.0
1696243090875,-0.022460938,0.12988281,-1.0039062,-0.1875,-0.15625,0.0,0.0,0.0,0.0
1696243090931,-0.0234375,0.123046875,-0.9951172,-0.0625,-0.21875,0.0,-45.625,66.1875,-99.5
1696243090962,-0.021484375,0.13085938,-0.9892578,-0.1875,-0.21875,-0.0625,0.0,0.0,0.0
1696243090993,-0.025390625,0.12792969,-0.99902344,0.0625,-0.28125,-0.0625,0.0,0.0,0.0
1696243091056,-0.028320312,0.13183594,-0.9970703,0.0,0.09375,-0.0625,0.0,0.0,0.0
1696243091085,-0.020507812,0.12890625,-0.99121094,0.0,0.28125,0.0,0.0,0.0,0.0
1696243091145,-0.020507812,0.13574219,-0.9970703,-0.25,-0.34375,-0.125,0.0,0.0,0.0
1696243091173,-0.022460938,0.1328125,-1.0146484,0.0,-0.09375,-0.1875,0.0,0.0,0.0
1696243091205,-0.033203125,0.13085938,-0.9951172,-0.1875,-0.15625,-0.0625,0.0,0.0,0.0
1696243091234,-0.022460938,0.12988281,-0.99609375,0.0,0.15625,0.0625,0.0,0.0,0.0
1696243091294,-0.034179688,0.14160156,-0.99121094,0.0625,0.03125,-0.125,0.0,0.0,0.0
1696243091327,-0.032226562,0.13085938,-1.0068359,-0.0625,-0.34375,-0.0625,0.0,0.0,0.0
1696243091360,-0.025390625,0.1328125,-0.9873047,0.0625,0.03125,-0.125,0.0,0.0,0.0
1696243091413,-0.022460938,0.13769531,-0.9970703,0.0,0.21875,-0.0625,-45.125,67.8125,-99.375
1696243091444,-0.026367188,0.13671875,-1.0039062,0.0,0.03125,0.0,0.0,0.0,0.0
1696243091471,-0.029296875,0.12792969,-1.0058594,0.0,-0.15625,0.0,0.0,0.0,0.0
1696243091533,-0.028320312,0.119140625,-1.0078125,-0.0625,-0.09375,-0.125,0.0,0.0,0.0
1696243091561,-0.0234375,0.12890625,-1.0058594,0.0,0.03125,0.0625,0.0,0.0,0.0
1696243091592,-0.021484375,0.12402344,-1.0019531,0.0,-0.03125,0.0625,0.0,0.0,0.0
1696243091654,-0.026367188,0.13183594,-1.0117188,0.0,0.03125,-0.0625,0.0,0.0,0.0
1696243091685,-0.03125,0.13574219,-0.98339844,0.0,0.03125,0.0,0.0,0.0,0.0
1696243091714,-0.02734375,0.13183594,-1.0068359,0.0,-0.03125,-0.0625,0.0,0.0,0.0
1696243091775,-0.03125,0.1328125,-0.9970703,-0.0625,-0.21875,0.0625,0.0,0.0,0.0
1696243091809,-0.02734375,0.13085938,-0.9902344,0.09375,0.15625,-0.03125,0.0,0.0,0.0
1696243091832,-0.029296875,0.12890625,-1.0097656,0.09375,0.15625,0.0,0.0,0.0,0.0
1696243091898,-0.021484375,0.12011719,-1.0039062,-0.15625,0.15625,-0.09375,0.0,0.0,0.0
1696243091923,-0.018554688,0.13574219,-0.9902344,-0.03125,-0.09375,-0.03125,-44.6875,66.3125,-99.375
1696243091957,-0.016601562,0.1328125,-1.0019531,-0.03125,-0.03125,0.0625,0.0,0.0,0.0
1696243092012,-0.018554688,0.13476562,-1.0068359,0.03125,0.09375,0.0625,0.0,0.0,0.0
1696243092043,-0.026367188,0.12597656,-1.0009766,-0.03125,-0.09375,-0.03125,0.0,0.0,0.0
1696243092071,-0.01953125,0.13183594,-1.0019531,-0.03125,-0.21875,0.0625,0.0,0.0,0.0
1696243092131,-0.017578125,0.13476562,-0.9921875,0.03125,-0.03125,0.0,0.0,0.0,0.0
1696243092160,-0.01953125,0.13769531,-1.0039062,-0.09375,-0.03125,0.0,0.0,0.0,0.0
1696243092192,-0.02734375,0.13378906,-1.0185547,0.03125,0.03125,0.0,0.0,0.0,0.0
1696243092253,-0.021484375,0.13085938,-1.0058594,-0.09375,-0.03125,-0.03125,0.0,0.0,0.0
1696243092282,-0.020507812,0.1328125,-1.0097656,-0.03125,-0.03125,0.125,0.0,0.0,0.0
1696243092311,-0.032226562,0.12597656,-1.0126953,0.03125,0.09375,-0.09375,0.0,0.0,0.0
1696243092374,-0.021484375,0.13085938,-1.0078125,0.03125,0.09375,0.0625,0.0,0.0,0.0
1696243092402,-0.020507812,0.13085938,-1.0048828,-0.03125,-0.09375,0.125,-46.375,66.625,-98.75
1696243092464,-0.021484375,0.13378906,-0.99609375,-0.03125,-0.03125,0.0,0.0,0.0,0.0
1696243092496,-0.0107421875,0.13476562,-0.99609375,-0.03125,0.03125,0.0,0.0,0.0,0.0
1696243092523,-0.018554688,0.13183594,-1.0039062,0.03125,0.15625,-0.03125,0.0,0.0,0.0
1696243092552,-0.021484375,0.12597656,-0.9970703,-0.03125,-0.03125,0.0625,0.0,0.0,0.0
1696243092614,-0.0087890625,0.12890625,-0.99902344,-0.03125,-0.03125,0.125,0.0,0.0,0.0
1696243092645,-0.025390625,0.13476562,-0.9980469,-0.03125,0.03125,-0.15625,0.0,0.0,0.0
1696243092673,-0.018554688,0.13378906,-1.0078125,-0.03125,-0.03125,0.0625,0.0,0.0,0.0
1696243092732,-0.029296875,0.12695312,-1.0,0.15625,0.15625,0.0625,0.0,0.0,0.0
1696243092763,-0.021484375,0.12109375,-1.0078125,0.25,0.21875,-0.03125,0.0,0.0,0.0
1696243092792,-0.013671875,0.12109375,-1.0126953,-0.03125,0.15625,-0.03125,0.0,0.0,0.0
1696243092853,-0.0234375,0.13671875,-0.9951172,-0.21875,-0.15625,-0.15625,0.0,0.0,0.0
1696243092884,-0.017578125,0.13769531,-1.0058594,-0.09375,-0.21875,0.0,0.0,0.0,0.0
1696243092942,-0.028320312,0.13378906,-0.99609375,0.09375,0.03125,0.0,-45.125,67.5625,-99.375
1696243092971,-0.020507812,0.12988281,-1.0117188,0.15625,0.09375,0.0625,0.0,0.0,0.0
1696243093033,-0.021484375,0.13085938,-1.0126953,-0.03125,-0.21875,0.0,0.0,0.0,0.0
1696243093040,-0.0234375,0.13085938,-0.9863281,-0.03125,-0.03125,0.0,0.0,0.0,0.0
1696243093092,-0.022460938,0.12890625,-1.0048828,0.03125,0.09375,-0.03125,0.0,0.0,0.0
1696243093123,-0.015625,0.13476562,-1.015625,0.09375,0.09375,0.0,0.0,0.0,0.0
1696243093155,-0.020507812,0.13867188,-1.0107422,-0.09375,-0.15625,0.0,0.0,0.0,0.0
1696243093218,-0.01953125,0.12890625,-0.9970703,-0.03125,-0.15625,0.0,0.0,0.0,0.0
1696243093243,-0.028320312,0.13476562,-0.9873047,-0.03125,-0.09375,0.0,0.0,0.0,0.0
1696243093272,-0.021484375,0.12890625,-0.99609375,-0.09375,-0.09375,0.0,0.0,0.0,0.0
1696243093336,-0.028320312,0.13085938,-0.99316406,0.03125,-0.09375,0.0,0.0,0.0,0.0
1696243093363,-0.01953125,0.1328125,-0.9980469,0.03125,0.09375,0.0,0.0,0.0,0.0
1696243093425,-0.020507812,0.12695312,-1.0078125,-0.03125,0.03125,-0.03125,-44.5625,66.1875,-98.4375
1696243093451,-0.026367188,0.1328125,-0.99316406,-0.03125,-0.03125,-0.03125,0.0,0.0,0.0
1696243093482,-0.0234375,0.12890625,-1.0039062,0.03125,0.03125,-0.03125,0.0,0.0,0.0
1696243093512,-0.0234375,0.13378906,-1.0,0.09375,0.09375,0.0625,0.0,0.0,0.0
1696243093573,-0.016601562,0.13574219,-1.0039062,-0.03125,-0.21875,0.0,0.0,0.0,0.0
1696243093603,-0.01953125,0.13574219,-1.0078125,-0.03125,-0.28125,0.0625,0.0,0.0,0.0
1696243093632,-0.018554688,0.13183594,-0.9921875,0.03125,0.21875,0.0,0.0,0.0,0.0
1696243093693,-0.021484375,0.12890625,-1.0048828,0.03125,0.03125,0.0,0.0,0.0,0.0
1696243093730,-0.029296875,0.12695312,-1.0039062,-0.15625,-0.15625,-0.03125,0.0,0.0,0.0
1696243093751,-0.0146484375,0.12988281,-1.0146484,-0.03125,-0.21875,-0.03125,0.0,0.0,0.0
1696243093848,-0.022460938,0.1328125,-1.0039062,0.03125,0.03125,0.0,0.0,0.0,0.0
1696243093854,-0.016601562,0.13671875,-1.0078125,-0.03125,-0.03125,0.0625,0.0,0.0,0.0
1696243093872,-0.0234375,0.12890625,-0.9970703,0.03125,-0.28125,-0.09375,0.0,0.0,0.0
1696243093935,-0.028320312,0.1328125,-0.9941406,-0.09375,-0.28125,0.0,-45.875,66.3125,-98.3125
1696243093963,-0.017578125,0.13085938,-0.99609375,-0.15625,-0.03125,0.0625,0.0,0.0,0.0
1696243093994,-0.021484375,0.12988281,-1.0019531,0.03125,0.15625,-0.15625,0.0,0.0,0.0
1696243094055,-0.021484375,0.13964844,-1.0039062,0.15625,0.03125,0.0625,0.0,0.0,0.0
1696243094083,-0.021484375,0.13183594,-1.0117188,-0.03125,-0.15625,0.0625,0.0,0.0,0.0
1696243094114,-0.029296875,0.12890625,-0.9941406,0.03125,-0.03125,0.0625,0.0,0.0,0.0
1696243094174,-0.022460938,0.13574219,-0.99902344,-0.03125,-0.21875,-0.03125,0.0,0.0,0.0
1696243094203,-0.018554688,0.13574219,-0.9921875,-0.03125,-0.03125,-0.03125,0.0,0.0,0.0
1696243094264,-0.022460938,0.140625,-1.0107422,-0.15625,-0.03125,0.0625,0.0,0.0,0.0
1696243094295,-0.022460938,0.13476562,-1.0029297,-0.21875,-0.09375,0.0625,0.0,0.0,0.0
1696243094323,-0.016601562,0.13085938,-0.99121094,-0.15625,-0.03125,0.0,0.0,0.0,0.0
1696243094381,-0.02734375,0.14355469,-1.0048828,-0.03125,-0.09375,-0.03125,0.0,0.0,0.0
1696243094412,-0.016601562,0.13867188,-1.0009766,-0.03125,-0.03125,0.0,-45.125,65.0,-100.375
1696243094471,-0.01953125,0.13183594,-0.9980469,0.03125,-0.28125,-0.03125,0.0,0.0,0.0
1696243094501,-0.026367188,0.13183594,-0.99902344,0.03125,-0.03125,-0.03125,0.0,0.0,0.0
1696243094534,-0.021484375,0.1328125,-1.0068359,0.03125,0.28125,0.0625,0.0,0.0,0.0
1696243094562,-0.02734375,0.12597656,-1.0048828,-0.15625,-0.09375,0.0,0.0,0.0,0.0
1696243094625,-0.029296875,0.12890625,-1.0136719,-0.09375,-0.09375,0.0625,0.0,0.0,0.0
1696243094652,-0.022460938,0.1328125,-1.0068359,-0.09375,-0.09375,-0.03125,0.0,0.0,0.0
1696243094684,-0.026367188,0.13867188,-0.9980469,0.09375,0.03125,-0.03125,0.0,0.0,0.0
1696243094744,-0.029296875,0.12890625,-0.9941406,0.09375,-0.15625,0.125,0.0,0.0,0.0
1696243094773,-0.021484375,0.13671875,-0.99902344,-0.03125,-0.28125,0.0,0.0,0.0,0.0
1696243094804,-0.018554688,0.13671875,-0.9951172,-0.03125,-0.03125,0.0,0.0,0.0,0.0
1696243094903,-0.022460938,0.13085938,-1.0009766,0.03125,0.15625,0.0625,0.0,0.0,0.0
1696243094906,-0.021484375,0.13671875,-0.9863281,0.09375,0.03125,0.0,0.0,0.0,0.0
1696243094921,-0.029296875,0.12695312,-0.9970703,-0.09375,-0.09375,-0.03125,-44.5625,67.25,-99.1875
