# Sensor type: Thingy
# Activity type: Normal walking
# Activity subtype: Normal
# Subject id: s2104454
# Notes: unprocessed
timestamp,accel_x,accel_y,accel_z,gyro_x,gyro_y,gyro_z,mag_x,mag_y,mag_z
1696243449131,-1.6220703,0.17578125,-0.25683594,46.75,-132.78125,-58.625,0.0,0.0,0.0
1696243449192,-1.0878906,0.17480469,0.09375,138.625,-198.15625,-96.15625,0.0,0.0,0.0
1696243449221,-0.5625,0.16699219,0.14160156,74.40625,-164.15625,-32.75,0.0,0.0,0.0
1696243449250,-0.50097656,-0.030273438,-0.076171875,132.875,-124.4375,-16.28125,0.0,0.0,0.0
1696243449311,-0.4404297,0.107421875,-0.15820312,138.84375,-118.6875,13.25,0.0,0.0,0.0
1696243449344,-0.36914062,0.27539062,0.12597656,93.125,-70.59375,32.75,0.0,0.0,0.0
1696243449373,-0.4658203,0.0029296875,0.66796875,6.90625,-5.96875,30.90625,0.0,0.0,0.0
1696243449434,-0.7529297,0.09863281,1.3710938,-27.40625,48.375,-14.3125,-103.1875,15.9375,-61.875
1696243449464,-0.97265625,-0.1015625,1.1142578,85.9375,3.375,-36.78125,0.0,0.0,0.0
1696243449494,-0.6855469,0.22558594,0.67089844,75.1875,-15.78125,-34.46875,0.0,0.0,0.0
1696243449554,-0.8535156,0.60839844,0.43945312,25.5,-0.40625,-31.90625,0.0,0.0,0.0
1696243449587,-1.8408203,1.2958984,0.87109375,-20.09375,85.40625,21.8125,0.0,0.0,0.0
1696243449612,-0.5732422,-0.48828125,-0.69140625,-148.4375,131.3125,4.46875,0.0,0.0,0.0
1696243449673,-1.4287109,-0.4033203,0.19628906,-148.1875,173.1875,-37.875,0.0,0.0,0.0
1696243449702,-0.87402344,0.2607422,0.15039062,-55.0625,149.8125,-18.96875,0.0,0.0,0.0
1696243449732,-0.74609375,0.14160156,0.0107421875,-138.25,172.75,34.09375,0.0,0.0,0.0
1696243449795,-0.99902344,-0.37695312,0.041015625,-106.375,151.875,36.9375,0.0,0.0,0.0
1696243449824,-0.89160156,0.059570312,0.19042969,-63.15625,110.90625,17.21875,0.0,0.0,0.0
1696243449852,-0.7949219,0.036132812,-0.068359375,-83.9375,100.4375,17.21875,0.0,0.0,0.0
1696243449915,-0.8857422,-0.19042969,-0.08691406,-74.28125,103.40625,28.34375,-99.0,19.0625,-99.5
1696243449942,-1.2109375,-0.009765625,0.36035156,-44.125,97.5625,23.28125,0.0,0.0,0.0
1696243449973,-1.2675781,-0.2861328,0.1953125,-44.1875,41.40625,24.3125,0.0,0.0,0.0
1696243450033,-1.2548828,0.16503906,0.15722656,-39.6875,-7.71875,5.4375,0.0,0.0,0.0
1696243450063,-1.3759766,-0.19824219,0.27539062,-29.46875,-80.53125,19.375,0.0,0.0,0.0
1696243450093,-1.4892578,-0.13574219,-0.37402344,16.25,-178.5,-17.9375,0.0,0.0,0.0
1696243450158,-1.3837891,0.30566406,-0.4189453,69.875,-207.75,-29.75,0.0,0.0,0.0
1696243450185,-1.7822266,-0.02734375,0.1484375,-22.71875,-216.84375,-22.5,0.0,0.0,0.0
1696243450212,-2.0,0.06347656,-0.12109375,186.34375,-146.53125,-114.65625,0.0,0.0,0.0
1696243450275,-0.65234375,0.10449219,-0.21484375,131.96875,-159.71875,-145.1875,0.0,0.0,0.0
1696243450306,-0.3876953,0.20410156,-0.109375,159.375,-125.59375,-75.71875,0.0,0.0,0.0
1696243450333,-0.12988281,0.0,-0.05859375,148.0625,-71.09375,-47.03125,0.0,0.0,0.0
1696243450427,-0.140625,0.21875,-0.39746094,113.34375,-43.875,-20.3125,0.0,0.0,0.0
1696243450435,-0.16601562,0.3095703,0.03515625,32.71875,57.8125,0.5,-100.625,10.0625,-63.0625
1696243450452,-0.9033203,0.02734375,0.88964844,-49.75,183.5,-1.8125,0.0,0.0,0.0
1696243450515,-2.0,-0.5234375,1.4052734,122.75,46.40625,-12.1875,0.0,0.0,0.0
1696243450543,-0.12011719,0.33398438,0.41601562,66.15625,-178.09375,-45.15625,0.0,0.0,0.0
1696243450574,-1.9355469,0.09082031,0.81933594,140.125,14.90625,47.3125,0.0,0.0,0.0
1696243450633,-0.53222656,1.0917969,-0.4736328,-167.46875,-1.375,-19.625,0.0,0.0,0.0
1696243450663,-0.93066406,-0.66796875,-0.28320312,-71.96875,116.65625,39.5,0.0,0.0,0.0
1696243450697,-1.7060547,-0.57128906,0.18945312,-222.40625,154.375,-50.6875,0.0,0.0,0.0
1696243450752,-0.50097656,0.7783203,0.3408203,-61.59375,137.53125,10.65625,0.0,0.0,0.0
1696243450781,-0.7236328,-0.13964844,-0.14160156,-124.875,182.28125,49.21875,0.0,0.0,0.0
1696243450811,-1.2578125,-0.58691406,-0.018554688,-88.1875,126.25,40.5,0.0,0.0,0.0
1696243450874,-0.71875,0.21875,0.053710938,-15.625,96.625,19.3125,0.0,0.0,0.0
1696243450903,-0.7998047,0.09765625,-0.0859375,-65.4375,99.15625,32.96875,-99.0,15.8125,-95.875
1696243450933,-1.0966797,-0.28125,0.12695312,-39.4375,90.90625,27.0625,0.0,0.0,0.0
1696243450994,-1.2167969,-0.19335938,0.16015625,-59.21875,64.34375,1.5,0.0,0.0,0.0
1696243451024,-1.2871094,-0.099609375,0.25585938,-60.5625,31.8125,4.15625,0.0,0.0,0.0
1696243451053,-1.1855469,-0.119140625,0.19140625,-60.0625,-10.96875,14.3125,0.0,0.0,0.0
1696243451114,-1.3681641,-0.061523438,0.24707031,-37.28125,-81.15625,3.625,0.0,0.0,0.0
1696243451143,-1.359375,-0.041992188,-0.3701172,-11.28125,-169.34375,-35.0625,0.0,0.0,0.0
1696243451176,-1.5195312,0.3466797,-0.1875,25.15625,-189.25,-59.65625,0.0,0.0,0.0
1696243451235,-1.6289062,0.43066406,0.296875,-124.5625,-185.53125,-47.34375,0.0,0.0,0.0
1696243451263,-1.8876953,0.35058594,0.171875,223.875,-207.4375,-103.9375,0.0,0.0,0.0
1696243451290,-0.53222656,-0.0068359375,-0.36816406,101.0625,-159.9375,-96.34375,0.0,0.0,0.0
1696243451352,-0.328125,-0.103515625,-0.087890625,155.6875,-131.5,-54.3125,0.0,0.0,0.0
1696243451384,-0.18066406,0.057617188,0.055664062,106.8125,-83.21875,-10.34375,0.0,0.0,0.0
1696243451442,-0.09765625,0.21679688,-0.06542969,59.875,-11.875,-8.875,-99.875,12.3125,-66.5
1696243451474,-0.01171875,0.13476562,0.13867188,20.875,121.90625,4.21875,0.0,0.0,0.0
1696243451503,-0.90527344,0.0029296875,1.4951172,11.59375,269.6875,-0.03125,0.0,0.0,0.0
1696243451565,-2.0,-0.21679688,0.93066406,22.71875,-68.34375,-35.5,0.0,0.0,0.0
1696243451596,1.3115234,0.69921875,0.016601562,145.375,-131.3125,-34.15625,0.0,0.0,0.0
1696243451622,-1.8154297,0.2998047,-1.4238281,-103.09375,122.75,64.84375,0.0,0.0,0.0
1696243451685,-1.0244141,-1.2714844,-1.0283203,-20.8125,-31.53125,-61.0,0.0,0.0,0.0
1696243451713,-0.0234375,0.030273438,-0.50390625,-124.21875,144.84375,13.25,0.0,0.0,0.0
1696243451744,-2.0,-0.5751953,0.13671875,-157.90625,144.78125,42.625,0.0,0.0,0.0
1696243451804,-0.6591797,0.4423828,0.119140625,-96.1875,143.5625,-6.03125,0.0,0.0,0.0
1696243451832,-0.6738281,0.20214844,-0.068359375,-54.1875,140.875,48.59375,0.0,0.0,0.0
1696243451862,-0.81152344,-0.27539062,0.0068359375,-75.9375,107.5,5.40625,0.0,0.0,0.0
1696243451925,-0.80859375,0.14746094,-0.09082031,-83.5625,86.9375,10.65625,-98.25,17.875,-97.375
1696243451953,-0.9716797,-0.14355469,0.020507812,-51.03125,91.875,28.84375,0.0,0.0,0.0
1696243451982,-1.2285156,-0.12011719,0.20117188,-61.875,106.53125,19.0625,0.0,0.0,0.0
1696243452043,-1.2949219,-0.055664062,0.3125,-84.21875,64.71875,11.625,0.0,0.0,0.0
1696243452091,-1.1181641,-0.38476562,-0.07519531,-46.15625,3.5625,21.3125,0.0,0.0,0.0
1696243452100,-1.3681641,0.37597656,0.2626953,-40.96875,-31.65625,-9.3125,0.0,0.0,0.0
1696243452161,-1.2353516,-0.34570312,-0.08886719,-11.0625,-107.9375,-4.1875,0.0,0.0,0.0
1696243452201,-1.4296875,0.3125,-0.4892578,127.25,-182.15625,-24.5,0.0,0.0,0.0
1696243452222,-1.7148438,0.24121094,0.16992188,-38.21875,-205.125,-42.34375,0.0,0.0,0.0
1696243452283,-1.5048828,0.4091797,-0.31933594,-110.59375,-147.4375,-78.84375,0.0,0.0,0.0
1696243452312,-1.1835938,-0.08300781,0.39160156,167.40625,-224.28125,-107.9375,0.0,0.0,0.0
1696243452342,-0.5517578,-0.0703125,-0.091796875,124.625,-153.46875,-60.15625,0.0,0.0,0.0
1696243452404,-0.2705078,0.06738281,-0.09082031,177.71875,-108.875,-41.0625,0.0,0.0,0.0
1696243452431,-0.19042969,0.16894531,-0.18164062,117.625,-67.65625,-22.4375,-103.0625,14.3125,-69.8125
1696243452461,-0.10253906,0.2626953,-0.119140625,54.3125,7.65625,-7.96875,0.0,0.0,0.0
1696243452526,-0.26367188,0.059570312,0.40429688,-3.1875,156.40625,-8.21875,0.0,0.0,0.0
1696243452551,-1.6386719,0.19921875,1.8300781,-51.625,206.25,-4.625,0.0,0.0,0.0
1696243452583,-2.0,-0.33691406,0.76171875,21.4375,-128.46875,-60.65625,0.0,0.0,0.0
1696243452646,1.0087891,0.45410156,0.20703125,131.34375,-94.65625,-15.375,0.0,0.0,0.0
1696243452703,-2.0,0.14257812,-1.1533203,-86.0625,103.09375,34.09375,0.0,0.0,0.0
1696243452711,0.19335938,0.059570312,-1.1962891,-44.0625,-45.34375,-69.0,0.0,0.0,0.0
1696243452763,-0.17871094,-0.38085938,-0.5,-90.21875,166.09375,80.71875,0.0,0.0,0.0
1696243452793,-2.0,-0.921875,0.31347656,-219.0625,150.71875,11.5,0.0,0.0,0.0
1696243452821,-0.39746094,0.5859375,0.2685547,-86.3125,140.03125,-13.78125,0.0,0.0,0.0
1696243452881,-0.6933594,0.08300781,0.0703125,-83.0,131.0625,60.25,0.0,0.0,0.0
1696243452915,-0.9667969,-0.28320312,0.015625,-78.4375,107.5,30.21875,-101.25,17.875,-93.5
1696243452941,-0.8203125,0.091796875,-0.072265625,-69.875,88.46875,18.03125,0.0,0.0,0.0
1696243453004,-0.9824219,-0.12695312,0.08984375,-51.5,101.34375,30.40625,0.0,0.0,0.0
1696243453032,-1.1445312,-0.15234375,0.26171875,-69.46875,103.59375,17.21875,0.0,0.0,0.0
1696243453063,-1.2949219,-0.16113281,0.2763672,-55.71875,45.3125,16.0625,0.0,0.0,0.0
1696243453124,-1.1601562,-0.5361328,-0.16699219,-52.5625,3.875,23.65625,0.0,0.0,0.0
1696243453155,-1.328125,0.32226562,0.27539062,-30.8125,-23.34375,-5.84375,0.0,0.0,0.0
1696243453185,-1.2314453,-0.10839844,0.036132812,-5.0625,-93.25,7.34375,0.0,0.0,0.0
1696243453242,-1.4609375,0.3310547,-0.3935547,102.28125,-178.25,-20.0625,0.0,0.0,0.0
1696243453274,-1.5771484,0.25,-0.13574219,-33.625,-197.25,-44.21875,0.0,0.0,0.0
1696243453303,-1.6113281,0.390625,0.13085938,-134.28125,-166.0625,-62.65625,0.0,0.0,0.0
1696243453364,-1.2919922,0.14941406,0.3330078,188.96875,-235.4375,-98.4375,0.0,0.0,0.0
1696243453393,-0.5292969,-0.080078125,-0.21289062,138.96875,-172.9375,-71.8125,0.0,0.0,0.0
1696243453423,-0.36816406,-0.053710938,-0.09667969,162.40625,-112.84375,-58.15625,-102.0,16.0625,-73.125
1696243453481,-0.23535156,0.13574219,-0.095703125,129.75,-73.15625,-28.46875,0.0,0.0,0.0
1696243453511,-0.23828125,0.24902344,-0.18457031,66.84375,5.09375,-22.0625,0.0,0.0,0.0
1696243453542,-0.2578125,0.13671875,0.17675781,28.375,119.21875,-15.71875,0.0,0.0,0.0
1696243453601,-0.9580078,0.07714844,1.2734375,-66.03125,227.8125,-5.09375,0.0,0.0,0.0
1696243453636,-2.0,-0.85839844,1.0,38.75,-54.90625,-3.28125,0.0,0.0,0.0
1696243453661,0.8935547,0.76464844,0.6015625,111.28125,-162.75,-50.875,0.0,0.0,0.0
1696243453725,-0.9169922,0.091796875,-0.8691406,58.34375,113.71875,51.28125,0.0,0.0,0.0
1696243453755,-2.0,-0.10644531,1.9873047,-200.125,26.09375,-42.46875,0.0,0.0,0.0
1696243453783,0.3466797,0.86816406,-0.7314453,2.6875,83.28125,11.5,0.0,0.0,0.0
1696243453843,-1.4296875,-1.2431641,-0.75878906,-154.3125,177.6875,46.65625,0.0,0.0,0.0
1696243453872,-1.1806641,0.01953125,0.29003906,-54.75,91.625,6.75,0.0,0.0,0.0
1696243453903,-0.6035156,0.6230469,0.10644531,-65.84375,120.75,32.625,-99.875,16.25,-89.125
1696243453963,-1.0029297,-0.2265625,-0.111328125,-104.1875,110.125,45.0625,0.0,0.0,0.0
1696243453992,-0.89160156,-0.15527344,-0.030273438,-79.65625,83.21875,8.875,0.0,0.0,0.0
1696243454022,-0.8779297,-0.028320312,-0.06640625,-39.375,89.25,15.15625,0.0,0.0,0.0
1696243454085,-1.1103516,-0.1796875,0.078125,-6.78125,109.8125,26.625,0.0,0.0,0.0
1696243454115,-1.0732422,0.14355469,0.42578125,-77.5625,87.90625,5.6875,0.0,0.0,0.0
1696243454148,-1.2158203,-0.40039062,-0.13085938,-20.4375,16.8125,40.90625,0.0,0.0,0.0
1696243454202,-1.3232422,0.34960938,0.22753906,-48.9375,9.65625,-21.90625,0.0,0.0,0.0
1696243454231,-1.2871094,-0.26464844,0.16699219,-54.3125,-57.0,14.0625,0.0,0.0,0.0
1696243454264,-1.4033203,-0.37402344,-0.39746094,1.09375,-149.03125,0.5625,0.0,0.0,0.0
1696243454324,-1.3320312,0.296875,-0.3203125,102.96875,-196.875,-31.09375,0.0,0.0,0.0
1696243454355,-1.5830078,0.29589844,0.3232422,-94.71875,-205.90625,-28.53125,0.0,0.0,0.0
1696243454385,-1.7910156,0.1796875,-0.390625,176.75,-137.96875,-91.40625,0.0,0.0,0.0
1696243454440,-0.8671875,-0.11230469,-0.08105469,83.8125,-169.96875,-102.75,-98.5625,22.5625,-81.625
1696243454471,-0.48046875,0.033203125,-0.0703125,164.5625,-135.0625,-78.34375,0.0,0.0,0.0
1696243454508,-0.29003906,0.029296875,-0.09277344,162.96875,-112.03125,-40.75,0.0,0.0,0.0
1696243454562,-0.20898438,0.23535156,-0.21679688,115.78125,-55.8125,-33.71875,0.0,0.0,0.0
1696243454595,-0.3076172,0.20703125,-0.0068359375,39.0,49.28125,-16.875,0.0,0.0,0.0
1696243454623,-0.34960938,0.171875,0.6376953,-49.375,167.25,-18.21875,0.0,0.0,0.0
1696243454681,-2.0,0.033203125,1.7636719,-32.90625,164.03125,1.375,0.0,0.0,0.0
1696243454715,-1.3798828,-0.19824219,0.8330078,132.75,-181.625,-63.09375,0.0,0.0,0.0
1696243454740,0.6503906,0.35742188,0.47753906,70.8125,-18.34375,7.78125,0.0,0.0,0.0
1696243454831,-2.0,0.3701172,-0.4716797,-106.75,31.6875,40.375,0.0,0.0,0.0
1696243454834,-0.38867188,0.54296875,-0.45898438,-43.75,24.375,-69.875,0.0,0.0,0.0
1696243454864,-0.4248047,-0.5175781,-0.6591797,-156.25,177.75,37.375,0.0,0.0,0.0
1696243454982,-1.9853516,-0.6845703,0.20410156,-126.90625,128.125,9.84375,-100.625,15.1875,-84.5
1696243454987,-0.5029297,0.7548828,0.2841797,-86.78125,140.34375,-7.4375,0.0,0.0,0.0
1696243454991,-0.8623047,0.030273438,-0.0859375,-128.125,141.625,66.5625,0.0,0.0,0.0
1696243455041,-0.9511719,-0.44628906,-0.057617188,-90.5,97.5,22.25,0.0,0.0,0.0
1696243455071,-0.7890625,0.01953125,-0.033203125,-63.59375,90.46875,15.03125,0.0,0.0,0.0
1696243455101,-1.0078125,-0.22265625,0.00390625,-45.03125,91.375,22.53125,0.0,0.0,0.0
1696243455162,-1.1083984,-0.091796875,0.3779297,-34.4375,104.34375,12.09375,0.0,0.0,0.0
1696243455194,-1.1777344,0.09765625,0.13574219,-51.15625,58.5625,17.0625,0.0,0.0,0.0
1696243455223,-1.2275391,-0.24609375,-0.0859375,-53.40625,11.875,22.3125,0.0,0.0,0.0
1696243455284,-1.484375,0.28515625,0.16796875,-30.53125,-20.0625,-3.15625,0.0,0.0,0.0
1696243455317,-1.4140625,-0.42285156,-0.08300781,-11.40625,-100.0625,-6.3125,0.0,0.0,0.0
1696243455348,-1.2919922,0.4716797,-0.421875,90.5625,-176.0,-21.90625,0.0,0.0,0.0
1696243455436,-1.6611328,0.1484375,0.028320312,9.875,-220.6875,-11.03125,-99.0,26.75,-91.375
1696243455443,-1.4658203,0.26660156,-0.091796875,-75.4375,-166.375,-45.28125,0.0,0.0,0.0
1696243455463,-1.2119141,-0.037109375,0.23144531,150.875,-230.25,-89.53125,0.0,0.0,0.0
1696243455558,-0.5136719,-0.0107421875,-0.10449219,112.3125,-167.9375,-52.71875,0.0,0.0,0.0
1696243455565,-0.33984375,-0.046875,-0.12207031,180.46875,-116.875,-56.6875,0.0,0.0,0.0
1696243455581,-0.1796875,0.20898438,-0.16015625,117.0625,-72.125,-34.34375,0.0,0.0,0.0
1696243455645,-0.15234375,0.21386719,-0.07128906,56.21875,15.46875,-20.0,0.0,0.0,0.0
1696243455673,-0.21191406,0.045898438,0.3671875,-4.03125,142.0,-10.84375,0.0,0.0,0.0
1696243455703,-1.4267578,0.15917969,1.6933594,-41.75,212.84375,-2.3125,0.0,0.0,0.0
1696243455761,-2.0,-0.39453125,0.6660156,129.28125,-160.3125,-38.5,0.0,0.0,0.0
1696243455791,1.5185547,0.3701172,0.4638672,76.65625,-91.03125,-30.375,0.0,0.0,0.0
1696243455822,-1.8007812,0.28515625,-1.5234375,-107.71875,127.34375,21.25,0.0,0.0,0.0
1696243455883,-1.6201172,-0.7324219,-0.359375,34.125,-82.1875,-51.625,0.0,0.0,0.0
1696243455912,0.390625,0.5439453,-0.12792969,-78.625,142.40625,46.84375,-100.8125,16.5625,-76.875
1696243455942,-2.0,-1.3476562,-0.29492188,-158.625,150.21875,41.03125,0.0,0.0,0.0
1696243456003,-0.7998047,0.4091797,0.18847656,-29.0,113.5,-40.125,0.0,0.0,0.0
1696243456032,-0.5253906,0.60839844,0.15039062,-69.28125,140.59375,38.59375,0.0,0.0,0.0
1696243456063,-0.8720703,-0.23339844,-0.015625,-87.28125,118.5,27.125,0.0,0.0,0.0
1696243456123,-0.8496094,-0.06640625,-0.09082031,-76.28125,97.1875,12.40625,0.0,0.0,0.0
1696243456153,-0.92578125,-0.059570312,0.047851562,-42.125,87.0,21.75,0.0,0.0,0.0
1696243456183,-1.1298828,-0.111328125,0.35351562,-55.34375,105.96875,17.40625,0.0,0.0,0.0
1696243456246,-1.3662109,-0.12207031,0.052734375,-62.6875,54.71875,20.46875,0.0,0.0,0.0
1696243456272,-1.3037109,-0.10449219,0.08105469,-63.40625,-2.71875,6.5,0.0,0.0,0.0
1696243456304,-1.3115234,0.10449219,0.40039062,-61.15625,-62.125,-3.03125,0.0,0.0,0.0
1696243456365,-1.2529297,-0.3310547,-0.15136719,-18.5625,-149.46875,-17.9375,0.0,0.0,0.0
1696243456393,-1.4990234,0.25390625,-0.4970703,114.0625,-182.90625,-40.375,0.0,0.0,0.0
1696243456423,-1.8203125,0.19433594,0.546875,-111.9375,-218.5,-26.78125,-97.5,27.5,-92.125
1696243456481,-1.8691406,0.16894531,-0.3408203,198.71875,-113.1875,-97.625,0.0,0.0,0.0
1696243456516,-0.875,-0.18945312,-0.15527344,120.1875,-138.03125,-100.875,0.0,0.0,0.0
1696243456541,-0.4326172,0.20019531,-0.049804688,149.0,-126.8125,-59.25,0.0,0.0,0.0
1696243456604,-0.14550781,0.09667969,-0.052734375,162.96875,-84.6875,-44.09375,0.0,0.0,0.0
1696243456633,-0.13378906,0.13574219,-0.32226562,115.96875,-45.21875,-23.28125,0.0,0.0,0.0
1696243456661,-0.10253906,0.171875,-0.06347656,51.40625,54.59375,-7.78125,0.0,0.0,0.0
1696243456724,-0.5546875,0.072265625,0.65722656,-40.90625,238.96875,-6.875,0.0,0.0,0.0
1696243456752,-2.0,-0.08496094,1.6142578,-17.46875,62.59375,9.46875,0.0,0.0,0.0
1696243456782,-0.053710938,0.24511719,0.5419922,150.6875,-209.625,-70.84375,0.0,0.0,0.0
1696243456843,-0.15820312,0.3955078,-0.2421875,17.40625,71.75,29.5625,0.0,0.0,0.0
1696243456871,-2.0,0.08300781,1.3701172,-141.78125,1.0,42.9375,0.0,0.0,0.0
1696243456902,0.4091797,1.2460938,-0.65625,-30.9375,79.5,-46.625,-101.5625,15.8125,-75.8125
1696243456965,-0.72265625,-0.51464844,-0.7753906,-138.5625,175.25,105.90625,0.0,0.0,0.0
1696243456991,-1.7861328,-0.7480469,0.28710938,-118.15625,149.125,2.21875,0.0,0.0,0.0
1696243457023,-0.515625,0.7636719,0.15722656,-33.25,104.875,3.0625,0.0,0.0,0.0
1696243457083,-0.8535156,-0.111328125,-0.033203125,-61.28125,111.59375,25.53125,0.0,0.0,0.0
1696243457114,-0.9951172,-0.1875,-0.07519531,-90.40625,90.0625,3.5,0.0,0.0,0.0
1696243457146,-0.8574219,0.0390625,-0.0546875,-41.5625,77.84375,7.96875,0.0,0.0,0.0
1696243457201,-1.0458984,-0.052734375,0.07910156,-45.34375,90.84375,19.84375,0.0,0.0,0.0
1696243457261,-1.0996094,0.095703125,0.35839844,-57.25,85.90625,17.84375,0.0,0.0,0.0
1696243457266,-1.3720703,-0.49414062,0.05078125,-45.15625,28.84375,29.75,0.0,0.0,0.0
1696243457321,-1.2265625,0.6220703,0.20703125,-59.375,-4.4375,-21.46875,0.0,0.0,0.0
1696243457352,-1.3007812,-0.328125,0.34765625,-42.0625,-79.1875,20.84375,0.0,0.0,0.0
1696243457383,-1.2978516,-0.26660156,-0.53222656,9.65625,-172.46875,-1.1875,-95.25,29.125,-101.0
1696243457445,-1.4052734,-0.09375,-0.23828125,76.53125,-194.0625,-15.25,0.0,0.0,0.0
1696243457472,-1.5888672,0.17578125,0.29492188,-95.75,-197.84375,-30.625,0.0,0.0,0.0
1696243457503,-1.6347656,0.13574219,0.07324219,205.75,-190.03125,-74.1875,0.0,0.0,0.0
1696243457563,-0.8046875,-0.15527344,-0.24316406,123.53125,-163.625,-96.53125,0.0,0.0,0.0
1696243457593,-0.43359375,0.044921875,-0.08300781,170.09375,-117.59375,-85.78125,0.0,0.0,0.0
1696243457623,-0.2529297,0.10644531,-0.15527344,163.5625,-84.8125,-60.09375,0.0,0.0,0.0
1696243457683,-0.23339844,0.34277344,-0.2705078,103.15625,-23.96875,-54.375,0.0,0.0,0.0
1696243457713,-0.14941406,0.37695312,0.17089844,0.5,93.28125,-27.4375,0.0,0.0,0.0
1696243457752,-0.94921875,0.11816406,1.0234375,-88.4375,185.6875,9.90625,0.0,0.0,0.0
1696243457801,-2.0,-0.4951172,1.7998047,226.5,-2.375,42.8125,0.0,0.0,0.0
1696243457831,0.22070312,0.14257812,0.7158203,-24.53125,-130.34375,-41.3125,0.0,0.0,0.0
1696243457866,-1.609375,0.13378906,-0.68847656,26.1875,70.875,16.8125,0.0,0.0,0.0
1696243457931,-2.0,-0.4453125,0.9267578,-50.59375,-109.21875,-53.75,-103.0625,14.3125,-77.875
1696243457952,0.95214844,1.2060547,0.052734375,10.4375,141.25,55.125,0.0,0.0,0.0
1696243457980,-2.0,-1.8798828,-1.0097656,-242.5,225.4375,90.28125,0.0,0.0,0.0
1696243458041,-0.66015625,0.06347656,0.21191406,6.53125,91.15625,-72.5625,0.0,0.0,0.0
1696243458081,-0.45703125,0.84472656,0.013671875,-73.1875,144.90625,24.75,0.0,0.0,0.0
1696243458102,-0.8769531,-0.20117188,-0.08203125,-92.21875,118.5,25.96875,0.0,0.0,0.0
1696243458163,-0.8388672,0.07324219,-0.095703125,-132.8125,97.5,-5.84375,0.0,0.0,0.0
1696243458193,-0.9423828,-0.18066406,0.18554688,-59.4375,76.9375,20.46875,0.0,0.0,0.0
1696243458222,-1.1064453,-0.18652344,0.19238281,-88.1875,90.71875,17.34375,0.0,0.0,0.0
1696243458283,-1.2939453,-0.12109375,0.18066406,-54.3125,54.40625,27.71875,0.0,0.0,0.0
1696243458312,-1.2109375,-0.44433594,-0.07324219,-57.8125,10.75,14.65625,0.0,0.0,0.0
1696243458342,-1.4052734,0.5410156,0.31933594,-31.6875,-55.28125,-13.21875,0.0,0.0,0.0
1696243458404,-1.2871094,-0.17285156,-0.20800781,-16.59375,-148.78125,-7.5,-95.6875,28.5625,-104.0
1696243458431,-1.3925781,0.08886719,-0.46191406,51.28125,-213.46875,1.375,0.0,0.0,0.0
1696243458462,-1.7246094,0.103515625,0.42382812,-86.4375,-214.21875,-23.46875,0.0,0.0,0.0
1696243458525,-1.7158203,0.26953125,-0.41308594,135.8125,-111.375,-95.8125,0.0,0.0,0.0
1696243458554,-0.7324219,-0.21679688,-0.044921875,119.5625,-169.09375,-101.40625,0.0,0.0,0.0
1696243458586,-0.41503906,-0.0234375,0.026367188,168.15625,-126.375,-68.53125,0.0,0.0,0.0
1696243458642,-0.2998047,0.06738281,-0.1484375,178.28125,-102.03125,-56.9375,0.0,0.0,0.0
1696243458671,-0.24609375,0.27929688,-0.14355469,101.3125,-46.5625,-48.125,0.0,0.0,0.0
1696243458705,-0.22460938,0.23535156,0.013671875,40.28125,51.53125,-28.0625,0.0,0.0,0.0
1696243458763,-0.42871094,0.10058594,0.6123047,-36.6875,190.34375,-17.5625,0.0,0.0,0.0
1696243458792,-2.0,-0.10058594,1.8837891,-20.3125,104.15625,17.46875,0.0,0.0,0.0
1696243458826,-0.6201172,0.22753906,0.734375,159.78125,-192.0,-45.375,0.0,0.0,0.0
1696243458883,-0.31835938,0.5878906,-0.40234375,49.5625,49.03125,31.75,0.0,0.0,0.0
1696243458912,-2.0,-0.22558594,0.8886719,-168.53125,-15.78125,9.25,-103.0625,15.8125,-76.25
1696243458943,0.30566406,1.1484375,-0.5185547,-11.46875,93.03125,-45.03125,0.0,0.0,0.0
1696243459003,-1.0585938,-0.74902344,-0.7373047,-139.71875,197.71875,44.9375,0.0,0.0,0.0
1696243459037,-1.4111328,-0.2783203,0.27246094,-85.9375,132.34375,8.1875,0.0,0.0,0.0
1696243459064,-0.4951172,0.62109375,-0.026367188,-87.03125,142.21875,32.375,0.0,0.0,0.0
1696243459124,-0.97558594,-0.1484375,0.0029296875,-106.75,125.375,33.40625,0.0,0.0,0.0
1696243459154,-0.828125,-0.16015625,-0.06738281,-97.28125,99.5,11.96875,0.0,0.0,0.0
1696243459186,-0.9326172,-0.103515625,-0.038085938,-74.9375,98.03125,14.96875,0.0,0.0,0.0
1696243459243,-1.0839844,-0.0048828125,0.16308594,-37.90625,102.9375,24.25,0.0,0.0,0.0
1696243459272,-1.1708984,0.09863281,0.41992188,-100.59375,66.71875,16.6875,0.0,0.0,0.0
1696243459302,-1.3271484,-0.58984375,0.013671875,-58.34375,8.1875,33.28125,0.0,0.0,0.0
1696243459364,-1.4599609,0.091796875,0.3857422,-33.5625,-31.65625,-18.90625,0.0,0.0,0.0
1696243459390,-1.2666016,-0.29492188,0.01953125,10.0625,-124.3125,-0.71875,-93.125,30.8125,-101.875
1696243459423,-1.4921875,0.18847656,-0.6845703,146.25,-195.34375,-19.21875,0.0,0.0,0.0
1696243459482,-1.8330078,0.51464844,0.52246094,-35.53125,-241.125,-25.0625,0.0,0.0,0.0
1696243459543,-1.6425781,0.40722656,-0.43652344,-117.0625,-173.1875,-47.15625,0.0,0.0,0.0
1696243459547,-1.1230469,0.044921875,0.234375,136.71875,-220.9375,-105.21875,0.0,0.0,0.0
1696243459603,-0.40234375,-0.17089844,-0.0703125,169.0,-152.6875,-69.4375,0.0,0.0,0.0
1696243459634,-0.13574219,0.0048828125,-0.14160156,183.96875,-120.21875,-56.9375,0.0,0.0,0.0
1696243459662,-0.0107421875,0.22558594,-0.234375,127.4375,-72.5625,-17.0625,0.0,0.0,0.0
1696243459723,-0.06347656,0.23046875,-9.765625E-4,60.71875,42.3125,-23.53125,0.0,0.0,0.0
1696243459753,-0.24414062,0.08984375,0.6513672,-41.5,221.75,-41.59375,0.0,0.0,0.0
1696243459782,-2.0,0.24121094,1.7949219,-59.8125,126.53125,-10.21875,0.0,0.0,0.0
1696243459845,-0.2861328,0.22949219,0.55859375,238.84375,-234.59375,-45.8125,0.0,0.0,0.0
1696243459874,0.08984375,0.41796875,-0.0625,29.84375,49.21875,33.28125,0.0,0.0,0.0
1696243459904,-2.0,0.6513672,1.8242188,-151.3125,3.0625,36.34375,-103.9375,17.0,-74.875
1696243459965,0.6796875,1.2480469,-0.4658203,-10.125,83.34375,-66.625,0.0,0.0,0.0
1696243459993,-0.7109375,-0.65527344,-0.9550781,-154.53125,195.21875,60.75,0.0,0.0,0.0
1696243460023,-1.984375,-0.4892578,0.37402344,-103.46875,148.6875,13.625,0.0,0.0,0.0
1696243460085,-0.45507812,0.6904297,0.03125,-70.75,135.6875,14.84375,0.0,0.0,0.0
1696243460115,-0.81347656,-0.13964844,0.01171875,-99.71875,139.375,33.09375,0.0,0.0,0.0
1696243460144,-0.8339844,-0.048828125,-0.015625,-91.90625,118.1875,9.34375,0.0,0.0,0.0
1696243460202,-0.7949219,0.0390625,0.0390625,-69.6875,99.15625,21.75,0.0,0.0,0.0
1696243460264,-1.1005859,-0.09082031,0.08691406,-37.90625,106.15625,34.5625,0.0,0.0,0.0
1696243460324,-1.1816406,-0.001953125,0.546875,-111.875,99.03125,8.375,0.0,0.0,0.0
1696243460331,-1.1318359,-0.49902344,-0.12597656,-37.59375,18.6875,36.65625,0.0,0.0,0.0
1696243460353,-1.4755859,0.42773438,0.19921875,-33.4375,-8.65625,-11.34375,0.0,0.0,0.0
1696243460382,-1.5195312,-0.4892578,-0.14160156,-33.9375,-108.3125,-3.75,-92.375,32.125,-103.6875
1696243460446,-1.1630859,0.38378906,-0.4169922,57.1875,-179.4375,-25.84375,0.0,0.0,0.0
1696243460474,-1.5830078,0.06347656,0.095703125,52.6875,-212.6875,-2.53125,0.0,0.0,0.0
1696243460501,-1.4482422,-0.001953125,0.024414062,-112.0,-189.5,-40.1875,0.0,0.0,0.0
1696243460565,-1.5654297,0.18652344,0.0625,244.5,-193.8125,-72.78125,0.0,0.0,0.0
1696243460593,-0.51171875,-0.11328125,-0.15527344,101.5625,-160.5,-83.0,0.0,0.0,0.0
1696243460625,-0.31152344,0.030273438,-0.12402344,168.875,-105.75,-69.875,0.0,0.0,0.0
1696243460685,-0.24511719,0.20117188,-0.08886719,123.09375,-70.40625,-46.0625,0.0,0.0,0.0
1696243460716,-0.14160156,0.24902344,-0.12792969,67.375,0.6875,-32.03125,0.0,0.0,0.0
1696243460747,-0.08984375,0.1171875,0.23632812,0.5,119.34375,-13.78125,0.0,0.0,0.0
1696243460804,-1.2285156,0.140625,1.1708984,-50.34375,229.15625,7.59375,0.0,0.0,0.0
1696243460831,-2.0,-0.4814453,1.4287109,143.375,-129.375,-6.4375,0.0,0.0,0.0
1696243460864,1.40625,0.61816406,0.36132812,63.46875,-119.84375,-30.0625,0.0,0.0,0.0
1696243460922,-1.9814453,0.13085938,-1.7060547,-82.46875,116.28125,42.8125,-99.125,18.8125,-74.3125
1696243460955,-1.0908203,-0.72265625,-0.85058594,-20.5,-62.40625,-67.78125,0.0,0.0,0.0
1696243460981,0.24511719,0.4111328,-0.35351562,-94.65625,151.875,44.75,0.0,0.0,0.0
1696243461044,-2.0,-1.0810547,-0.036132812,-157.71875,156.6875,55.0625,0.0,0.0,0.0
1696243461074,-0.5390625,0.58203125,0.10644531,-57.6875,134.25,-30.5625,0.0,0.0,0.0
1696243461101,-0.6123047,0.36621094,0.01171875,-56.59375,136.96875,49.09375,0.0,0.0,0.0
1696243461165,-0.83984375,-0.19921875,-0.13964844,-111.75,123.3125,20.15625,0.0,0.0,0.0
1696243461193,-0.7763672,0.109375,0.001953125,-88.875,113.96875,7.40625,0.0,0.0,0.0
1696243461255,-1.078125,-0.27441406,0.03515625,-38.625,107.3125,24.0625,0.0,0.0,0.0
1696243461288,-1.2724609,0.043945312,0.4609375,-97.09375,76.75,4.40625,0.0,0.0,0.0
1696243461313,-1.3212891,-0.29785156,-0.12792969,-54.25,32.4375,35.0,0.0,0.0,0.0
1696243461376,-1.3173828,-0.49121094,0.076171875,-35.46875,9.40625,8.9375,0.0,0.0,0.0
1696243461401,-1.3984375,-0.09472656,0.07128906,-34.0,-62.28125,-2.59375,-88.8125,30.8125,-102.375
1696243461431,-1.2578125,0.08496094,-0.23242188,11.15625,-145.78125,-25.90625,0.0,0.0,0.0
1696243461469,-1.2714844,0.2734375,-0.49609375,101.0625,-202.90625,-15.78125,0.0,0.0,0.0
1696243461523,-1.7119141,0.37304688,0.4189453,-94.0,-221.78125,-27.5625,0.0,0.0,0.0
1696243461551,-1.5683594,0.6347656,-0.49804688,0.3125,-154.09375,-66.5,0.0,0.0,0.0
1696243461582,-0.9941406,-0.025390625,0.12890625,139.21875,-213.46875,-113.75,0.0,0.0,0.0
1696243461642,-0.4189453,-0.13378906,-0.11425781,126.71875,-138.28125,-49.65625,0.0,0.0,0.0
1696243461673,-0.16113281,0.025390625,-0.10058594,145.1875,-95.0,-38.84375,0.0,0.0,0.0
1696243461702,-0.032226562,0.24511719,-0.21679688,104.5625,-58.75,-23.0,0.0,0.0,0.0
1696243461763,0.038085938,0.12792969,0.119140625,61.28125,75.03125,-21.09375,0.0,0.0,0.0
1696243461823,-0.5654297,0.11425781,0.9580078,-61.15625,260.75,-34.21875,0.0,0.0,0.0
1696243461829,-2.0,-0.62402344,1.4833984,4.03125,-12.90625,-3.75,0.0,0.0,0.0
1696243461883,1.1035156,0.5703125,0.48046875,219.25,-209.4375,-53.8125,0.0,0.0,0.0
1696243461943,-0.38183594,0.19921875,-1.3056641,9.21875,118.90625,41.15625,-99.125,17.4375,-70.6875
1696243461949,-2.0,-1.9111328,1.8261719,-97.03125,-163.5,-24.625,0.0,0.0,0.0
1696243462007,0.76660156,1.4980469,0.040039062,9.59375,126.25,-55.8125,0.0,0.0,0.0
1696243462032,-1.2099609,-1.0273438,-0.6875,-160.46875,200.75,70.28125,0.0,0.0,0.0
1696243462093,-1.2324219,-0.14648438,0.18457031,-78.3125,143.40625,-37.46875,0.0,0.0,0.0
1696243462121,-0.41992188,0.84472656,0.026367188,-50.59375,135.75,15.71875,0.0,0.0,0.0
1696243462153,-0.75390625,-0.013671875,-0.14746094,-121.875,136.5625,27.4375,0.0,0.0,0.0
1696243462183,-0.9267578,-0.15917969,-0.07519531,-112.90625,111.28125,11.5,0.0,0.0,0.0
1696243462245,-0.94433594,-0.060546875,0.13378906,-58.53125,91.34375,18.46875,0.0,0.0,0.0
1696243462273,-1.2353516,-0.3876953,0.16210938,-91.75,106.15625,15.34375,0.0,0.0,0.0
1696243462303,-1.2050781,0.20507812,0.44335938,-54.1875,59.59375,12.90625,0.0,0.0,0.0
1696243462361,-1.0097656,-0.75097656,-0.18359375,-34.96875,8.5625,43.78125,0.0,0.0,0.0
1696243462392,-1.5859375,0.2705078,0.06738281,-27.65625,-48.0,-16.21875,-90.3125,28.8125,-100.875
1696243462421,-1.390625,0.02734375,-0.052734375,0.96875,-124.84375,-34.53125,0.0,0.0,0.0
1696243462482,-1.2587891,0.4189453,-0.4248047,94.65625,-203.03125,-3.21875,0.0,0.0,0.0
1696243462511,-1.7421875,-0.0068359375,0.21386719,-56.15625,-220.0625,-14.5,0.0,0.0,0.0
1696243462544,-1.5488281,0.4716797,-0.30664062,-25.03125,-158.71875,-73.40625,0.0,0.0,0.0
1696243462604,-1.0439453,0.13085938,0.15625,134.28125,-209.28125,-105.875,0.0,0.0,0.0
1696243462633,-0.3359375,-0.15039062,-0.09667969,139.71875,-145.71875,-64.0,0.0,0.0,0.0
1696243462694,-0.19824219,-0.0126953125,-0.125,183.09375,-112.34375,-50.28125,0.0,0.0,0.0
1696243462734,-0.15722656,0.18554688,-0.07324219,113.03125,-55.46875,-23.40625,0.0,0.0,0.0
1696243462755,-0.18554688,0.17675781,-0.0087890625,65.75,35.90625,-22.5625,0.0,0.0,0.0
1696243462783,-0.26757812,0.09765625,0.4189453,-0.5625,162.125,-31.78125,0.0,0.0,0.0
1696243462844,-1.9980469,0.32421875,1.8466797,-53.28125,199.65625,-7.5625,0.0,0.0,0.0
1696243462873,-1.7636719,0.22558594,0.96191406,128.59375,-216.65625,-47.46875,0.0,0.0,0.0
1696243462905,0.85839844,0.7060547,0.24609375,51.6875,-42.15625,2.875,-98.875,14.875,-72.1875
1696243462961,-2.0,0.02734375,-1.3564453,-132.5,75.59375,42.9375,0.0,0.0,0.0
1696243462991,-0.5126953,-0.07128906,-0.9355469,-83.3125,15.40625,-55.40625,0.0,0.0,0.0
1696243463021,-0.39257812,-0.43066406,-0.6542969,-132.09375,181.0625,36.15625,0.0,0.0,0.0
1696243463113,-2.0,-0.9160156,0.06640625,-100.34375,164.8125,-3.8125,0.0,0.0,0.0
1696243463120,-0.5703125,0.6972656,0.076171875,-86.3125,138.8125,1.53125,0.0,0.0,0.0
1696243463140,-0.7373047,0.24414062,0.0390625,-79.84375,144.96875,47.4375,0.0,0.0,0.0
1696243463267,-0.7832031,-0.1328125,-0.234375,-132.5,120.625,14.78125,0.0,0.0,0.0
1696243463272,-0.9199219,0.040039062,0.07714844,-106.25,96.21875,10.65625,0.0,0.0,0.0
1696243463276,-1.1210938,-0.2861328,0.21777344,-24.21875,90.65625,31.5625,0.0,0.0,0.0
1696243463326,-1.1669922,-0.099609375,0.4873047,-113.65625,91.34375,1.375,0.0,0.0,0.0
1696243463360,-1.3017578,-0.234375,0.036132812,-21.84375,24.0625,33.03125,0.0,0.0,0.0
1696243463381,-1.4912109,-0.22167969,0.14746094,-35.28125,-13.15625,1.375,-92.25,26.875,-104.3125
1696243463476,-1.3476562,-0.12011719,0.030273438,-9.59375,-102.9375,-9.0,0.0,0.0,0.0
1696243463482,-1.25,0.24707031,-0.3359375,34.1875,-170.15625,-19.8125,0.0,0.0,0.0
1696243463502,-1.5849609,0.21191406,-0.23046875,23.375,-209.9375,-20.96875,0.0,0.0,0.0
1696243463562,-1.546875,0.10644531,0.15429688,-145.09375,-203.03125,-35.1875,0.0,0.0,0.0
1696243463593,-1.6572266,0.044921875,0.15820312,274.71875,-194.3125,-99.03125,0.0,0.0,0.0
1696243463625,-0.45117188,-0.2841797,-0.21191406,145.75,-163.125,-81.09375,0.0,0.0,0.0
1696243463746,-0.3671875,-0.044921875,-0.17089844,177.90625,-103.75,-71.03125,0.0,0.0,0.0
1696243463758,-0.14257812,0.22070312,-0.14941406,167.34375,-81.28125,-41.96875,0.0,0.0,0.0
1696243463762,-0.12890625,0.30078125,-0.15917969,85.3125,-17.5625,-30.4375,0.0,0.0,0.0
1696243463803,-0.15917969,0.15136719,0.1953125,17.40625,108.78125,-30.75,0.0,0.0,0.0
1696243463861,-0.90527344,0.21582031,0.98339844,-70.0,234.625,-24.03125,0.0,0.0,0.0
1696243463866,-2.0,-0.5839844,1.4501953,54.75,-32.15625,22.3125,0.0,0.0,0.0
1696243463924,0.7871094,0.7138672,0.63671875,113.21875,-177.96875,-48.9375,-101.6875,12.9375,-78.1875
1696243463952,-1.3486328,0.3876953,-0.9199219,23.5625,110.875,60.375,0.0,0.0,0.0
1696243463983,-2.0,-1.2451172,0.046875,-72.6875,-56.0625,-39.65625,0.0,0.0,0.0
1696243464105,0.3564453,0.640625,-0.24511719,-66.96875,130.09375,19.5625,0.0,0.0,0.0
1696243464112,-2.0,-0.9003906,-0.27929688,-139.34375,181.40625,63.0625,0.0,0.0,0.0
1696243464116,-0.796875,-0.028320312,0.12792969,-91.8125,124.65625,-22.6875,0.0,0.0,0.0
1696243464163,-0.53125,0.60839844,0.12597656,-83.6875,142.0625,32.84375,0.0,0.0,0.0
1696243464192,-0.87402344,-0.27246094,-0.0703125,-109.3125,121.125,26.15625,0.0,0.0,0.0
1696243464222,-0.8466797,-0.0390625,-0.043945312,-91.6875,99.9375,10.65625,0.0,0.0,0.0
1696243464346,-0.99121094,-0.15332031,0.07128906,-49.625,98.84375,27.59375,0.0,0.0,0.0
1696243464350,-1.1621094,-0.2841797,0.29882812,-44.5625,106.71875,23.46875,0.0,0.0,0.0
1696243464352,-1.2978516,-0.08105469,0.39746094,-28.0,56.1875,12.96875,0.0,0.0,0.0
1696243464401,-1.1132812,-0.22949219,-0.15527344,-32.21875,0.5,18.8125,-90.75,29.4375,-105.375
1696243464430,-1.2167969,0.6425781,0.39746094,-64.875,-39.46875,-3.46875,0.0,0.0,0.0
1696243464461,-1.3701172,-0.4921875,-0.13964844,-66.21875,-130.28125,8.625,0.0,0.0,0.0
1696243464521,-1.5185547,-0.17089844,-0.8017578,143.8125,-200.65625,-22.75,0.0,0.0,0.0
1696243464552,-1.7988281,0.76953125,0.54296875,-50.34375,-218.3125,-48.625,0.0,0.0,0.0
1696243464580,-1.5537109,0.2626953,-0.4375,-67.875,-150.375,-58.375,0.0,0.0,0.0
1696243464640,-1.1640625,-0.13183594,0.1484375,149.15625,-203.84375,-119.71875,0.0,0.0,0.0
1696243464673,-0.53808594,-0.08203125,-0.24121094,136.71875,-140.40625,-70.78125,0.0,0.0,0.0
1696243464710,-0.17578125,0.1875,-0.0625,208.96875,-101.34375,-65.84375,0.0,0.0,0.0
1696243464763,-0.24902344,0.13183594,-0.29003906,151.3125,-62.1875,-37.21875,0.0,0.0,0.0
1696243464792,-0.12890625,0.3046875,-0.1484375,68.65625,46.59375,-30.0625,0.0,0.0,0.0
1696243464825,-0.46777344,0.21386719,0.6796875,-75.75,180.875,-15.125,0.0,0.0,0.0
1696243464916,-2.0,-0.11035156,1.9511719,9.59375,119.09375,-8.65625,0.0,0.0,0.0
1696243464922,-0.8457031,-0.22851562,0.54296875,132.9375,-205.0625,-52.71875,-102.125,15.9375,-79.5625
1696243464942,-0.16308594,0.72753906,0.171875,84.53125,9.65625,14.90625,0.0,0.0,0.0
1696243465001,-2.0,0.123046875,1.0361328,-157.46875,-92.09375,30.125,0.0,0.0,0.0
1696243465035,0.47851562,1.3613281,-0.296875,11.34375,108.96875,-32.4375,0.0,0.0,0.0
1696243465064,-1.2851562,-0.94628906,-0.75097656,-193.0,220.71875,23.875,0.0,0.0,0.0
1696243465120,-1.3769531,-0.18847656,0.29003906,-52.5,128.25,-7.65625,0.0,0.0,0.0
1696243465151,-0.39648438,0.89160156,-0.059570312,-100.71875,149.8125,32.96875,0.0,0.0,0.0
1696243465180,-0.9736328,-0.13964844,-0.0859375,-82.53125,137.21875,48.84375,0.0,0.0,0.0
1696243465241,-0.7919922,-0.099609375,-0.017578125,-111.34375,120.625,5.15625,0.0,0.0,0.0
1696243465276,-0.8154297,-0.029296875,-0.2109375,-92.09375,116.28125,23.53125,0.0,0.0,0.0
1696243465304,-1.2382812,-0.29589844,0.21875,-39.0,116.71875,31.75,0.0,0.0,0.0
1696243465360,-1.1582031,-0.078125,0.42773438,-115.53125,75.75,-4.96875,0.0,0.0,0.0
1696243465390,-1.2929688,-0.4326172,-0.047851562,-11.40625,-4.5,42.875,-92.6875,26.875,-104.875
1696243465425,-1.4619141,0.25683594,0.32128906,-11.40625,-17.9375,-12.125,0.0,0.0,0.0
1696243465483,-1.2392578,-0.2763672,-0.064453125,-20.6875,-110.40625,-1.25,0.0,0.0,0.0
1696243465512,-1.3925781,0.20800781,-0.5410156,86.3125,-189.3125,-19.8125,0.0,0.0,0.0
1696243465542,-1.75,0.48339844,0.041992188,4.9375,-214.03125,-37.6875,0.0,0.0,0.0
1696243465605,-1.4570312,0.35839844,0.23339844,-141.96875,-207.75,-41.84375,0.0,0.0,0.0
1696243465631,-1.7578125,0.18554688,0.19921875,273.4375,-207.8125,-108.0625,0.0,0.0,0.0
1696243465662,-0.43359375,-0.24609375,-0.21191406,145.09375,-160.6875,-81.15625,0.0,0.0,0.0
1696243465723,-0.28027344,-0.09667969,-0.12207031,211.71875,-123.6875,-51.25,0.0,0.0,0.0
1696243465782,0.009765625,0.20605469,-0.16699219,130.625,-87.4375,-12.3125,0.0,0.0,0.0
1696243465787,-0.032226562,0.2998047,-0.20019531,90.6875,-6.9375,-15.3125,0.0,0.0,0.0
1696243465843,-0.11816406,0.11035156,0.25,14.28125,147.84375,-23.59375,0.0,0.0,0.0
1696243465873,-1.5146484,0.2734375,1.7216797,-66.65625,234.625,-29.8125,0.0,0.0,0.0
1696243465901,-2.0,-0.22167969,1.1689453,131.65625,-190.84375,-24.34375,-101.6875,16.6875,-76.6875
1696243465963,0.7392578,0.9316406,0.375,77.15625,-86.96875,-12.3125,0.0,0.0,0.0
1696243465992,-2.0,0.35058594,-0.2861328,-78.1875,-76.15625,62.40625,0.0,0.0,0.0
1696243466023,-0.020507812,0.62109375,-0.6503906,-68.25,107.3125,-55.34375,0.0,0.0,0.0
1696243466082,-1.4384766,-0.57128906,-0.6279297,-197.09375,217.78125,12.09375,0.0,0.0,0.0
1696243466112,-1.3486328,-0.3466797,0.22949219,-28.4375,137.90625,-44.84375,0.0,0.0,0.0
1696243466143,-0.34472656,0.6435547,0.115234375,-148.125,171.09375,26.9375,0.0,0.0,0.0
1696243466203,-1.1503906,-0.296875,0.0126953125,-138.4375,163.65625,79.5,0.0,0.0,0.0
1696243466264,-0.7128906,-0.13671875,0.07128906,-74.65625,106.71875,-4.5,0.0,0.0,0.0
1696243466266,-0.78125,0.15527344,0.0,-92.65625,95.96875,15.15625,0.0,0.0,0.0
1696243466324,-0.9980469,-0.21289062,0.08886719,-38.09375,89.9375,38.96875,0.0,0.0,0.0
1696243466385,-1.0996094,0.11035156,0.31347656,-82.40625,107.4375,20.96875,0.0,0.0,0.0
1696243466387,-1.3857422,-0.53808594,0.041015625,-47.71875,60.4375,44.6875,-92.25,26.125,-103.875
1696243466443,-1.2998047,-0.09082031,0.109375,-37.59375,8.6875,1.96875,0.0,0.0,0.0
1696243466472,-1.2714844,0.0703125,0.29296875,-22.875,-62.40625,-0.28125,0.0,0.0,0.0
1696243466504,-1.2753906,-0.13085938,-0.32617188,-2.1875,-156.09375,-12.6875,0.0,0.0,0.0
1696243466565,-1.4658203,-0.083984375,-0.5175781,118.90625,-200.125,-24.875,0.0,0.0,0.0
1696243466593,-1.8105469,0.4375,0.49804688,-54.3125,-225.03125,-46.625,0.0,0.0,0.0
1696243466622,-1.8017578,0.49804688,-0.61621094,123.71875,-126.625,-91.53125,0.0,0.0,0.0
1696243466681,-0.796875,-0.0048828125,-0.09863281,111.5,-200.71875,-103.875,0.0,0.0,0.0
1696243466712,-0.45703125,-0.17089844,-0.09375,171.3125,-147.1875,-54.71875,0.0,0.0,0.0
1696243466742,-0.12890625,-0.001953125,-0.11816406,164.625,-104.03125,-31.09375,0.0,0.0,0.0
1696243466804,-0.1015625,0.31152344,-0.26953125,108.46875,-45.875,-26.15625,0.0,0.0,0.0
1696243466832,0.0,0.19921875,0.13964844,46.625,80.78125,-17.5,0.0,0.0,0.0
1696243466861,-0.48339844,-9.765625E-4,1.3017578,-48.84375,276.6875,-29.09375,0.0,0.0,0.0
1696243466923,-2.0,-0.19628906,1.1513672,59.09375,-69.375,-2.78125,-99.0,17.875,-78.625
1696243466953,1.6376953,0.65625,0.24023438,163.03125,-202.5625,-33.3125,0.0,0.0,0.0
1696243466987,-1.0224609,0.16992188,-1.2675781,-93.5625,143.21875,45.375,0.0,0.0,0.0
1696243467045,-2.0,-1.9824219,-0.99609375,-11.0625,-45.6875,-19.5625,0.0,0.0,0.0
1696243467072,0.13964844,0.5888672,-0.2265625,-70.875,132.15625,-10.65625,0.0,0.0,0.0
1696243467103,-1.7548828,-0.9892578,-0.12207031,-130.125,191.96875,22.71875,0.0,0.0,0.0
1696243467163,-0.8300781,0.123046875,0.13476562,-98.75,149.96875,-20.90625,0.0,0.0,0.0
1696243467192,-0.5732422,0.4423828,0.061523438,-85.875,153.46875,39.625,0.0,0.0,0.0
1696243467223,-0.70214844,-0.10058594,-0.061523438,-102.34375,125.09375,21.5625,0.0,0.0,0.0
1696243467284,-0.90527344,0.046875,-0.11328125,-103.75,103.21875,5.15625,0.0,0.0,0.0
1696243467313,-1.0625,-0.10253906,0.21386719,-36.5,99.5625,18.5,0.0,0.0,0.0
1696243467346,-1.1738281,-0.3076172,0.1328125,-115.71875,99.8125,8.4375,0.0,0.0,0.0
1696243467400,-1.2001953,0.20410156,0.2607422,-54.25,55.5,23.15625,-90.0,26.125,-103.875
1696243467432,-1.1171875,-0.97558594,-0.18945312,-40.84375,18.6875,38.40625,0.0,0.0,0.0
1696243467492,-1.3945312,0.4658203,0.19726562,-28.5625,-39.40625,-13.09375,0.0,0.0,0.0
1696243467524,-1.4589844,-0.14257812,-0.16113281,-10.9375,-133.84375,-14.1875,0.0,0.0,0.0
1696243467550,-1.4619141,0.33984375,-0.57128906,185.0,-195.15625,-28.78125,0.0,0.0,0.0
1696243467581,-1.9501953,0.57714844,0.5732422,-98.28125,-232.71875,-20.0,0.0,0.0,0.0
1696243467643,-1.7070312,0.45214844,-0.6425781,-58.59375,-150.8125,-80.71875,0.0,0.0,0.0
1696243467672,-0.88183594,-0.27734375,0.09082031,141.84375,-209.8125,-122.71875,0.0,0.0,0.0
1696243467703,-0.34375,-0.20507812,-0.16894531,194.21875,-147.8125,-68.71875,0.0,0.0,0.0
1696243467763,-0.041015625,0.048828125,-0.25976562,209.90625,-111.84375,-40.125,0.0,0.0,0.0
1696243467792,-0.17285156,0.3251953,-0.21972656,125.4375,-73.53125,-27.9375,0.0,0.0,0.0
1696243467822,-0.08886719,0.17675781,0.26367188,57.375,74.46875,-34.21875,0.0,0.0,0.0
1696243467883,-0.578125,0.14355469,0.8798828,-53.84375,224.1875,-62.0625,0.0,0.0,0.0
1696243467911,-2.0,-0.028320312,1.7568359,66.21875,2.78125,11.25,-98.875,14.125,-79.25
1696243467944,0.18945312,0.7402344,0.55566406,127.6875,-168.375,-34.65625,0.0,0.0,0.0
1696243468003,-1.6943359,0.45507812,-0.47070312,64.875,63.0625,55.1875,0.0,0.0,0.0
1696243468033,-1.6904297,-1.0478516,-0.55078125,-54.9375,-51.25,6.96875,0.0,0.0,0.0
1696243468064,-0.23632812,-0.19628906,-0.41210938,-96.875,152.25,21.5,0.0,0.0,0.0
1696243468128,-2.0,-0.66015625,0.018554688,-135.5,210.34375,-20.78125,0.0,0.0,0.0
1696243468153,-0.54589844,0.33203125,0.265625,-129.34375,147.96875,-32.5,0.0,0.0,0.0
1696243468182,-0.6425781,0.4970703,0.15136719,-100.78125,163.0,57.5625,0.0,0.0,0.0
1696243468241,-0.66796875,-0.390625,-0.13769531,-108.21875,138.15625,10.59375,0.0,0.0,0.0
1696243468271,-0.8183594,0.055664062,0.034179688,-107.125,101.09375,-3.21875,0.0,0.0,0.0
1696243468305,-1.0546875,-0.091796875,0.26660156,-30.40625,84.0625,25.90625,0.0,0.0,0.0
1696243468364,-1.2080078,-0.123046875,-0.026367188,-111.6875,103.65625,14.4375,0.0,0.0,0.0
1696243468397,-1.2626953,0.09082031,0.27929688,-58.78125,63.9375,18.625,-89.6875,25.375,-104.625
1696243468423,-1.2890625,-0.42382812,-0.009765625,-74.28125,8.8125,9.71875,0.0,0.0,0.0
1696243468485,-1.4121094,0.15722656,0.2734375,-51.03125,-63.46875,-1.875,0.0,0.0,0.0
1696243468514,-1.2822266,-0.24121094,-0.3779297,-16.1875,-155.4375,-18.84375,0.0,0.0,0.0
1696243468546,-1.3544922,0.28320312,-0.4326172,109.875,-217.75,-15.1875,0.0,0.0,0.0
1696243468605,-1.8486328,0.22265625,0.51171875,-77.8125,-245.65625,-12.84375,0.0,0.0,0.0
1696243468665,-1.9482422,0.35839844,-0.3876953,62.5,-135.78125,-92.09375,0.0,0.0,0.0
1696243468673,-0.7783203,-0.23242188,-0.08886719,113.34375,-171.25,-133.84375,0.0,0.0,0.0
1696243468724,-0.4033203,-0.026367188,-0.12695312,196.15625,-142.25,-77.96875,0.0,0.0,0.0
1696243468753,0.05078125,0.068359375,-0.029296875,188.125,-88.0,-36.90625,0.0,0.0,0.0
1696243468782,-0.18066406,0.17578125,-0.19238281,95.65625,-30.6875,-20.4375,0.0,0.0,0.0
1696243468845,-0.099609375,0.18066406,0.029296875,52.25,64.40625,-17.0,0.0,0.0,0.0
1696243468877,-0.52734375,0.19140625,0.83984375,-39.5,226.09375,-39.59375,0.0,0.0,0.0
1696243468901,-2.0,-0.27148438,1.7226562,54.25,20.65625,14.59375,-102.0,15.8125,-76.25
1696243468965,0.6171875,0.53125,0.4921875,159.71875,-207.0625,-39.03125,0.0,0.0,0.0
1696243469000,-1.0244141,0.35351562,-0.4326172,53.21875,110.75,45.6875,0.0,0.0,0.0
1696243469023,-2.0,-1.1904297,0.515625,-73.0,-118.625,-13.65625,0.0,0.0,0.0
1696243469085,0.099609375,0.6542969,0.034179688,-54.375,129.71875,12.46875,0.0,0.0,0.0
1696243469113,-1.7910156,-0.83691406,-0.27539062,-171.75,206.4375,9.0,0.0,0.0,0.0
1696243469143,-0.83203125,0.0048828125,0.26367188,-106.625,137.34375,-28.90625,0.0,0.0,0.0
1696243469205,-0.5283203,0.5996094,0.11425781,-82.875,150.96875,41.9375,0.0,0.0,0.0
1696243469233,-0.87109375,-0.20117188,-0.061523438,-110.15625,137.78125,25.78125,0.0,0.0,0.0
1696243469264,-0.7519531,0.03515625,-0.08203125,-112.3125,116.0,11.125,0.0,0.0,0.0
1696243469324,-0.9091797,-0.11035156,0.20507812,-76.34375,107.25,25.34375,0.0,0.0,0.0
1696243469353,-1.1914062,-0.4375,0.020507812,-85.5,108.96875,21.375,0.0,0.0,0.0
1696243469383,-1.2949219,0.26367188,0.40625,-71.84375,47.1875,14.25,-92.125,25.6875,-104.0
1696243469443,-1.1865234,-0.6982422,-0.12988281,-58.28125,5.75,33.59375,0.0,0.0,0.0
1696243469472,-1.4277344,0.24511719,0.20019531,-26.71875,-46.3125,-10.34375,0.0,0.0,0.0
1696243469502,-1.2705078,-0.15136719,-0.03125,2.0625,-131.28125,-11.34375,0.0,0.0,0.0
1696243469562,-1.4521484,0.23339844,-0.5751953,132.5,-209.6875,-11.8125,0.0,0.0,0.0
1696243469592,-1.7431641,0.4921875,0.50097656,-78.96875,-221.59375,-30.875,0.0,0.0,0.0
1696243469623,-1.65625,0.62890625,-0.30566406,-76.46875,-163.8125,-68.59375,0.0,0.0,0.0
1696243469686,-1.0068359,-0.16015625,0.10253906,147.59375,-215.375,-123.09375,0.0,0.0,0.0
1696243469717,-0.4033203,-0.19824219,-0.10253906,189.34375,-153.78125,-54.71875,0.0,0.0,0.0
1696243469744,-0.17675781,-0.044921875,-0.15234375,196.65625,-117.90625,-45.4375,0.0,0.0,0.0
1696243469803,-0.115234375,0.2421875,-0.15527344,115.84375,-73.84375,-23.65625,0.0,0.0,0.0
1696243469832,-0.061523438,0.24121094,0.052734375,70.0,49.40625,-30.8125,0.0,0.0,0.0
1696243469863,-0.23144531,0.21875,0.7060547,-22.09375,212.0625,-46.5625,0.0,0.0,0.0
1696243469926,-2.0,0.28808594,1.7998047,27.71875,71.3125,9.78125,-102.0,17.125,-76.5625
1696243469963,-0.30371094,0.2890625,0.6269531,199.53125,-189.4375,-27.5625,0.0,0.0,0.0
1696243469983,-0.6845703,0.9941406,-0.5986328,39.90625,40.5,41.15625,0.0,0.0,0.0
1696243470045,-2.0,-0.84277344,1.8457031,-73.125,-102.28125,54.9375,0.0,0.0,0.0
1696243470077,0.0546875,0.7392578,0.22070312,-83.125,121.3125,-45.21875,0.0,0.0,0.0
1696243470111,-1.3173828,-0.7265625,-0.3623047,-118.21875,211.8125,10.59375,0.0,0.0,0.0
1696243470162,-1.0595703,-0.09765625,0.3154297,-44.75,145.03125,-40.25,0.0,0.0,0.0
1696243470193,-0.5234375,0.8720703,0.14453125,-79.03125,138.6875,40.5625,0.0,0.0,0.0
1696243470223,-0.7919922,-0.08496094,-0.00390625,-103.875,147.78125,20.34375,0.0,0.0,0.0
1696243470282,-0.74902344,-0.140625,-0.14160156,-103.9375,115.4375,3.0625,0.0,0.0,0.0
1696243470320,-0.94921875,0.04296875,0.05078125,-81.1875,110.0,9.125,0.0,0.0,0.0
1696243470344,-1.2675781,-0.17285156,0.3173828,-49.625,110.5,23.65625,0.0,0.0,0.0
1696243470401,-1.1699219,0.1328125,0.3857422,-117.3125,68.125,-4.75,-92.875,26.3125,-104.0
1696243470432,-1.1230469,-0.7441406,0.018554688,-30.53125,0.21875,45.1875,0.0,0.0,0.0
1696243470467,-1.5273438,0.12109375,0.24121094,-20.6875,-58.4375,-22.8125,0.0,0.0,0.0
1696243470524,-1.4091797,-0.09277344,-0.19238281,38.9375,-144.03125,-37.8125,0.0,0.0,0.0
1696243470552,-1.4716797,0.4580078,-0.41601562,119.125,-203.90625,-36.0,0.0,0.0,0.0
1696243470582,-1.7392578,0.5,0.5058594,-102.125,-234.46875,-23.90625,0.0,0.0,0.0
1696243470646,-1.8720703,0.49609375,-0.6064453,-2.125,-148.84375,-71.875,0.0,0.0,0.0
1696243470672,-0.7988281,-0.31445312,0.047851562,140.25,-196.8125,-124.25,0.0,0.0,0.0
1696243470702,-0.40722656,-0.26660156,-0.15527344,204.28125,-140.53125,-72.4375,0.0,0.0,0.0
1696243470764,-0.0087890625,0.099609375,-0.1640625,197.3125,-118.21875,-28.46875,0.0,0.0,0.0
1696243470792,-0.0146484375,0.26953125,-0.23242188,112.0,-57.0625,-29.28125,0.0,0.0,0.0
1696243470825,-0.046875,0.140625,0.02734375,76.0625,59.90625,-32.8125,0.0,0.0,0.0
1696243470883,-0.578125,0.12695312,1.3369141,-14.15625,235.75,-50.6875,0.0,0.0,0.0
1696243470944,-2.0,-0.1328125,1.1279297,24.65625,-1.8125,-2.71875,-103.8125,15.8125,-75.1875
1696243470951,0.7158203,1.2431641,0.28125,254.40625,-174.25,-32.4375,0.0,0.0,0.0
1696243471004,-1.5654297,0.57714844,0.29882812,-28.5,41.65625,66.90625,0.0,0.0,0.0
1696243471033,-1.4951172,-0.6230469,-0.25097656,-6.78125,-52.03125,10.15625,0.0,0.0,0.0
1696243471061,-0.7216797,-0.07128906,9.765625E-4,-140.5625,129.78125,-13.09375,0.0,0.0,0.0
1696243471124,-1.6962891,-0.5048828,-0.0390625,-105.84375,189.15625,-38.4375,0.0,0.0,0.0
1696243471151,-0.6904297,0.34375,0.2861328,-115.59375,153.59375,-24.5,0.0,0.0,0.0
1696243471182,-0.8183594,0.2841797,-0.026367188,-119.25,156.5625,55.875,0.0,0.0,0.0
1696243471244,-0.83203125,-0.15820312,0.020507812,-114.875,154.375,15.59375,0.0,0.0,0.0
1696243471273,-0.6767578,0.09472656,0.052734375,-101.125,120.3125,6.75,0.0,0.0,0.0
1696243471302,-0.7998047,-0.034179688,-0.22363281,-119.5,113.71875,17.90625,0.0,0.0,0.0
1696243471363,-1.1337891,-0.15625,0.22558594,-32.78125,102.125,31.5625,0.0,0.0,0.0
1696243471399,-1.1328125,0.18261719,0.44921875,-128.34375,77.40625,3.4375,-94.625,25.25,-102.625
1696243471421,-1.4921875,-0.78027344,-0.021484375,-41.625,2.03125,46.59375,0.0,0.0,0.0
1696243471486,-1.4960938,0.27246094,0.3125,-19.28125,-9.5625,-21.90625,0.0,0.0,0.0
1696243471512,-1.3242188,-0.22753906,0.27539062,-13.90625,-97.28125,29.9375,0.0,0.0,0.0
1696243471544,-1.3720703,-0.05078125,-0.7363281,19.65625,-196.09375,18.28125,0.0,0.0,0.0
1696243471603,-1.4042969,0.19433594,-0.1328125,54.8125,-204.875,-30.9375,0.0,0.0,0.0
1696243471632,-1.6005859,0.32617188,0.296875,-63.0,-217.15625,-27.03125,0.0,0.0,0.0
1696243471663,-1.7998047,0.22949219,-0.056640625,181.9375,-147.3125,-109.0,0.0,0.0,0.0
1696243471724,-0.5966797,-0.24511719,-0.2548828,164.78125,-157.625,-150.96875,0.0,0.0,0.0
1696243471753,-0.3955078,-0.083984375,-0.17285156,210.6875,-123.875,-87.3125,0.0,0.0,0.0
1696243471783,-0.12402344,0.09375,-0.18066406,192.5625,-100.125,-46.125,0.0,0.0,0.0
1696243471841,-0.1171875,0.2529297,-0.19628906,113.90625,-18.34375,-38.3125,0.0,0.0,0.0
1696243471881,-0.16894531,0.23730469,0.25976562,21.0,105.0,-45.21875,0.0,0.0,0.0
1696243471932,-1.2675781,0.41601562,1.5273438,-125.375,197.40625,-42.03125,-102.75,14.5625,-71.3125
1696243471961,-2.0,-0.25,1.2646484,279.71875,-100.3125,18.09375,0.0,0.0,0.0
1696243471991,0.9111328,0.30078125,0.54003906,32.40625,-147.25,-0.34375,0.0,0.0,0.0
1696243472024,-1.3701172,0.49121094,0.05859375,33.09375,125.625,13.09375,0.0,0.0,0.0
1696243472086,-2.0,-0.6044922,-0.38183594,-62.9375,-82.1875,-44.65625,0.0,0.0,0.0
1696243472114,0.20703125,0.3955078,0.040039062,-22.71875,167.9375,57.625,0.0,0.0,0.0
1696243472143,-2.0,-1.1289062,-0.09082031,-277.09375,219.4375,-11.875,0.0,0.0,0.0
1696243472205,-0.6455078,0.078125,0.38476562,-81.375,137.09375,-64.75,0.0,0.0,0.0
1696243472233,-0.43652344,0.7626953,0.06347656,-109.4375,157.96875,31.625,0.0,0.0,0.0
1696243472264,-0.95996094,-0.35351562,-0.22851562,-146.4375,166.9375,33.21875,0.0,0.0,0.0
1696243472325,-0.7841797,0.016601562,-0.13769531,-133.59375,113.4375,9.53125,0.0,0.0,0.0
1696243472355,-0.9248047,-0.08984375,0.25976562,-98.5,88.15625,18.875,0.0,0.0,0.0
1696243472413,-1.2792969,-0.3828125,0.05859375,-91.84375,92.90625,19.25,-97.0625,23.3125,-103.875
1696243472443,-1.1123047,0.16503906,0.3857422,-82.6875,70.75,9.40625,0.0,0.0,0.0
1696243472475,-1.2138672,-0.75390625,-0.0146484375,-31.6875,10.8125,48.71875,0.0,0.0,0.0
1696243472503,-1.4658203,0.45507812,0.16601562,-36.9375,-19.28125,-20.5625,0.0,0.0,0.0
1696243472567,-1.3095703,-0.25,0.06933594,2.5,-119.0,-4.8125,0.0,0.0,0.0
1696243472591,-1.4101562,0.16503906,-0.67089844,89.34375,-199.6875,-18.65625,0.0,0.0,0.0
1696243472620,-1.8339844,0.3330078,0.07128906,-38.5,-235.75,-54.96875,0.0,0.0,0.0
1696243472686,-1.5722656,0.45996094,0.0390625,-82.9375,-184.71875,-55.09375,0.0,0.0,0.0
1696243472713,-1.1201172,-0.13183594,0.38476562,182.875,-264.5625,-93.65625,0.0,0.0,0.0
1696243472744,-0.44921875,-0.27539062,-0.14257812,177.90625,-171.65625,-56.8125,0.0,0.0,0.0
1696243472805,-0.19921875,-0.05078125,-0.17089844,209.28125,-156.09375,-30.8125,0.0,0.0,0.0
1696243472836,-0.037109375,0.21582031,-0.13769531,136.71875,-82.125,-18.90625,0.0,0.0,0.0
1696243472863,-0.15039062,0.25976562,-0.15625,76.34375,5.40625,-24.21875,0.0,0.0,0.0
1696243472925,-0.14941406,0.099609375,0.35839844,17.9375,132.09375,-36.21875,-101.5625,20.125,-63.1875
1696243472954,-1.0869141,0.37597656,1.8955078,-80.09375,228.40625,-40.125,0.0,0.0,0.0
1696243472991,-2.0,-0.25390625,0.9560547,112.3125,-116.125,-8.34375,0.0,0.0,0.0
1696243473045,1.6425781,0.4921875,0.3076172,124.5,-148.90625,-14.03125,0.0,0.0,0.0
1696243473073,-0.8466797,0.4501953,-1.5576172,-140.5625,175.0625,37.5,0.0,0.0,0.0
1696243473107,-2.0,-1.9824219,-0.18457031,54.3125,-53.03125,-28.0625,0.0,0.0,0.0
1696243473165,0.6113281,1.1748047,-0.01171875,-76.71875,155.125,-69.0,0.0,0.0,0.0
1696243473222,-1.4462891,-1.0107422,-0.48339844,-127.125,185.5625,86.75,0.0,0.0,0.0
1696243473228,-1.0302734,-0.052734375,0.125,-65.25,168.0,-46.0,0.0,0.0,0.0
1696243473280,-0.5605469,0.6357422,-0.087890625,-81.84375,147.59375,11.25,0.0,0.0,0.0
1696243473311,-0.70996094,0.016601562,-0.12109375,-124.375,137.84375,12.28125,0.0,0.0,0.0
1696243473340,-0.8066406,0.044921875,-0.16113281,-114.75,109.875,9.125,0.0,0.0,0.0
1696243473405,-0.9560547,-0.15429688,0.16503906,-48.40625,93.28125,26.21875,-95.5625,21.5,-99.9375
1696243473432,-1.2197266,-0.40039062,0.36035156,-152.15625,98.46875,8.5,0.0,0.0,0.0
1696243473464,-1.2597656,-0.37402344,-0.13183594,-10.0625,31.625,40.4375,0.0,0.0,0.0
1696243473532,-1.4384766,0.24511719,0.13671875,-47.78125,15.59375,-14.8125,0.0,0.0,0.0
1696243473552,-1.4814453,-0.06738281,0.19726562,-49.75,-62.28125,16.3125,0.0,0.0,0.0
1696243473584,-1.3886719,-0.41015625,-0.59277344,3.0,-170.21875,-2.65625,0.0,0.0,0.0
1696243473642,-1.3984375,0.16992188,-0.51171875,104.8125,-191.9375,-37.6875,0.0,0.0,0.0
1696243473672,-1.8525391,0.22851562,0.35058594,-71.71875,-229.34375,-38.0,0.0,0.0,0.0
1696243473707,-2.0,0.18164062,-0.19140625,252.375,-147.875,-101.0625,0.0,0.0,0.0
1696243473764,-0.6591797,-0.19726562,-0.25,119.25,-160.4375,-105.375,0.0,0.0,0.0
1696243473795,-0.265625,0.06542969,-0.22949219,156.5625,-119.90625,-42.9375,0.0,0.0,0.0
1696243473823,-0.0859375,-0.036132812,-0.15820312,165.21875,-97.09375,-27.875,0.0,0.0,0.0
1696243473882,0.00390625,0.26171875,-0.36132812,137.8125,-57.84375,-21.09375,0.0,0.0,0.0
1696243473916,-0.04296875,0.16308594,0.095703125,40.03125,97.75,-10.34375,-101.6875,18.1875,-67.875
1696243473942,-1.1503906,0.26464844,1.0224609,-92.34375,235.1875,-30.5,0.0,0.0,0.0
1696243474003,-2.0,-0.33984375,1.7773438,197.09375,-67.59375,-5.34375,0.0,0.0,0.0
1696243474032,1.1074219,0.3544922,0.5019531,71.71875,-168.5,-28.375,0.0,0.0,0.0
1696243474066,-2.0,0.36035156,-0.7939453,29.78125,20.09375,68.875,0.0,0.0,0.0
1696243474124,-0.047851562,-0.21484375,-1.3193359,35.34375,-8.03125,-1.6875,0.0,0.0,0.0
1696243474154,-0.8261719,-0.5595703,-1.1679688,-233.9375,186.84375,29.125,0.0,0.0,0.0
1696243474183,-2.0,-0.9550781,0.111328125,-74.40625,204.125,-22.1875,0.0,0.0,0.0
1696243474246,-0.484375,0.47851562,0.29785156,-163.4375,143.09375,-30.6875,0.0,0.0,0.0
1696243474273,-0.7001953,0.3232422,0.09082031,-111.03125,174.65625,43.28125,0.0,0.0,0.0
1696243474303,-0.71972656,-0.23242188,-0.10839844,-93.625,135.21875,5.6875,0.0,0.0,0.0
1696243474369,-0.671875,0.17480469,-0.20703125,-128.0,118.25,6.0625,0.0,0.0,0.0
1696243474395,-0.98828125,-0.11328125,0.25683594,-73.1875,102.25,28.59375,-96.4375,21.9375,-98.4375
1696243474422,-1.265625,-0.5,0.20117188,-132.09375,101.53125,6.25,0.0,0.0,0.0
1696243474481,-1.1875,0.0,0.20800781,-37.71875,41.65625,21.875,0.0,0.0,0.0
1696243474513,-1.2158203,-0.65527344,-0.19335938,-27.96875,18.9375,27.1875,0.0,0.0,0.0
1696243474542,-1.5683594,0.30371094,0.16308594,-24.0625,-32.21875,-0.15625,0.0,0.0,0.0
1696243474603,-1.2792969,-0.15039062,-0.09472656,2.1875,-114.90625,-5.09375,0.0,0.0,0.0
1696243474632,-1.4140625,0.47753906,-0.6591797,119.6875,-181.3125,-23.65625,0.0,0.0,0.0
1696243474662,-1.796875,0.43164062,0.1875,-36.875,-221.21875,-27.875,0.0,0.0,0.0
1696243474721,-1.4404297,0.36132812,-0.09472656,-106.3125,-195.90625,-55.34375,0.0,0.0,0.0
1696243474755,-1.5,0.052734375,0.39453125,241.15625,-242.15625,-107.875,0.0,0.0,0.0
1696243474785,-0.40234375,-0.23828125,-0.16308594,164.0625,-161.90625,-63.15625,0.0,0.0,0.0
1696243474841,-0.19140625,-0.052734375,-0.1875,188.78125,-114.125,-39.84375,0.0,0.0,0.0
1696243474871,-0.10839844,0.17285156,-0.103515625,125.5,-81.28125,-18.15625,0.0,0.0,0.0
1696243474935,-0.08496094,0.30273438,-0.15820312,70.4375,9.1875,-19.75,-100.5,16.5625,-67.375
1696243474966,-0.19042969,0.16992188,0.3623047,17.28125,169.15625,-19.15625,0.0,0.0,0.0
1696243475006,-2.0,0.3310547,1.9873047,-89.34375,190.21875,-6.28125,0.0,0.0,0.0
1696243475023,-1.3037109,0.36816406,0.78125,245.4375,-209.09375,-23.125,0.0,0.0,0.0
1696243475083,0.89160156,0.4326172,0.02734375,15.25,-54.375,26.4375,0.0,0.0,0.0
1696243475113,-2.0,0.25976562,-0.8876953,-162.65625,90.28125,41.65625,0.0,0.0,0.0
1696243475144,-0.51464844,0.001953125,-0.6279297,-7.03125,32.375,-55.15625,0.0,0.0,0.0
1696243475205,-0.21484375,-0.4580078,-0.69433594,-187.125,182.75,19.5,0.0,0.0,0.0
1696243475232,-2.0,-0.97558594,-0.0107421875,-103.09375,163.84375,11.5,0.0,0.0,0.0
1696243475263,-0.6738281,0.59277344,0.10644531,-42.34375,127.78125,-9.5625,0.0,0.0,0.0
1696243475324,-0.68652344,0.5253906,0.20800781,-63.28125,142.21875,32.78125,0.0,0.0,0.0
1696243475351,-0.7529297,-0.18945312,-0.091796875,-104.8125,122.59375,11.1875,0.0,0.0,0.0
1696243475411,-0.82910156,0.04296875,-0.25,-97.78125,103.71875,7.03125,-96.3125,21.8125,-96.5
1696243475443,-1.0351562,0.036132812,0.19433594,-21.125,108.3125,25.03125,0.0,0.0,0.0
1696243475503,-1.2509766,-0.21289062,0.28125,-121.21875,108.46875,-2.59375,0.0,0.0,0.0
1696243475507,-1.3730469,-0.005859375,0.19628906,-74.40625,34.5,14.96875,0.0,0.0,0.0
1696243475562,-1.2949219,-0.5761719,0.14355469,-40.40625,1.0,25.09375,0.0,0.0,0.0
1696243475592,-1.4541016,-0.3671875,0.08105469,-44.125,-60.90625,2.15625,0.0,0.0,0.0
1696243475622,-1.4599609,-0.24121094,-0.48046875,37.0625,-153.0625,-37.46875,0.0,0.0,0.0
1696243475683,-1.3466797,0.7167969,-0.5185547,126.65625,-193.59375,-48.4375,0.0,0.0,0.0
1696243475713,-1.5390625,0.45410156,0.42382812,-112.96875,-237.46875,-13.03125,0.0,0.0,0.0
1696243475743,-1.9912109,0.29296875,-0.64746094,70.5625,-122.84375,-105.25,0.0,0.0,0.0
1696243475806,-0.6953125,-0.3701172,-0.12890625,115.84375,-172.90625,-135.59375,0.0,0.0,0.0
1696243475833,-0.36328125,-0.14160156,-0.1796875,186.40625,-130.03125,-69.5,0.0,0.0,0.0
1696243475861,-0.036132812,0.11621094,-0.0859375,164.0625,-97.8125,-20.0,0.0,0.0,0.0
1696243475924,-0.06347656,0.19628906,-0.14160156,101.75,-30.25,-15.125,-98.6875,17.5625,-68.4375
1696243475953,-0.043945312,0.19042969,0.119140625,38.875,103.21875,-24.5,0.0,0.0,0.0
1696243475983,-1.0029297,0.22363281,0.9667969,-74.71875,227.6875,-23.90625,0.0,0.0,0.0
1696243476049,-2.0,-0.3935547,1.4960938,119.25,-67.96875,22.0,0.0,0.0,0.0
1696243476073,0.8955078,0.4423828,0.45996094,147.15625,-167.9375,-17.25,0.0,0.0,0.0
1696243476164,-0.56640625,0.5019531,-0.2265625,19.15625,104.9375,13.5,0.0,0.0,0.0
1696243476170,-2.0,-1.6552734,1.0634766,-151.625,-133.53125,-53.4375,0.0,0.0,0.0
1696243476191,0.6142578,1.6367188,0.20507812,31.4375,121.96875,-25.84375,0.0,0.0,0.0
1696243476229,-1.1601562,-0.93652344,-0.6933594,-186.84375,214.5,62.59375,0.0,0.0,0.0
1696243476281,-1.4052734,-0.36523438,0.21777344,-56.875,141.125,-20.3125,0.0,0.0,0.0
1696243476312,-0.44433594,0.9013672,0.13378906,-67.3125,134.40625,10.34375,0.0,0.0,0.0
1696243476343,-0.7675781,0.03125,-0.01171875,-116.5625,155.28125,38.96875,0.0,0.0,0.0
1696243476405,-0.8017578,-0.19042969,-0.29492188,-118.40625,124.28125,19.84375,-95.25,19.25,-94.6875
1696243476434,-0.9501953,0.06542969,0.034179688,-82.8125,119.46875,22.59375,0.0,0.0,0.0
1696243476464,-1.2470703,-0.2265625,0.41796875,-65.3125,108.1875,24.375,0.0,0.0,0.0
1696243476524,-1.3505859,0.026367188,0.3515625,-101.0625,53.3125,10.21875,0.0,0.0,0.0
1696243476553,-1.2353516,-0.61816406,-0.025390625,-39.625,-7.5,36.34375,0.0,0.0,0.0
1696243476584,-1.5927734,-0.041015625,0.021484375,-7.6875,-72.71875,-15.25,0.0,0.0,0.0
1696243476644,-1.3759766,0.099609375,-0.3310547,49.0,-153.78125,-38.6875,0.0,0.0,0.0
1696243476676,-1.421875,0.41503906,-0.359375,97.90625,-200.90625,-22.3125,0.0,0.0,0.0
1696243476702,-1.4267578,0.28808594,0.39453125,-137.625,-221.40625,-30.0625,0.0,0.0,0.0
1696243476763,-1.9873047,0.31152344,-0.41796875,164.71875,-120.59375,-94.53125,0.0,0.0,0.0
1696243476794,-0.61035156,-0.31054688,-0.07910156,141.28125,-156.78125,-139.3125,0.0,0.0,0.0
1696243476825,-0.3798828,-0.13183594,-0.21679688,185.1875,-125.09375,-78.90625,0.0,0.0,0.0
1696243476882,-0.1640625,0.18457031,-0.12402344,175.53125,-87.4375,-39.40625,0.0,0.0,0.0
1696243476914,-0.12792969,0.3154297,-0.17480469,98.75,-46.375,-33.96875,-98.25,17.5625,-69.5
1696243476943,-0.01171875,0.16503906,0.06738281,35.03125,66.1875,-27.1875,0.0,0.0,0.0
1696243477001,-0.5966797,0.072265625,1.09375,-46.5,215.28125,-34.28125,0.0,0.0,0.0
1696243477032,-2.0,-0.56152344,1.6777344,89.90625,-18.40625,33.78125,0.0,0.0,0.0
1696243477063,0.78222656,0.65234375,0.4169922,150.21875,-166.65625,-49.65625,0.0,0.0,0.0
1696243477123,-2.0,0.55859375,-0.9111328,-5.875,73.875,54.53125,0.0,0.0,0.0
1696243477152,-0.515625,-1.1884766,-1.1591797,20.375,-45.8125,-38.1875,0.0,0.0,0.0
1696243477183,-0.38183594,0.0546875,-0.53515625,-167.34375,140.78125,26.9375,0.0,0.0,0.0
1696243477243,-2.0,-0.6591797,0.171875,-141.40625,181.84375,33.78125,0.0,0.0,0.0
1696243477277,-0.5683594,0.20800781,0.115234375,-136.28125,154.625,-21.28125,0.0,0.0,0.0
1696243477303,-0.7285156,0.3310547,0.07324219,-69.09375,142.0625,56.90625,0.0,0.0,0.0
1696243477364,-0.9121094,-0.16601562,0.140625,-87.65625,122.875,20.96875,0.0,0.0,0.0
1696243477392,-0.7001953,0.038085938,-0.06933594,-97.84375,116.28125,13.5625,-94.9375,20.875,-94.5625
1696243477424,-0.8652344,-0.29003906,-0.17773438,-87.46875,127.09375,28.34375,0.0,0.0,0.0
1696243477484,-1.2119141,-0.1015625,0.30566406,-52.1875,121.25,21.9375,0.0,0.0,0.0
1696243477513,-1.2109375,-0.0126953125,0.14257812,-83.125,58.0,8.3125,0.0,0.0,0.0
1696243477575,-1.3652344,-0.38867188,0.032226562,-30.34375,13.6875,28.78125,0.0,0.0,0.0
1696243477604,-1.4541016,-0.0107421875,0.123046875,-71.46875,-26.71875,2.78125,0.0,0.0,0.0
1696243477632,-1.4414062,-0.28515625,0.022460938,-18.5625,-108.5,-12.25,0.0,0.0,0.0
1696243477694,-1.3408203,0.3798828,-0.6435547,134.40625,-193.875,-26.59375,0.0,0.0,0.0
1696243477735,-1.6474609,0.6113281,0.18847656,13.84375,-230.8125,-32.9375,0.0,0.0,0.0
1696243477783,-1.4609375,0.42382812,0.0859375,-162.65625,-214.46875,-36.125,0.0,0.0,0.0
1696243477814,-1.6953125,0.045898438,0.16015625,237.375,-227.8125,-102.28125,0.0,0.0,0.0
1696243477843,-0.36328125,-0.22753906,-0.16503906,138.3125,-171.96875,-67.71875,0.0,0.0,0.0
1696243477873,-0.23925781,0.015625,-0.10449219,193.71875,-132.90625,-27.09375,0.0,0.0,0.0
1696243477937,-0.13867188,0.16210938,-0.10058594,117.75,-84.5,-12.78125,-100.5,18.3125,-68.75
1696243477963,0.055664062,0.23339844,-0.09375,59.5625,3.0,-17.75,0.0,0.0,0.0
1696243477992,0.10058594,0.09472656,0.3876953,19.09375,188.5625,-24.09375,0.0,0.0,0.0
1696243478058,-2.0,0.37304688,1.9873047,-102.71875,173.125,2.46875,0.0,0.0,0.0
1696243478086,-0.96191406,0.3857422,0.5332031,254.34375,-213.34375,-28.25,0.0,0.0,0.0
1696243478113,-0.4326172,0.5371094,0.036132812,-8.125,-17.5625,56.65625,0.0,0.0,0.0
1696243478172,-1.4072266,-0.6738281,0.25195312,-46.21875,-77.75,14.90625,0.0,0.0,0.0
1696243478203,-0.8066406,0.09863281,0.04296875,-100.71875,114.59375,-6.21875,0.0,0.0,0.0
1696243478233,-1.6923828,-0.5214844,-0.02734375,-106.625,196.90625,-39.53125,0.0,0.0,0.0
1696243478293,-0.69921875,0.19628906,0.19628906,-98.875,145.65625,-26.09375,0.0,0.0,0.0
1696243478323,-0.7998047,0.45898438,-0.0029296875,-90.875,150.59375,60.25,0.0,0.0,0.0
1696243478354,-0.8574219,-0.068359375,0.060546875,-78.5625,134.0625,27.5625,0.0,0.0,0.0
1696243478413,-0.6738281,-0.07128906,0.09277344,-84.15625,114.71875,9.96875,-98.125,19.25,-94.375
1696243478444,-0.8964844,-0.20605469,-0.27539062,-102.46875,114.03125,6.4375,0.0,0.0,0.0
1696243478472,-1.1132812,0.09082031,0.16210938,-11.15625,113.4375,19.0625,0.0,0.0,0.0
1696243478533,-1.1435547,0.001953125,0.359375,-105.40625,95.46875,4.96875,0.0,0.0,0.0
1696243478564,-1.3359375,-0.36816406,-0.080078125,-41.0625,26.8125,35.125,0.0,0.0,0.0
1696243478593,-1.4609375,0.020507812,0.051757812,-50.40625,11.625,-6.21875,0.0,0.0,0.0
1696243478652,-1.4248047,-0.421875,0.08203125,-50.90625,-54.65625,4.40625,0.0,0.0,0.0
1696243478683,-1.2783203,-0.119140625,-0.17285156,37.84375,-137.375,-18.46875,0.0,0.0,0.0
1696243478713,-1.2705078,0.25390625,-0.3955078,157.71875,-197.4375,-16.15625,0.0,0.0,0.0
1696243478774,-1.7089844,0.3388672,0.31054688,-58.71875,-241.125,-35.6875,0.0,0.0,0.0
1696243478804,-1.9941406,0.48828125,-0.54003906,47.0,-110.34375,-77.0625,0.0,0.0,0.0
1696243478833,-0.77441406,-0.10839844,0.048828125,101.9375,-184.625,-113.125,0.0,0.0,0.0
1696243478893,-0.37304688,-0.115234375,-0.07324219,123.34375,-122.0625,-65.65625,0.0,0.0,0.0
1696243478926,-0.22070312,0.032226562,-0.14746094,164.625,-97.4375,-31.78125,-100.5,16.5625,-73.125
1696243478956,-0.140625,0.25195312,-0.203125,119.875,-57.0,-20.5625,0.0,0.0,0.0
1696243479014,-0.12109375,0.09667969,0.1328125,43.09375,55.25,-13.53125,0.0,0.0,0.0
1696243479044,-0.5996094,0.061523438,0.9736328,-49.375,196.5625,-33.0625,0.0,0.0,0.0
1696243479072,-2.0,-0.16210938,1.8134766,33.03125,17.0,14.125,0.0,0.0,0.0
1696243479133,-0.08691406,0.62597656,0.3955078,189.8125,-167.65625,-36.90625,0.0,0.0,0.0
1696243479163,-1.7333984,0.111328125,-0.107421875,89.71875,3.1875,52.75,0.0,0.0,0.0
1696243479256,-0.87890625,0.5751953,-0.013671875,-190.25,40.96875,-49.40625,0.0,0.0,0.0
1696243479263,-0.65722656,-0.4921875,-0.24804688,-67.03125,154.125,43.28125,0.0,0.0,0.0
1696243479283,-1.3925781,-0.7324219,-0.10839844,-125.90625,177.03125,-27.5625,0.0,0.0,0.0
1696243479316,-0.7138672,0.32617188,0.17578125,-86.125,138.4375,-0.78125,0.0,0.0,0.0
1696243479375,-0.80859375,0.39941406,0.0390625,-66.65625,147.78125,35.65625,0.0,0.0,0.0
1696243479407,-0.9160156,-0.048828125,-0.051757812,-94.65625,141.0,25.59375,-99.625,17.75,-90.8125
1696243479432,-0.7285156,0.0625,-0.053710938,-72.4375,116.15625,27.375,0.0,0.0,0.0
1696243479523,-1.0205078,-0.32128906,-0.08203125,-50.78125,123.5,21.5625,0.0,0.0,0.0
1696243479530,-1.3017578,-0.033203125,0.2998047,-67.75,92.0,-1.8125,0.0,0.0,0.0
1696243479554,-1.0996094,0.2548828,0.27539062,-96.3125,49.40625,-1.75,0.0,0.0,0.0
1696243479613,-1.2285156,-0.7578125,-0.30371094,-19.65625,-2.90625,37.125,0.0,0.0,0.0
1696243479643,-1.4619141,0.27246094,0.25878906,-53.53125,-19.8125,-18.21875,0.0,0.0,0.0
1696243479672,-1.3447266,-0.24121094,0.19042969,-14.71875,-95.375,-11.03125,0.0,0.0,0.0
1696243479735,-1.3808594,0.14550781,-0.71972656,126.65625,-183.28125,-18.96875,0.0,0.0,0.0
1696243479762,-1.4082031,0.6386719,0.045898438,-29.59375,-217.21875,-47.84375,0.0,0.0,0.0
1696243479795,-1.453125,0.5048828,-0.12109375,-129.875,-208.59375,-36.84375,0.0,0.0,0.0
1696243479853,-1.4443359,0.07421875,0.4033203,147.28125,-241.6875,-109.34375,0.0,0.0,0.0
1696243479882,-0.48339844,-0.3798828,-0.111328125,173.34375,-167.53125,-85.25,0.0,0.0,0.0
1696243479913,-0.22070312,0.021484375,-0.111328125,198.5,-140.3125,-33.25,-100.375,14.875,-73.25
1696243479981,-0.11816406,0.3076172,-0.06542969,111.09375,-60.84375,-22.0625,0.0,0.0,0.0
1696243480002,-0.09765625,0.22265625,-0.016601562,40.21875,22.3125,-16.28125,0.0,0.0,0.0
1696243480065,-0.12011719,0.12988281,0.46191406,13.96875,169.9375,-25.84375,0.0,0.0,0.0
1696243480095,-2.0,0.21484375,1.9873047,-47.96875,167.875,14.5,0.0,0.0,0.0
1696243480122,-1.0234375,0.22167969,0.6230469,209.09375,-236.90625,-46.3125,0.0,0.0,0.0
1696243480155,0.56933594,0.7011719,-0.057617188,80.1875,-18.09375,17.53125,0.0,0.0,0.0
1696243480216,-2.0,0.9316406,0.7841797,-210.3125,84.375,31.9375,0.0,0.0,0.0
1696243480245,0.055664062,0.42773438,-0.6923828,-73.25,73.8125,-78.40625,0.0,0.0,0.0
1696243480273,-0.46777344,-0.5957031,-0.8232422,-126.59375,195.15625,28.09375,0.0,0.0,0.0
1696243480337,-2.0,-0.5986328,0.11816406,-100.53125,153.09375,22.0625,0.0,0.0,0.0
1696243480364,-0.58984375,0.66503906,0.022460938,-68.71875,145.90625,2.03125,0.0,0.0,0.0
1696243480395,-0.72753906,0.32128906,0.059570312,-98.6875,147.46875,54.34375,-99.875,16.25,-92.3125
1696243480453,-0.75097656,-0.15527344,-0.10839844,-115.0625,117.03125,25.40625,0.0,0.0,0.0
1696243480481,-0.8251953,-0.1875,-0.23632812,-111.28125,109.21875,11.3125,0.0,0.0,0.0
1696243480514,-1.1982422,-0.13867188,0.2109375,-21.125,103.40625,16.4375,0.0,0.0,0.0
1696243480572,-1.2089844,0.109375,0.38378906,-115.25,85.34375,-5.90625,0.0,0.0,0.0
1696243480607,-1.3544922,-0.37597656,0.020507812,-52.6875,19.6875,33.65625,0.0,0.0,0.0
1696243480664,-1.4521484,0.076171875,0.26367188,-45.59375,-2.96875,4.53125,0.0,0.0,0.0
1696243480723,-1.21875,-0.3876953,0.19140625,-34.1875,-71.21875,16.1875,0.0,0.0,0.0
1696243480728,-1.3037109,-0.20410156,-0.43066406,39.5,-160.0,-7.90625,0.0,0.0,0.0
1696243480756,-1.4208984,0.20605469,-0.42285156,103.09375,-185.15625,-44.03125,0.0,0.0,0.0
1696243480846,-1.5527344,0.5390625,0.45996094,-91.6875,-223.3125,-37.8125,0.0,0.0,0.0
1696243480852,-1.8798828,0.36816406,-0.4169922,165.59375,-128.28125,-108.75,0.0,0.0,0.0
1696243480901,-0.82714844,-0.19628906,-0.16796875,87.59375,-159.46875,-130.65625,0.0,0.0,0.0
1696243480933,-0.515625,-0.08691406,-0.11816406,192.9375,-126.6875,-80.1875,-100.1875,18.3125,-76.5625
1696243480960,-0.103515625,0.115234375,-0.08496094,166.3125,-86.90625,-32.15625,0.0,0.0,0.0
1696243480994,-0.08691406,0.27929688,-0.22558594,93.6875,-29.21875,-20.78125,0.0,0.0,0.0
1696243481051,-0.059570312,0.14160156,0.103515625,45.09375,92.90625,-16.21875,0.0,0.0,0.0
1696243481080,-0.7734375,0.078125,1.3847656,-30.34375,236.03125,-26.09375,0.0,0.0,0.0
1696243481112,-2.0,-0.3828125,1.2558594,81.71875,-100.03125,2.09375,0.0,0.0,0.0
1696243481176,1.1113281,0.8310547,0.18457031,167.84375,-165.125,-27.625,0.0,0.0,0.0
1696243481203,-1.5966797,0.12988281,-1.1757812,-73.375,93.21875,46.21875,0.0,0.0,0.0
1696243481233,-1.2539062,-0.7714844,-0.72753906,14.53125,-9.5625,-4.0625,0.0,0.0,0.0
1696243481331,-0.29101562,-0.19042969,-0.23242188,-133.53125,135.15625,15.03125,0.0,0.0,0.0
1696243481338,-1.8330078,-0.7236328,-0.072265625,-112.25,169.09375,0.25,0.0,0.0,0.0
1696243481351,-0.84375,0.37695312,0.13476562,-80.375,133.6875,-15.1875,0.0,0.0,0.0
1696243481443,-0.7089844,0.4638672,0.08984375,-90.9375,145.40625,44.34375,-97.8125,17.4375,-91.5625
1696243481454,-0.890625,-0.22363281,-0.12792969,-115.78125,137.65625,17.40625,0.0,0.0,0.0
1696243481471,-0.82128906,0.08203125,-0.08496094,-120.0,107.3125,9.59375,0.0,0.0,0.0
1696243481532,-0.9345703,-0.09667969,-0.0234375,-87.21875,101.9375,23.53125,0.0,0.0,0.0
1696243481562,-1.1679688,-0.27539062,0.39453125,-83.8125,111.40625,12.71875,0.0,0.0,0.0
1696243481592,-1.2207031,-0.13867188,0.20703125,-67.375,53.90625,17.78125,0.0,0.0,0.0
1696243481654,-1.3457031,-0.25097656,-0.009765625,-23.5625,3.9375,22.59375,0.0,0.0,0.0
1696243481683,-1.7021484,-0.0078125,0.0,-4.6875,-56.375,-6.875,0.0,0.0,0.0
1696243481715,-1.15625,0.087890625,-0.021484375,43.53125,-121.5625,-26.84375,0.0,0.0,0.0
1696243481774,-1.2783203,0.30273438,-0.39746094,104.625,-194.4375,-0.40625,0.0,0.0,0.0
1696243481832,-1.6503906,0.036132812,0.1796875,2.0,-224.65625,-28.78125,0.0,0.0,0.0
1696243481837,-1.9169922,0.33496094,-0.3564453,176.75,-131.03125,-83.84375,0.0,0.0,0.0
1696243481894,-0.7138672,0.028320312,-0.020507812,111.28125,-181.8125,-82.4375,0.0,0.0,0.0
1696243481954,-0.4765625,0.12695312,0.025390625,91.375,-129.125,-30.0,-102.3125,16.0625,-76.5625
1696243481961,-0.421875,-0.08105469,-0.171875,172.65625,-114.65625,-24.75,0.0,0.0,0.0
1696243482011,-0.12890625,0.22070312,-0.11621094,98.375,-70.65625,-11.625,0.0,0.0,0.0
1696243482078,-0.08105469,0.107421875,0.059570312,56.59375,20.78125,8.0625,0.0,0.0,0.0
1696243482082,-0.359375,0.021484375,0.9082031,-7.03125,155.71875,-16.75,0.0,0.0,0.0
1696243482132,-2.0,-0.08203125,1.7919922,46.9375,94.5625,12.59375,0.0,0.0,0.0
1696243482163,-0.87109375,0.3154297,0.4013672,109.4375,-145.71875,-52.53125,0.0,0.0,0.0
1696243482200,0.6484375,0.17285156,0.24804688,95.28125,-22.0625,-10.40625,0.0,0.0,0.0
1696243482254,-1.0332031,0.734375,-1.8134766,-237.0,219.9375,16.125,0.0,0.0,0.0
1696243482283,-1.1757812,-1.8378906,-1.8613281,-11.0625,-42.65625,-117.03125,0.0,0.0,0.0
1696243482345,0.7138672,0.92871094,0.10839844,-72.6875,99.375,26.75,0.0,0.0,0.0
1696243482406,-2.0,-0.78515625,-0.14453125,-169.25,145.59375,179.53125,0.0,0.0,0.0
1696243482414,-0.6767578,-0.21777344,0.11816406,-19.03125,151.625,-77.0,-101.5625,21.1875,-86.75
1696243482432,-0.34277344,0.44921875,-0.049804688,11.28125,147.25,-4.375,0.0,0.0,0.0
1696243482528,-0.8935547,0.12597656,0.13769531,-43.03125,118.1875,7.40625,0.0,0.0,0.0
1696243482537,-0.86621094,0.16113281,-0.07128906,-70.1875,85.53125,3.6875,0.0,0.0,0.0
1696243482552,-0.9355469,-0.14746094,-0.0126953125,-55.78125,85.59375,22.0,0.0,0.0,0.0
1696243482615,-1.0595703,-0.05859375,0.26171875,-67.1875,97.125,10.34375,0.0,0.0,0.0
1696243482643,-1.2792969,-0.28808594,0.1328125,-71.40625,47.75,14.5,0.0,0.0,0.0
1696243482705,-1.2841797,-0.016601562,0.016601562,-50.84375,6.84375,8.25,0.0,0.0,0.0
1696243482733,-1.3339844,-0.16015625,0.20605469,-53.28125,-50.46875,9.78125,0.0,0.0,0.0
1696243482761,-1.3085938,-0.35546875,-0.31933594,0.125,-136.21875,-16.15625,0.0,0.0,0.0
1696243482795,-1.5175781,0.32421875,-0.40234375,114.25,-194.3125,-48.5625,0.0,0.0,0.0
1696243482883,-1.6669922,0.43652344,0.24707031,-56.6875,-225.25,-62.0,0.0,0.0,0.0
1696243482890,-1.7890625,0.38085938,-0.5546875,93.8125,-115.03125,-80.4375,0.0,0.0,0.0
1696243482947,-0.9970703,-0.34375,-0.021484375,108.46875,-175.9375,-129.3125,-102.0,20.125,-82.875
1696243482972,-0.46875,0.080078125,-0.09082031,171.25,-134.5,-80.4375,0.0,0.0,0.0
1696243483007,-0.25390625,0.15136719,-0.15136719,200.0625,-111.6875,-36.90625,0.0,0.0,0.0
1696243483034,-0.125,0.26464844,-0.21289062,122.0,-65.28125,-16.9375,0.0,0.0,0.0
1696243483093,-0.083984375,0.12988281,-0.047851562,61.9375,36.46875,-6.09375,0.0,0.0,0.0
1696243483125,-0.31933594,0.08203125,0.7294922,-24.28125,174.875,-26.96875,0.0,0.0,0.0
1696243483153,-2.0,0.14941406,1.9873047,0.375,155.125,2.65625,0.0,0.0,0.0
1696243483214,-1.0898438,0.21875,0.49316406,149.21875,-201.59375,-67.0,0.0,0.0,0.0
1696243483245,-0.4404297,0.78125,0.09277344,83.96875,-8.46875,15.53125,0.0,0.0,0.0
1696243483274,-1.5771484,0.3798828,0.64453125,-107.125,-56.5,33.65625,0.0,0.0,0.0
1696243483398,-0.46484375,-0.028320312,-0.24707031,-93.9375,110.4375,4.59375,0.0,0.0,0.0
1696243483407,-1.7314453,-0.6328125,-0.103515625,-161.4375,187.75,-45.21875,0.0,0.0,0.0
1696243483411,-0.7949219,0.1953125,0.1640625,-90.9375,134.65625,-27.8125,-103.1875,12.3125,-80.3125
1696243483454,-0.6328125,0.5605469,9.765625E-4,-113.28125,149.1875,42.5,0.0,0.0,0.0
1696243483483,-1.0820312,-0.3564453,-0.11621094,-132.5,160.71875,46.84375,0.0,0.0,0.0
1696243483544,-0.6611328,0.036132812,-0.06640625,-128.96875,115.6875,7.46875,0.0,0.0,0.0
1696243483575,-0.83496094,-0.0625,-0.001953125,-93.5,95.71875,19.96875,0.0,0.0,0.0
1696243483601,-1.1445312,-0.29589844,0.17285156,-46.21875,95.40625,25.84375,0.0,0.0,0.0
1696243483632,-1.2001953,0.024414062,0.39160156,-98.21875,91.8125,4.125,0.0,0.0,0.0
1696243483727,-1.2646484,-0.3984375,0.19042969,-34.96875,26.8125,35.25,0.0,0.0,0.0
1696243483734,-1.3994141,0.16113281,0.22851562,-33.09375,-4.1875,3.5,0.0,0.0,0.0
1696243483752,-1.3339844,-0.4326172,0.087890625,-15.75,-80.5,17.53125,0.0,0.0,0.0
1696243483815,-1.3222656,-0.030273438,-0.63183594,64.625,-178.3125,-19.21875,0.0,0.0,0.0
1696243483843,-1.3105469,0.4375,-0.14648438,65.84375,-204.4375,-26.59375,0.0,0.0,0.0
1696243483876,-1.5761719,0.23730469,0.32714844,-104.5,-224.59375,-21.65625,0.0,0.0,0.0
1696243483935,-1.9003906,0.28125,-0.20410156,259.8125,-180.59375,-85.375,-102.0,24.1875,-87.1875
1696243483963,-0.75683594,-0.21777344,-0.203125,111.5625,-157.09375,-115.875,0.0,0.0,0.0
1696243483994,-0.4189453,-0.09277344,-0.2109375,180.65625,-120.9375,-74.0625,0.0,0.0,0.0
1696243484055,-0.018554688,0.24902344,-0.14550781,163.75,-92.375,-32.625,0.0,0.0,0.0
1696243484088,-0.036132812,0.2705078,-0.18945312,92.34375,-27.9375,-16.8125,0.0,0.0,0.0
1696243484114,-0.15136719,0.09863281,0.31640625,17.625,109.09375,-19.375,0.0,0.0,0.0
1696243484177,-1.1591797,0.25976562,1.4160156,-78.625,205.09375,-27.9375,0.0,0.0,0.0
1696243484201,-2.0,-0.4794922,1.1943359,154.53125,-124.0625,-2.46875,0.0,0.0,0.0
1696243484235,1.0195312,0.5185547,0.44335938,97.21875,-139.6875,-26.34375,0.0,0.0,0.0
1696243484291,-2.0,0.099609375,-0.8339844,-2.1875,61.3125,56.1875,0.0,0.0,0.0
1696243484322,-0.103515625,0.27734375,-0.7402344,-65.125,18.5625,-67.46875,0.0,0.0,0.0
1696243484353,-0.5332031,-0.58496094,-0.57714844,-82.8125,162.6875,64.21875,0.0,0.0,0.0
1696243484414,-2.0,-0.79296875,0.103515625,-104.84375,158.34375,-2.46875,-103.375,14.3125,-76.875
1696243484441,-0.6044922,0.55371094,0.12207031,-118.78125,149.6875,-8.65625,0.0,0.0,0.0
1696243484473,-0.7470703,0.30859375,-0.020507812,-76.96875,153.71875,56.1875,0.0,0.0,0.0
1696243484533,-0.98046875,-0.3173828,-0.140625,-88.6875,136.5,13.625,0.0,0.0,0.0
1696243484563,-0.73046875,0.26171875,-0.13183594,-125.125,118.78125,4.28125,0.0,0.0,0.0
1696243484624,-0.9121094,-0.06933594,-0.0048828125,-96.6875,104.875,30.40625,0.0,0.0,0.0
1696243484652,-1.2880859,-0.265625,0.3125,-54.0625,109.53125,32.5,0.0,0.0,0.0
1696243484683,-1.2314453,-0.14355469,0.24609375,-94.71875,57.15625,10.21875,0.0,0.0,0.0
1696243484712,-1.2246094,-0.3544922,-0.016601562,-19.28125,6.5625,29.125,0.0,0.0,0.0
1696243484805,-1.5810547,0.11425781,0.23632812,-27.15625,-47.65625,-3.6875,0.0,0.0,0.0
1696243484812,-1.3154297,-0.25683594,-0.2998047,21.1875,-136.21875,-17.3125,0.0,0.0,0.0
1696243484832,-1.3447266,0.37695312,-0.48046875,136.65625,-193.78125,-28.0625,0.0,0.0,0.0
1696243484895,-1.7148438,0.28125,0.2919922,-58.03125,-234.125,-32.625,0.0,0.0,0.0
1696243484922,-1.7558594,0.5332031,-0.5654297,-17.625,-133.9375,-94.46875,-102.3125,21.9375,-87.1875
1696243484952,-0.9873047,-0.1328125,0.20800781,120.46875,-205.375,-139.8125,0.0,0.0,0.0
1696243485014,-0.3984375,0.055664062,-0.057617188,152.34375,-145.71875,-70.21875,0.0,0.0,0.0
1696243485075,-0.17285156,0.095703125,-0.15332031,176.5,-98.78125,-27.375,0.0,0.0,0.0
1696243485081,-0.061523438,0.20117188,-0.033203125,69.21875,-42.65625,-16.875,0.0,0.0,0.0
1696243485135,-0.036132812,0.15820312,-0.0146484375,50.46875,37.1875,-4.5,0.0,0.0,0.0
1696243485163,-0.38867188,0.08105469,0.8339844,9.875,182.15625,-15.84375,0.0,0.0,0.0
1696243485193,-2.0,-0.046875,1.7763672,10.0,65.28125,6.78125,0.0,0.0,0.0
1696243485252,-0.16699219,0.5019531,0.5058594,197.8125,-227.28125,-43.0625,0.0,0.0,0.0
1696243485282,-1.5732422,0.41796875,0.12402344,93.1875,55.75,48.1875,0.0,0.0,0.0
1696243485315,-0.28125,0.11621094,-0.49414062,-131.59375,-78.03125,-28.71875,0.0,0.0,0.0
1696243485372,-0.6904297,-0.54296875,-0.3330078,-100.03125,156.9375,60.5625,0.0,0.0,0.0
1696243485408,-2.0,-0.77441406,0.2783203,-131.28125,177.75,-48.3125,-103.375,13.5625,-74.4375
1696243485431,-0.41601562,0.58691406,0.27734375,-123.59375,144.5,-10.0,0.0,0.0,0.0
1696243485494,-0.8017578,0.36816406,0.03125,-93.3125,156.09375,66.4375,0.0,0.0,0.0
1696243485523,-1.109375,-0.33203125,-0.046875,-108.71875,147.59375,48.90625,0.0,0.0,0.0
1696243485557,-0.57714844,0.09082031,-0.01171875,-82.75,118.375,16.4375,0.0,0.0,0.0
1696243485613,-0.8388672,-0.028320312,-0.140625,-78.78125,127.46875,31.28125,0.0,0.0,0.0
1696243485645,-1.2460938,-0.16015625,0.28320312,-21.1875,117.40625,30.46875,0.0,0.0,0.0
1696243485674,-1.2226562,0.19726562,0.4033203,-119.8125,66.25,2.03125,0.0,0.0,0.0
1696243485735,-1.2050781,-0.59277344,-0.23046875,-39.4375,7.46875,41.65625,0.0,0.0,0.0
1696243485763,-1.5771484,0.10546875,0.17578125,-49.375,-10.125,-9.6875,0.0,0.0,0.0
1696243485793,-1.3662109,-0.4033203,0.06738281,-4.34375,-93.375,-7.90625,0.0,0.0,0.0
1696243485854,-1.2216797,0.35742188,-0.47460938,110.84375,-178.1875,-18.21875,0.0,0.0,0.0
1696243485884,-1.4990234,0.15820312,-0.072265625,51.40625,-201.8125,-21.84375,0.0,0.0,0.0
1696243485914,-1.6132812,0.2783203,0.171875,-145.6875,-204.25,-52.40625,-101.125,23.5625,-91.875
1696243485972,-1.8554688,0.28222656,0.00390625,280.75,-194.4375,-114.3125,0.0,0.0,0.0
1696243486000,-0.3828125,-0.16992188,-0.18164062,133.375,-152.75,-108.1875,0.0,0.0,0.0
1696243486032,-0.31933594,-0.07519531,-0.23828125,171.09375,-105.6875,-62.65625,0.0,0.0,0.0
1696243486092,-0.06542969,0.111328125,-0.16015625,138.78125,-93.90625,-17.375,0.0,0.0,0.0
1696243486121,0.0048828125,0.22460938,-0.13769531,87.65625,-18.78125,-11.46875,0.0,0.0,0.0
1696243486155,-0.20117188,0.020507812,0.4248047,16.65625,143.28125,-19.21875,0.0,0.0,0.0
1696243486218,-1.9716797,0.39160156,1.9570312,-47.3125,168.84375,-29.28125,0.0,0.0,0.0
1696243486306,-1.5507812,0.03515625,0.6738281,148.4375,-196.09375,-31.59375,0.0,0.0,0.0
1696243486313,0.96972656,0.44921875,0.36132812,90.21875,-59.84375,5.28125,0.0,0.0,0.0
1696243486331,-2.0,0.5410156,-0.9638672,-163.5625,127.65625,14.84375,0.0,0.0,0.0
1696243486393,0.6044922,0.015625,-1.3193359,-19.21875,-6.5,-53.03125,0.0,0.0,0.0
1696243486399,-0.51953125,-0.7216797,-0.8984375,-144.78125,173.71875,58.625,-102.0,12.0625,-69.8125
1696243486455,-2.0,-0.8574219,0.22070312,-129.46875,162.9375,-5.03125,0.0,0.0,0.0
1696243486485,-0.58496094,0.5839844,0.23925781,-130.3125,169.5,-22.125,0.0,0.0,0.0
1696243486513,-0.58984375,0.421875,0.08984375,-99.0625,159.5625,59.53125,0.0,0.0,0.0
1696243486572,-0.96191406,-0.2705078,-0.11230469,-108.75,148.40625,36.53125,0.0,0.0,0.0
1696243486604,-0.7675781,0.0703125,-0.15527344,-136.0,105.625,11.5,0.0,0.0,0.0
1696243486632,-1.0566406,-0.21386719,0.16992188,-49.25,113.71875,34.4375,0.0,0.0,0.0
1696243486724,-1.2441406,-0.4921875,0.2890625,-118.34375,121.125,6.125,0.0,0.0,0.0
1696243486729,-1.4150391,-0.06933594,0.18261719,-21.65625,49.21875,24.1875,0.0,0.0,0.0
1696243486783,-1.4267578,-0.059570312,0.053710938,-35.46875,13.375,2.40625,0.0,0.0,0.0
1696243486811,-1.4140625,0.06640625,0.20996094,-87.59375,-54.96875,8.4375,0.0,0.0,0.0
1696243486840,-1.3662109,-0.5185547,-0.5996094,-24.40625,-166.78125,-8.59375,0.0,0.0,0.0
1696243486911,-1.2832031,0.22753906,-0.6279297,120.65625,-202.1875,-51.625,0.0,0.0,0.0
1696243486931,-1.75,0.3671875,0.50390625,-76.28125,-252.96875,-39.15625,-101.125,23.3125,-95.4375
1696243486963,-2.0,0.21875,-0.4482422,250.4375,-171.84375,-142.4375,0.0,0.0,0.0
1696243486994,-0.53125,-0.23632812,-0.421875,74.84375,-174.90625,-104.15625,0.0,0.0,0.0
1696243487055,-0.3359375,-0.021484375,-0.11816406,177.5,-138.21875,-45.34375,0.0,0.0,0.0
1696243487083,-0.061523438,0.0126953125,-0.1796875,215.5625,-138.15625,-17.25,0.0,0.0,0.0
1696243487112,-0.043945312,0.30859375,-0.29003906,146.3125,-40.3125,-14.75,0.0,0.0,0.0
1696243487175,-0.24707031,0.08300781,0.45898438,19.09375,92.125,-18.59375,0.0,0.0,0.0
1696243487202,-0.9951172,0.24609375,1.5029297,-74.21875,184.21875,-59.5625,0.0,0.0,0.0
1696243487235,-2.0,-0.16992188,1.0136719,176.28125,-50.6875,11.125,0.0,0.0,0.0
1696243487294,0.609375,0.47851562,0.55371094,53.21875,-122.0625,-29.40625,0.0,0.0,0.0
1696243487323,-2.0,0.3623047,-1.1152344,-46.21875,84.8125,48.0,0.0,0.0,0.0
1696243487354,-0.7373047,-0.5332031,-0.8935547,12.9375,-22.5,-21.40625,0.0,0.0,0.0
1696243487412,-0.39648438,-0.39941406,-0.5996094,-138.125,164.6875,34.9375,-101.5625,13.25,-66.375
1696243487442,-2.0,-0.7089844,0.11328125,-98.4375,166.53125,-11.40625,0.0,0.0,0.0
1696243487471,-0.6123047,0.3876953,0.19140625,-125.5,141.9375,-36.0,0.0,0.0,0.0
1696243487533,-0.6152344,0.43066406,0.099609375,-107.1875,142.0625,50.3125,0.0,0.0,0.0
1696243487563,-0.9404297,-0.2998047,-0.0859375,-121.75,138.8125,34.125,0.0,0.0,0.0
1696243487592,-0.6982422,0.06640625,-0.17382812,-114.9375,108.78125,12.09375,0.0,0.0,0.0
1696243487656,-0.9824219,-0.08984375,-0.064453125,-75.9375,119.96875,34.375,0.0,0.0,0.0
1696243487682,-1.2470703,-0.32128906,0.41210938,-48.15625,122.625,25.78125,0.0,0.0,0.0
1696243487714,-1.3291016,-0.056640625,0.29296875,-93.09375,65.34375,6.25,0.0,0.0,0.0
1696243487775,-1.375,-0.44628906,0.068359375,-30.28125,8.5,26.09375,0.0,0.0,0.0
1696243487805,-1.625,0.19042969,0.1953125,-15.1875,-54.125,-4.9375,0.0,0.0,0.0
1696243487833,-1.2304688,-0.16503906,-0.23925781,13.96875,-141.59375,-17.75,0.0,0.0,0.0
1696243487895,-1.3232422,0.140625,-0.58984375,129.625,-201.03125,-14.125,0.0,0.0,0.0
1696243487924,-1.7822266,0.3984375,0.3076172,-53.21875,-235.875,-40.75,-96.3125,20.75,-92.625
1696243487953,-1.8310547,0.5078125,-0.58496094,126.53125,-125.40625,-90.25,0.0,0.0,0.0
1696243488015,-0.73046875,-0.047851562,-0.013671875,96.9375,-195.28125,-105.5,0.0,0.0,0.0
1696243488043,-0.3671875,-0.22363281,-0.10839844,168.9375,-134.625,-54.0,0.0,0.0,0.0
1696243488074,-0.15820312,-0.08886719,-0.12207031,189.34375,-112.53125,-26.34375,0.0,0.0,0.0
1696243488132,-0.15722656,0.25390625,-0.26660156,135.75,-69.3125,-19.875,0.0,0.0,0.0
1696243488165,-0.12792969,0.171875,0.119140625,68.59375,52.8125,-13.21875,0.0,0.0,0.0
1696243488196,-0.5048828,0.10546875,0.9472656,-45.53125,222.75,-54.71875,0.0,0.0,0.0
1696243488252,-2.0,0.022460938,1.6083984,47.84375,-13.53125,3.0625,0.0,0.0,0.0
1696243488282,0.50878906,0.5683594,0.42871094,187.5625,-187.0,-24.875,0.0,0.0,0.0
1696243488313,-1.4384766,0.8544922,-0.24023438,24.90625,58.0625,66.71875,0.0,0.0,0.0
1696243488375,-2.0,-1.0957031,0.0048828125,11.09375,-67.84375,20.53125,0.0,0.0,0.0
1696243488402,-0.38085938,0.19824219,-0.009765625,-154.3125,130.5,-46.84375,-99.75,11.0,-68.125
1696243488433,-1.6054688,-0.65234375,-0.19140625,-141.0625,190.03125,-21.03125,0.0,0.0,0.0
1696243488498,-0.83203125,0.2265625,0.35058594,-109.875,147.375,-23.40625,0.0,0.0,0.0
1696243488526,-0.52734375,0.5332031,0.0234375,-140.25,161.8125,46.34375,0.0,0.0,0.0
1696243488552,-1.0,-0.25097656,-0.1796875,-143.90625,174.46875,40.0625,0.0,0.0,0.0
1696243488625,-0.8027344,0.0029296875,0.034179688,-105.09375,115.3125,10.28125,0.0,0.0,0.0
1696243488641,-0.81152344,0.0048828125,-0.03125,-81.84375,100.1875,15.53125,0.0,0.0,0.0
1696243488672,-1.2255859,-0.2890625,0.13378906,-54.875,121.1875,18.03125,0.0,0.0,0.0
1696243488736,-1.1699219,0.24804688,0.38867188,-91.5,67.34375,4.15625,0.0,0.0,0.0
1696243488763,-1.3857422,-0.7626953,-0.11035156,-45.15625,2.65625,53.0625,0.0,0.0,0.0
1696243488795,-1.4130859,0.5527344,0.38378906,-6.53125,-14.09375,-27.6875,0.0,0.0,0.0
1696243488855,-1.4384766,-0.2685547,-0.028320312,-18.125,-117.40625,3.625,0.0,0.0,0.0
1696243488884,-1.4882812,0.3486328,-0.75683594,140.3125,-181.4375,-22.4375,0.0,0.0,0.0
1696243488913,-1.7607422,0.5908203,0.3203125,-63.21875,-242.46875,-31.40625,-99.75,21.625,-97.6875
1696243488971,-1.5927734,0.42089844,-0.23242188,-88.5625,-172.15625,-53.3125,0.0,0.0,0.0
1696243489002,-1.0869141,-0.016601562,0.3076172,145.8125,-226.40625,-106.53125,0.0,0.0,0.0
1696243489066,-0.32226562,-0.3876953,-0.16308594,173.71875,-151.59375,-64.25,0.0,0.0,0.0
1696243489093,-0.107421875,-0.017578125,-0.14453125,198.5,-130.46875,-34.53125,0.0,0.0,0.0
1696243489122,-0.1328125,0.21289062,-0.14355469,108.59375,-78.15625,-18.09375,0.0,0.0,0.0
1696243489185,-0.18261719,0.2548828,-0.10058594,57.375,13.375,-28.0,0.0,0.0,0.0
1696243489213,-0.27539062,0.053710938,0.60546875,9.21875,175.9375,-54.25,0.0,0.0,0.0
1696243489246,-2.0,0.38378906,1.9873047,-84.53125,123.5,-21.28125,0.0,0.0,0.0
1696243489305,-0.890625,0.33496094,0.3486328,234.375,-201.15625,-16.34375,0.0,0.0,0.0
1696243489333,0.1015625,0.6464844,-0.015625,16.46875,-23.46875,27.0625,0.0,0.0,0.0
1696243489364,-2.0,0.63964844,0.7421875,-194.09375,-9.4375,43.59375,0.0,0.0,0.0
1696243489425,0.19726562,0.23046875,-0.5957031,-70.125,86.75,-58.4375,-101.5625,12.5,-68.75
1696243489455,-0.7910156,-0.7109375,-0.5810547,-159.96875,193.125,-7.65625,0.0,0.0,0.0
1696243489482,-1.8017578,-0.3564453,0.18945312,-91.5,140.84375,6.4375,0.0,0.0,0.0
1696243489512,-0.56933594,0.51171875,-0.005859375,-89.125,149.5625,-5.46875,0.0,0.0,0.0
1696243489571,-0.7158203,0.17285156,0.021484375,-111.6875,159.09375,45.3125,0.0,0.0,0.0
1696243489602,-0.8183594,-0.1640625,-0.028320312,-118.15625,124.53125,14.1875,0.0,0.0,0.0
1696243489633,-0.8222656,-0.02734375,-0.234375,-105.34375,113.25,23.28125,0.0,0.0,0.0
1696243489752,-1.0859375,-0.09375,0.14453125,-65.5,117.6875,29.25,0.0,0.0,0.0
1696243489781,-1.1152344,-0.26367188,0.4638672,-120.96875,111.46875,7.65625,0.0,0.0,0.0
1696243489784,-1.3085938,-0.38378906,-0.034179688,-55.0,24.6875,33.53125,0.0,0.0,0.0
1696243489843,-1.4472656,0.38085938,0.2841797,-52.0,-0.78125,-5.65625,0.0,0.0,0.0
1696243489848,-1.3925781,-0.53027344,0.15332031,-49.875,-85.90625,21.625,0.0,0.0,0.0
1696243489872,-1.2128906,-0.08886719,-0.5527344,59.09375,-178.75,-6.15625,0.0,0.0,0.0
1696243489934,-1.4003906,0.21386719,-0.103515625,98.9375,-196.875,-22.25,-97.5,26.0,-98.4375
1696243489963,-1.6503906,0.31445312,0.34472656,-126.09375,-221.96875,-33.4375,0.0,0.0,0.0
1696243489992,-1.9257812,0.29101562,-0.41992188,210.09375,-138.78125,-92.375,0.0,0.0,0.0
1696243490054,-0.6640625,-0.08691406,-0.22363281,110.0,-156.90625,-121.5625,0.0,0.0,0.0
1696243490081,-0.32714844,0.07714844,-0.15429688,171.75,-122.78125,-92.25,0.0,0.0,0.0
1696243490143,0.022460938,0.02734375,-0.10546875,194.28125,-99.03125,-39.53125,0.0,0.0,0.0
1696243490173,-0.07421875,0.17382812,-0.22265625,137.34375,-29.65625,-18.78125,0.0,0.0,0.0
1696243490203,-0.1640625,0.083984375,0.296875,52.0,113.3125,-23.71875,0.0,0.0,0.0
1696243490232,-1.2578125,0.38476562,1.5009766,-67.1875,219.1875,-42.46875,0.0,0.0,0.0
1696243490294,-2.0,-0.022460938,1.2470703,246.59375,-154.03125,7.15625,0.0,0.0,0.0
1696243490356,0.95996094,0.6582031,0.32714844,77.21875,-128.9375,-3.53125,0.0,0.0,0.0
1696243490364,-2.0,0.36816406,-0.9482422,-60.0625,81.1875,64.53125,0.0,0.0,0.0
1696243490413,-0.57910156,-0.09667969,-0.7558594,-39.0625,66.4375,-74.5625,-101.6875,13.6875,-69.375
1696243490441,-0.5576172,-0.5888672,-0.7558594,-178.71875,194.84375,-6.75,0.0,0.0,0.0
1696243490471,-1.9248047,-0.5966797,0.0078125,-87.84375,161.65625,3.625,0.0,0.0,0.0
1696243490535,-0.63183594,0.49316406,0.15527344,-111.625,161.53125,-12.84375,0.0,0.0,0.0
1696243490563,-0.7246094,0.26757812,0.08105469,-131.34375,165.0625,46.40625,0.0,0.0,0.0
1696243490625,-0.6845703,-0.32910156,-0.25585938,-123.90625,124.65625,9.59375,0.0,0.0,0.0
1696243490686,-0.84765625,0.04296875,-0.034179688,-106.03125,106.59375,0.4375,0.0,0.0,0.0
1696243490692,-1.1367188,-0.111328125,0.2783203,-44.6875,101.28125,23.21875,0.0,0.0,0.0
1696243490713,-1.0888672,-0.080078125,0.3486328,-126.53125,66.375,-1.25,0.0,0.0,0.0
1696243490771,-1.5136719,-0.4560547,0.22851562,-41.03125,11.1875,29.375,0.0,0.0,0.0
1696243490802,-1.4101562,-0.018554688,0.25390625,-36.25,-12.25,-1.875,0.0,0.0,0.0
1696243490833,-1.3505859,-0.25585938,0.2548828,6.53125,-92.375,9.0625,0.0,0.0,0.0
1696243490899,-1.3798828,0.05078125,-0.76171875,87.09375,-189.625,-17.0,0.0,0.0,0.0
1696243490926,-1.6875,0.47070312,0.23144531,23.5625,-229.09375,-22.8125,-99.4375,20.875,-95.625
1696243490973,-1.6816406,0.3544922,0.024414062,-157.09375,-210.90625,-21.78125,0.0,0.0,0.0
1696243491012,-1.5009766,0.20898438,0.060546875,156.3125,-187.40625,-101.0,0.0,0.0,0.0
1696243491041,-0.40527344,-0.31933594,-0.10644531,173.78125,-147.25,-113.25,0.0,0.0,0.0
1696243491070,-0.25195312,-0.1171875,-0.15625,206.46875,-121.1875,-58.9375,0.0,0.0,0.0
1696243491132,0.059570312,0.15917969,-0.1875,149.65625,-89.28125,-13.71875,0.0,0.0,0.0
1696243491172,-0.05078125,0.22363281,-0.17773438,95.46875,1.90625,-15.59375,0.0,0.0,0.0
1696243491191,-0.25,0.17675781,0.3095703,29.34375,160.90625,-36.34375,0.0,0.0,0.0
1696243491251,-2.0,0.6220703,1.9873047,-72.09375,146.375,-27.3125,0.0,0.0,0.0
1696243491284,-1.3251953,0.26757812,0.6533203,215.03125,-187.0,-24.625,0.0,0.0,0.0
1696243491312,0.546875,0.546875,0.026367188,50.84375,-42.65625,14.4375,0.0,0.0,0.0
1696243491373,-2.0,0.78027344,0.72753906,-240.34375,1.0,22.96875,0.0,0.0,0.0
1696243491403,9.765625E-4,0.37695312,-0.4140625,-53.84375,88.21875,-57.21875,-100.625,12.9375,-68.625
1696243491468,-0.8046875,-0.72265625,-0.78222656,-155.34375,220.46875,-0.96875,0.0,0.0,0.0
1696243491492,-1.7167969,-0.359375,0.1640625,-102.21875,151.4375,6.90625,0.0,0.0,0.0
1696243491523,-0.5566406,0.62402344,0.061523438,-81.84375,140.40625,14.5625,0.0,0.0,0.0
1696243491552,-0.7597656,0.15527344,0.044921875,-99.65625,151.8125,40.4375,0.0,0.0,0.0
1696243491614,-0.7548828,-0.19042969,-0.09375,-114.5,115.1875,11.1875,0.0,0.0,0.0
1696243491641,-0.94433594,-0.043945312,-0.14648438,-114.125,114.15625,5.6875,0.0,0.0,0.0
1696243491673,-1.0849609,-0.17285156,0.28125,-36.625,105.78125,21.4375,0.0,0.0,0.0
1696243491733,-1.0605469,0.11425781,0.3857422,-131.90625,66.625,-0.65625,0.0,0.0,0.0
1696243491793,-1.5380859,-0.6796875,-0.14160156,-32.21875,20.78125,47.5625,0.0,0.0,0.0
1696243491799,-1.5625,0.12988281,0.3046875,-18.75,0.3125,-18.21875,0.0,0.0,0.0
1696243491856,-1.4462891,-0.2861328,0.016601562,-11.40625,-96.40625,4.40625,0.0,0.0,0.0
1696243491882,-1.1650391,0.16503906,-0.54785156,112.0625,-179.59375,-21.71875,0.0,0.0,0.0
1696243491942,-1.4873047,0.23828125,-0.0068359375,72.03125,-220.4375,-17.375,-99.0,21.625,-98.75
1696243491970,-1.625,0.4501953,0.25195312,-145.3125,-208.84375,-24.40625,0.0,0.0,0.0
1696243492001,-1.546875,0.3251953,-0.0146484375,202.5,-215.96875,-66.875,0.0,0.0,0.0
1696243492033,-0.49902344,-0.3466797,-0.26757812,164.625,-183.9375,-87.3125,0.0,0.0,0.0
1696243492094,-0.2861328,-0.12890625,-0.115234375,189.34375,-130.34375,-59.71875,0.0,0.0,0.0
1696243492122,-0.09472656,0.13867188,-0.14453125,131.09375,-88.34375,-20.5625,0.0,0.0,0.0
1696243492156,-0.07324219,0.21289062,-0.095703125,90.875,-5.53125,-16.65625,0.0,0.0,0.0
1696243492246,-0.23925781,0.043945312,0.47265625,24.65625,136.25,-27.4375,0.0,0.0,0.0
1696243492256,-1.9414062,0.44140625,1.9873047,-33.21875,158.78125,-35.75,0.0,0.0,0.0
1696243492272,-1.4521484,0.26953125,0.58203125,210.28125,-199.0,-22.875,0.0,0.0,0.0
1696243492337,0.53125,0.61328125,0.38671875,65.84375,-74.1875,5.15625,0.0,0.0,0.0
1696243492364,-2.0,0.22949219,-0.88671875,-107.78125,53.4375,44.28125,0.0,0.0,0.0
1696243492391,-0.5644531,0.234375,-0.64941406,-84.15625,62.46875,-55.8125,-99.625,13.375,-65.75
1696243492455,-0.7558594,-0.5205078,-0.5205078,-162.34375,178.90625,1.71875,0.0,0.0,0.0
1696243492484,-1.7480469,-0.76953125,0.0625,-82.40625,167.0,-16.15625,0.0,0.0,0.0
1696243492511,-0.66308594,0.265625,0.15234375,-92.34375,152.5,-8.65625,0.0,0.0,0.0
1696243492604,-0.76464844,0.27441406,0.047851562,-87.21875,151.875,39.03125,0.0,0.0,0.0
1696243492612,-0.7373047,0.072265625,0.0625,-94.0,139.5625,6.78125,0.0,0.0,0.0
1696243492664,-0.7519531,0.123046875,-0.045898438,-87.40625,110.1875,22.78125,0.0,0.0,0.0
1696243492725,-0.9814453,-0.33496094,-0.26757812,-90.03125,129.59375,23.28125,0.0,0.0,0.0
1696243492731,-1.1767578,-0.078125,0.515625,-55.71875,119.40625,0.5,0.0,0.0,0.0
1696243492789,-1.2646484,0.076171875,0.09082031,-94.25,42.4375,9.25,0.0,0.0,0.0
1696243492816,-1.3876953,-0.28808594,-0.0048828125,-56.34375,11.75,13.9375,0.0,0.0,0.0
1696243492843,-1.3847656,-0.046875,0.22167969,-80.625,-21.34375,-3.34375,0.0,0.0,0.0
1696243492907,-1.3466797,-0.42285156,0.05859375,-4.75,-97.625,10.34375,0.0,0.0,0.0
1696243492933,-1.3066406,0.14257812,-0.71972656,173.875,-174.96875,-13.96875,-94.5,24.625,-103.875
1696243492963,-1.6259766,0.6503906,0.34179688,20.625,-218.96875,-19.5,0.0,0.0,0.0
1696243492993,-1.4091797,0.3857422,0.08496094,-139.71875,-197.5,-29.53125,0.0,0.0,0.0
1696243493055,-1.6347656,0.16894531,-0.024414062,197.15625,-178.875,-74.625,0.0,0.0,0.0
1696243493083,-0.57128906,-0.19628906,-0.20410156,159.375,-170.9375,-110.625,0.0,0.0,0.0
1696243493112,-0.2607422,-0.15332031,-0.1015625,183.78125,-119.84375,-59.5,0.0,0.0,0.0
1696243493176,-0.15527344,0.08691406,-0.13378906,132.875,-69.875,-24.03125,0.0,0.0,0.0
1696243493202,-0.14453125,0.26464844,-0.09375,90.28125,2.28125,-20.375,0.0,0.0,0.0
1696243493293,-0.39941406,0.08496094,0.6201172,8.0,140.9375,-35.125,0.0,0.0,0.0
1696243493322,-2.0,0.35351562,1.8457031,-4.53125,134.84375,-34.15625,0.0,0.0,0.0
1696243493354,-1.0166016,0.0625,0.8730469,168.53125,-201.625,-32.4375,0.0,0.0,0.0
1696243493366,0.115234375,0.6064453,0.32128906,108.9375,-62.78125,17.65625,0.0,0.0,0.0
1696243493412,-2.0,0.7373047,-0.1640625,-134.34375,27.3125,29.875,-100.1875,11.75,-65.3125
1696243493536,-0.7314453,0.46972656,-0.33984375,-60.59375,71.96875,-34.34375,0.0,0.0,0.0
1696243493564,-1.0615234,-0.67578125,-0.6142578,-161.0,186.0,-10.53125,0.0,0.0,0.0
1696243493569,-1.3623047,-0.5439453,0.10644531,-67.4375,150.59375,-22.75,0.0,0.0,0.0
1696243493575,-0.74902344,0.4736328,0.111328125,-124.28125,165.96875,10.40625,0.0,0.0,0.0
1696243493591,-0.8203125,0.03515625,0.017578125,-134.21875,157.6875,48.3125,0.0,0.0,0.0
1696243493655,-0.64160156,0.01171875,0.076171875,-98.4375,118.125,11.875,0.0,0.0,0.0
1696243493683,-0.81640625,-0.03515625,-0.21679688,-109.8125,108.0625,22.78125,0.0,0.0,0.0
1696243493745,-1.1621094,-0.23535156,0.078125,-64.5625,120.375,23.9375,0.0,0.0,0.0
1696243493772,-1.1650391,-0.12011719,0.48242188,-95.28125,94.1875,3.5,0.0,0.0,0.0
1696243493804,-1.3339844,-0.23046875,-0.046875,-50.28125,27.90625,28.15625,0.0,0.0,0.0
1696243493839,-1.4482422,-0.080078125,0.1015625,-46.15625,11.5,2.53125,0.0,0.0,0.0
1696243493895,-1.4365234,-0.23632812,0.119140625,-39.0,-55.40625,2.46875,0.0,0.0,0.0
1696243493923,-1.2841797,-0.10546875,-0.18554688,30.75,-145.3125,-9.5625,-91.5,22.8125,-103.875
1696243493953,-1.2988281,0.19238281,-0.43164062,129.15625,-199.25,-17.3125,0.0,0.0,0.0
1696243494018,-1.7236328,0.46875,0.46484375,-66.40625,-229.96875,-26.71875,0.0,0.0,0.0
1696243494041,-1.7910156,0.5361328,-0.5283203,29.40625,-146.46875,-81.53125,0.0,0.0,0.0
1696243494071,-0.81152344,-0.18359375,0.03125,114.125,-199.9375,-123.28125,0.0,0.0,0.0
1696243494134,-0.3876953,-0.24414062,-0.18457031,188.125,-139.5,-60.84375,0.0,0.0,0.0
1696243494163,-0.10644531,-0.0029296875,-0.10546875,181.40625,-112.71875,-19.6875,0.0,0.0,0.0
1696243494195,-0.091796875,0.21289062,-0.15136719,101.375,-65.96875,-19.3125,0.0,0.0,0.0
1696243494254,-0.048828125,0.21582031,0.21679688,66.15625,74.78125,-23.59375,0.0,0.0,0.0
1696243494283,-0.7285156,0.2265625,1.4707031,-28.1875,236.59375,-43.375,0.0,0.0,0.0
1696243494317,-2.0,0.046875,0.96191406,145.09375,-98.71875,12.84375,0.0,0.0,0.0
1696243494374,0.703125,0.74121094,0.35839844,163.9375,-131.21875,-1.03125,0.0,0.0,0.0
1696243494401,-1.9423828,0.44433594,-0.17578125,-44.75,62.09375,40.0625,-98.6875,13.25,-67.375
1696243494432,-0.51464844,-0.3330078,-1.0585938,-79.28125,37.875,-31.03125,0.0,0.0,0.0
1696243494496,-0.8769531,-0.4345703,-0.39257812,-148.875,174.8125,-12.3125,0.0,0.0,0.0
1696243494522,-1.6845703,-0.4326172,-0.049804688,-99.4375,194.71875,-21.40625,0.0,0.0,0.0
1696243494554,-0.60058594,0.27148438,0.1796875,-110.84375,160.59375,-1.875,0.0,0.0,0.0
1696243494614,-0.7685547,0.296875,0.043945312,-95.8125,156.8125,53.78125,0.0,0.0,0.0
1696243494642,-0.77441406,-0.14941406,0.0068359375,-120.0,151.28125,9.84375,0.0,0.0,0.0
1696243494673,-0.78027344,0.036132812,-0.24023438,-118.28125,113.96875,9.46875,0.0,0.0,0.0
1696243494734,-1.0380859,-0.09765625,0.07324219,-62.125,111.21875,24.5625,0.0,0.0,0.0
1696243494761,-1.2626953,-0.2763672,0.30859375,-87.40625,107.875,6.4375,0.0,0.0,0.0
1696243494790,-1.2958984,0.03515625,0.3046875,-82.40625,56.0,5.625,0.0,0.0,0.0
1696243494852,-1.3564453,-0.6044922,0.07714844,-28.75,4.78125,26.625,0.0,0.0,0.0
1696243494889,-1.7236328,0.047851562,0.016601562,-21.0625,-60.59375,-15.1875,0.0,0.0,0.0
1696243494913,-1.2392578,0.0390625,-0.12792969,60.4375,-138.78125,-24.9375,-90.3125,22.6875,-106.875
1696243494972,-1.3212891,0.34472656,-0.4794922,126.84375,-205.71875,1.5,0.0,0.0,0.0
1696243495003,-1.6201172,0.17871094,0.2841797,-70.875,-230.75,-24.03125,0.0,0.0,0.0
1696243495031,-1.9375,0.5126953,-0.6113281,72.9375,-115.65625,-76.8125,0.0,0.0,0.0
1696243495093,-0.5390625,-0.12011719,0.080078125,105.40625,-187.53125,-86.90625,0.0,0.0,0.0
1696243495122,-0.32226562,-0.18359375,-0.16308594,195.0,-131.15625,-39.03125,0.0,0.0,0.0
1696243495152,-0.13085938,-0.057617188,-0.1328125,166.9375,-107.78125,-9.6875,0.0,0.0,0.0
1696243495213,-0.109375,0.25195312,-0.21484375,103.5,-59.3125,-11.09375,0.0,0.0,0.0
1696243495244,-0.14160156,0.2265625,0.47753906,61.59375,99.75,-21.65625,0.0,0.0,0.0
1696243495273,-1.6757812,0.19140625,1.7412109,-37.28125,234.59375,-40.6875,0.0,0.0,0.0
1696243495333,-1.3769531,0.25683594,0.5332031,210.875,-212.25,17.0,0.0,0.0,0.0
1696243495362,0.79589844,0.5517578,-0.13183594,40.09375,-33.375,-2.78125,0.0,0.0,0.0
1696243495392,-2.0,0.8935547,1.9873047,-134.9375,57.75,44.09375,-99.0,12.8125,-69.8125
1696243495456,0.19042969,0.3515625,-0.6484375,-66.53125,112.9375,-108.3125,0.0,0.0,0.0
1696243495481,-0.7783203,-0.046875,-0.36523438,-86.0625,151.375,20.78125,0.0,0.0,0.0
1696243495512,-1.6572266,-0.23144531,0.21875,-128.84375,161.40625,46.53125,0.0,0.0,0.0
1696243495571,-0.6640625,0.05078125,-0.024414062,-84.09375,151.21875,15.40625,0.0,0.0,0.0
1696243495603,-0.6689453,-0.061523438,0.0546875,-36.3125,132.71875,7.53125,0.0,0.0,0.0
1696243495633,-0.82714844,0.20019531,0.051757812,-59.6875,116.84375,0.03125,0.0,0.0,0.0
1696243495693,-0.88378906,0.038085938,-0.10839844,-79.28125,96.59375,9.40625,0.0,0.0,0.0
1696243495722,-1.1123047,0.056640625,0.08886719,-82.15625,98.90625,16.375,0.0,0.0,0.0
1696243495755,-1.1103516,-0.0087890625,0.46875,-83.0,89.4375,11.0625,0.0,0.0,0.0
1696243495813,-1.203125,-0.7792969,-0.10839844,-58.46875,24.625,19.84375,0.0,0.0,0.0
1696243495843,-1.4394531,0.4658203,0.29296875,-44.9375,-1.8125,-14.25,0.0,0.0,0.0
1696243495872,-1.375,-0.5126953,0.20019531,-26.96875,-69.125,20.46875,0.0,0.0,0.0
1696243495932,-1.3457031,-0.24511719,-0.51660156,44.90625,-157.8125,-0.21875,-94.375,22.6875,-105.5
1696243495963,-1.390625,0.28710938,-0.3408203,122.9375,-179.25,-42.71875,0.0,0.0,0.0
1696243496023,-1.4746094,0.4892578,0.37402344,-92.34375,-219.9375,-24.21875,0.0,0.0,0.0
1696243496059,-1.8017578,0.27929688,-0.5498047,132.1875,-131.28125,-88.0,0.0,0.0,0.0
1696243496112,-0.9033203,-0.25,-0.16308594,103.21875,-150.0625,-134.5,0.0,0.0,0.0
1696243496118,-0.40429688,-0.0087890625,-0.16699219,189.5,-135.53125,-85.5625,0.0,0.0,0.0
1696243496204,-0.11328125,0.15136719,-0.09472656,163.875,-93.53125,-41.90625,0.0,0.0,0.0
1696243496207,-0.15917969,0.296875,-0.20898438,94.78125,-39.71875,-28.0625,0.0,0.0,0.0
1696243496292,-0.07324219,0.119140625,0.24121094,42.46875,65.6875,-18.65625,0.0,0.0,0.0
1696243496295,-0.92871094,0.12988281,1.5947266,-43.46875,205.28125,-31.15625,0.0,0.0,0.0
1696243496323,-2.0,-0.31445312,0.9814453,135.5625,-105.09375,8.8125,0.0,0.0,0.0
1696243496351,0.9277344,0.44335938,0.3955078,99.0625,-101.65625,-26.28125,0.0,0.0,0.0
1696243496441,-1.7011719,0.5576172,-1.3330078,-150.40625,123.0,18.34375,-100.375,7.8125,-70.375
1696243496457,-0.068359375,-0.8652344,-1.7333984,31.3125,3.1875,-58.28125,0.0,0.0,0.0
1696243496504,-0.3564453,-0.14648438,-0.67578125,-134.53125,172.375,38.59375,0.0,0.0,0.0
1696243496533,-2.0,-0.5859375,0.25,-187.1875,163.15625,53.65625,0.0,0.0,0.0
1696243496562,-0.53125,0.33007812,0.2109375,-132.5,174.21875,-34.21875,0.0,0.0,0.0
1696243496590,-0.6699219,0.21777344,0.018554688,-94.53125,151.9375,53.3125,0.0,0.0,0.0
1696243496685,-0.6044922,-0.17382812,-0.17285156,-119.8125,129.46875,12.84375,0.0,0.0,0.0
1696243496688,-0.80078125,0.08691406,-0.09863281,-143.75,103.90625,10.15625,0.0,0.0,0.0
1696243496773,-0.9814453,-0.22363281,0.18945312,-67.25,91.15625,32.0625,0.0,0.0,0.0
1696243496775,-1.0908203,-0.053710938,0.25,-118.53125,86.9375,15.84375,0.0,0.0,0.0
1696243496801,-1.5009766,-0.47460938,-0.0048828125,-52.4375,27.125,39.5625,0.0,0.0,0.0
1696243496863,-1.5146484,-0.03515625,-0.08203125,-47.0,4.0,-5.96875,0.0,0.0,0.0
1696243496891,-1.5556641,-0.14453125,0.07519531,-9.78125,-73.40625,-8.34375,0.0,0.0,0.0
1696243496921,-1.1669922,0.25390625,-0.16992188,20.03125,-165.375,-18.96875,-91.0625,28.25,-105.5
1696243496951,-1.4033203,0.10839844,-0.33203125,83.5,-208.28125,-3.09375,0.0,0.0,0.0
1696243497013,-1.5019531,0.37695312,0.46777344,-158.625,-204.8125,-37.15625,0.0,0.0,0.0
1696243497043,-1.9121094,0.4951172,-0.49804688,203.25,-117.46875,-82.375,0.0,0.0,0.0
1696243497071,-0.58203125,-0.20605469,-0.09082031,134.53125,-160.6875,-114.90625,0.0,0.0,0.0
1696243497132,-0.4501953,-0.15136719,-0.21386719,150.8125,-120.03125,-62.28125,0.0,0.0,0.0
1696243497162,-0.15039062,0.103515625,-0.09277344,148.625,-100.375,-40.3125,0.0,0.0,0.0
1696243497192,-0.0107421875,0.2841797,-0.13964844,90.15625,-46.1875,-22.5625,0.0,0.0,0.0
1696243497251,-0.0390625,0.09863281,0.11425781,56.28125,80.40625,-13.71875,0.0,0.0,0.0
1696243497282,-0.9394531,0.041992188,1.71875,-30.6875,233.0,-20.125,0.0,0.0,0.0
1696243497311,-2.0,0.01953125,0.8027344,100.9375,-129.8125,-15.71875,0.0,0.0,0.0
1696243497372,0.4501953,1.0429688,0.32128906,143.90625,-147.625,-8.03125,0.0,0.0,0.0
1696243497402,-2.0,0.061523438,-0.578125,-76.46875,-55.21875,83.5625,-99.875,18.1875,-70.125
1696243497432,-0.16210938,0.41210938,-0.30859375,-77.15625,126.90625,-10.90625,0.0,0.0,0.0
1696243497492,-1.7197266,-0.92285156,-0.6044922,-231.5,214.625,-5.78125,0.0,0.0,0.0
1696243497521,-0.96875,-0.28710938,0.068359375,-7.375,148.21875,-60.15625,0.0,0.0,0.0
1696243497552,-0.48535156,0.56640625,0.07421875,-116.03125,163.28125,34.5,0.0,0.0,0.0
1696243497616,-1.1259766,0.0234375,0.0234375,-106.625,163.71875,70.6875,0.0,0.0,0.0
1696243497642,-0.65722656,-0.123046875,0.016601562,-67.03125,126.5,-2.40625,0.0,0.0,0.0
1696243497672,-0.79003906,0.15625,-0.15136719,-111.5625,114.03125,15.15625,0.0,0.0,0.0
1696243497731,-1.0166016,-0.095703125,0.057617188,-58.90625,110.5,29.9375,0.0,0.0,0.0
1696243497761,-1.2050781,-0.19140625,0.37695312,-78.125,105.375,9.78125,0.0,0.0,0.0
1696243497791,-1.4238281,-0.23339844,0.20214844,-70.5625,37.5,17.90625,0.0,0.0,0.0
1696243497852,-1.390625,-0.18847656,0.0859375,-45.21875,-7.78125,11.4375,0.0,0.0,0.0
1696243497881,-1.4736328,-0.048828125,0.1640625,-15.5625,-70.28125,6.96875,0.0,0.0,0.0
1696243497942,-1.2294922,-0.12402344,-0.3564453,36.9375,-171.90625,-8.03125,-92.25,27.625,-102.8125
1696243497971,-1.2773438,0.1484375,-0.34472656,96.875,-196.34375,-21.65625,0.0,0.0,0.0
1696243498003,-1.7304688,0.265625,0.4423828,-92.65625,-238.03125,-44.03125,0.0,0.0,0.0
1696243498032,-2.0,0.45996094,-0.4921875,238.28125,-121.9375,-112.90625,0.0,0.0,0.0
1696243498092,-0.5878906,-0.078125,-0.16210938,91.5,-166.1875,-115.09375,0.0,0.0,0.0
1696243498121,-0.3779297,-0.018554688,-0.14257812,167.59375,-132.0,-68.34375,0.0,0.0,0.0
1696243498153,-0.08984375,0.015625,-0.13574219,183.40625,-107.46875,-24.46875,0.0,0.0,0.0
1696243498212,-0.055664062,0.3046875,-0.21777344,124.5,-52.71875,-12.375,0.0,0.0,0.0
1696243498242,-0.1875,0.1171875,0.31445312,42.3125,80.09375,-7.0,0.0,0.0,0.0
1696243498302,-1.0302734,0.047851562,1.7861328,-51.03125,186.59375,-40.125,0.0,0.0,0.0
1696243498334,-2.0,-0.08691406,0.79589844,125.25,-100.4375,-7.1875,0.0,0.0,0.0
1696243498393,0.43652344,0.7138672,0.43652344,109.25,-107.65625,-20.5625,0.0,0.0,0.0
1696243498423,-1.984375,0.38867188,0.3046875,41.0,-0.65625,41.53125,-100.5,16.5625,-70.25
1696243498451,-0.54296875,0.5292969,-0.44335938,-110.03125,-14.3125,-20.5625,0.0,0.0,0.0
1696243498481,-1.1142578,-0.47851562,-0.19042969,-130.6875,153.875,35.96875,0.0,0.0,0.0
1696243498511,-1.671875,-0.6191406,0.18847656,-140.25,179.46875,-60.34375,0.0,0.0,0.0
1696243498573,-0.5234375,0.31054688,0.29003906,-91.25,153.03125,-11.625,0.0,0.0,0.0
1696243498602,-0.88183594,0.09863281,0.0029296875,-107.125,169.21875,47.625,0.0,0.0,0.0
1696243498633,-0.9511719,-0.0546875,-0.0068359375,-93.375,155.125,31.6875,0.0,0.0,0.0
1696243498693,-0.6591797,0.2529297,0.17773438,-78.96875,127.03125,23.46875,0.0,0.0,0.0
1696243498724,-0.77734375,-0.15527344,-0.34765625,-95.53125,126.71875,35.53125,0.0,0.0,0.0
1696243498753,-1.2744141,-0.20019531,0.32714844,-68.125,117.5625,13.5,0.0,0.0,0.0
1696243498813,-0.9814453,0.033203125,0.3203125,-114.5,67.09375,-4.375,0.0,0.0,0.0
1696243498842,-1.2285156,-0.4453125,0.01171875,-42.53125,9.96875,29.9375,0.0,0.0,0.0
1696243498872,-1.5966797,-0.18457031,0.18554688,-16.90625,-16.53125,-10.46875,0.0,0.0,0.0
1696243498933,-1.5605469,-0.08300781,-0.0126953125,4.875,-102.40625,-44.09375,-92.6875,29.875,-101.75
1696243498964,-1.2138672,0.640625,-0.36816406,116.03125,-186.9375,-25.90625,0.0,0.0,0.0
1696243498991,-1.6591797,0.24023438,0.19335938,-14.59375,-228.1875,4.71875,0.0,0.0,0.0
1696243499053,-1.5263672,0.39746094,-0.10644531,-115.46875,-197.0,-22.125,0.0,0.0,0.0
1696243499086,-1.3964844,0.080078125,0.22753906,136.59375,-223.84375,-82.5,0.0,0.0,0.0
1696243499112,-0.44335938,-0.19042969,-0.026367188,141.46875,-150.5,-75.1875,0.0,0.0,0.0
1696243499171,-0.22265625,-0.07421875,-0.171875,204.96875,-118.21875,-43.3125,0.0,0.0,0.0
1696243499202,-0.12792969,0.09082031,-0.087890625,117.625,-79.625,-13.65625,0.0,0.0,0.0
1696243499233,-0.05078125,0.24414062,-0.080078125,59.5,-0.90625,-20.65625,0.0,0.0,0.0
1696243499296,-0.026367188,0.083984375,0.26757812,28.5625,124.53125,-25.90625,0.0,0.0,0.0
1696243499321,-1.171875,0.20214844,1.8691406,-54.8125,234.625,-19.8125,0.0,0.0,0.0
1696243499354,-2.0,0.25195312,0.6689453,116.28125,-151.09375,-22.6875,0.0,0.0,0.0
1696243499415,1.3007812,0.58691406,0.31445312,109.3125,-105.5,-5.71875,-99.75,19.375,-69.5
1696243499444,-1.0615234,0.31445312,-1.125,-107.3125,160.125,36.03125,0.0,0.0,0.0
1696243499473,-1.8974609,-1.9824219,-1.6376953,2.375,-61.5,-55.65625,0.0,0.0,0.0
1696243499534,0.38671875,0.9199219,0.017578125,6.59375,103.0625,27.0,0.0,0.0,0.0
1696243499565,-2.0,-0.95996094,-0.11425781,-190.78125,184.34375,63.375,0.0,0.0,0.0
1696243499592,-0.9658203,-0.17285156,0.07421875,-99.65625,153.65625,-54.84375,0.0,0.0,0.0
1696243499654,-0.4375,0.87109375,0.20117188,-52.0,134.90625,28.40625,0.0,0.0,0.0
1696243499683,-0.7158203,-0.07519531,0.059570312,-106.25,157.1875,32.4375,0.0,0.0,0.0
1696243499712,-0.78808594,-0.16699219,-0.15136719,-125.84375,116.90625,7.34375,0.0,0.0,0.0
1696243499774,-0.9169922,-0.0546875,0.021484375,-87.53125,122.03125,17.84375,0.0,0.0,0.0
1696243499801,-1.2304688,-0.42871094,0.30664062,-38.34375,113.71875,24.125,0.0,0.0,0.0
1696243499831,-1.1835938,0.2783203,0.35351562,-80.75,59.34375,6.4375,0.0,0.0,0.0
1696243499892,-1.4794922,-0.71972656,0.051757812,-24.59375,8.125,37.5,0.0,0.0,0.0
1696243499921,-1.7060547,-0.17773438,-0.026367188,-7.09375,-61.0,-14.125,-92.25,26.125,-102.5
1696243499957,-1.4072266,0.12597656,-0.34277344,80.3125,-144.9375,-45.75,0.0,0.0,0.0
1696243500019,-1.3701172,0.46484375,-0.45214844,125.71875,-200.28125,-25.5625,0.0,0.0,0.0
1696243500041,-1.5605469,0.3935547,0.3642578,-49.4375,-254.6875,-36.0,0.0,0.0,0.0
1696243500072,-1.9052734,0.58691406,-0.42773438,160.875,-151.15625,-76.28125,0.0,0.0,0.0
1696243500136,-0.51953125,-0.21777344,-0.19433594,84.78125,-184.5625,-79.9375,0.0,0.0,0.0
1696243500163,-0.22558594,-0.34765625,-0.16796875,201.0,-149.40625,-23.1875,0.0,0.0,0.0
1696243500194,-0.043945312,0.021484375,-0.17675781,147.65625,-99.15625,-7.65625,0.0,0.0,0.0
1696243500255,-0.14648438,0.28222656,-0.19140625,86.0,-33.5625,-9.4375,0.0,0.0,0.0
1696243500285,-0.23535156,0.13964844,0.29882812,15.0,108.40625,-23.53125,0.0,0.0,0.0
1696243500315,-0.9296875,0.1640625,1.6142578,-66.28125,232.5,-67.78125,0.0,0.0,0.0
1696243500374,-2.0,-0.3173828,1.0253906,108.03125,-148.1875,2.78125,0.0,0.0,0.0
1696243500403,1.0234375,1.0068359,0.3173828,115.84375,-129.375,-15.71875,-97.375,12.3125,-67.875
1696243500441,-1.9033203,0.38183594,-1.1884766,-45.71875,64.84375,67.84375,0.0,0.0,0.0
1696243500491,-1.2685547,-0.8203125,-0.7832031,-34.96875,40.4375,1.25,0.0,0.0,0.0
1696243500523,-0.5410156,-0.38183594,-0.41308594,-153.5625,149.4375,-20.375,0.0,0.0,0.0
