,timestamp,accel_x,accel_y,accel_z,gyro_x,gyro_y,gyro_z,mag_x,mag_y,mag_z,ind
0,1696243600573,-1.0,0.11230469,-0.030273438,5.75,-3.15625,4.0625,0.0,0.0,0.0,0
1,1696243600613,-1.046875,0.09277344,-0.0146484375,5.0625,-10.65625,6.78125,0.0,0.0,0.0,1
2,1696243600653,-1.0693359,0.08300781,0.0703125,10.4375,-25.125,6.96875,0.0,0.0,0.0,2
3,1696243600693,-1.0966797,0.1015625,0.19824219,20.03125,-43.75,6.84375,0.0,0.0,0.0,3
4,1696243600733,-1.09375,0.07910156,0.2783203,-2.375,-83.0625,1.71875,0.0,0.0,0.0,4
5,1696243600773,-1.3291016,0.1484375,0.28515625,-45.40625,-123.40625,-6.3125,0.0,0.0,0.0,5
6,1696243600813,-1.2539062,0.23730469,0.37695312,90.03125,-202.25,-12.0,0.0,0.0,0.0,6
7,1696243600853,-1.1113281,0.04296875,0.3251953,109.875,-196.375,-0.71875,0.0,0.0,0.0,7
8,1696243600893,-1.3300781,-0.15332031,0.29785156,78.4375,-179.46875,-33.5,0.0,0.0,0.0,8
9,1696243600933,-0.87597656,0.35058594,0.2607422,123.15625,-207.0625,-56.75,-97.9375,28.5625,-76.5625,9
10,1696243600973,-0.50878906,0.3359375,0.4970703,134.46875,-179.4375,-18.59375,0.0,0.0,0.0,10
11,1696243601013,-0.4267578,0.22167969,0.49609375,57.5625,-123.21875,12.03125,0.0,0.0,0.0,11
12,1696243601053,-0.49316406,0.2783203,0.52734375,55.96875,-74.1875,18.28125,0.0,0.0,0.0,12
13,1696243601093,-0.5214844,0.2783203,0.5058594,55.3125,-41.125,0.3125,0.0,0.0,0.0,13
14,1696243601133,-0.47070312,0.3251953,0.6464844,-7.3125,-5.15625,-14.5625,0.0,0.0,0.0,14
15,1696243601173,-0.4345703,0.2529297,0.6982422,4.5625,-10.53125,-20.4375,0.0,0.0,0.0,15
16,1696243601213,-0.42285156,0.25,0.6748047,7.375,0.09375,-29.65625,0.0,0.0,0.0,16
17,1696243601253,-0.37109375,0.31445312,0.6933594,-24.28125,21.375,-30.25,0.0,0.0,0.0,17
18,1696243601293,-0.71777344,0.296875,1.0234375,10.3125,23.8125,-12.78125,0.0,0.0,0.0,18
19,1696243601333,-0.5966797,0.24316406,0.8203125,19.78125,34.3125,-15.25,0.0,0.0,0.0,19
20,1696243601373,-0.71484375,0.37304688,0.6845703,-2.0625,50.75,-2.125,0.0,0.0,0.0,20
21,1696243601413,-0.8574219,0.3701172,0.67089844,3.1875,54.34375,-6.5625,-95.5625,24.3125,-65.75,21
22,1696243601453,-1.0947266,0.29101562,0.5839844,-6.15625,62.46875,-22.5,0.0,0.0,0.0,22
23,1696243601493,-0.7705078,0.34472656,0.6308594,-28.0625,72.78125,-37.28125,0.0,0.0,0.0,23
24,1696243601533,-0.93652344,0.14257812,0.5175781,-64.5625,91.6875,-27.8125,0.0,0.0,0.0,24
25,1696243601573,-1.0957031,-0.0068359375,0.4140625,-63.0625,91.9375,-23.21875,0.0,0.0,0.0,25
26,1696243601613,-0.91308594,0.099609375,0.375,-54.5625,95.71875,-33.65625,0.0,0.0,0.0,26
27,1696243601653,-0.95214844,0.033203125,0.31054688,-49.6875,89.75,-18.15625,0.0,0.0,0.0,27
28,1696243601693,-0.94140625,-0.028320312,0.28808594,-34.25,84.875,-12.1875,0.0,0.0,0.0,28
29,1696243601733,-0.8076172,0.05078125,0.2705078,-57.0625,94.25,-12.78125,0.0,0.0,0.0,29
30,1696243601773,-0.8408203,0.034179688,0.18066406,-63.125,94.625,11.25,0.0,0.0,0.0,30
31,1696243601813,-0.92089844,0.016601562,0.15722656,-49.4375,82.0,14.5625,0.0,0.0,0.0,31
32,1696243601853,-0.96484375,0.034179688,0.12402344,-38.6875,60.1875,13.03125,0.0,0.0,0.0,32
33,1696243601893,-0.98339844,-0.051757812,0.034179688,-25.21875,53.375,10.21875,0.0,0.0,0.0,33
34,1696243601933,-0.97265625,0.037109375,0.078125,-9.28125,32.0625,5.75,-95.25,20.0,-98.3125,34
35,1696243601973,-1.0546875,0.048828125,0.10839844,-17.21875,19.125,5.09375,0.0,0.0,0.0,35
36,1696243602013,-1.0439453,-0.021484375,0.13378906,-16.71875,14.96875,2.28125,0.0,0.0,0.0,36
37,1696243602053,-1.0,-0.08984375,0.017578125,-24.96875,9.65625,-2.96875,0.0,0.0,0.0,37
38,1696243602093,-0.98046875,0.0078125,0.05859375,-30.59375,11.125,-9.1875,0.0,0.0,0.0,38
39,1696243602133,-0.9707031,-0.0107421875,0.032226562,-20.25,14.375,-6.15625,0.0,0.0,0.0,39
40,1696243602173,-0.9746094,0.01171875,0.021484375,-15.5,15.65625,-2.0,0.0,0.0,0.0,40
41,1696243602213,-0.9980469,-0.01171875,0.040039062,-16.90625,17.40625,0.375,0.0,0.0,0.0,41
42,1696243602253,-0.9667969,0.00390625,0.0087890625,-14.46875,23.21875,3.1875,0.0,0.0,0.0,42
43,1696243602293,-0.9638672,0.020507812,0.00390625,-8.0,22.65625,5.875,0.0,0.0,0.0,43
44,1696243602333,-1.0009766,-0.029296875,0.001953125,-7.03125,22.125,2.875,0.0,0.0,0.0,44
45,1696243602373,-1.0332031,-0.0390625,0.0234375,-13.5,6.96875,-6.5,0.0,0.0,0.0,45
46,1696243602413,-0.9814453,-0.015625,0.0087890625,-23.375,-4.6875,-4.3125,-92.375,21.9375,-103.6875,46
47,1696243602453,-1.0664062,0.009765625,-0.028320312,-6.59375,5.5625,3.75,0.0,0.0,0.0,47
48,1696243602493,-1.1025391,0.115234375,-0.12207031,-8.1875,16.4375,4.28125,0.0,0.0,0.0,48
49,1696243602533,-1.125,0.059570312,-0.030273438,-3.96875,22.40625,14.0625,0.0,0.0,0.0,49
50,1696243602573,-1.2333984,-0.08496094,-0.072265625,-2.75,24.8125,15.03125,0.0,0.0,0.0,50
51,1696243602613,-1.2910156,-0.030273438,-0.15039062,-14.46875,16.375,4.40625,0.0,0.0,0.0,51
52,1696243602653,-1.4414062,0.19628906,-0.08300781,-17.9375,2.15625,13.875,0.0,0.0,0.0,52
53,1696243602693,-1.2304688,0.15234375,-0.091796875,-19.71875,-24.75,21.25,0.0,0.0,0.0,53
54,1696243602733,-1.0712891,0.13964844,-0.01953125,-24.53125,-41.4375,25.78125,0.0,0.0,0.0,54
55,1696243602773,-1.0585938,0.11621094,0.06542969,13.3125,-48.6875,31.625,0.0,0.0,0.0,55
56,1696243602813,-0.94628906,-0.021484375,0.23046875,46.875,-65.09375,25.90625,0.0,0.0,0.0,56
57,1696243602853,-0.8935547,-0.048828125,0.038085938,-22.875,-73.84375,5.28125,0.0,0.0,0.0,57
58,1696243602893,-1.0107422,0.09082031,-0.15625,11.71875,-73.71875,-19.625,0.0,0.0,0.0,58
59,1696243602933,-1.0263672,0.265625,0.17089844,70.1875,-100.5625,-35.625,-97.5,24.5,-96.375,59
60,1696243602973,-0.97265625,0.24902344,0.3564453,97.21875,-131.28125,-34.90625,0.0,0.0,0.0,60
61,1696243603013,-1.0224609,-0.018554688,0.23242188,30.28125,-117.15625,-43.6875,0.0,0.0,0.0,61
62,1696243603053,-0.93359375,0.051757812,0.24707031,31.625,-124.125,-34.15625,0.0,0.0,0.0,62
63,1696243603093,-0.85546875,0.040039062,0.32617188,95.53125,-138.28125,-13.09375,0.0,0.0,0.0,63
64,1696243603133,-0.8408203,0.1015625,0.4423828,90.8125,-142.5,-3.6875,0.0,0.0,0.0,64
65,1696243603173,-0.60253906,0.27929688,0.4169922,69.46875,-132.0625,3.5,0.0,0.0,0.0,65
66,1696243603213,-0.68066406,0.17285156,0.4560547,66.34375,-118.8125,16.4375,0.0,0.0,0.0,66
67,1696243603253,-0.61621094,0.1953125,0.5986328,40.09375,-96.28125,10.03125,0.0,0.0,0.0,67
68,1696243603293,-0.5498047,0.16992188,0.6064453,35.78125,-70.0,3.375,0.0,0.0,0.0,68
69,1696243603333,-0.5097656,0.28320312,0.6533203,30.46875,-54.65625,3.0625,0.0,0.0,0.0,69
70,1696243603373,-0.49902344,0.31152344,0.6982422,22.875,-35.8125,-3.09375,0.0,0.0,0.0,70
71,1696243603413,-0.5263672,0.234375,0.79296875,22.8125,-29.59375,-3.40625,-92.375,21.9375,-56.75,71
72,1696243603453,-0.41503906,0.22558594,0.7949219,13.0,-7.84375,-12.96875,0.0,0.0,0.0,72
73,1696243603493,-0.41015625,0.24316406,0.68652344,27.65625,4.0625,-20.1875,0.0,0.0,0.0,73
74,1696243603533,-0.38085938,0.3779297,0.6035156,4.625,21.4375,-29.15625,0.0,0.0,0.0,74
75,1696243603573,-0.5957031,0.4501953,0.9326172,-20.875,42.5625,-18.34375,0.0,0.0,0.0,75
76,1696243603613,-0.66796875,0.21289062,0.953125,8.96875,11.3125,-7.65625,0.0,0.0,0.0,76
77,1696243603653,-0.4033203,0.3017578,0.79785156,-0.375,36.75,2.53125,0.0,0.0,0.0,77
78,1696243603693,-0.7861328,0.30859375,0.7705078,-2.875,36.28125,11.3125,0.0,0.0,0.0,78
79,1696243603733,-0.75097656,0.33007812,0.7705078,1.59375,51.71875,-7.0625,0.0,0.0,0.0,79
80,1696243603773,-0.8730469,0.3359375,0.68359375,-8.4375,55.1875,-17.8125,0.0,0.0,0.0,80
81,1696243603813,-0.88183594,0.19921875,0.671875,-33.25,65.4375,-27.6875,0.0,0.0,0.0,81
82,1696243603853,-0.9707031,0.10253906,0.59277344,-42.40625,77.65625,-42.34375,0.0,0.0,0.0,82
83,1696243603893,-0.86328125,0.19921875,0.50683594,-46.6875,83.5625,-46.78125,0.0,0.0,0.0,83
84,1696243603933,-0.859375,0.15332031,0.4404297,-54.75,86.5,-33.5625,-95.6875,13.5625,-70.25,84
85,1696243603973,-0.92089844,0.07910156,0.375,-60.5625,79.65625,-23.71875,0.0,0.0,0.0,85
86,1696243604013,-0.9785156,-0.051757812,0.3671875,-47.96875,74.96875,-15.96875,0.0,0.0,0.0,86
87,1696243604053,-0.984375,-0.01171875,0.37597656,-32.59375,64.53125,-10.65625,0.0,0.0,0.0,87
88,1696243604093,-0.92871094,0.083984375,0.32421875,-44.0,72.90625,-3.53125,0.0,0.0,0.0,88
89,1696243604133,-0.81347656,0.029296875,0.27246094,-69.28125,82.96875,6.1875,0.0,0.0,0.0,89
90,1696243604173,-0.875,-0.0859375,0.18261719,-79.84375,84.5625,19.125,0.0,0.0,0.0,90
91,1696243604213,-0.94628906,-0.072265625,0.14160156,-62.875,80.65625,17.96875,0.0,0.0,0.0,91
92,1696243604253,-0.9433594,0.08691406,0.18457031,-47.78125,57.21875,31.03125,0.0,0.0,0.0,92
93,1696243604293,-0.9638672,-0.033203125,0.059570312,-51.6875,56.0625,29.4375,0.0,0.0,0.0,93
94,1696243604333,-1.0117188,-0.06347656,0.14453125,-29.40625,43.59375,7.09375,0.0,0.0,0.0,94
95,1696243604373,-1.0263672,0.0078125,0.14648438,-27.59375,30.96875,4.53125,0.0,0.0,0.0,95
96,1696243604413,-0.9824219,-0.046875,0.12792969,-19.46875,17.84375,2.84375,-95.875,12.9375,-97.25,96
97,1696243604453,-0.9863281,-0.08203125,0.09277344,-15.4375,12.71875,-3.8125,0.0,0.0,0.0,97
98,1696243604493,-1.0126953,0.0,0.046875,-15.625,14.78125,-5.71875,0.0,0.0,0.0,98
99,1696243604533,-0.9892578,-0.0068359375,0.072265625,-1.46875,11.96875,-1.6875,0.0,0.0,0.0,99
100,1696243604573,-0.9667969,0.08496094,0.022460938,-15.0,6.125,-2.65625,0.0,0.0,0.0,100
101,1696243604613,-1.0126953,-0.09277344,0.024414062,-5.1875,5.21875,7.21875,0.0,0.0,0.0,101
102,1696243604653,-1.0039062,0.009765625,0.005859375,-4.625,10.6875,2.9375,0.0,0.0,0.0,102
103,1696243604693,-0.9892578,-0.0029296875,0.048828125,-4.21875,12.53125,9.53125,0.0,0.0,0.0,103
104,1696243604733,-1.0039062,-0.052734375,-0.037109375,-1.84375,19.3125,11.3125,0.0,0.0,0.0,104
105,1696243604773,-0.97265625,0.061523438,-0.015625,-1.09375,22.375,10.6875,0.0,0.0,0.0,105
106,1696243604813,-1.1181641,-0.016601562,0.0087890625,5.0,22.71875,18.5,0.0,0.0,0.0,106
107,1696243604853,-1.1230469,0.01171875,-0.06542969,4.625,26.8125,1.96875,0.0,0.0,0.0,107
108,1696243604893,-0.9511719,0.203125,0.0126953125,-16.71875,20.09375,2.875,0.0,0.0,0.0,108
109,1696243604933,-1.0732422,-0.0107421875,-0.10644531,-15.75,11.1875,18.03125,-93.0,15.625,-100.375,109
110,1696243604973,-1.1396484,-0.09765625,-0.16699219,-3.53125,20.15625,7.78125,0.0,0.0,0.0,110
111,1696243605013,-1.2822266,0.021484375,-0.15136719,-21.0625,15.40625,-0.53125,0.0,0.0,0.0,111
112,1696243605053,-1.3789062,0.24316406,-0.07714844,-16.125,-5.03125,7.65625,0.0,0.0,0.0,112
113,1696243605093,-1.3291016,0.14257812,-0.107421875,-12.5625,-30.5,20.46875,0.0,0.0,0.0,113
114,1696243605133,-1.2070312,0.20117188,-0.015625,-18.8125,-52.96875,16.3125,0.0,0.0,0.0,114
115,1696243605173,-1.2294922,0.25,0.203125,-31.3125,-62.71875,12.53125,0.0,0.0,0.0,115
116,1696243605213,-1.2978516,0.1640625,0.2783203,-16.65625,-85.375,12.28125,0.0,0.0,0.0,116
117,1696243605253,-1.2490234,-0.111328125,-0.022460938,46.4375,-129.6875,-8.09375,0.0,0.0,0.0,117
118,1696243605293,-1.1572266,-0.22167969,0.05859375,28.0625,-114.59375,-84.03125,0.0,0.0,0.0,118
119,1696243605333,-0.5722656,0.18457031,0.11621094,66.15625,-119.25,-66.6875,0.0,0.0,0.0,119
120,1696243605373,-0.5048828,0.041015625,0.16699219,120.0625,-149.5625,-35.1875,0.0,0.0,0.0,120
121,1696243605413,-0.5439453,-0.0078125,0.12988281,141.53125,-162.625,-11.5625,-99.125,13.6875,-80.3125,121
122,1696243605453,-0.66015625,0.18457031,0.27539062,106.9375,-169.90625,5.34375,0.0,0.0,0.0,122
123,1696243605493,-0.7548828,0.12402344,0.50097656,110.03125,-144.28125,4.46875,0.0,0.0,0.0,123
124,1696243605533,-1.0478516,0.2685547,0.7167969,66.03125,-123.5625,0.09375,0.0,0.0,0.0,124
125,1696243605573,-0.6308594,0.29296875,0.6533203,26.6875,-87.0625,-15.96875,0.0,0.0,0.0,125
126,1696243605613,-0.4970703,0.26171875,0.58496094,36.3125,-68.03125,-6.4375,0.0,0.0,0.0,126
127,1696243605653,-0.5029297,0.17675781,0.55371094,45.03125,-48.4375,-3.34375,0.0,0.0,0.0,127
128,1696243605693,-0.38964844,0.31347656,0.60058594,34.0,-28.125,0.9375,0.0,0.0,0.0,128
129,1696243605733,-0.49121094,0.31640625,0.65234375,18.625,-14.25,2.03125,0.0,0.0,0.0,129
130,1696243605773,-0.3876953,0.30859375,0.7988281,16.90625,1.96875,-0.53125,0.0,0.0,0.0,130
131,1696243605813,-0.49902344,0.2685547,0.72265625,-22.46875,1.25,-11.46875,0.0,0.0,0.0,131
132,1696243605853,-0.44628906,0.22949219,0.73046875,-18.6875,26.21875,-22.25,0.0,0.0,0.0,132
133,1696243605893,-0.43652344,0.23535156,0.9042969,-20.1875,59.78125,-19.5,0.0,0.0,0.0,133
134,1696243605933,-1.0527344,0.28710938,1.3271484,-17.625,39.8125,-2.40625,-88.0625,19.8125,-56.4375,134
135,1696243605973,-0.20117188,0.4501953,0.4404297,-5.1875,32.75,3.75,0.0,0.0,0.0,135
136,1696243606013,-0.7109375,0.22265625,0.7011719,-0.125,72.03125,3.5625,0.0,0.0,0.0,136
137,1696243606053,-1.1572266,0.3466797,0.7324219,-19.71875,73.4375,-6.8125,0.0,0.0,0.0,137
138,1696243606093,-1.0039062,0.3095703,0.55566406,0.125,87.4375,-20.90625,0.0,0.0,0.0,138
139,1696243606133,-0.95703125,0.1875,0.43066406,-47.125,103.84375,-19.15625,0.0,0.0,0.0,139
140,1696243606173,-1.1484375,0.17382812,0.4267578,-40.40625,112.15625,-14.6875,0.0,0.0,0.0,140
141,1696243606213,-0.9824219,-0.0029296875,0.30078125,-41.8125,121.78125,-29.28125,0.0,0.0,0.0,141
142,1696243606253,-0.93652344,0.06933594,0.27734375,-41.03125,103.71875,-25.125,0.0,0.0,0.0,142
143,1696243606293,-0.97558594,0.013671875,0.28027344,-36.1875,117.40625,-6.09375,0.0,0.0,0.0,143
144,1696243606333,-0.6855469,0.06933594,0.28710938,-94.84375,118.0625,-6.6875,0.0,0.0,0.0,144
145,1696243606373,-0.6269531,-0.0146484375,0.12597656,-123.0,136.8125,15.875,0.0,0.0,0.0,145
146,1696243606413,-0.9667969,-0.11425781,0.053710938,-69.03125,111.46875,20.40625,-97.375,15.1875,-90.1875,146
147,1696243606453,-0.83691406,0.15917969,0.09765625,-17.53125,63.5625,7.90625,0.0,0.0,0.0,147
148,1696243606493,-1.0742188,0.3154297,0.24316406,-16.71875,30.0,19.25,0.0,0.0,0.0,148
149,1696243606533,-1.1660156,-0.17480469,0.12207031,-34.96875,27.5625,10.09375,0.0,0.0,0.0,149
150,1696243606573,-1.1083984,-0.24511719,-0.08105469,-35.78125,1.71875,-11.21875,0.0,0.0,0.0,150
151,1696243606613,-1.0244141,-0.01953125,-0.051757812,7.6875,4.21875,-17.5,0.0,0.0,0.0,151
152,1696243606653,-0.91308594,0.17382812,-0.030273438,-19.15625,12.90625,-15.40625,0.0,0.0,0.0,152
153,1696243606693,-0.8779297,0.11816406,-0.08203125,-13.84375,18.625,-2.25,0.0,0.0,0.0,153
154,1696243606733,-0.92578125,0.041015625,-0.016601562,-10.6875,17.59375,2.84375,0.0,0.0,0.0,154
155,1696243606773,-0.95703125,-0.038085938,0.030273438,-13.5625,25.59375,7.71875,0.0,0.0,0.0,155
156,1696243606813,-1.0068359,-0.10839844,-0.08691406,-5.625,33.90625,13.75,0.0,0.0,0.0,156
157,1696243606853,-1.0654297,0.051757812,-0.15527344,-8.3125,24.9375,5.5,0.0,0.0,0.0,157
158,1696243606893,-1.1523438,0.10058594,-0.12792969,-8.0625,8.375,4.71875,0.0,0.0,0.0,158
159,1696243606933,-1.0273438,0.33984375,-0.19433594,-33.5625,3.3125,0.5,-93.125,21.625,-97.6875,159
160,1696243606973,-1.1171875,0.0029296875,-0.1796875,14.40625,-3.8125,30.84375,0.0,0.0,0.0,160
161,1696243607013,-1.3457031,-0.0087890625,-0.11328125,-12.625,7.40625,19.125,0.0,0.0,0.0,161
162,1696243607053,-1.4541016,0.19628906,-0.12597656,-29.78125,-16.28125,12.78125,0.0,0.0,0.0,162
163,1696243607093,-1.4570312,0.3388672,-0.13964844,-34.84375,-23.90625,6.5625,0.0,0.0,0.0,163
164,1696243607133,-1.5351562,0.3515625,-0.025390625,-25.15625,-48.0,8.625,0.0,0.0,0.0,164
165,1696243607173,-1.4648438,0.3515625,0.23242188,-32.59375,-66.8125,9.46875,0.0,0.0,0.0,165
166,1696243607213,-1.2460938,0.18066406,0.43164062,-1.53125,-105.375,12.40625,0.0,0.0,0.0,166
167,1696243607253,-1.3173828,-0.27148438,0.10253906,162.53125,-148.28125,-42.65625,0.0,0.0,0.0,167
168,1696243607293,-0.036132812,-0.30371094,-0.47460938,0.84375,-101.53125,-147.25,0.0,0.0,0.0,168
169,1696243607333,-0.0087890625,0.3564453,0.028320312,114.1875,-154.875,-4.0,0.0,0.0,0.0,169
170,1696243607373,-0.23730469,0.041992188,0.16601562,145.5625,-179.25,13.375,0.0,0.0,0.0,170
171,1696243607413,-0.82128906,0.001953125,0.13867188,104.5625,-160.1875,30.59375,-96.875,22.6875,-75.5,171
172,1696243607453,-1.9775391,0.73828125,0.7548828,28.0,-121.5,5.875,0.0,0.0,0.0,172
173,1696243607493,-0.6533203,0.15820312,0.69433594,-6.40625,-139.8125,-29.65625,0.0,0.0,0.0,173
174,1696243607533,-0.7763672,-0.00390625,0.703125,32.96875,-93.71875,-3.53125,0.0,0.0,0.0,174
175,1696243607573,-0.54785156,0.20410156,0.50097656,65.6875,-86.65625,4.59375,0.0,0.0,0.0,175
176,1696243607613,-0.32714844,0.31152344,0.53027344,43.21875,-69.4375,10.34375,0.0,0.0,0.0,176
177,1696243607653,-0.37402344,0.3017578,0.53515625,40.71875,-54.59375,21.03125,0.0,0.0,0.0,177
178,1696243607693,-0.45214844,0.34277344,0.5888672,-1.15625,-30.5,20.59375,0.0,0.0,0.0,178
179,1696243607733,-0.4453125,0.2861328,0.8173828,-13.0625,-1.125,16.8125,0.0,0.0,0.0,179
180,1696243607773,-0.5126953,0.06542969,0.83203125,-6.34375,20.09375,-3.09375,0.0,0.0,0.0,180
181,1696243607813,-0.36816406,0.07421875,0.82128906,5.4375,54.78125,-36.40625,0.0,0.0,0.0,181
182,1696243607853,-0.54003906,0.34960938,0.9121094,-18.25,103.53125,-47.90625,0.0,0.0,0.0,182
183,1696243607893,-1.1855469,0.37402344,1.1113281,23.375,3.8125,4.28125,0.0,0.0,0.0,183
184,1696243607933,-0.3095703,0.40722656,0.8408203,27.90625,95.59375,-20.59375,-88.1875,27.625,-60.1875,184
185,1696243607973,-1.1201172,0.34179688,0.47460938,-48.78125,93.53125,-22.75,0.0,0.0,0.0,185
186,1696243608013,-1.2080078,0.25585938,0.6308594,-34.90625,101.9375,-45.5,0.0,0.0,0.0,186
187,1696243608053,-0.8886719,0.2578125,0.49609375,-58.90625,97.6875,-24.21875,0.0,0.0,0.0,187
188,1696243608093,-1.1933594,-0.14648438,0.25,-90.6875,152.1875,-19.875,0.0,0.0,0.0,188
189,1696243608133,-1.1845703,-0.15429688,0.18359375,-58.34375,159.125,-36.34375,0.0,0.0,0.0,189
190,1696243608173,-0.5546875,0.22070312,0.25,-81.0625,148.8125,-15.78125,0.0,0.0,0.0,190
191,1696243608213,-0.53515625,0.046875,0.080078125,-120.65625,143.9375,31.75,0.0,0.0,0.0,191
192,1696243608253,-0.62597656,-0.0859375,-0.005859375,-125.375,133.125,64.53125,0.0,0.0,0.0,192
193,1696243608293,-0.7998047,0.1171875,0.23535156,-13.1875,95.65625,11.1875,0.0,0.0,0.0,193
194,1696243608333,-1.1445312,0.15527344,0.17871094,-7.1875,49.53125,21.1875,0.0,0.0,0.0,194
195,1696243608373,-1.1621094,-0.3701172,-0.0390625,-24.65625,39.3125,19.1875,0.0,0.0,0.0,195
196,1696243608413,-1.3076172,0.17089844,-0.07421875,5.0,35.25,-5.34375,-92.6875,24.625,-95.125,196
197,1696243608453,-1.1484375,-0.07421875,0.055664062,12.875,-3.59375,-11.28125,0.0,0.0,0.0,197
198,1696243608493,-0.9042969,0.09082031,-0.107421875,-51.09375,-13.09375,-23.34375,0.0,0.0,0.0,198
199,1696243608533,-0.9003906,0.19726562,-0.19042969,-14.15625,4.15625,-10.59375,0.0,0.0,0.0,199
200,1696243608573,-0.95410156,0.030273438,-0.16601562,-33.03125,7.96875,-8.84375,0.0,0.0,0.0,200
201,1696243608613,-1.0058594,0.09863281,-0.017578125,-48.46875,10.65625,-5.53125,0.0,0.0,0.0,201
202,1696243608653,-0.9814453,0.018554688,-0.099609375,-19.78125,9.84375,2.71875,0.0,0.0,0.0,202
203,1696243608693,-0.984375,-0.028320312,-0.009765625,-24.0625,6.96875,3.0,0.0,0.0,0.0,203
204,1696243608733,-1.0087891,-0.036132812,-0.09472656,-25.28125,3.625,-0.03125,0.0,0.0,0.0,204
205,1696243608773,-0.9716797,0.017578125,-0.08105469,-13.5,11.9375,0.375,0.0,0.0,0.0,205
206,1696243608813,-0.98828125,0.080078125,-0.11328125,-17.21875,18.75,5.15625,0.0,0.0,0.0,206
207,1696243608853,-1.0185547,0.0146484375,-0.05078125,-4.46875,20.96875,11.5,0.0,0.0,0.0,207
208,1696243608893,-1.1015625,0.09375,-0.03515625,-10.75,17.0625,6.625,0.0,0.0,0.0,208
209,1696243608933,-1.2363281,-0.025390625,-0.1328125,-14.90625,3.375,5.28125,-90.4375,28.375,-94.375,209
210,1696243608973,-1.2939453,-0.0107421875,-0.0859375,-6.96875,-1.375,-0.59375,0.0,0.0,0.0,210
211,1696243609013,-1.4140625,0.072265625,-0.08105469,8.0625,-17.125,10.40625,0.0,0.0,0.0,211
212,1696243609053,-1.4960938,0.07910156,-0.052734375,18.0625,-40.6875,9.53125,0.0,0.0,0.0,212
213,1696243609093,-1.2412109,0.2421875,-0.049804688,-7.75,-72.6875,8.1875,0.0,0.0,0.0,213
214,1696243609133,-1.2197266,0.26757812,0.22753906,2.625,-93.5,17.46875,0.0,0.0,0.0,214
215,1696243609173,-1.2802734,0.040039062,0.37402344,52.0625,-123.75,17.21875,0.0,0.0,0.0,215
216,1696243609213,-1.3486328,-0.35546875,-0.04296875,79.46875,-142.625,-40.1875,0.0,0.0,0.0,216
217,1696243609253,-0.7138672,0.083984375,-0.12402344,53.09375,-116.1875,-96.40625,0.0,0.0,0.0,217
218,1696243609293,-0.6425781,0.39257812,0.34960938,108.09375,-164.78125,-6.625,0.0,0.0,0.0,218
219,1696243609333,-0.625,-0.037109375,0.07324219,71.71875,-157.5625,-13.15625,0.0,0.0,0.0,219
220,1696243609373,-0.6669922,0.022460938,0.19921875,47.53125,-164.84375,-13.28125,0.0,0.0,0.0,220
221,1696243609413,-0.74609375,0.22851562,0.3544922,88.4375,-168.4375,-4.875,-90.625,24.9375,-72.375,221
222,1696243609453,-0.8046875,-0.07421875,0.6220703,70.1875,-150.0,8.0625,0.0,0.0,0.0,222
223,1696243609493,-0.5810547,0.13867188,0.62109375,61.34375,-116.25,3.625,0.0,0.0,0.0,223
224,1696243609533,-0.5419922,0.27246094,0.66503906,51.4375,-80.25,3.625,0.0,0.0,0.0,224
225,1696243609573,-0.5097656,0.17285156,0.6767578,41.4375,-47.03125,-8.40625,0.0,0.0,0.0,225
226,1696243609613,-0.4765625,0.23339844,0.5859375,24.71875,-17.375,-18.34375,0.0,0.0,0.0,226
227,1696243609653,-0.41796875,0.23339844,0.63671875,19.09375,-4.0,-21.59375,0.0,0.0,0.0,227
228,1696243609693,-0.45507812,0.22460938,0.68652344,3.71875,25.46875,-20.78125,0.0,0.0,0.0,228
229,1696243609733,-0.5214844,0.21679688,0.69433594,-12.28125,30.90625,-25.90625,0.0,0.0,0.0,229
230,1696243609773,-0.4814453,0.13183594,0.6904297,-7.1875,53.5625,-34.15625,0.0,0.0,0.0,230
231,1696243609813,-0.66015625,0.15917969,1.0087891,-23.0625,93.03125,-35.6875,0.0,0.0,0.0,231
232,1696243609853,-1.4267578,0.2841797,1.3847656,8.90625,3.375,-23.59375,0.0,0.0,0.0,232
233,1696243609893,-0.13867188,0.36914062,0.27246094,44.5625,24.625,-9.9375,0.0,0.0,0.0,233
234,1696243609933,-0.8232422,0.01953125,0.84277344,-4.34375,66.90625,-1.5625,-90.3125,26.3125,-69.5,234
235,1696243609973,-1.4746094,0.47265625,0.9003906,13.5,85.15625,-21.03125,0.0,0.0,0.0,235
236,1696243610013,-0.9707031,0.12792969,0.5097656,-29.96875,86.75,-31.15625,0.0,0.0,0.0,236
237,1696243610053,-0.9033203,0.13085938,0.421875,-77.28125,123.0625,-46.375,0.0,0.0,0.0,237
238,1696243610093,-1.1191406,0.029296875,0.32617188,-90.5,144.75,-35.8125,0.0,0.0,0.0,238
239,1696243610133,-1.1923828,-0.095703125,0.21289062,-71.09375,161.21875,-18.40625,0.0,0.0,0.0,239
240,1696243610173,-0.75097656,0.038085938,0.18554688,-75.1875,156.5,-12.78125,0.0,0.0,0.0,240
241,1696243610213,-0.5703125,0.1796875,0.11425781,-125.375,148.28125,50.0,0.0,0.0,0.0,241
242,1696243610253,-0.60839844,-0.06933594,0.032226562,-78.84375,147.0,52.03125,0.0,0.0,0.0,242
243,1696243610293,-0.6142578,-0.21484375,-0.15429688,-48.84375,98.84375,40.96875,0.0,0.0,0.0,243
244,1696243610333,-0.96191406,0.30664062,0.13574219,-18.25,38.40625,14.0,0.0,0.0,0.0,244
245,1696243610373,-1.4462891,-0.18554688,0.24121094,-23.625,13.625,25.09375,0.0,0.0,0.0,245
246,1696243610413,-1.2509766,-0.22167969,-0.11425781,-27.84375,11.875,1.3125,-88.625,28.375,-100.6875,246
247,1696243610453,-1.125,-0.001953125,-0.07324219,7.5,-8.78125,-15.90625,0.0,0.0,0.0,247
248,1696243610493,-0.984375,0.15820312,-0.111328125,-9.875,-7.90625,-27.03125,0.0,0.0,0.0,248
249,1696243610533,-0.85058594,0.19335938,-0.125,-23.875,-2.84375,-15.65625,0.0,0.0,0.0,249
250,1696243610573,-0.90722656,0.036132812,-0.10449219,-7.6875,-7.4375,1.53125,0.0,0.0,0.0,250
251,1696243610613,-0.9785156,-0.038085938,-0.0009765625,-11.90625,4.125,7.96875,0.0,0.0,0.0,251
252,1696243610653,-1.0576172,-0.06347656,-0.020507812,-8.65625,14.71875,7.59375,0.0,0.0,0.0,252
253,1696243610693,-1.0019531,-0.0078125,0.0048828125,-4.5625,16.75,7.28125,0.0,0.0,0.0,253
254,1696243610733,-1.0634766,0.028320312,-0.044921875,-5.5,10.875,9.78125,0.0,0.0,0.0,254
255,1696243610773,-1.1132812,0.12109375,-0.107421875,-10.4375,-0.34375,13.75,0.0,0.0,0.0,255
256,1696243610813,-1.3203125,0.037109375,-0.2109375,-20.03125,-11.15625,16.5,0.0,0.0,0.0,256
257,1696243610853,-1.4697266,0.17382812,-0.111328125,-22.53125,-3.21875,11.0,0.0,0.0,0.0,257
258,1696243610893,-1.5205078,0.25585938,-0.07128906,-15.6875,-19.09375,17.59375,0.0,0.0,0.0,258
259,1696243610933,-1.3486328,0.23632812,0.057617188,-32.21875,-49.53125,15.84375,-89.125,32.875,-98.4375,259
260,1696243610973,-1.2607422,0.24023438,0.16503906,-45.84375,-83.0,10.28125,0.0,0.0,0.0,260
261,1696243611013,-1.2441406,0.13574219,0.3095703,-1.09375,-123.15625,1.53125,0.0,0.0,0.0,261
262,1696243611053,-1.3730469,-0.16503906,0.34179688,80.125,-125.96875,-25.625,0.0,0.0,0.0,262
263,1696243611093,-0.6845703,-0.16796875,-0.35351562,44.3125,-117.46875,-115.15625,0.0,0.0,0.0,263
264,1696243611133,-0.359375,0.09277344,-0.017578125,109.0,-141.03125,-33.25,0.0,0.0,0.0,264
265,1696243611173,-0.43359375,0.18945312,0.12011719,134.59375,-166.25,-28.84375,0.0,0.0,0.0,265
266,1696243611213,-0.4560547,0.27734375,0.13183594,107.59375,-166.46875,-7.59375,0.0,0.0,0.0,266
267,1696243611253,-0.9921875,0.17871094,0.48046875,114.875,-163.4375,18.5,0.0,0.0,0.0,267
268,1696243611293,-0.9736328,0.19824219,0.578125,76.53125,-145.3125,15.65625,0.0,0.0,0.0,268
269,1696243611333,-0.6279297,0.38476562,0.78027344,20.1875,-99.71875,20.15625,0.0,0.0,0.0,269
270,1696243611373,-0.5683594,0.27148438,0.64941406,22.8125,-63.625,13.03125,0.0,0.0,0.0,270
271,1696243611413,-0.4169922,0.17480469,0.57128906,30.03125,-53.3125,9.40625,-91.1875,26.5625,-64.375,271
272,1696243611453,-0.3720703,0.28320312,0.63671875,15.3125,-26.09375,8.75,0.0,0.0,0.0,272
273,1696243611493,-0.4345703,0.3515625,0.6347656,15.375,-13.96875,9.0,0.0,0.0,0.0,273
274,1696243611533,-0.3486328,0.29003906,0.6923828,-0.84375,-5.15625,7.78125,0.0,0.0,0.0,274
275,1696243611573,-0.36621094,0.2548828,0.734375,-27.34375,26.6875,-4.625,0.0,0.0,0.0,275
276,1696243611613,-0.49804688,0.25585938,1.1523438,-32.28125,45.0,-19.875,0.0,0.0,0.0,276
277,1696243611653,-0.66308594,0.12402344,1.0664062,16.125,26.09375,-14.875,0.0,0.0,0.0,277
278,1696243611693,-0.48339844,0.5957031,0.6201172,-38.9375,78.75,-16.15625,0.0,0.0,0.0,278
279,1696243611733,-0.9013672,0.33496094,0.7363281,-10.1875,81.3125,2.09375,0.0,0.0,0.0,279
280,1696243611773,-1.1484375,0.45703125,0.7363281,-54.875,106.15625,-19.625,0.0,0.0,0.0,280
281,1696243611813,-1.0908203,0.21191406,0.5185547,-79.78125,124.90625,-30.75,0.0,0.0,0.0,281
282,1696243611853,-0.9169922,0.119140625,0.47558594,-76.0625,142.96875,-28.96875,0.0,0.0,0.0,282
283,1696243611893,-1.1269531,0.0048828125,0.31835938,-70.4375,147.78125,-10.84375,0.0,0.0,0.0,283
284,1696243611933,-1.0087891,-0.080078125,0.20898438,-47.90625,151.5625,-19.8125,-96.625,22.0625,-82.375,284
285,1696243611973,-0.86035156,-0.10546875,0.12402344,-54.875,148.40625,-17.25,0.0,0.0,0.0,285
286,1696243612013,-0.5029297,0.072265625,0.13378906,-82.53125,154.375,0.5,0.0,0.0,0.0,286
287,1696243612053,-0.58203125,0.18164062,0.0390625,-121.875,155.46875,25.34375,0.0,0.0,0.0,287
288,1696243612093,-0.7597656,0.068359375,-0.017578125,-93.375,117.875,27.4375,0.0,0.0,0.0,288
289,1696243612133,-1.0830078,0.1796875,0.1328125,-38.5,41.9375,22.71875,0.0,0.0,0.0,289
290,1696243612173,-1.2470703,-0.07324219,0.07910156,-47.71875,14.0625,17.0625,0.0,0.0,0.0,290
291,1696243612213,-1.1347656,-0.3701172,-0.24414062,-59.9375,4.40625,-11.15625,0.0,0.0,0.0,291
292,1696243612253,-1.0410156,0.061523438,-0.0703125,-11.0625,-2.125,-16.03125,0.0,0.0,0.0,292
293,1696243612293,-0.9189453,0.140625,-0.16015625,-20.625,6.78125,-12.84375,0.0,0.0,0.0,293
294,1696243612333,-0.86621094,0.18261719,-0.13671875,-44.125,10.53125,-10.65625,0.0,0.0,0.0,294
295,1696243612373,-0.9970703,0.041015625,-0.068359375,-32.96875,10.53125,3.375,0.0,0.0,0.0,295
296,1696243612413,-1.0605469,-0.0078125,-0.08984375,-41.4375,14.4375,6.0625,-90.625,29.3125,-100.875,296
297,1696243612453,-1.0644531,0.00390625,-0.01953125,-42.3125,12.84375,0.15625,0.0,0.0,0.0,297
298,1696243612493,-1.0009766,-0.043945312,-0.06738281,-34.3125,10.34375,-2.71875,0.0,0.0,0.0,298
299,1696243612533,-0.98046875,0.016601562,-0.12792969,-33.03125,7.71875,0.625,0.0,0.0,0.0,299
300,1696243612573,-0.80371094,0.24023438,0.484375,30.15625,-145.25,-2.375,0.0,0.0,0.0,351
301,1696243612613,-0.7949219,0.18652344,0.47851562,12.21875,-122.40625,30.46875,0.0,0.0,0.0,352
302,1696243612653,-0.7783203,0.16992188,0.5078125,11.28125,-124.0,48.40625,0.0,0.0,0.0,353
303,1696243612693,-0.6464844,0.022460938,0.76171875,16.34375,-107.28125,53.3125,0.0,0.0,0.0,354
304,1696243612733,-0.58691406,0.10644531,0.69921875,26.625,-93.25,36.65625,0.0,0.0,0.0,355
305,1696243612773,-0.47460938,0.24804688,0.6298828,35.875,-73.40625,24.25,0.0,0.0,0.0,356
306,1696243612813,-0.43652344,0.3408203,0.6533203,18.125,-56.25,21.875,0.0,0.0,0.0,357
307,1696243612853,-0.40820312,0.24121094,0.75,9.21875,-37.9375,16.4375,-61.5,21.8125,-47.1875,358
308,1696243612893,-0.3466797,0.25976562,0.73535156,8.53125,-20.84375,7.59375,0.0,0.0,0.0,359
309,1696243612933,-0.32128906,0.2861328,0.7324219,1.09375,-6.21875,-0.84375,0.0,0.0,0.0,360
310,1696243612973,-0.42871094,0.34277344,0.8017578,2.4375,5.34375,-7.0625,0.0,0.0,0.0,361
311,1696243613013,-0.16894531,0.15136719,0.8496094,-3.65625,4.90625,-10.65625,0.0,0.0,0.0,362
312,1696243613053,-0.43164062,0.40625,1.1132812,4.21875,78.34375,-23.78125,0.0,0.0,0.0,363
313,1696243613093,-0.97753906,0.37890625,1.0185547,27.84375,14.78125,33.21875,0.0,0.0,0.0,364
314,1696243613133,-0.44335938,0.49804688,0.7138672,-3.96875,88.34375,1.5,0.0,0.0,0.0,365
315,1696243613173,-0.953125,0.37109375,0.78222656,-18.0,104.09375,6.125,0.0,0.0,0.0,366
316,1696243613213,-1.2802734,0.3935547,0.6074219,-64.03125,107.4375,-22.5625,0.0,0.0,0.0,367
317,1696243613253,-0.9326172,0.24902344,0.44140625,-87.09375,118.25,-26.09375,0.0,0.0,0.0,368
318,1696243613293,-1.0595703,0.1796875,0.24023438,-104.0625,133.875,-20.375,0.0,0.0,0.0,369
319,1696243613333,-1.2753906,0.040039062,0.29882812,-98.6875,142.78125,-18.09375,0.0,0.0,0.0,370
320,1696243613373,-0.9140625,0.0107421875,0.24023438,-105.53125,133.6875,-12.75,-74.125,12.0625,-54.0625,371
321,1696243613413,-0.7705078,0.020507812,0.24511719,-92.53125,131.5,5.9375,0.0,0.0,0.0,372
322,1696243613453,-0.73828125,-0.021484375,0.16894531,-116.09375,132.90625,18.75,0.0,0.0,0.0,373
323,1696243613493,-0.87402344,0.046875,0.18164062,-86.25,102.0625,36.8125,0.0,0.0,0.0,374
324,1696243613533,-0.85253906,-0.0546875,0.15625,-78.625,79.96875,32.5,0.0,0.0,0.0,375
325,1696243613573,-1.0244141,-0.055664062,0.046875,-79.59375,55.875,20.15625,0.0,0.0,0.0,376
326,1696243613613,-1.1015625,-0.016601562,0.14550781,-46.4375,22.125,5.5,0.0,0.0,0.0,377
327,1696243613653,-1.0966797,0.056640625,0.19042969,-34.375,-2.0625,4.15625,0.0,0.0,0.0,378
328,1696243613693,-1.0390625,0.08984375,0.0390625,-49.25,-1.875,5.875,0.0,0.0,0.0,379
329,1696243613733,-0.9951172,-0.013671875,-0.0546875,-38.21875,12.53125,-0.90625,0.0,0.0,0.0,380
330,1696243613773,-1.0126953,0.046875,0.00390625,-30.8125,17.21875,-5.78125,0.0,0.0,0.0,381
331,1696243613813,-0.953125,0.17089844,0.06640625,-33.25,15.875,-1.25,0.0,0.0,0.0,382
332,1696243613853,-0.96191406,0.078125,0.03125,-27.65625,16.75,5.4375,-82.9375,0.0625,-69.1875,383
333,1696243613893,-0.9794922,0.0068359375,0.0029296875,-33.5,20.03125,2.40625,0.0,0.0,0.0,384
334,1696243613933,-0.9111328,0.07128906,-0.009765625,-28.75,25.40625,3.0,0.0,0.0,0.0,385
335,1696243613973,-0.8876953,0.06347656,0.016601562,-15.875,23.34375,3.8125,0.0,0.0,0.0,386
336,1696243614013,-0.9140625,0.051757812,-0.024414062,-19.46875,32.90625,4.46875,0.0,0.0,0.0,387
337,1696243614053,-1.0087891,0.11328125,-0.10253906,-23.25,41.53125,4.0,0.0,0.0,0.0,388
338,1696243614093,-1.2714844,-0.009765625,0.016601562,12.875,24.625,8.9375,0.0,0.0,0.0,389
339,1696243614133,-1.2763672,0.045898438,0.018554688,-29.65625,22.78125,1.125,0.0,0.0,0.0,390
340,1696243614173,-1.46875,0.0068359375,-0.1484375,-0.5625,11.5625,8.0625,0.0,0.0,0.0,391
341,1696243614213,-1.6708984,0.052734375,-0.16113281,4.46875,-22.75,5.34375,0.0,0.0,0.0,392
342,1696243614253,-1.3427734,0.4326172,-0.0048828125,-48.34375,-51.4375,-8.03125,0.0,0.0,0.0,393
343,1696243614293,-1.3125,0.39453125,0.42871094,-34.125,-82.0625,9.25,0.0,0.0,0.0,394
344,1696243614333,-1.2607422,-0.029296875,0.111328125,47.84375,-137.0625,5.875,0.0,0.0,0.0,395
345,1696243614373,-1.3173828,-0.4794922,-0.072265625,65.96875,-112.15625,-80.78125,-84.875,-0.5625,-70.6875,396
346,1696243614413,-0.67578125,-0.024414062,0.17480469,106.09375,-130.71875,-79.1875,0.0,0.0,0.0,397
347,1696243614453,-0.5449219,0.24609375,0.25585938,95.65625,-157.15625,-34.03125,0.0,0.0,0.0,398
348,1696243614493,-0.4638672,0.051757812,-0.14746094,111.9375,-159.28125,-8.78125,0.0,0.0,0.0,399
349,1696243614533,-0.48535156,0.041992188,0.16699219,114.375,-170.8125,14.59375,0.0,0.0,0.0,400
350,1696243614573,-0.7832031,0.18652344,0.46289062,97.40625,-159.21875,34.8125,0.0,0.0,0.0,401
351,1696243614613,-1.0458984,0.26171875,0.60839844,48.65625,-133.15625,24.6875,0.0,0.0,0.0,402
352,1696243614653,-0.7480469,0.36621094,0.7363281,16.1875,-103.9375,10.8125,0.0,0.0,0.0,403
353,1696243614693,-0.48632812,0.068359375,0.63671875,45.46875,-74.25,18.28125,0.0,0.0,0.0,404
354,1696243614733,-0.51171875,0.26367188,0.6201172,32.28125,-37.03125,3.625,0.0,0.0,0.0,405
355,1696243614773,-0.40625,0.3046875,0.5908203,29.53125,-29.34375,3.875,0.0,0.0,0.0,406
356,1696243614813,-0.39160156,0.2783203,0.67871094,17.5625,-18.46875,-2.96875,0.0,0.0,0.0,407
357,1696243614853,-0.4765625,0.23535156,0.58496094,9.28125,-13.71875,-6.75,-61.375,8.125,-38.75,408
358,1696243614893,-0.4404297,0.3232422,0.72753906,-20.8125,2.46875,-12.6875,0.0,0.0,0.0,409
359,1696243614933,-0.5175781,0.2578125,0.85253906,-20.03125,4.0,-18.34375,0.0,0.0,0.0,410
360,1696243614973,-0.37109375,0.059570312,0.890625,-7.875,27.375,-26.96875,0.0,0.0,0.0,411
361,1696243615013,-0.37402344,0.14257812,0.93652344,-10.5,85.59375,-37.875,0.0,0.0,0.0,412
362,1696243615053,-1.359375,0.5732422,1.0664062,3.71875,29.4375,-5.90625,0.0,0.0,0.0,413
363,1696243615093,-0.43359375,0.37695312,0.79296875,3.84375,59.90625,-18.34375,0.0,0.0,0.0,414
364,1696243615133,-1.0009766,0.3466797,0.66503906,-40.71875,85.15625,-28.0625,0.0,0.0,0.0,415
365,1696243615173,-1.2597656,0.25976562,0.6582031,-59.3125,101.9375,-39.53125,0.0,0.0,0.0,416
366,1696243615213,-0.8154297,0.16308594,0.3779297,-76.0,128.1875,-20.65625,0.0,0.0,0.0,417
367,1696243615253,-1.2099609,-0.017578125,0.18945312,-93.03125,160.3125,-9.875,0.0,0.0,0.0,418
368,1696243615293,-1.1474609,-0.16601562,0.28808594,-77.15625,151.21875,-11.34375,0.0,0.0,0.0,419
369,1696243615333,-0.6123047,0.053710938,0.27929688,-108.46875,162.75,-3.9375,0.0,0.0,0.0,420
370,1696243615373,-0.72753906,-0.0048828125,0.033203125,-106.75,152.78125,45.375,-79.0625,-4.1875,-55.875,421
371,1696243615413,-0.78808594,-0.12988281,-0.005859375,-74.53125,142.71875,45.84375,0.0,0.0,0.0,422
372,1696243615453,-0.74316406,0.12011719,0.07910156,-15.9375,92.4375,19.6875,0.0,0.0,0.0,423
373,1696243615493,-0.8808594,0.20800781,0.34765625,-35.8125,42.375,11.375,0.0,0.0,0.0,424
374,1696243615533,-1.2939453,-0.060546875,0.16210938,-36.0,9.78125,18.28125,0.0,0.0,0.0,425
375,1696243615573,-1.1142578,-0.28710938,-0.0126953125,-41.25,-12.78125,2.53125,0.0,0.0,0.0,426
376,1696243615613,-1.0761719,-0.07714844,-0.10839844,-22.34375,-14.1875,-14.375,0.0,0.0,0.0,427
377,1696243615653,-0.8691406,0.013671875,-0.0625,2.875,12.65625,-16.46875,0.0,0.0,0.0,428
378,1696243615693,-0.90234375,0.20214844,-0.09375,-25.75,15.9375,-7.1875,0.0,0.0,0.0,429
379,1696243615733,-0.9638672,0.091796875,-0.016601562,0.25,26.15625,13.09375,0.0,0.0,0.0,430
380,1696243615773,-1.0244141,0.0546875,0.0078125,-7.3125,25.59375,11.75,0.0,0.0,0.0,431
381,1696243615813,-0.99316406,-0.0625,-0.00390625,-12.28125,23.28125,13.75,0.0,0.0,0.0,432
382,1696243615853,-1.0439453,-0.013671875,-0.059570312,-1.59375,20.84375,12.34375,-85.625,-4.9375,-69.375,433
383,1696243615893,-1.0322266,-0.00390625,-0.15527344,-1.78125,20.65625,11.25,0.0,0.0,0.0,434
384,1696243615933,-1.1230469,0.12109375,-0.14453125,-7.625,15.65625,7.53125,0.0,0.0,0.0,435
385,1696243615973,-1.2822266,0.16699219,-0.15625,-25.21875,12.90625,3.3125,0.0,0.0,0.0,436
386,1696243616013,-1.5136719,0.11230469,-0.07910156,-12.03125,6.5625,15.09375,0.0,0.0,0.0,437
387,1696243616053,-1.5478516,0.07910156,-0.068359375,-5.6875,-28.65625,18.6875,0.0,0.0,0.0,438
388,1696243616093,-1.3388672,0.20117188,0.034179688,-11.78125,-62.71875,9.46875,0.0,0.0,0.0,439
389,1696243616133,-1.2890625,0.2421875,0.18554688,-21.0,-94.59375,13.21875,0.0,0.0,0.0,440
390,1696243616173,-1.3095703,0.14257812,0.53222656,39.25,-132.90625,4.0,0.0,0.0,0.0,441
391,1696243616213,-1.2617188,-0.21289062,-0.25585938,40.78125,-141.53125,-48.8125,0.0,0.0,0.0,442
392,1696243616253,-0.46289062,0.12695312,-0.119140625,77.875,-135.0,-76.9375,0.0,0.0,0.0,443
393,1696243616293,-0.5439453,0.076171875,0.111328125,86.5,-134.6875,-40.125,0.0,0.0,0.0,444
394,1696243616333,-0.5488281,-0.0068359375,-0.0048828125,99.3125,-160.9375,-22.875,0.0,0.0,0.0,445
395,1696243616373,-0.6953125,0.17480469,0.23144531,111.28125,-148.40625,5.09375,-80.375,2.5625,-53.0,446
396,1696243616413,-0.984375,0.22265625,0.5185547,79.90625,-145.5625,5.5625,0.0,0.0,0.0,447
397,1696243616453,-0.8173828,0.16894531,0.5332031,60.84375,-129.5,-2.3125,0.0,0.0,0.0,448
398,1696243616493,-0.7626953,0.234375,0.6503906,46.9375,-102.9375,-4.9375,0.0,0.0,0.0,449
399,1696243616533,-0.5683594,0.23339844,0.62402344,45.78125,-80.78125,-3.03125,0.0,0.0,0.0,450
400,1696243616573,-0.46679688,0.20214844,0.5175781,29.34375,-63.03125,-7.5625,0.0,0.0,0.0,451
401,1696243616613,-0.43164062,0.22265625,0.546875,30.46875,-50.8125,4.65625,0.0,0.0,0.0,452
402,1696243616653,-0.36621094,0.31152344,0.6582031,10.75,-32.625,14.5625,0.0,0.0,0.0,453
403,1696243616693,-0.47753906,0.25195312,0.78515625,11.59375,-12.78125,19.6875,0.0,0.0,0.0,454
404,1696243616733,-0.5048828,0.23144531,0.7441406,-12.4375,7.84375,-2.84375,0.0,0.0,0.0,455
405,1696243616773,-0.44726562,0.27929688,0.83691406,-9.59375,26.15625,-16.65625,0.0,0.0,0.0,456
406,1696243616813,-0.7001953,0.23535156,1.2910156,-12.4375,36.28125,-13.71875,0.0,0.0,0.0,457
407,1696243616853,-0.63964844,0.56152344,0.1328125,18.375,18.21875,-0.65625,-63.75,13.375,-42.8125,458
408,1696243616893,-0.8652344,0.171875,0.9433594,2.4375,58.4375,1.1875,0.0,0.0,0.0,459
409,1696243616933,-0.8417969,0.4140625,0.81933594,-21.3125,73.03125,-7.4375,0.0,0.0,0.0,460
410,1696243616973,-1.0380859,0.22851562,0.68652344,-0.375,73.4375,-14.375,0.0,0.0,0.0,461
411,1696243617013,-1.0,0.19824219,0.57714844,-32.65625,105.1875,-39.03125,0.0,0.0,0.0,462
412,1696243617053,-0.95214844,0.20410156,0.50683594,-68.59375,137.21875,-48.8125,0.0,0.0,0.0,463
413,1696243617093,-1.0830078,0.10058594,0.35058594,-94.0625,173.25,-42.09375,0.0,0.0,0.0,464
414,1696243617133,-1.0869141,-0.078125,0.20605469,-77.21875,178.78125,-29.34375,0.0,0.0,0.0,465
415,1696243617173,-0.6542969,-0.00390625,0.22851562,-73.375,176.59375,-10.0,0.0,0.0,0.0,466
416,1696243617213,-0.5234375,-0.068359375,0.123046875,-114.4375,182.03125,23.875,0.0,0.0,0.0,467
417,1696243617253,-0.49902344,-0.22558594,-0.001953125,-74.34375,197.03125,43.125,0.0,0.0,0.0,468
418,1696243617293,-0.7441406,0.24609375,0.03125,-19.84375,110.1875,22.46875,0.0,0.0,0.0,469
419,1696243617333,-1.2841797,0.58691406,0.3876953,3.28125,22.0,28.53125,0.0,0.0,0.0,470
420,1696243617373,-1.5058594,-0.028320312,0.21777344,-68.0625,-4.5625,12.65625,-91.0625,2.3125,-79.375,471
421,1696243617413,-1.0644531,-0.5859375,-0.5371094,-87.40625,2.21875,4.125,0.0,0.0,0.0,472
422,1696243617453,-0.9765625,-0.060546875,-0.23925781,57.8125,-5.28125,-15.96875,0.0,0.0,0.0,473
423,1696243617493,-0.8574219,0.35058594,-0.0390625,14.40625,20.84375,-29.15625,0.0,0.0,0.0,474
424,1696243617533,-0.8330078,0.3076172,-0.056640625,-36.25,13.5625,-10.84375,0.0,0.0,0.0,475
425,1696243617573,-0.9638672,0.06347656,-0.091796875,-28.6875,7.53125,11.96875,0.0,0.0,0.0,476
426,1696243617613,-1.0810547,-0.1640625,-0.16503906,-18.4375,20.15625,10.46875,0.0,0.0,0.0,477
427,1696243617653,-1.0107422,-0.047851562,-0.078125,4.03125,29.4375,3.1875,0.0,0.0,0.0,478
428,1696243617693,-1.0117188,0.043945312,-0.0546875,6.78125,28.09375,3.3125,0.0,0.0,0.0,479
429,1696243617733,-0.96484375,0.06738281,-0.083984375,-7.4375,26.09375,4.53125,0.0,0.0,0.0,480
430,1696243617773,-1.0332031,0.056640625,-0.08984375,-2.375,23.875,9.96875,0.0,0.0,0.0,481
431,1696243617813,-1.0722656,0.056640625,-0.047851562,-13.90625,22.65625,7.53125,0.0,0.0,0.0,482
432,1696243617853,-1.0263672,0.041015625,0.03125,-28.875,16.25,2.09375,-86.25,0.0625,-82.5625,483
433,1696243617893,-1.1962891,-0.037109375,-0.001953125,-23.5,-1.03125,8.03125,0.0,0.0,0.0,484
434,1696243617933,-1.2490234,-0.13574219,-0.078125,-13.78125,-20.0625,-1.5625,0.0,0.0,0.0,485
435,1696243617973,-1.1796875,0.103515625,-0.15625,4.46875,-54.1875,-6.5625,0.0,0.0,0.0,486
436,1696243618013,-1.0957031,0.3046875,0.015625,10.3125,-88.71875,-1.8125,0.0,0.0,0.0,487
437,1696243618053,-1.0419922,0.34472656,-0.0009765625,3.125,-122.84375,-2.96875,0.0,0.0,0.0,488
438,1696243618093,-1.1152344,0.11230469,-0.25195312,-35.78125,-127.125,-7.71875,0.0,0.0,0.0,489
439,1696243618133,-1.0712891,-0.01953125,0.076171875,-97.78125,22.46875,7.53125,0.0,0.0,0.0,561
440,1696243618173,-1.0283203,-0.09277344,-0.013671875,-111.03125,17.90625,5.75,0.0,0.0,0.0,562
441,1696243618213,-1.0146484,-0.072265625,-0.033203125,-96.1875,0.21875,4.34375,0.0,0.0,0.0,563
442,1696243618253,-1.1708984,-0.030273438,0.01171875,-70.1875,-20.65625,2.84375,0.0,0.0,0.0,564
443,1696243618293,-1.1611328,-0.030273438,0.0009765625,-67.03125,-38.5,3.75,0.0,0.0,0.0,565
444,1696243618333,-1.1328125,0.12792969,0.03125,-70.75,-58.21875,-1.4375,0.0,0.0,0.0,566
445,1696243618373,-1.0986328,0.29296875,0.12988281,-84.21875,-92.75,-5.71875,0.0,0.0,0.0,567
446,1696243618413,-1.0693359,0.54589844,0.078125,-98.4375,-119.96875,1.53125,0.0,0.0,0.0,568
447,1696243618453,-1.1064453,0.453125,0.22265625,-89.28125,-129.375,24.8125,0.0,0.0,0.0,569
448,1696243618493,-1.2197266,0.19140625,-0.037109375,-98.5,-120.78125,28.9375,0.0,0.0,0.0,570
449,1696243618533,-1.0351562,-0.1953125,0.11230469,-13.78125,-120.46875,23.9375,-90.4375,-1.3125,-99.625,571
450,1696243618573,-0.93359375,0.13378906,0.328125,7.3125,-115.875,9.96875,0.0,0.0,0.0,572
451,1696243618613,-0.8417969,0.10839844,0.64746094,-4.6875,-122.40625,30.40625,0.0,0.0,0.0,573
452,1696243618653,-0.7294922,0.15722656,0.5126953,7.4375,-104.96875,48.25,0.0,0.0,0.0,574
453,1696243618693,-0.765625,0.11230469,0.63964844,25.15625,-103.0,53.90625,0.0,0.0,0.0,575
454,1696243618733,-0.7548828,0.17089844,0.6738281,24.0,-106.59375,54.53125,0.0,0.0,0.0,576
455,1696243618773,-0.65625,0.1640625,0.71777344,19.09375,-105.21875,29.9375,0.0,0.0,0.0,577
456,1696243618813,-0.50878906,0.23632812,0.75,45.21875,-94.34375,30.28125,0.0,0.0,0.0,578
457,1696243618853,-0.38867188,0.35253906,0.734375,45.78125,-77.75,34.1875,0.0,0.0,0.0,579
458,1696243618893,-0.39257812,0.41015625,0.6503906,40.59375,-58.5625,41.15625,0.0,0.0,0.0,580
459,1696243618933,-0.37695312,0.33496094,0.7158203,28.3125,-37.625,35.1875,0.0,0.0,0.0,581
460,1696243618973,-0.33691406,0.41503906,0.72753906,27.84375,-28.84375,21.875,0.0,0.0,0.0,582
461,1696243619013,-0.2705078,0.3984375,0.7470703,22.9375,-15.0625,16.6875,-95.5625,10.8125,-57.375,583
462,1696243619053,-0.31054688,0.39941406,0.78222656,8.53125,2.9375,8.6875,0.0,0.0,0.0,584
463,1696243619093,-0.3046875,0.39648438,0.7363281,9.75,9.65625,-0.34375,0.0,0.0,0.0,585
464,1696243619133,-0.3486328,0.45507812,0.734375,0.71875,19.1875,-8.84375,0.0,0.0,0.0,586
465,1696243619173,-0.30664062,0.4033203,0.7558594,0.1875,24.375,-17.25,0.0,0.0,0.0,587
466,1696243619213,-0.5732422,0.484375,0.9042969,-6.71875,29.0625,-20.90625,0.0,0.0,0.0,588
467,1696243619253,-0.5205078,0.5107422,1.0195312,23.5625,-35.8125,-10.46875,0.0,0.0,0.0,589
468,1696243619293,0.12792969,0.49316406,0.7734375,-1.21875,38.59375,-7.4375,0.0,0.0,0.0,590
469,1696243619333,-0.4482422,0.53808594,0.9375,-23.375,36.21875,23.28125,0.0,0.0,0.0,591
470,1696243619373,-0.49902344,0.53515625,0.83984375,7.375,26.75,16.6875,0.0,0.0,0.0,592
471,1696243619413,-0.6298828,0.49121094,0.73535156,-3.71875,35.53125,-15.375,0.0,0.0,0.0,593
472,1696243619453,-0.66308594,0.49609375,0.7294922,-8.25,57.6875,-10.40625,0.0,0.0,0.0,594
473,1696243619493,-0.80566406,0.51464844,0.7626953,-38.09375,62.875,-22.6875,0.0,0.0,0.0,595
474,1696243619533,-0.9433594,0.21484375,0.7011719,-75.875,94.375,-40.8125,-83.875,-1.625,-61.5625,596
475,1696243619573,-0.95703125,0.15625,0.6015625,-70.8125,114.46875,-49.90625,0.0,0.0,0.0,597
476,1696243619613,-1.0947266,0.18359375,0.50097656,-72.625,137.15625,-52.03125,0.0,0.0,0.0,598
477,1696243619653,-1.2294922,0.0625,0.3310547,-71.03125,157.1875,-60.28125,0.0,0.0,0.0,599
478,1696243619693,-0.9003906,0.119140625,0.2705078,-99.0625,163.15625,-48.125,0.0,0.0,0.0,600
479,1696243619733,-0.8027344,0.03515625,0.19921875,-89.71875,164.09375,-6.375,0.0,0.0,0.0,601
480,1696243619773,-0.6738281,-0.125,0.20214844,-93.25,162.9375,-7.125,0.0,0.0,0.0,602
481,1696243619813,-0.5253906,0.064453125,0.10058594,-74.875,148.8125,14.71875,0.0,0.0,0.0,603
482,1696243619853,-0.8330078,0.27539062,0.2529297,-56.75,121.125,33.34375,0.0,0.0,0.0,604
483,1696243619893,-1.1113281,0.060546875,-0.045898438,-32.09375,69.71875,28.46875,0.0,0.0,0.0,605
484,1696243619933,-1.1142578,-0.095703125,-0.09277344,-26.3125,53.96875,4.78125,0.0,0.0,0.0,606
485,1696243619973,-1.2978516,0.046875,0.20117188,-3.84375,4.78125,-1.375,0.0,0.0,0.0,607
486,1696243620013,-1.1015625,-0.12695312,-0.09375,-43.28125,-12.90625,-14.25,-77.375,-9.875,-100.25,608
487,1696243620053,-0.9501953,0.13183594,-0.28515625,-22.65625,-14.625,-6.4375,0.0,0.0,0.0,609
488,1696243620093,-0.88671875,0.025390625,-0.13964844,-2.5,-3.75,-7.90625,0.0,0.0,0.0,610
489,1696243620133,-0.97558594,-0.038085938,-0.08300781,-20.1875,8.03125,-13.90625,0.0,0.0,0.0,611
490,1696243620173,-1.0908203,0.052734375,0.0126953125,-12.375,3.3125,-8.78125,0.0,0.0,0.0,612
491,1696243620213,-1.0400391,0.07714844,-0.0107421875,-33.09375,3.9375,-7.84375,0.0,0.0,0.0,613
492,1696243620253,-1.0263672,-0.07910156,-0.08984375,-27.84375,2.875,-10.53125,0.0,0.0,0.0,614
493,1696243620293,-1.0175781,0.064453125,-0.0029296875,-43.15625,1.3125,-17.9375,0.0,0.0,0.0,615
494,1696243620333,-0.9873047,0.01171875,-0.034179688,-26.625,-2.25,-12.6875,0.0,0.0,0.0,616
495,1696243620373,-0.9375,-0.0068359375,-0.046875,-9.8125,-6.5,-0.15625,0.0,0.0,0.0,617
496,1696243620413,-1.0068359,-0.034179688,-0.018554688,-8.125,-4.625,2.71875,0.0,0.0,0.0,618
497,1696243620453,-0.99121094,-0.046875,-0.041015625,-7.875,3.5625,1.53125,0.0,0.0,0.0,619
498,1696243620493,-0.98046875,-0.043945312,-0.037109375,-6.40625,7.65625,3.75,0.0,0.0,0.0,620
499,1696243620533,-0.9951172,-0.048828125,-0.11328125,-4.8125,10.40625,4.84375,-72.875,-8.9375,-101.75,621
500,1696243620573,-1.0039062,0.05859375,-0.013671875,-1.96875,9.90625,8.5625,0.0,0.0,0.0,622
501,1696243620613,-0.99121094,0.032226562,-0.0625,-2.4375,9.96875,16.5,0.0,0.0,0.0,623
502,1696243620653,-0.9667969,-0.018554688,-0.080078125,-7.3125,17.78125,13.15625,0.0,0.0,0.0,624
503,1696243620693,-1.1005859,-0.043945312,-0.12597656,-3.25,18.28125,14.125,0.0,0.0,0.0,625
504,1696243620733,-1.0341797,0.12597656,-0.045898438,-3.28125,17.96875,4.84375,0.0,0.0,0.0,626
505,1696243620773,-1.0517578,0.1171875,-0.099609375,-32.53125,17.21875,8.4375,0.0,0.0,0.0,627
506,1696243620813,-1.2519531,-0.08886719,-0.12792969,-13.6875,10.8125,16.875,0.0,0.0,0.0,628
507,1696243620853,-1.3945312,0.0234375,-0.07128906,-9.40625,6.90625,12.34375,0.0,0.0,0.0,629
508,1696243620893,-1.328125,0.12207031,-0.09277344,-9.40625,-7.4375,6.375,0.0,0.0,0.0,630
509,1696243620933,-1.2539062,0.14453125,-0.07324219,-9.78125,-34.40625,13.5625,0.0,0.0,0.0,631
510,1696243620973,-1.1269531,0.17089844,0.0126953125,-13.3125,-64.5,13.4375,0.0,0.0,0.0,632
511,1696243621013,-1.03125,0.111328125,0.10839844,-7.75,-88.53125,11.6875,-78.75,0.625,-98.625,633
512,1696243621053,-1.0185547,0.017578125,0.08203125,18.25,-105.15625,-2.0625,0.0,0.0,0.0,634
513,1696243621093,-1.2636719,-0.123046875,0.09472656,46.25,-87.4375,-41.59375,0.0,0.0,0.0,635
514,1696243621133,-1.0566406,0.06542969,-0.076171875,63.15625,-95.9375,-90.3125,0.0,0.0,0.0,636
515,1696243621173,-0.90625,0.16308594,0.25390625,108.34375,-140.65625,-67.46875,0.0,0.0,0.0,637
516,1696243621213,-0.8642578,0.08300781,0.27539062,72.375,-111.96875,-48.125,0.0,0.0,0.0,638
517,1696243621253,-0.8828125,-0.05859375,0.23828125,42.3125,-115.875,-18.21875,0.0,0.0,0.0,639
518,1696243621293,-0.71484375,0.07324219,0.26757812,78.5,-108.4375,-9.375,0.0,0.0,0.0,640
519,1696243621333,-0.8105469,0.08300781,0.30859375,103.75,-109.84375,6.3125,0.0,0.0,0.0,641
520,1696243621373,-0.703125,-0.00390625,0.46679688,97.03125,-112.03125,14.125,0.0,0.0,0.0,642
521,1696243621413,-0.56347656,0.17773438,0.45996094,80.9375,-97.625,7.28125,0.0,0.0,0.0,643
522,1696243621453,-0.73828125,0.28125,0.59765625,75.9375,-81.875,23.28125,0.0,0.0,0.0,644
523,1696243621493,-0.6894531,0.13964844,0.6064453,37.78125,-59.84375,7.84375,0.0,0.0,0.0,645
524,1696243621533,-0.578125,0.2763672,0.5986328,32.59375,-43.9375,9.1875,-82.1875,-2.5,-56.4375,646
525,1696243621573,-0.5576172,0.2578125,0.63964844,21.65625,-23.59375,8.4375,0.0,0.0,0.0,647
526,1696243621613,-0.54003906,0.31835938,0.65625,5.75,-7.78125,4.125,0.0,0.0,0.0,648
527,1696243621653,-0.59277344,0.2529297,0.6689453,0.90625,-4.5,4.65625,0.0,0.0,0.0,649
528,1696243621693,-0.6015625,0.234375,0.7236328,-5.875,-1.75,-1.375,0.0,0.0,0.0,650
529,1696243621733,-0.59375,0.27539062,0.8173828,-8.96875,-5.90625,-8.875,0.0,0.0,0.0,651
530,1696243621773,-0.43847656,0.15625,0.77441406,3.46875,4.78125,-15.40625,0.0,0.0,0.0,652
531,1696243621813,-0.4501953,0.19335938,0.73535156,3.28125,28.34375,-19.09375,0.0,0.0,0.0,653
532,1696243621853,-0.7685547,0.33398438,0.9003906,-2.5,25.28125,-11.8125,0.0,0.0,0.0,654
533,1696243621893,-0.5126953,0.27929688,0.75,10.5625,22.3125,0.25,0.0,0.0,0.0,655
534,1696243621933,-0.52246094,0.36914062,0.6855469,1.21875,41.9375,14.4375,0.0,0.0,0.0,656
535,1696243621973,-0.85253906,0.33007812,0.76464844,11.90625,36.9375,21.1875,0.0,0.0,0.0,657
536,1696243622013,-1.1777344,0.20800781,0.67578125,35.65625,45.84375,5.625,-75.4375,0.9375,-57.0625,658
537,1696243622053,-1.0908203,0.1640625,0.5957031,-35.21875,65.03125,-24.34375,0.0,0.0,0.0,659
538,1696243622093,-0.8339844,0.22949219,0.59765625,-36.375,76.5,-42.59375,0.0,0.0,0.0,660
539,1696243622133,-0.9609375,0.18945312,0.5107422,-55.0,104.21875,-27.875,0.0,0.0,0.0,661
540,1696243622173,-1.078125,0.10839844,0.39257812,-64.9375,119.34375,-33.1875,0.0,0.0,0.0,662
541,1696243622213,-0.9033203,0.080078125,0.32617188,-74.09375,134.25,-30.4375,0.0,0.0,0.0,663
542,1696243622253,-0.9638672,-0.07324219,0.19921875,-58.15625,137.59375,-9.0,0.0,0.0,0.0,664
543,1696243622293,-0.7480469,-0.03515625,0.2998047,-62.75,128.0625,-17.6875,0.0,0.0,0.0,665
544,1696243622333,-0.58984375,0.0859375,0.16308594,-83.1875,117.40625,2.03125,0.0,0.0,0.0,666
545,1696243622373,-0.7841797,0.083984375,0.115234375,-85.875,100.65625,14.3125,0.0,0.0,0.0,667
546,1696243622413,-1.0244141,0.1015625,0.041992188,-50.71875,47.03125,33.59375,0.0,0.0,0.0,668
547,1696243622453,-1.0478516,0.20898438,0.20996094,-43.34375,15.21875,29.1875,0.0,0.0,0.0,669
548,1696243622493,-1.2333984,-0.17675781,0.0625,-36.75,6.6875,20.53125,0.0,0.0,0.0,670
549,1696243622533,-1.0253906,-0.14160156,0.005859375,-20.03125,-5.21875,-7.96875,-84.625,-6.6875,-90.5,671
550,1696243622573,-1.0097656,-0.01953125,0.009765625,-8.96875,9.34375,-15.65625,0.0,0.0,0.0,672
551,1696243622613,-0.96875,0.1328125,0.040039062,-6.59375,16.8125,-13.34375,0.0,0.0,0.0,673
552,1696243622653,-0.92578125,0.13476562,0.025390625,-18.0,15.28125,-6.875,0.0,0.0,0.0,674
553,1696243622693,-0.9746094,-0.001953125,0.0234375,-14.34375,13.625,-0.40625,0.0,0.0,0.0,675
554,1696243622733,-1.0166016,-0.044921875,0.04296875,-6.84375,17.28125,-0.40625,0.0,0.0,0.0,676
555,1696243622773,-1.0205078,0.0068359375,0.061523438,-8.53125,13.75,0.75,0.0,0.0,0.0,677
556,1696243622813,-0.99316406,0.068359375,0.020507812,-4.21875,9.53125,7.53125,0.0,0.0,0.0,678
557,1696243622853,-0.98535156,-0.0107421875,-0.028320312,-6.96875,10.65625,8.03125,0.0,0.0,0.0,679
558,1696243622893,-1.0390625,0.0,-0.091796875,-8.4375,21.625,9.34375,0.0,0.0,0.0,680
559,1696243622933,-1.0283203,0.06933594,-0.0107421875,-20.03125,13.875,13.625,0.0,0.0,0.0,681
560,1696243622973,-1.0302734,0.053710938,-0.20800781,14.78125,5.03125,12.78125,0.0,0.0,0.0,682
561,1696243623013,-1.0253906,0.09863281,-0.064453125,-16.78125,19.1875,6.5625,-81.125,-0.6875,-90.375,683
562,1696243623053,-1.0849609,-0.10644531,0.015625,3.96875,22.125,15.28125,0.0,0.0,0.0,684
563,1696243623093,-1.2519531,-0.14941406,-0.12695312,3.46875,22.46875,9.53125,0.0,0.0,0.0,685
564,1696243623133,-1.3271484,0.34960938,-0.16113281,-25.03125,22.125,-1.4375,0.0,0.0,0.0,686
565,1696243623173,-1.4003906,0.21875,-0.020507812,6.09375,-2.65625,18.5,0.0,0.0,0.0,687
566,1696243623213,-1.3554688,0.21582031,-0.115234375,-7.9375,-21.40625,19.96875,0.0,0.0,0.0,688
567,1696243623253,-1.2363281,0.23828125,0.0390625,-3.1875,-44.15625,23.28125,0.0,0.0,0.0,689
568,1696243623293,-1.1796875,0.11621094,0.22265625,0.84375,-72.4375,24.125,0.0,0.0,0.0,690
569,1696243623333,-1.1855469,-0.14257812,0.28320312,5.1875,-100.03125,5.09375,0.0,0.0,0.0,691
570,1696243623373,-1.1660156,-0.061523438,-0.08300781,60.59375,-127.40625,-46.78125,0.0,0.0,0.0,692
571,1696243623413,-0.6113281,0.1875,-0.12890625,54.625,-105.3125,-82.25,0.0,0.0,0.0,693
572,1696243623453,-0.5576172,0.1953125,0.07519531,98.9375,-131.15625,-27.6875,0.0,0.0,0.0,694
573,1696243623493,-0.6777344,0.09082031,0.13476562,100.15625,-129.375,-19.5625,0.0,0.0,0.0,695
574,1696243623533,-0.79003906,0.14355469,0.12695312,53.96875,-139.375,-5.09375,-90.3125,1.8125,-75.8125,696
575,1696243623573,-0.7373047,0.08203125,0.33398438,100.03125,-130.84375,7.59375,0.0,0.0,0.0,697
576,1696243623613,-0.85058594,0.09472656,0.4267578,121.8125,-120.875,14.96875,0.0,0.0,0.0,698
577,1696243623653,-0.95996094,0.46191406,0.5966797,41.0,-86.15625,12.84375,0.0,0.0,0.0,699
578,1696243623693,-0.7441406,0.3076172,0.6220703,21.71875,-78.34375,-1.125,0.0,0.0,0.0,700
579,1696243623733,-0.7128906,0.20800781,0.59472656,32.03125,-70.53125,-8.34375,0.0,0.0,0.0,701
580,1696243623773,-0.6503906,0.32128906,0.60058594,32.96875,-69.3125,-5.59375,0.0,0.0,0.0,702
581,1696243623813,-0.6484375,0.28710938,0.65625,28.6875,-86.78125,0.875,0.0,0.0,0.0,703
582,1696243623853,-0.47070312,0.26171875,0.72265625,28.9375,-64.6875,6.5,0.0,0.0,0.0,704
583,1696243623893,-0.58496094,0.35839844,0.6484375,27.59375,-45.21875,5.9375,0.0,0.0,0.0,705
584,1696243623933,-0.5107422,0.3642578,0.7363281,4.6875,-27.03125,3.5,0.0,0.0,0.0,706
585,1696243623973,-0.45410156,0.31347656,0.6640625,-8.71875,-12.5,8.25,0.0,0.0,0.0,707
586,1696243624013,-0.4248047,0.3720703,0.72753906,-21.125,-0.09375,8.75,-77.875,11.3125,-49.125,708
587,1696243624053,-0.45214844,0.21289062,0.9121094,-8.25,14.3125,7.34375,0.0,0.0,0.0,709
588,1696243624093,-0.4736328,0.19433594,0.6855469,-27.78125,16.6875,-17.0,0.0,0.0,0.0,710
589,1696243624133,-0.34277344,0.20800781,0.67089844,-28.3125,36.09375,-24.46875,0.0,0.0,0.0,711
590,1696243624173,-0.45214844,0.21972656,0.8417969,-33.09375,77.96875,-33.5,0.0,0.0,0.0,712
591,1696243624213,-1.5517578,0.296875,1.5107422,-23.5,23.09375,-13.96875,0.0,0.0,0.0,713
592,1696243624253,-0.09277344,0.29882812,0.29882812,47.0625,-2.25,-11.6875,0.0,0.0,0.0,714
593,1696243624293,-0.6640625,0.3544922,0.92871094,8.96875,85.46875,9.40625,0.0,0.0,0.0,715
594,1696243624333,-0.875,0.21875,0.50097656,-30.8125,51.90625,-4.3125,0.0,0.0,0.0,716
595,1696243624373,-0.9824219,0.25976562,0.8408203,5.375,71.1875,-20.3125,0.0,0.0,0.0,717
596,1696243624413,-0.8359375,0.18359375,0.58203125,-50.46875,95.71875,-28.25,0.0,0.0,0.0,718
597,1696243624453,-1.0488281,0.28027344,0.64941406,-51.9375,116.40625,-30.6875,0.0,0.0,0.0,719
598,1696243624493,-1.1171875,-0.043945312,0.33007812,-74.03125,111.84375,-13.90625,0.0,0.0,0.0,720
599,1696243624533,-1.1699219,-0.21484375,0.15820312,-38.03125,141.375,-29.03125,-83.875,8.3125,-67.875,721
600,1696243624573,-0.7675781,0.109375,0.14160156,-58.46875,145.71875,-42.03125,0.0,0.0,0.0,722
601,1696243624613,-0.63183594,0.25195312,0.13964844,-108.9375,145.28125,9.78125,0.0,0.0,0.0,723
602,1696243624653,-0.68652344,0.0234375,0.0048828125,-138.3125,138.09375,32.84375,0.0,0.0,0.0,724
603,1696243624693,-0.7285156,0.091796875,-0.068359375,-106.03125,112.625,35.71875,0.0,0.0,0.0,725
604,1696243624733,-0.9169922,0.14160156,-0.028320312,-58.28125,60.25,30.34375,0.0,0.0,0.0,726
605,1696243624773,-1.2128906,-0.02734375,0.140625,-34.125,29.25,22.125,0.0,0.0,0.0,727
606,1696243624813,-1.2099609,-0.3466797,0.028320312,-67.8125,23.65625,0.875,0.0,0.0,0.0,728
607,1696243624853,-1.1152344,-0.14550781,-0.13867188,-4.75,11.375,-6.8125,0.0,0.0,0.0,729
608,1696243624893,-1.0859375,0.23730469,0.041015625,10.125,-2.53125,-14.5,0.0,0.0,0.0,730
609,1696243624933,-0.90722656,0.13671875,0.036132812,-45.65625,-10.46875,-16.46875,0.0,0.0,0.0,731
610,1696243624973,-0.9326172,0.029296875,-0.103515625,-48.59375,-14.375,-1.5,0.0,0.0,0.0,732
611,1696243625013,-1.0292969,-0.06347656,-0.044921875,-11.09375,2.28125,5.34375,-86.25,4.0625,-90.375,733
612,1696243625053,-1.0029297,0.017578125,0.020507812,-20.875,3.625,-4.75,0.0,0.0,0.0,734
613,1696243625093,-0.9814453,0.0234375,0.041992188,-23.75,6.125,-0.71875,0.0,0.0,0.0,735
614,1696243625133,-1.0146484,-0.060546875,-0.036132812,-5.1875,2.28125,5.4375,0.0,0.0,0.0,736
615,1696243625173,-0.953125,-0.044921875,0.030273438,0.0625,-1.125,4.71875,0.0,0.0,0.0,737
616,1696243625213,-1.0341797,0.053710938,-0.022460938,4.03125,-0.65625,1.125,0.0,0.0,0.0,738
617,1696243625253,-1.0117188,0.09667969,0.041015625,0.0,-1.125,1.5,0.0,0.0,0.0,739
618,1696243625293,-0.99902344,0.059570312,-0.030273438,-7.1875,1.125,3.125,0.0,0.0,0.0,740
619,1696243625333,-0.97753906,0.040039062,-0.095703125,-3.46875,10.46875,4.78125,0.0,0.0,0.0,741
620,1696243625373,-0.9736328,0.055664062,-0.0546875,-0.71875,19.1875,6.625,0.0,0.0,0.0,742
621,1696243625413,-1.0146484,0.0126953125,-0.12109375,4.5625,25.28125,6.375,0.0,0.0,0.0,743
622,1696243625453,-1.0390625,0.12109375,-0.0048828125,-0.0625,20.78125,3.875,0.0,0.0,0.0,744
623,1696243625493,-1.0214844,0.001953125,0.0068359375,-8.0,9.96875,7.15625,0.0,0.0,0.0,745
624,1696243625533,-1.0517578,-0.02734375,-0.07324219,-11.84375,6.3125,7.65625,-84.75,8.4375,-89.875,746
625,1696243625573,-1.0136719,0.013671875,-0.09082031,1.65625,8.9375,5.875,0.0,0.0,0.0,747
626,1696243625613,-1.0166016,0.053710938,-0.05859375,-2.1875,10.59375,5.21875,0.0,0.0,0.0,748
627,1696243625653,-1.0888672,0.0146484375,-0.08300781,-6.90625,16.625,4.21875,0.0,0.0,0.0,749
628,1696243625693,-1.1728516,0.04296875,-0.053710938,0.90625,5.875,4.15625,0.0,0.0,0.0,750
629,1696243625733,-1.3320312,-0.103515625,-0.026367188,7.9375,-8.21875,7.90625,0.0,0.0,0.0,751
630,1696243625773,-1.4804688,0.16894531,-0.24707031,-14.78125,-14.1875,2.65625,0.0,0.0,0.0,752
631,1696243625813,-1.3134766,0.28027344,-0.15917969,-9.40625,-31.0,10.40625,0.0,0.0,0.0,753
632,1696243625853,-1.1513672,0.2890625,0.0029296875,-13.3125,-52.21875,15.59375,0.0,0.0,0.0,754
633,1696243625893,-1.203125,0.15917969,0.22753906,8.96875,-73.15625,17.34375,0.0,0.0,0.0,755
634,1696243625933,-1.3193359,-0.032226562,0.35546875,32.78125,-98.6875,9.65625,0.0,0.0,0.0,756
635,1696243625973,-1.2324219,-0.24511719,0.095703125,45.84375,-101.0,-38.625,0.0,0.0,0.0,757
636,1696243626013,-0.57128906,0.0390625,-0.28125,35.09375,-82.25,-83.53125,-88.0625,13.5625,-84.625,758
637,1696243626053,-0.47753906,0.24707031,0.12792969,122.0,-125.53125,-19.3125,0.0,0.0,0.0,759
638,1696243626093,-0.6425781,-0.00390625,0.23730469,109.1875,-131.15625,-34.46875,0.0,0.0,0.0,760
639,1696243626133,-0.7246094,0.15136719,0.080078125,49.1875,-131.5,-18.59375,0.0,0.0,0.0,761
640,1696243626173,-0.85058594,0.19140625,0.26367188,105.03125,-140.25,5.09375,0.0,0.0,0.0,762
641,1696243626213,-1.1572266,0.119140625,0.4970703,99.125,-142.9375,15.78125,0.0,0.0,0.0,763
642,1696243626253,-1.0224609,0.12109375,0.7294922,62.8125,-128.40625,-10.1875,0.0,0.0,0.0,764
643,1696243626293,-0.64941406,0.27148438,0.671875,31.8125,-97.34375,-9.5,0.0,0.0,0.0,765
644,1696243626333,-0.578125,0.20214844,0.5058594,51.625,-86.46875,-2.53125,0.0,0.0,0.0,766
645,1696243626373,-0.4892578,0.23730469,0.49804688,62.75,-74.25,13.15625,0.0,0.0,0.0,767
646,1696243626413,-0.46484375,0.24511719,0.640625,40.78125,-51.3125,18.625,0.0,0.0,0.0,768
647,1696243626453,-0.46777344,0.3515625,0.5839844,24.34375,-28.375,9.46875,0.0,0.0,0.0,769
648,1696243626493,-0.51953125,0.3095703,0.7050781,10.4375,-17.5,8.1875,0.0,0.0,0.0,770
649,1696243626533,-0.41210938,0.27539062,0.7714844,-17.28125,4.15625,-9.125,-80.25,18.8125,-56.3125,771
650,1696243626573,-0.5214844,0.25390625,0.79296875,-13.78125,21.1875,-16.46875,0.0,0.0,0.0,772
651,1696243626613,-0.40527344,0.20605469,0.88671875,-11.59375,35.125,-31.59375,0.0,0.0,0.0,773
652,1696243626653,-0.74902344,0.28222656,0.94921875,-27.15625,27.59375,-24.03125,0.0,0.0,0.0,774
653,1696243626693,-0.48632812,0.29492188,0.62402344,1.9375,34.9375,-7.25,0.0,0.0,0.0,775
654,1696243626733,-0.6279297,0.328125,0.67871094,7.15625,43.34375,0.09375,0.0,0.0,0.0,776
655,1696243626773,-0.8779297,0.3154297,0.84277344,-18.5,37.75,-5.53125,0.0,0.0,0.0,777
656,1696243626813,-0.75878906,0.31054688,0.7294922,2.625,42.1875,-19.375,0.0,0.0,0.0,778
657,1696243626853,-0.8779297,0.18359375,0.6464844,-24.59375,64.15625,-26.59375,0.0,0.0,0.0,779
658,1696243626893,-0.9375,0.30273438,0.65625,-23.875,73.8125,-10.28125,0.0,0.0,0.0,780
659,1696243626933,-1.0107422,0.19726562,0.49121094,-46.15625,93.40625,-6.4375,0.0,0.0,0.0,781
660,1696243626973,-1.1083984,0.068359375,0.3857422,-48.65625,110.625,-9.625,0.0,0.0,0.0,782
661,1696243627013,-1.0742188,-0.0048828125,0.28125,-45.71875,114.53125,-6.9375,-81.4375,16.5625,-71.625,783
662,1696243627053,-1.0107422,0.051757812,0.2841797,-51.875,126.0625,-18.03125,0.0,0.0,0.0,784
663,1696243627093,-1.0019531,0.046875,0.23828125,-52.75,124.40625,-0.40625,0.0,0.0,0.0,785
664,1696243627133,-0.7753906,-0.10058594,0.049804688,-89.21875,135.28125,-2.65625,0.0,0.0,0.0,786
665,1696243627173,-0.66015625,-0.17285156,0.029296875,-106.125,122.875,9.25,0.0,0.0,0.0,787
666,1696243627213,-0.7675781,0.095703125,0.08984375,-89.34375,87.53125,19.0625,0.0,0.0,0.0,788
667,1696243627253,-0.9580078,0.11425781,0.13183594,-37.78125,55.3125,7.34375,0.0,0.0,0.0,789
668,1696243627293,-1.0908203,0.18261719,0.21777344,-20.875,24.3125,16.9375,0.0,0.0,0.0,790
669,1696243627333,-1.1132812,-0.0859375,0.087890625,-22.34375,7.71875,17.15625,0.0,0.0,0.0,791
670,1696243627373,-1.0986328,-0.18359375,-0.111328125,-12.375,11.875,-4.4375,0.0,0.0,0.0,792
671,1696243627413,-1.0380859,0.11621094,0.024414062,8.90625,12.03125,-19.28125,0.0,0.0,0.0,793
672,1696243627453,-0.9482422,0.22265625,-0.001953125,-13.96875,16.375,-16.875,0.0,0.0,0.0,794
673,1696243627493,-0.9501953,0.1171875,-0.01171875,-31.0625,5.15625,-5.34375,0.0,0.0,0.0,795
674,1696243627533,-1.0078125,0.041992188,-0.0048828125,-32.46875,6.90625,-1.6875,-82.8125,13.375,-89.4375,796
675,1696243627573,-1.0175781,-0.12109375,-0.033203125,-31.5625,9.34375,-2.0625,0.0,0.0,0.0,797
676,1696243627613,-0.99316406,-0.08300781,0.02734375,-10.875,12.28125,-3.65625,0.0,0.0,0.0,798
677,1696243627653,-0.99609375,0.055664062,-0.047851562,-17.40625,7.53125,-2.96875,0.0,0.0,0.0,799
678,1696243627693,-1.0009766,0.049804688,-0.028320312,-5.125,10.03125,5.6875,0.0,0.0,0.0,800
679,1696243627733,-0.97265625,0.0078125,-0.083984375,-12.28125,12.15625,4.0625,0.0,0.0,0.0,801
680,1696243627773,-0.99121094,0.0546875,-0.038085938,-13.1875,11.96875,8.3125,0.0,0.0,0.0,802
681,1696243627813,-1.0009766,0.022460938,-0.047851562,-10.4375,15.34375,9.0,0.0,0.0,0.0,803
682,1696243627853,-1.0839844,-0.0146484375,-0.13378906,-6.53125,11.375,9.25,0.0,0.0,0.0,804
683,1696243627893,-0.98828125,0.13574219,-0.10253906,-8.125,14.25,3.1875,0.0,0.0,0.0,805
684,1696243627933,-1.0068359,0.040039062,-0.10449219,-6.40625,21.8125,3.5,0.0,0.0,0.0,806
685,1696243627973,-1.0078125,0.00390625,-0.11230469,-19.03125,13.6875,5.9375,0.0,0.0,0.0,807
686,1696243628013,-1.1269531,0.0390625,-0.07128906,-8.84375,8.3125,8.0625,-81.125,18.3125,-91.375,808
687,1696243628053,-1.2412109,-0.020507812,-0.15429688,-14.90625,7.34375,6.5625,0.0,0.0,0.0,809
688,1696243628093,-1.3984375,0.140625,-0.11816406,-11.34375,5.09375,8.9375,0.0,0.0,0.0,810
689,1696243628133,-1.4189453,0.16015625,-0.032226562,-2.0,-8.59375,16.75,0.0,0.0,0.0,811
690,1696243628173,-1.3378906,0.09082031,-0.08496094,-4.21875,-30.9375,19.375,0.0,0.0,0.0,812
691,1696243628213,-1.1376953,0.12597656,-0.009765625,0.125,-46.78125,9.78125,0.0,0.0,0.0,813
692,1696243628253,-1.1015625,-0.14453125,0.12792969,38.625,-62.59375,-3.53125,0.0,0.0,0.0,814
693,1696243628293,-1.1650391,-0.20019531,-0.087890625,27.21875,-63.09375,-52.78125,0.0,0.0,0.0,815
694,1696243628333,-1.0527344,0.04296875,-0.18066406,60.1875,-89.59375,-69.375,0.0,0.0,0.0,816
695,1696243628373,-0.75,0.42285156,0.107421875,135.875,-143.21875,-27.125,0.0,0.0,0.0,817
696,1696243628413,-0.71777344,0.3642578,0.30664062,66.53125,-118.3125,13.375,0.0,0.0,0.0,818
697,1696243628453,-0.9140625,0.009765625,0.016601562,-50.90625,-73.15625,3.4375,0.0,0.0,0.0,819
698,1696243628493,-0.85546875,-0.115234375,0.0625,22.15625,-105.15625,-0.53125,0.0,0.0,0.0,820
699,1696243628533,-0.7089844,0.13574219,0.27929688,57.1875,-111.625,13.375,-85.1875,15.8125,-82.875,821
700,1696243628573,-0.88964844,0.034179688,0.3701172,57.625,-113.5,23.8125,0.0,0.0,0.0,822
701,1696243628613,-0.83496094,0.045898438,0.49316406,67.6875,-128.09375,26.6875,0.0,0.0,0.0,823
702,1696243628653,-0.7373047,0.14550781,0.5205078,71.46875,-104.53125,17.96875,0.0,0.0,0.0,824
703,1696243628693,-0.8720703,0.091796875,0.5419922,72.5625,-98.0,3.9375,0.0,0.0,0.0,825
704,1696243628733,-0.6933594,0.3046875,0.61816406,60.375,-85.6875,1.4375,0.0,0.0,0.0,826
705,1696243628773,-0.59765625,0.38476562,0.6699219,29.34375,-64.96875,2.9375,0.0,0.0,0.0,827
706,1696243628813,-0.54785156,0.24609375,0.5996094,18.0,-54.65625,1.0625,0.0,0.0,0.0,828
707,1696243628853,-0.5419922,0.22070312,0.63671875,26.78125,-46.0625,2.03125,0.0,0.0,0.0,829
708,1696243628893,-0.49609375,0.27929688,0.6875,11.78125,-32.625,3.875,0.0,0.0,0.0,830
709,1696243628933,-0.5136719,0.296875,0.7363281,6.78125,-22.0625,4.0,0.0,0.0,0.0,831
710,1696243628973,-0.46972656,0.26171875,0.74316406,3.59375,-7.375,-0.15625,0.0,0.0,0.0,832
711,1696243629013,-0.4765625,0.28222656,0.7109375,-5.25,10.53125,-8.21875,-82.1875,17.125,-62.4375,833
712,1696243629053,-0.49804688,0.3017578,0.7285156,-7.875,25.15625,-12.75,0.0,0.0,0.0,834
713,1696243629093,-0.4765625,0.2919922,0.6689453,-19.90625,36.875,-17.75,0.0,0.0,0.0,835
714,1696243629133,-0.625,0.16210938,1.0341797,-17.15625,53.84375,-20.90625,0.0,0.0,0.0,836
715,1696243629173,-0.9296875,0.2734375,1.2802734,-2.0625,-9.6875,-19.625,0.0,0.0,0.0,837
716,1696243629213,-0.19921875,0.4580078,0.35253906,0.96875,33.40625,-7.65625,0.0,0.0,0.0,838
717,1696243629253,-0.7949219,0.23339844,0.8339844,9.53125,64.15625,-5.03125,0.0,0.0,0.0,839
718,1696243629293,-1.0634766,0.48242188,0.70996094,-34.5,56.53125,-10.0625,0.0,0.0,0.0,840
719,1696243629333,-1.0332031,0.23925781,0.5605469,-18.125,87.84375,-18.90625,0.0,0.0,0.0,841
720,1696243629373,-0.9453125,0.11425781,0.48632812,-38.6875,97.90625,-34.03125,0.0,0.0,0.0,842
721,1696243629413,-0.86621094,0.21289062,0.50390625,-65.75,102.5,-40.9375,0.0,0.0,0.0,843
722,1696243629453,-0.96191406,-0.001953125,0.3935547,-72.3125,115.75,-32.8125,0.0,0.0,0.0,844
723,1696243629493,-0.9628906,-0.10839844,0.28222656,-53.34375,104.5,-26.21875,0.0,0.0,0.0,845
724,1696243629533,-0.92578125,0.025390625,0.32714844,-43.9375,91.09375,-12.84375,-85.1875,11.3125,-81.5,846
725,1696243629573,-0.82421875,0.051757812,0.23925781,-54.625,95.65625,-6.09375,0.0,0.0,0.0,847
726,1696243629613,-0.7441406,0.028320312,0.18554688,-76.0,86.25,10.46875,0.0,0.0,0.0,848
727,1696243629653,-0.9111328,-0.041015625,0.09667969,-64.9375,84.125,26.875,0.0,0.0,0.0,849
728,1696243629693,-0.9580078,0.052734375,0.10253906,-41.375,64.90625,26.6875,0.0,0.0,0.0,850
729,1696243629733,-0.9277344,0.12207031,0.2421875,-49.1875,45.4375,28.34375,0.0,0.0,0.0,851
730,1696243629773,-1.0917969,-0.16601562,0.01953125,-53.09375,48.125,38.53125,0.0,0.0,0.0,852
731,1696243629813,-1.0341797,-0.057617188,0.04296875,-21.53125,26.875,10.875,0.0,0.0,0.0,853
732,1696243629853,-1.0117188,0.12402344,0.12988281,-10.25,19.96875,1.1875,0.0,0.0,0.0,854
733,1696243629893,-1.0058594,0.00390625,-0.001953125,-20.375,20.46875,1.59375,0.0,0.0,0.0,855
734,1696243629933,-0.99609375,0.01953125,0.0068359375,-25.09375,9.90625,-5.59375,0.0,0.0,0.0,856
735,1696243629973,-1.0029297,-0.0087890625,0.059570312,-11.84375,5.03125,-5.34375,0.0,0.0,0.0,857
736,1696243630013,-0.98535156,-0.01171875,0.01171875,-17.8125,5.15625,-6.875,-81.4375,14.5625,-96.625,858
737,1696243630053,-0.984375,0.025390625,0.017578125,-6.96875,6.90625,-3.40625,0.0,0.0,0.0,859
738,1696243630093,-0.9511719,0.022460938,0.0126953125,-8.59375,13.15625,-1.4375,0.0,0.0,0.0,860
739,1696243630133,-0.9814453,0.034179688,-0.024414062,-9.59375,8.9375,0.09375,0.0,0.0,0.0,861
740,1696243630173,-0.9716797,0.022460938,0.021484375,1.15625,9.65625,10.53125,0.0,0.0,0.0,862
741,1696243630213,-0.99316406,-0.0234375,-0.020507812,-2.25,16.0,12.09375,0.0,0.0,0.0,863
742,1696243630253,-1.0322266,-0.0029296875,-0.043945312,-0.625,20.96875,9.1875,0.0,0.0,0.0,864
743,1696243630293,-1.0351562,0.10839844,-0.0546875,5.8125,12.90625,7.96875,0.0,0.0,0.0,865
744,1696243630333,-1.0361328,0.20019531,-0.038085938,-22.9375,16.625,7.21875,0.0,0.0,0.0,866
745,1696243630373,-1.1220703,-0.0009765625,-0.08496094,-5.4375,15.875,17.65625,0.0,0.0,0.0,867
746,1696243630413,-1.2392578,0.0009765625,-0.087890625,-16.25,13.09375,12.09375,0.0,0.0,0.0,868
747,1696243630453,-1.4404297,0.18554688,-0.17578125,-32.46875,12.15625,5.875,0.0,0.0,0.0,869
748,1696243630493,-1.4511719,0.14941406,-0.15332031,-26.90625,4.65625,13.375,0.0,0.0,0.0,870
749,1696243630533,-1.2646484,0.21777344,-0.0859375,-18.96875,-12.625,13.6875,-82.375,20.75,-98.625,871
750,1696243630573,-1.1542969,0.2705078,-0.05859375,-25.21875,-28.84375,8.9375,0.0,0.0,0.0,872
751,1696243630613,-1.1259766,0.234375,0.10253906,-22.8125,-43.75,10.6875,0.0,0.0,0.0,873
752,1696243630653,-1.015625,0.083984375,0.15527344,-14.53125,-59.0,11.875,0.0,0.0,0.0,874
753,1696243630693,-0.94433594,-0.1796875,0.1328125,39.1875,-74.0625,-13.34375,0.0,0.0,0.0,875
754,1696243630733,-0.8378906,-0.0078125,-0.15917969,26.90625,-38.3125,-68.21875,0.0,0.0,0.0,876
755,1696243630773,-0.42382812,0.29589844,-0.21679688,17.03125,-48.4375,-40.875,0.0,0.0,0.0,877
756,1696243630813,-0.6220703,0.296875,0.27929688,85.15625,-90.8125,-2.1875,0.0,0.0,0.0,878
757,1696243630853,-0.7998047,0.15625,0.11621094,51.15625,-92.375,-13.28125,0.0,0.0,0.0,879
758,1696243630893,-0.84472656,0.17285156,0.140625,-18.3125,-78.28125,16.4375,0.0,0.0,0.0,880
759,1696243630933,-0.9736328,0.045898438,0.16699219,-15.0,-72.78125,38.40625,0.0,0.0,0.0,881
