# Sensor type: Thingy
# Activity type: Miscellaneous movements
# Activity subtype: Normal
# Subject id: s2104454
# Notes: unprocessed
timestamp,accel_x,accel_y,accel_z,gyro_x,gyro_y,gyro_z,mag_x,mag_y,mag_z
1696243226171,-1.0292969,0.043945312,-0.099609375,0.21875,-7.65625,-4.09375,0.0,0.0,0.0
1696243226271,-1.0263672,0.12695312,-0.10449219,-9.59375,-12.46875,-1.65625,0.0,0.0,0.0
1696243226281,-1.0458984,0.16015625,-0.07910156,-15.84375,-24.375,8.0,0.0,0.0,0.0
1696243226292,-1.078125,0.030273438,-0.16503906,-20.78125,-36.34375,16.15625,0.0,0.0,0.0
1696243226353,-0.96484375,0.072265625,-0.20214844,-21.09375,-38.96875,13.53125,0.0,0.0,0.0
1696243226386,-1.0205078,0.059570312,-0.24414062,-4.1875,-40.0,11.09375,0.0,0.0,0.0
1696243226413,-1.0097656,0.07421875,-0.30371094,-5.28125,-42.75,-6.125,-103.9375,26.125,-91.5625
1696243226474,-0.8886719,0.20800781,-0.20410156,-14.625,-68.1875,-19.84375,0.0,0.0,0.0
1696243226503,-0.8955078,0.23925781,0.047851562,-38.0625,-92.375,-8.6875,0.0,0.0,0.0
1696243226536,-0.9550781,-0.022460938,0.16894531,14.0,-145.90625,38.5625,0.0,0.0,0.0
1696243226594,-0.7265625,0.19140625,0.24316406,-44.40625,-118.125,45.65625,0.0,0.0,0.0
1696243226622,-0.95996094,-0.11816406,0.37109375,-9.125,-91.875,53.8125,0.0,0.0,0.0
1696243226658,-1.1855469,-0.21582031,0.3154297,-8.3125,-74.0625,-3.375,0.0,0.0,0.0
1696243226715,-0.7939453,0.14257812,0.54785156,15.84375,-139.125,-7.15625,0.0,0.0,0.0
1696243226742,-0.3828125,0.2783203,0.6689453,2.90625,-110.625,-3.96875,0.0,0.0,0.0
1696243226773,-0.7138672,-0.052734375,0.859375,-15.46875,-107.9375,2.625,0.0,0.0,0.0
1696243226834,-0.6113281,-0.01171875,0.6113281,0.15625,-131.625,-20.9375,0.0,0.0,0.0
1696243226862,-0.390625,0.21191406,0.8125,11.34375,-127.03125,-19.59375,0.0,0.0,0.0
1696243226892,-0.546875,0.06347656,0.7128906,-5.6875,-130.75,-10.125,-103.9375,28.6875,-50.0
1696243226986,-0.37695312,0.12109375,0.8154297,-18.34375,-124.21875,-25.8125,0.0,0.0,0.0
1696243226991,-0.41796875,0.03515625,0.89453125,-28.15625,-124.21875,-31.8125,0.0,0.0,0.0
1696243227012,-0.34179688,-0.056640625,0.90625,-25.0625,-120.875,-42.25,0.0,0.0,0.0
1696243227075,-0.1875,-0.10058594,1.0869141,-13.9375,-105.1875,-40.96875,0.0,0.0,0.0
1696243227104,-0.11328125,0.083984375,1.2138672,-1.4375,-86.15625,-24.71875,0.0,0.0,0.0
1696243227133,0.08105469,0.13183594,1.40625,3.40625,-63.625,-10.5625,0.0,0.0,0.0
1696243227202,0.13964844,0.12988281,1.4394531,-8.6875,-38.84375,-0.5625,0.0,0.0,0.0
1696243227221,0.21191406,9.765625E-4,1.4472656,-16.5,-15.03125,3.59375,0.0,0.0,0.0
1696243227252,0.0234375,-0.1875,1.2255859,-31.21875,20.0,8.0625,0.0,0.0,0.0
1696243227312,-0.20507812,-0.22167969,0.9189453,-58.125,24.09375,-11.78125,0.0,0.0,0.0
1696243227340,-0.12109375,-0.26660156,0.94628906,-41.34375,27.4375,-20.28125,0.0,0.0,0.0
1696243227371,-0.23144531,-0.328125,0.85253906,-21.8125,15.71875,-5.5625,0.0,0.0,0.0
1696243227435,-0.234375,-0.25390625,0.8222656,-19.375,5.90625,4.03125,-90.75,17.4375,-32.0
1696243227463,-0.26757812,-0.028320312,0.8457031,-1.0,-11.0625,-1.53125,0.0,0.0,0.0
1696243227493,-0.18164062,-0.13671875,0.8466797,15.25,-10.71875,-3.5,0.0,0.0,0.0
1696243227554,-0.15332031,-0.005859375,0.9609375,5.65625,-13.28125,1.03125,0.0,0.0,0.0
1696243227583,-0.2109375,0.048828125,1.0976562,0.28125,-15.90625,7.6875,0.0,0.0,0.0
1696243227616,-0.095703125,-0.052734375,0.97558594,-5.46875,-12.53125,12.5,0.0,0.0,0.0
1696243227673,-0.20507812,-0.005859375,1.1748047,-6.4375,-14.5,17.21875,0.0,0.0,0.0
1696243227702,-0.099609375,-0.078125,1.0859375,-33.28125,-5.21875,13.71875,0.0,0.0,0.0
1696243227735,0.0546875,-0.10449219,1.1074219,-15.03125,-26.09375,21.84375,0.0,0.0,0.0
1696243227794,-0.0234375,-0.19726562,1.0234375,-18.09375,-22.90625,18.0,0.0,0.0,0.0
1696243227825,0.001953125,-0.23535156,0.9277344,-19.3125,-10.71875,11.34375,0.0,0.0,0.0
1696243227852,-0.037109375,-0.12988281,0.94628906,-15.28125,-11.3125,8.84375,0.0,0.0,0.0
1696243227916,-0.040039062,-0.25390625,0.89453125,-22.53125,-0.4375,4.9375,-85.8125,16.8125,-32.1875
1696243227973,-0.10839844,-0.28515625,0.9121094,-25.96875,4.96875,2.5625,0.0,0.0,0.0
1696243227979,-0.055664062,-0.30664062,0.8964844,-31.21875,14.5625,-2.28125,0.0,0.0,0.0
1696243228032,-0.036132812,-0.31152344,0.92285156,-16.8125,11.75,5.84375,0.0,0.0,0.0
1696243228062,-0.123046875,-0.31933594,1.0097656,-10.03125,0.875,10.4375,0.0,0.0,0.0
1696243228099,-0.12792969,-0.2998047,1.0224609,-7.53125,3.21875,4.375,0.0,0.0,0.0
1696243228152,-0.0625,-0.23632812,0.9375,-18.5625,4.625,-4.84375,0.0,0.0,0.0
1696243228183,-0.080078125,-0.35058594,0.93847656,-12.0625,-0.8125,-5.0,0.0,0.0,0.0
1696243228213,-0.07128906,-0.40527344,0.9716797,-5.9375,2.34375,-2.3125,0.0,0.0,0.0
1696243228273,-0.0546875,-0.3779297,0.9453125,-2.78125,6.1875,4.15625,0.0,0.0,0.0
1696243228302,-0.10839844,-0.36914062,0.9316406,3.5625,7.1875,7.75,0.0,0.0,0.0
1696243228333,-0.18554688,-0.2841797,0.94433594,-0.28125,4.3125,2.4375,0.0,0.0,0.0
1696243228393,-0.10449219,-0.2763672,0.87597656,-2.21875,-1.78125,3.53125,0.0,0.0,0.0
1696243228431,-0.3359375,-0.24511719,0.8544922,-5.40625,-9.84375,1.15625,-86.875,14.4375,-33.375
1696243228451,-0.07324219,-0.13867188,0.92871094,-20.59375,-18.59375,-13.75,0.0,0.0,0.0
1696243228513,0.0,-0.3671875,0.9277344,-17.0,-35.96875,-4.21875,0.0,0.0,0.0
1696243228545,-0.0048828125,-0.52441406,1.0087891,-6.375,-28.40625,-9.78125,0.0,0.0,0.0
1696243228570,0.1328125,-0.359375,1.03125,-8.3125,-26.75,-18.5,0.0,0.0,0.0
1696243228632,0.07324219,-0.50390625,1.0820312,8.875,-25.125,-18.375,0.0,0.0,0.0
1696243228664,-0.018554688,-0.41503906,1.0,4.5625,-21.8125,-23.4375,0.0,0.0,0.0
1696243228691,0.00390625,-0.3359375,1.0019531,15.78125,-27.6875,-27.96875,0.0,0.0,0.0
1696243228751,-0.0068359375,-0.26953125,0.94921875,20.5,-37.375,-25.46875,0.0,0.0,0.0
1696243228781,0.080078125,-0.23925781,0.9199219,19.09375,-33.71875,-22.40625,0.0,0.0,0.0
1696243228816,0.115234375,-0.1640625,0.9716797,24.8125,-33.15625,-14.71875,0.0,0.0,0.0
1696243228873,0.12109375,-0.20410156,0.8613281,19.75,-25.71875,-10.03125,0.0,0.0,0.0
1696243228903,0.21582031,-0.19238281,0.88964844,22.625,-22.96875,2.375,-76.9375,10.8125,-27.0625
1696243228935,0.23144531,-0.12597656,0.91796875,22.9375,-15.90625,9.9375,0.0,0.0,0.0
1696243228994,0.27246094,-0.265625,0.8457031,15.0625,2.125,15.125,0.0,0.0,0.0
1696243229023,0.23535156,-0.15820312,0.6826172,34.53125,-5.8125,23.3125,0.0,0.0,0.0
1696243229053,0.18164062,-0.265625,0.9111328,37.6875,23.15625,34.15625,0.0,0.0,0.0
1696243229113,0.16992188,-0.16601562,0.9404297,45.875,29.34375,41.25,0.0,0.0,0.0
1696243229142,0.08984375,-0.1796875,0.9873047,32.625,50.15625,29.96875,0.0,0.0,0.0
1696243229172,0.08886719,-0.18554688,1.0283203,25.25,61.5625,13.96875,0.0,0.0,0.0
1696243229263,0.05859375,-0.15332031,1.1572266,17.25,63.875,-1.09375,0.0,0.0,0.0
1696243229268,-0.0546875,-0.1171875,1.1035156,15.78125,65.09375,-4.03125,0.0,0.0,0.0
1696243229292,-0.048828125,-0.18164062,1.3037109,1.1875,61.3125,-0.25,0.0,0.0,0.0
1696243229352,-0.06738281,-0.20117188,1.3125,48.625,16.8125,29.65625,0.0,0.0,0.0
1696243229389,0.37109375,-0.16601562,1.0722656,37.75,63.9375,26.34375,0.0,0.0,0.0
1696243229411,-0.10058594,-0.29589844,1.4267578,55.53125,52.96875,12.3125,-89.875,26.3125,-30.375
1696243229472,-0.056640625,0.11621094,1.2714844,20.5,74.0625,-0.3125,0.0,0.0,0.0
1696243229502,-0.0078125,0.14160156,1.1855469,27.0,76.4375,-0.1875,0.0,0.0,0.0
1696243229533,0.043945312,-0.0078125,0.9658203,23.90625,93.96875,-21.1875,0.0,0.0,0.0
1696243229593,-0.21679688,0.19238281,0.7519531,-12.0,104.03125,25.625,0.0,0.0,0.0
1696243229622,-0.6826172,0.16015625,0.8671875,-23.15625,102.875,42.03125,0.0,0.0,0.0
1696243229653,-0.6201172,-0.052734375,0.76660156,-8.25,118.03125,18.84375,0.0,0.0,0.0
1696243229714,-0.5888672,0.04296875,0.66015625,8.875,122.90625,23.5625,0.0,0.0,0.0
1696243229745,-0.78125,0.15527344,0.59472656,-4.65625,134.1875,37.34375,0.0,0.0,0.0
1696243229778,-0.80859375,0.016601562,0.515625,5.09375,135.15625,37.34375,0.0,0.0,0.0
1696243229837,-0.8388672,0.061523438,0.41601562,20.0625,139.1875,37.78125,0.0,0.0,0.0
1696243229864,-0.77734375,0.061523438,0.33984375,9.5,144.625,25.4375,0.0,0.0,0.0
1696243229899,-0.8691406,0.01953125,0.3642578,32.5,150.84375,13.84375,-108.625,34.375,-67.375
1696243229958,-0.7861328,-0.034179688,0.37304688,36.0,135.96875,-22.34375,0.0,0.0,0.0
1696243229984,-1.0136719,0.3017578,0.27246094,-31.40625,172.875,-37.53125,0.0,0.0,0.0
1696243230013,-0.92871094,0.4423828,0.36035156,6.9375,58.375,-5.25,0.0,0.0,0.0
1696243230076,-0.9667969,0.43847656,0.24609375,-16.5625,-0.34375,17.8125,0.0,0.0,0.0
1696243230104,-0.9785156,0.36035156,0.31152344,26.28125,-56.53125,20.6875,0.0,0.0,0.0
1696243230133,-0.859375,0.40820312,-0.29882812,66.0625,-111.59375,12.25,0.0,0.0,0.0
1696243230193,-0.80078125,0.3330078,0.18359375,17.1875,-19.4375,44.25,0.0,0.0,0.0
1696243230221,-0.9091797,0.2529297,0.20019531,-5.8125,23.09375,33.6875,0.0,0.0,0.0
1696243230251,-0.8642578,0.44726562,0.15136719,-19.3125,43.125,10.96875,0.0,0.0,0.0
1696243230313,-0.85546875,0.40039062,0.24023438,-50.625,36.65625,13.40625,0.0,0.0,0.0
1696243230342,-0.953125,0.32128906,0.33691406,-77.59375,16.75,3.90625,0.0,0.0,0.0
1696243230372,-0.828125,0.296875,0.43945312,-85.21875,-13.75,-2.375,0.0,0.0,0.0
1696243230434,-0.7089844,0.20605469,0.30566406,-30.78125,-11.0625,20.5,-104.6875,38.3125,-78.1875
1696243230465,-0.84765625,0.10644531,0.5410156,-108.78125,40.6875,-25.40625,0.0,0.0,0.0
1696243230492,-1.0693359,0.58203125,0.43066406,-135.53125,18.53125,-17.71875,0.0,0.0,0.0
1696243230555,-1.7470703,0.5410156,0.36816406,-0.8125,-10.9375,4.4375,0.0,0.0,0.0
1696243230584,-0.4609375,0.28808594,0.045898438,-35.0625,-38.84375,-41.03125,0.0,0.0,0.0
1696243230614,-0.6982422,0.37304688,-0.18847656,-121.125,56.25,29.90625,0.0,0.0,0.0
1696243230674,-1.5449219,-0.64941406,-0.35839844,-128.25,78.59375,14.6875,0.0,0.0,0.0
1696243230702,-0.92578125,-0.059570312,0.041015625,-108.3125,51.90625,-54.15625,0.0,0.0,0.0
1696243230732,-0.9453125,0.34179688,0.05078125,-55.375,27.6875,-9.03125,0.0,0.0,0.0
1696243230796,-1.1455078,0.03125,-0.016601562,-126.4375,28.59375,-2.28125,0.0,0.0,0.0
1696243230828,-0.9199219,0.068359375,0.072265625,-138.5625,12.125,2.875,0.0,0.0,0.0
1696243230852,-1.0019531,-0.15332031,0.048828125,-121.4375,6.625,16.15625,0.0,0.0,0.0
1696243230913,-1.0273438,-0.14453125,0.0546875,-107.4375,-7.96875,3.46875,-103.625,36.8125,-71.75
1696243230945,-1.0087891,-0.045898438,0.21875,-98.15625,-11.625,5.375,0.0,0.0,0.0
1696243230976,-0.9667969,0.10058594,0.21484375,-95.125,-18.09375,20.0625,0.0,0.0,0.0
1696243231033,-0.91308594,-0.16601562,0.12207031,-120.6875,-25.96875,26.71875,0.0,0.0,0.0
1696243231066,-0.9394531,-0.1875,0.28320312,-83.34375,-54.03125,30.9375,0.0,0.0,0.0
1696243231093,-0.8701172,0.047851562,0.15527344,-152.96875,-116.25,33.625,0.0,0.0,0.0
1696243231155,-1.0546875,0.59277344,0.18945312,-128.625,-222.625,75.8125,0.0,0.0,0.0
1696243231187,-1.3740234,-0.15722656,0.10449219,-86.75,-199.5,100.75,0.0,0.0,0.0
1696243231212,-0.5019531,-0.3544922,0.13183594,-13.375,-162.25,83.25,0.0,0.0,0.0
1696243231275,-0.18359375,-0.20410156,0.55859375,9.25,-119.65625,75.90625,0.0,0.0,0.0
1696243231311,-0.4404297,0.11230469,0.74902344,55.40625,-54.96875,39.25,0.0,0.0,0.0
1696243231333,-0.71777344,0.20800781,1.0908203,22.4375,-90.90625,35.15625,0.0,0.0,0.0
1696243231396,-0.41503906,0.8457031,0.76660156,-11.25,-142.46875,74.09375,0.0,0.0,0.0
1696243231424,0.0234375,-0.37304688,0.44140625,-80.59375,-97.875,23.5,-69.75,42.0625,-31.125
1696243231454,-0.49023438,-0.05078125,0.95996094,47.9375,-136.375,-2.75,0.0,0.0,0.0
1696243231546,-0.19433594,0.49023438,0.9980469,12.90625,-117.40625,32.65625,0.0,0.0,0.0
1696243231553,-0.39648438,0.109375,0.84472656,-21.15625,-114.46875,29.34375,0.0,0.0,0.0
1696243231573,-0.15820312,0.3310547,1.1523438,-5.6875,-106.96875,17.9375,0.0,0.0,0.0
1696243231640,0.0048828125,0.16113281,0.95410156,-18.625,-103.34375,30.5625,0.0,0.0,0.0
1696243231661,-0.01953125,0.21875,1.0537109,2.53125,-112.5,32.65625,0.0,0.0,0.0
1696243231691,0.125,0.13085938,0.98535156,1.0,-114.90625,42.09375,0.0,0.0,0.0
1696243231755,0.21289062,0.16210938,1.1533203,17.5,-119.84375,46.6875,0.0,0.0,0.0
1696243231781,0.35742188,0.23535156,0.9824219,23.59375,-127.78125,50.09375,0.0,0.0,0.0
1696243231812,0.41601562,0.20507812,1.0224609,18.96875,-112.75,47.71875,0.0,0.0,0.0
1696243231906,0.54589844,0.21972656,1.2460938,16.03125,-97.8125,44.5,0.0,0.0,0.0
1696243231933,0.6386719,0.24902344,1.0986328,20.125,-80.46875,27.03125,-19.1875,39.0625,-29.75
1696243231938,0.8623047,0.29492188,1.1845703,15.59375,-39.34375,8.90625,0.0,0.0,0.0
1696243231992,0.8251953,0.2705078,1.2724609,-5.5625,15.84375,-8.96875,0.0,0.0,0.0
1696243232027,0.7216797,0.2421875,1.2050781,-14.125,71.625,-34.1875,0.0,0.0,0.0
1696243232052,0.6142578,0.27148438,1.1611328,-25.34375,118.4375,-54.8125,0.0,0.0,0.0
1696243232115,0.4736328,0.21679688,1.0751953,-27.4375,144.4375,-52.25,0.0,0.0,0.0
1696243232147,0.3251953,0.13476562,0.9785156,-29.1875,140.46875,-40.46875,0.0,0.0,0.0
1696243232171,0.15332031,0.119140625,0.9824219,-10.03125,133.09375,-30.65625,0.0,0.0,0.0
1696243232235,0.12207031,0.1640625,1.0166016,-13.4375,127.96875,-23.3125,0.0,0.0,0.0
1696243232262,0.0,0.10644531,1.0068359,-6.90625,129.0,-17.53125,0.0,0.0,0.0
1696243232293,-0.12890625,0.12207031,1.0419922,0.21875,126.5625,-8.90625,0.0,0.0,0.0
1696243232357,-0.23828125,0.13671875,0.93652344,0.53125,133.28125,-2.625,0.0,0.0,0.0
1696243232382,-0.421875,0.19238281,0.9375,-2.9375,137.96875,11.34375,0.0,0.0,0.0
1696243232411,-0.5595703,0.19042969,0.8984375,-14.1875,148.21875,16.84375,-60.625,40.5625,-28.5625
1696243232473,-0.6591797,0.17773438,0.7470703,-11.375,159.75,21.21875,0.0,0.0,0.0
1696243232506,-0.87890625,0.20507812,0.51464844,-9.84375,175.5,38.3125,0.0,0.0,0.0
1696243232563,-1.0888672,0.40039062,0.28222656,-7.71875,174.21875,57.71875,0.0,0.0,0.0
1696243232592,-0.62597656,0.24707031,0.2421875,-49.78125,185.71875,45.78125,0.0,0.0,0.0
1696243232623,-0.24902344,0.24707031,0.23535156,-85.96875,210.78125,63.90625,0.0,0.0,0.0
1696243232668,-0.5703125,0.25,0.31152344,-85.34375,222.625,98.5,0.0,0.0,0.0
1696243232714,-0.57128906,0.38183594,0.43164062,-155.40625,173.8125,78.53125,0.0,0.0,0.0
1696243232744,-0.9199219,0.25878906,0.18652344,-177.4375,106.40625,83.0,0.0,0.0,0.0
1696243232772,-0.921875,0.3701172,0.51660156,-100.1875,74.3125,59.375,0.0,0.0,0.0
1696243232837,-0.7373047,0.38671875,-0.7207031,-154.875,12.125,76.71875,0.0,0.0,0.0
1696243232865,-1.0449219,0.24511719,0.58203125,44.59375,77.90625,54.375,0.0,0.0,0.0
1696243232891,-0.96191406,0.3095703,-0.032226562,-248.9375,90.0625,11.28125,-93.3125,36.8125,-47.4375
1696243232958,-0.94921875,0.53222656,0.3095703,-139.125,96.90625,2.5,0.0,0.0,0.0
1696243232983,-0.88964844,0.12988281,0.35058594,-171.96875,77.0,-29.125,0.0,0.0,0.0
1696243233017,-1.0029297,0.044921875,0.38964844,-124.28125,64.25,-40.28125,0.0,0.0,0.0
1696243233072,-1.4863281,-0.265625,-0.30371094,-111.46875,105.5625,-65.8125,0.0,0.0,0.0
1696243233101,-0.96484375,0.36035156,0.5234375,-71.5,25.125,-53.96875,0.0,0.0,0.0
1696243233133,-0.81347656,0.2109375,-0.028320312,80.0625,27.6875,-9.71875,0.0,0.0,0.0
1696243233192,-0.80371094,0.6220703,0.048828125,-25.0,-6.6875,-8.0625,0.0,0.0,0.0
1696243233222,-1.0957031,0.12695312,-0.27929688,-169.53125,51.0625,-10.75,0.0,0.0,0.0
1696243233252,-1.0205078,-0.10546875,-0.29003906,-79.25,48.1875,-18.4375,0.0,0.0,0.0
1696243233313,-1.0009766,-0.107421875,-0.17871094,-142.1875,55.8125,-26.3125,0.0,0.0,0.0
1696243233344,-1.03125,0.0126953125,-0.0703125,-106.21875,49.09375,-20.75,0.0,0.0,0.0
1696243233374,-0.8925781,-0.0234375,-0.055664062,-112.5,57.96875,-25.09375,0.0,0.0,0.0
1696243233433,-1.0576172,-0.109375,0.068359375,-103.28125,46.46875,-21.625,-105.75,10.0625,-66.8125
1696243233462,-1.0410156,-0.036132812,0.24023438,-106.15625,29.28125,-26.0,0.0,0.0,0.0
1696243233493,-1.0214844,-0.24414062,0.26660156,-102.3125,5.09375,-23.4375,0.0,0.0,0.0
1696243233553,-0.9863281,-0.19238281,0.23632812,-111.90625,-32.9375,-34.0625,0.0,0.0,0.0
1696243233584,-0.9892578,0.10449219,-0.00390625,-103.53125,-64.84375,-33.53125,0.0,0.0,0.0
1696243233612,-1.5126953,0.68359375,0.14648438,-61.84375,-77.125,9.03125,0.0,0.0,0.0
1696243233673,-1.3359375,0.16210938,0.09277344,-87.1875,-151.5,22.9375,0.0,0.0,0.0
1696243233703,-1.3945312,0.3935547,-0.0146484375,-103.34375,-195.71875,15.1875,0.0,0.0,0.0
1696243233733,-1.0712891,0.28125,0.021484375,-19.625,-145.03125,34.34375,0.0,0.0,0.0
1696243233823,-0.8828125,0.140625,0.02734375,18.96875,-93.28125,45.28125,0.0,0.0,0.0
1696243233828,-0.5517578,0.024414062,0.024414062,-9.59375,-46.78125,48.09375,0.0,0.0,0.0
1696243233851,-0.43066406,0.1015625,-0.021484375,-58.8125,39.59375,9.6875,0.0,0.0,0.0
1696243233912,-0.56640625,0.095703125,-0.060546875,-56.0625,85.25,-1.34375,-102.3125,6.1875,-51.5
1696243233943,-1.5400391,0.5839844,0.6591797,2.90625,43.625,33.5625,0.0,0.0,0.0
1696243233973,-0.7246094,0.14453125,0.055664062,-185.21875,39.28125,28.25,0.0,0.0,0.0
1696243234033,-1.6132812,-0.22460938,-1.0068359,-160.84375,47.75,88.5,0.0,0.0,0.0
1696243234063,-1.3574219,-0.37402344,0.61035156,102.46875,-113.1875,44.0625,0.0,0.0,0.0
1696243234093,-0.6904297,0.65527344,-0.026367188,-336.21875,-38.40625,-2.8125,0.0,0.0,0.0
1696243234155,-1.1953125,0.11230469,0.19238281,-77.65625,-2.28125,68.09375,0.0,0.0,0.0
1696243234184,-1.4023438,-0.31640625,-0.06347656,-165.4375,6.25,7.1875,0.0,0.0,0.0
1696243234213,-0.9111328,0.06347656,0.119140625,-78.5625,-44.53125,0.25,0.0,0.0,0.0
1696243234275,-0.46679688,0.044921875,0.4404297,-155.84375,-34.09375,53.40625,0.0,0.0,0.0
1696243234303,-1.0107422,-0.57714844,0.32714844,-125.6875,-32.6875,134.21875,0.0,0.0,0.0
1696243234339,-0.9091797,-0.22070312,0.42871094,-61.0625,-37.625,94.59375,0.0,0.0,0.0
1696243234394,-0.37890625,0.13671875,0.6376953,-94.25,-34.5,67.9375,0.0,0.0,0.0
1696243234424,-0.8330078,0.068359375,0.69433594,-97.75,-33.65625,106.0625,-106.625,12.8125,-57.5
1696243234452,-0.9082031,0.08496094,0.5722656,-109.8125,-94.625,150.875,0.0,0.0,0.0
1696243234515,-0.22460938,-0.068359375,0.6035156,-37.3125,-111.78125,160.34375,0.0,0.0,0.0
1696243234546,-0.2109375,-0.07128906,0.47753906,-75.84375,-104.9375,150.625,0.0,0.0,0.0
1696243234573,-0.39160156,-0.04296875,0.94921875,-99.03125,-98.59375,133.96875,0.0,0.0,0.0
1696243234631,-0.4716797,-0.22363281,1.0947266,-50.3125,-130.53125,65.53125,0.0,0.0,0.0
1696243234664,0.013671875,0.059570312,1.1220703,-42.0,-127.78125,24.15625,0.0,0.0,0.0
1696243234693,0.064453125,0.60839844,1.2910156,-37.375,-94.75,-5.4375,0.0,0.0,0.0
1696243234755,-0.28515625,0.5361328,1.4345703,-52.5,-54.40625,-16.625,0.0,0.0,0.0
1696243234783,-0.3330078,0.28222656,1.5117188,-70.53125,-74.96875,18.3125,0.0,0.0,0.0
1696243234812,0.3310547,-0.22460938,1.4306641,-146.3125,-101.90625,-69.84375,0.0,0.0,0.0
1696243234874,0.07519531,0.083984375,1.1738281,-91.15625,-30.65625,-65.0625,0.0,0.0,0.0
1696243234903,0.22851562,-0.3466797,1.2900391,-23.21875,7.96875,-3.65625,-87.75,14.3125,-28.5625
1696243234937,0.12695312,-0.42578125,0.9589844,-56.46875,31.65625,-3.0,0.0,0.0,0.0
1696243234993,-0.056640625,-0.3720703,0.66015625,-41.09375,28.96875,12.5625,0.0,0.0,0.0
1696243235022,-0.08105469,-0.26367188,0.78027344,2.59375,15.90625,19.28125,0.0,0.0,0.0
1696243235059,-1.3408203,-0.103515625,0.67578125,-58.125,26.84375,26.34375,0.0,0.0,0.0
1696243235113,-0.3203125,-0.05859375,0.51171875,14.0625,-6.125,-33.40625,0.0,0.0,0.0
1696243235142,-0.36621094,-0.18359375,0.87890625,12.1875,-15.46875,11.59375,0.0,0.0,0.0
1696243235174,-0.16113281,-0.09765625,0.92578125,-1.5625,-24.125,9.8125,0.0,0.0,0.0
1696243235233,-0.08886719,-0.08691406,1.1357422,13.59375,-39.8125,19.03125,0.0,0.0,0.0
1696243235262,-0.14941406,-0.1875,1.1767578,45.5,-54.34375,23.6875,0.0,0.0,0.0
1696243235290,-0.23242188,-0.3779297,1.2578125,5.46875,-32.125,12.625,0.0,0.0,0.0
1696243235351,-0.03515625,-0.06640625,1.0898438,-5.6875,-28.21875,13.65625,0.0,0.0,0.0
1696243235382,0.016601562,-0.12890625,1.1416016,-0.21875,-21.09375,13.3125,0.0,0.0,0.0
1696243235412,0.18457031,-0.16796875,1.0830078,8.875,-10.78125,9.625,-87.3125,15.0625,-26.75
1696243235472,0.16210938,-0.14453125,1.0996094,5.28125,-2.84375,19.34375,0.0,0.0,0.0
1696243235503,-0.015625,-0.31152344,0.88183594,-2.28125,21.09375,17.875,0.0,0.0,0.0
1696243235533,-0.0390625,-0.24804688,0.8808594,2.65625,32.5,13.71875,0.0,0.0,0.0
1696243235593,-0.061523438,-0.12207031,0.7441406,1.875,41.0,9.4375,0.0,0.0,0.0
1696243235622,-0.091796875,-0.029296875,0.7480469,5.53125,35.75,2.5,0.0,0.0,0.0
1696243235652,-0.21191406,-0.051757812,0.98046875,12.4375,16.46875,8.53125,0.0,0.0,0.0
1696243235714,-0.24511719,-0.013671875,1.1015625,2.71875,1.9375,12.4375,0.0,0.0,0.0
1696243235743,-0.13964844,-0.12890625,1.0957031,-17.46875,-3.6875,8.15625,0.0,0.0,0.0
1696243235773,-0.10253906,-0.21582031,1.03125,-25.0,-1.96875,1.59375,0.0,0.0,0.0
1696243235833,-0.032226562,-0.19238281,0.99902344,-25.59375,2.125,-4.34375,0.0,0.0,0.0
1696243235862,-0.018554688,-0.21191406,0.9941406,-21.6875,10.28125,0.46875,0.0,0.0,0.0
1696243235893,-0.07714844,-0.23339844,0.98535156,-16.25,11.4375,8.53125,-89.875,16.5625,-31.125
1696243235954,-0.21679688,-0.2529297,0.99121094,-16.3125,9.6875,11.40625,0.0,0.0,0.0
1696243235981,-0.25390625,-0.25585938,0.96191406,-16.4375,0.59375,6.40625,0.0,0.0,0.0
1696243236011,-0.24707031,-0.21484375,0.9433594,-13.28125,-17.53125,4.875,0.0,0.0,0.0
1696243236105,-0.18457031,-0.29882812,0.859375,-14.25,-21.3125,-1.90625,0.0,0.0,0.0
1696243236112,-0.17773438,-0.27734375,0.9140625,-8.8125,-34.625,-2.6875,0.0,0.0,0.0
1696243236133,-0.076171875,-0.38378906,0.8955078,-0.09375,-34.5625,-8.96875,0.0,0.0,0.0
1696243236192,0.0048828125,-0.29785156,0.9980469,1.3125,-23.53125,-17.46875,0.0,0.0,0.0
1696243236222,0.0068359375,-0.30273438,1.0263672,-4.28125,-11.75,-30.03125,0.0,0.0,0.0
1696243236252,0.033203125,-0.42285156,1.0048828,-6.3125,-5.6875,-37.3125,0.0,0.0,0.0
1696243236312,0.0029296875,-0.33984375,1.1640625,9.3125,-1.375,-40.84375,0.0,0.0,0.0
1696243236342,0.040039062,-0.2265625,0.96191406,2.28125,7.125,-30.84375,0.0,0.0,0.0
1696243236373,-0.020507812,-0.12695312,0.97265625,18.90625,-14.75,-17.71875,0.0,0.0,0.0
1696243236433,-0.0146484375,-0.14160156,0.9736328,8.28125,-27.78125,-8.0,-84.4375,11.75,-29.3125
1696243236463,-0.0625,-0.13671875,0.96875,15.125,-30.78125,-4.53125,0.0,0.0,0.0
1696243236493,0.0068359375,-0.14746094,0.8808594,23.84375,-31.34375,-3.78125,0.0,0.0,0.0
1696243236555,0.1015625,-0.11621094,1.0244141,31.34375,-29.1875,-4.46875,0.0,0.0,0.0
1696243236583,0.080078125,-0.11230469,0.921875,24.875,-20.84375,8.90625,0.0,0.0,0.0
1696243236612,0.12109375,-0.1015625,0.9326172,24.625,-19.5,13.0,0.0,0.0,0.0
1696243236673,0.16601562,-0.234375,0.9707031,19.4375,-0.28125,17.8125,0.0,0.0,0.0
1696243236703,0.13769531,-0.12988281,0.9033203,9.75,10.59375,8.125,0.0,0.0,0.0
1696243236733,0.13183594,-0.1328125,0.9140625,9.5625,19.375,3.78125,0.0,0.0,0.0
1696243236794,0.064453125,-0.18457031,0.9609375,8.78125,31.90625,6.9375,0.0,0.0,0.0
1696243236823,0.037109375,-0.09277344,0.97753906,3.9375,37.4375,4.6875,0.0,0.0,0.0
1696243236852,-0.032226562,-0.10546875,1.0322266,12.625,34.46875,5.0,0.0,0.0,0.0
1696243236914,-0.047851562,-0.13378906,1.0507812,8.875,31.90625,6.71875,-85.1875,16.5625,-27.1875
1696243236942,-0.095703125,-0.15332031,1.0849609,13.40625,26.84375,8.0,0.0,0.0,0.0
1696243236971,-0.08691406,-0.12792969,1.0673828,18.71875,15.125,6.65625,0.0,0.0,0.0
1696243237031,-0.13574219,-0.13574219,1.0205078,17.125,12.125,5.1875,0.0,0.0,0.0
1696243237061,-0.037109375,-0.17675781,1.0419922,38.6875,-6.375,10.6875,0.0,0.0,0.0
1696243237091,-0.087890625,-0.12109375,1.1113281,32.8125,12.375,8.90625,0.0,0.0,0.0
1696243237153,0.037109375,-0.015625,0.9248047,48.0625,6.625,8.34375,0.0,0.0,0.0
1696243237182,0.16113281,-0.17578125,1.5068359,22.5625,66.75,-4.84375,0.0,0.0,0.0
1696243237212,0.19335938,0.083984375,1.1650391,32.75,35.0625,-0.3125,0.0,0.0,0.0
1696243237271,0.51953125,-0.021484375,1.5820312,5.65625,88.53125,-25.75,0.0,0.0,0.0
1696243237301,-0.15820312,0.18652344,1.265625,13.21875,108.6875,-27.03125,0.0,0.0,0.0
1696243237333,-0.29003906,0.09667969,1.3056641,0.03125,135.28125,-29.625,0.0,0.0,0.0
1696243237393,-0.17285156,0.2685547,1.2529297,-13.375,152.9375,-7.09375,0.0,0.0,0.0
1696243237423,-0.16113281,0.043945312,1.1484375,-61.96875,193.34375,22.21875,-99.75,23.0,-40.25
1696243237453,-0.796875,-0.02734375,0.5722656,-80.34375,284.15625,71.40625,0.0,0.0,0.0
1696243237511,-2.0009766,0.46972656,0.3466797,92.4375,298.8125,179.9375,0.0,0.0,0.0
1696243237542,-2.0009766,0.34960938,0.39648438,-6.96875,271.75,-27.09375,0.0,0.0,0.0
1696243237572,-1.0019531,0.56152344,0.13769531,186.4375,186.375,26.0,0.0,0.0,0.0
1696243237634,0.09375,0.22167969,0.018554688,-69.96875,114.84375,-8.3125,0.0,0.0,0.0
1696243237663,0.32128906,0.0107421875,-0.2529297,-173.1875,23.71875,30.375,0.0,0.0,0.0
1696243237692,-0.56152344,-0.21191406,0.2705078,28.1875,-65.09375,49.5625,0.0,0.0,0.0
1696243237755,0.057617188,-0.040039062,-0.07421875,-55.03125,-19.1875,-13.375,0.0,0.0,0.0
1696243237783,0.064453125,-0.048828125,0.20507812,-9.0625,40.3125,-29.65625,0.0,0.0,0.0
1696243237816,-0.036132812,-0.059570312,-0.39941406,9.75,15.28125,-34.84375,0.0,0.0,0.0
1696243237875,0.16796875,0.12792969,0.08300781,18.28125,7.1875,-3.84375,0.0,0.0,0.0
1696243237905,-0.08105469,0.11328125,0.26367188,-14.125,-1.375,5.125,-105.0,29.4375,-86.625
1696243237933,-0.1875,0.16796875,0.033203125,-20.53125,-71.375,16.21875,0.0,0.0,0.0
1696243237994,-0.22070312,0.06542969,0.6044922,23.40625,-99.28125,34.78125,0.0,0.0,0.0
1696243238024,-2.0009766,-0.4873047,0.05078125,0.71875,-103.34375,64.625,0.0,0.0,0.0
1696243238052,-2.0009766,0.69921875,1.9873047,74.5,-148.21875,-18.9375,0.0,0.0,0.0
1696243238115,-1.6162109,0.6796875,-0.2841797,-313.75,-51.71875,-215.9375,0.0,0.0,0.0
1696243238144,1.3691406,0.8857422,1.5478516,-12.59375,-91.5625,17.8125,0.0,0.0,0.0
1696243238173,-1.8466797,-0.79589844,1.2148438,47.59375,-96.78125,167.71875,0.0,0.0,0.0
1696243238231,-0.9511719,-0.35351562,0.88671875,58.6875,-26.9375,-25.65625,0.0,0.0,0.0
1696243238263,-0.9580078,0.091796875,1.2832031,17.4375,57.21875,26.125,0.0,0.0,0.0
1696243238292,-1.5976562,0.24414062,1.4550781,-22.90625,164.84375,-7.15625,0.0,0.0,0.0
1696243238382,-1.8496094,0.0078125,0.5917969,17.90625,248.625,60.21875,0.0,0.0,0.0
1696243238387,-2.0009766,-0.06640625,0.3955078,99.40625,292.75,23.5625,0.0,0.0,0.0
1696243238413,-1.1503906,0.021484375,0.18554688,121.3125,210.125,-81.78125,-106.375,31.5625,-86.125
1696243238473,-0.43652344,0.6748047,-0.43652344,-50.375,137.59375,-37.0,0.0,0.0,0.0
1696243238502,-0.0126953125,0.07910156,0.69921875,200.1875,-116.65625,34.15625,0.0,0.0,0.0
1696243238534,0.421875,-0.0390625,-0.81152344,-83.03125,-33.71875,17.75,0.0,0.0,0.0
1696243238593,0.16308594,0.16992188,-0.15820312,-140.53125,-1.5,10.6875,0.0,0.0,0.0
1696243238624,-0.27539062,-0.19433594,0.08105469,93.78125,-27.5625,19.59375,0.0,0.0,0.0
1696243238652,-0.107421875,0.0048828125,-0.11425781,51.5,15.0,-28.375,0.0,0.0,0.0
1696243238713,0.2529297,0.13378906,0.10546875,31.65625,-34.28125,8.65625,0.0,0.0,0.0
1696243238743,0.057617188,-0.00390625,0.17773438,60.28125,-16.1875,31.1875,0.0,0.0,0.0
1696243238772,-0.11425781,-0.095703125,0.39257812,61.5625,-34.5625,13.46875,0.0,0.0,0.0
1696243238835,-0.30078125,-0.103515625,0.93652344,5.96875,-72.71875,6.59375,0.0,0.0,0.0
1696243238863,-1.9853516,-0.047851562,-1.3398438,-35.53125,-138.8125,14.21875,0.0,0.0,0.0
1696243238895,-2.0009766,1.5644531,1.9873047,359.09375,44.53125,-12.09375,-105.625,26.3125,-83.3125
1696243238951,-1.6513672,0.64941406,-1.1865234,-310.875,-173.65625,-69.65625,0.0,0.0,0.0
1696243238985,-0.3955078,0.58203125,-0.09667969,26.78125,43.90625,-2.6875,0.0,0.0,0.0
1696243239012,-2.0009766,-0.375,0.5263672,108.5,61.5625,57.1875,0.0,0.0,0.0
1696243239072,-1.1601562,-0.11035156,-0.018554688,-44.9375,59.1875,-15.09375,0.0,0.0,0.0
1696243239102,-0.13671875,0.828125,0.038085938,93.90625,91.21875,12.5,0.0,0.0,0.0
1696243239132,-0.64453125,-0.01171875,0.41308594,122.21875,50.75,44.5,0.0,0.0,0.0
1696243239195,-0.85253906,-0.5175781,0.35742188,50.15625,31.65625,8.15625,0.0,0.0,0.0
1696243239225,-1.0917969,-0.16894531,0.58691406,99.71875,-14.75,-14.03125,0.0,0.0,0.0
1696243239255,-0.93066406,-0.08300781,0.67871094,192.65625,-77.71875,9.09375,0.0,0.0,0.0
1696243239313,-1.3945312,-0.96484375,-0.046875,253.46875,-81.09375,-23.3125,0.0,0.0,0.0
1696243239343,-1.2587891,-0.107421875,0.15429688,247.78125,-47.3125,-72.8125,0.0,0.0,0.0
1696243239371,-1.0029297,-0.4189453,-0.33203125,293.5,-11.625,-87.15625,0.0,0.0,0.0
1696243239434,-0.7919922,-0.4453125,-0.7548828,364.34375,-7.28125,-79.84375,-105.4375,10.375,-79.5625
1696243239462,-1.4072266,-0.8300781,-0.41796875,398.46875,-29.03125,-95.65625,0.0,0.0,0.0
1696243239492,-1.3251953,-0.08691406,-0.7939453,375.96875,-52.8125,-101.3125,0.0,0.0,0.0
1696243239584,-1.3916016,0.17382812,-0.53125,348.25,-75.03125,-97.53125,0.0,0.0,0.0
1696243239587,-1.6074219,-0.11816406,-0.3359375,419.03125,-131.75,-85.09375,0.0,0.0,0.0
1696243239613,-1.1142578,-0.17773438,-0.546875,362.59375,-88.84375,-98.46875,0.0,0.0,0.0
1696243239673,-0.6611328,-0.3125,-0.5078125,351.28125,-34.4375,-76.96875,0.0,0.0,0.0
1696243239702,-0.1640625,-0.62597656,-1.2236328,354.65625,90.0,-94.125,0.0,0.0,0.0
1696243239732,-0.94921875,0.1171875,-1.1513672,498.34375,127.71875,-66.28125,0.0,0.0,0.0
1696243239791,-2.0009766,2.0175781,0.6298828,288.125,95.96875,-16.125,0.0,0.0,0.0
1696243239823,-0.3828125,0.17382812,0.32714844,143.34375,-91.625,77.25,0.0,0.0,0.0
1696243239884,-1.1523438,-1.2861328,-0.2548828,217.09375,-85.65625,56.75,0.0,0.0,0.0
1696243239912,-1.0917969,-1.046875,-0.057617188,228.90625,34.9375,-48.96875,-100.1875,42.8125,-55.4375
1696243239942,-1.0400391,0.38867188,-0.27734375,210.96875,53.75,-68.5,0.0,0.0,0.0
1696243239971,-0.8935547,-0.17773438,0.171875,279.40625,33.65625,-10.1875,0.0,0.0,0.0
1696243240031,-0.8544922,-0.32226562,-0.12109375,227.6875,20.84375,-3.5,0.0,0.0,0.0
1696243240061,-1.0117188,-0.67578125,-0.15625,256.375,-40.3125,18.4375,0.0,0.0,0.0
1696243240091,-1.2089844,-0.6816406,0.38671875,307.46875,-116.25,22.75,0.0,0.0,0.0
1696243240151,-1.3779297,-0.60546875,-0.16699219,342.25,-202.34375,-0.5,0.0,0.0,0.0
1696243240184,-1.3740234,-0.9501953,-0.7705078,350.5625,-245.75,-57.5,0.0,0.0,0.0
1696243240212,-1.8447266,-0.6591797,-0.9785156,378.5625,-138.40625,-168.40625,0.0,0.0,0.0
1696243240275,-1.8242188,0.064453125,-0.9013672,437.0,-71.0625,-196.78125,0.0,0.0,0.0
1696243240304,-1.3916016,-0.072265625,-0.6044922,427.34375,-80.59375,-153.9375,0.0,0.0,0.0
1696243240331,-1.1455078,-0.41503906,-0.6220703,380.28125,-9.0,-143.6875,0.0,0.0,0.0
1696243240393,-0.6533203,-0.31054688,-0.9121094,332.25,64.0625,-130.25,0.0,0.0,0.0
1696243240429,-0.29492188,-0.06347656,-0.9794922,345.3125,140.28125,-71.53125,-106.1875,10.8125,-75.375
1696243240452,-1.2001953,-0.0126953125,-1.0175781,506.15625,116.0,0.34375,0.0,0.0,0.0
1696243240512,-0.9873047,0.42089844,-1.0224609,459.8125,30.6875,19.875,0.0,0.0,0.0
1696243240544,-1.5058594,1.3857422,-0.375,474.53125,-56.25,5.5,0.0,0.0,0.0
1696243240573,-0.96484375,0.640625,0.9267578,-6.96875,-65.34375,-18.5,0.0,0.0,0.0
1696243240667,-1.3134766,-1.1445312,-0.51171875,233.375,-101.21875,24.65625,0.0,0.0,0.0
1696243240673,-1.0087891,-0.15136719,-0.14648438,147.25,-31.65625,-53.15625,0.0,0.0,0.0
1696243240690,-1.0830078,0.12109375,-0.111328125,121.4375,24.375,-37.84375,0.0,0.0,0.0
1696243240754,-0.95996094,0.13867188,0.20117188,97.4375,14.0,-31.1875,0.0,0.0,0.0
1696243240782,-0.74121094,0.30859375,0.19140625,131.5,-2.34375,1.6875,0.0,0.0,0.0
1696243240816,-1.5234375,-0.33007812,0.1015625,114.65625,-40.3125,19.09375,0.0,0.0,0.0
1696243240873,-1.2333984,-0.032226562,-0.0146484375,105.1875,-89.6875,1.21875,0.0,0.0,0.0
1696243240903,-1.0029297,1.0517578,0.23339844,-5.9375,-105.4375,-17.9375,-102.4375,15.625,-52.125
1696243240933,-1.2177734,0.31933594,0.06933594,78.03125,-91.09375,11.34375,0.0,0.0,0.0
1696243240995,-1.1191406,0.11621094,-0.08300781,12.84375,-40.25,2.5625,0.0,0.0,0.0
1696243241021,-0.99121094,0.08691406,-0.20019531,26.34375,-4.90625,-21.125,0.0,0.0,0.0
1696243241052,-0.8261719,0.35058594,0.12695312,49.59375,18.40625,-24.375,0.0,0.0,0.0
1696243241112,-0.75097656,0.28808594,0.2890625,84.21875,14.0,-25.40625,0.0,0.0,0.0
1696243241142,-0.72753906,0.09863281,0.2841797,37.40625,-23.59375,-39.75,0.0,0.0,0.0
1696243241172,-0.5341797,-0.12207031,0.35546875,6.375,-75.21875,-49.9375,0.0,0.0,0.0
1696243241232,-0.04296875,-0.25976562,0.16992188,-12.28125,-95.0625,-53.65625,0.0,0.0,0.0
1696243241266,0.26757812,0.36132812,0.37695312,-35.65625,-71.5625,-6.90625,0.0,0.0,0.0
1696243241291,-1.5507812,0.57128906,0.6455078,-30.71875,-44.8125,119.6875,0.0,0.0,0.0
1696243241353,-2.0009766,-0.4111328,0.3046875,-3.75,77.1875,35.875,0.0,0.0,0.0
1696243241384,-2.0009766,0.42285156,0.23242188,60.71875,199.25,29.34375,0.0,0.0,0.0
1696243241443,-1.8789062,0.38183594,-0.03515625,149.4375,229.71875,-6.21875,-102.875,16.6875,-47.75
1696243241472,-0.75,-0.25195312,0.39160156,19.8125,177.15625,-9.28125,0.0,0.0,0.0
1696243241502,-0.24609375,0.4326172,0.053710938,-185.5625,73.875,-21.4375,0.0,0.0,0.0
1696243241533,0.08203125,0.16992188,0.34472656,67.71875,-153.84375,14.15625,0.0,0.0,0.0
1696243241595,0.29589844,-0.052734375,-0.7578125,-114.9375,-20.40625,-10.09375,0.0,0.0,0.0
1696243241624,-0.099609375,-0.5234375,-0.034179688,55.40625,-1.625,16.40625,0.0,0.0,0.0
1696243241655,-0.109375,0.18261719,-0.091796875,-5.9375,49.0,-18.625,0.0,0.0,0.0
1696243241715,0.1796875,0.3359375,0.11328125,19.9375,11.9375,7.0,0.0,0.0,0.0
1696243241748,-0.08203125,-0.099609375,0.12988281,-37.5625,11.5,16.03125,0.0,0.0,0.0
1696243241775,-0.1796875,-0.076171875,0.21875,-9.59375,-46.0,14.46875,0.0,0.0,0.0
1696243241835,-0.4638672,0.026367188,0.7636719,29.625,-102.75,13.96875,0.0,0.0,0.0
1696243241865,-2.0009766,0.58203125,-0.51660156,-125.75,-172.28125,1.34375,0.0,0.0,0.0
1696243241930,-2.0009766,0.0068359375,1.9736328,71.875,-251.3125,22.03125,-100.375,16.6875,-47.1875
1696243241950,-1.5244141,0.13378906,0.57421875,-91.34375,-134.84375,-74.96875,0.0,0.0,0.0
1696243241981,-1.8632812,-0.25390625,0.94628906,-0.9375,36.40625,8.125,0.0,0.0,0.0
1696243242010,-2.0009766,0.42578125,0.7363281,77.84375,108.625,24.78125,0.0,0.0,0.0
1696243242072,-1.9248047,0.32421875,0.27246094,5.09375,164.34375,42.78125,0.0,0.0,0.0
1696243242102,-1.1308594,0.06640625,0.12402344,91.53125,192.59375,8.65625,0.0,0.0,0.0
1696243242133,-0.6425781,-0.17871094,0.39160156,47.40625,139.75,-8.90625,0.0,0.0,0.0
1696243242193,-0.06542969,0.18359375,-0.06542969,-24.625,101.78125,-26.875,0.0,0.0,0.0
1696243242223,-0.056640625,0.041015625,0.5449219,29.625,-23.03125,7.875,0.0,0.0,0.0
1696243242252,0.0,0.17871094,-0.061523438,-18.5625,-65.75,11.53125,0.0,0.0,0.0
1696243242314,0.12207031,-0.078125,-0.59765625,-60.03125,-13.21875,1.40625,0.0,0.0,0.0
1696243242344,-0.12011719,-0.25976562,0.029296875,44.71875,-26.21875,9.4375,0.0,0.0,0.0
1696243242373,-0.083984375,0.12402344,0.24511719,-16.5625,-4.84375,-15.8125,0.0,0.0,0.0
1696243242433,0.038085938,0.099609375,0.171875,26.21875,-20.65625,1.03125,-103.9375,14.875,-54.5
1696243242463,-0.46972656,0.15527344,0.12988281,-49.15625,-57.71875,-0.125,0.0,0.0,0.0
1696243242493,-2.0009766,0.7714844,0.25390625,114.40625,-105.0,-2.03125,0.0,0.0,0.0
1696243242553,-2.0009766,-0.7216797,-0.64160156,-176.34375,-61.0,25.5,0.0,0.0,0.0
1696243242583,-2.0009766,0.20019531,-0.33984375,2.78125,2.78125,-23.625,0.0,0.0,0.0
1696243242612,-1.4580078,0.7294922,0.022460938,3.6875,80.84375,-12.9375,0.0,0.0,0.0
1696243242671,-0.65625,0.3251953,0.3642578,10.65625,69.0,31.78125,0.0,0.0,0.0
1696243242706,-0.022460938,-0.49316406,0.11816406,-4.71875,56.125,21.28125,0.0,0.0,0.0
1696243242739,0.22558594,0.0234375,0.07519531,-55.5625,47.21875,-14.71875,0.0,0.0,0.0
1696243242793,-0.028320312,0.001953125,0.44335938,40.5625,-22.0625,-7.8125,0.0,0.0,0.0
1696243242823,-0.11230469,-0.046875,-0.21972656,65.09375,-48.5625,-2.28125,0.0,0.0,0.0
1696243242855,-0.1171875,0.1875,-0.34765625,45.21875,-22.5625,14.875,0.0,0.0,0.0
1696243242944,-1.53125,0.65625,1.0332031,160.125,-76.5625,42.96875,-102.4375,19.5625,-52.4375
1696243242949,-2.0009766,-0.05078125,-0.091796875,-78.09375,-125.6875,27.34375,0.0,0.0,0.0
1696243242971,-1.8916016,-0.24316406,-1.6484375,-73.09375,-136.875,37.28125,0.0,0.0,0.0
1696243243033,-2.0009766,-0.33203125,-0.20507812,137.90625,62.15625,-11.71875,0.0,0.0,0.0
1696243243062,-1.0595703,0.67089844,0.375,-12.15625,139.1875,-47.3125,0.0,0.0,0.0
1696243243095,-0.6347656,-0.055664062,0.4814453,-58.875,79.5625,-39.3125,0.0,0.0,0.0
1696243243154,0.00390625,0.49121094,0.5703125,-138.625,61.625,-27.96875,0.0,0.0,0.0
1696243243183,0.17382812,0.328125,0.20019531,-6.0625,-23.53125,38.4375,0.0,0.0,0.0
1696243243213,-0.21484375,-0.2109375,-0.2705078,77.1875,-99.5625,91.25,0.0,0.0,0.0
1696243243275,-0.7363281,-0.29882812,-0.16699219,172.59375,-42.5625,51.875,0.0,0.0,0.0
1696243243302,-1.515625,0.6191406,1.4677734,89.625,-5.59375,45.03125,0.0,0.0,0.0
1696243243333,-1.8769531,-0.026367188,-0.6816406,55.8125,-229.6875,129.9375,0.0,0.0,0.0
1696243243391,-1.0400391,1.0605469,0.056640625,-56.84375,-2.96875,-15.9375,0.0,0.0,0.0
1696243243430,-1.3671875,0.109375,-0.21582031,-111.71875,122.21875,-75.3125,-93.3125,33.5,-46.6875
1696243243452,-0.6298828,0.00390625,0.29785156,-19.25,87.9375,-94.4375,0.0,0.0,0.0
1696243243513,-0.7871094,0.9785156,0.46191406,-214.25,148.15625,-94.25,0.0,0.0,0.0
1696243243543,-1.0039062,1.1220703,0.4765625,34.9375,-3.0625,-31.3125,0.0,0.0,0.0
1696243243572,-0.8886719,-0.026367188,0.20898438,64.5,-112.4375,15.1875,0.0,0.0,0.0
1696243243635,-0.65625,0.16210938,0.14648438,-16.0,-98.90625,-35.28125,0.0,0.0,0.0
1696243243662,-0.9404297,0.049804688,0.1875,-63.3125,-50.4375,-29.0,0.0,0.0,0.0
1696243243692,-0.4873047,-0.4345703,-0.22070312,-45.6875,-16.5625,-100.40625,0.0,0.0,0.0
1696243243755,0.06347656,0.25585938,-0.08203125,8.40625,5.78125,-101.625,0.0,0.0,0.0
1696243243782,-0.35351562,1.4345703,1.8378906,230.1875,-45.3125,56.09375,0.0,0.0,0.0
1696243243813,-2.0009766,0.52246094,0.10449219,-218.28125,166.59375,150.75,0.0,0.0,0.0
1696243243875,-2.0009766,0.14941406,0.16601562,-11.125,108.25,4.625,0.0,0.0,0.0
1696243243904,-1.2568359,0.029296875,0.25976562,46.71875,108.25,-10.75,-102.3125,15.3125,-53.625
1696243243932,-0.5175781,0.5263672,0.52734375,62.96875,43.6875,26.71875,0.0,0.0,0.0
1696243243993,0.115234375,-0.11816406,-0.025390625,5.96875,8.53125,48.46875,0.0,0.0,0.0
1696243244028,0.16601562,-0.22558594,0.091796875,1.625,-11.5,31.65625,0.0,0.0,0.0
1696243244052,-0.0107421875,0.2109375,-0.05859375,76.9375,-71.625,29.78125,0.0,0.0,0.0
1696243244113,-0.26953125,0.0390625,-0.056640625,89.625,-40.5,29.78125,0.0,0.0,0.0
1696243244143,-0.16699219,0.10644531,0.1328125,2.34375,-52.9375,49.5,0.0,0.0,0.0
1696243244175,-0.55566406,0.055664062,0.6591797,41.40625,-77.78125,60.84375,0.0,0.0,0.0
1696243244235,-2.0009766,1.2138672,-1.0703125,36.46875,-32.8125,20.0625,0.0,0.0,0.0
1696243244264,-2.0009766,1.2714844,-0.10546875,-211.6875,41.53125,-52.125,0.0,0.0,0.0
1696243244294,-2.0009766,0.39648438,0.20996094,-15.09375,48.5625,-79.0625,0.0,0.0,0.0
1696243244356,-0.78808594,0.7080078,0.22070312,-55.8125,60.46875,-32.65625,0.0,0.0,0.0
1696243244387,-0.16015625,0.13574219,0.0068359375,-115.5625,41.96875,-0.9375,0.0,0.0,0.0
1696243244412,0.13378906,-0.3486328,-0.016601562,-161.28125,19.125,-5.125,-100.1875,23.75,-51.5
1696243244476,0.013671875,-0.43554688,0.005859375,-105.3125,-5.03125,-40.09375,0.0,0.0,0.0
1696243244502,-0.099609375,-0.25585938,0.16113281,38.625,-5.875,-109.875,0.0,0.0,0.0
1696243244533,0.091796875,-0.072265625,-0.33691406,5.53125,14.5,-95.90625,0.0,0.0,0.0
1696243244594,-0.08496094,0.49316406,0.123046875,23.34375,-31.46875,-61.46875,0.0,0.0,0.0
1696243244624,-2.0009766,1.6220703,1.4384766,-8.1875,-74.625,30.9375,0.0,0.0,0.0
1696243244651,-2.0009766,-0.46289062,-0.3095703,-120.625,-77.71875,91.1875,0.0,0.0,0.0
1696243244715,-2.0009766,-0.7158203,0.22753906,24.625,30.96875,6.46875,0.0,0.0,0.0
1696243244742,-1.4501953,0.484375,-0.15136719,54.53125,106.71875,-44.5625,0.0,0.0,0.0
1696243244771,-0.5449219,0.9238281,0.4423828,74.3125,63.09375,12.0625,0.0,0.0,0.0
1696243244832,0.23828125,0.12207031,0.12695312,-23.9375,51.1875,77.03125,0.0,0.0,0.0
1696243244864,0.27734375,-0.5878906,-0.09082031,30.375,-9.3125,61.5,0.0,0.0,0.0
1696243244923,0.052734375,-0.08203125,-0.0068359375,36.34375,-42.6875,19.53125,-102.125,19.5625,-53.75
1696243244956,-0.09472656,0.27148438,0.29785156,87.9375,-49.53125,34.84375,0.0,0.0,0.0
1696243244984,-0.11328125,0.37402344,0.19042969,143.78125,-76.75,84.90625,0.0,0.0,0.0
1696243245015,-1.1992188,-0.46972656,0.13574219,-6.0,-86.5,47.53125,0.0,0.0,0.0
1696243245075,-2.0009766,1.0361328,-0.38476562,53.125,-109.875,-6.46875,0.0,0.0,0.0
1696243245103,-2.0009766,1.5009766,1.2246094,-209.96875,-17.25,-27.34375,0.0,0.0,0.0
1696243245133,-2.0009766,0.4580078,0.4736328,-12.84375,41.34375,-23.5,0.0,0.0,0.0
1696243245225,-1.3291016,0.14160156,0.052734375,21.59375,90.375,-1.53125,0.0,0.0,0.0
1696243245232,-0.3544922,0.23730469,0.13867188,-77.125,70.40625,18.65625,0.0,0.0,0.0
1696243245252,0.08105469,-0.08496094,0.29492188,-192.09375,55.75,-12.03125,0.0,0.0,0.0
1696243245317,0.32617188,-0.0078125,0.5810547,-170.5625,56.5,-40.15625,0.0,0.0,0.0
1696243245345,0.22265625,-0.4140625,-0.515625,-64.0625,30.0,-26.8125,0.0,0.0,0.0
1696243245372,-0.6669922,0.4296875,-0.06347656,-64.0,125.84375,-22.34375,0.0,0.0,0.0
1696243245433,-2.0009766,0.12988281,1.2724609,-82.40625,43.125,-11.40625,-101.6875,13.6875,-56.625
1696243245465,-1.1123047,1.2402344,-1.0205078,-172.5,-19.5,-25.28125,0.0,0.0,0.0
1696243245496,-1.2978516,-0.734375,-0.6513672,82.5625,55.53125,85.0625,0.0,0.0,0.0
1696243245553,-1.3447266,-0.50390625,0.083984375,-108.0625,66.8125,-60.6875,0.0,0.0,0.0
1696243245585,-0.71777344,0.53808594,0.21191406,-80.34375,7.46875,-38.53125,0.0,0.0,0.0
1696243245613,-0.85839844,0.82421875,0.044921875,-91.34375,60.78125,3.53125,0.0,0.0,0.0
1696243245676,-1.1162109,-0.30371094,0.08105469,-128.0,81.28125,25.0625,0.0,0.0,0.0
1696243245707,-1.0039062,-0.30859375,0.22460938,-122.53125,73.8125,-8.25,0.0,0.0,0.0
1696243245732,-0.90234375,-0.13085938,0.36914062,-80.40625,60.09375,-15.5625,0.0,0.0,0.0
1696243245794,-1.0585938,0.07714844,0.36328125,-99.15625,27.6875,-8.8125,0.0,0.0,0.0
1696243245824,-0.9746094,0.03515625,0.46289062,-94.125,-29.1875,3.71875,0.0,0.0,0.0
1696243245853,-0.9511719,-0.14160156,0.36816406,-85.03125,-83.71875,9.15625,0.0,0.0,0.0
1696243245915,-1.2568359,-0.013671875,-0.25878906,-131.96875,-119.15625,-13.375,-105.625,5.125,-71.3125
1696243245944,-1.2705078,0.53125,0.22851562,-31.8125,-103.0,1.34375,0.0,0.0,0.0
1696243245972,-1.4775391,0.19628906,0.7470703,64.90625,-209.9375,51.625,0.0,0.0,0.0
1696243246035,-0.9902344,0.2548828,-0.30371094,41.96875,-169.6875,10.25,0.0,0.0,0.0
1696243246063,-0.65234375,0.017578125,0.22558594,-15.40625,-42.875,-12.28125,0.0,0.0,0.0
1696243246093,-0.63183594,0.14941406,0.3359375,10.65625,-1.0625,-14.53125,0.0,0.0,0.0
1696243246154,-0.5214844,0.021484375,0.2685547,13.15625,47.40625,-26.0625,0.0,0.0,0.0
1696243246184,-0.6425781,0.036132812,0.22753906,-34.375,95.6875,-35.46875,0.0,0.0,0.0
1696243246220,-0.5263672,0.28515625,0.31347656,-60.625,140.65625,-49.875,0.0,0.0,0.0
1696243246275,-0.96484375,0.18164062,0.35058594,-85.34375,106.125,4.09375,0.0,0.0,0.0
1696243246303,-2.0009766,-0.0107421875,0.33691406,-74.125,42.53125,6.34375,0.0,0.0,0.0
1696243246333,-0.5029297,0.453125,0.016601562,-83.75,-2.71875,-0.6875,0.0,0.0,0.0
1696243246392,-0.5859375,-0.022460938,-0.26464844,25.125,59.375,61.9375,0.0,0.0,0.0
1696243246427,-1.8173828,-0.6220703,0.01171875,-64.59375,72.25,-14.28125,-102.3125,2.5625,-68.75
1696243246516,-0.8144531,0.38085938,0.35351562,-33.78125,16.625,-27.03125,0.0,0.0,0.0
1696243246523,-0.88378906,0.18652344,0.16210938,-65.34375,28.40625,20.625,0.0,0.0,0.0
1696243246545,-1.1279297,-0.3876953,-0.18847656,-66.125,28.53125,16.03125,0.0,0.0,0.0
1696243246574,-1.0400391,-0.10058594,0.013671875,8.8125,22.5625,3.09375,0.0,0.0,0.0
1696243246633,-1.21875,0.10253906,0.23632812,-21.8125,-10.65625,-4.21875,0.0,0.0,0.0
1696243246663,-1.2685547,0.53027344,0.5058594,-123.9375,-78.53125,-10.09375,0.0,0.0,0.0
1696243246692,-1.2958984,0.5371094,0.7939453,-201.4375,-227.625,-2.9375,0.0,0.0,0.0
1696243246758,-1.4882812,-0.041992188,0.4638672,-79.625,-445.875,-14.84375,0.0,0.0,0.0
1696243246787,-0.55859375,-0.6347656,0.119140625,167.59375,-450.59375,51.25,0.0,0.0,0.0
1696243246817,-2.0009766,-0.6699219,1.9873047,120.59375,-345.46875,66.21875,0.0,0.0,0.0
1696243246874,0.40722656,1.1582031,-0.01953125,203.59375,-175.8125,24.46875,0.0,0.0,0.0
1696243246904,0.28222656,0.54589844,-0.0234375,-31.21875,114.78125,4.6875,-76.8125,13.5625,-29.3125
1696243246934,-0.21386719,0.07714844,-0.41601562,-108.53125,222.4375,-17.21875,0.0,0.0,0.0
1696243246992,-0.13378906,-0.28710938,-0.34179688,-102.875,315.65625,-43.65625,0.0,0.0,0.0
1696243247022,-0.10449219,-0.91796875,-0.009765625,-0.8125,330.25,-92.46875,0.0,0.0,0.0
1696243247052,0.07519531,-0.13574219,-0.41308594,-144.0,400.65625,-63.65625,0.0,0.0,0.0
1696243247112,-1.0917969,1.171875,0.7714844,3.8125,288.78125,18.53125,0.0,0.0,0.0
1696243247143,-2.0009766,0.09765625,1.9033203,-51.96875,151.84375,56.21875,0.0,0.0,0.0
1696243247171,-2.0009766,-0.8066406,0.8466797,-180.125,-90.0625,15.125,0.0,0.0,0.0
1696243247235,-1.8242188,-0.22851562,0.18847656,5.65625,-220.96875,4.15625,0.0,0.0,0.0
1696243247263,-1.3359375,0.3984375,0.8623047,-72.21875,-412.125,11.96875,0.0,0.0,0.0
1696243247325,-0.21386719,0.29589844,-1.328125,284.9375,-407.8125,-28.375,0.0,0.0,0.0
1696243247356,-0.3701172,-1.0302734,1.1289062,42.21875,-257.03125,40.21875,0.0,0.0,0.0
1696243247383,-1.4492188,-0.43554688,1.3486328,0.40625,-9.78125,39.71875,0.0,0.0,0.0
1696243247444,-0.15722656,0.84277344,0.21679688,-51.84375,20.65625,-58.71875,-86.875,12.3125,-34.6875
1696243247503,0.8203125,0.8359375,-0.4326172,-73.25,238.75,-49.03125,0.0,0.0,0.0
1696243247510,-0.24023438,-1.2470703,0.053710938,5.59375,343.125,-42.96875,0.0,0.0,0.0
1696243247564,-0.5058594,-0.86621094,-0.5888672,-113.125,300.21875,-3.0,0.0,0.0,0.0
1696243247599,-0.8613281,0.5097656,0.2607422,13.09375,360.75,-7.625,0.0,0.0,0.0
1696243247630,-2.0009766,1.0146484,1.5283203,192.375,76.625,-13.4375,0.0,0.0,0.0
1696243247657,-0.8691406,0.8095703,-1.6767578,-562.15625,65.84375,-11.125,0.0,0.0,0.0
1696243247710,-1.34375,-1.1582031,0.02734375,103.375,-44.40625,107.0,0.0,0.0,0.0
1696243247740,-2.0009766,-0.021484375,1.0957031,-147.46875,-67.84375,-63.0625,0.0,0.0,0.0
1696243247802,-0.671875,0.6074219,0.98339844,-87.65625,-189.28125,-53.46875,0.0,0.0,0.0
1696243247833,0.07128906,0.44726562,-0.25976562,84.3125,-243.0,17.15625,0.0,0.0,0.0
1696243247863,-0.6611328,-1.5175781,-0.26464844,173.3125,-322.71875,-3.78125,0.0,0.0,0.0
1696243247924,-1.2998047,1.7832031,1.5771484,-1.0625,-106.71875,-13.5,-93.0,9.0625,-44.0
1696243247953,-0.61035156,0.36621094,0.7841797,-115.25,-27.0625,36.625,0.0,0.0,0.0
1696243247983,0.31933594,0.21777344,0.12597656,-41.40625,142.90625,1.34375,0.0,0.0,0.0
1696243248043,-0.40039062,0.06640625,0.25585938,-31.40625,256.625,39.0625,0.0,0.0,0.0
1696243248074,-1.328125,-0.06640625,-0.0029296875,-64.65625,237.03125,59.0,0.0,0.0,0.0
1696243248104,-0.6699219,-0.041992188,-0.19726562,-109.71875,271.9375,40.34375,0.0,0.0,0.0
1696243248162,-0.7128906,-0.025390625,-0.2939453,8.8125,272.8125,37.21875,0.0,0.0,0.0
1696243248192,-1.0673828,0.6464844,1.1523438,136.21875,74.625,6.40625,0.0,0.0,0.0
1696243248225,-1.8554688,1.1865234,0.5878906,-148.21875,-36.59375,59.0625,0.0,0.0,0.0
1696243248283,-1.3544922,-1.1640625,-0.7597656,-267.40625,-82.375,52.0625,0.0,0.0,0.0
1696243248311,-1.5820312,-0.16210938,0.3203125,12.5625,9.25,24.90625,0.0,0.0,0.0
1696243248342,-1.4648438,-0.19726562,-0.17480469,2.0,64.4375,-1.78125,0.0,0.0,0.0
1696243248403,-1.1494141,0.7080078,0.35351562,-0.6875,75.53125,-26.5,0.0,0.0,0.0
1696243248431,-0.640625,0.8652344,0.31640625,-97.6875,42.625,44.1875,-106.625,14.0,-83.3125
1696243248463,-0.5839844,-0.15820312,0.026367188,-207.0,-9.53125,72.0,0.0,0.0,0.0
1696243248526,-0.5283203,-0.29101562,-0.049804688,-195.34375,-41.65625,35.6875,0.0,0.0,0.0
1696243248552,-0.6425781,-0.15625,0.11328125,-55.8125,-80.59375,-2.03125,0.0,0.0,0.0
1696243248583,-0.9267578,0.10058594,0.24511719,-39.875,-124.96875,-31.3125,0.0,0.0,0.0
1696243248644,-1.1142578,0.3642578,0.7167969,-8.8125,-193.25,43.75,0.0,0.0,0.0
1696243248672,-1.2138672,0.31347656,0.6933594,-80.28125,-87.78125,55.0,0.0,0.0,0.0
1696243248702,-1.2080078,0.16308594,0.26171875,-99.9375,44.78125,4.875,0.0,0.0,0.0
1696243248763,-1.0419922,-0.06933594,0.31445312,-36.15625,126.3125,-21.0625,0.0,0.0,0.0
1696243248792,-1.0058594,-0.20898438,0.33984375,-119.34375,154.21875,-15.5,0.0,0.0,0.0
1696243248822,-0.7685547,0.53027344,-0.033203125,-108.1875,152.1875,28.9375,0.0,0.0,0.0
1696243248883,-0.6923828,0.41210938,-0.020507812,39.03125,109.71875,29.46875,0.0,0.0,0.0
1696243248915,-0.28320312,0.055664062,-0.041992188,-7.28125,83.21875,18.4375,-107.375,24.5,-86.125
1696243248944,-0.3154297,0.39648438,-0.0146484375,-23.21875,72.125,22.15625,0.0,0.0,0.0
1696243249004,-1.5595703,0.20507812,1.3564453,152.0,-27.1875,42.84375,0.0,0.0,0.0
1696243249033,-2.0009766,-0.18164062,1.4287109,-95.0625,-115.6875,-26.5,0.0,0.0,0.0
1696243249064,-0.59472656,0.2578125,-0.41308594,12.78125,-98.90625,40.21875,0.0,0.0,0.0
1696243249123,-1.4804688,-0.5859375,0.38085938,-14.0625,21.75,12.625,0.0,0.0,0.0
1696243249157,-1.0507812,0.09863281,-0.103515625,-3.6875,24.03125,-3.5625,0.0,0.0,0.0
1696243249181,-0.81933594,-0.01953125,0.09863281,67.40625,26.53125,1.15625,0.0,0.0,0.0
1696243249243,-0.78027344,0.6230469,0.13574219,11.8125,17.84375,18.96875,0.0,0.0,0.0
1696243249283,-1.0126953,0.0390625,0.1328125,-61.4375,8.8125,41.6875,0.0,0.0,0.0
1696243249302,-0.8857422,0.0390625,0.03515625,-58.25,-32.375,34.53125,0.0,0.0,0.0
1696243249364,-0.9326172,0.6074219,0.34179688,-81.875,-39.40625,-4.90625,0.0,0.0,0.0
1696243249393,-1.2060547,0.32128906,0.24804688,-68.9375,-49.9375,-7.28125,0.0,0.0,0.0
1696243249422,-1.0585938,0.5732422,0.5996094,-60.5,-29.0625,-17.15625,-106.9375,32.4375,-80.625
1696243249487,-0.67285156,0.6796875,0.28808594,-41.90625,-44.28125,-6.1875,0.0,0.0,0.0
1696243249513,-0.5703125,0.080078125,0.20605469,-41.34375,-49.03125,36.5,0.0,0.0,0.0
1696243249545,-0.77246094,-0.22460938,0.21972656,-64.96875,-23.21875,10.84375,0.0,0.0,0.0
1696243249604,-0.59277344,-0.20996094,0.25390625,-27.71875,-27.0,-54.875,0.0,0.0,0.0
1696243249633,-0.55371094,0.07421875,0.45898438,-16.0625,-25.59375,-59.09375,0.0,0.0,0.0
1696243249662,-1.5058594,0.26660156,0.921875,61.375,-190.09375,-4.03125,0.0,0.0,0.0
1696243249724,-0.2919922,0.8378906,0.15722656,-73.3125,-176.21875,21.46875,0.0,0.0,0.0
1696243249787,-0.67871094,0.28222656,0.87402344,18.59375,-140.21875,90.875,0.0,0.0,0.0
1696243249793,-1.2138672,-0.29589844,0.50878906,-99.6875,-125.625,-23.3125,0.0,0.0,0.0
1696243249845,-0.5546875,0.03515625,0.6464844,41.84375,-139.90625,-35.78125,0.0,0.0,0.0
1696243249873,-0.16015625,0.3701172,0.7402344,-34.25,-137.71875,6.59375,0.0,0.0,0.0
1696243249902,-0.24316406,-0.09667969,0.7519531,-39.34375,-142.90625,-7.21875,-98.125,29.875,-44.0
1696243249964,-0.13769531,-0.029296875,0.89941406,-22.0625,-146.75,-8.8125,0.0,0.0,0.0
1696243249991,-0.56640625,0.047851562,0.8955078,15.1875,-151.21875,-2.5,0.0,0.0,0.0
1696243250025,-0.080078125,0.09375,1.3369141,49.0,-122.15625,-19.28125,0.0,0.0,0.0
1696243250084,0.40625,0.3798828,1.578125,-10.46875,-68.125,-14.90625,0.0,0.0,0.0
1696243250112,0.23339844,0.02734375,1.7539062,-19.96875,-23.875,-7.875,0.0,0.0,0.0
1696243250143,0.095703125,-0.07421875,1.6005859,-26.34375,2.71875,-10.875,0.0,0.0,0.0
1696243250207,0.05859375,-0.06640625,1.2949219,-33.40625,7.90625,-11.1875,0.0,0.0,0.0
1696243250236,0.1484375,0.015625,0.9433594,-38.21875,14.5625,-9.09375,0.0,0.0,0.0
1696243250263,0.18652344,-0.08984375,0.9091797,-33.84375,21.65625,-0.5625,0.0,0.0,0.0
1696243250324,-0.06640625,-0.20117188,0.6308594,-42.75,30.6875,-1.40625,0.0,0.0,0.0
1696243250360,-0.20800781,-0.08105469,0.6230469,-35.65625,18.84375,-2.75,0.0,0.0,0.0
1696243250385,-0.13574219,-0.040039062,0.67871094,7.0,1.125,0.71875,0.0,0.0,0.0
1696243250445,-0.13574219,-0.07324219,0.7734375,-0.5,8.21875,0.71875,-87.125,22.5625,-30.1875
1696243250473,-0.1875,0.04296875,0.73535156,17.75,-9.84375,-2.09375,0.0,0.0,0.0
1696243250503,-0.16992188,-0.033203125,1.0576172,25.96875,-12.65625,-2.375,0.0,0.0,0.0
1696243250576,-0.25878906,0.020507812,1.3945312,13.34375,-33.59375,-5.6875,0.0,0.0,0.0
1696243250591,-0.11230469,0.03515625,1.4130859,9.75,-70.71875,-5.125,0.0,0.0,0.0
1696243250623,0.17675781,-0.0078125,1.2714844,-10.9375,-20.96875,-3.1875,0.0,0.0,0.0
1696243250681,0.10644531,-0.09375,1.1103516,-2.53125,-4.40625,6.8125,0.0,0.0,0.0
1696243250714,0.14453125,-0.11328125,1.0263672,-5.8125,24.75,12.6875,0.0,0.0,0.0
1696243250743,0.083984375,-0.119140625,0.95996094,-13.28125,45.3125,15.375,0.0,0.0,0.0
1696243250803,-0.013671875,-0.1015625,0.88671875,-19.6875,59.65625,12.75,0.0,0.0,0.0
1696243250833,-0.3017578,-0.09082031,0.81640625,1.6875,29.28125,9.5,0.0,0.0,0.0
1696243250862,-0.22753906,-0.046875,0.9511719,13.53125,-1.71875,-4.9375,0.0,0.0,0.0
1696243250925,-0.1953125,-0.0078125,0.85839844,11.03125,-22.375,-6.34375,-88.9375,25.0625,-30.5
1696243250956,-0.16015625,-0.05859375,0.8095703,15.40625,-39.21875,-8.6875,0.0,0.0,0.0
1696243250982,0.034179688,0.0,0.9433594,23.65625,-24.3125,-5.8125,0.0,0.0,0.0
1696243251076,-0.017578125,0.053710938,1.0283203,14.3125,-13.09375,-5.0625,0.0,0.0,0.0
1696243251085,0.203125,0.07324219,1.0292969,3.9375,21.75,-5.1875,0.0,0.0,0.0
1696243251101,-0.12207031,0.013671875,1.5136719,-1.0,33.0625,7.5,0.0,0.0,0.0
1696243251163,0.15332031,-0.06738281,1.3085938,-8.6875,-22.375,-1.90625,0.0,0.0,0.0
1696243251193,-0.07128906,-0.0048828125,0.79785156,-22.71875,38.65625,9.75,0.0,0.0,0.0
1696243251224,-0.19140625,-0.07421875,0.9951172,7.125,28.28125,9.5,0.0,0.0,0.0
1696243251313,-0.20410156,-0.043945312,0.95214844,-11.9375,21.46875,5.59375,0.0,0.0,0.0
1696243251320,-0.22753906,-0.0107421875,0.8564453,1.5,8.21875,3.15625,0.0,0.0,0.0
1696243251342,-0.19921875,0.032226562,0.8105469,-3.625,3.5625,1.9375,0.0,0.0,0.0
1696243251403,-0.23925781,0.0087890625,0.83203125,4.8125,-11.375,2.375,0.0,0.0,0.0
1696243251433,-0.17382812,-0.021484375,0.9707031,5.71875,-14.1875,-1.90625,-89.125,26.75,-29.625
1696243251465,-0.19238281,0.025390625,0.9716797,1.9375,-23.53125,-2.09375,0.0,0.0,0.0
1696243251556,-0.13183594,0.00390625,0.9345703,15.40625,-29.375,-0.8125,0.0,0.0,0.0
1696243251562,9.765625E-4,-0.044921875,1.1542969,-0.09375,-14.84375,-2.625,0.0,0.0,0.0
1696243251581,-0.05078125,-0.032226562,1.1640625,4.4375,-11.6875,-1.21875,0.0,0.0,0.0
1696243251675,0.08203125,-0.060546875,1.1494141,2.25,-2.34375,-1.03125,0.0,0.0,0.0
1696243251681,0.056640625,-0.053710938,1.1181641,2.1875,7.96875,1.46875,0.0,0.0,0.0
1696243251701,-0.0029296875,-0.017578125,0.9892578,7.90625,0.09375,6.03125,0.0,0.0,0.0
1696243251764,-0.064453125,-0.061523438,1.0117188,8.59375,11.3125,6.15625,0.0,0.0,0.0
1696243251792,-0.049804688,-0.016601562,1.0078125,10.28125,20.375,4.03125,0.0,0.0,0.0
1696243251824,-0.036132812,-0.055664062,1.03125,17.5,32.625,4.5,0.0,0.0,0.0
1696243251884,-0.057617188,0.013671875,1.0400391,15.53125,27.5,11.96875,0.0,0.0,0.0
1696243251914,-0.0068359375,0.036132812,1.1884766,32.875,24.28125,25.3125,-88.8125,30.8125,-29.3125
1696243251944,0.0546875,0.056640625,1.2871094,28.40625,48.0625,6.34375,0.0,0.0,0.0
1696243252005,-0.17578125,0.10449219,1.2216797,15.84375,76.21875,-3.59375,0.0,0.0,0.0
1696243252064,-0.34960938,0.16308594,1.1787109,4.625,98.71875,-8.5625,0.0,0.0,0.0
1696243252070,-0.40527344,0.19921875,1.03125,-4.78125,117.15625,-7.21875,0.0,0.0,0.0
1696243252121,-0.4267578,0.20019531,0.8300781,-24.4375,129.5,-2.6875,0.0,0.0,0.0
1696243252154,-0.5214844,0.057617188,0.75683594,-41.90625,138.09375,9.4375,0.0,0.0,0.0
1696243252181,-0.52734375,-0.0048828125,0.7011719,-50.4375,143.40625,15.75,0.0,0.0,0.0
1696243252243,-0.515625,0.040039062,0.6191406,-52.34375,142.75,14.8125,0.0,0.0,0.0
1696243252273,-0.6230469,-0.0029296875,0.54296875,-65.34375,138.65625,26.0,0.0,0.0,0.0
1696243252305,-0.7832031,-0.09765625,0.48339844,-55.875,124.0625,22.5,0.0,0.0,0.0
1696243252368,-0.9375,-0.05078125,0.4404297,-48.71875,108.1875,17.4375,0.0,0.0,0.0
1696243252396,-0.77441406,0.07324219,0.42773438,-38.59375,88.96875,26.65625,0.0,0.0,0.0
1696243252425,-0.84375,0.18066406,0.50683594,-49.46875,71.625,36.25,-108.3125,30.1875,-68.625
1696243252489,-0.8671875,0.18457031,0.5654297,-51.0625,73.09375,33.5,0.0,0.0,0.0
1696243252512,-0.80859375,-0.09667969,0.3876953,-12.15625,7.25,44.1875,0.0,0.0,0.0
1696243252542,-0.85839844,0.32226562,0.23632812,-95.0,-6.3125,66.21875,0.0,0.0,0.0
1696243252602,-1.0048828,0.6796875,0.31054688,-51.53125,3.75,105.46875,0.0,0.0,0.0
1696243252635,-0.91796875,0.32910156,0.2421875,-74.71875,0.46875,97.15625,0.0,0.0,0.0
1696243252663,-0.8964844,-0.076171875,0.28710938,-96.15625,4.375,68.46875,0.0,0.0,0.0
1696243252726,-0.8105469,-0.08984375,0.40527344,-61.25,8.15625,49.1875,0.0,0.0,0.0
1696243252754,-0.6875,0.20898438,0.43164062,-54.78125,11.9375,29.53125,0.0,0.0,0.0
1696243252780,-0.7216797,0.296875,0.4345703,-63.0625,40.0,30.25,0.0,0.0,0.0
1696243252843,-0.79589844,0.2861328,0.43164062,-97.0,56.375,10.6875,0.0,0.0,0.0
1696243252876,-0.9140625,0.5654297,0.38964844,-98.59375,34.28125,15.4375,0.0,0.0,0.0
1696243252902,-1.7783203,-0.059570312,1.0458984,49.40625,-22.5625,56.8125,-100.5,46.375,-64.875
1696243252963,-0.23925781,0.0078125,-0.3935547,-137.59375,51.71875,-38.59375,0.0,0.0,0.0
1696243252993,-1.1298828,0.14355469,0.203125,-101.78125,50.875,47.65625,0.0,0.0,0.0
1696243253023,-1.3408203,-0.21972656,0.072265625,-46.03125,74.0625,-23.625,0.0,0.0,0.0
1696243253084,-0.8964844,0.119140625,0.033203125,-39.21875,48.75,-9.21875,0.0,0.0,0.0
1696243253112,-0.9970703,0.2265625,0.1875,-54.65625,44.03125,23.75,0.0,0.0,0.0
1696243253143,-1.0507812,-0.099609375,0.06640625,-86.875,65.15625,-5.75,0.0,0.0,0.0
1696243253206,-0.9580078,-0.0078125,0.09667969,-59.46875,61.6875,-15.5,0.0,0.0,0.0
1696243253232,-0.8798828,0.02734375,0.1328125,-17.28125,56.375,-11.375,0.0,0.0,0.0
1696243253262,-1.0136719,0.09375,0.16210938,-18.9375,56.6875,-11.40625,0.0,0.0,0.0
1696243253325,-0.9199219,0.15039062,0.234375,-27.375,33.1875,-6.28125,0.0,0.0,0.0
1696243253355,-0.93359375,0.103515625,0.24121094,-29.0625,11.4375,3.09375,0.0,0.0,0.0
1696243253383,-0.9423828,-0.09667969,0.05078125,-55.3125,14.625,-1.03125,0.0,0.0,0.0
1696243253441,-0.9980469,-0.051757812,0.072265625,-29.25,18.28125,2.25,-103.0625,42.8125,-71.625
1696243253473,-0.9980469,0.053710938,0.022460938,-25.34375,25.90625,-2.21875,0.0,0.0,0.0
1696243253502,-1.0146484,0.06738281,-0.016601562,-29.4375,31.65625,3.59375,0.0,0.0,0.0
1696243253561,-1.0371094,0.07324219,0.055664062,-53.1875,32.125,4.3125,0.0,0.0,0.0
1696243253593,-1.0,0.13964844,0.17578125,-64.71875,8.75,10.6875,0.0,0.0,0.0
1696243253623,-1.3681641,-0.0546875,-0.21679688,-71.1875,-38.40625,28.75,0.0,0.0,0.0
1696243253683,-1.1601562,0.09765625,-0.13183594,-64.46875,-109.46875,2.5625,0.0,0.0,0.0
1696243253713,-1.2773438,0.7363281,0.30273438,-6.96875,-211.875,40.21875,0.0,0.0,0.0
1696243253743,-1.4257812,0.1484375,-0.013671875,-67.40625,-213.71875,81.40625,0.0,0.0,0.0
1696243253804,-1.3515625,0.24316406,0.11328125,-110.8125,-123.8125,43.21875,0.0,0.0,0.0
1696243253832,-1.1005859,0.12792969,0.001953125,27.0625,-101.34375,-25.34375,0.0,0.0,0.0
1696243253862,-0.59472656,0.18066406,0.0029296875,34.40625,-68.5625,-56.78125,0.0,0.0,0.0
1696243253926,-0.52246094,0.21484375,0.24902344,30.375,-28.09375,-46.8125,-89.875,41.75,-43.4375
1696243253954,-0.17089844,0.005859375,0.4140625,25.6875,49.46875,-40.90625,0.0,0.0,0.0
1696243253983,-0.35546875,0.07128906,0.671875,-19.8125,104.90625,-14.15625,0.0,0.0,0.0
1696243254045,-1.3115234,-0.22265625,0.5546875,22.5625,93.71875,-21.0,0.0,0.0,0.0
1696243254074,-1.7177734,0.48339844,0.24316406,-27.90625,-26.28125,-52.4375,0.0,0.0,0.0
1696243254104,-0.8105469,0.57910156,0.58691406,37.4375,9.125,-46.15625,0.0,0.0,0.0
1696243254163,-0.3623047,0.4921875,0.23339844,13.53125,-17.0,42.09375,0.0,0.0,0.0
1696243254194,-1.2451172,-0.15527344,0.36523438,26.78125,20.40625,81.34375,0.0,0.0,0.0
1696243254221,-1.1396484,-0.36621094,0.3876953,0.09375,24.9375,-20.625,0.0,0.0,0.0
1696243254280,-0.74121094,0.10058594,0.36816406,-2.71875,24.5,-49.8125,0.0,0.0,0.0
1696243254344,-0.92089844,0.3251953,0.3232422,-3.3125,10.28125,-9.90625,0.0,0.0,0.0
1696243254350,-0.9941406,0.17578125,0.3125,11.8125,-7.40625,11.09375,0.0,0.0,0.0
1696243254401,-0.9560547,0.0234375,0.24023438,14.75,-3.125,10.90625,0.0,0.0,0.0
1696243254433,-0.97265625,0.0078125,0.28125,6.15625,5.40625,-3.4375,-94.625,38.75,-51.8125
1696243254463,-0.9765625,0.099609375,0.3544922,9.625,8.15625,-5.375,0.0,0.0,0.0
1696243254525,-0.9658203,0.06640625,0.3017578,4.3125,10.28125,-3.0625,0.0,0.0,0.0
1696243254554,-0.9404297,0.059570312,0.26953125,9.4375,7.90625,1.21875,0.0,0.0,0.0
1696243254584,-0.95410156,0.091796875,0.32226562,8.71875,5.21875,1.40625,0.0,0.0,0.0
1696243254645,-0.9658203,0.08496094,0.32617188,3.34375,4.625,-1.09375,0.0,0.0,0.0
1696243254672,-0.95410156,0.056640625,0.32421875,-0.8125,7.0625,-1.53125,0.0,0.0,0.0
1696243254704,-0.9423828,0.06640625,0.27246094,8.78125,3.40625,1.6875,0.0,0.0,0.0
1696243254763,-0.9765625,0.0546875,0.3203125,13.46875,5.28125,2.4375,0.0,0.0,0.0
1696243254797,-0.9453125,0.099609375,0.27539062,12.4375,3.09375,1.34375,0.0,0.0,0.0
1696243254823,-0.9511719,0.16503906,0.28320312,7.78125,7.53125,1.46875,0.0,0.0,0.0
1696243254882,-0.9736328,0.14648438,0.30859375,-3.75,8.46875,1.15625,0.0,0.0,0.0
1696243254915,-0.96875,0.111328125,0.28027344,-2.21875,8.53125,5.3125,-96.4375,39.5,-56.4375
1696243254943,-0.9375,0.107421875,0.25,-9.4375,19.5625,1.03125,0.0,0.0,0.0
1696243255003,-1.0107422,0.08496094,0.28808594,-4.34375,23.28125,3.46875,0.0,0.0,0.0
1696243255033,-0.95214844,0.11816406,0.2578125,-8.15625,26.84375,-0.6875,0.0,0.0,0.0
1696243255068,-0.9550781,0.11035156,0.2421875,-10.15625,30.5,1.8125,0.0,0.0,0.0
1696243255125,-0.96972656,0.08203125,0.19824219,-4.96875,30.625,6.03125,0.0,0.0,0.0
1696243255158,-1.0263672,0.107421875,0.18652344,-7.59375,29.21875,6.78125,0.0,0.0,0.0
1696243255182,-0.9501953,0.13769531,0.15722656,-6.375,25.375,3.15625,0.0,0.0,0.0
1696243255244,-1.0068359,0.11230469,0.13183594,-7.65625,23.34375,10.4375,0.0,0.0,0.0
1696243255276,-1.0429688,0.1328125,0.09277344,-11.4375,15.96875,7.9375,0.0,0.0,0.0
1696243255302,-0.9638672,0.14160156,0.08105469,-4.40625,3.9375,1.46875,0.0,0.0,0.0
1696243255366,-0.95703125,0.12011719,0.09667969,1.6875,-3.6875,-1.09375,0.0,0.0,0.0
1696243255397,-0.99121094,0.1484375,0.12695312,4.875,-9.90625,2.6875,0.0,0.0,0.0
1696243255423,-1.0205078,0.13671875,0.13378906,5.53125,-14.78125,0.46875,-95.5625,39.0625,-60.5
1696243255484,-0.96777344,0.14257812,0.11328125,9.0625,-10.21875,1.21875,0.0,0.0,0.0
1696243255512,-1.0078125,0.09082031,0.18652344,10.78125,-9.1875,3.46875,0.0,0.0,0.0
1696243255541,-1.0097656,0.09375,0.22167969,11.4375,-12.84375,-1.21875,0.0,0.0,0.0
1696243255606,-0.9355469,0.09765625,0.23535156,5.59375,-14.25,-5.25,0.0,0.0,0.0
1696243255633,-1.0273438,0.09082031,0.20898438,10.65625,-15.65625,-5.875,0.0,0.0,0.0
1696243255662,-1.0048828,0.15234375,0.23046875,12.78125,-20.46875,-9.96875,0.0,0.0,0.0
1696243255722,-0.9277344,0.16503906,0.18945312,4.4375,-25.125,-1.96875,0.0,0.0,0.0
1696243255754,-1.0371094,0.109375,0.21679688,8.59375,-19.875,1.53125,0.0,0.0,0.0
1696243255782,-0.95703125,0.08105469,0.16699219,3.8125,-17.34375,-8.3125,0.0,0.0,0.0
1696243255843,-0.9140625,0.13574219,0.16796875,5.34375,-9.4375,-1.71875,0.0,0.0,0.0
1696243255871,-1.0351562,0.15332031,0.24804688,1.3125,-3.3125,0.59375,0.0,0.0,0.0
1696243255908,-0.9433594,0.123046875,0.234375,0.34375,-5.09375,-1.90625,-94.8125,40.0625,-56.625
1696243255962,-0.9970703,0.10449219,0.24121094,-0.09375,0.875,1.8125,0.0,0.0,0.0
1696243255993,-1.0009766,0.07128906,0.27929688,0.46875,-1.90625,-0.875,0.0,0.0,0.0
1696243256023,-0.9345703,0.15136719,0.22265625,-5.34375,0.53125,-0.9375,0.0,0.0,0.0
1696243256084,-1.0576172,0.09277344,0.2548828,-2.34375,-0.6875,-0.9375,0.0,0.0,0.0
1696243256113,-0.8964844,0.13085938,0.23242188,-7.59375,3.75,-3.59375,0.0,0.0,0.0
1696243256141,-1.0039062,0.12011719,0.24023438,-2.53125,2.1875,4.03125,0.0,0.0,0.0
1696243256201,-0.9580078,0.111328125,0.3310547,-0.09375,-3.3125,-3.25,0.0,0.0,0.0
1696243256233,-0.90527344,0.08691406,0.2890625,2.125,-2.65625,-0.1875,0.0,0.0,0.0
1696243256262,-1.0097656,0.08105469,0.34472656,9.6875,-3.8125,0.96875,0.0,0.0,0.0
1696243256323,-0.95703125,0.087890625,0.35351562,17.125,-3.9375,-2.875,0.0,0.0,0.0
1696243256351,-0.9404297,0.07714844,0.375,23.34375,2.21875,-6.1875,0.0,0.0,0.0
1696243256381,-0.9511719,0.0068359375,0.42382812,36.125,0.78125,-10.1875,0.0,0.0,0.0
1696243256441,-1.0410156,0.043945312,0.45117188,42.75,-4.84375,-16.90625,-95.5625,38.3125,-57.6875
1696243256470,-1.1914062,0.080078125,0.38476562,79.625,-4.125,-41.4375,0.0,0.0,0.0
1696243256503,-0.82714844,-0.3486328,0.032226562,120.40625,-15.71875,-62.25,0.0,0.0,0.0
1696243256563,-0.7060547,-0.22460938,-0.051757812,106.375,34.46875,-60.625,0.0,0.0,0.0
1696243256624,-0.8515625,0.030273438,-0.38378906,178.375,83.34375,-64.9375,0.0,0.0,0.0
1696243256628,-1.0253906,0.8046875,0.09082031,82.125,89.6875,-39.5,0.0,0.0,0.0
1696243256683,-1.6357422,0.58691406,0.7285156,124.3125,-36.09375,57.71875,0.0,0.0,0.0
1696243256712,-0.50390625,0.21289062,-0.13964844,56.8125,-8.375,63.71875,0.0,0.0,0.0
1696243256743,-1.6953125,-1.3115234,0.20898438,69.75,1.0,50.34375,0.0,0.0,0.0
1696243256804,-1.0810547,-0.453125,0.0546875,177.78125,3.09375,-14.09375,0.0,0.0,0.0
1696243256832,-0.95703125,0.4091797,0.09277344,147.75,-7.90625,-19.40625,0.0,0.0,0.0
1696243256863,-0.95214844,0.3955078,0.18945312,170.375,-10.03125,11.09375,0.0,0.0,0.0
1696243256925,-1.0664062,-0.13867188,0.06347656,130.28125,-7.03125,-1.03125,-94.9375,41.3125,-79.375
1696243256953,-0.9707031,-0.08300781,-0.036132812,95.9375,3.625,-14.46875,0.0,0.0,0.0
1696243256982,-0.9892578,0.041015625,-0.051757812,115.9375,2.34375,-8.5625,0.0,0.0,0.0
1696243257043,-1.0058594,0.091796875,-0.0087890625,124.625,2.46875,-0.5625,0.0,0.0,0.0
1696243257072,-0.99316406,0.119140625,-0.036132812,90.84375,6.5,0.78125,0.0,0.0,0.0
1696243257103,-1.0019531,-0.0390625,-0.021484375,98.5625,5.46875,6.8125,0.0,0.0,0.0
1696243257164,-1.0009766,-0.037109375,-0.059570312,76.15625,4.78125,1.46875,0.0,0.0,0.0
1696243257195,-0.9941406,0.024414062,0.078125,98.5625,-10.59375,9.15625,0.0,0.0,0.0
1696243257222,-1.1035156,-0.08984375,0.0126953125,110.8125,-43.71875,15.375,0.0,0.0,0.0
1696243257283,-1.1210938,0.021484375,0.0126953125,128.03125,-73.6875,9.5625,0.0,0.0,0.0
1696243257312,-1.1689453,0.3671875,0.038085938,109.84375,-67.96875,23.125,0.0,0.0,0.0
1696243257346,-1.0273438,0.060546875,0.17382812,154.28125,-98.0625,28.5,0.0,0.0,0.0
1696243257402,-1.0498047,-0.12011719,0.055664062,133.09375,-97.5,-0.75,-102.125,28.6875,-89.75
1696243257433,-1.0576172,-0.12207031,-0.13085938,124.5,-67.28125,-43.78125,0.0,0.0,0.0
1696243257464,-1.0332031,-0.15722656,-0.1484375,118.09375,-45.125,-85.40625,0.0,0.0,0.0
1696243257523,-1.0488281,0.35839844,0.00390625,120.9375,-44.09375,-77.28125,0.0,0.0,0.0
1696243257553,-0.8798828,0.43554688,0.296875,181.0625,-65.28125,-54.5,0.0,0.0,0.0
1696243257581,-0.93066406,0.15625,0.09765625,140.1875,-53.4375,-45.125,0.0,0.0,0.0
1696243257645,-0.87402344,0.10839844,-0.03125,114.65625,-43.40625,-47.3125,0.0,0.0,0.0
1696243257678,-0.8144531,0.24707031,0.14941406,102.8125,-24.5625,-45.59375,0.0,0.0,0.0
1696243257702,-0.8027344,0.30859375,0.3408203,63.875,0.59375,-29.625,0.0,0.0,0.0
1696243257765,-0.890625,0.21386719,0.42773438,43.1875,1.4375,-9.53125,0.0,0.0,0.0
1696243257794,-1.0087891,0.087890625,0.50683594,48.4375,-7.65625,-7.5,0.0,0.0,0.0
1696243257823,-0.93066406,0.024414062,0.38671875,46.0625,-12.78125,-22.15625,0.0,0.0,0.0
1696243257883,-0.81640625,0.016601562,0.47070312,26.71875,-18.46875,-28.03125,0.0,0.0,0.0
1696243257912,-1.1894531,0.375,0.38867188,45.03125,11.3125,-7.875,-104.5625,4.8125,-70.25
1696243257945,-1.7246094,0.109375,0.39453125,12.5,-10.59375,0.84375,0.0,0.0,0.0
1696243258009,-0.15136719,0.4482422,-0.36132812,-31.28125,7.59375,-36.9375,0.0,0.0,0.0
1696243258032,-0.80078125,-0.0078125,-0.00390625,-4.28125,75.59375,64.6875,0.0,0.0,0.0
1696243258066,-1.609375,-0.671875,-0.26171875,-50.6875,84.8125,-20.9375,0.0,0.0,0.0
1696243258125,-0.78515625,0.4453125,0.107421875,38.5,33.90625,-28.03125,0.0,0.0,0.0
1696243258156,-0.9716797,0.38867188,0.18261719,-37.3125,59.125,-1.90625,0.0,0.0,0.0
1696243258181,-1.0517578,-0.038085938,-0.16015625,-92.625,63.34375,-1.46875,0.0,0.0,0.0
1696243258245,-0.89746094,0.0078125,-0.015625,-40.5625,45.4375,0.125,0.0,0.0,0.0
1696243258275,-0.9433594,-0.030273438,-0.057617188,-50.0,43.5,1.21875,0.0,0.0,0.0
1696243258303,-0.9951172,-0.11425781,0.024414062,-33.40625,40.6875,-2.8125,0.0,0.0,0.0
1696243258364,-1.0175781,0.021484375,0.22949219,-38.34375,35.6875,-8.0625,0.0,0.0,0.0
1696243258402,-1.0078125,0.034179688,0.2919922,-70.875,31.65625,-15.375,-102.3125,6.625,-89.875
1696243258421,-0.9814453,-0.19921875,0.08984375,-42.9375,6.125,2.90625,0.0,0.0,0.0
1696243258483,-1.0263672,0.12402344,-0.03125,-69.46875,-11.3125,-2.9375,0.0,0.0,0.0
1696243258513,-1.2128906,0.23828125,0.068359375,-30.59375,-40.6875,15.5,0.0,0.0,0.0
1696243258542,-1.2929688,-0.07128906,0.15917969,-9.84375,-106.84375,5.90625,0.0,0.0,0.0
1696243258605,-1.2265625,0.35839844,0.21679688,-50.375,-155.65625,7.125,0.0,0.0,0.0
1696243258631,-1.1748047,0.36132812,0.11035156,-80.09375,-175.5625,39.65625,0.0,0.0,0.0
1696243258663,-1.0791016,-0.024414062,-0.046875,-81.5,-90.0625,25.03125,0.0,0.0,0.0
1696243258723,-1.0175781,-0.22460938,0.0048828125,98.4375,-61.71875,-9.46875,0.0,0.0,0.0
1696243258752,-0.64941406,0.029296875,0.061523438,64.84375,-27.375,-28.5,0.0,0.0,0.0
1696243258782,-0.61328125,0.07421875,0.12597656,54.65625,4.375,-26.75,0.0,0.0,0.0
1696243258845,-0.77441406,-0.10449219,0.22558594,54.65625,53.1875,-36.03125,0.0,0.0,0.0
1696243258907,-0.63964844,0.09375,0.17871094,88.46875,115.9375,-28.28125,0.0,0.0,0.0
1696243258916,-1.2128906,0.0703125,0.2998047,102.53125,146.46875,-7.875,-106.1875,6.8125,-76.375
1696243258964,-1.3125,0.2578125,0.19042969,73.34375,13.65625,-17.15625,0.0,0.0,0.0
1696243258993,-0.91015625,0.8935547,0.001953125,53.625,-27.3125,20.6875,0.0,0.0,0.0
1696243259023,-1.1044922,0.07324219,0.064453125,145.59375,17.375,57.59375,0.0,0.0,0.0
1696243259087,-0.98046875,-0.94628906,-0.3564453,19.03125,16.40625,-8.4375,0.0,0.0,0.0
1696243259113,-1.0957031,0.38867188,0.07128906,106.25,26.46875,-42.78125,0.0,0.0,0.0
1696243259146,-0.9941406,0.453125,0.123046875,92.5,11.8125,-17.90625,0.0,0.0,0.0
1696243259203,-0.94140625,0.30859375,0.016601562,32.8125,7.53125,5.90625,0.0,0.0,0.0
1696243259232,-1.0507812,0.06542969,-0.15722656,-5.28125,-0.5,1.03125,0.0,0.0,0.0
1696243259263,-0.9902344,0.09765625,-0.091796875,9.4375,-5.46875,-5.6875,0.0,0.0,0.0
1696243259323,-1.0244141,0.18945312,-0.044921875,-2.34375,-8.75,-5.8125,0.0,0.0,0.0
1696243259352,-0.9892578,0.20605469,0.0146484375,-12.34375,-6.4375,-0.0625,0.0,0.0,0.0
1696243259382,-1.0195312,0.09082031,0.0078125,-19.90625,-7.59375,8.15625,-104.375,5.0,-79.25
1696243259442,-0.99609375,-0.0078125,0.07324219,-24.8125,-1.375,3.09375,0.0,0.0,0.0
1696243259471,-1.0117188,-0.0126953125,0.17382812,-6.4375,3.40625,-5.0625,0.0,0.0,0.0
1696243259504,-1.0195312,0.06738281,0.24023438,-6.5625,8.28125,-5.25,0.0,0.0,0.0
1696243259564,-1.0117188,0.037109375,0.18847656,-16.9375,13.03125,2.5,0.0,0.0,0.0
1696243259592,-1.0126953,0.005859375,0.068359375,-14.5625,8.8125,4.25,0.0,0.0,0.0
1696243259627,-0.9794922,0.078125,0.08300781,-15.84375,12.5625,0.25,0.0,0.0,0.0
1696243259683,-1.0224609,0.1484375,0.07910156,-19.5,15.40625,1.03125,0.0,0.0,0.0
1696243259712,-0.9794922,0.13574219,-0.046875,-36.71875,22.5625,1.40625,0.0,0.0,0.0
1696243259742,-1.0244141,0.234375,0.046875,-19.90625,5.03125,10.5,0.0,0.0,0.0
1696243259804,-1.0214844,0.13769531,-0.028320312,-12.71875,-4.34375,1.875,0.0,0.0,0.0
1696243259835,-0.95214844,0.17285156,-0.09375,-25.96875,3.34375,0.71875,0.0,0.0,0.0
1696243259863,-0.98828125,0.14746094,-0.041015625,-28.03125,2.0625,1.9375,0.0,0.0,0.0
1696243259925,-1.0058594,0.12695312,0.020507812,-17.125,-3.03125,4.375,-103.1875,8.3125,-84.1875
1696243259956,-1.015625,0.091796875,0.028320312,-19.5,-3.0625,1.21875,0.0,0.0,0.0
1696243259984,-0.9814453,0.12695312,0.013671875,-12.96875,-1.5625,0.59375,0.0,0.0,0.0
1696243260043,-0.984375,0.15722656,0.029296875,-11.625,-1.375,1.21875,0.0,0.0,0.0
1696243260071,-1.0146484,0.13378906,0.08886719,-3.8125,-0.75,0.96875,0.0,0.0,0.0
1696243260102,-1.0136719,0.14453125,0.03125,-12.71875,-2.46875,1.09375,0.0,0.0,0.0
1696243260163,-0.99316406,0.13574219,-0.038085938,-10.8125,-4.90625,-0.625,0.0,0.0,0.0
1696243260192,-0.9951172,0.08496094,0.038085938,-3.5,-1.90625,-1.46875,0.0,0.0,0.0
1696243260232,-1.0087891,0.12792969,0.024414062,-5.625,-9.0,-3.59375,0.0,0.0,0.0
1696243260285,-0.890625,0.14160156,0.13085938,6.5,-7.34375,-4.34375,0.0,0.0,0.0
1696243260316,-1.0527344,0.01171875,0.20410156,4.4375,0.53125,11.71875,0.0,0.0,0.0
1696243260344,-0.99902344,0.06738281,0.28320312,4.1875,0.71875,4.25,0.0,0.0,0.0
1696243260404,-1.0107422,0.07421875,0.20800781,-0.9375,1.75,-1.84375,-102.125,7.8125,-82.375
1696243260436,-1.0166016,0.119140625,0.11621094,-0.34375,-1.0625,-1.53125,0.0,0.0,0.0
1696243260462,-0.984375,0.16210938,0.12597656,-1.125,-2.40625,-0.1875,0.0,0.0,0.0
1696243260526,-0.9970703,0.12695312,0.04296875,1.8125,-0.5625,1.53125,0.0,0.0,0.0
1696243260554,-1.0029297,0.1328125,0.04296875,-5.53125,3.15625,-1.03125,0.0,0.0,0.0
1696243260582,-0.98535156,0.16992188,0.0078125,-1.5,1.75,-2.21875,0.0,0.0,0.0
1696243260645,-0.9921875,0.14941406,0.020507812,-0.625,-1.0,0.34375,0.0,0.0,0.0
1696243260673,-0.9873047,0.14941406,0.0078125,-0.21875,-1.0,0.96875,0.0,0.0,0.0
1696243260705,-1.0048828,0.11035156,0.0546875,0.71875,-2.15625,1.59375,0.0,0.0,0.0
1696243260765,-0.9980469,0.12890625,0.053710938,-0.15625,-0.8125,-0.4375,0.0,0.0,0.0
1696243260793,-0.98339844,0.13964844,0.06933594,0.34375,0.09375,-0.8125,0.0,0.0,0.0
1696243260827,-1.0117188,0.12207031,0.10839844,1.5,-0.21875,0.3125,0.0,0.0,0.0
1696243260882,-0.9970703,0.13867188,0.07519531,0.21875,-0.34375,-0.6875,0.0,0.0,0.0
1696243260913,-0.99121094,0.125,0.08496094,0.46875,0.09375,-0.4375,-104.875,8.125,-82.875
1696243260943,-0.9941406,0.13085938,0.07714844,0.21875,0.21875,-1.59375,0.0,0.0,0.0
1696243261005,-0.9902344,0.13574219,0.078125,-0.9375,-0.4375,-1.28125,0.0,0.0,0.0
1696243261033,-1.0039062,0.11621094,0.07324219,1.5,-1.78125,-0.0625,0.0,0.0,0.0
1696243261064,-0.9980469,0.1171875,0.06542969,4.8125,-0.8125,-0.875,0.0,0.0,0.0
1696243261124,-0.9921875,0.12792969,0.091796875,2.34375,0.03125,-0.8125,0.0,0.0,0.0
1696243261184,-1.0039062,0.11621094,0.076171875,3.625,0.28125,-0.4375,0.0,0.0,0.0
1696243261192,-0.9873047,0.11816406,0.07421875,3.9375,1.875,0.125,0.0,0.0,0.0
1696243261244,-0.9980469,0.12011719,0.07910156,3.15625,3.15625,0.0625,0.0,0.0,0.0
1696243261275,-0.9970703,0.11035156,0.076171875,1.3125,5.65625,1.09375,0.0,0.0,0.0
1696243261304,-0.9951172,0.10449219,0.07421875,1.3125,9.5,3.03125,0.0,0.0,0.0
1696243261364,-1.0039062,0.10058594,0.076171875,4.5625,14.0625,2.375,0.0,0.0,0.0
1696243261392,-1.0117188,0.107421875,0.06738281,5.21875,15.1875,-0.375,-103.625,8.5625,-83.4375
1696243261430,-0.98535156,0.15136719,0.022460938,5.71875,12.3125,-0.875,0.0,0.0,0.0
1696243261485,-0.99609375,0.15234375,0.0107421875,6.375,8.75,0.0625,0.0,0.0,0.0
1696243261511,-0.98535156,0.16308594,-0.029296875,0.21875,1.8125,2.0625,0.0,0.0,0.0
1696243261541,-0.9980469,0.12207031,-0.018554688,3.75,-1.0625,1.28125,0.0,0.0,0.0
1696243261602,-0.9970703,0.17871094,-0.0068359375,3.9375,-3.875,-1.90625,0.0,0.0,0.0
1696243261636,-1.0214844,0.12597656,0.07714844,-0.625,-10.875,-0.6875,0.0,0.0,0.0
1696243261660,-0.9873047,0.140625,9.765625E-4,4.125,-18.46875,-0.875,0.0,0.0,0.0
1696243261723,-0.97265625,0.09765625,0.045898438,5.71875,-27.78125,-3.1875,0.0,0.0,0.0
1696243261754,-1.0126953,0.18261719,0.017578125,-0.21875,-46.40625,-10.125,0.0,0.0,0.0
1696243261785,-0.9423828,0.08496094,0.0703125,16.34375,-59.78125,-8.4375,0.0,0.0,0.0
1696243261845,-1.0009766,0.048828125,0.001953125,3.8125,-71.6875,-15.75,0.0,0.0,0.0
1696243261873,-0.99121094,0.27148438,-9.765625E-4,23.78125,-75.90625,-4.59375,0.0,0.0,0.0
1696243261903,-1.0615234,0.33398438,-0.0029296875,-8.375,-59.78125,11.90625,-103.8125,5.875,-73.375
1696243261963,-1.078125,-0.016601562,-0.009765625,-1.5625,-58.0625,10.5,0.0,0.0,0.0
1696243261993,-0.9892578,0.041992188,0.09863281,40.6875,-63.25,4.3125,0.0,0.0,0.0
1696243262024,-1.0107422,0.19042969,0.44140625,78.71875,-54.65625,7.875,0.0,0.0,0.0
1696243262084,-0.8027344,0.34960938,0.3701172,9.6875,-35.90625,-1.96875,0.0,0.0,0.0
1696243262112,-0.69433594,0.22363281,0.5048828,-28.28125,-40.3125,16.40625,0.0,0.0,0.0
1696243262142,-1.0908203,-0.052734375,0.625,-1.5,-40.5,10.96875,0.0,0.0,0.0
1696243262205,-0.7246094,0.10644531,0.53808594,18.34375,-53.625,-11.84375,0.0,0.0,0.0
1696243262240,-0.5996094,0.32421875,0.73046875,-15.34375,-71.25,17.09375,0.0,0.0,0.0
1696243262261,-0.73339844,0.10253906,0.6171875,15.125,-67.90625,34.34375,0.0,0.0,0.0
1696243262326,-0.6923828,0.12792969,0.7246094,3.40625,-71.375,19.65625,0.0,0.0,0.0
1696243262354,-0.6171875,0.18457031,0.5830078,18.28125,-76.375,21.59375,0.0,0.0,0.0
1696243262410,-0.8417969,0.140625,0.6982422,20.78125,-63.25,21.34375,-98.125,10.8125,-50.0
1696243262441,-0.5761719,0.3173828,0.7480469,14.5,-59.40625,17.375,0.0,0.0,0.0
1696243262472,-0.65527344,0.25878906,0.81347656,12.3125,-54.03125,25.625,0.0,0.0,0.0
1696243262505,-0.6904297,0.26757812,0.8232422,21.71875,-42.375,8.96875,0.0,0.0,0.0
1696243262561,-0.73535156,0.36914062,0.8408203,11.75,-27.625,0.34375,0.0,0.0,0.0
1696243262592,-0.7578125,0.4033203,0.9199219,2.71875,-0.5625,-10.6875,0.0,0.0,0.0
1696243262628,-0.75097656,0.4111328,0.8339844,-17.0,38.71875,-15.03125,0.0,0.0,0.0
1696243262684,-0.7080078,0.31445312,0.79785156,-25.0,67.1875,-11.59375,0.0,0.0,0.0
1696243262712,-0.7109375,0.23339844,0.7167969,-27.375,81.9375,-13.5,0.0,0.0,0.0
1696243262741,-0.7050781,0.18457031,0.66503906,-30.65625,85.78125,-20.46875,0.0,0.0,0.0
1696243262804,-0.6826172,0.15625,0.6142578,-30.65625,97.09375,-20.15625,0.0,0.0,0.0
1696243262832,-0.7783203,0.045898438,0.58691406,-26.875,94.6875,-17.21875,0.0,0.0,0.0
1696243262862,-0.7753906,0.0234375,0.5888672,-18.40625,92.75,-28.09375,0.0,0.0,0.0
1696243262923,-0.8017578,0.09863281,0.44921875,-16.0,104.21875,-27.28125,-104.6875,8.5625,-61.25
1696243262952,-0.95996094,0.13378906,0.33496094,-14.25,120.34375,-16.78125,0.0,0.0,0.0
1696243262983,-0.92871094,0.111328125,0.23730469,-21.6875,114.28125,-12.65625,0.0,0.0,0.0
1696243263041,-0.87402344,0.15917969,0.19824219,-19.3125,106.90625,-8.25,0.0,0.0,0.0
1696243263072,-0.828125,0.30078125,0.21972656,-14.78125,72.25,8.21875,0.0,0.0,0.0
1696243263102,-0.9980469,0.19335938,0.12011719,5.84375,55.625,30.5,0.0,0.0,0.0
1696243263163,-1.0966797,0.037109375,0.020507812,-0.09375,39.09375,20.125,0.0,0.0,0.0
1696243263192,-1.0449219,0.10839844,0.0068359375,-7.90625,20.1875,-2.5625,0.0,0.0,0.0
1696243263227,-1.0078125,0.23828125,-0.11035156,-3.125,-5.9375,-11.3125,0.0,0.0,0.0
1696243263287,-1.0009766,0.2685547,-0.0107421875,-5.09375,-27.90625,-4.09375,0.0,0.0,0.0
1696243263311,-0.9609375,0.17675781,-0.10058594,-12.0,-37.8125,1.28125,0.0,0.0,0.0
1696243263341,-1.0009766,0.051757812,-0.043945312,-0.875,-29.6875,-2.8125,0.0,0.0,0.0
1696243263403,-1.0722656,0.038085938,-0.0234375,12.375,-32.8125,-12.75,-102.75,8.4375,-78.375
1696243263464,-0.9433594,0.19921875,-0.01953125,18.03125,-57.59375,-21.375,0.0,0.0,0.0
1696243263469,-0.8457031,0.25585938,0.2626953,28.78125,-80.40625,-11.84375,0.0,0.0,0.0
1696243263523,-0.89453125,0.059570312,0.16992188,6.15625,-89.75,19.53125,0.0,0.0,0.0
1696243263553,-0.99121094,0.033203125,0.7001953,49.125,-98.65625,21.40625,0.0,0.0,0.0
1696243263582,-0.79003906,0.34960938,0.4248047,0.15625,-95.25,11.84375,0.0,0.0,0.0
1696243263644,-0.78027344,0.018554688,0.59375,5.84375,-92.90625,25.125,0.0,0.0,0.0
1696243263672,-0.7265625,0.1640625,0.69921875,30.96875,-106.03125,27.59375,0.0,0.0,0.0
1696243263703,-0.8535156,0.13378906,0.5683594,17.625,-82.53125,32.03125,0.0,0.0,0.0
1696243263761,-0.5996094,0.15136719,0.7265625,32.25,-82.65625,15.8125,0.0,0.0,0.0
1696243263794,-0.59472656,0.18554688,0.6894531,11.375,-70.34375,15.9375,0.0,0.0,0.0
1696243263824,-0.7519531,0.3017578,0.68066406,19.375,-49.21875,15.1875,0.0,0.0,0.0
1696243263881,-0.6699219,0.37890625,0.81152344,11.6875,-39.875,11.21875,0.0,0.0,0.0
1696243263913,-0.8388672,0.29296875,0.8808594,5.71875,-10.78125,4.8125,-94.625,14.0,-45.8125
1696243263943,-0.73046875,0.2861328,0.85839844,-4.46875,17.75,-12.9375,0.0,0.0,0.0
1696243264004,-0.70214844,0.31054688,0.77246094,-14.90625,38.71875,-21.25,0.0,0.0,0.0
1696243264032,-0.6699219,0.24023438,0.7705078,-4.125,51.125,-16.84375,0.0,0.0,0.0
1696243264063,-0.6542969,0.2265625,0.7548828,2.59375,60.59375,-19.96875,0.0,0.0,0.0
1696243264123,-0.68847656,0.1640625,0.7216797,2.125,69.5625,-31.375,0.0,0.0,0.0
1696243264159,-0.7285156,0.1640625,0.62597656,14.1875,80.71875,-25.53125,0.0,0.0,0.0
1696243264183,-0.8515625,0.1328125,0.49023438,29.6875,86.78125,-16.4375,0.0,0.0,0.0
1696243264243,-0.875,0.10449219,0.45410156,57.96875,85.71875,-10.6875,0.0,0.0,0.0
1696243264273,-0.8691406,0.03515625,0.3720703,71.75,69.4375,-17.03125,0.0,0.0,0.0
1696243264303,-0.96875,-0.068359375,0.41503906,87.875,55.5625,-20.9375,0.0,0.0,0.0
1696243264363,-0.9345703,0.033203125,0.1328125,93.25,41.28125,-33.28125,0.0,0.0,0.0
1696243264393,-0.92871094,0.24414062,0.19824219,118.625,24.6875,-12.59375,-103.625,10.8125,-63.625
1696243264425,-0.9375,0.21777344,0.23730469,116.25,30.375,-16.5625,0.0,0.0,0.0
1696243264481,-1.0878906,-9.765625E-4,0.064453125,84.4375,21.03125,-17.65625,0.0,0.0,0.0
1696243264511,-0.9453125,0.15039062,0.001953125,77.1875,31.21875,-20.09375,0.0,0.0,0.0
1696243264547,-1.0087891,0.08203125,0.0390625,72.5625,28.40625,-7.625,0.0,0.0,0.0
1696243264601,-1.0576172,-0.060546875,0.044921875,68.875,42.75,-7.09375,0.0,0.0,0.0
1696243264631,-0.9716797,0.0625,0.0546875,61.4375,30.75,-7.03125,0.0,0.0,0.0
1696243264663,-1.2089844,-0.08203125,0.14648438,93.78125,-13.4375,-0.5,0.0,0.0,0.0
1696243264726,-0.94921875,-0.0146484375,0.4140625,115.15625,-43.78125,-9.65625,0.0,0.0,0.0
1696243264755,-0.9160156,0.37695312,0.3642578,179.65625,-127.40625,8.65625,0.0,0.0,0.0
1696243264783,-1.4189453,0.28320312,0.37402344,192.96875,-168.71875,-10.5,0.0,0.0,0.0
1696243264845,-1.0449219,-0.97265625,-0.41796875,90.84375,-117.21875,-99.96875,0.0,0.0,0.0
1696243264873,-1.4277344,-0.19140625,0.09863281,71.5,-75.53125,-149.96875,0.0,0.0,0.0
1696243264902,-1.0410156,1.0644531,0.08105469,288.6875,-125.625,-85.15625,-98.25,13.5625,-48.375
1696243264962,-0.79589844,0.41210938,0.22558594,85.71875,-74.5,-62.4375,0.0,0.0,0.0
1696243264992,-0.82910156,-0.28808594,0.06347656,59.5625,-25.96875,-50.46875,0.0,0.0,0.0
1696243265025,-0.73535156,-0.009765625,0.00390625,103.96875,18.03125,-55.6875,0.0,0.0,0.0
1696243265085,-0.6640625,0.42773438,0.10449219,135.09375,47.8125,-37.96875,0.0,0.0,0.0
1696243265119,-0.82421875,0.22460938,0.4482422,130.40625,79.0625,-12.53125,0.0,0.0,0.0
1696243265175,-1.25,0.39453125,0.7636719,98.0625,8.21875,7.875,0.0,0.0,0.0
1696243265203,-0.71777344,0.2548828,0.09472656,145.90625,-90.90625,30.9375,0.0,0.0,0.0
1696243265235,-1.6416016,0.6376953,0.17773438,44.40625,20.0625,30.5625,0.0,0.0,0.0
1696243265263,-0.8330078,-0.94433594,-0.8203125,50.03125,55.03125,1.53125,0.0,0.0,0.0
1696243265324,-1.1601562,0.10449219,-0.043945312,63.75,46.0,-35.78125,0.0,0.0,0.0
1696243265355,-0.9765625,0.33203125,0.29492188,174.28125,46.3125,-19.65625,0.0,0.0,0.0
1696243265384,-0.98828125,0.10253906,0.19335938,74.125,54.84375,-13.375,-100.5,34.6875,-52.25
1696243265445,-0.9248047,-0.15527344,0.12890625,104.46875,44.28125,-12.59375,0.0,0.0,0.0
1696243265475,-0.9736328,-0.099609375,0.13183594,126.125,44.65625,-20.21875,0.0,0.0,0.0
1696243265502,-1.0458984,-0.0234375,0.07421875,129.1875,29.5625,-15.15625,0.0,0.0,0.0
1696243265565,-1.0566406,-0.07324219,0.15429688,149.28125,10.65625,-7.03125,0.0,0.0,0.0
1696243265593,-1.03125,-0.0625,0.14257812,165.03125,-35.59375,-4.34375,0.0,0.0,0.0
1696243265625,-0.90234375,0.001953125,-0.35253906,136.375,-99.03125,-6.125,0.0,0.0,0.0
1696243265686,-1.4355469,0.3095703,-0.296875,250.65625,-124.125,0.65625,0.0,0.0,0.0
1696243265746,-1.2148438,0.31054688,0.07128906,207.75,-182.8125,18.84375,0.0,0.0,0.0
1696243265753,-0.98046875,0.0126953125,-0.12695312,141.15625,-156.53125,-6.40625,0.0,0.0,0.0
1696243265804,-1.4091797,-0.7089844,-0.06542969,197.84375,-108.25,-96.375,0.0,0.0,0.0
1696243265836,-0.9765625,-0.17285156,-0.41210938,230.25,-52.8125,-207.34375,0.0,0.0,0.0
1696243265865,-0.71875,0.31152344,-0.39453125,289.90625,-9.375,-121.28125,0.0,0.0,0.0
1696243265922,-0.92285156,0.3408203,-0.13476562,279.625,-38.46875,-85.625,-105.625,38.75,-67.375
1696243265954,-0.7763672,0.86328125,-0.061523438,142.1875,-57.65625,-77.34375,0.0,0.0,0.0
1696243265982,-0.47460938,1.3125,0.46679688,171.71875,-126.0,31.125,0.0,0.0,0.0
1696243266041,-1.4980469,-0.2705078,1.0615234,43.5,-114.03125,16.84375,0.0,0.0,0.0
1696243266073,-0.78515625,-0.8769531,0.049804688,31.03125,-135.03125,-53.90625,0.0,0.0,0.0
1696243266102,-0.47265625,0.4189453,0.6669922,218.59375,-149.8125,-12.75,0.0,0.0,0.0
1696243266165,-1.1318359,0.46972656,0.7392578,60.53125,-124.0625,-28.5,0.0,0.0,0.0
1696243266193,-0.5986328,-0.068359375,0.6269531,42.21875,-98.65625,-63.96875,0.0,0.0,0.0
1696243266224,-1.1552734,-0.107421875,0.63378906,41.53125,-115.4375,-74.15625,0.0,0.0,0.0
1696243266284,-0.44628906,0.17089844,0.5644531,20.125,-136.8125,-96.9375,0.0,0.0,0.0
1696243266314,0.05078125,0.12011719,0.43554688,-19.6875,-144.625,-86.625,0.0,0.0,0.0
1696243266348,-0.2421875,-0.013671875,0.59472656,-38.0625,-173.375,-63.53125,0.0,0.0,0.0
1696243266405,-0.30664062,-0.028320312,0.7373047,-26.6875,-178.8125,-56.90625,-95.875,27.3125,-37.5625
1696243266434,0.028320312,-0.3310547,0.97265625,-2.90625,-156.53125,-47.125,0.0,0.0,0.0
1696243266466,0.0390625,-0.05859375,1.4492188,17.125,-126.0625,-19.21875,0.0,0.0,0.0
1696243266525,0.26953125,-0.013671875,1.9873047,-54.40625,-29.625,0.71875,0.0,0.0,0.0
1696243266554,-0.20507812,-0.32910156,1.984375,-80.96875,-25.84375,17.3125,0.0,0.0,0.0
1696243266583,1.1054688,-0.61816406,1.6787109,-8.75,-6.6875,-6.34375,0.0,0.0,0.0
1696243266644,0.35253906,-0.30566406,1.1787109,-12.96875,28.78125,-37.25,0.0,0.0,0.0
1696243266701,-0.29003906,-0.15722656,0.5488281,-9.46875,107.09375,-54.9375,0.0,0.0,0.0
1696243266708,-0.044921875,-0.22949219,0.3720703,-86.75,61.75,35.21875,0.0,0.0,0.0
1696243266765,-0.36523438,-0.22753906,0.5654297,-22.71875,57.28125,-5.5625,0.0,0.0,0.0
1696243266799,-0.5,0.15136719,0.6152344,-11.5,21.09375,4.3125,0.0,0.0,0.0
1696243266823,-0.42382812,-0.15625,0.70214844,20.0625,-20.59375,-11.78125,0.0,0.0,0.0
1696243266885,-0.29296875,-0.1015625,0.6767578,13.28125,-45.0,-12.8125,0.0,0.0,0.0
1696243266913,-0.359375,-0.1953125,0.8808594,20.375,-67.40625,-19.65625,-91.5,17.0,-33.0625
1696243266946,-0.020507812,-0.11328125,1.0751953,24.28125,-64.1875,-9.96875,0.0,0.0,0.0
1696243267005,-0.08886719,-0.049804688,1.1572266,33.71875,-69.78125,15.375,0.0,0.0,0.0
1696243267034,0.08691406,-0.10546875,1.6464844,-15.40625,-27.1875,11.78125,0.0,0.0,0.0
1696243267063,0.04296875,-0.30371094,1.3271484,-23.21875,13.21875,11.90625,0.0,0.0,0.0
1696243267125,-0.10546875,-0.38183594,1.2275391,-39.28125,33.78125,29.15625,0.0,0.0,0.0
1696243267157,-0.30664062,-0.07128906,1.0605469,-51.40625,44.65625,27.09375,0.0,0.0,0.0
1696243267183,-0.19238281,-0.3154297,0.859375,-43.84375,37.03125,-4.78125,0.0,0.0,0.0
1696243267246,-0.203125,-0.2705078,0.87402344,-24.75,8.21875,-1.15625,0.0,0.0,0.0
1696243267276,-0.20507812,-0.038085938,0.74316406,-33.90625,-17.71875,-5.625,0.0,0.0,0.0
1696243267303,-0.017578125,-0.3310547,0.8330078,2.59375,-43.84375,-7.625,0.0,0.0,0.0
1696243267362,0.13964844,-0.23535156,0.8964844,-2.9375,-38.59375,6.03125,0.0,0.0,0.0
1696243267392,0.14355469,-0.19335938,0.9277344,-3.8125,-19.875,25.3125,-85.5,14.3125,-29.625
1696243267423,0.036132812,-0.2998047,0.9628906,-10.53125,7.65625,27.21875,0.0,0.0,0.0
1696243267484,-0.036132812,-0.29101562,0.9316406,-17.65625,21.09375,20.5625,0.0,0.0,0.0
1696243267519,-0.18847656,-0.32910156,1.0322266,-11.875,15.65625,18.59375,0.0,0.0,0.0
1696243267552,-0.22851562,-0.28808594,0.91308594,-5.09375,9.3125,29.34375,0.0,0.0,0.0
1696243267605,-0.3232422,-0.1484375,0.89941406,20.1875,-23.53125,66.8125,0.0,0.0,0.0
1696243267633,-0.33691406,-0.19921875,0.9013672,2.0,-55.875,89.65625,0.0,0.0,0.0
1696243267663,-0.1640625,-0.17480469,0.68847656,7.0,-93.78125,111.5,0.0,0.0,0.0
1696243267727,-0.029296875,-0.15429688,0.97265625,-1.375,-102.625,112.0,0.0,0.0,0.0
1696243267754,-0.0087890625,-0.31347656,1.0292969,-33.21875,-100.375,73.53125,0.0,0.0,0.0
1696243267783,-0.15136719,-0.48242188,0.7939453,-12.28125,-116.0625,41.4375,0.0,0.0,0.0
1696243267845,0.030273438,-0.3720703,0.9003906,-10.40625,-139.90625,-7.03125,0.0,0.0,0.0
1696243267873,0.5410156,-0.44921875,0.8798828,-15.09375,-122.71875,-18.6875,0.0,0.0,0.0
1696243267903,0.52246094,-0.39648438,0.84277344,-20.96875,-85.40625,-15.9375,-62.375,21.625,-22.25
1696243267967,0.6455078,-0.32226562,0.8154297,-55.3125,-56.25,-19.53125,0.0,0.0,0.0
1696243268026,0.6269531,-0.46191406,0.7792969,-73.3125,-13.875,-16.4375,0.0,0.0,0.0
1696243268033,0.63378906,-0.37890625,0.6015625,-76.3125,21.71875,-12.9375,0.0,0.0,0.0
1696243268086,0.5761719,-0.4189453,0.6923828,-81.1875,60.21875,-2.15625,0.0,0.0,0.0
1696243268112,0.39160156,-0.41210938,0.5126953,-76.1875,90.0625,19.53125,0.0,0.0,0.0
1696243268147,0.2861328,-0.44726562,0.5654297,-105.5625,108.0625,29.65625,0.0,0.0,0.0
1696243268202,0.22558594,-0.5673828,0.66308594,-107.9375,132.25,26.0625,0.0,0.0,0.0
1696243268231,0.036132812,-0.67578125,0.6982422,-98.0,128.03125,0.78125,0.0,0.0,0.0
1696243268265,0.07324219,-0.90722656,0.7480469,-140.96875,154.875,12.5625,0.0,0.0,0.0
1696243268321,-0.5126953,-1.2958984,0.6230469,-159.8125,189.71875,76.46875,0.0,0.0,0.0
1696243268356,-0.45996094,-0.4560547,0.9609375,-139.84375,46.53125,65.78125,0.0,0.0,0.0
1696243268384,-0.25195312,-0.75097656,0.37402344,-215.46875,54.65625,59.5625,-95.5625,-7.1875,-45.6875
1696243268442,-0.484375,-1.0400391,0.020507812,-275.65625,39.40625,63.28125,0.0,0.0,0.0
1696243268474,-0.31152344,-0.89746094,-0.02734375,-289.40625,53.0,38.25,0.0,0.0,0.0
1696243268502,-0.37890625,-0.8808594,-0.53222656,-267.78125,25.65625,23.90625,0.0,0.0,0.0
1696243268563,-0.29589844,-0.9482422,-0.50097656,-170.90625,-6.25,11.21875,0.0,0.0,0.0
1696243268593,-0.2890625,-0.92578125,-0.43164062,-107.125,-5.75,10.375,0.0,0.0,0.0
1696243268653,-0.3330078,-0.82421875,-0.55078125,-101.40625,-15.65625,14.6875,0.0,0.0,0.0
1696243268682,-0.35742188,-0.8027344,-0.59765625,-81.03125,-28.40625,25.5625,0.0,0.0,0.0
1696243268717,-0.37304688,-0.8203125,-0.7246094,-53.375,-28.34375,23.5,0.0,0.0,0.0
1696243268741,-0.40039062,-0.78125,-0.6582031,-20.40625,-20.78125,16.78125,0.0,0.0,0.0
1696243268802,-0.4111328,-0.7470703,-0.6298828,-6.6875,-10.28125,6.40625,0.0,0.0,0.0
1696243268831,-0.41308594,-0.7373047,-0.6298828,7.25,-4.3125,3.59375,0.0,0.0,0.0
1696243268863,-0.42773438,-0.7607422,-0.6123047,33.125,-0.28125,11.84375,0.0,0.0,0.0
1696243268924,-0.4326172,-0.72265625,-0.53515625,44.65625,0.21875,19.03125,-75.75,0.1875,-75.625
1696243268952,-0.41503906,-0.7841797,-0.61621094,57.59375,11.09375,15.5625,0.0,0.0,0.0
1696243268982,-0.44921875,-0.7626953,-0.45507812,84.6875,4.4375,9.21875,0.0,0.0,0.0
1696243269043,-0.4501953,-0.7685547,-0.43945312,100.875,2.21875,-4.03125,0.0,0.0,0.0
1696243269072,-0.4794922,-0.7832031,-0.38085938,112.21875,-9.0625,-15.75,0.0,0.0,0.0
1696243269103,-0.47460938,-0.8623047,-0.32714844,114.59375,-11.75,-29.78125,0.0,0.0,0.0
1696243269193,-0.3955078,-0.8964844,-0.23730469,131.09375,-19.1875,-40.28125,0.0,0.0,0.0
1696243269198,-0.38867188,-0.9716797,-0.12988281,139.1875,-27.0,-43.15625,0.0,0.0,0.0
1696243269222,-0.36035156,-1.0224609,9.765625E-4,133.53125,-37.125,-46.53125,0.0,0.0,0.0
