# Sensor type: Thingy
# Activity type: Running
# Activity subtype: Normal
# Subject id: s2104454
# Notes: unprocessed
timestamp,accel_x,accel_y,accel_z,gyro_x,gyro_y,gyro_z,mag_x,mag_y,mag_z
1696243508382,-1.2460938,-0.38476562,-0.18164062,-74.21875,202.96875,23.40625,0.0,0.0,0.0
1696243508413,-1.5146484,-0.23242188,-0.052734375,47.4375,168.28125,-5.90625,-96.125,21.9375,-58.5625
1696243508444,-1.1884766,0.5498047,0.73046875,-15.375,106.65625,-12.84375,0.0,0.0,0.0
1696243508501,-0.7675781,0.059570312,0.7421875,-34.78125,45.25,25.46875,0.0,0.0,0.0
1696243508539,-0.6748047,-0.6484375,0.4033203,-85.21875,-35.375,8.375,0.0,0.0,0.0
1696243508562,-0.36816406,-0.29003906,0.08691406,-12.9375,-118.5,-52.03125,0.0,0.0,0.0
1696243508623,-0.26171875,-0.076171875,0.095703125,200.375,-173.75,-36.34375,0.0,0.0,0.0
1696243508653,-2.0,0.42089844,0.64453125,154.96875,-323.53125,-17.3125,0.0,0.0,0.0
1696243508685,-1.6240234,0.57128906,0.5419922,-171.15625,-204.9375,-71.09375,0.0,0.0,0.0
1696243508742,-1.7207031,-0.5810547,0.13671875,4.53125,-72.125,-0.90625,0.0,0.0,0.0
1696243508770,-1.2255859,-0.37402344,-0.0126953125,168.40625,-76.59375,-66.375,0.0,0.0,0.0
1696243508804,0.16699219,0.43945312,-0.061523438,141.90625,-24.34375,-50.28125,0.0,0.0,0.0
1696243508863,0.3330078,0.4404297,-0.0029296875,0.84375,97.0,21.4375,0.0,0.0,0.0
1696243508892,-0.11328125,0.02734375,-0.038085938,-38.75,151.6875,50.3125,-86.25,31.8125,-47.625
1696243508922,-1.4892578,-0.00390625,1.7402344,-49.9375,43.53125,22.125,0.0,0.0,0.0
1696243508983,0.8701172,-0.07128906,-1.5126953,-148.1875,-46.65625,-25.84375,0.0,0.0,0.0
1696243509012,-2.0,0.099609375,1.5195312,676.28125,-223.4375,277.3125,0.0,0.0,0.0
1696243509044,1.2470703,0.7597656,-0.5498047,-186.71875,61.84375,19.3125,0.0,0.0,0.0
1696243509102,-2.0,0.02734375,-0.03125,-37.40625,146.1875,224.4375,0.0,0.0,0.0
1696243509132,-1.0703125,-0.24023438,0.13671875,8.53125,169.15625,-79.75,0.0,0.0,0.0
1696243509164,-0.9667969,0.8388672,0.5888672,19.34375,142.40625,-15.84375,0.0,0.0,0.0
1696243509223,-1.0507812,-0.17480469,0.9394531,-82.8125,83.9375,23.21875,0.0,0.0,0.0
1696243509253,-0.39746094,-0.9921875,-0.09472656,-73.78125,5.5625,-21.9375,0.0,0.0,0.0
1696243509282,-0.24414062,0.38183594,0.19628906,71.15625,-130.59375,-56.75,0.0,0.0,0.0
1696243509343,-0.20996094,0.5253906,-0.087890625,205.625,-169.28125,-0.09375,0.0,0.0,0.0
1696243509372,-2.0,0.36523438,0.6796875,-14.46875,-282.8125,13.5625,0.0,0.0,0.0
1696243509401,-2.0,-0.1875,0.26953125,-105.46875,-147.625,-104.90625,-90.3125,32.125,-53.3125
1696243509463,-1.4892578,-0.3779297,0.29492188,67.25,-89.6875,-32.21875,0.0,0.0,0.0
1696243509493,-0.7753906,0.09277344,0.0087890625,189.5625,-60.53125,-37.625,0.0,0.0,0.0
1696243509526,0.39746094,0.5019531,-0.109375,95.03125,4.15625,-23.78125,0.0,0.0,0.0
1696243509584,0.37890625,0.099609375,-0.061523438,-60.84375,157.1875,43.125,0.0,0.0,0.0
1696243509612,-0.73828125,-0.14453125,0.4091797,-16.1875,129.59375,53.96875,0.0,0.0,0.0
1696243509642,-1.2578125,-0.37109375,1.8417969,-218.1875,-171.25,-31.84375,0.0,0.0,0.0
1696243509706,-1.4863281,1.6669922,-1.4316406,-180.96875,25.53125,42.4375,0.0,0.0,0.0
1696243509732,-0.6015625,-1.0019531,-0.9638672,-116.8125,97.875,-36.40625,0.0,0.0,0.0
1696243509763,-1.2451172,0.7607422,0.07714844,-164.3125,148.9375,119.40625,0.0,0.0,0.0
1696243509823,-1.5205078,-1.5810547,0.37695312,88.6875,189.59375,-25.375,0.0,0.0,0.0
1696243509852,-1.2236328,0.6875,0.65527344,-8.3125,168.78125,-21.46875,0.0,0.0,0.0
1696243509882,-0.90625,0.140625,0.9238281,-54.03125,106.65625,30.90625,-97.375,30.5,-66.8125
1696243509943,-0.5488281,-0.6035156,0.25,-82.40625,31.03125,30.1875,0.0,0.0,0.0
1696243509973,-0.29003906,-0.46191406,0.29882812,10.3125,-94.28125,-32.09375,0.0,0.0,0.0
1696243510003,-0.12207031,0.34472656,0.1640625,170.40625,-150.0,-10.0625,0.0,0.0,0.0
1696243510062,-2.0,0.3388672,0.59765625,102.0625,-273.78125,-0.34375,0.0,0.0,0.0
1696243510098,-2.0,0.5019531,0.140625,-314.625,-173.5625,-12.5625,0.0,0.0,0.0
1696243510126,-2.0,-0.7363281,0.27246094,77.21875,-102.15625,-70.15625,0.0,0.0,0.0
1696243510183,-1.0976562,-0.05078125,-0.09472656,240.78125,-83.21875,-83.96875,0.0,0.0,0.0
1696243510211,0.21875,0.72265625,0.06933594,173.53125,-54.25,-63.03125,0.0,0.0,0.0
1696243510243,0.5830078,0.32714844,-0.1328125,2.375,98.21875,33.09375,0.0,0.0,0.0
1696243510304,-0.17871094,0.18359375,0.037109375,-50.71875,135.28125,48.90625,0.0,0.0,0.0
1696243510332,-1.8203125,-0.328125,1.9873047,-166.9375,-85.3125,4.40625,0.0,0.0,0.0
1696243510362,-0.3671875,0.83496094,-2.0126953,-336.375,80.71875,-66.9375,0.0,0.0,0.0
1696243510428,-1.4023438,-1.0917969,-1.1513672,43.03125,147.40625,-9.6875,-94.0625,25.0625,-56.3125
1696243510453,-0.4892578,0.8828125,0.3408203,-231.75,182.34375,107.75,0.0,0.0,0.0
1696243510483,-2.0,-1.9824219,0.24804688,175.53125,227.625,-45.875,0.0,0.0,0.0
1696243510543,-0.98535156,0.859375,0.6191406,-48.03125,190.625,-62.25,0.0,0.0,0.0
1696243510573,-0.9375,0.43554688,1.0615234,-78.5625,116.0,33.90625,0.0,0.0,0.0
1696243510602,-0.49316406,-0.77441406,0.26660156,-84.71875,23.28125,48.375,0.0,0.0,0.0
1696243510663,-0.3173828,-0.71875,0.5205078,-5.8125,-96.59375,-48.5,0.0,0.0,0.0
1696243510693,-0.25390625,0.47753906,0.24121094,179.625,-158.96875,-24.09375,0.0,0.0,0.0
1696243510723,-2.0,0.2265625,0.23242188,80.75,-296.125,-25.125,0.0,0.0,0.0
1696243510784,-2.0,0.47851562,-0.46191406,-321.65625,-162.53125,-31.40625,0.0,0.0,0.0
1696243510813,-2.0,-0.8613281,0.296875,93.625,-128.28125,-76.09375,0.0,0.0,0.0
1696243510842,-0.7949219,-0.14160156,-0.19335938,306.40625,-129.3125,-70.84375,0.0,0.0,0.0
1696243510902,0.5341797,0.7167969,-0.061523438,173.71875,-30.3125,-40.625,-90.3125,14.3125,-49.4375
1696243510933,0.7529297,0.25097656,-0.29589844,-26.6875,120.4375,37.75,0.0,0.0,0.0
1696243510961,-0.1640625,0.09375,0.19921875,-98.8125,174.875,36.8125,0.0,0.0,0.0
1696243511023,-1.7802734,-0.4033203,1.9873047,-181.65625,-142.125,7.65625,0.0,0.0,0.0
1696243511052,-1.4501953,1.0009766,-2.0126953,-243.28125,77.15625,6.0625,0.0,0.0,0.0
1696243511088,0.08886719,-0.23535156,-1.234375,111.625,106.21875,-31.78125,0.0,0.0,0.0
1696243511144,-1.2988281,0.7451172,0.4892578,-242.0,183.375,136.6875,0.0,0.0,0.0
1696243511172,-1.2978516,-1.9824219,0.25097656,154.96875,248.4375,-63.34375,0.0,0.0,0.0
1696243511203,-0.93847656,1.1474609,0.58984375,35.28125,173.96875,-58.28125,0.0,0.0,0.0
1696243511264,-0.85546875,0.4296875,1.0234375,-58.65625,113.78125,31.28125,0.0,0.0,0.0
1696243511293,-0.5341797,-0.56347656,0.06640625,-98.375,15.53125,39.5,0.0,0.0,0.0
1696243511322,-0.2626953,-0.3173828,0.296875,9.59375,-80.84375,-26.90625,0.0,0.0,0.0
1696243511384,-0.6201172,0.03125,-0.17285156,146.71875,-142.5625,-22.875,0.0,0.0,0.0
1696243511413,-2.0,0.5859375,-0.0029296875,84.21875,-219.09375,-46.5,-96.4375,22.375,-60.625
1696243511443,-1.8447266,0.7363281,-0.4296875,-324.09375,-163.0,-40.625,0.0,0.0,0.0
1696243511507,-1.5615234,-0.9277344,0.41601562,167.25,-169.03125,-35.9375,0.0,0.0,0.0
1696243511533,-0.91308594,-0.07910156,-0.20996094,124.9375,-58.625,-93.3125,0.0,0.0,0.0
1696243511562,0.21289062,0.62109375,-0.19433594,146.125,-30.625,-46.625,0.0,0.0,0.0
1696243511622,0.73339844,0.20019531,-0.018554688,-2.5,125.8125,33.09375,0.0,0.0,0.0
1696243511656,-0.17871094,-0.16796875,0.17480469,8.0625,180.9375,13.4375,0.0,0.0,0.0
1696243511683,-1.9492188,-0.34375,1.9580078,-192.25,-90.875,-32.09375,0.0,0.0,0.0
1696243511745,-1.1679688,0.8642578,-2.0126953,-180.46875,53.71875,-73.53125,0.0,0.0,0.0
1696243511772,-0.5,-0.6425781,-1.9980469,52.1875,85.15625,24.8125,0.0,0.0,0.0
1696243511803,-0.6904297,0.62890625,0.2763672,-217.84375,178.3125,89.0625,0.0,0.0,0.0
1696243511865,-1.7978516,-1.765625,0.41503906,116.75,261.6875,-81.875,0.0,0.0,0.0
1696243511896,-1.015625,0.9707031,0.6533203,-12.03125,178.84375,-29.28125,-96.3125,23.3125,-64.125
1696243511927,-0.87597656,0.19628906,0.984375,-73.125,110.4375,45.0625,0.0,0.0,0.0
1696243511985,-0.5214844,-0.89453125,0.11328125,-91.6875,13.25,28.46875,0.0,0.0,0.0
1696243512024,-0.27539062,-0.26171875,0.32617188,-8.53125,-88.0625,-57.59375,0.0,0.0,0.0
1696243512041,-0.07714844,0.31152344,0.30664062,159.65625,-159.40625,-20.0,0.0,0.0,0.0
1696243512101,-2.0,0.5390625,0.22265625,0.1875,-297.40625,17.0625,0.0,0.0,0.0
1696243512131,-2.0,0.5488281,-0.32714844,-265.625,-179.84375,-5.46875,0.0,0.0,0.0
1696243512161,-1.7685547,-0.6904297,0.43359375,77.8125,-135.125,-86.53125,0.0,0.0,0.0
1696243512224,-0.7373047,-0.45117188,-0.078125,311.15625,-121.4375,-54.3125,0.0,0.0,0.0
1696243512254,0.1484375,0.83984375,-0.19921875,158.6875,-26.21875,-38.96875,0.0,0.0,0.0
1696243512280,0.703125,0.33203125,-0.2705078,-46.75,125.5,42.25,0.0,0.0,0.0
1696243512341,-0.25683594,-0.07421875,0.060546875,-65.75,190.375,24.3125,0.0,0.0,0.0
1696243512376,-2.0,-0.484375,1.9873047,-230.90625,-118.8125,-18.40625,0.0,0.0,0.0
1696243512409,-0.83691406,1.3935547,-2.0126953,-214.59375,82.28125,-23.78125,-86.5625,9.1875,-49.6875
1696243512460,0.0,-0.69140625,-1.5898438,-30.34375,98.96875,-18.46875,0.0,0.0,0.0
1696243512495,-0.6777344,0.35351562,-0.49023438,-140.0625,202.46875,124.71875,0.0,0.0,0.0
1696243512525,-1.7158203,-1.8037109,0.46679688,196.53125,227.625,-52.28125,0.0,0.0,0.0
1696243512581,-1.0419922,1.3515625,0.85058594,7.4375,172.6875,-38.375,0.0,0.0,0.0
1696243512610,-0.8330078,0.18945312,0.85839844,-63.46875,105.1875,42.8125,0.0,0.0,0.0
1696243512640,-0.30566406,-0.9160156,-0.390625,-86.25,18.28125,24.25,0.0,0.0,0.0
1696243512702,-0.040039062,-0.14550781,0.60058594,73.125,-88.34375,-34.09375,0.0,0.0,0.0
1696243512733,-0.3251953,0.3857422,0.19238281,101.1875,-143.96875,-0.90625,0.0,0.0,0.0
1696243512762,-2.0,0.0859375,0.14746094,-7.1875,-288.5,-24.9375,0.0,0.0,0.0
1696243512821,-1.9111328,0.33398438,-0.41503906,-263.1875,-165.875,-49.84375,0.0,0.0,0.0
1696243512851,-1.7421875,-0.65625,0.5078125,144.40625,-140.65625,-78.46875,0.0,0.0,0.0
1696243512892,-0.8925781,-0.17871094,-0.140625,295.96875,-141.875,-87.0625,-87.4375,25.0625,-45.0625
1696243512941,0.36328125,0.74316406,-0.16503906,144.09375,-2.0625,-49.71875,0.0,0.0,0.0
1696243512972,0.87597656,0.15722656,-0.7607422,9.09375,142.53125,46.34375,0.0,0.0,0.0
1696243513001,-0.45214844,-0.18945312,0.7128906,-56.28125,152.25,20.78125,0.0,0.0,0.0
1696243513061,-1.7695312,0.3173828,1.3134766,-123.09375,-184.84375,15.21875,0.0,0.0,0.0
1696243513096,-2.0,2.0175781,1.9873047,-13.5,-12.1875,18.5,0.0,0.0,0.0
1696243513122,0.16503906,-0.8544922,-0.8466797,-242.625,140.71875,7.09375,0.0,0.0,0.0
1696243513185,-1.9365234,0.3857422,-0.5263672,-159.59375,204.1875,183.0,0.0,0.0,0.0
1696243513213,-1.5556641,-0.6816406,0.5527344,182.5,229.5,-28.78125,0.0,0.0,0.0
1696243513243,-0.91503906,0.8886719,0.65625,-84.65625,166.34375,-4.875,0.0,0.0,0.0
1696243513305,-0.5996094,-0.25195312,0.6591797,-47.53125,101.875,52.09375,0.0,0.0,0.0
1696243513334,-0.27246094,-0.9785156,0.12402344,-11.40625,55.4375,7.65625,0.0,0.0,0.0
1696243513362,-0.23144531,0.29101562,0.3544922,69.34375,-78.03125,-38.6875,0.0,0.0,0.0
1696243513427,-1.2509766,0.29589844,-0.17285156,114.9375,-184.78125,-2.375,-100.1875,25.25,-69.1875
1696243513452,-2.0,0.70996094,0.2939453,-69.8125,-227.09375,-17.5,0.0,0.0,0.0
1696243513484,-2.0,0.125,-0.5576172,-136.28125,-134.5,-29.15625,0.0,0.0,0.0
1696243513543,-1.8408203,-0.84472656,-0.005859375,142.34375,-164.53125,-75.59375,0.0,0.0,0.0
1696243513572,-0.45507812,0.076171875,-0.19335938,283.6875,-125.71875,-85.25,0.0,0.0,0.0
1696243513603,0.6328125,0.98339844,-0.26757812,119.375,3.1875,-15.78125,0.0,0.0,0.0
1696243513664,0.65722656,-0.2265625,-0.82128906,27.59375,99.25,34.5625,0.0,0.0,0.0
1696243513692,-0.41796875,-0.053710938,1.046875,-163.09375,159.9375,-18.53125,0.0,0.0,0.0
1696243513728,-1.71875,-0.0126953125,1.3164062,-74.03125,-190.28125,9.1875,0.0,0.0,0.0
1696243513781,-2.0,2.0175781,1.9873047,-12.5625,-21.90625,-2.71875,0.0,0.0,0.0
1696243513813,0.45898438,-0.3857422,-1.2080078,-199.9375,121.59375,29.0,0.0,0.0,0.0
1696243513842,-1.8916016,0.29882812,0.026367188,-126.84375,192.84375,178.90625,0.0,0.0,0.0
1696243513901,-1.4638672,-0.74609375,0.69140625,116.9375,250.6875,-54.0625,-91.9375,28.6875,-57.6875
1696243513932,-0.9560547,0.85546875,0.6484375,-53.90625,182.53125,-11.875,0.0,0.0,0.0
1696243513963,-0.43066406,-0.19921875,0.5566406,-56.21875,121.46875,38.21875,0.0,0.0,0.0
1696243514023,-0.3955078,-0.87597656,0.2607422,9.8125,30.53125,-7.1875,0.0,0.0,0.0
1696243514051,-0.27734375,0.8232422,0.38867188,104.25,-108.375,-29.09375,0.0,0.0,0.0
1696243514083,-0.8544922,0.47460938,-0.12109375,119.5,-195.53125,40.0625,0.0,0.0,0.0
1696243514144,-2.0,-0.50097656,0.041015625,-51.5,-319.0,-5.90625,0.0,0.0,0.0
1696243514173,-2.0,-0.055664062,0.2783203,-59.875,-141.28125,-97.09375,0.0,0.0,0.0
1696243514202,-1.1103516,-0.2548828,0.013671875,150.5625,-150.90625,-94.15625,0.0,0.0,0.0
1696243514267,-0.6142578,0.1015625,-0.32226562,280.8125,-128.03125,-79.25,0.0,0.0,0.0
1696243514298,0.5136719,1.0253906,-0.125,76.53125,2.78125,-21.59375,0.0,0.0,0.0
1696243514329,0.6982422,-0.09863281,-0.92089844,-89.46875,193.125,54.65625,0.0,0.0,0.0
1696243514385,-1.1162109,-0.22265625,1.3417969,-80.4375,131.625,1.59375,0.0,0.0,0.0
1696243514413,-0.81640625,0.43164062,-0.69140625,-113.65625,-110.625,6.90625,-90.4375,27.3125,-51.6875
1696243514442,-2.0,-0.61035156,1.9853516,146.4375,17.65625,40.25,0.0,0.0,0.0
1696243514503,0.68652344,0.21777344,-0.58691406,-238.15625,195.28125,14.65625,0.0,0.0,0.0
1696243514532,-2.0,0.43164062,-0.46972656,-132.25,211.375,277.84375,0.0,0.0,0.0
1696243514563,-1.3691406,-0.6904297,0.6738281,122.375,223.21875,-11.625,0.0,0.0,0.0
1696243514622,-0.8339844,0.86328125,0.8417969,-46.875,162.9375,4.84375,0.0,0.0,0.0
1696243514653,-0.4169922,-0.49902344,0.63183594,-67.03125,99.6875,35.125,0.0,0.0,0.0
1696243514684,-0.4091797,-0.79785156,0.5957031,4.21875,-18.46875,-33.5,0.0,0.0,0.0
1696243514745,-0.09082031,0.77734375,0.4873047,119.9375,-136.5625,-41.4375,0.0,0.0,0.0
1696243514773,-1.0458984,0.3232422,-0.095703125,107.3125,-208.90625,27.65625,0.0,0.0,0.0
1696243514802,-2.0,-0.19042969,-0.033203125,-169.3125,-287.53125,-28.40625,0.0,0.0,0.0
1696243514866,-2.0,-0.064453125,0.26757812,-66.65625,-158.84375,-129.5,0.0,0.0,0.0
1696243514892,-1.2226562,-0.2861328,0.0126953125,188.84375,-130.09375,-50.53125,-91.625,23.0,-48.6875
1696243514923,-0.66796875,0.24414062,-0.0546875,232.46875,-105.4375,-51.90625,0.0,0.0,0.0
1696243514983,0.8486328,0.7080078,0.1015625,46.5625,34.6875,-3.65625,0.0,0.0,0.0
1696243515011,0.46191406,-0.3173828,-0.71191406,-23.625,219.0,72.34375,0.0,0.0,0.0
1696243515043,-1.3544922,-0.20117188,1.25,-43.75,104.9375,11.5,0.0,0.0,0.0
1696243515135,-1.0058594,0.27246094,1.2265625,-46.25,-234.59375,-26.84375,0.0,0.0,0.0
1696243515140,-2.0,2.0175781,1.9873047,34.0,-15.78125,63.1875,0.0,0.0,0.0
1696243515161,0.9501953,-0.13378906,-0.9609375,-234.25,153.03125,-14.8125,0.0,0.0,0.0
1696243515222,-1.6728516,0.2890625,-0.3935547,-183.15625,204.78125,187.8125,0.0,0.0,0.0
1696243515251,-1.1230469,-1.4482422,0.40234375,162.40625,247.75,-31.15625,0.0,0.0,0.0
1696243515288,-1.0859375,1.1142578,0.67089844,-23.75,187.03125,-19.6875,0.0,0.0,0.0
1696243515343,-0.90234375,-0.3173828,0.9404297,-54.4375,139.78125,36.03125,0.0,0.0,0.0
1696243515373,-0.1484375,-0.87109375,0.057617188,27.90625,38.03125,-5.09375,0.0,0.0,0.0
1696243515402,-0.12597656,0.7421875,0.11425781,88.875,-85.71875,-30.9375,-102.75,29.3125,-72.375
1696243515465,-0.36132812,0.515625,0.14257812,93.1875,-177.21875,18.21875,0.0,0.0,0.0
1696243515492,-2.0,-0.35351562,0.041992188,-83.6875,-296.96875,19.5625,0.0,0.0,0.0
1696243515529,-2.0,0.0625,-0.029296875,-168.28125,-174.125,-52.21875,0.0,0.0,0.0
1696243515582,-1.5039062,-0.057617188,0.30664062,78.0625,-149.5,-102.75,0.0,0.0,0.0
1696243515615,-0.7861328,-0.17773438,-0.10253906,335.75,-134.3125,-77.5,0.0,0.0,0.0
1696243515642,-0.001953125,0.84472656,-0.07714844,86.0,-16.28125,-47.03125,0.0,0.0,0.0
1696243515702,0.67089844,0.2763672,-0.38671875,-50.46875,135.9375,35.125,0.0,0.0,0.0
1696243515732,-0.16992188,-0.09765625,-0.09667969,-14.78125,160.125,45.4375,0.0,0.0,0.0
1696243515771,-2.0,-0.14355469,1.9873047,-200.6875,-188.40625,-26.21875,0.0,0.0,0.0
1696243515834,-0.7675781,1.15625,-2.0126953,-279.71875,77.46875,-34.90625,0.0,0.0,0.0
1696243515850,0.08300781,-0.6533203,-1.0878906,-13.25,31.5,-55.875,0.0,0.0,0.0
1696243515880,0.31054688,0.9921875,-0.36816406,-216.3125,173.90625,79.65625,-93.125,21.9375,-52.5625
1696243515941,-2.0,-1.9824219,0.27246094,128.125,285.0625,-9.6875,0.0,0.0,0.0
1696243515972,-1.1035156,1.1259766,0.75,-12.8125,177.28125,-61.875,0.0,0.0,0.0
1696243516004,-0.74902344,0.54296875,1.0576172,-68.84375,130.40625,52.4375,0.0,0.0,0.0
1696243516064,-0.39746094,-1.4013672,-0.5283203,-74.53125,62.21875,40.375,0.0,0.0,0.0
1696243516091,-0.30273438,0.037109375,0.83691406,-0.84375,-84.34375,-48.5,0.0,0.0,0.0
1696243516120,-0.060546875,0.58691406,0.17871094,138.125,-152.375,-5.78125,0.0,0.0,0.0
1696243516184,-2.0,0.057617188,0.20703125,64.6875,-279.53125,35.125,0.0,0.0,0.0
1696243516221,-2.0,0.2626953,0.119140625,-296.5,-185.71875,-11.40625,0.0,0.0,0.0
1696243516242,-1.8183594,-0.5136719,0.4248047,25.6875,-138.09375,-96.59375,0.0,0.0,0.0
1696243516305,-1.1708984,-0.31640625,-0.16308594,314.875,-131.15625,-57.28125,0.0,0.0,0.0
1696243516332,-0.19140625,0.7089844,-0.115234375,182.375,-93.96875,-46.0,0.0,0.0,0.0
1696243516365,0.8046875,0.65234375,0.04296875,-13.25,66.78125,14.5625,0.0,0.0,0.0
1696243516424,0.1953125,-0.10058594,-0.56152344,-27.53125,204.125,56.46875,-89.375,27.9375,-48.5
1696243516453,-1.9882812,-0.61035156,1.9873047,-94.0,-48.75,11.5,0.0,0.0,0.0
1696243516483,1.2587891,0.37597656,-2.0126953,-221.5,51.59375,-33.78125,0.0,0.0,0.0
1696243516544,-2.0,-1.9824219,-2.0126953,303.40625,40.25,95.1875,0.0,0.0,0.0
1696243516572,0.12207031,0.7685547,0.3251953,-192.875,143.21875,17.21875,0.0,0.0,0.0
1696243516602,-2.0,0.14941406,0.055664062,37.46875,185.25,251.78125,0.0,0.0,0.0
1696243516666,-1.2509766,0.059570312,0.5410156,31.6875,208.53125,-55.40625,0.0,0.0,0.0
1696243516692,-0.9189453,0.75,0.7753906,-65.6875,158.65625,21.4375,0.0,0.0,0.0
1696243516721,-0.49902344,-0.5878906,0.5292969,-65.84375,101.21875,53.78125,0.0,0.0,0.0
1696243516783,-0.22167969,-0.94628906,0.69140625,-0.65625,-14.6875,-15.125,0.0,0.0,0.0
1696243516812,-0.16601562,0.5498047,0.16503906,109.75,-120.09375,-41.3125,0.0,0.0,0.0
1696243516844,-1.4589844,0.25195312,-0.13769531,158.8125,-233.875,11.9375,0.0,0.0,0.0
1696243516904,-2.0,0.76953125,0.3955078,-181.46875,-247.28125,-25.90625,-100.1875,27.0625,-64.25
1696243516933,-2.0,-0.40625,0.19238281,61.46875,-163.8125,-47.78125,0.0,0.0,0.0
1696243516963,-1.6103516,-0.43945312,-0.14160156,242.6875,-156.59375,-76.625,0.0,0.0,0.0
1696243517023,-0.21679688,0.33691406,-0.24511719,282.21875,-134.125,-35.0,0.0,0.0,0.0
1696243517051,0.7246094,0.87402344,-0.10449219,54.8125,49.65625,-0.90625,0.0,0.0,0.0
1696243517087,0.6269531,-0.20800781,-1.0751953,-50.28125,166.15625,38.09375,0.0,0.0,0.0
1696243517144,-0.7675781,0.07128906,1.2236328,-173.03125,148.53125,-6.21875,0.0,0.0,0.0
1696243517171,-1.5820312,-0.09082031,1.4365234,-74.15625,-187.0625,-1.1875,0.0,0.0,0.0
1696243517207,-2.0,2.0175781,1.9873047,-42.0,10.9375,54.34375,0.0,0.0,0.0
1696243517264,0.66308594,-0.119140625,-0.83496094,-185.5625,130.40625,-11.03125,0.0,0.0,0.0
1696243517293,-2.0,0.42773438,-0.5527344,-188.96875,226.28125,225.0,0.0,0.0,0.0
1696243517323,-1.3027344,-1.2128906,0.33984375,113.21875,261.4375,-22.6875,0.0,0.0,0.0
1696243517379,-1.0644531,1.0957031,0.6621094,-26.375,200.8125,-14.1875,0.0,0.0,0.0
1696243517411,-0.5966797,-0.14160156,0.6777344,-74.21875,134.53125,47.6875,-102.0,26.3125,-73.375
1696243517443,-0.34277344,-1.2353516,0.6923828,25.15625,4.53125,12.40625,0.0,0.0,0.0
1696243517503,-0.20898438,0.4580078,0.06738281,78.25,-111.375,-46.65625,0.0,0.0,0.0
1696243517536,-0.4736328,0.4892578,0.15429688,136.71875,-192.0625,7.09375,0.0,0.0,0.0
1696243517562,-2.0,-0.041015625,-0.00390625,-56.59375,-317.71875,-28.375,0.0,0.0,0.0
1696243517627,-2.0,0.21386719,-0.2734375,-181.40625,-137.96875,-83.28125,0.0,0.0,0.0
1696243517652,-1.8349609,-0.47851562,0.043945312,111.03125,-167.59375,-85.1875,0.0,0.0,0.0
1696243517683,-0.69628906,-0.068359375,-0.051757812,319.75,-134.0,-71.625,0.0,0.0,0.0
1696243517743,0.5107422,0.79589844,-0.0546875,138.25,-29.75,-50.5625,0.0,0.0,0.0
1696243517775,0.7236328,0.030273438,-0.50683594,-13.1875,101.71875,52.9375,0.0,0.0,0.0
1696243517801,-0.20605469,0.26464844,0.087890625,-78.84375,144.6875,31.03125,0.0,0.0,0.0
1696243517864,-1.6269531,-0.13964844,1.9873047,-233.8125,-268.59375,-18.28125,0.0,0.0,0.0
1696243517892,-1.1044922,1.3720703,-1.2060547,-227.1875,36.40625,9.40625,-87.875,22.5625,-52.125
1696243517923,0.3779297,-0.140625,-0.5410156,-126.96875,71.375,-40.375,0.0,0.0,0.0
1696243517983,-0.7167969,0.6777344,-0.53222656,-210.28125,242.03125,150.65625,0.0,0.0,0.0
1696243518013,-1.9912109,-1.9824219,0.31347656,163.09375,259.1875,-67.0625,0.0,0.0,0.0
1696243518055,-1.1220703,1.2021484,0.8388672,-85.03125,182.46875,-47.15625,0.0,0.0,0.0
1696243518100,-0.78808594,0.24414062,1.1513672,-46.375,134.125,43.21875,0.0,0.0,0.0
1696243518132,-0.19433594,-1.2597656,-0.119140625,-11.28125,71.8125,26.3125,0.0,0.0,0.0
1696243518161,-0.32910156,0.43945312,0.099609375,90.28125,-102.9375,-48.3125,0.0,0.0,0.0
1696243518221,-0.31640625,0.5917969,0.095703125,168.28125,-198.53125,10.40625,0.0,0.0,0.0
1696243518253,-2.0,0.09765625,0.4375,-13.0625,-326.40625,8.3125,0.0,0.0,0.0
1696243518285,-2.0,-0.2109375,-0.328125,-159.53125,-173.375,-46.0,0.0,0.0,0.0
1696243518345,-1.9667969,-0.42285156,-0.009765625,135.1875,-155.1875,-106.125,0.0,0.0,0.0
1696243518374,-0.6894531,-0.0546875,-0.045898438,369.5,-149.875,-87.1875,0.0,0.0,0.0
1696243518403,0.5097656,1.0019531,-0.09667969,116.28125,-8.34375,-57.28125,-88.8125,27.5,-47.0
1696243518464,0.70410156,-0.15917969,-0.8046875,-17.625,112.25,37.9375,0.0,0.0,0.0
1696243518491,-0.028320312,0.2939453,-0.033203125,-193.0625,171.40625,0.21875,0.0,0.0,0.0
1696243518523,-2.0,-0.16210938,1.9873047,-129.21875,-80.125,-7.90625,0.0,0.0,0.0
1696243518584,0.19042969,0.375,-2.0126953,-275.5625,138.5625,-38.8125,0.0,0.0,0.0
1696243518614,-0.9355469,-1.5175781,-2.0126953,-63.65625,114.09375,-111.3125,0.0,0.0,0.0
1696243518641,0.6738281,1.0537109,-0.7529297,-225.90625,161.53125,93.09375,0.0,0.0,0.0
1696243518706,-2.0,-1.5488281,0.8251953,206.25,231.09375,72.46875,0.0,0.0,0.0
1696243518733,-1.2070312,1.0849609,0.9785156,-77.875,181.0,-72.1875,0.0,0.0,0.0
1696243518762,-0.6064453,0.39453125,0.9609375,-60.5,132.59375,56.71875,0.0,0.0,0.0
1696243518825,-0.2939453,-1.2285156,-0.12207031,-26.25,30.59375,42.875,0.0,0.0,0.0
1696243518854,-0.3515625,0.15234375,0.39746094,76.78125,-101.34375,-31.78125,0.0,0.0,0.0
1696243518881,-0.54589844,0.39453125,0.04296875,157.65625,-205.71875,-5.21875,-102.125,23.5625,-74.3125
1696243518950,-2.0,0.10449219,0.19140625,-16.28125,-279.34375,-30.375,0.0,0.0,0.0
1696243518971,-2.0,0.00390625,0.06933594,-85.5625,-152.75,-80.0,0.0,0.0,0.0
1696243519002,-1.5791016,-0.34960938,0.09667969,93.375,-174.125,-43.625,0.0,0.0,0.0
1696243519064,-0.5703125,-0.24121094,-0.12109375,317.5625,-145.5625,-50.28125,0.0,0.0,0.0
1696243519093,0.4189453,0.703125,-0.25195312,162.65625,-25.3125,-11.8125,0.0,0.0,0.0
1696243519123,0.6376953,0.09667969,-0.26367188,-38.8125,99.4375,52.15625,0.0,0.0,0.0
1696243519185,-0.2529297,0.13671875,-0.0107421875,-113.28125,215.15625,16.0,0.0,0.0,0.0
1696243519212,-2.0,-0.18164062,1.9873047,-205.1875,-303.09375,-15.125,0.0,0.0,0.0
1696243519243,-0.8779297,1.6953125,-0.7792969,-174.875,20.46875,-13.21875,0.0,0.0,0.0
1696243519304,0.09863281,-0.6308594,-1.0175781,-155.625,105.96875,-20.0625,0.0,0.0,0.0
1696243519335,-0.70410156,0.7236328,-0.45410156,-228.03125,252.78125,140.09375,0.0,0.0,0.0
1696243519362,-2.0,-1.8691406,0.4658203,182.625,281.09375,-40.6875,0.0,0.0,0.0
1696243519424,-1.1386719,0.8730469,0.82910156,-70.9375,200.75,-32.5625,-99.625,27.3125,-66.5
1696243519453,-0.61035156,0.27734375,0.7841797,-61.71875,133.5625,40.25,0.0,0.0,0.0
1696243519482,-0.39746094,-1.0615234,0.048828125,-64.15625,33.84375,11.0625,0.0,0.0,0.0
1696243519542,-0.3408203,0.033203125,0.29003906,94.3125,-89.21875,-61.5,0.0,0.0,0.0
1696243519572,-0.20605469,0.5546875,0.34375,148.4375,-179.84375,-10.1875,0.0,0.0,0.0
1696243519603,-2.0,-0.053710938,0.17871094,26.5625,-311.25,25.90625,0.0,0.0,0.0
1696243519661,-2.0,0.2578125,0.08691406,-151.3125,-182.28125,-24.03125,0.0,0.0,0.0
1696243519691,-1.3642578,-0.14355469,0.33007812,28.8125,-161.84375,-84.15625,0.0,0.0,0.0
1696243519720,-1.1582031,-0.3544922,-0.06542969,289.4375,-126.75,-70.0,0.0,0.0,0.0
1696243519787,0.1875,0.64941406,-0.033203125,159.4375,-33.3125,-55.03125,0.0,0.0,0.0
1696243519813,0.9003906,0.14941406,-0.3642578,-15.6875,135.46875,41.09375,0.0,0.0,0.0
1696243519842,-0.119140625,-0.021484375,-0.14648438,-74.34375,198.5,23.46875,0.0,0.0,0.0
1696243519903,-2.0,-0.3203125,1.9873047,-159.53125,-77.0625,-18.40625,-91.625,27.0625,-54.375
1696243519933,-1.4765625,0.056640625,-2.0126953,-205.4375,-57.46875,15.40625,0.0,0.0,0.0
1696243519964,0.23632812,0.1875,-1.2675781,162.28125,47.09375,15.78125,0.0,0.0,0.0
1696243520024,-1.1318359,0.52441406,0.50683594,-273.625,208.8125,90.59375,0.0,0.0,0.0
1696243520052,-2.0,-1.8408203,0.21484375,35.65625,281.46875,4.15625,0.0,0.0,0.0
1696243520082,-1.1484375,0.5986328,0.57128906,72.5,200.28125,-19.28125,0.0,0.0,0.0
1696243520144,-0.77734375,0.3798828,0.8535156,-23.4375,144.90625,32.1875,0.0,0.0,0.0
1696243520172,-0.41308594,-0.78027344,-0.26953125,-61.875,114.34375,20.84375,0.0,0.0,0.0
1696243520203,-0.46484375,-0.43066406,1.5722656,-30.875,-51.375,-66.75,0.0,0.0,0.0
1696243520265,-0.16015625,0.7734375,0.24804688,100.03125,-147.3125,-37.21875,0.0,0.0,0.0
1696243520293,-2.0,0.15820312,-0.15527344,86.5,-279.9375,9.71875,0.0,0.0,0.0
1696243520324,-2.0,0.8144531,0.38378906,-314.5,-288.4375,-21.28125,0.0,0.0,0.0
1696243520381,-2.0,-0.24023438,0.3701172,84.03125,-229.40625,-75.1875,0.0,0.0,0.0
1696243520413,-1.3828125,-0.48828125,-0.053710938,188.21875,-184.71875,-42.28125,-89.5625,18.625,-49.125
1696243520446,-0.30273438,0.27148438,-0.06347656,171.25,-105.75,-40.125,0.0,0.0,0.0
1696243520505,0.82714844,0.6533203,0.1875,23.1875,57.34375,1.125,0.0,0.0,0.0
1696243520535,0.6044922,0.08203125,-0.90527344,-10.8125,224.5625,67.34375,0.0,0.0,0.0
1696243520563,-1.6171875,-0.7607422,1.4873047,-63.125,136.0,-9.9375,0.0,0.0,0.0
1696243520624,-1.0449219,0.3642578,0.6923828,-66.15625,-195.15625,-68.28125,0.0,0.0,0.0
1696243520658,-2.0,2.0175781,1.9873047,166.3125,-78.21875,122.28125,0.0,0.0,0.0
1696243520684,0.8457031,0.34277344,-1.0751953,-263.6875,191.84375,14.5,0.0,0.0,0.0
1696243520743,-2.0,0.09375,-0.18652344,-165.15625,149.875,229.75,0.0,0.0,0.0
1696243520772,-1.1904297,-1.0136719,0.4423828,91.5,227.4375,-18.0,0.0,0.0,0.0
1696243520803,-1.3320312,0.8027344,0.6279297,-5.625,195.9375,22.46875,0.0,0.0,0.0
1696243520864,-0.8076172,-0.23046875,1.0478516,-68.59375,124.21875,49.8125,0.0,0.0,0.0
1696243520893,-0.38964844,-1.2236328,-0.4169922,-45.53125,72.96875,12.03125,-102.0,22.6875,-73.6875
1696243520923,-0.40625,0.15917969,0.7753906,45.34375,-86.15625,-65.40625,0.0,0.0,0.0
1696243520983,-0.09375,0.8183594,0.10839844,136.0,-167.15625,-8.21875,0.0,0.0,0.0
1696243521013,-2.0,-0.07324219,0.22167969,24.34375,-315.34375,-6.28125,0.0,0.0,0.0
1696243521045,-2.0,0.39160156,-0.037109375,-300.78125,-189.75,-16.75,0.0,0.0,0.0
1696243521101,-2.0,-0.5683594,0.359375,62.125,-163.84375,-80.0625,0.0,0.0,0.0
1696243521131,-1.2617188,-0.2998047,-0.15820312,301.5,-127.46875,-101.46875,0.0,0.0,0.0
1696243521162,0.12402344,0.6064453,-0.057617188,168.8125,-76.53125,-48.4375,0.0,0.0,0.0
1696243521226,1.0166016,0.44726562,-0.12109375,-14.53125,90.78125,24.4375,0.0,0.0,0.0
1696243521253,0.24023438,0.0126953125,-0.4033203,-96.75,204.78125,23.21875,0.0,0.0,0.0
1696243521284,-1.7773438,-0.75683594,1.5742188,-116.875,-24.875,-3.46875,0.0,0.0,0.0
1696243521344,0.42773438,0.016601562,-2.0126953,-177.5625,-2.25,-28.96875,0.0,0.0,0.0
1696243521375,-2.0,-1.9541016,-1.2900391,482.71875,-142.375,146.6875,0.0,0.0,0.0
1696243521404,0.57128906,0.9433594,0.40625,-266.84375,138.5,18.46875,-87.4375,21.8125,-53.1875
1696243521464,-2.0,0.37402344,-0.09863281,-81.84375,134.96875,326.25,0.0,0.0,0.0
1696243521494,-1.2402344,-0.77246094,0.359375,86.59375,239.03125,21.8125,0.0,0.0,0.0
1696243521525,-0.9921875,0.7441406,0.90722656,-36.125,141.5,16.0625,0.0,0.0,0.0
1696243521584,-0.4873047,-0.29589844,0.6269531,-63.59375,122.03125,39.15625,0.0,0.0,0.0
1696243521613,-0.14648438,-1.2070312,0.16894531,48.21875,27.84375,-13.15625,0.0,0.0,0.0
1696243521643,-0.203125,0.8027344,0.18261719,124.21875,-105.15625,-51.90625,0.0,0.0,0.0
1696243521705,-0.4033203,0.671875,0.15917969,121.03125,-191.25,20.96875,0.0,0.0,0.0
1696243521733,-2.0,-0.13085938,-0.053710938,-66.53125,-320.78125,-20.375,0.0,0.0,0.0
1696243521761,-2.0,-0.2939453,-0.23925781,-60.0,-114.34375,-124.96875,0.0,0.0,0.0
1696243521823,-1.2988281,-0.15917969,0.046875,137.03125,-138.03125,-61.6875,0.0,0.0,0.0
1696243521854,-0.9511719,-0.06933594,-0.07714844,303.53125,-120.34375,-70.65625,0.0,0.0,0.0
1696243521884,0.030273438,0.79003906,-0.028320312,98.875,-13.21875,-41.4375,-83.25,20.875,-50.75
1696243521942,0.95410156,0.064453125,-0.28027344,-29.53125,133.125,45.96875,0.0,0.0,0.0
1696243521972,-0.44726562,0.00390625,0.2109375,-53.53125,178.65625,30.28125,0.0,0.0,0.0
1696243522001,-2.0,-0.025390625,1.9873047,-200.125,-222.4375,-23.28125,0.0,0.0,0.0
1696243522062,-0.78222656,0.95703125,-2.0126953,-215.75,47.4375,-11.34375,0.0,0.0,0.0
1696243522092,-0.09082031,-0.39648438,-1.4501953,6.21875,60.625,-17.4375,0.0,0.0,0.0
1696243522123,-0.6220703,1.0429688,0.2109375,-217.40625,186.84375,133.125,0.0,0.0,0.0
1696243522182,-2.0,-1.9824219,0.31835938,55.40625,273.03125,26.21875,0.0,0.0,0.0
1696243522212,-1.0986328,0.5449219,0.87402344,-38.4375,225.375,-41.0625,0.0,0.0,0.0
1696243522244,-0.9550781,0.17578125,0.94921875,-40.03125,144.4375,33.78125,0.0,0.0,0.0
1696243522304,-0.36914062,-0.75097656,0.17089844,-56.9375,79.125,32.625,0.0,0.0,0.0
1696243522332,-0.22363281,-0.64746094,0.99902344,30.75,-58.34375,-46.5,0.0,0.0,0.0
1696243522362,-0.1796875,0.8203125,0.25683594,130.25,-149.9375,-22.1875,0.0,0.0,0.0
1696243522423,-2.0,0.037109375,0.046875,101.8125,-269.8125,4.21875,-97.9375,23.0,-70.5625
1696243522454,-2.0,0.72558594,0.5751953,-356.09375,-241.625,-12.3125,0.0,0.0,0.0
1696243522488,-2.0,-0.64941406,0.4580078,150.8125,-174.78125,-60.84375,0.0,0.0,0.0
1696243522541,-1.5957031,-0.50683594,-0.17382812,278.75,-155.375,-96.46875,0.0,0.0,0.0
1696243522570,-0.22949219,0.5839844,-0.32421875,219.3125,-130.46875,-54.125,0.0,0.0,0.0
1696243522602,0.55078125,0.8925781,-0.015625,59.4375,66.625,-10.59375,0.0,0.0,0.0
1696243522662,0.43652344,0.14941406,-0.8515625,-40.53125,117.28125,58.96875,0.0,0.0,0.0
1696243522692,-0.3798828,-0.2734375,1.1582031,-99.25,126.375,-1.03125,0.0,0.0,0.0
1696243522723,-1.1220703,-0.16308594,1.2666016,-100.71875,-166.375,-3.75,0.0,0.0,0.0
1696243522781,-2.0,2.0175781,1.9873047,-77.09375,-77.375,38.28125,0.0,0.0,0.0
1696243522811,1.7939453,0.8720703,-0.36328125,-193.1875,158.71875,-35.375,0.0,0.0,0.0
1696243522842,-1.3222656,0.6425781,-0.5595703,-255.5,175.0625,201.125,0.0,0.0,0.0
1696243522901,-1.3222656,-1.9824219,0.4970703,124.375,267.90625,-65.71875,-93.625,22.6875,-60.625
1696243522932,-0.9316406,1.0380859,0.79296875,-1.59375,173.3125,-12.125,0.0,0.0,0.0
1696243522962,-0.6796875,0.01171875,0.91308594,-34.375,134.59375,41.34375,0.0,0.0,0.0
1696243523020,-0.22070312,-1.1367188,-0.20996094,-18.125,58.375,6.75,0.0,0.0,0.0
1696243523051,-0.34375,0.25878906,0.4951172,73.25,-83.40625,-49.0,0.0,0.0,0.0
1696243523089,-0.5732422,0.5332031,0.1484375,141.53125,-170.4375,-3.15625,0.0,0.0,0.0
1696243523141,-2.0,0.32226562,0.02734375,-33.375,-274.03125,-38.125,0.0,0.0,0.0
1696243523176,-2.0,0.15136719,-0.16796875,-73.4375,-174.28125,-77.90625,0.0,0.0,0.0
1696243523210,-1.7275391,-0.47070312,0.24316406,66.09375,-162.5625,-36.53125,0.0,0.0,0.0
1696243523260,-1.1142578,-0.17578125,-0.09667969,242.84375,-118.875,-73.59375,0.0,0.0,0.0
1696243523295,0.3779297,0.5283203,0.08496094,112.5,-31.40625,-28.0625,0.0,0.0,0.0
1696243523329,0.79296875,0.13769531,-0.14160156,-23.1875,110.25,36.15625,0.0,0.0,0.0
1696243523382,0.017578125,-0.038085938,-0.39257812,-16.28125,215.53125,31.46875,0.0,0.0,0.0
1696243523425,-2.0,-0.36621094,1.9873047,-162.96875,-99.46875,-9.125,-93.0,24.0625,-55.25
1696243523443,2.0,-0.38964844,-2.0126953,-145.15625,29.875,-35.375,0.0,0.0,0.0
1696243523503,-2.0,-1.9824219,-2.0126953,283.3125,-40.75,83.15625,0.0,0.0,0.0
1696243523534,1.5927734,1.3173828,0.036132812,-119.4375,85.65625,-46.25,0.0,0.0,0.0
1696243523563,-2.0,0.8486328,-0.033203125,-169.4375,95.96875,365.875,0.0,0.0,0.0
1696243523625,-1.1015625,-1.4609375,0.23730469,106.4375,269.3125,2.9375,0.0,0.0,0.0
1696243523653,-1.0009766,1.0664062,1.1015625,-27.96875,166.28125,-10.96875,0.0,0.0,0.0
1696243523684,-0.5908203,-0.22265625,0.5888672,-97.03125,104.34375,43.84375,0.0,0.0,0.0
1696243523747,-0.25585938,-0.91308594,0.31835938,31.5,-4.5625,10.03125,0.0,0.0,0.0
1696243523771,-0.20605469,0.59277344,0.27539062,90.15625,-97.21875,-24.03125,0.0,0.0,0.0
1696243523802,-0.72753906,0.3251953,-0.06738281,129.5625,-176.5,28.9375,0.0,0.0,0.0
1696243523864,-2.0,-0.08691406,0.16601562,-59.03125,-263.46875,-20.84375,0.0,0.0,0.0
1696243523896,-2.0,-0.3779297,0.052734375,-135.625,-137.0625,-94.65625,-92.375,23.0,-58.25
1696243523921,-1.6992188,-0.37695312,0.17578125,99.25,-110.28125,-74.125,0.0,0.0,0.0
1696243523981,-0.90722656,0.03125,-0.051757812,224.0625,-81.21875,-93.0,0.0,0.0,0.0
1696243524011,0.46191406,0.65527344,-0.057617188,112.84375,-20.84375,-30.875,0.0,0.0,0.0
1696243524042,0.625,0.0068359375,-0.30273438,-11.84375,104.09375,49.65625,0.0,0.0,0.0
1696243524107,-0.19042969,0.16015625,-0.06933594,-10.3125,170.8125,27.3125,0.0,0.0,0.0
1696243524133,-2.0,-0.53125,1.9873047,-168.28125,-168.875,-31.71875,0.0,0.0,0.0
1696243524163,-1.1123047,0.22363281,-2.0126953,-135.6875,-35.25,-56.5625,0.0,0.0,0.0
1696243524225,-0.14453125,-0.46875,-1.6640625,113.09375,25.65625,9.90625,0.0,0.0,0.0
1696243524253,-1.2363281,0.83496094,0.7451172,-225.34375,159.6875,107.1875,0.0,0.0,0.0
1696243524282,-2.0,-1.5214844,0.33691406,15.3125,256.125,8.8125,0.0,0.0,0.0
1696243524346,-1.1748047,0.40820312,0.47460938,12.21875,200.28125,-20.90625,0.0,0.0,0.0
1696243524373,-0.85546875,0.4404297,0.87109375,-39.3125,136.5,22.59375,0.0,0.0,0.0
1696243524436,-0.45996094,-0.6816406,0.06542969,-73.78125,86.875,18.8125,-95.375,21.625,-74.4375
1696243524463,-0.3076172,-0.38183594,0.9970703,-20.8125,-58.21875,-46.125,0.0,0.0,0.0
1696243524493,-0.12207031,0.42285156,0.2705078,98.75,-136.34375,-25.625,0.0,0.0,0.0
1696243524527,-1.6113281,0.28222656,0.07128906,103.8125,-243.6875,23.6875,0.0,0.0,0.0
1696243524584,-2.0,0.6591797,0.234375,-207.59375,-248.40625,-30.5,0.0,0.0,0.0
1696243524612,-1.9140625,-0.4873047,0.4345703,18.96875,-148.53125,-127.78125,0.0,0.0,0.0
1696243524641,-1.2509766,-0.37402344,-0.01953125,249.875,-127.65625,-48.75,0.0,0.0,0.0
1696243524704,-0.36914062,0.38867188,-0.15917969,206.0,-89.625,-48.375,0.0,0.0,0.0
1696243524732,0.6220703,0.75390625,0.15527344,9.53125,68.1875,-5.28125,0.0,0.0,0.0
1696243524761,0.2548828,-0.103515625,-0.4921875,-81.65625,218.84375,65.6875,0.0,0.0,0.0
1696243524821,-1.9716797,-0.7783203,1.5214844,16.90625,30.34375,16.0625,0.0,0.0,0.0
1696243524852,0.13574219,0.28515625,-2.0126953,-114.6875,-140.40625,-54.71875,0.0,0.0,0.0
1696243524915,-2.0,-0.06640625,1.9873047,304.03125,-39.40625,127.53125,-87.75,18.625,-54.375
1696243524941,-0.11621094,0.21875,0.048828125,-213.9375,111.84375,45.0625,0.0,0.0,0.0
1696243524972,-2.0,0.55078125,-0.5839844,-73.59375,194.125,215.09375,0.0,0.0,0.0
1696243525006,-1.1826172,-0.5595703,0.47753906,59.3125,222.5,-27.3125,0.0,0.0,0.0
1696243525064,-1.0166016,0.48535156,0.7080078,-29.25,171.15625,6.78125,0.0,0.0,0.0
1696243525091,-0.55566406,-0.2109375,0.7792969,-31.96875,122.34375,33.96875,0.0,0.0,0.0
1696243525122,-0.31835938,-0.6357422,0.27246094,-0.125,32.25,-4.875,0.0,0.0,0.0
1696243525185,-0.2548828,0.30664062,0.19726562,55.0625,-87.9375,-43.5,0.0,0.0,0.0
1696243525212,-1.2578125,0.22753906,-0.32910156,115.0625,-199.9375,-9.75,0.0,0.0,0.0
1696243525249,-2.0,0.7441406,0.28710938,-124.8125,-234.65625,-28.3125,0.0,0.0,0.0
1696243525304,-2.0,0.35058594,-0.5888672,-80.25,-116.125,-42.46875,0.0,0.0,0.0
1696243525336,-1.7294922,-0.7871094,0.0625,106.09375,-155.375,-72.25,0.0,0.0,0.0
1696243525362,-0.82714844,0.08984375,-0.14355469,209.53125,-122.15625,-73.09375,0.0,0.0,0.0
1696243525427,0.37695312,0.45507812,-0.00390625,148.9375,-25.3125,-28.1875,-86.375,21.5,-50.0
1696243525451,0.6425781,0.34375,-0.25683594,-38.40625,110.625,37.3125,0.0,0.0,0.0
1696243525481,-0.06640625,-0.16796875,0.12109375,-69.9375,154.875,23.59375,0.0,0.0,0.0
1696243525547,-2.0,-0.5029297,1.9873047,-132.4375,-127.0625,1.5,0.0,0.0,0.0
1696243525573,-1.875,-0.0078125,-2.0126953,-61.65625,-134.9375,-35.5625,0.0,0.0,0.0
1696243525604,0.85253906,-0.15136719,-2.0126953,19.09375,71.75,37.75,0.0,0.0,0.0
1696243525665,-2.0,0.74902344,1.0957031,-234.375,101.53125,206.5625,0.0,0.0,0.0
1696243525693,-1.4794922,-1.2470703,0.38378906,26.1875,226.15625,-2.125,0.0,0.0,0.0
1696243525723,-1.0556641,0.5419922,0.5761719,64.9375,200.28125,-9.8125,0.0,0.0,0.0
1696243525785,-0.93359375,0.12792969,0.7519531,-71.90625,153.46875,13.375,0.0,0.0,0.0
1696243525813,-0.58984375,-0.64941406,0.19628906,-65.0625,53.4375,7.46875,0.0,0.0,0.0
1696243525844,-0.3076172,-0.076171875,0.7753906,2.6875,-91.65625,-42.28125,0.0,0.0,0.0
1696243525905,-0.4892578,0.29101562,-0.15527344,77.6875,-154.28125,-25.90625,-98.25,19.0625,-71.3125
1696243525933,-2.0,0.47070312,0.5917969,77.5,-259.0625,-22.6875,0.0,0.0,0.0
1696243525964,-2.0,0.30078125,-0.06542969,-264.78125,-194.4375,7.15625,0.0,0.0,0.0
1696243526026,-1.9931641,-0.8251953,0.37695312,42.1875,-162.9375,-92.625,0.0,0.0,0.0
1696243526056,-0.85546875,-0.12988281,-0.12207031,177.4375,-134.625,-79.6875,0.0,0.0,0.0
1696243526081,0.23828125,0.40039062,-0.064453125,166.25,-26.53125,-28.1875,0.0,0.0,0.0
1696243526146,0.734375,0.5341797,-0.31152344,-28.25,83.6875,33.59375,0.0,0.0,0.0
1696243526173,0.3935547,-0.2109375,-0.23632812,-45.90625,180.25,17.125,0.0,0.0,0.0
1696243526201,-2.0,-0.8642578,1.9873047,-48.78125,22.3125,-15.25,0.0,0.0,0.0
1696243526262,-2.0,0.9628906,-2.0126953,-145.3125,-1.875,-41.125,0.0,0.0,0.0
1696243526293,0.4013672,0.15429688,-1.5683594,110.21875,11.125,37.6875,0.0,0.0,0.0
1696243526333,-1.0175781,0.34765625,0.39160156,-258.4375,132.53125,107.0625,0.0,0.0,0.0
1696243526384,-2.0,-1.5595703,0.25683594,47.53125,243.78125,-12.75,0.0,0.0,0.0
1696243526413,-0.9863281,0.39941406,0.3046875,21.71875,208.53125,-0.03125,-97.375,16.25,-63.375
1696243526443,-1.1132812,0.013671875,1.0576172,-45.53125,138.5,45.0625,0.0,0.0,0.0
1696243526507,-0.5761719,-0.48242188,0.2861328,-68.71875,86.03125,26.875,0.0,0.0,0.0
1696243526534,-0.28515625,-0.64453125,1.0107422,-28.9375,-40.3125,-30.3125,0.0,0.0,0.0
1696243526564,-0.0048828125,0.5498047,0.21289062,111.75,-138.84375,-21.78125,0.0,0.0,0.0
1696243526623,-1.5878906,0.390625,0.017578125,99.78125,-241.1875,40.90625,0.0,0.0,0.0
1696243526653,-2.0,0.7714844,0.265625,-216.8125,-236.0625,-32.15625,0.0,0.0,0.0
1696243526688,-2.0,-0.28808594,0.39648438,65.96875,-160.25,-68.46875,0.0,0.0,0.0
1696243526745,-1.4453125,-0.57128906,0.0703125,241.46875,-148.90625,-39.84375,0.0,0.0,0.0
1696243526776,-0.5,0.49902344,-0.24707031,241.6875,-112.90625,-60.59375,0.0,0.0,0.0
1696243526812,0.76464844,0.7363281,0.13085938,60.0625,46.53125,-17.75,0.0,0.0,0.0
1696243526864,0.5126953,-0.10253906,-0.67871094,-43.03125,195.46875,49.9375,0.0,0.0,0.0
1696243526891,-0.95410156,-0.2607422,0.92871094,-113.09375,142.0,-1.8125,-91.375,22.6875,-52.5625
1696243526923,-1.4082031,0.072265625,0.6845703,-137.5,-207.6875,-26.65625,0.0,0.0,0.0
1696243526984,-2.0,2.0175781,1.9873047,143.1875,-4.375,79.65625,0.0,0.0,0.0
1696243527012,0.018554688,-0.3779297,-1.2041016,-214.46875,150.46875,53.84375,0.0,0.0,0.0
1696243527045,-2.0,0.35546875,-0.6035156,-107.375,201.1875,194.46875,0.0,0.0,0.0
1696243527103,-1.1142578,-0.43359375,0.50683594,18.625,218.53125,-50.8125,0.0,0.0,0.0
1696243527134,-1.1044922,0.41796875,0.7363281,-6.90625,172.125,9.96875,0.0,0.0,0.0
1696243527163,-0.7675781,-0.052734375,0.97753906,-22.15625,90.71875,32.4375,0.0,0.0,0.0
1696243527226,-0.4560547,-0.765625,0.043945312,-51.8125,-5.03125,3.0,0.0,0.0,0.0
1696243527255,-0.17773438,0.03515625,0.265625,77.9375,-101.71875,-39.34375,0.0,0.0,0.0
1696243527283,-0.5234375,0.39453125,0.11816406,160.59375,-174.90625,1.96875,0.0,0.0,0.0
1696243527345,-2.0,0.049804688,0.30273438,63.59375,-291.0,-33.5625,0.0,0.0,0.0
1696243527373,-2.0,0.07910156,-0.5058594,-158.25,-129.25,-79.5625,0.0,0.0,0.0
1696243527436,-1.7099609,-0.4814453,0.24316406,134.53125,-145.3125,-88.59375,-95.5625,14.4375,-51.6875
1696243527463,-0.90722656,0.032226562,-0.15332031,267.6875,-125.46875,-83.28125,0.0,0.0,0.0
1696243527493,0.32714844,0.66503906,-0.0078125,134.15625,-22.375,-48.4375,0.0,0.0,0.0
1696243527523,0.6972656,0.40820312,0.00390625,-55.53125,116.28125,23.59375,0.0,0.0,0.0
1696243527583,0.24902344,0.044921875,-0.40429688,-83.4375,201.6875,51.40625,0.0,0.0,0.0
1696243527615,-2.0,-0.7734375,1.9873047,-2.8125,-27.125,23.53125,0.0,0.0,0.0
1696243527640,-1.7802734,0.5253906,-2.0126953,-190.5,63.4375,-74.8125,0.0,0.0,0.0
1696243527701,0.10839844,-0.1171875,-1.1982422,240.78125,-0.71875,39.3125,0.0,0.0,0.0
1696243527731,-1.1123047,0.63183594,0.89746094,-272.40625,109.625,44.46875,0.0,0.0,0.0
1696243527763,-2.0,-1.1982422,0.25097656,-21.0625,228.40625,73.09375,0.0,0.0,0.0
1696243527823,-1.0537109,0.15234375,0.30273438,46.8125,209.875,-21.34375,0.0,0.0,0.0
1696243527852,-0.9140625,0.35058594,0.77441406,1.03125,157.4375,20.90625,0.0,0.0,0.0
1696243527945,-0.5361328,-0.2861328,0.39453125,-86.65625,128.1875,20.96875,-101.25,20.125,-71.625
1696243527953,-0.22753906,-0.8046875,0.8388672,2.5625,-21.09375,-20.78125,0.0,0.0,0.0
1696243527970,-0.091796875,0.69433594,0.061523438,120.65625,-124.625,-17.0625,0.0,0.0,0.0
1696243528003,-0.9511719,0.25097656,0.15039062,112.90625,-226.40625,35.59375,0.0,0.0,0.0
1696243528065,-2.0,-0.044921875,-0.03515625,-118.96875,-296.65625,-49.125,0.0,0.0,0.0
1696243528095,-1.9892578,-0.31640625,0.30859375,-32.09375,-161.34375,-159.9375,0.0,0.0,0.0
1696243528124,-1.375,-0.41015625,0.091796875,180.40625,-132.3125,-32.6875,0.0,0.0,0.0
1696243528183,-0.8095703,0.16796875,-0.07421875,222.46875,-74.6875,-53.6875,0.0,0.0,0.0
1696243528212,0.5810547,0.7402344,0.03515625,95.59375,-17.0625,-27.875,0.0,0.0,0.0
1696243528243,0.7529297,-0.047851562,-0.62109375,-61.28125,162.6875,55.875,0.0,0.0,0.0
1696243528302,-0.703125,0.02734375,0.2548828,-45.46875,166.46875,29.1875,0.0,0.0,0.0
1696243528333,-1.8710938,-0.13867188,1.9873047,-198.78125,-170.34375,-44.28125,0.0,0.0,0.0
1696243528365,0.75878906,0.9111328,-2.0126953,-185.5,205.34375,10.34375,0.0,0.0,0.0
1696243528423,-1.6259766,-1.9824219,-2.0126953,-227.46875,246.46875,-191.15625,-90.4375,17.4375,-54.5
1696243528452,0.35742188,0.90625,-1.0009766,-111.28125,189.46875,70.875,0.0,0.0,0.0
1696243528487,-2.0,-1.4755859,0.8183594,168.21875,154.0625,103.71875,0.0,0.0,0.0
1696243528543,-1.2998047,0.875,0.76464844,-57.875,189.59375,-47.90625,0.0,0.0,0.0
1696243528575,-0.72753906,0.4560547,1.1201172,-30.34375,123.5625,57.46875,0.0,0.0,0.0
1696243528699,-0.3203125,-1.0976562,-0.19628906,-77.46875,50.25,40.4375,0.0,0.0,0.0
1696243528705,-0.42089844,-0.35839844,0.6826172,17.6875,-73.40625,-55.65625,0.0,0.0,0.0
1696243528709,-0.022460938,0.7294922,0.43066406,150.21875,-158.0,-28.96875,0.0,0.0,0.0
1696243528722,-2.0,0.35253906,-0.076171875,58.71875,-246.375,55.6875,0.0,0.0,0.0
1696243528783,-2.0,0.028320312,-0.21777344,-197.75,-225.1875,7.40625,0.0,0.0,0.0
1696243528813,-1.7890625,-0.060546875,0.40820312,34.1875,-159.84375,-122.34375,0.0,0.0,0.0
1696243528846,-1.2744141,-0.453125,-0.044921875,280.9375,-121.25,-87.0,0.0,0.0,0.0
1696243528905,-0.18164062,0.66796875,-0.016601562,174.4375,-78.40625,-57.21875,-85.5,21.625,-47.625
1696243528935,0.84765625,0.546875,0.11816406,9.46875,76.0,-0.78125,0.0,0.0,0.0
1696243528963,0.32714844,-0.005859375,-0.6220703,-59.25,201.875,62.28125,0.0,0.0,0.0
1696243529025,-1.7285156,-0.44335938,1.8974609,-62.8125,55.125,0.5,0.0,0.0,0.0
1696243529051,-2.0,0.71191406,-2.0126953,-183.15625,33.46875,-15.46875,0.0,0.0,0.0
1696243529083,-0.48339844,0.203125,0.5185547,149.21875,106.15625,52.09375,0.0,0.0,0.0
1696243529141,-1.5117188,0.053710938,0.70410156,-310.0625,173.46875,96.03125,0.0,0.0,0.0
1696243529184,-2.0,-0.9560547,0.043945312,-0.65625,264.1875,8.125,0.0,0.0,0.0
1696243529203,-1.2333984,0.2265625,0.40820312,30.03125,184.03125,-4.96875,0.0,0.0,0.0
1696243529263,-0.8574219,0.2705078,0.7529297,-63.28125,130.34375,31.28125,0.0,0.0,0.0
1696243529292,-0.54589844,-0.5136719,0.35058594,-17.40625,64.28125,28.71875,0.0,0.0,0.0
1696243529324,-0.35839844,-0.69628906,0.62109375,-36.75,-22.375,-52.53125,0.0,0.0,0.0
1696243529385,-0.11621094,0.41796875,0.038085938,127.625,-110.15625,-46.25,0.0,0.0,0.0
1696243529413,-2.0,0.25683594,0.15527344,108.65625,-284.34375,-19.09375,-100.1875,18.625,-70.25
1696243529473,-2.0,1.1386719,0.7597656,-318.65625,-237.15625,8.9375,0.0,0.0,0.0
1696243529502,-2.0,-0.63964844,0.33789062,114.0625,-171.5,-107.21875,0.0,0.0,0.0
1696243529531,-1.3427734,-0.40722656,-0.14648438,211.0625,-141.15625,-65.53125,0.0,0.0,0.0
1696243529593,-0.095703125,0.390625,-0.08886719,199.59375,-85.625,-32.9375,0.0,0.0,0.0
1696243529622,0.47851562,0.7363281,-0.12890625,34.78125,57.5625,12.28125,0.0,0.0,0.0
1696243529682,0.69628906,0.021484375,-0.9824219,-52.0625,170.125,60.75,0.0,0.0,0.0
1696243529712,-1.1591797,-0.5595703,1.9052734,-58.46875,152.375,-7.65625,0.0,0.0,0.0
1696243529744,-0.51953125,0.09375,-0.9472656,-164.6875,-151.78125,-63.53125,0.0,0.0,0.0
1696243529773,-2.0,1.2539062,1.9873047,383.90625,-205.25,193.125,0.0,0.0,0.0
1696243529836,0.8105469,1.0371094,0.4453125,-226.625,109.53125,7.46875,0.0,0.0,0.0
1696243529863,-2.0,0.046875,-0.68066406,-179.125,148.9375,231.09375,0.0,0.0,0.0
1696243529891,-1.2285156,-1.0400391,0.4013672,99.84375,235.375,-22.25,-93.3125,15.625,-66.5
1696243529951,-1.0390625,0.8935547,0.9189453,-0.65625,155.125,29.5,0.0,0.0,0.0
1696243529981,-0.6953125,-0.15917969,1.0214844,-42.125,108.0625,49.8125,0.0,0.0,0.0
1696243530014,-0.4404297,-1.0888672,0.0703125,-55.71875,-8.71875,-4.3125,0.0,0.0,0.0
1696243530075,-0.2109375,0.10839844,0.20410156,163.75,-116.6875,-43.25,0.0,0.0,0.0
1696243530108,-1.3046875,0.46972656,0.140625,149.53125,-226.90625,-2.25,0.0,0.0,0.0
1696243530132,-2.0,0.9794922,0.39453125,-209.40625,-243.375,5.6875,0.0,0.0,0.0
1696243530226,-2.0,-0.5625,0.31054688,21.71875,-152.125,-106.71875,0.0,0.0,0.0
1696243530232,-1.3271484,-0.32226562,-0.026367188,183.03125,-115.8125,-73.03125,0.0,0.0,0.0
1696243530251,-0.09863281,0.36132812,-0.12597656,242.25,-104.40625,-35.25,0.0,0.0,0.0
1696243530314,0.6386719,0.7841797,-0.17773438,18.5625,54.65625,13.875,0.0,0.0,0.0
1696243530342,0.4736328,-0.20019531,-0.71777344,-71.84375,183.5625,51.78125,0.0,0.0,0.0
1696243530373,-1.5009766,-0.40722656,1.9873047,-59.3125,120.1875,-9.0625,0.0,0.0,0.0
1696243530434,-0.8564453,0.28320312,-2.0126953,-175.40625,-110.625,-40.3125,-82.375,16.25,-52.6875
1696243530466,-2.0,-0.92871094,1.3027344,255.6875,-109.125,126.125,0.0,0.0,0.0
1696243530492,0.021484375,0.10546875,-0.111328125,-156.5625,128.1875,87.3125,0.0,0.0,0.0
1696243530553,-2.0,0.3466797,-0.359375,-87.9375,215.0,183.25,0.0,0.0,0.0
1696243530585,-1.3388672,-0.1171875,0.40820312,14.84375,232.9375,-58.21875,0.0,0.0,0.0
1696243530610,-0.97265625,0.546875,0.875,-7.1875,166.71875,22.59375,0.0,0.0,0.0
1696243530671,-0.74316406,-0.12207031,0.8232422,-55.84375,98.03125,38.78125,0.0,0.0,0.0
1696243530702,-0.2626953,-1.0615234,0.08203125,-24.65625,23.65625,-11.15625,0.0,0.0,0.0
1696243530731,-0.27441406,0.39941406,0.15332031,137.28125,-101.59375,-49.34375,0.0,0.0,0.0
1696243530792,-1.5205078,0.4326172,-0.12597656,98.625,-212.25,-13.78125,0.0,0.0,0.0
1696243530822,-2.0,0.9980469,0.6376953,-235.21875,-246.5,-18.84375,0.0,0.0,0.0
1696243530885,-2.0,-0.4892578,0.10839844,79.21875,-144.4375,-65.09375,0.0,0.0,0.0
1696243530912,-1.5185547,-0.46875,-0.13378906,208.96875,-143.40625,-77.6875,-82.375,9.8125,-56.3125
1696243530943,-0.3779297,0.4267578,-0.26171875,264.09375,-122.46875,-57.09375,0.0,0.0,0.0
1696243530973,0.7109375,0.5722656,-0.001953125,70.3125,48.25,-0.96875,0.0,0.0,0.0
1696243531034,0.62109375,0.040039062,-0.71191406,-47.84375,166.34375,53.78125,0.0,0.0,0.0
1696243531068,-1.2207031,-0.50097656,1.2910156,-50.15625,115.4375,5.75,0.0,0.0,0.0
1696243531092,-1.2441406,0.2578125,0.7421875,-97.15625,-186.75,-29.09375,0.0,0.0,0.0
1696243531152,-2.0,2.0175781,1.9873047,214.21875,-63.21875,63.875,0.0,0.0,0.0
1696243531184,0.29589844,0.015625,-0.33007812,-305.3125,146.125,19.5625,0.0,0.0,0.0
1696243531243,-2.0,0.4453125,-0.39941406,-202.5625,185.5625,228.34375,0.0,0.0,0.0
1696243531274,-1.1542969,-1.2636719,0.296875,96.625,240.5625,-9.875,0.0,0.0,0.0
1696243531300,-1.0947266,0.7128906,0.6455078,-21.84375,184.40625,3.3125,0.0,0.0,0.0
1696243531331,-0.6640625,-0.06347656,0.9169922,-37.78125,119.15625,48.375,0.0,0.0,0.0
1696243531393,-0.359375,-1.1025391,-0.3310547,-10.0625,70.75,20.40625,0.0,0.0,0.0
1696243531421,-0.3828125,0.24316406,0.85253906,54.9375,-80.4375,-43.4375,-96.625,24.625,-74.875
1696243531453,-0.3203125,0.62890625,-0.037109375,168.46875,-181.125,2.15625,0.0,0.0,0.0
1696243531513,-2.0,-0.10839844,0.4189453,76.0625,-293.75,-27.875,0.0,0.0,0.0
1696243531543,-2.0,0.2685547,-0.06738281,-269.28125,-202.125,-31.90625,0.0,0.0,0.0
1696243531572,-1.9316406,-0.7236328,0.34960938,69.9375,-151.71875,-81.46875,0.0,0.0,0.0
1696243531634,-1.0605469,-0.171875,-0.2265625,243.71875,-99.90625,-106.96875,0.0,0.0,0.0
1696243531662,0.2763672,0.7441406,-0.26367188,181.75,-23.84375,-47.9375,0.0,0.0,0.0
1696243531693,0.8847656,0.5292969,-0.041992188,-41.625,108.40625,30.0,0.0,0.0,0.0
1696243531757,-0.028320312,-0.0107421875,-0.5488281,-42.96875,237.8125,56.40625,0.0,0.0,0.0
1696243531782,-2.0,-0.6767578,1.9873047,-75.75,-148.46875,9.96875,0.0,0.0,0.0
1696243531814,-0.90625,0.31054688,-2.0126953,-207.6875,29.1875,-123.03125,0.0,0.0,0.0
1696243531874,-0.18261719,-0.3310547,-1.8662109,79.34375,26.4375,37.8125,0.0,0.0,0.0
1696243531902,-1.8203125,0.58691406,0.94628906,-229.8125,142.90625,157.125,-91.1875,18.5,-55.5625
1696243531933,-2.0,-1.4306641,0.26464844,-15.8125,249.90625,8.3125,0.0,0.0,0.0
1696243531992,-1.2792969,0.19433594,0.45410156,5.375,191.71875,3.75,0.0,0.0,0.0
1696243532021,-0.9121094,0.15820312,1.0126953,-41.25,131.375,33.78125,0.0,0.0,0.0
1696243532052,-0.6035156,-0.6455078,0.33496094,-37.65625,60.9375,39.625,0.0,0.0,0.0
1696243532112,-0.2421875,-0.6816406,0.87402344,-12.15625,-51.0,-42.34375,0.0,0.0,0.0
1696243532144,-0.19140625,0.4267578,-0.13183594,139.71875,-145.84375,-29.46875,0.0,0.0,0.0
1696243532172,-2.0,0.25878906,0.5576172,181.40625,-287.46875,-20.78125,0.0,0.0,0.0
1696243532235,-2.0,0.77734375,0.33203125,-358.34375,-220.375,15.78125,0.0,0.0,0.0
1696243532263,-2.0,-1.1572266,0.4033203,106.25,-182.34375,-77.1875,0.0,0.0,0.0
1696243532294,-1.1738281,-0.16015625,-0.23339844,256.90625,-127.71875,-111.78125,0.0,0.0,0.0
1696243532351,0.17871094,0.54296875,-0.08496094,213.5,-63.21875,-51.6875,0.0,0.0,0.0
1696243532384,0.5332031,0.64453125,-0.111328125,-6.40625,65.6875,10.40625,0.0,0.0,0.0
1696243532414,0.31445312,-0.064453125,-0.41601562,-87.9375,166.84375,22.96875,-87.0,24.9375,-48.375
1696243532506,-1.6386719,-0.5878906,1.8740234,-96.375,38.40625,-1.9375,0.0,0.0,0.0
1696243532513,0.35351562,0.3466797,-2.0126953,-172.25,-54.84375,-21.84375,0.0,0.0,0.0
1696243532531,-2.0,-1.9824219,-2.0126953,160.65625,41.9375,-49.125,0.0,0.0,0.0
1696243532595,0.24707031,0.9736328,-0.103515625,-200.875,146.9375,38.34375,0.0,0.0,0.0
1696243532626,-2.0,-0.09765625,0.203125,74.28125,186.1875,250.21875,0.0,0.0,0.0
1696243532652,-1.4150391,0.06640625,0.296875,33.75,215.09375,-35.1875,0.0,0.0,0.0
1696243532711,-0.8964844,0.6015625,1.0371094,-15.625,154.25,32.0625,0.0,0.0,0.0
1696243532741,-0.6015625,-0.6982422,0.26757812,-66.46875,110.1875,32.625,0.0,0.0,0.0
1696243532770,-0.27148438,-0.6933594,1.3056641,-22.03125,-37.40625,-41.25,0.0,0.0,0.0
1696243532832,-0.0146484375,0.6904297,0.40722656,92.78125,-151.28125,-40.09375,0.0,0.0,0.0
1696243532871,-0.8935547,0.12792969,0.0126953125,169.3125,-237.84375,31.625,0.0,0.0,0.0
1696243532891,-2.0,-0.26953125,-0.2109375,-116.75,-294.71875,-37.8125,-96.125,24.5,-60.625
1696243532953,-2.0,0.080078125,0.25097656,-81.78125,-147.9375,-165.375,0.0,0.0,0.0
1696243532985,-1.2207031,-0.39746094,0.08886719,209.21875,-129.1875,-64.5,0.0,0.0,0.0
1696243533013,-0.8417969,0.24804688,0.0703125,241.21875,-85.5,-48.875,0.0,0.0,0.0
1696243533077,0.41308594,0.6777344,0.037109375,79.21875,31.03125,-25.5,0.0,0.0,0.0
1696243533106,0.7558594,-9.765625E-4,-0.5810547,-40.84375,178.4375,62.09375,0.0,0.0,0.0
1696243533131,-0.6591797,0.09472656,0.5917969,-72.6875,164.09375,29.3125,0.0,0.0,0.0
1696243533194,-1.6953125,-0.1796875,1.8222656,-196.71875,-122.28125,-20.96875,0.0,0.0,0.0
1696243533222,0.83691406,0.19921875,-2.0126953,-181.40625,186.71875,-48.75,0.0,0.0,0.0
1696243533252,-1.3662109,-1.6464844,-2.0126953,43.59375,134.53125,-123.15625,0.0,0.0,0.0
1696243533351,0.21289062,1.2021484,-0.5732422,-159.71875,161.46875,84.96875,0.0,0.0,0.0
1696243533358,-2.0,-1.3349609,0.9638672,101.4375,152.5,134.0625,0.0,0.0,0.0
1696243533371,-1.3554688,0.61816406,0.42089844,-4.21875,199.0,-59.90625,0.0,0.0,0.0
1696243533431,-0.9814453,0.36621094,1.0615234,-41.75,138.6875,38.15625,-96.3125,24.0625,-69.625
1696243533465,-0.44335938,-0.78808594,0.11816406,-57.75,62.9375,37.125,0.0,0.0,0.0
1696243533491,-0.2529297,-0.59277344,0.9482422,22.34375,-70.21875,-43.5625,0.0,0.0,0.0
1696243533552,-0.17578125,0.6933594,0.18554688,183.96875,-163.90625,-24.28125,0.0,0.0,0.0
1696243533582,-2.0,0.44140625,0.28027344,133.71875,-306.625,40.5625,0.0,0.0,0.0
1696243533612,-2.0,0.70214844,0.2705078,-270.5,-266.15625,37.1875,0.0,0.0,0.0
1696243533674,-2.0,-0.5644531,0.43554688,-2.375,-151.21875,-68.71875,0.0,0.0,0.0
1696243533705,-1.1552734,-0.37597656,-0.12597656,196.28125,-122.15625,-77.0,0.0,0.0,0.0
1696243533733,0.49414062,0.3828125,-0.08203125,182.75,-60.78125,-36.0625,0.0,0.0,0.0
1696243533793,0.6855469,0.36914062,-0.0703125,13.5,88.15625,31.09375,0.0,0.0,0.0
1696243533821,0.359375,-0.16796875,-0.5722656,-40.84375,218.90625,31.21875,0.0,0.0,0.0
1696243533853,-2.0,-0.37597656,1.8554688,-68.59375,42.25,-17.625,0.0,0.0,0.0
1696243533946,0.33789062,0.19921875,-1.9228516,-68.90625,-153.53125,-46.78125,-87.125,17.75,-60.8125
1696243533952,-2.0,2.0175781,1.9873047,493.96875,-121.625,122.9375,0.0,0.0,0.0
1696243533972,0.3076172,1.2011719,1.3486328,-306.21875,79.71875,-48.0,0.0,0.0,0.0
1696243534066,-2.0,0.06738281,-0.5908203,-121.71875,176.96875,239.09375,0.0,0.0,0.0
1696243534073,-1.2431641,-1.4736328,0.3388672,66.84375,262.40625,-16.75,0.0,0.0,0.0
1696243534096,-0.796875,0.8027344,0.6699219,32.40625,168.125,20.46875,0.0,0.0,0.0
1696243534157,-0.578125,-0.12597656,0.734375,-57.0625,133.5,46.96875,0.0,0.0,0.0
1696243534181,-0.328125,-0.9736328,0.15429688,7.3125,50.9375,1.71875,0.0,0.0,0.0
1696243534213,-0.15917969,0.69433594,0.17675781,70.5625,-102.46875,-41.25,0.0,0.0,0.0
1696243534272,-0.44921875,0.359375,-0.06347656,163.09375,-193.15625,11.6875,0.0,0.0,0.0
1696243534303,-2.0,0.018554688,0.103515625,-48.53125,-275.5625,-15.84375,0.0,0.0,0.0
1696243534332,-2.0,-0.025390625,0.055664062,-99.25,-174.0625,-77.0625,0.0,0.0,0.0
1696243534394,-1.7431641,-0.31347656,0.23046875,84.84375,-155.25,-55.71875,0.0,0.0,0.0
1696243534423,-1.0859375,-0.21289062,0.0078125,258.375,-106.0,-101.90625,-87.4375,9.8125,-58.4375
1696243534453,0.50390625,0.6152344,-0.06933594,127.75,-25.125,-45.21875,0.0,0.0,0.0
1696243534514,0.69140625,0.061523438,-0.34765625,-6.15625,102.0625,42.1875,0.0,0.0,0.0
1696243534543,-0.14257812,0.111328125,0.013671875,-55.71875,195.53125,16.5625,0.0,0.0,0.0
1696243534573,-2.0,-0.3173828,1.9873047,-187.6875,-128.34375,-24.9375,0.0,0.0,0.0
1696243534632,-0.1484375,0.7919922,-2.0126953,-197.6875,23.15625,-28.90625,0.0,0.0,0.0
1696243534662,-0.77734375,-0.8203125,-1.6757812,108.59375,63.125,14.1875,0.0,0.0,0.0
1696243534693,-0.9013672,0.73535156,0.052734375,-217.34375,189.78125,74.71875,0.0,0.0,0.0
1696243534785,-2.0,-1.4863281,0.20605469,13.78125,265.78125,47.5,0.0,0.0,0.0
1696243534792,-1.3369141,0.6542969,0.6767578,27.34375,173.46875,-23.34375,0.0,0.0,0.0
1696243534812,-0.8330078,0.4580078,1.0224609,-26.125,131.625,42.375,0.0,0.0,0.0
1696243534902,-0.45214844,-0.91308594,0.14355469,-64.15625,84.75,39.3125,0.0,0.0,0.0
1696243534908,-0.33398438,-0.7792969,1.015625,-13.0,-36.96875,-47.09375,-98.875,13.6875,-79.5625
1696243534963,-0.0087890625,0.6855469,0.18066406,159.71875,-133.28125,-26.03125,0.0,0.0,0.0
1696243534991,-1.2275391,0.3251953,-0.07519531,153.125,-239.0625,33.90625,0.0,0.0,0.0
1696243535023,-2.0,0.6015625,0.27734375,-215.875,-257.3125,-39.15625,0.0,0.0,0.0
1696243535052,-2.0,-0.6230469,0.29882812,1.03125,-175.625,-139.6875,0.0,0.0,0.0
1696243535118,-1.4199219,-0.5029297,0.048828125,257.75,-167.875,-50.75,0.0,0.0,0.0
1696243535202,-0.48535156,0.35351562,-0.032226562,246.03125,-112.71875,-48.375,0.0,0.0,0.0
1696243535211,0.6972656,0.66308594,0.029296875,56.8125,31.40625,-8.78125,0.0,0.0,0.0
1696243535233,0.5390625,-0.09863281,-0.5888672,-46.5,168.40625,43.34375,0.0,0.0,0.0
1696243535262,-0.6699219,0.15722656,0.49316406,-123.40625,169.40625,0.4375,0.0,0.0,0.0
1696243535294,-1.8388672,-0.22363281,1.9873047,-145.3125,-218.65625,-25.25,0.0,0.0,0.0
1696243535353,-2.0,1.8535156,0.16210938,-129.03125,37.9375,53.375,0.0,0.0,0.0
1696243535381,1.0849609,-0.20996094,-0.90722656,-184.9375,91.625,-20.78125,0.0,0.0,0.0
1696243535412,-1.0869141,0.2529297,-0.63964844,-208.0625,207.65625,183.3125,-91.625,15.8125,-50.4375
1696243535475,-1.4277344,-1.8457031,0.38867188,149.21875,252.59375,-73.65625,0.0,0.0,0.0
1696243535502,-1.2324219,1.0117188,0.63378906,37.0625,188.25,-17.5625,0.0,0.0,0.0
1696243535532,-0.75683594,0.3515625,1.2089844,-20.75,133.6875,38.34375,0.0,0.0,0.0
1696243535592,-0.27929688,-0.9296875,-0.4091797,-76.21875,52.625,26.21875,0.0,0.0,0.0
1696243535625,-0.3388672,-0.17675781,0.9746094,-0.84375,-79.15625,-52.78125,0.0,0.0,0.0
1696243535652,-0.19433594,0.40820312,0.046875,120.84375,-149.9375,-25.4375,0.0,0.0,0.0
1696243535713,-2.0,0.045898438,0.33984375,75.4375,-294.09375,-17.625,0.0,0.0,0.0
1696243535741,-2.0,0.6953125,0.076171875,-310.0,-157.75,-23.78125,0.0,0.0,0.0
1696243535773,-1.9589844,-0.5654297,0.48339844,94.59375,-147.25,-111.0,0.0,0.0,0.0
1696243535833,-1.203125,-0.26757812,-0.064453125,241.53125,-96.28125,-96.59375,0.0,0.0,0.0
1696243535863,0.19433594,0.5019531,-0.09765625,162.53125,-45.5625,-57.78125,0.0,0.0,0.0
1696243535893,0.73828125,0.421875,-0.16894531,6.53125,97.0625,26.8125,-88.0625,20.875,-46.5625
1696243535954,0.0,0.16894531,-0.390625,-36.75,160.46875,49.59375,0.0,0.0,0.0
1696243535986,-1.9960938,-0.5800781,1.9873047,-87.28125,-42.21875,11.375,0.0,0.0,0.0
1696243536016,-0.4501953,0.2685547,-2.0126953,-215.46875,-79.875,-38.84375,0.0,0.0,0.0
1696243536074,-1.4560547,-1.0761719,-0.36914062,148.4375,13.25,47.03125,0.0,0.0,0.0
1696243536103,-0.9501953,0.27929688,0.609375,-225.53125,147.25,74.4375,0.0,0.0,0.0
1696243536132,-2.0,-0.859375,-0.19238281,37.0,249.15625,121.84375,0.0,0.0,0.0
1696243536196,-1.3007812,0.24023438,0.34960938,70.96875,212.65625,-20.78125,0.0,0.0,0.0
1696243536223,-0.9736328,0.6640625,1.1005859,-25.21875,160.1875,26.21875,0.0,0.0,0.0
1696243536254,-0.49609375,-0.50390625,0.4326172,-60.125,91.6875,51.96875,0.0,0.0,0.0
1696243536317,-0.24804688,-1.0439453,0.6640625,-1.53125,-23.96875,-15.40625,0.0,0.0,0.0
1696243536342,-0.09472656,0.4560547,0.06933594,115.1875,-113.125,-40.625,0.0,0.0,0.0
1696243536371,-0.87597656,0.4716797,-0.0087890625,130.25,-192.0625,21.8125,0.0,0.0,0.0
1696243536431,-2.0,0.4892578,0.2265625,-130.0,-283.125,-35.375,-99.875,22.5625,-65.125
1696243536465,-2.0,-0.28320312,-0.03515625,-11.90625,-161.96875,-42.59375,0.0,0.0,0.0
1696243536492,-1.7177734,-0.5019531,0.061523438,183.65625,-132.25,-89.46875,0.0,0.0,0.0
1696243536555,-0.6171875,0.083984375,-0.18652344,280.9375,-125.90625,-81.34375,0.0,0.0,0.0
1696243536584,0.41015625,0.94433594,0.024414062,72.5625,-5.71875,-38.8125,0.0,0.0,0.0
1696243536614,0.6669922,0.029296875,-0.6621094,-35.65625,107.125,52.4375,0.0,0.0,0.0
1696243536674,-0.234375,0.0048828125,0.4814453,-73.0,150.59375,30.59375,0.0,0.0,0.0
1696243536703,-1.4511719,0.03515625,1.9873047,-217.03125,-234.71875,-3.15625,0.0,0.0,0.0
1696243536733,-2.0,1.1044922,1.4980469,6.71875,-40.25,30.0,0.0,0.0,0.0
1696243536795,0.68847656,-0.15722656,-1.3486328,-153.1875,136.25,13.25,0.0,0.0,0.0
1696243536824,-2.0,0.6015625,-0.29785156,-159.53125,183.4375,276.9375,0.0,0.0,0.0
1696243536852,-1.2871094,-1.1181641,0.3828125,119.6875,267.15625,-28.90625,0.0,0.0,0.0
1696243536915,-1.0615234,0.96777344,0.78125,-42.1875,180.375,-22.25,-101.25,22.375,-68.125
1696243536946,-0.6074219,-0.026367188,0.75390625,-89.90625,110.96875,42.6875,0.0,0.0,0.0
1696243536973,-0.17773438,-1.2236328,-0.21679688,-25.15625,28.9375,6.0,0.0,0.0,0.0
1696243537062,-0.18359375,0.51953125,0.20214844,100.40625,-91.40625,-45.09375,0.0,0.0,0.0
1696243537067,-0.35253906,0.5732422,0.16113281,151.78125,-176.6875,16.375,0.0,0.0,0.0
1696243537091,-2.0,-0.15625,0.056640625,-53.84375,-287.28125,-11.28125,0.0,0.0,0.0
1696243537161,-2.0,0.35351562,-0.42773438,-199.71875,-131.75,-62.84375,0.0,0.0,0.0
1696243537180,-1.8730469,-0.69433594,0.18652344,80.625,-127.59375,-115.8125,0.0,0.0,0.0
1696243537211,-0.82421875,-0.11425781,-0.13964844,292.53125,-115.46875,-107.59375,0.0,0.0,0.0
1696243537273,0.3330078,0.9667969,-0.18847656,121.65625,-22.375,-61.375,0.0,0.0,0.0
1696243537304,0.875,0.22265625,-0.7470703,-36.25,114.34375,38.90625,0.0,0.0,0.0
1696243537334,-0.21386719,-0.043945312,0.3515625,-81.53125,145.53125,31.40625,0.0,0.0,0.0
1696243537394,-1.8759766,-0.5,1.9873047,-175.15625,-161.71875,-13.96875,0.0,0.0,0.0
1696243537424,-0.18652344,0.7548828,-2.0126953,-198.375,46.84375,-57.28125,-92.25,18.1875,-52.4375
1696243537453,-0.734375,-0.546875,-1.4667969,58.34375,86.5625,-4.75,0.0,0.0,0.0
1696243537516,-0.76171875,0.87402344,-0.2578125,-214.59375,231.09375,112.875,0.0,0.0,0.0
1696243537543,-2.0,-1.9824219,0.23339844,126.71875,257.03125,1.375,0.0,0.0,0.0
1696243537572,-1.1982422,1.2021484,0.66503906,30.53125,202.46875,-36.0,0.0,0.0,0.0
1696243537633,-0.71191406,0.26660156,0.82910156,-94.53125,144.84375,31.625,0.0,0.0,0.0
1696243537662,-0.24804688,-1.1171875,-0.15820312,-11.78125,77.21875,22.40625,0.0,0.0,0.0
1696243537694,-0.19433594,0.26953125,0.5214844,30.46875,-57.34375,-32.5,0.0,0.0,0.0
1696243537760,-0.3955078,0.453125,-0.20703125,144.09375,-155.6875,0.4375,0.0,0.0,0.0
1696243537781,-2.0,0.19140625,0.203125,64.6875,-261.09375,-19.21875,0.0,0.0,0.0
1696243537812,-2.0,-0.064453125,0.22851562,-172.25,-218.3125,-42.34375,0.0,0.0,0.0
1696243537871,-2.0,-0.25390625,-0.01953125,-41.9375,-115.53125,-87.0,0.0,0.0,0.0
1696243537901,-1.1103516,-0.07324219,-0.20996094,223.9375,-106.4375,-36.28125,-91.9375,14.4375,-53.4375
1696243537962,0.07421875,0.2763672,-0.119140625,176.21875,-57.21875,-22.3125,0.0,0.0,0.0
1696243537992,0.67578125,0.36523438,0.016601562,-1.40625,61.53125,38.84375,0.0,0.0,0.0
1696243538024,0.1796875,0.037109375,-0.421875,-38.75,173.0625,43.78125,0.0,0.0,0.0
1696243538085,-2.0,-0.69140625,1.9873047,-86.65625,-90.875,-10.65625,0.0,0.0,0.0
1696243538112,1.6425781,-0.3876953,-2.0126953,-150.4375,-23.0,-25.0,0.0,0.0,0.0
1696243538142,-2.0,-1.5566406,-1.0322266,562.75,-153.84375,189.03125,0.0,0.0,0.0
1696243538171,0.6621094,0.77246094,0.4423828,-242.1875,121.0625,0.8125,0.0,0.0,0.0
1696243538235,-2.0,0.5175781,-0.46484375,-117.625,155.71875,286.59375,0.0,0.0,0.0
1696243538263,-1.2675781,-0.53222656,0.2685547,87.40625,216.5,-7.96875,0.0,0.0,0.0
1696243538292,-1.0498047,0.88671875,0.8261719,-22.28125,159.125,19.1875,0.0,0.0,0.0
1696243538355,-0.6923828,-0.4453125,0.78515625,-82.875,99.375,50.3125,0.0,0.0,0.0
1696243538383,-0.14257812,-1.1416016,-0.1015625,-16.78125,31.34375,-10.90625,0.0,0.0,0.0
1696243538416,-0.22851562,0.6171875,0.0859375,118.28125,-103.125,-47.71875,-100.375,21.8125,-78.1875
1696243538474,-0.7705078,0.4580078,-0.099609375,158.1875,-182.46875,17.53125,0.0,0.0,0.0
1696243538502,-2.0,0.13964844,0.030273438,-94.71875,-264.03125,-26.09375,0.0,0.0,0.0
1696243538532,-2.0,-0.3544922,-0.05859375,-57.5,-135.1875,-76.8125,0.0,0.0,0.0
1696243538592,-1.7304688,-0.3623047,-0.09863281,123.65625,-140.59375,-69.1875,0.0,0.0,0.0
1696243538624,-0.81152344,0.14355469,-0.16503906,302.96875,-127.0,-63.46875,0.0,0.0,0.0
1696243538655,0.55078125,0.90234375,0.107421875,117.75,-31.28125,-25.375,0.0,0.0,0.0
1696243538713,0.53222656,-0.08300781,-0.8466797,-16.71875,130.15625,69.78125,0.0,0.0,0.0
1696243538743,-0.34960938,0.043945312,0.8251953,-132.25,103.90625,5.21875,0.0,0.0,0.0
1696243538772,-0.96777344,-0.3544922,0.98828125,-206.96875,-136.15625,-18.15625,0.0,0.0,0.0
1696243538836,-1.5400391,1.8779297,-0.013671875,-165.53125,28.59375,22.40625,0.0,0.0,0.0
1696243538863,0.671875,-0.18554688,-0.3330078,-164.625,126.96875,-40.75,0.0,0.0,0.0
1696243538892,-0.7294922,0.171875,-0.79589844,-177.5,213.53125,158.90625,-85.625,12.625,-55.5625
1696243538955,-1.3457031,-1.9824219,0.28808594,242.6875,252.34375,-18.96875,0.0,0.0,0.0
1696243538981,-1.1914062,1.2402344,0.49023438,7.9375,200.28125,-50.5625,0.0,0.0,0.0
1696243539013,-0.79003906,0.1640625,0.91796875,-99.78125,142.34375,36.40625,0.0,0.0,0.0
1696243539075,-0.21875,-1.0830078,-0.2548828,-41.0625,45.6875,22.59375,0.0,0.0,0.0
1696243539101,-0.3330078,0.14355469,0.42578125,60.0,-85.3125,-57.84375,0.0,0.0,0.0
1696243539133,-0.53125,0.43652344,-0.11035156,161.375,-168.1875,-20.375,0.0,0.0,0.0
1696243539193,-2.0,0.24902344,0.3564453,43.09375,-273.84375,-36.28125,0.0,0.0,0.0
1696243539230,-2.0,0.37890625,-0.18359375,-233.53125,-203.90625,-31.28125,0.0,0.0,0.0
1696243539251,-2.0,-1.0605469,0.13183594,77.15625,-176.4375,-116.5625,0.0,0.0,0.0
1696243539345,-0.9033203,-0.16699219,-0.32617188,321.03125,-170.9375,-93.1875,0.0,0.0,0.0
1696243539353,0.4580078,0.8730469,-0.00390625,172.0625,-43.25,-26.46875,0.0,0.0,0.0
1696243539372,0.78808594,0.005859375,-0.6455078,27.40625,100.0,43.21875,0.0,0.0,0.0
1696243539433,0.030273438,0.09765625,0.08300781,-141.59375,170.4375,11.5625,-88.1875,26.125,-50.0
1696243539463,-1.7919922,-0.23339844,1.9873047,-179.4375,-102.875,1.4375,0.0,0.0,0.0
1696243539496,0.7919922,0.4326172,-2.0126953,-192.0625,111.65625,-7.0625,0.0,0.0,0.0
1696243539555,-1.8056641,-1.9824219,-2.0126953,22.71875,123.875,-140.96875,0.0,0.0,0.0
1696243539583,0.3671875,1.0449219,-0.39941406,-123.21875,99.8125,25.53125,0.0,0.0,0.0
1696243539613,-2.0,0.052734375,0.4248047,25.15625,156.34375,304.78125,0.0,0.0,0.0
1696243539674,-1.375,-0.14746094,0.103515625,24.78125,211.375,-21.90625,0.0,0.0,0.0
1696243539704,-1.1113281,0.72558594,1.3037109,18.0625,142.71875,31.03125,0.0,0.0,0.0
1696243539732,-0.4638672,-0.3623047,0.4921875,-42.0625,111.96875,42.8125,0.0,0.0,0.0
1696243539793,-0.21484375,-1.328125,0.4658203,12.34375,10.03125,-23.28125,0.0,0.0,0.0
1696243539823,-0.22753906,0.703125,0.15625,166.1875,-115.21875,-51.90625,0.0,0.0,0.0
1696243539852,-0.90234375,0.7050781,0.017578125,147.09375,-211.90625,32.625,0.0,0.0,0.0
1696243539915,-2.0,0.033203125,0.18164062,-133.59375,-322.1875,-35.8125,-97.0625,22.5625,-65.4375
1696243539943,-2.0,-0.15625,0.11425781,3.40625,-164.34375,-145.84375,0.0,0.0,0.0
1696243539971,-1.2949219,-0.3671875,0.029296875,207.53125,-133.28125,-77.375,0.0,0.0,0.0
1696243540031,-0.41210938,0.21777344,0.02734375,249.4375,-66.03125,-43.3125,0.0,0.0,0.0
1696243540065,0.74902344,0.73046875,0.06640625,69.40625,30.0625,-0.21875,0.0,0.0,0.0
1696243540092,0.5908203,-0.0048828125,-1.0712891,-44.9375,201.8125,70.53125,0.0,0.0,0.0
1696243540152,-1.2158203,-0.22949219,1.1611328,-146.53125,108.53125,-19.75,0.0,0.0,0.0
1696243540188,-0.7470703,-0.15722656,-0.21679688,-190.96875,-153.84375,-65.03125,0.0,0.0,0.0
1696243540212,-2.0,1.8388672,1.9873047,-122.375,-4.375,59.84375,0.0,0.0,0.0
1696243540274,1.0732422,0.3125,-0.046875,-224.65625,116.34375,-8.28125,0.0,0.0,0.0
1696243540303,-1.2753906,0.13378906,-0.99121094,-148.0,157.78125,234.09375,0.0,0.0,0.0
1696243540332,-1.3417969,-1.5361328,0.078125,142.8125,278.46875,-27.09375,0.0,0.0,0.0
1696243540393,-1.2099609,1.0957031,0.5136719,47.5,193.6875,-28.53125,0.0,0.0,0.0
1696243540422,-0.6982422,0.47753906,1.0263672,-75.8125,130.6875,37.9375,-101.5625,20.875,-72.375
1696243540453,-0.31152344,-0.9628906,0.018554688,-80.8125,10.15625,24.5625,0.0,0.0,0.0
1696243540515,-0.37597656,-0.20117188,0.19628906,64.15625,-81.71875,-49.59375,0.0,0.0,0.0
1696243540544,-0.73828125,0.2705078,-0.022460938,168.15625,-170.9375,-25.8125,0.0,0.0,0.0
1696243540572,-2.0,0.71972656,0.15039062,27.71875,-239.96875,-29.75,0.0,0.0,0.0
1696243540635,-2.0,0.09375,-0.08886719,-67.0625,-141.53125,-63.21875,0.0,0.0,0.0
1696243540661,-1.8710938,-0.8203125,0.20800781,102.125,-162.40625,-81.9375,0.0,0.0,0.0
1696243540692,-0.9013672,-0.140625,0.018554688,262.375,-119.71875,-89.09375,0.0,0.0,0.0
1696243540752,0.328125,0.5654297,-0.059570312,177.25,-25.8125,-38.5,0.0,0.0,0.0
1696243540781,0.7294922,0.5126953,-0.47460938,-13.125,84.96875,43.84375,0.0,0.0,0.0
1696243540813,0.19921875,0.30859375,-0.4658203,-114.625,169.03125,25.78125,0.0,0.0,0.0
1696243540872,-1.9169922,-0.9248047,1.9873047,-59.4375,-29.40625,9.34375,0.0,0.0,0.0
1696243540901,0.5859375,0.1171875,-2.0126953,-189.9375,63.0,-29.21875,-90.4375,21.8125,-51.6875
1696243540933,-2.0,-1.9824219,-2.0126953,212.59375,2.65625,-81.78125,0.0,0.0,0.0
1696243540993,0.4140625,0.85058594,0.053710938,-208.6875,96.9375,61.125,0.0,0.0,0.0
1696243541022,-2.0,-0.27929688,0.8330078,-0.84375,89.1875,301.71875,0.0,0.0,0.0
1696243541053,-1.2910156,0.25390625,0.90234375,-87.28125,188.125,-33.3125,0.0,0.0,0.0
1696243541113,-1.0546875,0.25097656,1.0244141,-20.1875,98.15625,10.09375,0.0,0.0,0.0
1696243541143,-0.34570312,-0.3935547,0.6669922,42.0625,28.875,9.78125,0.0,0.0,0.0
1696243541172,-0.10253906,-0.3310547,0.46875,79.21875,-22.375,-15.71875,0.0,0.0,0.0
1696243541235,-0.24316406,0.3623047,0.4560547,82.15625,-116.5625,-21.34375,0.0,0.0,0.0
1696243541263,-0.4921875,0.703125,0.30664062,-18.96875,-215.4375,36.09375,0.0,0.0,0.0
1696243541294,-2.0,-0.36914062,0.34570312,-127.375,-258.15625,61.1875,0.0,0.0,0.0
1696243541355,-1.9335938,0.25195312,0.5371094,-70.75,-118.4375,-260.34375,0.0,0.0,0.0
1696243541384,-0.37402344,-0.47460938,0.37402344,180.78125,-146.28125,-109.65625,0.0,0.0,0.0
1696243541413,-0.6904297,0.7158203,0.35253906,134.09375,-36.53125,-51.375,-82.1875,20.4375,-42.6875
1696243541470,0.17675781,0.34277344,0.14257812,82.46875,62.75,-28.78125,0.0,0.0,0.0
1696243541505,0.3720703,0.3984375,-0.0068359375,-75.375,235.96875,69.0625,0.0,0.0,0.0
1696243541531,-1.0722656,-0.24316406,0.5576172,-62.625,170.1875,45.8125,0.0,0.0,0.0
1696243541622,-1.6386719,-0.22851562,1.1708984,-7.625,-75.71875,-53.1875,0.0,0.0,0.0
1696243541627,-0.13574219,0.97558594,-2.0126953,-346.625,172.5625,-42.71875,0.0,0.0,0.0
1696243541652,-0.6376953,-1.2861328,-1.8115234,-39.84375,224.875,-205.65625,0.0,0.0,0.0
1696243541715,-0.2763672,0.16796875,-0.61035156,-265.6875,160.71875,77.28125,0.0,0.0,0.0
1696243541775,-2.0,-1.0068359,0.25097656,-37.71875,215.09375,130.625,0.0,0.0,0.0
1696243541781,-1.2226562,0.7841797,0.5126953,-1.84375,194.28125,15.84375,0.0,0.0,0.0
1696243541832,-1.3408203,0.25976562,1.0429688,-44.5625,155.59375,67.90625,0.0,0.0,0.0
1696243541863,-0.37304688,-0.49414062,0.25,-103.34375,98.53125,61.71875,0.0,0.0,0.0
1696243541893,-0.25390625,-1.2294922,0.34472656,5.75,37.0,-8.84375,-104.6875,23.3125,-77.75
1696243541986,-0.24414062,0.69433594,0.2861328,73.5625,-89.21875,-45.4375,0.0,0.0,0.0
1696243541993,-0.5234375,0.625,-0.119140625,142.6875,-213.40625,8.125,0.0,0.0,0.0
1696243542011,-2.0,-0.25976562,0.2109375,-10.125,-287.6875,-59.84375,0.0,0.0,0.0
1696243542074,-2.0,0.19335938,0.17382812,-89.28125,-204.5,-83.96875,0.0,0.0,0.0
1696243542105,-2.0,-0.6484375,0.19140625,188.53125,-199.0,-144.75,0.0,0.0,0.0
1696243542133,-0.7314453,-0.0107421875,-0.0029296875,238.65625,-167.65625,-86.78125,0.0,0.0,0.0
1696243542192,0.6464844,0.3876953,-0.0234375,237.25,-66.09375,4.71875,0.0,0.0,0.0
1696243542222,0.85839844,0.46191406,-0.46289062,43.28125,103.53125,44.9375,0.0,0.0,0.0
1696243542253,0.21191406,-0.078125,-0.18066406,-140.3125,177.8125,9.46875,0.0,0.0,0.0
1696243542313,-1.8076172,-0.359375,1.6279297,-113.78125,2.71875,16.5,0.0,0.0,0.0
1696243542352,0.8388672,-0.10058594,-2.0126953,-139.28125,38.15625,-20.78125,0.0,0.0,0.0
1696243542372,-2.0,-1.9824219,-1.7929688,513.3125,-251.75,242.625,0.0,0.0,0.0
1696243542435,1.1523438,0.58496094,1.1484375,-192.5,110.3125,-29.34375,-90.3125,20.4375,-52.5625
1696243542469,-2.0,0.7480469,0.22460938,-238.34375,112.75,235.5625,0.0,0.0,0.0
1696243542492,-1.2255859,-1.7119141,0.013671875,107.1875,306.21875,-34.09375,0.0,0.0,0.0
1696243542554,-1.0839844,0.9638672,0.9980469,45.03125,169.15625,-0.40625,0.0,0.0,0.0
1696243542583,-0.77734375,0.01171875,0.66796875,-154.65625,169.15625,19.5625,0.0,0.0,0.0
1696243542613,-0.06933594,-1.3779297,0.7783203,17.40625,-9.8125,1.25,0.0,0.0,0.0
1696243542675,-0.16308594,0.57421875,0.21289062,128.0625,-129.75,-39.71875,0.0,0.0,0.0
1696243542703,-1.0546875,0.34765625,-0.041992188,153.5,-245.53125,-3.40625,0.0,0.0,0.0
1696243542737,-2.0,0.7421875,0.5527344,-141.125,-277.25,-42.34375,0.0,0.0,0.0
1696243542793,-2.0,-0.5029297,0.23242188,15.125,-238.03125,-73.46875,0.0,0.0,0.0
1696243542823,-1.8994141,-0.5078125,0.18164062,324.28125,-255.53125,-110.4375,0.0,0.0,0.0
1696243542852,-0.19628906,0.15625,0.061523438,270.6875,-169.96875,-42.59375,0.0,0.0,0.0
1696243542911,0.48339844,0.6376953,-0.03125,157.71875,21.9375,-3.875,-82.0625,26.5625,-41.75
1696243542941,0.39941406,0.4345703,-0.5703125,-54.625,106.03125,38.0,0.0,0.0,0.0
1696243542975,-0.32910156,-0.018554688,0.18847656,-218.6875,137.90625,1.5,0.0,0.0,0.0
1696243543034,-0.96191406,-1.0634766,-0.026367188,-126.59375,-41.96875,-26.71875,0.0,0.0,0.0
1696243543063,0.73339844,0.8857422,-1.9794922,-210.5625,425.375,7.15625,0.0,0.0,0.0
1696243543092,-2.0,-1.7148438,-1.6552734,-417.125,374.53125,-97.34375,0.0,0.0,0.0
1696243543155,0.5136719,-0.1875,-2.0126953,-127.5,352.75,164.625,0.0,0.0,0.0
1696243543183,-2.0,-1.3007812,0.60253906,228.8125,282.3125,27.90625,0.0,0.0,0.0
1696243543215,-1.609375,0.94140625,0.859375,-27.78125,221.15625,-2.25,0.0,0.0,0.0
1696243543272,-0.77734375,-0.859375,0.0048828125,-89.59375,136.5,71.1875,0.0,0.0,0.0
1696243543302,-0.43945312,-0.8222656,0.9580078,25.5625,-60.59375,-31.59375,0.0,0.0,0.0
1696243543332,-0.171875,0.72558594,0.2939453,163.40625,-198.96875,-60.21875,0.0,0.0,0.0
1696243543394,-0.8359375,0.8378906,0.5126953,103.34375,-307.34375,17.28125,0.0,0.0,0.0
1696243543425,-2.0,-0.18945312,0.12402344,-16.125,-371.125,-58.5625,-100.5,20.875,-64.875
1696243543453,-2.0,-0.24316406,0.41992188,-59.375,-275.6875,-186.625,0.0,0.0,0.0
1696243543513,-0.9902344,-1.4775391,-0.041015625,410.875,-318.28125,-75.53125,0.0,0.0,0.0
1696243543542,0.49902344,0.85058594,-0.2783203,297.78125,-96.125,-32.875,0.0,0.0,0.0
1696243543573,0.7910156,0.40820312,-0.9609375,-6.03125,33.71875,40.4375,0.0,0.0,0.0
1696243543637,0.64941406,0.63671875,-0.71484375,-222.65625,226.34375,38.84375,0.0,0.0,0.0
1696243543663,-2.0,-1.015625,1.9873047,-179.6875,63.6875,-10.78125,0.0,0.0,0.0
1696243543690,0.4345703,0.016601562,-2.0126953,-75.0,-10.28125,75.53125,0.0,0.0,0.0
1696243543753,-2.0,-1.9824219,-2.0126953,268.375,84.96875,2.28125,0.0,0.0,0.0
1696243543781,0.37109375,0.16796875,0.005859375,-85.28125,252.78125,-55.53125,0.0,0.0,0.0
1696243543811,-2.0,0.9121094,0.043945312,-30.625,240.8125,351.21875,0.0,0.0,0.0
1696243543903,-1.3652344,0.3876953,1.0859375,20.375,273.6875,-38.375,0.0,0.0,0.0
1696243543909,-0.6542969,0.9082031,1.3730469,11.15625,181.84375,35.90625,-103.0625,22.6875,-70.875
1696243543931,0.115234375,-1.3466797,-0.6777344,-37.46875,160.1875,66.375,0.0,0.0,0.0
1696243543993,-0.58984375,-0.025390625,0.7919922,-8.0,-62.65625,-57.59375,0.0,0.0,0.0
1696243544021,-0.038085938,0.7402344,-0.060546875,130.5625,-183.09375,-5.78125,0.0,0.0,0.0
1696243544054,-1.7011719,-0.26660156,0.3779297,67.1875,-306.9375,34.375,0.0,0.0,0.0
1696243544114,-2.0,0.01953125,-0.14648438,-95.53125,-286.46875,-110.9375,0.0,0.0,0.0
1696243544143,-2.0,0.3076172,0.33789062,107.90625,-260.65625,-231.90625,0.0,0.0,0.0
1696243544172,-0.90527344,-0.6015625,-0.18359375,353.875,-229.34375,-118.25,0.0,0.0,0.0
1696243544233,0.032226562,0.5683594,-0.31835938,185.375,-77.625,-66.75,0.0,0.0,0.0
1696243544263,1.2177734,0.68359375,-0.6933594,24.21875,75.9375,18.28125,0.0,0.0,0.0
1696243544292,0.34765625,0.23339844,-0.7910156,-151.90625,187.09375,45.375,0.0,0.0,0.0
1696243544352,-1.9541016,-0.35546875,1.9873047,-128.0625,54.65625,8.375,0.0,0.0,0.0
1696243544411,-0.27246094,-0.5751953,-2.0126953,-134.09375,-30.875,-22.6875,0.0,0.0,0.0
1696243544416,-2.0,-1.0888672,0.85546875,132.9375,-53.5625,1.3125,-88.0625,19.375,-47.3125
1696243544475,-0.091796875,0.60839844,0.026367188,-222.71875,246.53125,0.03125,0.0,0.0,0.0
1696243544502,-2.0,0.45898438,-0.5566406,-45.59375,267.125,296.71875,0.0,0.0,0.0
1696243544534,-1.7998047,-0.29589844,0.7207031,100.21875,237.4375,38.71875,0.0,0.0,0.0
1696243544595,-0.8222656,1.0400391,1.1689453,-80.25,176.34375,35.96875,0.0,0.0,0.0
1696243544623,-0.22460938,-1.5078125,-0.3779297,-55.90625,154.125,72.09375,0.0,0.0,0.0
1696243544653,-0.51953125,-0.0625,0.7734375,47.84375,-34.28125,-27.375,0.0,0.0,0.0
1696243544715,-0.17089844,0.49121094,0.21484375,79.96875,-174.71875,-13.09375,0.0,0.0,0.0
1696243544743,-1.2480469,0.17675781,-0.051757812,127.3125,-274.09375,25.40625,0.0,0.0,0.0
1696243544805,-2.0,-0.033203125,-0.20703125,-121.59375,-300.75,-83.53125,0.0,0.0,0.0
1696243544835,-2.0,-0.21777344,0.31054688,23.9375,-252.78125,-163.84375,0.0,0.0,0.0
1696243544864,-1.3203125,-0.57714844,0.140625,271.78125,-193.46875,-111.84375,0.0,0.0,0.0
1696243544892,-0.043945312,0.22851562,-0.24902344,255.625,-114.96875,-63.09375,-86.375,24.0625,-46.4375
1696243544953,0.8691406,1.0068359,-0.8691406,58.53125,38.46875,-1.375,0.0,0.0,0.0
1696243544982,0.6972656,-0.02734375,-1.0507812,-118.71875,219.3125,27.125,0.0,0.0,0.0
1696243545013,-1.1757812,-0.2998047,1.4599609,-153.4375,178.1875,-8.875,0.0,0.0,0.0
1696243545077,-1.7441406,-0.25195312,0.49804688,-40.96875,-181.4375,-31.28125,0.0,0.0,0.0
1696243545102,0.25195312,1.4521484,-1.6962891,-194.34375,248.5,-49.25,0.0,0.0,0.0
1696243545132,-0.34570312,-0.8300781,0.9326172,-314.5,132.65625,-100.6875,0.0,0.0,0.0
1696243545193,-0.33398438,0.23828125,-1.4257812,-373.90625,279.625,167.4375,0.0,0.0,0.0
1696243545220,-1.5751953,-1.9824219,0.5078125,340.46875,340.59375,-49.28125,0.0,0.0,0.0
1696243545253,-1.0332031,1.8310547,0.75,-55.40625,217.1875,-40.03125,0.0,0.0,0.0
1696243545322,-0.7216797,-0.34375,0.5078125,-167.25,152.1875,60.75,0.0,0.0,0.0
1696243545341,-0.12011719,-1.3847656,1.1591797,-9.71875,-38.625,-2.0625,0.0,0.0,0.0
1696243545373,-0.3359375,0.35546875,-0.14453125,123.46875,-144.625,-57.15625,0.0,0.0,0.0
1696243545435,-0.5957031,0.7597656,0.43554688,132.09375,-232.03125,-1.75,-102.4375,25.375,-72.5
1696243545465,-2.0,0.22167969,0.06933594,-59.09375,-336.71875,-24.34375,0.0,0.0,0.0
1696243545494,-2.0,-0.484375,0.07714844,-90.34375,-206.28125,-128.53125,0.0,0.0,0.0
1696243545553,-1.5390625,-0.45898438,0.22753906,193.59375,-203.40625,-57.71875,0.0,0.0,0.0
1696243545583,-0.3779297,0.09472656,-0.10839844,308.09375,-158.25,-56.4375,0.0,0.0,0.0
1696243545615,0.796875,0.82714844,-0.44921875,68.0625,25.40625,-2.65625,0.0,0.0,0.0
1696243545677,0.6953125,-0.005859375,-1.2021484,-138.84375,188.3125,40.78125,0.0,0.0,0.0
1696243545703,-0.44433594,-0.0107421875,0.5966797,-188.78125,209.8125,-16.59375,0.0,0.0,0.0
1696243545733,-2.0,-0.5341797,1.9873047,-145.5625,-155.625,-21.71875,0.0,0.0,0.0
1696243545793,-1.0087891,1.5527344,0.82421875,-182.75,14.0,-17.0625,0.0,0.0,0.0
1696243545829,0.24707031,-0.30078125,-1.0302734,-66.15625,162.875,-8.59375,0.0,0.0,0.0
1696243545852,-1.9042969,0.6230469,-0.21484375,-196.96875,279.4375,205.71875,0.0,0.0,0.0
1696243545914,-1.4208984,-1.7265625,0.50390625,121.03125,266.25,-21.71875,-100.5,22.375,-61.6875
1696243545942,-1.0009766,1.15625,0.765625,-79.34375,188.5625,-6.6875,0.0,0.0,0.0
1696243545972,-0.7167969,-0.5175781,0.25585938,-110.15625,157.3125,30.78125,0.0,0.0,0.0
1696243546034,-0.22460938,-1.2832031,1.2041016,-2.5625,-4.75,-29.34375,0.0,0.0,0.0
1696243546064,-0.24316406,0.54589844,0.13867188,99.1875,-123.875,-63.40625,0.0,0.0,0.0
1696243546098,-1.2724609,0.57714844,0.001953125,136.28125,-249.6875,-3.6875,0.0,0.0,0.0
1696243546185,-2.0,0.9375,0.5361328,-193.65625,-303.5625,-12.96875,0.0,0.0,0.0
1696243546194,-2.0,-0.6484375,0.036132812,54.5,-227.21875,-112.21875,0.0,0.0,0.0
1696243546213,-1.4609375,-0.26757812,0.06542969,228.8125,-195.78125,-64.5,0.0,0.0,0.0
1696243546274,-0.10449219,0.15917969,-0.11035156,244.125,-120.65625,-28.78125,0.0,0.0,0.0
1696243546304,0.8613281,0.9267578,-0.59472656,41.8125,25.03125,23.40625,0.0,0.0,0.0
1696243546333,0.6894531,0.030273438,-0.9589844,-153.8125,185.09375,32.4375,0.0,0.0,0.0
1696243546394,-1.1962891,-0.8613281,1.7578125,-57.0625,140.40625,-14.875,0.0,0.0,0.0
1696243546424,-0.6171875,0.36914062,-1.1572266,-205.03125,-18.53125,-56.875,-92.6875,19.25,-48.8125
1696243546457,-2.0,1.1386719,1.9873047,451.53125,-110.28125,163.78125,0.0,0.0,0.0
1696243546515,-0.46484375,0.034179688,1.2939453,-310.71875,156.28125,14.1875,0.0,0.0,0.0
1696243546544,-2.0,0.3642578,-0.015625,-105.96875,223.96875,261.25,0.0,0.0,0.0
1696243546571,-1.6699219,-0.13867188,0.859375,43.28125,221.75,8.25,0.0,0.0,0.0
1696243546633,-0.60546875,0.72753906,1.2695312,-85.28125,150.65625,33.03125,0.0,0.0,0.0
1696243546661,-0.23046875,-1.4160156,-0.24511719,-50.28125,72.40625,61.84375,0.0,0.0,0.0
1696243546700,-0.33007812,-0.2763672,0.52734375,13.25,-54.3125,-49.125,0.0,0.0,0.0
1696243546754,-0.20410156,0.56347656,-0.013671875,136.15625,-164.28125,-32.8125,0.0,0.0,0.0
1696243546785,-2.0,0.115234375,-0.037109375,66.15625,-278.53125,-1.4375,0.0,0.0,0.0
1696243546812,-2.0,0.49316406,0.2861328,-145.9375,-231.0,-39.03125,0.0,0.0,0.0
1696243546875,-2.0,-0.35839844,0.21777344,-9.34375,-234.65625,-134.4375,0.0,0.0,0.0
1696243546906,-1.2978516,-0.3486328,0.09667969,300.90625,-179.96875,-68.65625,-92.25,12.9375,-49.25
1696243546933,0.06738281,0.2939453,-0.14550781,233.03125,-114.40625,-22.9375,0.0,0.0,0.0
1696243546995,0.8125,0.8857422,-0.5576172,14.15625,62.09375,51.65625,0.0,0.0,0.0
1696243547024,0.26660156,0.2705078,-0.53222656,-188.46875,194.40625,36.53125,0.0,0.0,0.0
1696243547055,-1.6923828,-0.9316406,1.9873047,-74.40625,-15.0625,10.28125,0.0,0.0,0.0
1696243547112,0.4501953,0.39941406,-2.0126953,-271.125,60.125,-38.90625,0.0,0.0,0.0
1696243547144,-2.0,-1.9824219,-2.0126953,95.75,185.5,121.3125,0.0,0.0,0.0
1696243547176,-0.55078125,0.19824219,-0.74121094,-116.15625,234.625,77.40625,0.0,0.0,0.0
1696243547232,-2.0,-1.1396484,0.3359375,40.03125,258.875,155.59375,0.0,0.0,0.0
1696243547260,-1.3769531,0.7636719,1.0625,-8.90625,225.3125,-8.9375,0.0,0.0,0.0
1696243547291,-0.71875,-0.0107421875,0.7236328,-76.84375,135.6875,46.53125,0.0,0.0,0.0
1696243547351,-0.16992188,-1.3417969,0.3330078,50.78125,48.53125,17.71875,0.0,0.0,0.0
1696243547388,-0.20507812,0.55078125,0.32714844,98.375,-101.46875,-44.84375,0.0,0.0,0.0
1696243547444,-0.23046875,0.7519531,0.07519531,154.84375,-197.5,2.46875,-104.375,19.5625,-76.125
1696243547475,-2.0,-0.29785156,0.17773438,-32.84375,-338.90625,-1.8125,0.0,0.0,0.0
1696243547503,-2.0,0.09277344,-0.057617188,-130.25,-197.25,-26.34375,0.0,0.0,0.0
1696243547532,-1.7363281,-0.58984375,0.10546875,65.6875,-199.5625,-126.3125,0.0,0.0,0.0
1696243547595,-0.7470703,-0.30078125,-0.20996094,363.78125,-156.09375,-92.5625,0.0,0.0,0.0
1696243547624,0.45117188,0.9482422,-0.2607422,175.0,-25.625,-41.0,0.0,0.0,0.0
1696243547657,1.1953125,0.08105469,-0.96972656,-25.5,100.375,49.40625,0.0,0.0,0.0
1696243547715,-0.06738281,0.0546875,0.06640625,-182.75,214.25,17.71875,0.0,0.0,0.0
1696243547745,-2.0,-0.296875,1.9873047,-160.40625,-177.34375,7.90625,0.0,0.0,0.0
1696243547773,-0.5205078,1.2314453,-2.0126953,-271.375,49.03125,-6.09375,0.0,0.0,0.0
1696243547836,0.06933594,-1.3808594,-1.9726562,-57.0625,158.53125,-31.34375,0.0,0.0,0.0
1696243547862,-0.8964844,0.62597656,-0.45898438,-206.46875,293.34375,153.15625,0.0,0.0,0.0
1696243547893,-2.0,-1.6777344,0.44726562,154.25,308.4375,-30.5,-98.6875,17.125,-60.625
1696243547958,-1.1582031,1.0195312,0.8857422,-109.375,196.6875,-15.125,0.0,0.0,0.0
1696243547987,-0.4091797,0.2109375,0.39257812,-96.5625,148.53125,48.65625,0.0,0.0,0.0
1696243548011,-0.3154297,-1.4306641,0.78808594,-11.53125,54.9375,7.28125,0.0,0.0,0.0
1696243548071,-0.265625,0.48339844,0.11230469,62.375,-100.9375,-49.40625,0.0,0.0,0.0
1696243548100,-0.3984375,0.3701172,-0.16113281,136.21875,-210.78125,10.21875,0.0,0.0,0.0
1696243548136,-2.0,-0.078125,0.38964844,-5.0625,-306.75,-30.125,0.0,0.0,0.0
1696243548196,-2.0,0.5439453,-0.37597656,-165.34375,-158.65625,-79.3125,0.0,0.0,0.0
1696243548225,-1.7089844,-0.9814453,0.18945312,124.09375,-194.375,-145.84375,0.0,0.0,0.0
1696243548252,-0.71484375,0.040039062,-0.12792969,303.15625,-165.4375,-83.65625,0.0,0.0,0.0
1696243548315,0.33789062,0.74902344,-0.24316406,121.28125,-25.6875,-29.40625,0.0,0.0,0.0
1696243548344,1.1494141,0.23925781,-1.0087891,-47.125,56.40625,63.0625,0.0,0.0,0.0
1696243548380,-0.12207031,-0.46289062,0.7441406,-124.03125,194.71875,9.125,0.0,0.0,0.0
1696243548463,-1.8310547,0.00390625,1.1826172,-276.5,-206.03125,-36.78125,-92.125,20.4375,-49.4375
1696243548467,-2.0,0.4423828,1.9873047,116.15625,81.6875,3.0,0.0,0.0,0.0
1696243548491,0.3359375,0.2529297,-0.4091797,-255.8125,258.9375,60.3125,0.0,0.0,0.0
1696243548555,-2.0,0.24902344,-0.4638672,-80.3125,214.375,341.4375,0.0,0.0,0.0
1696243548583,-1.5136719,-0.25976562,0.7265625,56.59375,269.25,-47.53125,0.0,0.0,0.0
1696243548613,-0.7675781,0.7050781,1.0361328,-92.28125,166.46875,22.96875,0.0,0.0,0.0
1696243548707,-0.42089844,-1.1064453,-0.109375,-28.1875,122.40625,55.625,0.0,0.0,0.0
1696243548718,-0.49609375,-0.3076172,0.9609375,14.96875,-43.875,-48.5625,0.0,0.0,0.0
1696243548732,-0.14648438,0.8173828,0.04296875,128.46875,-170.5,-14.4375,0.0,0.0,0.0
1696243548793,-1.6445312,0.12402344,0.0087890625,96.1875,-283.625,25.84375,0.0,0.0,0.0
1696243548823,-2.0,0.47460938,0.13964844,-156.75,-296.5625,-30.0,0.0,0.0,0.0
1696243548858,-2.0,-0.5488281,0.44335938,60.78125,-253.53125,-175.5625,0.0,0.0,0.0
1696243548914,-1.3398438,-0.71972656,-0.024414062,324.46875,-225.6875,-85.25,-88.5,13.25,-48.0625
1696243548944,0.18261719,0.46972656,-0.07519531,228.46875,-131.875,-47.40625,0.0,0.0,0.0
1696243548974,0.9345703,0.5605469,-0.7080078,80.75,59.96875,29.75,0.0,0.0,0.0
1696243549035,0.38183594,0.4033203,-0.5214844,-156.875,175.75,25.46875,0.0,0.0,0.0
1696243549064,-1.3378906,-0.46875,1.9873047,-109.75,62.71875,-19.375,0.0,0.0,0.0
1696243549093,-0.7636719,0.27148438,-2.0126953,-220.15625,-13.90625,0.9375,0.0,0.0,0.0
1696243549158,-1.3134766,-0.9736328,-1.4794922,233.09375,91.34375,119.53125,0.0,0.0,0.0
1696243549183,-1.3115234,0.20996094,0.5341797,-235.65625,206.5625,34.125,0.0,0.0,0.0
1696243549212,-2.0,-0.6298828,0.29296875,47.1875,280.1875,114.875,0.0,0.0,0.0
1696243549275,-1.5761719,0.47851562,0.71972656,82.875,213.71875,-3.8125,0.0,0.0,0.0
1696243549303,-0.703125,0.5263672,1.0371094,-66.78125,149.75,36.40625,0.0,0.0,0.0
1696243549337,-0.24023438,-1.3330078,-0.26953125,-45.21875,74.84375,46.65625,0.0,0.0,0.0
1696243549427,-0.45507812,-0.044921875,0.57714844,27.46875,-84.6875,-59.125,0.0,0.0,0.0
1696243549433,-0.3955078,0.6875,-0.3203125,139.84375,-177.90625,-19.5,-102.3125,21.1875,-74.4375
1696243549451,-2.0,0.5371094,0.5908203,77.625,-318.28125,-15.53125,0.0,0.0,0.0
1696243549516,-2.0,-0.26464844,0.12792969,-123.40625,-267.3125,7.71875,0.0,0.0,0.0
1696243549544,-2.0,-0.5576172,0.29296875,104.84375,-226.3125,-112.96875,0.0,0.0,0.0
1696243549572,-0.84472656,-0.3076172,-0.041992188,313.59375,-201.15625,-104.53125,0.0,0.0,0.0
1696243549633,0.5966797,0.5488281,-0.13378906,193.53125,-59.65625,-8.53125,0.0,0.0,0.0
1696243549661,1.0537109,0.3330078,-1.0009766,-25.03125,36.34375,50.4375,0.0,0.0,0.0
1696243549692,0.12792969,0.053710938,0.24511719,-204.59375,197.28125,-6.21875,0.0,0.0,0.0
1696243549753,-2.0,-0.75878906,1.6533203,-124.15625,-167.65625,-21.09375,0.0,0.0,0.0
1696243549782,0.546875,1.8105469,-0.6123047,-188.96875,137.03125,-43.5,0.0,0.0,0.0
1696243549812,-1.9462891,-1.1845703,-1.4082031,-132.03125,242.5,49.9375,0.0,0.0,0.0
1696243549873,-1.1230469,0.21386719,-0.27441406,-148.0625,277.4375,97.5625,0.0,0.0,0.0
1696243549904,-2.0,-1.3486328,0.52734375,65.78125,248.0625,45.84375,-97.1875,23.0,-59.625
1696243549933,-1.1259766,0.8330078,1.1015625,-19.96875,186.78125,-10.1875,0.0,0.0,0.0
1696243549993,-0.5126953,0.16503906,0.4013672,-83.125,139.0625,39.75,0.0,0.0,0.0
1696243550022,-0.35253906,-1.3505859,0.6123047,35.15625,78.34375,-0.84375,0.0,0.0,0.0
1696243550053,-0.20605469,0.46777344,0.50878906,74.78125,-83.09375,-45.875,0.0,0.0,0.0
1696243550114,-0.6611328,0.53515625,-0.4501953,128.25,-183.03125,-4.8125,0.0,0.0,0.0
1696243550145,-2.0,0.4453125,0.3232422,32.28125,-274.28125,-36.40625,0.0,0.0,0.0
1696243550172,-2.0,0.15136719,-0.17675781,-73.65625,-215.625,-53.25,0.0,0.0,0.0
1696243550231,-1.5166016,-0.7207031,0.375,125.0,-196.4375,-131.15625,0.0,0.0,0.0
1696243550265,-0.578125,-0.3310547,-0.1015625,306.75,-161.21875,-58.75,0.0,0.0,0.0
1696243550293,0.5888672,0.80859375,-0.44335938,130.84375,-17.5,-21.15625,0.0,0.0,0.0
1696243550352,1.0185547,-0.057617188,-1.0087891,-38.09375,71.75,33.03125,0.0,0.0,0.0
1696243550389,-0.4111328,-0.029296875,0.44140625,-143.875,225.90625,-12.0625,0.0,0.0,0.0
1696243550444,-2.0,0.43945312,1.9873047,-84.65625,-421.0625,-1.4375,-93.3125,26.125,-52.125
1696243550474,-0.67578125,1.3408203,1.9873047,53.03125,21.4375,-8.21875,0.0,0.0,0.0
1696243550504,-0.3720703,-0.36914062,-0.9736328,-95.8125,176.90625,-18.78125,0.0,0.0,0.0
1696243550538,-1.8779297,1.1552734,0.6621094,-236.8125,222.0625,141.9375,0.0,0.0,0.0
1696243550594,-2.0,-1.2275391,0.44921875,3.40625,333.75,-14.8125,0.0,0.0,0.0
1696243550625,-1.3955078,0.5888672,1.0283203,-54.9375,158.53125,-12.25,0.0,0.0,0.0
